sender,sender_type,sender_id,timestamp,meta,,Blues,Classical,Country,Dance,Electronic,Folk,Gospel,Hip-Hop,Jazz,Latin,Musical/Film,New-age,Pop,Prolific_id,Provo_ID,R&B,Rap,Reggae,Religious,Rock,Soul,Swing,Traditional,age,artist_name,correct,correctResponse,distraction,duration,education,ended_on,familiarity,gender,headphone_check_performance,item,list,music_frequency,offensiveness,pleasantness,position_correct,preference,response,response_action,snippet_file,song_name,song_rating,sound,stimulus_1,stimulus_2,stimulus_3,text,time_commit,time_end,time_render,time_run,time_show,time_switch,url,word,word_ID
Prolific ID,html.Form,0,2022-02-15T13:18:23.738Z,"{""labjs_version"":""20.2.2"",""labjs_build"":{""flavor"":""production"",""commit"":""a25486e0c714a0ae2ce03ff94b7bb6896854dcfa""},""location"":""https://run.pavlovia.org/mvasilev/prolific2_music_e/"",""userAgent"":""Mozilla/5.0 (Windows NT 10.0; Win64; x64; rv:97.0) Gecko/20100101 Firefox/97.0"",""platform"":""Win32"",""language"":""en-GB"",""locale"":""en-GB"",""timeZone"":""UTC"",""timezoneOffset"":0,""screen_width"":1536,""screen_height"":864,""scroll_width"":1474,""scroll_height"":676,""window_innerWidth"":1474,""window_innerHeight"":724,""devicePixelRatio"":1.25}",,,,,,,,,,,,,,,5d776e218a8d1d00166d36a6,,,,,,,,,,,,,,,19406.2,,form submission,,,,,,,,,,,,,,,,,,,,,26298,26297,6883.94,6884,6890.8,26302.72,{},,
Introduction,html.Screen,1_0,2022-02-15T13:19:04.414Z,,,,,,,,,,,,,,,,,,,,,,,,,,,,,,,40661.28,,response,,,,,,,,,,,continue,click button,,,,,,,,,66975,66964,26286.78,26299,26302.72,66976.1,,,
Volume calibration,html.Screen,1_1,2022-02-15T13:19:12.600Z,,,,,,,,,,,,,,,,,,,,,,,,,,,,,,,8174.899999999994,,response,,,,,,,,,,,continue,click button,,,,,,,,,75161,75151,66973.22,66975,66976.1,75174.06,,,
Task instructions,html.Screen,1_2,2022-02-15T13:19:13.819Z,,,,,,,,,,,,,,,,,,,,,,,,,,,,,,,1195.9400000000023,,response,,,,,,,,,,,continue,click button,,,,,,,,,76379,76370,75159.14,75161,75174.06,76390.42,,,
Sounds,html.Screen,1_3_0_0,2022-02-15T13:19:18.063Z,,,,,,,,,,,,,,,,,,,,,,,,,,,,,,,4248.960000000006,,timeout,,,,,,,,,1,,,,,,,,S,I,O,,80623,80622.72,76377.64,76380,76390.42,80639.38,,,
Judgement,html.Screen,1_3_0_1,2022-02-15T13:19:21.171Z,,,,,,,,,,,,,,,,,,,,,,,,,,,,true,1,,3074.6199999999953,,response,,,,,,,,,1,,1,click #choice-1,,,,,S,I,O,,83731,83714,80622.72,80623,80639.38,83738.64,,,
Trial,flow.Sequence,1_3_0,2022-02-15T13:19:21.171Z,,,,,,,,,,,,,,,,,,,,,,,,,,,,,,,7323.580000000002,,completion,,,,,,,,,1,,,,,,,,S,I,O,,83731,83714,76377.64,76380,76390.42,83738.64,,,
Sounds,html.Screen,1_3_1_0,2022-02-15T13:19:25.412Z,,,,,,,,,,,,,,,,,,,,,,,,,,,,,,,4248.979999999996,,timeout,,,,,,,,,2,,,,,,,,I,S,O,,87972,87970.94,83729.78,83732,83738.64,87987.62,,,
Judgement,html.Screen,1_3_1_1,2022-02-15T13:19:27.036Z,,,,,,,,,,,,,,,,,,,,,,,,,,,,true,2,,1601.3800000000047,,response,,,,,,,,,2,,2,click #choice-2,,,,,I,S,O,,89596,89589,87970.94,87972,87987.62,89603.86,,,
Trial,flow.Sequence,1_3_1,2022-02-15T13:19:27.036Z,,,,,,,,,,,,,,,,,,,,,,,,,,,,,,,5850.360000000001,,completion,,,,,,,,,2,,,,,,,,I,S,O,,89596,89589,83729.78,83731,83738.64,89603.86,,,
Sounds,html.Screen,1_3_2_0,2022-02-15T13:19:31.277Z,,,,,,,,,,,,,,,,,,,,,,,,,,,,,,,4248.979999999996,,timeout,,,,,,,,,2,,,,,,,,O,S,I,,93837,93836.18,89595.14,89597,89603.86,93852.84,,,
Judgement,html.Screen,1_3_2_1,2022-02-15T13:19:31.812Z,,,,,,,,,,,,,,,,,,,,,,,,,,,,true,2,,501.1600000000035,,response,,,,,,,,,2,,2,click #choice-2,,,,,O,S,I,,94372,94354,93836.18,93838,93852.84,94385.98,,,
Trial,flow.Sequence,1_3_2,2022-02-15T13:19:31.812Z,,,,,,,,,,,,,,,,,,,,,,,,,,,,,,,4750.139999999999,,completion,,,,,,,,,2,,,,,,,,O,S,I,,94373,94354,89595.14,89597,89603.86,94385.98,,,
Sounds,html.Screen,1_3_3_0,2022-02-15T13:19:36.059Z,,,,,,,,,,,,,,,,,,,,,,,,,,,,,,,4249,,timeout,,,,,,,,,1,,,,,,,,S,O,I,,98619,98618.32,94371.18,94373,94385.98,98634.98,,,
Judgement,html.Screen,1_3_3_1,2022-02-15T13:19:36.772Z,,,,,,,,,,,,,,,,,,,,,,,,,,,,true,1,,688.0200000000041,,response,,,,,,,,,1,,1,click #choice-1,,,,,S,O,I,,99332,99323,98618.32,98619,98634.98,99334.8,,,
Trial,flow.Sequence,1_3_3,2022-02-15T13:19:36.772Z,,,,,,,,,,,,,,,,,,,,,,,,,,,,,,,4937.020000000004,,completion,,,,,,,,,1,,,,,,,,S,O,I,,99332,99323,94371.18,94373,94385.98,99334.8,,,
Sounds,html.Screen,1_3_4_0,2022-02-15T13:19:41.010Z,,,,,,,,,,,,,,,,,,,,,,,,,,,,,,,4248.959999999992,,timeout,,,,,,,,,3,,,,,,,,O,I,S,,103570,103567.1,99331.6,99332,99334.8,103583.76,,,
Judgement,html.Screen,1_3_4_1,2022-02-15T13:19:42.001Z,,,,,,,,,,,,,,,,,,,,,,,,,,,,true,3,,974.2400000000052,,response,,,,,,,,,3,,3,click #choice-3,,,,,O,I,S,,104562,104558,103567.1,103571,103583.76,104566.86,,,
Trial,flow.Sequence,1_3_4,2022-02-15T13:19:42.001Z,,,,,,,,,,,,,,,,,,,,,,,,,,,,,,,5223.199999999997,,completion,,,,,,,,,3,,,,,,,,O,I,S,,104562,104558,99331.6,99332,99334.8,104566.86,,,
Sounds,html.Screen,1_3_5_0,2022-02-15T13:19:46.243Z,,,,,,,,,,,,,,,,,,,,,,,,,,,,,,,4248.919999999998,,timeout,,,,,,,,,3,,,,,,,,I,O,S,,108802,108799.12,104560.46,104562,104566.86,108815.78,,,
Judgement,html.Screen,1_3_5_1,2022-02-15T13:19:46.846Z,,,,,,,,,,,,,,,,,,,,,,,,,,,,true,3,,585.2200000000012,,response,,,,,,,,,3,,3,click #choice-3,,,,,I,O,S,,109407,109401,108799.12,108803,108815.78,109415.68,,,
Trial,flow.Sequence,1_3_5,2022-02-15T13:19:46.847Z,,,,,,,,,,,,,,,,,,,,,,,,,,,,,,,4834.139999999999,,completion,,,,,,,,,3,,,,,,,,I,O,S,,109408,109401,104560.46,104562,104566.86,109415.68,,,
Task,flow.Loop,1_3,2022-02-15T13:19:46.847Z,,,,,,,,,,,,,,,,,,,,,,,,,,,,,,,33010.58,,completion,,,1,,,,,,,,,,,,,,,,,,109408,109401,76377.64,76380,76390.42,109415.68,,,
Trap,html.Screen,1_4,2022-02-15T13:19:46.849Z,,,,,,,,,,,,,,,,,,,,,,,,,,,,,,,NaN,,skipped,,,,,,,,,,,,,,,,,,,,,109410,109401,,109410,,109415.68,,,
Thanks,html.Screen,1_5,2022-02-15T13:19:49.627Z,,,,,,,,,,,,,,,,,,,,,,,,,,,,,,,2766.320000000007,,response,,,,,,,,,,,continue,click button,,,,,,,,,112186,112182,109406.38,109410,109415.68,117063.78,,,
Headphone screening,flow.Sequence,1,2022-02-15T13:19:49.627Z,,,,,,,,,,,,,,,,,,,,,,,,,,,,,,,85879.28,,completion,,,,,,,,,,,,,,,,,,,,,112187,112182,26286.78,26298,26302.72,117063.78,,,
Instructions,html.Page,2_0,2022-02-15T13:20:50.644Z,,,,,,,,,,,,,,,,,,,,,,,,,,,,,,,56141.22,,form submission,,,,,,,,,,,,,,,,,,,,,173205,173205,117047.12,117040,117063.78,173216.68,,,
Holding screen,html.Screen,2_1_0_0,2022-02-15T13:21:00.638Z,,,,,,,,,,,,,,,,,,,,,,,,,,,,,,,9997.540000000008,,timeout,,,,,,,,,,,,,,,,,,,,,183199,183197.56,173202.54,173205,173216.68,183214.22,,,
screen,html.Screen,2_1_0_1_0,2022-02-15T13:21:01.587Z,,,,,,,,,,,,,,,,,53,,,,,,,,,,,,,,920.7799999999988,,response,,,,99,,,,,,,Space,keypress(Space),,,,,,,,When -- ----- -- ------ - ------- --- ----------<br>------------- ------ ------ ---- ---- ------- ----- -- ----<br>-------- ------- -- ---------- --- - --- ----- ----- ----<br>---- --- --- ----- --- ---- ---- ------- ----- ---- -------<br>--- --- -- ----- -- --- ---- -- --- ---- -- ------ ------<br>--- ----- -- ----,184148,184135,183197.56,183199,183214.22,184164,,0,When
screen,html.Screen,2_1_0_1_1,2022-02-15T13:21:01.937Z,,,,,,,,,,,,,,,,,53,,,,,,,,,,,,,,331,,response,,,,99,,,,,,,Space,keypress(Space),,,,,,,,---- it ----- -- ------ - ------- --- ----------<br>------------- ------ ------ ---- ---- ------- ----- -- ----<br>-------- ------- -- ---------- --- - --- ----- ----- ----<br>---- --- --- ----- --- ---- ---- ------- ----- ---- -------<br>--- --- -- ----- -- --- ---- -- --- ---- -- ------ ------<br>--- ----- -- ----,184497,184495,184147.44,184148,184164,184497.22,,1,it
screen,html.Screen,2_1_0_1_2,2022-02-15T13:21:02.292Z,,,,,,,,,,,,,,,,,53,,,,,,,,,,,,,,340.77999999999884,,response,,,,99,,,,,,,Space,keypress(Space),,,,,,,,---- -- comes -- ------ - ------- --- ----------<br>------------- ------ ------ ---- ---- ------- ----- -- ----<br>-------- ------- -- ---------- --- - --- ----- ----- ----<br>---- --- --- ----- --- ---- ---- ------- ----- ---- -------<br>--- --- -- ----- -- --- ---- -- --- ---- -- ------ ------<br>--- ----- -- ----,184853,184838,184497.02,184497,184497.22,184863.78,,2,comes
screen,html.Screen,2_1_0_1_3,2022-02-15T13:21:02.638Z,,,,,,,,,,,,,,,,,53,,,,,,,,,,,,,,319.22000000000116,,response,,,,99,,,,,,,Space,keypress(Space),,,,,,,,---- -- ----- to ------ - ------- --- ----------<br>------------- ------ ------ ---- ---- ------- ----- -- ----<br>-------- ------- -- ---------- --- - --- ----- ----- ----<br>---- --- --- ----- --- ---- ---- ------- ----- ---- -------<br>--- --- -- ----- -- --- ---- -- --- ---- -- ------ ------<br>--- ----- -- ----,185198,185183,184852.84,184853,184863.78,185213.74,,3,to
screen,html.Screen,2_1_0_1_4,2022-02-15T13:21:02.984Z,,,,,,,,,,,,,,,,,53,,,,,,,,,,,,,,328.2600000000093,,response,,,,99,,,,,,,Space,keypress(Space),,,,,,,,---- -- ----- -- having - ------- --- ----------<br>------------- ------ ------ ---- ---- ------- ----- -- ----<br>-------- ------- -- ---------- --- - --- ----- ----- ----<br>---- --- --- ----- --- ---- ---- ------- ----- ---- -------<br>--- --- -- ----- -- --- ---- -- --- ---- -- ------ ------<br>--- ----- -- ----,185545,185542,185198.16,185198,185213.74,185546.98,,4,having
screen,html.Screen,2_1_0_1_5,2022-02-15T13:21:03.339Z,,,,,,,,,,,,,,,,,53,,,,,,,,,,,,,,338.0199999999895,,response,,,,99,,,,,,,Space,keypress(Space),,,,,,,,---- -- ----- -- ------ a ------- --- ----------<br>------------- ------ ------ ---- ---- ------- ----- -- ----<br>-------- ------- -- ---------- --- - --- ----- ----- ----<br>---- --- --- ----- --- ---- ---- ------- ----- ---- -------<br>--- --- -- ----- -- --- ---- -- --- ---- -- ------ ------<br>--- ----- -- ----,185899,185885,185544.86,185545,185546.98,185913.54,,5,a
screen,html.Screen,2_1_0_1_6,2022-02-15T13:21:03.657Z,,,,,,,,,,,,,,,,,53,,,,,,,,,,,,,,300.45999999999185,,response,,,,99,,,,,,,Space,keypress(Space),,,,,,,,---- -- ----- -- ------ - lasting --- ----------<br>------------- ------ ------ ---- ---- ------- ----- -- ----<br>-------- ------- -- ---------- --- - --- ----- ----- ----<br>---- --- --- ----- --- ---- ---- ------- ----- ---- -------<br>--- --- -- ----- -- --- ---- -- --- ---- -- ------ ------<br>--- ----- -- ----,186217,186214,185899.4,185899,185913.54,186230.14,,6,lasting
screen,html.Screen,2_1_0_1_7,2022-02-15T13:21:04.042Z,,,,,,,,,,,,,,,,,53,,,,,,,,,,,,,,358.85999999998603,,response,,,,99,,,,,,,Space,keypress(Space),,,,,,,,---- -- ----- -- ------ - ------- and ----------<br>------------- ------ ------ ---- ---- ------- ----- -- ----<br>-------- ------- -- ---------- --- - --- ----- ----- ----<br>---- --- --- ----- --- ---- ---- ------- ----- ---- -------<br>--- --- -- ----- -- --- ---- -- --- ---- -- ------ ------<br>--- ----- -- ----,186602,186589,186218.26,186218,186230.14,186613.36,,7,and
screen,html.Screen,2_1_0_1_8,2022-02-15T13:21:04.394Z,,,,,,,,,,,,,,,,,53,,,,,,,,,,,,,,334.64000000001397,,response,,,,99,,,,,,,Space,keypress(Space),,,,,,,,---- -- ----- -- ------ - ------- --- fulfilling<br>------------- ------ ------ ---- ---- ------- ----- -- ----<br>-------- ------- -- ---------- --- - --- ----- ----- ----<br>---- --- --- ----- --- ---- ---- ------- ----- ---- -------<br>--- --- -- ----- -- --- ---- -- --- ---- -- ------ ------<br>--- ----- -- ----,186954,186948,186602.46,186602,186613.36,186963.28,,8,fulfilling
screen,html.Screen,2_1_0_1_9,2022-02-15T13:21:04.782Z,,,,,,,,,,,,,,,,,53,,,,,,,,,,,,,,375.72000000000116,,response,,,,99,,,,,,,Space,keypress(Space),,,,,,,,"---- -- ----- -- ------ - ------- --- ----------<br>relationship, ------ ------ ---- ---- ------- ----- -- ----<br>-------- ------- -- ---------- --- - --- ----- ----- ----<br>---- --- --- ----- --- ---- ---- ------- ----- ---- -------<br>--- --- -- ----- -- --- ---- -- --- ---- -- ------ ------<br>--- ----- -- ----",187343,187339,186954.58,186954,186963.28,187346.56,,9,"relationship,"
screen,html.Screen,2_1_0_1_10,2022-02-15T13:21:05.136Z,,,,,,,,,,,,,,,,,53,,,,,,,,,,,,,,336.4400000000023,,response,,,,99,,,,,,,Space,keypress(Space),,,,,,,,---- -- ----- -- ------ - ------- --- ----------<br>------------- common ------ ---- ---- ------- ----- -- ----<br>-------- ------- -- ---------- --- - --- ----- ----- ----<br>---- --- --- ----- --- ---- ---- ------- ----- ---- -------<br>--- --- -- ----- -- --- ---- -- --- ---- -- ------ ------<br>--- ----- -- ----,187696,187683,187343.12,187343,187346.56,187696.42,,10,common
screen,html.Screen,2_1_0_1_11,2022-02-15T13:21:05.462Z,,,,,,,,,,,,,,,,,53,,,,,,,,,,,,,,314.5799999999872,,response,,,,99,,,,,,,Space,keypress(Space),,,,,,,,---- -- ----- -- ------ - ------- --- ----------<br>------------- ------ wisdom ---- ---- ------- ----- -- ----<br>-------- ------- -- ---------- --- - --- ----- ----- ----<br>---- --- --- ----- --- ---- ---- ------- ----- ---- -------<br>--- --- -- ----- -- --- ---- -- --- ---- -- ------ ------<br>--- ----- -- ----,188022,188011,187696.3,187696,187696.42,188029.68,,11,wisdom
screen,html.Screen,2_1_0_1_12,2022-02-15T13:21:05.860Z,,,,,,,,,,,,,,,,,53,,,,,,,,,,,,,,387.320000000007,,response,,,,99,,,,,,,Space,keypress(Space),,,,,,,,---- -- ----- -- ------ - ------- --- ----------<br>------------- ------ ------ says ---- ------- ----- -- ----<br>-------- ------- -- ---------- --- - --- ----- ----- ----<br>---- --- --- ----- --- ---- ---- ------- ----- ---- -------<br>--- --- -- ----- -- --- ---- -- --- ---- -- ------ ------<br>--- ----- -- ----,188420,188417,188022.66,188023,188029.68,188429.58,,12,says
screen,html.Screen,2_1_0_1_13,2022-02-15T13:21:06.192Z,,,,,,,,,,,,,,,,,53,,,,,,,,,,,,,,315.4200000000128,,response,,,,99,,,,,,,Space,keypress(Space),,,,,,,,---- -- ----- -- ------ - ------- --- ----------<br>------------- ------ ------ ---- that ------- ----- -- ----<br>-------- ------- -- ---------- --- - --- ----- ----- ----<br>---- --- --- ----- --- ---- ---- ------- ----- ---- -------<br>--- --- -- ----- -- --- ---- -- --- ---- -- ------ ------<br>--- ----- -- ----,188752,188745,188420.16,188420,188429.58,188762.86,,13,that
screen,html.Screen,2_1_0_1_14,2022-02-15T13:21:06.581Z,,,,,,,,,,,,,,,,,53,,,,,,,,,,,,,,373.14000000001397,,response,,,,99,,,,,,,Space,keypress(Space),,,,,,,,---- -- ----- -- ------ - ------- --- ----------<br>------------- ------ ------ ---- ---- feeling ----- -- ----<br>-------- ------- -- ---------- --- - --- ----- ----- ----<br>---- --- --- ----- --- ---- ---- ------- ----- ---- -------<br>--- --- -- ----- -- --- ---- -- --- ---- -- ------ ------<br>--- ----- -- ----,189142,189136,188752.12,188752,188762.86,189146.12,,14,feeling
screen,html.Screen,2_1_0_1_15,2022-02-15T13:21:06.960Z,,,,,,,,,,,,,,,,,53,,,,,,,,,,,,,,364.88000000000466,,response,,,,99,,,,,,,Space,keypress(Space),,,,,,,,---- -- ----- -- ------ - ------- --- ----------<br>------------- ------ ------ ---- ---- ------- close -- ----<br>-------- ------- -- ---------- --- - --- ----- ----- ----<br>---- --- --- ----- --- ---- ---- ------- ----- ---- -------<br>--- --- -- ----- -- --- ---- -- --- ---- -- ------ ------<br>--- ----- -- ----,189520,189511,189141.98,189142,189146.12,189529.4,,15,close
screen,html.Screen,2_1_0_1_16,2022-02-15T13:21:07.293Z,,,,,,,,,,,,,,,,,53,,,,,,,,,,,,,,309.6000000000058,,response,,,,99,,,,,,,Space,keypress(Space),,,,,,,,---- -- ----- -- ------ - ------- --- ----------<br>------------- ------ ------ ---- ---- ------- ----- to ----<br>-------- ------- -- ---------- --- - --- ----- ----- ----<br>---- --- --- ----- --- ---- ---- ------- ----- ---- -------<br>--- --- -- ----- -- --- ---- -- --- ---- -- ------ ------<br>--- ----- -- ----,189854,189839,189520.08,189520,189529.4,189862.58,,16,to
screen,html.Screen,2_1_0_1_17,2022-02-15T13:21:08.065Z,,,,,,,,,,,,,,,,,53,,,,,,,,,,,,,,757.4200000000128,,response,,,,99,,,,,,,Space,keypress(Space),,,,,,,,---- -- ----- -- ------ - ------- --- ----------<br>------------- ------ ------ ---- ---- ------- ----- -- your<br>-------- ------- -- ---------- --- - --- ----- ----- ----<br>---- --- --- ----- --- ---- ---- ------- ----- ---- -------<br>--- --- -- ----- -- --- ---- -- --- ---- -- ------ ------<br>--- ----- -- ----,190625,190620,189853.66,189854,189862.58,190629.08,,17,your
screen,html.Screen,2_1_0_1_18,2022-02-15T13:21:08.426Z,,,,,,,,,,,,,,,,,53,,,,,,,,,,,,,,349.9200000000128,,response,,,,99,,,,,,,Space,keypress(Space),,,,,,,,---- -- ----- -- ------ - ------- --- ----------<br>------------- ------ ------ ---- ---- ------- ----- -- ----<br>romantic ------- -- ---------- --- - --- ----- ----- ----<br>---- --- --- ----- --- ---- ---- ------- ----- ---- -------<br>--- --- -- ----- -- --- ---- -- --- ---- -- ------ ------<br>--- ----- -- ----,190986,190979,190625.66,190626,190629.08,190995.64,,18,romantic
screen,html.Screen,2_1_0_1_19,2022-02-15T13:21:08.803Z,,,,,,,,,,,,,,,,,53,,,,,,,,,,,,,,358.35999999998603,,response,,,,99,,,,,,,Space,keypress(Space),,,,,,,,---- -- ----- -- ------ - ------- --- ----------<br>------------- ------ ------ ---- ---- ------- ----- -- ----<br>-------- partner -- ---------- --- - --- ----- ----- ----<br>---- --- --- ----- --- ---- ---- ------- ----- ---- -------<br>--- --- -- ----- -- --- ---- -- --- ---- -- ------ ------<br>--- ----- -- ----,191363,191354,190986.84,190986,190995.64,191378.88,,19,partner
screen,html.Screen,2_1_0_1_20,2022-02-15T13:21:09.147Z,,,,,,,,,,,,,,,,,53,,,,,,,,,,,,,,319.11999999999534,,response,,,,99,,,,,,,Space,keypress(Space),,,,,,,,---- -- ----- -- ------ - ------- --- ----------<br>------------- ------ ------ ---- ---- ------- ----- -- ----<br>-------- ------- is ---------- --- - --- ----- ----- ----<br>---- --- --- ----- --- ---- ---- ------- ----- ---- -------<br>--- --- -- ----- -- --- ---- -- --- ---- -- ------ ------<br>--- ----- -- ----,191708,191698,191363,191363,191378.88,191712.14,,20,is
screen,html.Screen,2_1_0_1_21,2022-02-15T13:21:09.475Z,,,,,,,,,,,,,,,,,53,,,,,,,,,,,,,,313.85999999998603,,response,,,,99,,,,,,,Space,keypress(Space),,,,,,,,---- -- ----- -- ------ - ------- --- ----------<br>------------- ------ ------ ---- ---- ------- ----- -- ----<br>-------- ------- -- paramount. --- - --- ----- ----- ----<br>---- --- --- ----- --- ---- ---- ------- ----- ---- -------<br>--- --- -- ----- -- --- ---- -- --- ---- -- ------ ------<br>--- ----- -- ----,192036,192026,191707.72,191708,191712.14,192045.36,,21,paramount.
screen,html.Screen,2_1_0_1_22,2022-02-15T13:21:09.845Z,,,,,,,,,,,,,,,,,53,,,,,,,,,,,,,,355.64000000001397,,response,,,,99,,,,,,,Space,keypress(Space),,,,,,,,---- -- ----- -- ------ - ------- --- ----------<br>------------- ------ ------ ---- ---- ------- ----- -- ----<br>-------- ------- -- ---------- But - --- ----- ----- ----<br>---- --- --- ----- --- ---- ---- ------- ----- ---- -------<br>--- --- -- ----- -- --- ---- -- --- ---- -- ------ ------<br>--- ----- -- ----,192405,192401,192036.1,192036,192045.36,192411.98,,22,But
screen,html.Screen,2_1_0_1_23,2022-02-15T13:21:10.167Z,,,,,,,,,,,,,,,,,53,,,,,,,,,,,,,,302.0199999999895,,response,,,,99,,,,,,,Space,keypress(Space),,,,,,,,---- -- ----- -- ------ - ------- --- ----------<br>------------- ------ ------ ---- ---- ------- ----- -- ----<br>-------- ------- -- ---------- --- a --- ----- ----- ----<br>---- --- --- ----- --- ---- ---- ------- ----- ---- -------<br>--- --- -- ----- -- --- ---- -- --- ---- -- ------ ------<br>--- ----- -- ----,192728,192714,192405.22,192405,192411.98,192728.5,,23,a
screen,html.Screen,2_1_0_1_24,2022-02-15T13:21:10.461Z,,,,,,,,,,,,,,,,,53,,,,,,,,,,,,,,282.5,,response,,,,99,,,,,,,Space,keypress(Space),,,,,,,,---- -- ----- -- ------ - ------- --- ----------<br>------------- ------ ------ ---- ---- ------- ----- -- ----<br>-------- ------- -- ---------- --- - new ----- ----- ----<br>---- --- --- ----- --- ---- ---- ------- ----- ---- -------<br>--- --- -- ----- -- --- ---- -- --- ---- -- ------ ------<br>--- ----- -- ----,193021,193011,192727.6,192728,192728.5,193028.46,,24,new
screen,html.Screen,2_1_0_1_25,2022-02-15T13:21:10.820Z,,,,,,,,,,,,,,,,,53,,,,,,,,,,,,,,341.54000000000815,,response,,,,99,,,,,,,Space,keypress(Space),,,,,,,,---- -- ----- -- ------ - ------- --- ----------<br>------------- ------ ------ ---- ---- ------- ----- -- ----<br>-------- ------- -- ---------- --- - --- study ----- ----<br>---- --- --- ----- --- ---- ---- ------- ----- ---- -------<br>--- --- -- ----- -- --- ---- -- --- ---- -- ------ ------<br>--- ----- -- ----,193380,193370,193020.96,193021,193028.46,193395.08,,25,study
screen,html.Screen,2_1_0_1_26,2022-02-15T13:21:11.206Z,,,,,,,,,,,,,,,,,53,,,,,,,,,,,,,,365.9200000000128,,response,,,,99,,,,,,,Space,keypress(Space),,,,,,,,---- -- ----- -- ------ - ------- --- ----------<br>------------- ------ ------ ---- ---- ------- ----- -- ----<br>-------- ------- -- ---------- --- - --- ----- finds ----<br>---- --- --- ----- --- ---- ---- ------- ----- ---- -------<br>--- --- -- ----- -- --- ---- -- --- ---- -- ------ ------<br>--- ----- -- ----,193765,193761,193379.78,193380,193395.08,193778.34,,26,finds
screen,html.Screen,2_1_0_1_27,2022-02-15T13:21:11.602Z,,,,,,,,,,,,,,,,,53,,,,,,,,,,,,,,372.6600000000035,,response,,,,99,,,,,,,Space,keypress(Space),,,,,,,,---- -- ----- -- ------ - ------- --- ----------<br>------------- ------ ------ ---- ---- ------- ----- -- ----<br>-------- ------- -- ---------- --- - --- ----- ----- that<br>---- --- --- ----- --- ---- ---- ------- ----- ---- -------<br>--- --- -- ----- -- --- ---- -- --- ---- -- ------ ------<br>--- ----- -- ----,194162,194151,193765.9,193766,193778.34,194178.18,,27,that
screen,html.Screen,2_1_0_1_28,2022-02-15T13:21:11.956Z,,,,,,,,,,,,,,,,,53,,,,,,,,,,,,,,332.820000000007,,response,,,,99,,,,,,,Space,keypress(Space),,,,,,,,---- -- ----- -- ------ - ------- --- ----------<br>------------- ------ ------ ---- ---- ------- ----- -- ----<br>-------- ------- -- ---------- --- - --- ----- ----- ----<br>it's --- --- ----- --- ---- ---- ------- ----- ---- -------<br>--- --- -- ----- -- --- ---- -- --- ---- -- ------ ------<br>--- ----- -- ----,194516,194511,194162.26,194162,194178.18,194528.12,,28,it's
screen,html.Screen,2_1_0_1_29,2022-02-15T13:21:12.262Z,,,,,,,,,,,,,,,,,53,,,,,,,,,,,,,,279.88000000000466,,response,,,,99,,,,,,,Space,keypress(Space),,,,,,,,---- -- ----- -- ------ - ------- --- ----------<br>------------- ------ ------ ---- ---- ------- ----- -- ----<br>-------- ------- -- ---------- --- - --- ----- ----- ----<br>---- not --- ----- --- ---- ---- ------- ----- ---- -------<br>--- --- -- ----- -- --- ---- -- --- ---- -- ------ ------<br>--- ----- -- ----,194823,194808,194516.74,194517,194528.12,194828.04,,29,not
screen,html.Screen,2_1_0_1_30,2022-02-15T13:21:12.616Z,,,,,,,,,,,,,,,,,53,,,,,,,,,,,,,,337.95999999999185,,response,,,,99,,,,,,,Space,keypress(Space),,,,,,,,---- -- ----- -- ------ - ------- --- ----------<br>------------- ------ ------ ---- ---- ------- ----- -- ----<br>-------- ------- -- ---------- --- - --- ----- ----- ----<br>---- --- how ----- --- ---- ---- ------- ----- ---- -------<br>--- --- -- ----- -- --- ---- -- --- ---- -- ------ ------<br>--- ----- -- ----,195176,195166,194822.48,194823,194828.04,195177.92,,30,how
screen,html.Screen,2_1_0_1_31,2022-02-15T13:21:12.991Z,,,,,,,,,,,,,,,,,53,,,,,,,,,,,,,,364.0799999999872,,response,,,,99,,,,,,,Space,keypress(Space),,,,,,,,---- -- ----- -- ------ - ------- --- ----------<br>------------- ------ ------ ---- ---- ------- ----- -- ----<br>-------- ------- -- ---------- --- - --- ----- ----- ----<br>---- --- --- close --- ---- ---- ------- ----- ---- -------<br>--- --- -- ----- -- --- ---- -- --- ---- -- ------ ------<br>--- ----- -- ----,195550,195542,195176.14,195176,195177.92,195561.18,,31,close
screen,html.Screen,2_1_0_1_32,2022-02-15T13:21:13.314Z,,,,,,,,,,,,,,,,,53,,,,,,,,,,,,,,308.820000000007,,response,,,,99,,,,,,,Space,keypress(Space),,,,,,,,---- -- ----- -- ------ - ------- --- ----------<br>------------- ------ ------ ---- ---- ------- ----- -- ----<br>-------- ------- -- ---------- --- - --- ----- ----- ----<br>---- --- --- ----- you ---- ---- ------- ----- ---- -------<br>--- --- -- ----- -- --- ---- -- --- ---- -- ------ ------<br>--- ----- -- ----,195873,195870,195550.66,195550,195561.18,195877.78,,32,you
screen,html.Screen,2_1_0_1_33,2022-02-15T13:21:13.648Z,,,,,,,,,,,,,,,,,53,,,,,,,,,,,,,,320.22000000000116,,response,,,,99,,,,,,,Space,keypress(Space),,,,,,,,---- -- ----- -- ------ - ------- --- ----------<br>------------- ------ ------ ---- ---- ------- ----- -- ----<br>-------- ------- -- ---------- --- - --- ----- ----- ----<br>---- --- --- ----- --- feel ---- ------- ----- ---- -------<br>--- --- -- ----- -- --- ---- -- --- ---- -- ------ ------<br>--- ----- -- ----,196208,196198,195873.78,195873,195877.78,196211.04,,33,feel
screen,html.Screen,2_1_0_1_34,2022-02-15T13:21:13.997Z,,,,,,,,,,,,,,,,,53,,,,,,,,,,,,,,330.95999999999185,,response,,,,99,,,,,,,Space,keypress(Space),,,,,,,,---- -- ----- -- ------ - ------- --- ----------<br>------------- ------ ------ ---- ---- ------- ----- -- ----<br>-------- ------- -- ---------- --- - --- ----- ----- ----<br>---- --- --- ----- --- ---- that ------- ----- ---- -------<br>--- --- -- ----- -- --- ---- -- --- ---- -- ------ ------<br>--- ----- -- ----,196558,196542,196207.86,196208,196211.04,196560.92,,34,that
screen,html.Screen,2_1_0_1_35,2022-02-15T13:21:14.304Z,,,,,,,,,,,,,,,,,53,,,,,,,,,,,,,,293.0799999999872,,response,,,,99,,,,,,,Space,keypress(Space),,,,,,,,---- -- ----- -- ------ - ------- --- ----------<br>------------- ------ ------ ---- ---- ------- ----- -- ----<br>-------- ------- -- ---------- --- - --- ----- ----- ----<br>---- --- --- ----- --- ---- ---- matters ----- ---- -------<br>--- --- -- ----- -- --- ---- -- --- ---- -- ------ ------<br>--- ----- -- ----,196865,196854,196557.88,196558,196560.92,196877.52,,35,matters
screen,html.Screen,2_1_0_1_36,2022-02-15T13:21:14.657Z,,,,,,,,,,,,,,,,,53,,,,,,,,,,,,,,336.4800000000105,,response,,,,99,,,,,,,Space,keypress(Space),,,,,,,,"---- -- ----- -- ------ - ------- --- ----------<br>------------- ------ ------ ---- ---- ------- ----- -- ----<br>-------- ------- -- ---------- --- - --- ----- ----- ----<br>---- --- --- ----- --- ---- ---- ------- most, ---- -------<br>--- --- -- ----- -- --- ---- -- --- ---- -- ------ ------<br>--- ----- -- ----",197217,197214,196864.7,196865,196877.52,197227.4,,36,"most,"
screen,html.Screen,2_1_0_1_37,2022-02-15T13:21:14.989Z,,,,,,,,,,,,,,,,,53,,,,,,,,,,,,,,314.6000000000058,,response,,,,99,,,,,,,Space,keypress(Space),,,,,,,,---- -- ----- -- ------ - ------- --- ----------<br>------------- ------ ------ ---- ---- ------- ----- -- ----<br>-------- ------- -- ---------- --- - --- ----- ----- ----<br>---- --- --- ----- --- ---- ---- ------- ----- it's -------<br>--- --- -- ----- -- --- ---- -- --- ---- -- ------ ------<br>--- ----- -- ----,197549,197542,197216.92,197217,197227.4,197560.68,,37,it's
screen,html.Screen,2_1_0_1_38,2022-02-15T13:21:15.324Z,,,,,,,,,,,,,,,,,53,,,,,,,,,,,,,,309.320000000007,,response,,,,99,,,,,,,Space,keypress(Space),,,,,,,,---- -- ----- -- ------ - ------- --- ----------<br>------------- ------ ------ ---- ---- ------- ----- -- ----<br>-------- ------- -- ---------- --- - --- ----- ----- ----<br>---- --- --- ----- --- ---- ---- ------- ----- ---- whether<br>--- --- -- ----- -- --- ---- -- --- ---- -- ------ ------<br>--- ----- -- ----,197883,197870,197549.2,197549,197560.68,197893.9,,38,whether
screen,html.Screen,2_1_0_1_39,2022-02-15T13:21:15.645Z,,,,,,,,,,,,,,,,,53,,,,,,,,,,,,,,303.1000000000058,,response,,,,99,,,,,,,Space,keypress(Space),,,,,,,,---- -- ----- -- ------ - ------- --- ----------<br>------------- ------ ------ ---- ---- ------- ----- -- ----<br>-------- ------- -- ---------- --- - --- ----- ----- ----<br>---- --- --- ----- --- ---- ---- ------- ----- ---- -------<br>you --- -- ----- -- --- ---- -- --- ---- -- ------ ------<br>--- ----- -- ----,198205,198197,197883.58,197884,197893.9,198210.54,,39,you
screen,html.Screen,2_1_0_1_40,2022-02-15T13:21:15.966Z,,,,,,,,,,,,,,,,,53,,,,,,,,,,,,,,300.45999999999185,,response,,,,99,,,,,,,Space,keypress(Space),,,,,,,,---- -- ----- -- ------ - ------- --- ----------<br>------------- ------ ------ ---- ---- ------- ----- -- ----<br>-------- ------- -- ---------- --- - --- ----- ----- ----<br>---- --- --- ----- --- ---- ---- ------- ----- ---- -------<br>--- are -- ----- -- --- ---- -- --- ---- -- ------ ------<br>--- ----- -- ----,198525,198511,198205.02,198205,198210.54,198527.14,,40,are
screen,html.Screen,2_1_0_1_41,2022-02-15T13:21:16.296Z,,,,,,,,,,,,,,,,,53,,,,,,,,,,,,,,310.85999999998603,,response,,,,99,,,,,,,Space,keypress(Space),,,,,,,,---- -- ----- -- ------ - ------- --- ----------<br>------------- ------ ------ ---- ---- ------- ----- -- ----<br>-------- ------- -- ---------- --- - --- ----- ----- ----<br>---- --- --- ----- --- ---- ---- ------- ----- ---- -------<br>--- --- as ----- -- --- ---- -- --- ---- -- ------ ------<br>--- ----- -- ----,198856,198838,198525.48,198525,198527.14,198860.4,,41,as
screen,html.Screen,2_1_0_1_42,2022-02-15T13:21:16.607Z,,,,,,,,,,,,,,,,,53,,,,,,,,,,,,,,290.6000000000058,,response,,,,99,,,,,,,Space,keypress(Space),,,,,,,,---- -- ----- -- ------ - ------- --- ----------<br>------------- ------ ------ ---- ---- ------- ----- -- ----<br>-------- ------- -- ---------- --- - --- ----- ----- ----<br>---- --- --- ----- --- ---- ---- ------- ----- ---- -------<br>--- --- -- close -- --- ---- -- --- ---- -- ------ ------<br>--- ----- -- ----,199168,199151,198856.12,198856,198860.4,199177,,42,close
screen,html.Screen,2_1_0_1_43,2022-02-15T13:21:16.885Z,,,,,,,,,,,,,,,,,53,,,,,,,,,,,,,,256,,response,,,,99,,,,,,,Space,keypress(Space),,,,,,,,---- -- ----- -- ------ - ------- --- ----------<br>------------- ------ ------ ---- ---- ------- ----- -- ----<br>-------- ------- -- ---------- --- - --- ----- ----- ----<br>---- --- --- ----- --- ---- ---- ------- ----- ---- -------<br>--- --- -- ----- as --- ---- -- --- ---- -- ------ ------<br>--- ----- -- ----,199445,199433,199167.56,199168,199177,199460.22,,43,as
screen,html.Screen,2_1_0_1_44,2022-02-15T13:21:17.146Z,,,,,,,,,,,,,,,,,53,,,,,,,,,,,,,,237.77999999999884,,response,,,,99,,,,,,,Space,keypress(Space),,,,,,,,---- -- ----- -- ------ - ------- --- ----------<br>------------- ------ ------ ---- ---- ------- ----- -- ----<br>-------- ------- -- ---------- --- - --- ----- ----- ----<br>---- --- --- ----- --- ---- ---- ------- ----- ---- -------<br>--- --- -- ----- -- you ---- -- --- ---- -- ------ ------<br>--- ----- -- ----,199706,199698,199445.5,199445,199460.22,199710.2,,44,you
screen,html.Screen,2_1_0_1_45,2022-02-15T13:21:17.421Z,,,,,,,,,,,,,,,,,53,,,,,,,,,,,,,,253.79999999998836,,response,,,,99,,,,,,,Space,keypress(Space),,,,,,,,---- -- ----- -- ------ - ------- --- ----------<br>------------- ------ ------ ---- ---- ------- ----- -- ----<br>-------- ------- -- ---------- --- - --- ----- ----- ----<br>---- --- --- ----- --- ---- ---- ------- ----- ---- -------<br>--- --- -- ----- -- --- want -- --- ---- -- ------ ------<br>--- ----- -- ----,199981,199964,199705.96,199706,199710.2,199993.46,,45,want
screen,html.Screen,2_1_0_1_46,2022-02-15T13:21:17.730Z,,,,,,,,,,,,,,,,,53,,,,,,,,,,,,,,282.54000000000815,,response,,,,99,,,,,,,Space,keypress(Space),,,,,,,,---- -- ----- -- ------ - ------- --- ----------<br>------------- ------ ------ ---- ---- ------- ----- -- ----<br>-------- ------- -- ---------- --- - --- ----- ----- ----<br>---- --- --- ----- --- ---- ---- ------- ----- ---- -------<br>--- --- -- ----- -- --- ---- to --- ---- -- ------ ------<br>--- ----- -- ----,200290,200276,199980.48,199981,199993.46,200293.34,,46,to
screen,html.Screen,2_1_0_1_47,2022-02-15T13:21:18.027Z,,,,,,,,,,,,,,,,,53,,,,,,,,,,,,,,279.6600000000035,,response,,,,99,,,,,,,Space,keypress(Space),,,,,,,,"---- -- ----- -- ------ - ------- --- ----------<br>------------- ------ ------ ---- ---- ------- ----- -- ----<br>-------- ------- -- ---------- --- - --- ----- ----- ----<br>---- --- --- ----- --- ---- ---- ------- ----- ---- -------<br>--- --- -- ----- -- --- ---- -- be, ---- -- ------ ------<br>--- ----- -- ----",200587,200573,200290.32,200290,200293.34,200593.3,,47,"be,"
screen,html.Screen,2_1_0_1_48,2022-02-15T13:21:18.365Z,,,,,,,,,,,,,,,,,53,,,,,,,,,,,,,,323.70000000001164,,response,,,,99,,,,,,,Space,keypress(Space),,,,,,,,---- -- ----- -- ------ - ------- --- ----------<br>------------- ------ ------ ---- ---- ------- ----- -- ----<br>-------- ------- -- ---------- --- - --- ----- ----- ----<br>---- --- --- ----- --- ---- ---- ------- ----- ---- -------<br>--- --- -- ----- -- --- ---- -- --- even -- ------ ------<br>--- ----- -- ----,200926,200917,200587.44,200587,200593.3,200926.5,,48,even
screen,html.Screen,2_1_0_1_49,2022-02-15T13:21:18.656Z,,,,,,,,,,,,,,,,,53,,,,,,,,,,,,,,286.5,,response,,,,99,,,,,,,Space,keypress(Space),,,,,,,,---- -- ----- -- ------ - ------- --- ----------<br>------------- ------ ------ ---- ---- ------- ----- -- ----<br>-------- ------- -- ---------- --- - --- ----- ----- ----<br>---- --- --- ----- --- ---- ---- ------- ----- ---- -------<br>--- --- -- ----- -- --- ---- -- --- ---- if ------ ------<br>--- ----- -- ----,201216,201213,200925.52,200926,200926.5,201226.44,,49,if
screen,html.Screen,2_1_0_1_50,2022-02-15T13:21:18.917Z,,,,,,,,,,,,,,,,,53,,,,,,,,,,,,,,237.55999999999767,,response,,,,99,,,,,,,Space,keypress(Space),,,,,,,,---- -- ----- -- ------ - ------- --- ----------<br>------------- ------ ------ ---- ---- ------- ----- -- ----<br>-------- ------- -- ---------- --- - --- ----- ----- ----<br>---- --- --- ----- --- ---- ---- ------- ----- ---- -------<br>--- --- -- ----- -- --- ---- -- --- ---- -- that's ------<br>--- ----- -- ----,201477,201464,201216.18,201217,201226.44,201493.04,,50,that's
screen,html.Screen,2_1_0_1_51,2022-02-15T13:21:19.268Z,,,,,,,,,,,,,,,,,53,,,,,,,,,,,,,,329.95999999999185,,response,,,,99,,,,,,,Space,keypress(Space),,,,,,,,---- -- ----- -- ------ - ------- --- ----------<br>------------- ------ ------ ---- ---- ------- ----- -- ----<br>-------- ------- -- ---------- --- - --- ----- ----- ----<br>---- --- --- ----- --- ---- ---- ------- ----- ---- -------<br>--- --- -- ----- -- --- ---- -- --- ---- -- ------ really<br>--- ----- -- ----,201828,201823,201477.04,201477,201493.04,201842.94,,51,really
screen,html.Screen,2_1_0_1_52,2022-02-15T13:21:19.561Z,,,,,,,,,,,,,,,,,53,,,,,,,,,,,,,,261.0599999999977,,response,,,,99,,,,,,,Space,keypress(Space),,,,,,,,---- -- ----- -- ------ - ------- --- ----------<br>------------- ------ ------ ---- ---- ------- ----- -- ----<br>-------- ------- -- ---------- --- - --- ----- ----- ----<br>---- --- --- ----- --- ---- ---- ------- ----- ---- -------<br>--- --- -- ----- -- --- ---- -- --- ---- -- ------ ------<br>not ----- -- ----,202121,202104,201828.62,201828,201842.94,202126.24,,52,not
screen,html.Screen,2_1_0_1_53,2022-02-15T13:21:19.863Z,,,,,,,,,,,,,,,,,53,,,,,,,,,,,,,,290.7600000000093,,response,,,,99,,,,,,,Space,keypress(Space),,,,,,,,---- -- ----- -- ------ - ------- --- ----------<br>------------- ------ ------ ---- ---- ------- ----- -- ----<br>-------- ------- -- ---------- --- - --- ----- ----- ----<br>---- --- --- ----- --- ---- ---- ------- ----- ---- -------<br>--- --- -- ----- -- --- ---- -- --- ---- -- ------ ------<br>--- close -- ----,202423,202417,202121.36,202122,202126.24,202426.18,,53,close
screen,html.Screen,2_1_0_1_54,2022-02-15T13:21:20.161Z,,,,,,,,,,,,,,,,,53,,,,,,,,,,,,,,287.820000000007,,response,,,,99,,,,,,,Space,keypress(Space),,,,,,,,---- -- ----- -- ------ - ------- --- ----------<br>------------- ------ ------ ---- ---- ------- ----- -- ----<br>-------- ------- -- ---------- --- - --- ----- ----- ----<br>---- --- --- ----- --- ---- ---- ------- ----- ---- -------<br>--- --- -- ----- -- --- ---- -- --- ---- -- ------ ------<br>--- ----- at ----,202721,202714,202423.34,202423,202426.18,202726.08,,54,at
screen,html.Screen,2_1_0_1_55,2022-02-15T13:21:20.676Z,,,,,,,,,,,,,,,,,53,,,,,,,,,,,,,,502.9200000000128,,response,,,,99,,,,,,,Space,keypress(Space),,,,,,,,---- -- ----- -- ------ - ------- --- ----------<br>------------- ------ ------ ---- ---- ------- ----- -- ----<br>-------- ------- -- ---------- --- - --- ----- ----- ----<br>---- --- --- ----- --- ---- ---- ------- ----- ---- -------<br>--- --- -- ----- -- --- ---- -- --- ---- -- ------ ------<br>--- ----- -- all.,203236,203229,202721.7,202722,202726.08,203242.62,,55,all.
Item 99,flow.Loop,2_1_0_1,2022-02-15T13:21:20.676Z,,,,,,,,,,,,,,,,,,,,,,,,,,,,,,,20014.78,,completion,,,,,E,,,,,,,,,,,silence,,,,,203236,203229,183197.56,183199,183214.22,203242.62,,,
Question 1,html.Screen,2_1_0_2,2022-02-15T13:21:26.466Z,,,,,,,,,,,,,,,,,,,,,,,,,,,,true,FALSE,,5768.380000000005,,response,,,,99,E,,,,,,FALSE,click #choice-2,,,,silence,,,,,209026,209011,203235.94,203236,203242.62,209041.18,,,
Question 2,html.Screen,2_1_0_3,2022-02-15T13:21:32.269Z,,,,,,,,,,,,,,,,,,,,,,,,,,,,true,TRUE,,5781.820000000007,,response,,,,99,E,,,,,,TRUE,click #choice-1,,,,silence,,,,,214829,214823,209025.1,209026,209041.18,214839.84,,,
Item 99,flow.Sequence,2_1_0,2022-02-15T13:21:32.270Z,,,,,,,,,,,,,,,,,,,,,,,,,,,,,,,41606.32000000001,,completion,,,,,,,,,,,,,,,,,,,,,214830,214823,173202.54,173205,173216.68,214839.84,,,
Holding screen,html.Screen,2_1_1_0,2022-02-15T13:21:42.262Z,,,,,,,,,,,,,,,,,,,,,,,,,,,,,,,9997.459999999992,,timeout,,,,,,,,,,,,,,,,,,,,,224822,224820.64,214828.14,214831,214839.84,224837.3,,,
screen,html.Screen,2_1_1_1_0,2022-02-15T13:21:43.792Z,,,,,,,,,,,,,,,,,54,,,,,,,,,,,,,,1501.7000000000116,,response,,,,100,,,,,,,Space,keypress(Space),,,,,,,,At --- ---- --- ------ ----- ------- ---- -- --- ------- --<br>------- ---------- ------ -- ----- -- ----- -- ---- ------<br>--- ----- --- --- ------ -------- ----- --- ------ ----- --<br>----- ----- ---------- --- --- ------ ------ ---- -- ------<br>------- --- ------ ----- --- ---- ------- -- ---- --- --<br>------- ------,226353,226339,224820.64,224822,224837.3,226353.66,,0,At
screen,html.Screen,2_1_1_1_1,2022-02-15T13:21:44.034Z,,,,,,,,,,,,,,,,,54,,,,,,,,,,,,,,235.3399999999965,,response,,,,100,,,,,,,Space,keypress(Space),,,,,,,,-- the ---- --- ------ ----- ------- ---- -- --- ------- --<br>------- ---------- ------ -- ----- -- ----- -- ---- ------<br>--- ----- --- --- ------ -------- ----- --- ------ ----- --<br>----- ----- ---------- --- --- ------ ------ ---- -- ------<br>------- --- ------ ----- --- ---- ------- -- ---- --- --<br>------- ------,226594,226589,226352.6,226353,226353.66,226603.58,,1,the
screen,html.Screen,2_1_1_1_2,2022-02-15T13:21:44.493Z,,,,,,,,,,,,,,,,,54,,,,,,,,,,,,,,438.4200000000128,,response,,,,100,,,,,,,Space,keypress(Space),,,,,,,,-- --- time --- ------ ----- ------- ---- -- --- ------- --<br>------- ---------- ------ -- ----- -- ----- -- ---- ------<br>--- ----- --- --- ------ -------- ----- --- ------ ----- --<br>----- ----- ---------- --- --- ------ ------ ---- -- ------<br>------- --- ------ ----- --- ---- ------- -- ---- --- --<br>------- ------,227053,227042,226594.04,226594,226603.58,227070.12,,2,time
screen,html.Screen,2_1_1_1_3,2022-02-15T13:21:44.785Z,,,,,,,,,,,,,,,,,54,,,,,,,,,,,,,,268.88000000000466,,response,,,,100,,,,,,,Space,keypress(Space),,,,,,,,-- --- ---- the ------ ----- ------- ---- -- --- ------- --<br>------- ---------- ------ -- ----- -- ----- -- ---- ------<br>--- ----- --- --- ------ -------- ----- --- ------ ----- --<br>----- ----- ---------- --- --- ------ ------ ---- -- ------<br>------- --- ------ ----- --- ---- ------- -- ---- --- --<br>------- ------,227345,227339,227053.42,227053,227070.12,227353.34,,3,the
screen,html.Screen,2_1_1_1_4,2022-02-15T13:21:45.061Z,,,,,,,,,,,,,,,,,54,,,,,,,,,,,,,,250.6600000000035,,response,,,,100,,,,,,,Space,keypress(Space),,,,,,,,-- --- ---- --- French ----- ------- ---- -- --- ------- --<br>------- ---------- ------ -- ----- -- ----- -- ---- ------<br>--- ----- --- --- ------ -------- ----- --- ------ ----- --<br>----- ----- ---------- --- --- ------ ------ ---- -- ------<br>------- --- ------ ----- --- ---- ------- -- ---- --- --<br>------- ------,227620,227604,227344.98,227345,227353.34,227636.64,,4,French
screen,html.Screen,2_1_1_1_5,2022-02-15T13:21:45.353Z,,,,,,,,,,,,,,,,,54,,,,,,,,,,,,,,264.35999999998603,,response,,,,100,,,,,,,Space,keypress(Space),,,,,,,,-- --- ---- --- ------ crown ------- ---- -- --- ------- --<br>------- ---------- ------ -- ----- -- ----- -- ---- ------<br>--- ----- --- --- ------ -------- ----- --- ------ ----- --<br>----- ----- ---------- --- --- ------ ------ ---- -- ------<br>------- --- ------ ----- --- ---- ------- -- ---- --- --<br>------- ------,227913,227901,227621.16,227621,227636.64,227919.92,,5,crown
screen,html.Screen,2_1_1_1_6,2022-02-15T13:21:45.627Z,,,,,,,,,,,,,,,,,54,,,,,,,,,,,,,,263.0799999999872,,response,,,,100,,,,,,,Space,keypress(Space),,,,,,,,-- --- ---- --- ------ ----- secured ---- -- --- ------- --<br>------- ---------- ------ -- ----- -- ----- -- ---- ------<br>--- ----- --- --- ------ -------- ----- --- ------ ----- --<br>----- ----- ---------- --- --- ------ ------ ---- -- ------<br>------- --- ------ ----- --- ---- ------- -- ---- --- --<br>------- ------,228186,228183,227913,227913,227919.92,228203.16,,6,secured
screen,html.Screen,2_1_1_1_7,2022-02-15T13:21:45.982Z,,,,,,,,,,,,,,,,,54,,,,,,,,,,,,,,321.8399999999965,,response,,,,100,,,,,,,Space,keypress(Space),,,,,,,,-- --- ---- --- ------ ----- ------- much -- --- ------- --<br>------- ---------- ------ -- ----- -- ----- -- ---- ------<br>--- ----- --- --- ------ -------- ----- --- ------ ----- --<br>----- ----- ---------- --- --- ------ ------ ---- -- ------<br>------- --- ------ ----- --- ---- ------- -- ---- --- --<br>------- ------,228542,228525,228187.1,228187,228203.16,228553.08,,7,much
screen,html.Screen,2_1_1_1_8,2022-02-15T13:21:46.281Z,,,,,,,,,,,,,,,,,54,,,,,,,,,,,,,,285.9200000000128,,response,,,,100,,,,,,,Space,keypress(Space),,,,,,,,-- --- ---- --- ------ ----- ------- ---- of --- ------- --<br>------- ---------- ------ -- ----- -- ----- -- ---- ------<br>--- ----- --- --- ------ -------- ----- --- ------ ----- --<br>----- ----- ---------- --- --- ------ ------ ---- -- ------<br>------- --- ------ ----- --- ---- ------- -- ---- --- --<br>------- ------,228841,228839,228541.7,228542,228553.08,228853.02,,8,of
screen,html.Screen,2_1_1_1_9,2022-02-15T13:21:46.524Z,,,,,,,,,,,,,,,,,54,,,,,,,,,,,,,,219.98000000001048,,response,,,,100,,,,,,,Space,keypress(Space),,,,,,,,-- --- ---- --- ------ ----- ------- ---- -- its ------- --<br>------- ---------- ------ -- ----- -- ----- -- ---- ------<br>--- ----- --- --- ------ -------- ----- --- ------ ----- --<br>----- ----- ---------- --- --- ------ ------ ---- -- ------<br>------- --- ------ ----- --- ---- ------- -- ---- --- --<br>------- ------,229084,229073,228841.26,228841,228853.02,229086.3,,9,its
screen,html.Screen,2_1_1_1_10,2022-02-15T13:21:46.840Z,,,,,,,,,,,,,,,,,54,,,,,,,,,,,,,,298.70000000001164,,response,,,,100,,,,,,,Space,keypress(Space),,,,,,,,-- --- ---- --- ------ ----- ------- ---- -- --- revenue --<br>------- ---------- ------ -- ----- -- ----- -- ---- ------<br>--- ----- --- --- ------ -------- ----- --- ------ ----- --<br>----- ----- ---------- --- --- ------ ------ ---- -- ------<br>------- --- ------ ----- --- ---- ------- -- ---- --- --<br>------- ------,229400,229385,229084.58,229085,229086.3,229402.88,,10,revenue
screen,html.Screen,2_1_1_1_11,2022-02-15T13:21:47.194Z,,,,,,,,,,,,,,,,,54,,,,,,,,,,,,,,342.11999999999534,,response,,,,100,,,,,,,Space,keypress(Space),,,,,,,,-- --- ---- --- ------ ----- ------- ---- -- --- ------- by<br>------- ---------- ------ -- ----- -- ----- -- ---- ------<br>--- ----- --- --- ------ -------- ----- --- ------ ----- --<br>----- ----- ---------- --- --- ------ ------ ---- -- ------<br>------- --- ------ ----- --- ---- ------- -- ---- --- --<br>------- ------,229754,229745,229399.6,229400,229402.88,229769.44,,11,by
screen,html.Screen,2_1_1_1_12,2022-02-15T13:21:47.578Z,,,,,,,,,,,,,,,,,54,,,,,,,,,,,,,,366.5599999999977,,response,,,,100,,,,,,,Space,keypress(Space),,,,,,,,-- --- ---- --- ------ ----- ------- ---- -- --- ------- --<br>issuing ---------- ------ -- ----- -- ----- -- ---- ------<br>--- ----- --- --- ------ -------- ----- --- ------ ----- --<br>----- ----- ---------- --- --- ------ ------ ---- -- ------<br>------- --- ------ ----- --- ---- ------- -- ---- --- --<br>------- ------,230138,230136,229754.12,229754,229769.44,230152.66,,12,issuing
screen,html.Screen,2_1_1_1_13,2022-02-15T13:21:48.313Z,,,,,,,,,,,,,,,,,54,,,,,,,,,,,,,,717.3399999999965,,response,,,,100,,,,,,,Space,keypress(Space),,,,,,,,-- --- ---- --- ------ ----- ------- ---- -- --- ------- --<br>------- government ------ -- ----- -- ----- -- ---- ------<br>--- ----- --- --- ------ -------- ----- --- ------ ----- --<br>----- ----- ---------- --- --- ------ ------ ---- -- ------<br>------- --- ------ ----- --- ---- ------- -- ---- --- --<br>------- ------,230873,230870,230138,230138,230152.66,230885.78,,13,government
screen,html.Screen,2_1_1_1_14,2022-02-15T13:21:48.680Z,,,,,,,,,,,,,,,,,54,,,,,,,,,,,,,,343.22000000000116,,response,,,,100,,,,,,,Space,keypress(Space),,,,,,,,-- --- ---- --- ------ ----- ------- ---- -- --- ------- --<br>------- ---------- bonds. -- ----- -- ----- -- ---- ------<br>--- ----- --- --- ------ -------- ----- --- ------ ----- --<br>----- ----- ---------- --- --- ------ ------ ---- -- ------<br>------- --- ------ ----- --- ---- ------- -- ---- --- --<br>------- ------,231240,231229,230872.68,230873,230885.78,231252.4,,14,bonds.
screen,html.Screen,2_1_1_1_15,2022-02-15T13:21:48.973Z,,,,,,,,,,,,,,,,,54,,,,,,,,,,,,,,272.6000000000058,,response,,,,100,,,,,,,Space,keypress(Space),,,,,,,,-- --- ---- --- ------ ----- ------- ---- -- --- ------- --<br>------- ---------- ------ In ----- -- ----- -- ---- ------<br>--- ----- --- --- ------ -------- ----- --- ------ ----- --<br>----- ----- ---------- --- --- ------ ------ ---- -- ------<br>------- --- ------ ----- --- ---- ------- -- ---- --- --<br>------- ------,231532,231525,231239.8,231240,231252.4,231535.68,,15,In
screen,html.Screen,2_1_1_1_16,2022-02-15T13:21:49.256Z,,,,,,,,,,,,,,,,,54,,,,,,,,,,,,,,272.320000000007,,response,,,,100,,,,,,,Space,keypress(Space),,,,,,,,"-- --- ---- --- ------ ----- ------- ---- -- --- ------- --<br>------- ---------- ------ -- 1727, -- ----- -- ---- ------<br>--- ----- --- --- ------ -------- ----- --- ------ ----- --<br>----- ----- ---------- --- --- ------ ------ ---- -- ------<br>------- --- ------ ----- --- ---- ------- -- ---- --- --<br>------- ------",231816,231808,231532.88,231532,231535.68,231818.94,,16,"1727,"
screen,html.Screen,2_1_1_1_17,2022-02-15T13:21:49.520Z,,,,,,,,,,,,,,,,,54,,,,,,,,,,,,,,254.05999999999767,,response,,,,100,,,,,,,Space,keypress(Space),,,,,,,,-- --- ---- --- ------ ----- ------- ---- -- --- ------- --<br>------- ---------- ------ -- ----- in ----- -- ---- ------<br>--- ----- --- --- ------ -------- ----- --- ------ ----- --<br>----- ----- ---------- --- --- ------ ------ ---- -- ------<br>------- --- ------ ----- --- ---- ------- -- ---- --- --<br>------- ------,232080,232073,231816.8,231816,231818.94,232085.56,,17,in
screen,html.Screen,2_1_1_1_18,2022-02-15T13:21:49.833Z,,,,,,,,,,,,,,,,,54,,,,,,,,,,,,,,300.4400000000023,,response,,,,100,,,,,,,Space,keypress(Space),,,,,,,,-- --- ---- --- ------ ----- ------- ---- -- --- ------- --<br>------- ---------- ------ -- ----- -- order -- ---- ------<br>--- ----- --- --- ------ -------- ----- --- ------ ----- --<br>----- ----- ---------- --- --- ------ ------ ---- -- ------<br>------- --- ------ ----- --- ---- ------- -- ---- --- --<br>------- ------,232393,232386,232080.4,232080,232085.56,232402.14,,18,order
screen,html.Screen,2_1_1_1_19,2022-02-15T13:21:50.153Z,,,,,,,,,,,,,,,,,54,,,,,,,,,,,,,,294.85999999998603,,response,,,,100,,,,,,,Space,keypress(Space),,,,,,,,-- --- ---- --- ------ ----- ------- ---- -- --- ------- --<br>------- ---------- ------ -- ----- -- ----- to ---- ------<br>--- ----- --- --- ------ -------- ----- --- ------ ----- --<br>----- ----- ---------- --- --- ------ ------ ---- -- ------<br>------- --- ------ ----- --- ---- ------- -- ---- --- --<br>------- ------,232713,232697,232393.18,232393,232402.14,232718.68,,19,to
screen,html.Screen,2_1_1_1_20,2022-02-15T13:21:50.403Z,,,,,,,,,,,,,,,,,54,,,,,,,,,,,,,,229.32000000000698,,response,,,,100,,,,,,,Space,keypress(Space),,,,,,,,-- --- ---- --- ------ ----- ------- ---- -- --- ------- --<br>------- ---------- ------ -- ----- -- ----- -- save ------<br>--- ----- --- --- ------ -------- ----- --- ------ ----- --<br>----- ----- ---------- --- --- ------ ------ ---- -- ------<br>------- --- ------ ----- --- ---- ------- -- ---- --- --<br>------- ------,232964,232948,232712.84,232713,232718.68,232968.66,,20,save
screen,html.Screen,2_1_1_1_21,2022-02-15T13:21:50.711Z,,,,,,,,,,,,,,,,,54,,,,,,,,,,,,,,292.3399999999965,,response,,,,100,,,,,,,Space,keypress(Space),,,,,,,,"-- --- ---- --- ------ ----- ------- ---- -- --- ------- --<br>------- ---------- ------ -- ----- -- ----- -- ---- money,<br>--- ----- --- --- ------ -------- ----- --- ------ ----- --<br>----- ----- ---------- --- --- ------ ------ ---- -- ------<br>------- --- ------ ----- --- ---- ------- -- ---- --- --<br>------- ------",233271,233261,232963.66,232964,232968.66,233285.26,,21,"money,"
screen,html.Screen,2_1_1_1_22,2022-02-15T13:21:51.025Z,,,,,,,,,,,,,,,,,54,,,,,,,,,,,,,,287.7399999999907,,response,,,,100,,,,,,,Space,keypress(Space),,,,,,,,-- --- ---- --- ------ ----- ------- ---- -- --- ------- --<br>------- ---------- ------ -- ----- -- ----- -- ---- ------<br>the ----- --- --- ------ -------- ----- --- ------ ----- --<br>----- ----- ---------- --- --- ------ ------ ---- -- ------<br>------- --- ------ ----- --- ---- ------- -- ---- --- --<br>------- ------,233586,233573,233271.32,233272,233285.26,233601.84,,22,the
screen,html.Screen,2_1_1_1_23,2022-02-15T13:21:51.321Z,,,,,,,,,,,,,,,,,54,,,,,,,,,,,,,,267.1600000000035,,response,,,,100,,,,,,,Space,keypress(Space),,,,,,,,-- --- ---- --- ------ ----- ------- ---- -- --- ------- --<br>------- ---------- ------ -- ----- -- ----- -- ---- ------<br>--- state --- --- ------ -------- ----- --- ------ ----- --<br>----- ----- ---------- --- --- ------ ------ ---- -- ------<br>------- --- ------ ----- --- ---- ------- -- ---- --- --<br>------- ------,233881,233869,233585.76,233586,233601.84,233885.1,,23,state
screen,html.Screen,2_1_1_1_24,2022-02-15T13:21:51.658Z,,,,,,,,,,,,,,,,,54,,,,,,,,,,,,,,328.8999999999942,,response,,,,100,,,,,,,Space,keypress(Space),,,,,,,,-- --- ---- --- ------ ----- ------- ---- -- --- ------- --<br>------- ---------- ------ -- ----- -- ----- -- ---- ------<br>--- ----- cut --- ------ -------- ----- --- ------ ----- --<br>----- ----- ---------- --- --- ------ ------ ---- -- ------<br>------- --- ------ ----- --- ---- ------- -- ---- --- --<br>------- ------,234218,234214,233880.96,233881,233885.1,234234.98,,24,cut
screen,html.Screen,2_1_1_1_25,2022-02-15T13:21:51.970Z,,,,,,,,,,,,,,,,,54,,,,,,,,,,,,,,291.0199999999895,,response,,,,100,,,,,,,Space,keypress(Space),,,,,,,,-- --- ---- --- ------ ----- ------- ---- -- --- ------- --<br>------- ---------- ------ -- ----- -- ----- -- ---- ------<br>--- ----- --- the ------ -------- ----- --- ------ ----- --<br>----- ----- ---------- --- --- ------ ------ ---- -- ------<br>------- --- ------ ----- --- ---- ------- -- ---- --- --<br>------- ------,234530,234526,234218.7,234218,234234.98,234534.94,,25,the
screen,html.Screen,2_1_1_1_26,2022-02-15T13:21:52.297Z,,,,,,,,,,,,,,,,,54,,,,,,,,,,,,,,319.0599999999977,,response,,,,100,,,,,,,Space,keypress(Space),,,,,,,,-- --- ---- --- ------ ----- ------- ---- -- --- ------- --<br>------- ---------- ------ -- ----- -- ----- -- ---- ------<br>--- ----- --- --- bonds' -------- ----- --- ------ ----- --<br>----- ----- ---------- --- --- ------ ------ ---- -- ------<br>------- --- ------ ----- --- ---- ------- -- ---- --- --<br>------- ------,234857,234854,234530.02,234530,234534.94,234868.2,,26,bonds'
screen,html.Screen,2_1_1_1_27,2022-02-15T13:21:52.665Z,,,,,,,,,,,,,,,,,54,,,,,,,,,,,,,,345.79999999998836,,response,,,,100,,,,,,,Space,keypress(Space),,,,,,,,-- --- ---- --- ------ ----- ------- ---- -- --- ------- --<br>------- ---------- ------ -- ----- -- ----- -- ---- ------<br>--- ----- --- --- ------ interest ----- --- ------ ----- --<br>----- ----- ---------- --- --- ------ ------ ---- -- ------<br>------- --- ------ ----- --- ---- ------- -- ---- --- --<br>------- ------,235225,235214,234857.34,234858,234868.2,235234.78,,27,interest
screen,html.Screen,2_1_1_1_28,2022-02-15T13:21:53.002Z,,,,,,,,,,,,,,,,,54,,,,,,,,,,,,,,323.22000000000116,,response,,,,100,,,,,,,Space,keypress(Space),,,,,,,,-- --- ---- --- ------ ----- ------- ---- -- --- ------- --<br>------- ---------- ------ -- ----- -- ----- -- ---- ------<br>--- ----- --- --- ------ -------- rate. --- ------ ----- --<br>----- ----- ---------- --- --- ------ ------ ---- -- ------<br>------- --- ------ ----- --- ---- ------- -- ---- --- --<br>------- ------,235563,235558,235225.34,235225,235234.78,235568.04,,28,rate.
screen,html.Screen,2_1_1_1_29,2022-02-15T13:21:53.285Z,,,,,,,,,,,,,,,,,54,,,,,,,,,,,,,,270.95999999999185,,response,,,,100,,,,,,,Space,keypress(Space),,,,,,,,-- --- ---- --- ------ ----- ------- ---- -- --- ------- --<br>------- ---------- ------ -- ----- -- ----- -- ---- ------<br>--- ----- --- --- ------ -------- ----- The ------ ----- --<br>----- ----- ---------- --- --- ------ ------ ---- -- ------<br>------- --- ------ ----- --- ---- ------- -- ---- --- --<br>------- ------,235846,235839,235562.6,235563,235568.04,235851.26,,29,The
screen,html.Screen,2_1_1_1_30,2022-02-15T13:21:53.647Z,,,,,,,,,,,,,,,,,54,,,,,,,,,,,,,,346.7399999999907,,response,,,,100,,,,,,,Space,keypress(Space),,,,,,,,-- --- ---- --- ------ ----- ------- ---- -- --- ------- --<br>------- ---------- ------ -- ----- -- ----- -- ---- ------<br>--- ----- --- --- ------ -------- ----- --- market ----- --<br>----- ----- ---------- --- --- ------ ------ ---- -- ------<br>------- --- ------ ----- --- ---- ------- -- ---- --- --<br>------- ------,236207,236198,235845.66,235846,235851.26,236217.86,,30,market
screen,html.Screen,2_1_1_1_31,2022-02-15T13:21:53.880Z,,,,,,,,,,,,,,,,,54,,,,,,,,,,,,,,215.14000000001397,,response,,,,100,,,,,,,Space,keypress(Space),,,,,,,,-- --- ---- --- ------ ----- ------- ---- -- --- ------- --<br>------- ---------- ------ -- ----- -- ----- -- ---- ------<br>--- ----- --- --- ------ -------- ----- --- ------ value --<br>----- ----- ---------- --- --- ------ ------ ---- -- ------<br>------- --- ------ ----- --- ---- ------- -- ---- --- --<br>------- ------,236440,236433,236207.22,236207,236217.86,236451.16,,31,value
screen,html.Screen,2_1_1_1_32,2022-02-15T13:21:54.265Z,,,,,,,,,,,,,,,,,54,,,,,,,,,,,,,,371.8399999999965,,response,,,,100,,,,,,,Space,keypress(Space),,,,,,,,-- --- ---- --- ------ ----- ------- ---- -- --- ------- --<br>------- ---------- ------ -- ----- -- ----- -- ---- ------<br>--- ----- --- --- ------ -------- ----- --- ------ ----- of<br>----- ----- ---------- --- --- ------ ------ ---- -- ------<br>------- --- ------ ----- --- ---- ------- -- ---- --- --<br>------- ------,236826,236823,236439.88,236440,236451.16,236834.38,,32,of
screen,html.Screen,2_1_1_1_33,2022-02-15T13:21:54.807Z,,,,,,,,,,,,,,,,,54,,,,,,,,,,,,,,519.6199999999953,,response,,,,100,,,,,,,Space,keypress(Space),,,,,,,,-- --- ---- --- ------ ----- ------- ---- -- --- ------- --<br>------- ---------- ------ -- ----- -- ----- -- ---- ------<br>--- ----- --- --- ------ -------- ----- --- ------ ----- --<br>these ----- ---------- --- --- ------ ------ ---- -- ------<br>------- --- ------ ----- --- ---- ------- -- ---- --- --<br>------- ------,237368,237354,236825.8,236826,236834.38,237384.28,,33,these
screen,html.Screen,2_1_1_1_34,2022-02-15T13:21:55.186Z,,,,,,,,,,,,,,,,,54,,,,,,,,,,,,,,344.72000000000116,,response,,,,100,,,,,,,Space,keypress(Space),,,,,,,,-- --- ---- --- ------ ----- ------- ---- -- --- ------- --<br>------- ---------- ------ -- ----- -- ----- -- ---- ------<br>--- ----- --- --- ------ -------- ----- --- ------ ----- --<br>----- bonds ---------- --- --- ------ ------ ---- -- ------<br>------- --- ------ ----- --- ---- ------- -- ---- --- --<br>------- ------,237747,237729,237367.8,237368,237384.28,237750.84,,34,bonds
screen,html.Screen,2_1_1_1_35,2022-02-15T13:21:55.683Z,,,,,,,,,,,,,,,,,54,,,,,,,,,,,,,,478.1600000000035,,response,,,,100,,,,,,,Space,keypress(Space),,,,,,,,"-- --- ---- --- ------ ----- ------- ---- -- --- ------- --<br>------- ---------- ------ -- ----- -- ----- -- ---- ------<br>--- ----- --- --- ------ -------- ----- --- ------ ----- --<br>----- ----- plummeted, --- --- ------ ------ ---- -- ------<br>------- --- ------ ----- --- ---- ------- -- ---- --- --<br>------- ------",238242,238229,237746.7,237747,237750.84,238250.7,,35,"plummeted,"
screen,html.Screen,2_1_1_1_36,2022-02-15T13:21:56.035Z,,,,,,,,,,,,,,,,,54,,,,,,,,,,,,,,338.29999999998836,,response,,,,100,,,,,,,Space,keypress(Space),,,,,,,,-- --- ---- --- ------ ----- ------- ---- -- --- ------- --<br>------- ---------- ------ -- ----- -- ----- -- ---- ------<br>--- ----- --- --- ------ -------- ----- --- ------ ----- --<br>----- ----- ---------- and --- ------ ------ ---- -- ------<br>------- --- ------ ----- --- ---- ------- -- ---- --- --<br>------- ------,238595,238589,238243.02,238243,238250.7,238600.66,,36,and
screen,html.Screen,2_1_1_1_37,2022-02-15T13:21:56.377Z,,,,,,,,,,,,,,,,,54,,,,,,,,,,,,,,332.3399999999965,,response,,,,100,,,,,,,Space,keypress(Space),,,,,,,,-- --- ---- --- ------ ----- ------- ---- -- --- ------- --<br>------- ---------- ------ -- ----- -- ----- -- ---- ------<br>--- ----- --- --- ------ -------- ----- --- ------ ----- --<br>----- ----- ---------- --- the ------ ------ ---- -- ------<br>------- --- ------ ----- --- ---- ------- -- ---- --- --<br>------- ------,238937,238933,238595.82,238596,238600.66,238950.56,,37,the
screen,html.Screen,2_1_1_1_38,2022-02-15T13:21:56.678Z,,,,,,,,,,,,,,,,,54,,,,,,,,,,,,,,278.4400000000023,,response,,,,100,,,,,,,Space,keypress(Space),,,,,,,,-- --- ---- --- ------ ----- ------- ---- -- --- ------- --<br>------- ---------- ------ -- ----- -- ----- -- ---- ------<br>--- ----- --- --- ------ -------- ----- --- ------ ----- --<br>----- ----- ---------- --- --- market ------ ---- -- ------<br>------- --- ------ ----- --- ---- ------- -- ---- --- --<br>------- ------,239238,239229,238937.44,238938,238950.56,239250.44,,38,market
screen,html.Screen,2_1_1_1_39,2022-02-15T13:21:57.033Z,,,,,,,,,,,,,,,,,54,,,,,,,,,,,,,,338.5599999999977,,response,,,,100,,,,,,,Space,keypress(Space),,,,,,,,-- --- ---- --- ------ ----- ------- ---- -- --- ------- --<br>------- ---------- ------ -- ----- -- ----- -- ---- ------<br>--- ----- --- --- ------ -------- ----- --- ------ ----- --<br>----- ----- ---------- --- --- ------ became ---- -- ------<br>------- --- ------ ----- --- ---- ------- -- ---- --- --<br>------- ------,239593,239589,239238.44,239238,239250.44,239600.38,,39,became
screen,html.Screen,2_1_1_1_40,2022-02-15T13:21:57.414Z,,,,,,,,,,,,,,,,,54,,,,,,,,,,,,,,363.61999999999534,,response,,,,100,,,,,,,Space,keypress(Space),,,,,,,,-- --- ---- --- ------ ----- ------- ---- -- --- ------- --<br>------- ---------- ------ -- ----- -- ----- -- ---- ------<br>--- ----- --- --- ------ -------- ----- --- ------ ----- --<br>----- ----- ---------- --- --- ------ ------ wary -- ------<br>------- --- ------ ----- --- ---- ------- -- ---- --- --<br>------- ------,239974,239964,239593.84,239593,239600.38,239983.62,,40,wary
screen,html.Screen,2_1_1_1_41,2022-02-15T13:21:57.805Z,,,,,,,,,,,,,,,,,54,,,,,,,,,,,,,,370.38000000000466,,response,,,,100,,,,,,,Space,keypress(Space),,,,,,,,-- --- ---- --- ------ ----- ------- ---- -- --- ------- --<br>------- ---------- ------ -- ----- -- ----- -- ---- ------<br>--- ----- --- --- ------ -------- ----- --- ------ ----- --<br>----- ----- ---------- --- --- ------ ------ ---- of ------<br>------- --- ------ ----- --- ---- ------- -- ---- --- --<br>------- ------,240365,240354,239974.44,239974,239983.62,240366.86,,41,of
screen,html.Screen,2_1_1_1_42,2022-02-15T13:21:58.237Z,,,,,,,,,,,,,,,,,54,,,,,,,,,,,,,,425.14000000001397,,response,,,,100,,,,,,,Space,keypress(Space),,,,,,,,-- --- ---- --- ------ ----- ------- ---- -- --- ------- --<br>------- ---------- ------ -- ----- -- ----- -- ---- ------<br>--- ----- --- --- ------ -------- ----- --- ------ ----- --<br>----- ----- ---------- --- --- ------ ------ ---- -- French<br>------- --- ------ ----- --- ---- ------- -- ---- --- --<br>------- ------,240797,240792,240364.74,240365,240366.86,240800,,42,French
screen,html.Screen,2_1_1_1_43,2022-02-15T13:21:58.611Z,,,,,,,,,,,,,,,,,54,,,,,,,,,,,,,,367,,response,,,,100,,,,,,,Space,keypress(Space),,,,,,,,-- --- ---- --- ------ ----- ------- ---- -- --- ------- --<br>------- ---------- ------ -- ----- -- ----- -- ---- ------<br>--- ----- --- --- ------ -------- ----- --- ------ ----- --<br>----- ----- ---------- --- --- ------ ------ ---- -- ------<br>credit. --- ------ ----- --- ---- ------- -- ---- --- --<br>------- ------,241171,241167,240797.08,240797,240800,241183.28,,43,credit.
screen,html.Screen,2_1_1_1_44,2022-02-15T13:21:59.064Z,,,,,,,,,,,,,,,,,54,,,,,,,,,,,,,,435.72000000000116,,response,,,,100,,,,,,,Space,keypress(Space),,,,,,,,-- --- ---- --- ------ ----- ------- ---- -- --- ------- --<br>------- ---------- ------ -- ----- -- ----- -- ---- ------<br>--- ----- --- --- ------ -------- ----- --- ------ ----- --<br>----- ----- ---------- --- --- ------ ------ ---- -- ------<br>------- The ------ ----- --- ---- ------- -- ---- --- --<br>------- ------,241624,241619,241171.32,241171,241183.28,241633.2,,44,The
screen,html.Screen,2_1_1_1_45,2022-02-15T13:21:59.320Z,,,,,,,,,,,,,,,,,54,,,,,,,,,,,,,,236.79999999998836,,response,,,,100,,,,,,,Space,keypress(Space),,,,,,,,-- --- ---- --- ------ ----- ------- ---- -- --- ------- --<br>------- ---------- ------ -- ----- -- ----- -- ---- ------<br>--- ----- --- --- ------ -------- ----- --- ------ ----- --<br>----- ----- ---------- --- --- ------ ------ ---- -- ------<br>------- --- French ----- --- ---- ------- -- ---- --- --<br>------- ------,241880,241870,241624.62,241625,241633.2,241883.12,,45,French
screen,html.Screen,2_1_1_1_46,2022-02-15T13:21:59.575Z,,,,,,,,,,,,,,,,,54,,,,,,,,,,,,,,235.88000000000466,,response,,,,100,,,,,,,Space,keypress(Space),,,,,,,,-- --- ---- --- ------ ----- ------- ---- -- --- ------- --<br>------- ---------- ------ -- ----- -- ----- -- ---- ------<br>--- ----- --- --- ------ -------- ----- --- ------ ----- --<br>----- ----- ---------- --- --- ------ ------ ---- -- ------<br>------- --- ------ state --- ---- ------- -- ---- --- --<br>------- ------,242136,242119,241880.32,241880,241883.12,242149.74,,46,state
screen,html.Screen,2_1_1_1_47,2022-02-15T13:21:59.961Z,,,,,,,,,,,,,,,,,54,,,,,,,,,,,,,,361.2600000000093,,response,,,,100,,,,,,,Space,keypress(Space),,,,,,,,-- --- ---- --- ------ ----- ------- ---- -- --- ------- --<br>------- ---------- ------ -- ----- -- ----- -- ---- ------<br>--- ----- --- --- ------ -------- ----- --- ------ ----- --<br>----- ----- ---------- --- --- ------ ------ ---- -- ------<br>------- --- ------ ----- was ---- ------- -- ---- --- --<br>------- ------,242521,242511,242135.86,242136,242149.74,242532.98,,47,was
screen,html.Screen,2_1_1_1_48,2022-02-15T13:22:00.318Z,,,,,,,,,,,,,,,,,54,,,,,,,,,,,,,,337.0199999999895,,response,,,,100,,,,,,,Space,keypress(Space),,,,,,,,-- --- ---- --- ------ ----- ------- ---- -- --- ------- --<br>------- ---------- ------ -- ----- -- ----- -- ---- ------<br>--- ----- --- --- ------ -------- ----- --- ------ ----- --<br>----- ----- ---------- --- --- ------ ------ ---- -- ------<br>------- --- ------ ----- --- left ------- -- ---- --- --<br>------- ------,242878,242870,242520.88,242521,242532.98,242882.9,,48,left
screen,html.Screen,2_1_1_1_49,2022-02-15T13:22:00.617Z,,,,,,,,,,,,,,,,,54,,,,,,,,,,,,,,284.1000000000058,,response,,,,100,,,,,,,Space,keypress(Space),,,,,,,,-- --- ---- --- ------ ----- ------- ---- -- --- ------- --<br>------- ---------- ------ -- ----- -- ----- -- ---- ------<br>--- ----- --- --- ------ -------- ----- --- ------ ----- --<br>----- ----- ---------- --- --- ------ ------ ---- -- ------<br>------- --- ------ ----- --- ---- without -- ---- --- --<br>------- ------,243178,243167,242878.58,242878,242882.9,243182.8,,49,without
screen,html.Screen,2_1_1_1_50,2022-02-15T13:22:00.897Z,,,,,,,,,,,,,,,,,54,,,,,,,,,,,,,,265.20000000001164,,response,,,,100,,,,,,,Space,keypress(Space),,,,,,,,-- --- ---- --- ------ ----- ------- ---- -- --- ------- --<br>------- ---------- ------ -- ----- -- ----- -- ---- ------<br>--- ----- --- --- ------ -------- ----- --- ------ ----- --<br>----- ----- ---------- --- --- ------ ------ ---- -- ------<br>------- --- ------ ----- --- ---- ------- an ---- --- --<br>------- ------,243457,243448,243177.6,243178,243182.8,243466.08,,50,an
screen,html.Screen,2_1_1_1_51,2022-02-15T13:22:01.236Z,,,,,,,,,,,,,,,,,54,,,,,,,,,,,,,,325.9200000000128,,response,,,,100,,,,,,,Space,keypress(Space),,,,,,,,-- --- ---- --- ------ ----- ------- ---- -- --- ------- --<br>------- ---------- ------ -- ----- -- ----- -- ---- ------<br>--- ----- --- --- ------ -------- ----- --- ------ ----- --<br>----- ----- ---------- --- --- ------ ------ ---- -- ------<br>------- --- ------ ----- --- ---- ------- -- easy --- --<br>------- ------,243796,243792,243457.2,243457,243466.08,243799.32,,51,easy
screen,html.Screen,2_1_1_1_52,2022-02-15T13:22:01.564Z,,,,,,,,,,,,,,,,,54,,,,,,,,,,,,,,320.679999999993,,response,,,,100,,,,,,,Space,keypress(Space),,,,,,,,-- --- ---- --- ------ ----- ------- ---- -- --- ------- --<br>------- ---------- ------ -- ----- -- ----- -- ---- ------<br>--- ----- --- --- ------ -------- ----- --- ------ ----- --<br>----- ----- ---------- --- --- ------ ------ ---- -- ------<br>------- --- ------ ----- --- ---- ------- -- ---- way --<br>------- ------,244124,244120,243796.52,243797,243799.32,244132.6,,52,way
screen,html.Screen,2_1_1_1_53,2022-02-15T13:22:01.967Z,,,,,,,,,,,,,,,,,54,,,,,,,,,,,,,,378.3999999999942,,response,,,,100,,,,,,,Space,keypress(Space),,,,,,,,-- --- ---- --- ------ ----- ------- ---- -- --- ------- --<br>------- ---------- ------ -- ----- -- ----- -- ---- ------<br>--- ----- --- --- ------ -------- ----- --- ------ ----- --<br>----- ----- ---------- --- --- ------ ------ ---- -- ------<br>------- --- ------ ----- --- ---- ------- -- ---- --- of<br>------- ------,244526,244511,244123.96,244124,244132.6,244532.46,,53,of
screen,html.Screen,2_1_1_1_54,2022-02-15T13:22:02.364Z,,,,,,,,,,,,,,,,,54,,,,,,,,,,,,,,384.54000000000815,,response,,,,100,,,,,,,Space,keypress(Space),,,,,,,,-- --- ---- --- ------ ----- ------- ---- -- --- ------- --<br>------- ---------- ------ -- ----- -- ----- -- ---- ------<br>--- ----- --- --- ------ -------- ----- --- ------ ----- --<br>----- ----- ---------- --- --- ------ ------ ---- -- ------<br>------- --- ------ ----- --- ---- ------- -- ---- --- --<br>raising ------,244924,244917,244526.68,244526,244532.46,244932.4,,54,raising
screen,html.Screen,2_1_1_1_55,2022-02-15T13:22:02.787Z,,,,,,,,,,,,,,,,,54,,,,,,,,,,,,,,406.6000000000058,,response,,,,100,,,,,,,Space,keypress(Space),,,,,,,,-- --- ---- --- ------ ----- ------- ---- -- --- ------- --<br>------- ---------- ------ -- ----- -- ----- -- ---- ------<br>--- ----- --- --- ------ -------- ----- --- ------ ----- --<br>----- ----- ---------- --- --- ------ ------ ---- -- ------<br>------- --- ------ ----- --- ---- ------- -- ---- --- --<br>------- money.,245347,245339,244924.5,244924,244932.4,245348.94,,55,money.
Item 100,flow.Loop,2_1_1_1,2022-02-15T13:22:02.787Z,,,,,,,,,,,,,,,,,,,,,,,,,,,,,,,20501.70000000001,,completion,,,,,E,,,,,,,,,,,silence,,,,,245347,245339,224820.64,224822,224837.3,245348.94,,,
Question 1,html.Screen,2_1_1_2,2022-02-15T13:22:06.351Z,,,,,,,,,,,,,,,,,,,,,,,,,,,,true,TRUE,,3552.0599999999977,,response,,,,100,E,,,,,,TRUE,click #choice-1,,,,silence,,,,,248911,248901,245347.36,245347,245348.94,248914.76,,,
Question 2,html.Screen,2_1_1_3,2022-02-15T13:22:11.203Z,,,,,,,,,,,,,,,,,,,,,,,,,,,,false,FALSE,,4830.239999999991,,response,,,,100,E,,,,,,TRUE,click #choice-1,,,,silence,,,,,253763,253745,248909.8,248911,248914.76,253763.58,,,
Item 100,flow.Sequence,2_1_1,2022-02-15T13:22:11.204Z,,,,,,,,,,,,,,,,,,,,,,,,,,,,,,,38905.16,,completion,,,,,,,,,,,,,,,,,,,,,253764,253745,214828.14,214831,214839.84,253763.58,,,
End of Practice,html.Page,2_1_2,2022-02-15T13:22:13.167Z,,,,,,,,,,,,,,,,,,,,,,,,,,,,,,,1961.4200000000128,,form submission,,,,,,,,,,,,,,,,,,,,,255726,255725,253762.28,253764,253763.58,255729.7,,,
Practice,flow.Sequence,2_1,2022-02-15T13:22:13.167Z,,,,,,,,,,,,,,,,,,,,,,,,,,,,,,,82508.32,,completion,,,,,,,,,,,,,,,,,,,,,255727,255725,173202.54,173205,173216.68,255729.7,,,
Trap_instruction,html.Page,2_2_0,2022-02-15T13:22:14.687Z,,,,,,,,,,,,,,,,,,,,,,,,,,,,,,,1516.2999999999884,,form submission,,,,,,,,,,,,,,,,,,,,,257247,257246,255723.46,255727,255729.7,257262.68,,,
trap_trial,html.Screen,2_2_1,2022-02-15T13:22:18.200Z,,,,,,,,,,,,,,,,,,,,,,,,,,,,true,1,,3481.320000000007,,response,,,,,,,,,,,1,click #choice-1,,,,,,,,,260761,260744,257243.74,257247,257262.68,260761.86,,,
end of trap trial,html.Page,2_2_2,2022-02-15T13:22:20.406Z,,,,,,,,,,,,,,,,,,,,,,,,,,,,,,,2204.140000000014,,form submission,,,,,,,,,,,,,,,,,,,,,262967,262966,260760.06,260761,260761.86,262977.98,,,
Trap 1,flow.Sequence,2_2,2022-02-15T13:22:20.406Z,,,,,,,,,,,,,,,,,,,,,,,,,,,,,,,7236.299999999988,,completion,,,,,,,,,,,,,,,,,,,,,262967,262966,255723.46,255727,255729.7,262977.98,,,
Standby,html.Page,2_3_0,2022-02-15T13:22:28.400Z,,,,,,,,,,,,,,,,,,,,,,,,,,,,,,,7997.98000000004,,timeout,,,,,,,,,,,,,,,,,,,,,270960,270959.3,262964.42,262967,262977.98,270975.96,,,
Holding screen,html.Screen,2_3_1_0_0,2022-02-15T13:22:35.399Z,,,,,,,,,,,,,,,,,,,,,,,,,,,,,,,6998.339999999967,,timeout,,,,,,,,,,,,,,,,,,,,,277959,277957.62,270959.3,270960,270975.96,277974.3,,,
screen,html.Screen,2_3_1_0_1_0,2022-02-15T13:22:37.447Z,,,,,,,,,,,,,,,,,11,,,,,,,,,,,,,,2020.7000000000116,,response,,,,4,E,,,,,,Space,keypress(Space),,,,lyrical,,,,Known -- ---- --- -- --- -------- ------------ ---------- --<br>- ------- ------ --------- -- ------------ -- --- ---- -----<br>------ ---- ---- ------ ------ ------- --- ----- ---------<br>---- --- -------- -------- --- --- -- ------- --- --- -----<br>-- --- ------ ------- --- --- -------- ---- --------- --<br>---------- -- -------- ----------------,280008,279995,277957.62,277959,277974.3,280023.72,,0,Known
screen,html.Screen,2_3_1_0_1_1,2022-02-15T13:22:37.782Z,,,,,,,,,,,,,,,,,11,,,,,,,,,,,,,,315.28000000002794,,response,,,,4,E,,,,,,Space,keypress(Space),,,,lyrical,,,,----- as ---- --- -- --- -------- ------------ ---------- --<br>- ------- ------ --------- -- ------------ -- --- ---- -----<br>------ ---- ---- ------ ------ ------- --- ----- ---------<br>---- --- -------- -------- --- --- -- ------- --- --- -----<br>-- --- ------ ------- --- --- -------- ---- --------- --<br>---------- -- -------- ----------------,280342,280339,280007.82,280008,280023.72,280357.02,,1,as
screen,html.Screen,2_3_1_0_1_2,2022-02-15T13:22:38.103Z,,,,,,,,,,,,,,,,,11,,,,,,,,,,,,,,293.9799999999814,,response,,,,4,E,,,,,,Space,keypress(Space),,,,lyrical,,,,----- -- Rapa --- -- --- -------- ------------ ---------- --<br>- ------- ------ --------- -- ------------ -- --- ---- -----<br>------ ---- ---- ------ ------ ------- --- ----- ---------<br>---- --- -------- -------- --- --- -- ------- --- --- -----<br>-- --- ------ ------- --- --- -------- ---- --------- --<br>---------- -- -------- ----------------,280663,280651,280342.5,280342,280357.02,280673.64,,2,Rapa
screen,html.Screen,2_3_1_0_1_3,2022-02-15T13:22:38.579Z,,,,,,,,,,,,,,,,,11,,,,,,,,,,,,,,462.35999999998603,,response,,,,4,E,,,,,,Space,keypress(Space),,,,lyrical,,,,----- -- ---- Nui -- --- -------- ------------ ---------- --<br>- ------- ------ --------- -- ------------ -- --- ---- -----<br>------ ---- ---- ------ ------ ------- --- ----- ---------<br>---- --- -------- -------- --- --- -- ------- --- --- -----<br>-- --- ------ ------- --- --- -------- ---- --------- --<br>---------- -- -------- ----------------,281139,281136,280663.74,280664,280673.64,281140.14,,3,Nui
screen,html.Screen,2_3_1_0_1_4,2022-02-15T13:22:38.989Z,,,,,,,,,,,,,,,,,11,,,,,,,,,,,,,,401.85999999998603,,response,,,,4,E,,,,,,Space,keypress(Space),,,,lyrical,,,,----- -- ---- --- to --- -------- ------------ ---------- --<br>- ------- ------ --------- -- ------------ -- --- ---- -----<br>------ ---- ---- ------ ------ ------- --- ----- ---------<br>---- --- -------- -------- --- --- -- ------- --- --- -----<br>-- --- ------ ------- --- --- -------- ---- --------- --<br>---------- -- -------- ----------------,281550,281542,281139.82,281139,281140.14,281556.72,,4,to
screen,html.Screen,2_3_1_0_1_5,2022-02-15T13:22:39.377Z,,,,,,,,,,,,,,,,,11,,,,,,,,,,,,,,376.28000000002794,,response,,,,4,E,,,,,,Space,keypress(Space),,,,lyrical,,,,----- -- ---- --- -- the -------- ------------ ---------- --<br>- ------- ------ --------- -- ------------ -- --- ---- -----<br>------ ---- ---- ------ ------ ------- --- ----- ---------<br>---- --- -------- -------- --- --- -- ------- --- --- -----<br>-- --- ------ ------- --- --- -------- ---- --------- --<br>---------- -- -------- ----------------,281938,281933,281550.38,281550,281556.72,281939.96,,5,the
screen,html.Screen,2_3_1_0_1_6,2022-02-15T13:22:39.711Z,,,,,,,,,,,,,,,,,11,,,,,,,,,,,,,,320.03999999997905,,response,,,,4,E,,,,,,Space,keypress(Space),,,,lyrical,,,,----- -- ---- --- -- --- island's ------------ ---------- --<br>- ------- ------ --------- -- ------------ -- --- ---- -----<br>------ ---- ---- ------ ------ ------- --- ----- ---------<br>---- --- -------- -------- --- --- -- ------- --- --- -----<br>-- --- ------ ------- --- --- -------- ---- --------- --<br>---------- -- -------- ----------------,282271,282260,281937.82,281938,281939.96,282273.24,,6,island's
screen,html.Screen,2_3_1_0_1_7,2022-02-15T13:22:40.073Z,,,,,,,,,,,,,,,,,11,,,,,,,,,,,,,,346.7600000000093,,response,,,,4,E,,,,,,Space,keypress(Space),,,,lyrical,,,,"----- -- ---- --- -- --- -------- inhabitants, ---------- --<br>- ------- ------ --------- -- ------------ -- --- ---- -----<br>------ ---- ---- ------ ------ ------- --- ----- ---------<br>---- --- -------- -------- --- --- -- ------- --- --- -----<br>-- --- ------ ------- --- --- -------- ---- --------- --<br>---------- -- -------- ----------------",282634,282620,282271.4,282271,282273.24,282639.78,,7,"inhabitants,"
screen,html.Screen,2_3_1_0_1_8,2022-02-15T13:22:41.518Z,,,,,,,,,,,,,,,,,11,,,,,,,,,,,,,,1433.219999999972,,response,,,,4,E,,,,,,Space,keypress(Space),,,,lyrical,,,,----- -- ---- --- -- --- -------- ------------ Rongorongo --<br>- ------- ------ --------- -- ------------ -- --- ---- -----<br>------ ---- ---- ------ ------ ------- --- ----- ---------<br>---- --- -------- -------- --- --- -- ------- --- --- -----<br>-- --- ------ ------- --- --- -------- ---- --------- --<br>---------- -- -------- ----------------,284077,284073,282633.52,282634,282639.78,284089.46,,8,Rongorongo
screen,html.Screen,2_3_1_0_1_9,2022-02-15T13:22:41.922Z,,,,,,,,,,,,,,,,,11,,,,,,,,,,,,,,389.53999999997905,,response,,,,4,E,,,,,,Space,keypress(Space),,,,lyrical,,,,----- -- ---- --- -- --- -------- ------------ ---------- is<br>- ------- ------ --------- -- ------------ -- --- ---- -----<br>------ ---- ---- ------ ------ ------- --- ----- ---------<br>---- --- -------- -------- --- --- -- ------- --- --- -----<br>-- --- ------ ------- --- --- -------- ---- --------- --<br>---------- -- -------- ----------------,284482,284479,284078.2,284078,284089.46,284489.34,,9,is
screen,html.Screen,2_3_1_0_1_10,2022-02-15T13:22:42.280Z,,,,,,,,,,,,,,,,,11,,,,,,,,,,,,,,333.6599999999744,,response,,,,4,E,,,,,,Space,keypress(Space),,,,lyrical,,,,----- -- ---- --- -- --- -------- ------------ ---------- --<br>a ------- ------ --------- -- ------------ -- --- ---- -----<br>------ ---- ---- ------ ------ ------- --- ----- ---------<br>---- --- -------- -------- --- --- -- ------- --- --- -----<br>-- --- ------ ------- --- --- -------- ---- --------- --<br>---------- -- -------- ----------------,284840,284823,284482.84,284483,284489.34,284855.92,,10,a
screen,html.Screen,2_3_1_0_1_11,2022-02-15T13:22:42.638Z,,,,,,,,,,,,,,,,,11,,,,,,,,,,,,,,327.0800000000163,,response,,,,4,E,,,,,,Space,keypress(Space),,,,lyrical,,,,----- -- ---- --- -- --- -------- ------------ ---------- --<br>- writing ------ --------- -- ------------ -- --- ---- -----<br>------ ---- ---- ------ ------ ------- --- ----- ---------<br>---- --- -------- -------- --- --- -- ------- --- --- -----<br>-- --- ------ ------- --- --- -------- ---- --------- --<br>---------- -- -------- ----------------,285198,285183,284840.78,284840,284855.92,285205.84,,11,writing
screen,html.Screen,2_3_1_0_1_12,2022-02-15T13:22:43.051Z,,,,,,,,,,,,,,,,,11,,,,,,,,,,,,,,398.1599999999744,,response,,,,4,E,,,,,,Space,keypress(Space),,,,lyrical,,,,----- -- ---- --- -- --- -------- ------------ ---------- --<br>- ------- system --------- -- ------------ -- --- ---- -----<br>------ ---- ---- ------ ------ ------- --- ----- ---------<br>---- --- -------- -------- --- --- -- ------- --- --- -----<br>-- --- ------ ------- --- --- -------- ---- --------- --<br>---------- -- -------- ----------------,285611,285604,285198.62,285198,285205.84,285622.42,,12,system
screen,html.Screen,2_3_1_0_1_13,2022-02-15T13:22:43.488Z,,,,,,,,,,,,,,,,,11,,,,,,,,,,,,,,418.5800000000163,,response,,,,4,E,,,,,,Space,keypress(Space),,,,lyrical,,,,----- -- ---- --- -- --- -------- ------------ ---------- --<br>- ------- ------ comprised -- ------------ -- --- ---- -----<br>------ ---- ---- ------ ------ ------- --- ----- ---------<br>---- --- -------- -------- --- --- -- ------- --- --- -----<br>-- --- ------ ------- --- --- -------- ---- --------- --<br>---------- -- -------- ----------------,286048,286041,285610.78,285611,285622.42,286055.68,,13,comprised
screen,html.Screen,2_3_1_0_1_14,2022-02-15T13:22:43.907Z,,,,,,,,,,,,,,,,,11,,,,,,,,,,,,,,408.320000000007,,response,,,,4,E,,,,,,Space,keypress(Space),,,,lyrical,,,,----- -- ---- --- -- --- -------- ------------ ---------- --<br>- ------- ------ --------- of ------------ -- --- ---- -----<br>------ ---- ---- ------ ------ ------- --- ----- ---------<br>---- --- -------- -------- --- --- -- ------- --- --- -----<br>-- --- ------ ------- --- --- -------- ---- --------- --<br>---------- -- -------- ----------------,286468,286464,286047.78,286048,286055.68,286472.2,,14,of
screen,html.Screen,2_3_1_0_1_15,2022-02-15T13:22:44.666Z,,,,,,,,,,,,,,,,,11,,,,,,,,,,,,,,741.7999999999884,,response,,,,4,E,,,,,,Space,keypress(Space),,,,lyrical,,,,----- -- ---- --- -- --- -------- ------------ ---------- --<br>- ------- ------ --------- -- pictographs. -- --- ---- -----<br>------ ---- ---- ------ ------ ------- --- ----- ---------<br>---- --- -------- -------- --- --- -- ------- --- --- -----<br>-- --- ------ ------- --- --- -------- ---- --------- --<br>---------- -- -------- ----------------,287226,287214,286467.84,286468,286472.2,287238.68,,15,pictographs.
screen,html.Screen,2_3_1_0_1_16,2022-02-15T13:22:45.128Z,,,,,,,,,,,,,,,,,11,,,,,,,,,,,,,,444.320000000007,,response,,,,4,E,,,,,,Space,keypress(Space),,,,lyrical,,,,----- -- ---- --- -- --- -------- ------------ ---------- --<br>- ------- ------ --------- -- ------------ It --- ---- -----<br>------ ---- ---- ------ ------ ------- --- ----- ---------<br>---- --- -------- -------- --- --- -- ------- --- --- -----<br>-- --- ------ ------- --- --- -------- ---- --------- --<br>---------- -- -------- ----------------,287688,287683,287225.62,287226,287238.68,287688.56,,16,It
screen,html.Screen,2_3_1_0_1_17,2022-02-15T13:22:45.460Z,,,,,,,,,,,,,,,,,11,,,,,,,,,,,,,,322.4400000000023,,response,,,,4,E,,,,,,Space,keypress(Space),,,,lyrical,,,,----- -- ---- --- -- --- -------- ------------ ---------- --<br>- ------- ------ --------- -- ------------ -- has ---- -----<br>------ ---- ---- ------ ------ ------- --- ----- ---------<br>---- --- -------- -------- --- --- -- ------- --- --- -----<br>-- --- ------ ------- --- --- -------- ---- --------- --<br>---------- -- -------- ----------------,288019,288011,287687.56,287688,287688.56,288021.82,,17,has
screen,html.Screen,2_3_1_0_1_18,2022-02-15T13:22:45.778Z,,,,,,,,,,,,,,,,,11,,,,,,,,,,,,,,301.179999999993,,response,,,,4,E,,,,,,Space,keypress(Space),,,,lyrical,,,,----- -- ---- --- -- --- -------- ------------ ---------- --<br>- ------- ------ --------- -- ------------ -- --- been -----<br>------ ---- ---- ------ ------ ------- --- ----- ---------<br>---- --- -------- -------- --- --- -- ------- --- --- -----<br>-- --- ------ ------- --- --- -------- ---- --------- --<br>---------- -- -------- ----------------,288338,288323,288019.54,288019,288021.82,288338.36,,18,been
screen,html.Screen,2_3_1_0_1_19,2022-02-15T13:22:46.224Z,,,,,,,,,,,,,,,,,11,,,,,,,,,,,,,,437.64000000001397,,response,,,,4,E,,,,,,Space,keypress(Space),,,,lyrical,,,,----- -- ---- --- -- --- -------- ------------ ---------- --<br>- ------- ------ --------- -- ------------ -- --- ---- found<br>------ ---- ---- ------ ------ ------- --- ----- ---------<br>---- --- -------- -------- --- --- -- ------- --- --- -----<br>-- --- ------ ------- --- --- -------- ---- --------- --<br>---------- -- -------- ----------------,288785,288776,288337.84,288338,288338.36,288788.3,,19,found
screen,html.Screen,2_3_1_0_1_20,2022-02-15T13:22:46.867Z,,,,,,,,,,,,,,,,,11,,,,,,,,,,,,,,628.7000000000116,,response,,,,4,E,,,,,,Space,keypress(Space),,,,lyrical,,,,----- -- ---- --- -- --- -------- ------------ ---------- --<br>- ------- ------ --------- -- ------------ -- --- ---- -----<br>carved ---- ---- ------ ------ ------- --- ----- ---------<br>---- --- -------- -------- --- --- -- ------- --- --- -----<br>-- --- ------ ------- --- --- -------- ---- --------- --<br>---------- -- -------- ----------------,289428,289417,288784.74,288785,288788.3,289438.16,,20,carved
screen,html.Screen,2_3_1_0_1_21,2022-02-15T13:22:47.537Z,,,,,,,,,,,,,,,,,11,,,,,,,,,,,,,,650.8400000000256,,response,,,,4,E,,,,,,Space,keypress(Space),,,,lyrical,,,,----- -- ---- --- -- --- -------- ------------ ---------- --<br>- ------- ------ --------- -- ------------ -- --- ---- -----<br>------ into ---- ------ ------ ------- --- ----- ---------<br>---- --- -------- -------- --- --- -- ------- --- --- -----<br>-- --- ------ ------- --- --- -------- ---- --------- --<br>---------- -- -------- ----------------,290096,290089,289428.16,289428,289438.16,290104.64,,21,into
screen,html.Screen,2_3_1_0_1_22,2022-02-15T13:22:47.975Z,,,,,,,,,,,,,,,,,11,,,,,,,,,,,,,,421.35999999998603,,response,,,,4,E,,,,,,Space,keypress(Space),,,,lyrical,,,,----- -- ---- --- -- --- -------- ------------ ---------- --<br>- ------- ------ --------- -- ------------ -- --- ---- -----<br>------ ---- many ------ ------ ------- --- ----- ---------<br>---- --- -------- -------- --- --- -- ------- --- --- -----<br>-- --- ------ ------- --- --- -------- ---- --------- --<br>---------- -- -------- ----------------,290535,290526,290096.8,290096,290104.64,290537.88,,22,many
screen,html.Screen,2_3_1_0_1_23,2022-02-15T13:22:48.498Z,,,,,,,,,,,,,,,,,11,,,,,,,,,,,,,,504.11999999999534,,response,,,,4,E,,,,,,Space,keypress(Space),,,,lyrical,,,,----- -- ---- --- -- --- -------- ------------ ---------- --<br>- ------- ------ --------- -- ------------ -- --- ---- -----<br>------ ---- ---- oblong ------ ------- --- ----- ---------<br>---- --- -------- -------- --- --- -- ------- --- --- -----<br>-- --- ------ ------- --- --- -------- ---- --------- --<br>---------- -- -------- ----------------,291059,291042,290535.06,290535,290537.88,291071.04,,23,oblong
screen,html.Screen,2_3_1_0_1_24,2022-02-15T13:22:48.971Z,,,,,,,,,,,,,,,,,11,,,,,,,,,,,,,,454.96000000002095,,response,,,,4,E,,,,,,Space,keypress(Space),,,,lyrical,,,,----- -- ---- --- -- --- -------- ------------ ---------- --<br>- ------- ------ --------- -- ------------ -- --- ---- -----<br>------ ---- ---- ------ wooden ------- --- ----- ---------<br>---- --- -------- -------- --- --- -- ------- --- --- -----<br>-- --- ------ ------- --- --- -------- ---- --------- --<br>---------- -- -------- ----------------,291532,291526,291058.94,291059,291071.04,291537.64,,24,wooden
screen,html.Screen,2_3_1_0_1_25,2022-02-15T13:22:49.434Z,,,,,,,,,,,,,,,,,11,,,,,,,,,,,,,,441.35999999998603,,response,,,,4,E,,,,,,Space,keypress(Space),,,,lyrical,,,,----- -- ---- --- -- --- -------- ------------ ---------- --<br>- ------- ------ --------- -- ------------ -- --- ---- -----<br>------ ---- ---- ------ ------ tablets --- ----- ---------<br>---- --- -------- -------- --- --- -- ------- --- --- -----<br>-- --- ------ ------- --- --- -------- ---- --------- --<br>---------- -- -------- ----------------,291993,291979,291531.86,291532,291537.64,292004.16,,25,tablets
screen,html.Screen,2_3_1_0_1_26,2022-02-15T13:22:49.773Z,,,,,,,,,,,,,,,,,11,,,,,,,,,,,,,,318.8400000000256,,response,,,,4,E,,,,,,Space,keypress(Space),,,,lyrical,,,,----- -- ---- --- -- --- -------- ------------ ---------- --<br>- ------- ------ --------- -- ------------ -- --- ---- -----<br>------ ---- ---- ------ ------ ------- and ----- ---------<br>---- --- -------- -------- --- --- -- ------- --- --- -----<br>-- --- ------ ------- --- --- -------- ---- --------- --<br>---------- -- -------- ----------------,292333,292323,291993.52,291993,292004.16,292337.4,,26,and
screen,html.Screen,2_3_1_0_1_27,2022-02-15T13:22:50.324Z,,,,,,,,,,,,,,,,,11,,,,,,,,,,,,,,532.5999999999767,,response,,,,4,E,,,,,,Space,keypress(Space),,,,lyrical,,,,----- -- ---- --- -- --- -------- ------------ ---------- --<br>- ------- ------ --------- -- ------------ -- --- ---- -----<br>------ ---- ---- ------ ------ ------- --- other ---------<br>---- --- -------- -------- --- --- -- ------- --- --- -----<br>-- --- ------ ------- --- --- -------- ---- --------- --<br>---------- -- -------- ----------------,292885,292870,292333.26,292333,292337.4,292887.3,,27,other
screen,html.Screen,2_3_1_0_1_28,2022-02-15T13:22:50.873Z,,,,,,,,,,,,,,,,,11,,,,,,,,,,,,,,529.7000000000116,,response,,,,4,E,,,,,,Space,keypress(Space),,,,lyrical,,,,----- -- ---- --- -- --- -------- ------------ ---------- --<br>- ------- ------ --------- -- ------------ -- --- ---- -----<br>------ ---- ---- ------ ------ ------- --- ----- artifacts<br>---- --- -------- -------- --- --- -- ------- --- --- -----<br>-- --- ------ ------- --- --- -------- ---- --------- --<br>---------- -- -------- ----------------,293434,293417,292884.24,292885,292887.3,293437.12,,28,artifacts
screen,html.Screen,2_3_1_0_1_29,2022-02-15T13:22:51.498Z,,,,,,,,,,,,,,,,,11,,,,,,,,,,,,,,604.8800000000047,,response,,,,4,E,,,,,,Space,keypress(Space),,,,lyrical,,,,----- -- ---- --- -- --- -------- ------------ ---------- --<br>- ------- ------ --------- -- ------------ -- --- ---- -----<br>------ ---- ---- ------ ------ ------- --- ----- ---------<br>from --- -------- -------- --- --- -- ------- --- --- -----<br>-- --- ------ ------- --- --- -------- ---- --------- --<br>---------- -- -------- ----------------,294057,294042,293433.74,293434,293437.12,294070.32,,29,from
screen,html.Screen,2_3_1_0_1_30,2022-02-15T13:22:51.975Z,,,,,,,,,,,,,,,,,11,,,,,,,,,,,,,,455.679999999993,,response,,,,4,E,,,,,,Space,keypress(Space),,,,lyrical,,,,----- -- ---- --- -- --- -------- ------------ ---------- --<br>- ------- ------ --------- -- ------------ -- --- ---- -----<br>------ ---- ---- ------ ------ ------- --- ----- ---------<br>---- the -------- -------- --- --- -- ------- --- --- -----<br>-- --- ------ ------- --- --- -------- ---- --------- --<br>---------- -- -------- ----------------,294535,294526,294057.86,294057,294070.32,294536.92,,30,the
screen,html.Screen,2_3_1_0_1_31,2022-02-15T13:22:52.453Z,,,,,,,,,,,,,,,,,11,,,,,,,,,,,,,,474.0800000000163,,response,,,,4,E,,,,,,Space,keypress(Space),,,,lyrical,,,,----- -- ---- --- -- --- -------- ------------ ---------- --<br>- ------- ------ --------- -- ------------ -- --- ---- -----<br>------ ---- ---- ------ ------ ------- --- ----- ---------<br>---- --- island's -------- --- --- -- ------- --- --- -----<br>-- --- ------ ------- --- --- -------- ---- --------- --<br>---------- -- -------- ----------------,295013,295011,294534.68,294535,294536.92,295020.12,,31,island's
screen,html.Screen,2_3_1_0_1_32,2022-02-15T13:22:53.070Z,,,,,,,,,,,,,,,,,11,,,,,,,,,,,,,,599.8800000000047,,response,,,,4,E,,,,,,Space,keypress(Space),,,,lyrical,,,,----- -- ---- --- -- --- -------- ------------ ---------- --<br>- ------- ------ --------- -- ------------ -- --- ---- -----<br>------ ---- ---- ------ ------ ------- --- ----- ---------<br>---- --- -------- history. --- --- -- ------- --- --- -----<br>-- --- ------ ------- --- --- -------- ---- --------- --<br>---------- -- -------- ----------------,295631,295620,295013.14,295013,295020.12,295636.64,,32,history.
screen,html.Screen,2_3_1_0_1_33,2022-02-15T13:22:53.580Z,,,,,,,,,,,,,,,,,11,,,,,,,,,,,,,,499.35999999998603,,response,,,,4,E,,,,,,Space,keypress(Space),,,,lyrical,,,,----- -- ---- --- -- --- -------- ------------ ---------- --<br>- ------- ------ --------- -- ------------ -- --- ---- -----<br>------ ---- ---- ------ ------ ------- --- ----- ---------<br>---- --- -------- -------- The --- -- ------- --- --- -----<br>-- --- ------ ------- --- --- -------- ---- --------- --<br>---------- -- -------- ----------------,296140,296136,295630.34,295631,295636.64,296153.16,,33,The
screen,html.Screen,2_3_1_0_1_34,2022-02-15T13:22:54.041Z,,,,,,,,,,,,,,,,,11,,,,,,,,,,,,,,435.8400000000256,,response,,,,4,E,,,,,,Space,keypress(Space),,,,lyrical,,,,----- -- ---- --- -- --- -------- ------------ ---------- --<br>- ------- ------ --------- -- ------------ -- --- ---- -----<br>------ ---- ---- ------ ------ ------- --- ----- ---------<br>---- --- -------- -------- --- art -- ------- --- --- -----<br>-- --- ------ ------- --- --- -------- ---- --------- --<br>---------- -- -------- ----------------,296601,296589,296139.76,296140,296153.16,296603.04,,34,art
screen,html.Screen,2_3_1_0_1_35,2022-02-15T13:22:54.373Z,,,,,,,,,,,,,,,,,11,,,,,,,,,,,,,,313.96000000002095,,response,,,,4,E,,,,,,Space,keypress(Space),,,,lyrical,,,,----- -- ---- --- -- --- -------- ------------ ---------- --<br>- ------- ------ --------- -- ------------ -- --- ---- -----<br>------ ---- ---- ------ ------ ------- --- ----- ---------<br>---- --- -------- -------- --- --- of ------- --- --- -----<br>-- --- ------ ------- --- --- -------- ---- --------- --<br>---------- -- -------- ----------------,296933,296917,296600.64,296601,296603.04,296936.3,,35,of
screen,html.Screen,2_3_1_0_1_36,2022-02-15T13:22:54.797Z,,,,,,,,,,,,,,,,,11,,,,,,,,,,,,,,417.70000000001164,,response,,,,4,E,,,,,,Space,keypress(Space),,,,lyrical,,,,----- -- ---- --- -- --- -------- ------------ ---------- --<br>- ------- ------ --------- -- ------------ -- --- ---- -----<br>------ ---- ---- ------ ------ ------- --- ----- ---------<br>---- --- -------- -------- --- --- -- writing --- --- -----<br>-- --- ------ ------- --- --- -------- ---- --------- --<br>---------- -- -------- ----------------,297357,297354,296932.86,296933,296936.3,297369.46,,36,writing
screen,html.Screen,2_3_1_0_1_37,2022-02-15T13:22:55.220Z,,,,,,,,,,,,,,,,,11,,,,,,,,,,,,,,406.53999999997905,,response,,,,4,E,,,,,,Space,keypress(Space),,,,lyrical,,,,----- -- ---- --- -- --- -------- ------------ ---------- --<br>- ------- ------ --------- -- ------------ -- --- ---- -----<br>------ ---- ---- ------ ------ ------- --- ----- ---------<br>---- --- -------- -------- --- --- -- ------- was --- -----<br>-- --- ------ ------- --- --- -------- ---- --------- --<br>---------- -- -------- ----------------,297780,297776,297358.02,297358,297369.46,297786.08,,37,was
screen,html.Screen,2_3_1_0_1_38,2022-02-15T13:22:55.555Z,,,,,,,,,,,,,,,,,11,,,,,,,,,,,,,,317.9199999999837,,response,,,,4,E,,,,,,Space,keypress(Space),,,,lyrical,,,,----- -- ---- --- -- --- -------- ------------ ---------- --<br>- ------- ------ --------- -- ------------ -- --- ---- -----<br>------ ---- ---- ------ ------ ------- --- ----- ---------<br>---- --- -------- -------- --- --- -- ------- --- not -----<br>-- --- ------ ------- --- --- -------- ---- --------- --<br>---------- -- -------- ----------------,298116,298104,297780.4,297781,297786.08,298119.32,,38,not
screen,html.Screen,2_3_1_0_1_39,2022-02-15T13:22:55.955Z,,,,,,,,,,,,,,,,,11,,,,,,,,,,,,,,391.679999999993,,response,,,,4,E,,,,,,Space,keypress(Space),,,,lyrical,,,,----- -- ---- --- -- --- -------- ------------ ---------- --<br>- ------- ------ --------- -- ------------ -- --- ---- -----<br>------ ---- ---- ------ ------ ------- --- ----- ---------<br>---- --- -------- -------- --- --- -- ------- --- --- known<br>-- --- ------ ------- --- --- -------- ---- --------- --<br>---------- -- -------- ----------------,298515,298511,298115.68,298116,298119.32,298519.26,,39,known
screen,html.Screen,2_3_1_0_1_40,2022-02-15T13:22:56.295Z,,,,,,,,,,,,,,,,,11,,,,,,,,,,,,,,319.7399999999907,,response,,,,4,E,,,,,,Space,keypress(Space),,,,lyrical,,,,----- -- ---- --- -- --- -------- ------------ ---------- --<br>- ------- ------ --------- -- ------------ -- --- ---- -----<br>------ ---- ---- ------ ------ ------- --- ----- ---------<br>---- --- -------- -------- --- --- -- ------- --- --- -----<br>in --- ------ ------- --- --- -------- ---- --------- --<br>---------- -- -------- ----------------,298856,298839,298515.5,298516,298519.26,298869.14,,40,in
screen,html.Screen,2_3_1_0_1_41,2022-02-15T13:22:56.601Z,,,,,,,,,,,,,,,,,11,,,,,,,,,,,,,,281.85999999998603,,response,,,,4,E,,,,,,Space,keypress(Space),,,,lyrical,,,,----- -- ---- --- -- --- -------- ------------ ---------- --<br>- ------- ------ --------- -- ------------ -- --- ---- -----<br>------ ---- ---- ------ ------ ------- --- ----- ---------<br>---- --- -------- -------- --- --- -- ------- --- --- -----<br>-- any ------ ------- --- --- -------- ---- --------- --<br>---------- -- -------- ----------------,299162,299151,298856.04,298856,298869.14,299169.08,,41,any
screen,html.Screen,2_3_1_0_1_42,2022-02-15T13:22:56.922Z,,,,,,,,,,,,,,,,,11,,,,,,,,,,,,,,309.9199999999837,,response,,,,4,E,,,,,,Space,keypress(Space),,,,lyrical,,,,----- -- ---- --- -- --- -------- ------------ ---------- --<br>- ------- ------ --------- -- ------------ -- --- ---- -----<br>------ ---- ---- ------ ------ ------- --- ----- ---------<br>---- --- -------- -------- --- --- -- ------- --- --- -----<br>-- --- nearby ------- --- --- -------- ---- --------- --<br>---------- -- -------- ----------------,299482,299479,299162.14,299162,299169.08,299485.7,,42,nearby
screen,html.Screen,2_3_1_0_1_43,2022-02-15T13:22:57.260Z,,,,,,,,,,,,,,,,,11,,,,,,,,,,,,,,322.29999999998836,,response,,,,4,E,,,,,,Space,keypress(Space),,,,lyrical,,,,----- -- ---- --- -- --- -------- ------------ ---------- --<br>- ------- ------ --------- -- ------------ -- --- ---- -----<br>------ ---- ---- ------ ------ ------- --- ----- ---------<br>---- --- -------- -------- --- --- -- ------- --- --- -----<br>-- --- ------ islands --- --- -------- ---- --------- --<br>---------- -- -------- ----------------,299820,299808,299481.46,299482,299485.7,299835.58,,43,islands
screen,html.Screen,2_3_1_0_1_44,2022-02-15T13:22:57.647Z,,,,,,,,,,,,,,,,,11,,,,,,,,,,,,,,362.4199999999837,,response,,,,4,E,,,,,,Space,keypress(Space),,,,lyrical,,,,----- -- ---- --- -- --- -------- ------------ ---------- --<br>- ------- ------ --------- -- ------------ -- --- ---- -----<br>------ ---- ---- ------ ------ ------- --- ----- ---------<br>---- --- -------- -------- --- --- -- ------- --- --- -----<br>-- --- ------ ------- and --- -------- ---- --------- --<br>---------- -- -------- ----------------,300207,300198,299820.92,299821,299835.58,300218.84,,44,and
screen,html.Screen,2_3_1_0_1_45,2022-02-15T13:22:58.025Z,,,,,,,,,,,,,,,,,11,,,,,,,,,,,,,,353.1599999999744,,response,,,,4,E,,,,,,Space,keypress(Space),,,,lyrical,,,,----- -- ---- --- -- --- -------- ------------ ---------- --<br>- ------- ------ --------- -- ------------ -- --- ---- -----<br>------ ---- ---- ------ ------ ------- --- ----- ---------<br>---- --- -------- -------- --- --- -- ------- --- --- -----<br>-- --- ------ ------- --- the -------- ---- --------- --<br>---------- -- -------- ----------------,300585,300572,300207.34,300208,300218.84,300585.4,,45,the
screen,html.Screen,2_3_1_0_1_46,2022-02-15T13:22:58.500Z,,,,,,,,,,,,,,,,,11,,,,,,,,,,,,,,472.5999999999767,,response,,,,4,E,,,,,,Space,keypress(Space),,,,lyrical,,,,----- -- ---- --- -- --- -------- ------------ ---------- --<br>- ------- ------ --------- -- ------------ -- --- ---- -----<br>------ ---- ---- ------ ------ ------- --- ----- ---------<br>---- --- -------- -------- --- --- -- ------- --- --- -----<br>-- --- ------ ------- --- --- script's ---- --------- --<br>---------- -- -------- ----------------,301059,301058,300584.98,300585,300585.4,301068.62,,46,script's
screen,html.Screen,2_3_1_0_1_47,2022-02-15T13:22:58.945Z,,,,,,,,,,,,,,,,,11,,,,,,,,,,,,,,426.38000000000466,,response,,,,4,E,,,,,,Space,keypress(Space),,,,lyrical,,,,----- -- ---- --- -- --- -------- ------------ ---------- --<br>- ------- ------ --------- -- ------------ -- --- ---- -----<br>------ ---- ---- ------ ------ ------- --- ----- ---------<br>---- --- -------- -------- --- --- -- ------- --- --- -----<br>-- --- ------ ------- --- --- -------- mere --------- --<br>---------- -- -------- ----------------,301505,301495,301059.52,301059,301068.62,301518.52,,47,mere
screen,html.Screen,2_3_1_0_1_48,2022-02-15T13:22:59.412Z,,,,,,,,,,,,,,,,,11,,,,,,,,,,,,,,444.4799999999814,,response,,,,4,E,,,,,,Space,keypress(Space),,,,lyrical,,,,----- -- ---- --- -- --- -------- ------------ ---------- --<br>- ------- ------ --------- -- ------------ -- --- ---- -----<br>------ ---- ---- ------ ------ ------- --- ----- ---------<br>---- --- -------- -------- --- --- -- ------- --- --- -----<br>-- --- ------ ------- --- --- -------- ---- existence --<br>---------- -- -------- ----------------,301972,301963,301504.62,301505,301518.52,301985.06,,48,existence
screen,html.Screen,2_3_1_0_1_49,2022-02-15T13:22:59.989Z,,,,,,,,,,,,,,,,,11,,,,,,,,,,,,,,555.9400000000023,,response,,,,4,E,,,,,,Space,keypress(Space),,,,lyrical,,,,----- -- ---- --- -- --- -------- ------------ ---------- --<br>- ------- ------ --------- -- ------------ -- --- ---- -----<br>------ ---- ---- ------ ------ ------- --- ----- ---------<br>---- --- -------- -------- --- --- -- ------- --- --- -----<br>-- --- ------ ------- --- --- -------- ---- --------- is<br>---------- -- -------- ----------------,302549,302541,301971.8,301972,301985.06,302551.62,,49,is
screen,html.Screen,2_3_1_0_1_50,2022-02-15T13:23:00.437Z,,,,,,,,,,,,,,,,,11,,,,,,,,,,,,,,443.38000000000466,,response,,,,4,E,,,,,,Space,keypress(Space),,,,lyrical,,,,----- -- ---- --- -- --- -------- ------------ ---------- --<br>- ------- ------ --------- -- ------------ -- --- ---- -----<br>------ ---- ---- ------ ------ ------- --- ----- ---------<br>---- --- -------- -------- --- --- -- ------- --- --- -----<br>-- --- ------ ------- --- --- -------- ---- --------- --<br>sufficient -- -------- ----------------,302998,302995,302549.18,302549,302551.62,303001.5,,50,sufficient
