sender,sender_type,sender_id,timestamp,meta,,Blues,Classical,Country,Dance,Electronic,Folk,Gospel,Hip-Hop,Jazz,Latin,Musical/Film,New-age,Pop,Prolific_id,Provo_ID,R&B,Rap,Reggae,Religious,Rock,Soul,Swing,Traditional,age,artist_name,correct,correctResponse,distraction,duration,education,ended_on,familiarity,gender,headphone_check_performance,item,list,music_frequency,offensiveness,pleasantness,position_correct,preference,response,response_action,snippet_file,song_name,song_rating,sound,stimulus_1,stimulus_2,stimulus_3,text,time_commit,time_end,time_render,time_run,time_show,time_switch,url,word,word_ID
Prolific ID,html.Form,0,2022-02-15T15:55:07.975Z,"{""labjs_version"":""20.2.2"",""labjs_build"":{""flavor"":""production"",""commit"":""a25486e0c714a0ae2ce03ff94b7bb6896854dcfa""},""location"":""https://run.pavlovia.org/mvasilev/prolific2_music_a/"",""userAgent"":""Mozilla/5.0 (Macintosh; Intel Mac OS X 10_14_6) AppleWebKit/537.36 (KHTML, like Gecko) Chrome/98.0.4758.80 Safari/537.36"",""platform"":""MacIntel"",""language"":""en-US"",""locale"":""en-GB"",""timeZone"":""Europe/London"",""timezoneOffset"":0,""screen_width"":1280,""screen_height"":800,""scroll_width"":1280,""scroll_height"":597,""window_innerWidth"":1280,""window_innerHeight"":597,""devicePixelRatio"":2}",,,,,,,,,,,,,,,612550d21d30a44cb0d2d579,,,,,,,,,,,,,,,7829.366000000746,,form submission,,,,,,,,,,,,,,,,,,,,,24032.10000000149,24031.800000000745,16169.068,16175.5,16202.434,24043.444,{},,
Introduction,html.Screen,1_0,2022-02-15T15:55:38.093Z,,,,,,,,,,,,,,,,,,,,,,,,,,,,,,,30093.856000000746,,response,,,,,,,,,,,continue,click button,,,,,,,,,54149.20000000298,54137.300000000745,24026.761,24032.400000002235,24043.444,54156.259,,,
Volume calibration,html.Screen,1_1,2022-02-15T15:56:32.770Z,,,,,,,,,,,,,,,,,,,,,,,,,,,,,,,54663.14100000224,,response,,,,,,,,,,,continue,click button,,,,,,,,,108824.10000000149,108819.40000000224,54139.576,54149.300000000745,54156.259,108843.133,,,
Task instructions,html.Screen,1_2,2022-02-15T15:56:51.175Z,,,,,,,,,,,,,,,,,,,,,,,,,,,,,,,18383.96700000149,,response,,,,,,,,,,,continue,click button,,,,,,,,,127229.10000000149,127227.10000000149,108826.45,108824.20000000298,108843.133,127244.482,,,
Sounds,html.Screen,1_3_0_0,2022-02-15T15:56:55.431Z,,,,,,,,,,,,,,,,,,,,,,,,,,,,,,,4254.164999999994,,timeout,,,,,,,,,3,,,,,,,,O,I,S,,131485.20000000298,131481.964,127227.799,127229.30000000075,127244.482,131498.647,,,
Judgement,html.Screen,1_3_0_1,2022-02-15T15:56:57.030Z,,,,,,,,,,,,,,,,,,,,,,,,,,,,true,3,,1583.453000001493,,response,,,,,,,,,3,,3,click #choice-3,,,,,O,I,S,,133083.6000000015,133082.1000000015,131481.964,131485.30000000075,131498.647,133100.215,,,
Trial,flow.Sequence,1_3_0,2022-02-15T15:56:57.030Z,,,,,,,,,,,,,,,,,,,,,,,,,,,,,,,5837.6180000014865,,completion,,,,,,,,,3,,,,,,,,O,I,S,,133083.80000000075,133082.1000000015,127227.799,127229.30000000075,127244.482,133100.215,,,
Sounds,html.Screen,1_3_1_0,2022-02-15T15:57:01.286Z,,,,,,,,,,,,,,,,,,,,,,,,,,,,,,,4254.165000000008,,timeout,,,,,,,,,1,,,,,,,,S,I,O,,137340,137337.697,133083.532,133083.90000000224,133100.215,137354.38,,,
Judgement,html.Screen,1_3_1_1,2022-02-15T15:57:02.088Z,,,,,,,,,,,,,,,,,,,,,,,,,,,,true,1,,786.3200000029756,,response,,,,,,,,,1,,1,click #choice-1,,,,,S,I,O,,138142.20000000298,138140.70000000298,137337.697,137340.1000000015,137354.38,138155.164,,,
Trial,flow.Sequence,1_3_1,2022-02-15T15:57:02.089Z,,,,,,,,,,,,,,,,,,,,,,,,,,,,,,,5040.485000002984,,completion,,,,,,,,,1,,,,,,,,S,I,O,,138142.40000000224,138140.70000000298,133083.532,133083.90000000224,133100.215,138155.164,,,
Sounds,html.Screen,1_3_2_0,2022-02-15T15:57:06.341Z,,,,,,,,,,,,,,,,,,,,,,,,,,,,,,,4254.165000000008,,timeout,,,,,,,,,2,,,,,,,,O,S,I,,142394.30000000075,142392.646,138138.481,138142.5,138155.164,142409.329,,,
Judgement,html.Screen,1_3_2_1,2022-02-15T15:57:06.973Z,,,,,,,,,,,,,,,,,,,,,,,,,,,,true,2,,615.3710000029823,,response,,,,,,,,,2,,2,click #choice-2,,,,,O,S,I,,143026.6000000015,143024.70000000298,142392.646,142394.40000000224,142409.329,143043.283,,,
Trial,flow.Sequence,1_3_2,2022-02-15T15:57:06.973Z,,,,,,,,,,,,,,,,,,,,,,,,,,,,,,,4869.5360000029905,,completion,,,,,,,,,2,,,,,,,,O,S,I,,143026.80000000075,143024.70000000298,138138.481,138142.5,138155.164,143043.283,,,
Sounds,html.Screen,1_3_3_0,2022-02-15T15:57:11.229Z,,,,,,,,,,,,,,,,,,,,,,,,,,,,,,,4254.165000000008,,timeout,,,,,,,,,2,,,,,,,,I,S,O,,147282.5,147280.765,143026.6,143026.90000000224,143043.283,147297.448,,,
Judgement,html.Screen,1_3_3_1,2022-02-15T15:57:11.744Z,,,,,,,,,,,,,,,,,,,,,,,,,,,,true,2,,498.8520000007411,,response,,,,,,,,,2,,2,click #choice-2,,,,,I,S,O,,147797.70000000298,147796.30000000075,147280.765,147282.6000000015,147297.448,147814.621,,,
Trial,flow.Sequence,1_3_3,2022-02-15T15:57:11.745Z,,,,,,,,,,,,,,,,,,,,,,,,,,,,,,,4753.017000000749,,completion,,,,,,,,,2,,,,,,,,I,S,O,,147798.20000000298,147796.30000000075,143026.6,143026.80000000075,143043.283,147814.621,,,
Sounds,html.Screen,1_3_4_0,2022-02-15T15:57:16.001Z,,,,,,,,,,,,,,,,,,,,,,,,,,,,,,,4254.164999999979,,timeout,,,,,,,,,1,,,,,,,,S,O,I,,152054.5,152052.103,147797.938,147798.20000000298,147814.621,152068.786,,,
Judgement,html.Screen,1_3_4_1,2022-02-15T15:57:16.540Z,,,,,,,,,,,,,,,,,,,,,,,,,,,,true,1,,522.7140000000072,,response,,,,,,,,,1,,1,click #choice-1,,,,,S,O,I,,152593.30000000075,152591.5,152052.103,152054.6000000015,152068.786,152619.325,,,
Trial,flow.Sequence,1_3_4,2022-02-15T15:57:16.540Z,,,,,,,,,,,,,,,,,,,,,,,,,,,,,,,4776.878999999986,,completion,,,,,,,,,1,,,,,,,,S,O,I,,152593.40000000224,152591.5,147797.938,147798.20000000298,147814.621,152619.325,,,
Sounds,html.Screen,1_3_5_0,2022-02-15T15:57:20.805Z,,,,,,,,,,,,,,,,,,,,,,,,,,,,,,,4254.164999999979,,timeout,,,,,,,,,3,,,,,,,,I,O,S,,156858.1000000015,156856.807,152602.642,152593.5,152619.325,156873.49,,,
Judgement,html.Screen,1_3_5_1,2022-02-15T15:57:21.357Z,,,,,,,,,,,,,,,,,,,,,,,,,,,,true,3,,534.7100000029895,,response,,,,,,,,,3,,3,click #choice-3,,,,,I,O,S,,157409.70000000298,157408.20000000298,156856.807,156858.20000000298,156873.49,157424.029,,,
Trial,flow.Sequence,1_3_5,2022-02-15T15:57:21.357Z,,,,,,,,,,,,,,,,,,,,,,,,,,,,,,,4788.875000002969,,completion,,,,,,,,,3,,,,,,,,I,O,S,,157410,157408.20000000298,152602.642,152593.40000000224,152619.325,157424.029,,,
Task,flow.Loop,1_3,2022-02-15T15:57:21.360Z,,,,,,,,,,,,,,,,,,,,,,,,,,,,,,,30163.718000002977,,completion,,,1,,,,,,,,,,,,,,,,,,157413.5,157408.20000000298,127227.799,127229.30000000075,127244.482,157424.029,,,
Trap,html.Screen,1_4,2022-02-15T15:57:21.361Z,,,,,,,,,,,,,,,,,,,,,,,,,,,,,,,NaN,,skipped,,,,,,,,,,,,,,,,,,,,,157414.40000000224,157408.20000000298,,157414.20000000298,,157424.029,,,
Thanks,html.Screen,1_5,2022-02-15T15:57:24.142Z,,,,,,,,,,,,,,,,,,,,,,,,,,,,,,,2770.0710000014806,,response,,,,,,,,,,,continue,click button,,,,,,,,,160195.5,160194.1000000015,157407.346,157414.40000000224,157424.029,167407.893,,,
Headphone screening,flow.Sequence,1,2022-02-15T15:57:24.143Z,,,,,,,,,,,,,,,,,,,,,,,,,,,,,,,136150.6560000015,,completion,,,,,,,,,,,,,,,,,,,,,160195.70000000298,160194.1000000015,24026.761,24032.300000000745,24043.444,167407.893,,,
Instructions,html.Page,2_0,2022-02-15T15:57:51.161Z,,,,,,,,,,,,,,,,,,,,,,,,,,,,,,,19804.907000000734,,form submission,,,,,,,,,,,,,,,,,,,,,187213.20000000298,187212.80000000075,167391.219,167400.6000000015,167407.893,187233.279,,,
Holding screen,html.Screen,2_1_0_0,2022-02-15T15:58:01.173Z,,,,,,,,,,,,,,,,,,,,,,,,,,,,,,,10004.399999999994,,timeout,,,,,,,,,,,,,,,,,,,,,197224.5,197221.005,187216.605,187213.30000000075,187233.279,197237.679,,,
screen,html.Screen,2_1_0_1_0,2022-02-15T15:58:02.535Z,,,,,,,,,,,,,,,,,53,,,,,,,,,,,,,,1344.7210000022314,,response,,,,99,,,,,,,Space,keypress(Space),,,,,,,,When -- ----- -- ------ - ------- --- ----------<br>------------- ------ ------ ---- ---- ------- ----- -- ----<br>-------- ------- -- ---------- --- - --- ----- ----- ----<br>---- --- --- ----- --- ---- ---- ------- ----- ---- -------<br>--- --- -- ----- -- --- ---- -- --- ---- -- ------ ------<br>--- ----- -- ----,198586.90000000224,198582.40000000224,197221.005,197224.70000000298,197237.679,198588.273,,0,When
screen,html.Screen,2_1_0_1_1,2022-02-15T15:58:02.965Z,,,,,,,,,,,,,,,,,53,,,,,,,,,,,,,,426.02700000075856,,response,,,,99,,,,,,,Space,keypress(Space),,,,,,,,---- it ----- -- ------ - ------- --- ----------<br>------------- ------ ------ ---- ---- ------- ----- -- ----<br>-------- ------- -- ---------- --- - --- ----- ----- ----<br>---- --- --- ----- --- ---- ---- ------- ----- ---- -------<br>--- --- -- ----- -- --- ---- -- --- ---- -- ------ ------<br>--- ----- -- ----,199016.6000000015,199014.30000000075,198571.599,198587,198588.273,199021.797,,1,it
screen,html.Screen,2_1_0_1_2,2022-02-15T15:58:03.621Z,,,,,,,,,,,,,,,,,53,,,,,,,,,,,,,,648.5030000007537,,response,,,,99,,,,,,,Space,keypress(Space),,,,,,,,---- -- comes -- ------ - ------- --- ----------<br>------------- ------ ------ ---- ---- ------- ----- -- ----<br>-------- ------- -- ---------- --- - --- ----- ----- ----<br>---- --- --- ----- --- ---- ---- ------- ----- ---- -------<br>--- --- -- ----- -- --- ---- -- --- ---- -- ------ ------<br>--- ----- -- ----,199672.5,199670.30000000075,199005.123,199016.70000000298,199021.797,199688.757,,2,comes
screen,html.Screen,2_1_0_1_3,2022-02-15T15:58:04.101Z,,,,,,,,,,,,,,,,,53,,,,,,,,,,,,,,461.64300000222283,,response,,,,99,,,,,,,Space,keypress(Space),,,,,,,,---- -- ----- to ------ - ------- --- ----------<br>------------- ------ ------ ---- ---- ------- ----- -- ----<br>-------- ------- -- ---------- --- - --- ----- ----- ----<br>---- --- --- ----- --- ---- ---- ------- ----- ---- -------<br>--- --- -- ----- -- --- ---- -- --- ---- -- ------ ------<br>--- ----- -- ----,200152.5,200150.40000000224,199672.083,199672.5,199688.757,200155.629,,3,to
screen,html.Screen,2_1_0_1_4,2022-02-15T15:58:04.525Z,,,,,,,,,,,,,,,,,53,,,,,,,,,,,,,,418.7710000022489,,response,,,,99,,,,,,,Space,keypress(Space),,,,,,,,---- -- ----- -- having - ------- --- ----------<br>------------- ------ ------ ---- ---- ------- ----- -- ----<br>-------- ------- -- ---------- --- - --- ----- ----- ----<br>---- --- --- ----- --- ---- ---- ------- ----- ---- -------<br>--- --- -- ----- -- --- ---- -- --- ---- -- ------ ------<br>--- ----- -- ----,200576.5,200574.40000000224,200138.955,200152.70000000298,200155.629,200589.153,,4,having
screen,html.Screen,2_1_0_1_5,2022-02-15T15:58:04.933Z,,,,,,,,,,,,,,,,,53,,,,,,,,,,,,,,393.247000002244,,response,,,,99,,,,,,,Space,keypress(Space),,,,,,,,---- -- ----- -- ------ a ------- --- ----------<br>------------- ------ ------ ---- ---- ------- ----- -- ----<br>-------- ------- -- ---------- --- - --- ----- ----- ----<br>---- --- --- ----- --- ---- ---- ------- ----- ---- -------<br>--- --- -- ----- -- --- ---- -- --- ---- -- ------ ------<br>--- ----- -- ----,200984.6000000015,200982.40000000224,200572.479,200576.6000000015,200589.153,200989.329,,5,a
screen,html.Screen,2_1_0_1_6,2022-02-15T15:58:05.437Z,,,,,,,,,,,,,,,,,53,,,,,,,,,,,,,,497.07100000223727,,response,,,,99,,,,,,,Space,keypress(Space),,,,,,,,---- -- ----- -- ------ - lasting --- ----------<br>------------- ------ ------ ---- ---- ------- ----- -- ----<br>-------- ------- -- ---------- --- - --- ----- ----- ----<br>---- --- --- ----- --- ---- ---- ------- ----- ---- -------<br>--- --- -- ----- -- --- ---- -- --- ---- -- ------ ------<br>--- ----- -- ----,201488.6000000015,201486.40000000224,200972.655,200984.70000000298,200989.329,201489.549,,6,lasting
screen,html.Screen,2_1_0_1_7,2022-02-15T15:58:06.021Z,,,,,,,,,,,,,,,,,53,,,,,,,,,,,,,,580.8510000022361,,response,,,,99,,,,,,,Space,keypress(Space),,,,,,,,---- -- ----- -- ------ - ------- and ----------<br>------------- ------ ------ ---- ---- ------- ----- -- ----<br>-------- ------- -- ---------- --- - --- ----- ----- ----<br>---- --- --- ----- --- ---- ---- ------- ----- ---- -------<br>--- --- -- ----- -- --- ---- -- --- ---- -- ------ ------<br>--- ----- -- ----,202072.5,202070.40000000224,201472.875,201488.70000000298,201489.549,202089.813,,7,and
screen,html.Screen,2_1_0_1_8,2022-02-15T15:58:06.597Z,,,,,,,,,,,,,,,,,53,,,,,,,,,,,,,,556.5870000022405,,response,,,,99,,,,,,,Space,keypress(Space),,,,,,,,---- -- ----- -- ------ - ------- --- fulfilling<br>------------- ------ ------ ---- ---- ------- ----- -- ----<br>-------- ------- -- ---------- --- - --- ----- ----- ----<br>---- --- --- ----- --- ---- ---- ------- ----- ---- -------<br>--- --- -- ----- -- --- ---- -- --- ---- -- ------ ------<br>--- ----- -- ----,202648.90000000224,202646.40000000224,202073.139,202072.6000000015,202089.813,202656.729,,8,fulfilling
screen,html.Screen,2_1_0_1_9,2022-02-15T15:58:07.837Z,,,,,,,,,,,,,,,,,53,,,,,,,,,,,,,,1229.671000002243,,response,,,,99,,,,,,,Space,keypress(Space),,,,,,,,"---- -- ----- -- ------ - ------- --- ----------<br>relationship, ------ ------ ---- ---- ------- ----- -- ----<br>-------- ------- -- ---------- --- - --- ----- ----- ----<br>---- --- --- ----- --- ---- ---- ------- ----- ---- -------<br>--- --- -- ----- -- --- ---- -- --- ---- -- ------ ------<br>--- ----- -- ----",203888.5,203886.40000000224,202640.055,202649,202656.729,203890.605,,9,"relationship,"
screen,html.Screen,2_1_0_1_10,2022-02-15T15:58:08.189Z,,,,,,,,,,,,,,,,,53,,,,,,,,,,,,,,347.7950000022247,,response,,,,99,,,,,,,Space,keypress(Space),,,,,,,,---- -- ----- -- ------ - ------- --- ----------<br>------------- common ------ ---- ---- ------- ----- -- ----<br>-------- ------- -- ---------- --- - --- ----- ----- ----<br>---- --- --- ----- --- ---- ---- ------- ----- ---- -------<br>--- --- -- ----- -- --- ---- -- --- ---- -- ------ ------<br>--- ----- -- ----,204240.6000000015,204238.40000000224,203873.931,203888.70000000298,203890.605,204257.433,,10,common
screen,html.Screen,2_1_0_1_11,2022-02-15T15:58:08.549Z,,,,,,,,,,,,,,,,,53,,,,,,,,,,,,,,340.9670000022452,,response,,,,99,,,,,,,Space,keypress(Space),,,,,,,,---- -- ----- -- ------ - ------- --- ----------<br>------------- ------ wisdom ---- ---- ------- ----- -- ----<br>-------- ------- -- ---------- --- - --- ----- ----- ----<br>---- --- --- ----- --- ---- ---- ------- ----- ---- -------<br>--- --- -- ----- -- --- ---- -- --- ---- -- ------ ------<br>--- ----- -- ----,204600.6000000015,204598.40000000224,204240.759,204240.6000000015,204257.433,204607.587,,11,wisdom
screen,html.Screen,2_1_0_1_12,2022-02-15T15:58:09.061Z,,,,,,,,,,,,,,,,,53,,,,,,,,,,,,,,502.81300000223564,,response,,,,99,,,,,,,Space,keypress(Space),,,,,,,,---- -- ----- -- ------ - ------- --- ----------<br>------------- ------ ------ says ---- ------- ----- -- ----<br>-------- ------- -- ---------- --- - --- ----- ----- ----<br>---- --- --- ----- --- ---- ---- ------- ----- ---- -------<br>--- --- -- ----- -- --- ---- -- --- ---- -- ------ ------<br>--- ----- -- ----,205112.5,205110.40000000224,204590.913,204600.70000000298,204607.587,205124.481,,12,says
screen,html.Screen,2_1_0_1_13,2022-02-15T15:58:09.325Z,,,,,,,,,,,,,,,,,53,,,,,,,,,,,,,,249.8190000007453,,response,,,,99,,,,,,,Space,keypress(Space),,,,,,,,---- -- ----- -- ------ - ------- --- ----------<br>------------- ------ ------ ---- that ------- ----- -- ----<br>-------- ------- -- ---------- --- - --- ----- ----- ----<br>---- --- --- ----- --- ---- ---- ------- ----- ---- -------<br>--- --- -- ----- -- --- ---- -- --- ---- -- ------ ------<br>--- ----- -- ----,205376.40000000224,205374.30000000075,205107.807,205112.70000000298,205124.481,205391.265,,13,that
screen,html.Screen,2_1_0_1_14,2022-02-15T15:58:09.765Z,,,,,,,,,,,,,,,,,53,,,,,,,,,,,,,,423.1350000022212,,response,,,,99,,,,,,,Space,keypress(Space),,,,,,,,---- -- ----- -- ------ - ------- --- ----------<br>------------- ------ ------ ---- ---- feeling ----- -- ----<br>-------- ------- -- ---------- --- - --- ----- ----- ----<br>---- --- --- ----- --- ---- ---- ------- ----- ---- -------<br>--- --- -- ----- -- --- ---- -- --- ---- -- ------ ------<br>--- ----- -- ----,205816.30000000075,205814.40000000224,205374.591,205376.40000000224,205391.265,205824.789,,14,feeling
screen,html.Screen,2_1_0_1_15,2022-02-15T15:58:10.181Z,,,,,,,,,,,,,,,,,53,,,,,,,,,,,,,,405.71100000001024,,response,,,,99,,,,,,,Space,keypress(Space),,,,,,,,---- -- ----- -- ------ - ------- --- ----------<br>------------- ------ ------ ---- ---- ------- close -- ----<br>-------- ------- -- ---------- --- - --- ----- ----- ----<br>---- --- --- ----- --- ---- ---- ------- ----- ---- -------<br>--- --- -- ----- -- --- ---- -- --- ---- -- ------ ------<br>--- ----- -- ----,206232.5,206230.5,205808.115,205816.5,205824.789,206241.639,,15,close
screen,html.Screen,2_1_0_1_16,2022-02-15T15:58:10.517Z,,,,,,,,,,,,,,,,,53,,,,,,,,,,,,,,324.7610000022396,,response,,,,99,,,,,,,Space,keypress(Space),,,,,,,,---- -- ----- -- ------ - ------- --- ----------<br>------------- ------ ------ ---- ---- ------- ----- to ----<br>-------- ------- -- ---------- --- - --- ----- ----- ----<br>---- --- --- ----- --- ---- ---- ------- ----- ---- -------<br>--- --- -- ----- -- --- ---- -- --- ---- -- ------ ------<br>--- ----- -- ----,206568.6000000015,206566.40000000224,206224.965,206232.6000000015,206241.639,206575.119,,16,to
screen,html.Screen,2_1_0_1_17,2022-02-15T15:58:10.957Z,,,,,,,,,,,,,,,,,53,,,,,,,,,,,,,,431.2810000022291,,response,,,,99,,,,,,,Space,keypress(Space),,,,,,,,---- -- ----- -- ------ - ------- --- ----------<br>------------- ------ ------ ---- ---- ------- ----- -- your<br>-------- ------- -- ---------- --- - --- ----- ----- ----<br>---- --- --- ----- --- ---- ---- ------- ----- ---- -------<br>--- --- -- ----- -- --- ---- -- --- ---- -- ------ ------<br>--- ----- -- ----,207008.40000000224,207006.40000000224,206558.445,206568.70000000298,206575.119,207025.317,,17,your
screen,html.Screen,2_1_0_1_18,2022-02-15T15:58:11.373Z,,,,,,,,,,,,,,,,,53,,,,,,,,,,,,,,397.08300000222516,,response,,,,99,,,,,,,Space,keypress(Space),,,,,,,,---- -- ----- -- ------ - ------- --- ----------<br>------------- ------ ------ ---- ---- ------- ----- -- ----<br>romantic ------- -- ---------- --- - --- ----- ----- ----<br>---- --- --- ----- --- ---- ---- ------- ----- ---- -------<br>--- --- -- ----- -- --- ---- -- --- ---- -- ------ ------<br>--- ----- -- ----,207424.40000000224,207422.40000000224,207008.643,207008.5,207025.317,207425.493,,18,romantic
screen,html.Screen,2_1_0_1_19,2022-02-15T15:58:11.773Z,,,,,,,,,,,,,,,,,53,,,,,,,,,,,,,,396.9070000022475,,response,,,,99,,,,,,,Space,keypress(Space),,,,,,,,---- -- ----- -- ------ - ------- --- ----------<br>------------- ------ ------ ---- ---- ------- ----- -- ----<br>-------- partner -- ---------- --- - --- ----- ----- ----<br>---- --- --- ----- --- ---- ---- ------- ----- ---- -------<br>--- --- -- ----- -- --- ---- -- --- ---- -- ------ ------<br>--- ----- -- ----,207824.5,207822.40000000224,207408.819,207424.5,207425.493,207825.669,,19,partner
screen,html.Screen,2_1_0_1_20,2022-02-15T15:58:12.261Z,,,,,,,,,,,,,,,,,53,,,,,,,,,,,,,,484.73100000224076,,response,,,,99,,,,,,,Space,keypress(Space),,,,,,,,---- -- ----- -- ------ - ------- --- ----------<br>------------- ------ ------ ---- ---- ------- ----- -- ----<br>-------- ------- is ---------- --- - --- ----- ----- ----<br>---- --- --- ----- --- ---- ---- ------- ----- ---- -------<br>--- --- -- ----- -- --- ---- -- --- ---- -- ------ ------<br>--- ----- -- ----,208312.5,208310.40000000224,207808.995,207824.6000000015,207825.669,208325.889,,20,is
screen,html.Screen,2_1_0_1_21,2022-02-15T15:58:12.693Z,,,,,,,,,,,,,,,,,53,,,,,,,,,,,,,,416.5110000022396,,response,,,,99,,,,,,,Space,keypress(Space),,,,,,,,---- -- ----- -- ------ - ------- --- ----------<br>------------- ------ ------ ---- ---- ------- ----- -- ----<br>-------- ------- -- paramount. --- - --- ----- ----- ----<br>---- --- --- ----- --- ---- ---- ------- ----- ---- -------<br>--- --- -- ----- -- --- ---- -- --- ---- -- ------ ------<br>--- ----- -- ----,208744.70000000298,208742.40000000224,208309.215,208312.6000000015,208325.889,208759.413,,21,paramount.
screen,html.Screen,2_1_0_1_22,2022-02-15T15:58:13.901Z,,,,,,,,,,,,,,,,,53,,,,,,,,,,,,,,1191.0869999999995,,response,,,,99,,,,,,,Space,keypress(Space),,,,,,,,---- -- ----- -- ------ - ------- --- ----------<br>------------- ------ ------ ---- ---- ------- ----- -- ----<br>-------- ------- -- ---------- But - --- ----- ----- ----<br>---- --- --- ----- --- ---- ---- ------- ----- ---- -------<br>--- --- -- ----- -- --- ---- -- --- ---- -- ------ ------<br>--- ----- -- ----,209952.80000000075,209950.5,208742.739,208744.90000000224,208759.413,209959.941,,22,But
screen,html.Screen,2_1_0_1_23,2022-02-15T15:58:14.277Z,,,,,,,,,,,,,,,,,53,,,,,,,,,,,,,,366.45900000224356,,response,,,,99,,,,,,,Space,keypress(Space),,,,,,,,---- -- ----- -- ------ - ------- --- ----------<br>------------- ------ ------ ---- ---- ------- ----- -- ----<br>-------- ------- -- ---------- --- a --- ----- ----- ----<br>---- --- --- ----- --- ---- ---- ------- ----- ---- -------<br>--- --- -- ----- -- --- ---- -- --- ---- -- ------ ------<br>--- ----- -- ----,210328.5,210326.40000000224,209943.267,209953,209959.941,210343.443,,23,a
screen,html.Screen,2_1_0_1_24,2022-02-15T15:58:14.685Z,,,,,,,,,,,,,,,,,53,,,,,,,,,,,,,,391.0570000000007,,response,,,,99,,,,,,,Space,keypress(Space),,,,,,,,---- -- ----- -- ------ - ------- --- ----------<br>------------- ------ ------ ---- ---- ------- ----- -- ----<br>-------- ------- -- ---------- --- - new ----- ----- ----<br>---- --- --- ----- --- ---- ---- ------- ----- ---- -------<br>--- --- -- ----- -- --- ---- -- --- ---- -- ------ ------<br>--- ----- -- ----,210736.5,210734.5,210326.769,210328.70000000298,210343.443,210743.619,,24,new
screen,html.Screen,2_1_0_1_25,2022-02-15T15:58:15.061Z,,,,,,,,,,,,,,,,,53,,,,,,,,,,,,,,366.7810000022291,,response,,,,99,,,,,,,Space,keypress(Space),,,,,,,,---- -- ----- -- ------ - ------- --- ----------<br>------------- ------ ------ ---- ---- ------- ----- -- ----<br>-------- ------- -- ---------- --- - --- study ----- ----<br>---- --- --- ----- --- ---- ---- ------- ----- ---- -------<br>--- --- -- ----- -- --- ---- -- --- ---- -- ------ ------<br>--- ----- -- ----,211112.40000000224,211110.40000000224,210726.945,210736.6000000015,210743.619,211127.121,,25,study
screen,html.Screen,2_1_0_1_26,2022-02-15T15:58:15.421Z,,,,,,,,,,,,,,,,,53,,,,,,,,,,,,,,343.27900000222144,,response,,,,99,,,,,,,Space,keypress(Space),,,,,,,,---- -- ----- -- ------ - ------- --- ----------<br>------------- ------ ------ ---- ---- ------- ----- -- ----<br>-------- ------- -- ---------- --- - --- ----- finds ----<br>---- --- --- ----- --- ---- ---- ------- ----- ---- -------<br>--- --- -- ----- -- --- ---- -- --- ---- -- ------ ------<br>--- ----- -- ----,211472.40000000224,211470.40000000224,211110.447,211112.6000000015,211127.121,211477.275,,26,finds
screen,html.Screen,2_1_0_1_27,2022-02-15T15:58:15.845Z,,,,,,,,,,,,,,,,,53,,,,,,,,,,,,,,417.125000002241,,response,,,,99,,,,,,,Space,keypress(Space),,,,,,,,---- -- ----- -- ------ - ------- --- ----------<br>------------- ------ ------ ---- ---- ------- ----- -- ----<br>-------- ------- -- ---------- --- - --- ----- ----- that<br>---- --- --- ----- --- ---- ---- ------- ----- ---- -------<br>--- --- -- ----- -- --- ---- -- --- ---- -- ------ ------<br>--- ----- -- ----,211896.5,211894.40000000224,211460.601,211472.6000000015,211477.275,211910.799,,27,that
screen,html.Screen,2_1_0_1_28,2022-02-15T15:58:16.237Z,,,,,,,,,,,,,,,,,53,,,,,,,,,,,,,,375.6010000022361,,response,,,,99,,,,,,,Space,keypress(Space),,,,,,,,---- -- ----- -- ------ - ------- --- ----------<br>------------- ------ ------ ---- ---- ------- ----- -- ----<br>-------- ------- -- ---------- --- - --- ----- ----- ----<br>it's --- --- ----- --- ---- ---- ------- ----- ---- -------<br>--- --- -- ----- -- --- ---- -- --- ---- -- ------ ------<br>--- ----- -- ----,212288.5,212286.40000000224,211894.125,211896.6000000015,211910.799,212294.301,,28,it's
screen,html.Screen,2_1_0_1_29,2022-02-15T15:58:16.629Z,,,,,,,,,,,,,,,,,53,,,,,,,,,,,,,,384.0990000022284,,response,,,,99,,,,,,,Space,keypress(Space),,,,,,,,---- -- ----- -- ------ - ------- --- ----------<br>------------- ------ ------ ---- ---- ------- ----- -- ----<br>-------- ------- -- ---------- --- - --- ----- ----- ----<br>---- not --- ----- --- ---- ---- ------- ----- ---- -------<br>--- --- -- ----- -- --- ---- -- --- ---- -- ------ ------<br>--- ----- -- ----,212680.5,212678.40000000224,212277.627,212288.5,212294.301,212694.477,,29,not
screen,html.Screen,2_1_0_1_30,2022-02-15T15:58:16.957Z,,,,,,,,,,,,,,,,,53,,,,,,,,,,,,,,311.82300000073155,,response,,,,99,,,,,,,Space,keypress(Space),,,,,,,,---- -- ----- -- ------ - ------- --- ----------<br>------------- ------ ------ ---- ---- ------- ----- -- ----<br>-------- ------- -- ---------- --- - --- ----- ----- ----<br>---- --- how ----- --- ---- ---- ------- ----- ---- -------<br>--- --- -- ----- -- --- ---- -- --- ---- -- ------ ------<br>--- ----- -- ----,213008.30000000075,213006.30000000075,212677.803,212680.6000000015,212694.477,213011.283,,30,how
screen,html.Screen,2_1_0_1_31,2022-02-15T15:58:17.309Z,,,,,,,,,,,,,,,,,53,,,,,,,,,,,,,,347.11700000223937,,response,,,,99,,,,,,,Space,keypress(Space),,,,,,,,---- -- ----- -- ------ - ------- --- ----------<br>------------- ------ ------ ---- ---- ------- ----- -- ----<br>-------- ------- -- ---------- --- - --- ----- ----- ----<br>---- --- --- close --- ---- ---- ------- ----- ---- -------<br>--- --- -- ----- -- --- ---- -- --- ---- -- ------ ------<br>--- ----- -- ----,213360.6000000015,213358.40000000224,212994.609,213008.40000000224,213011.283,213361.437,,31,close
screen,html.Screen,2_1_0_1_32,2022-02-15T15:58:17.741Z,,,,,,,,,,,,,,,,,53,,,,,,,,,,,,,,428.9630000022298,,response,,,,99,,,,,,,Space,keypress(Space),,,,,,,,---- -- ----- -- ------ - ------- --- ----------<br>------------- ------ ------ ---- ---- ------- ----- -- ----<br>-------- ------- -- ---------- --- - --- ----- ----- ----<br>---- --- --- ----- you ---- ---- ------- ----- ---- -------<br>--- --- -- ----- -- --- ---- -- --- ---- -- ------ ------<br>--- ----- -- ----,213792.5,213790.40000000224,213344.763,213360.70000000298,213361.437,213794.961,,32,you
screen,html.Screen,2_1_0_1_33,2022-02-15T15:58:18.158Z,,,,,,,,,,,,,,,,,53,,,,,,,,,,,,,,411.43900000222493,,response,,,,99,,,,,,,Space,keypress(Space),,,,,,,,---- -- ----- -- ------ - ------- --- ----------<br>------------- ------ ------ ---- ---- ------- ----- -- ----<br>-------- ------- -- ---------- --- - --- ----- ----- ----<br>---- --- --- ----- --- feel ---- ------- ----- ---- -------<br>--- --- -- ----- -- --- ---- -- --- ---- -- ------ ------<br>--- ----- -- ----,214209.6000000015,214206.40000000224,213778.287,213792.6000000015,213794.961,214211.811,,33,feel
screen,html.Screen,2_1_0_1_34,2022-02-15T15:58:18.733Z,,,,,,,,,,,,,,,,,53,,,,,,,,,,,,,,570.4890000007581,,response,,,,99,,,,,,,Space,keypress(Space),,,,,,,,---- -- ----- -- ------ - ------- --- ----------<br>------------- ------ ------ ---- ---- ------- ----- -- ----<br>-------- ------- -- ---------- --- - --- ----- ----- ----<br>---- --- --- ----- --- ---- that ------- ----- ---- -------<br>--- --- -- ----- -- --- ---- -- --- ---- -- ------ ------<br>--- ----- -- ----,214784.5,214782.30000000075,214195.137,214209.70000000298,214211.811,214795.401,,34,that
screen,html.Screen,2_1_0_1_35,2022-02-15T15:58:19.189Z,,,,,,,,,,,,,,,,,53,,,,,,,,,,,,,,442.9990000022226,,response,,,,99,,,,,,,Space,keypress(Space),,,,,,,,---- -- ----- -- ------ - ------- --- ----------<br>------------- ------ ------ ---- ---- ------- ----- -- ----<br>-------- ------- -- ---------- --- - --- ----- ----- ----<br>---- --- --- ----- --- ---- ---- matters ----- ---- -------<br>--- --- -- ----- -- --- ---- -- --- ---- -- ------ ------<br>--- ----- -- ----,215240.5,215238.40000000224,214778.727,214784.6000000015,214795.401,215245.599,,35,matters
screen,html.Screen,2_1_0_1_36,2022-02-15T15:58:19.637Z,,,,,,,,,,,,,,,,,53,,,,,,,,,,,,,,440.80100000224775,,response,,,,99,,,,,,,Space,keypress(Space),,,,,,,,"---- -- ----- -- ------ - ------- --- ----------<br>------------- ------ ------ ---- ---- ------- ----- -- ----<br>-------- ------- -- ---------- --- - --- ----- ----- ----<br>---- --- --- ----- --- ---- ---- ------- most, ---- -------<br>--- --- -- ----- -- --- ---- -- --- ---- -- ------ ------<br>--- ----- -- ----",215688.40000000224,215686.40000000224,215228.925,215240.6000000015,215245.599,215695.797,,36,"most,"
screen,html.Screen,2_1_0_1_37,2022-02-15T15:58:20.293Z,,,,,,,,,,,,,,,,,53,,,,,,,,,,,,,,646.6030000022438,,response,,,,99,,,,,,,Space,keypress(Space),,,,,,,,---- -- ----- -- ------ - ------- --- ----------<br>------------- ------ ------ ---- ---- ------- ----- -- ----<br>-------- ------- -- ---------- --- - --- ----- ----- ----<br>---- --- --- ----- --- ---- ---- ------- ----- it's -------<br>--- --- -- ----- -- --- ---- -- --- ---- -- ------ ------<br>--- ----- -- ----,216344.70000000298,216342.40000000224,215679.123,215688.5,215695.797,216346.083,,37,it's
screen,html.Screen,2_1_0_1_38,2022-02-15T15:58:20.789Z,,,,,,,,,,,,,,,,,53,,,,,,,,,,,,,,492.3170000022219,,response,,,,99,,,,,,,Space,keypress(Space),,,,,,,,---- -- ----- -- ------ - ------- --- ----------<br>------------- ------ ------ ---- ---- ------- ----- -- ----<br>-------- ------- -- ---------- --- - --- ----- ----- ----<br>---- --- --- ----- --- ---- ---- ------- ----- ---- whether<br>--- --- -- ----- -- --- ---- -- --- ---- -- ------ ------<br>--- ----- -- ----,216840.40000000224,216838.40000000224,216329.409,216344.70000000298,216346.083,216846.303,,38,whether
screen,html.Screen,2_1_0_1_39,2022-02-15T15:58:21.253Z,,,,,,,,,,,,,,,,,53,,,,,,,,,,,,,,456.09700000222074,,response,,,,99,,,,,,,Space,keypress(Space),,,,,,,,---- -- ----- -- ------ - ------- --- ----------<br>------------- ------ ------ ---- ---- ------- ----- -- ----<br>-------- ------- -- ---------- --- - --- ----- ----- ----<br>---- --- --- ----- --- ---- ---- ------- ----- ---- -------<br>you --- -- ----- -- --- ---- -- --- ---- -- ------ ------<br>--- ----- -- ----,217304.40000000224,217302.40000000224,216829.629,216840.5,216846.303,217313.175,,39,you
screen,html.Screen,2_1_0_1_40,2022-02-15T15:58:21.565Z,,,,,,,,,,,,,,,,,53,,,,,,,,,,,,,,301.2250000022468,,response,,,,99,,,,,,,Space,keypress(Space),,,,,,,,---- -- ----- -- ------ - ------- --- ----------<br>------------- ------ ------ ---- ---- ------- ----- -- ----<br>-------- ------- -- ---------- --- - --- ----- ----- ----<br>---- --- --- ----- --- ---- ---- ------- ----- ---- -------<br>--- are -- ----- -- --- ---- -- --- ---- -- ------ ------<br>--- ----- -- ----,217616.5,217614.40000000224,217296.501,217304.40000000224,217313.175,217629.981,,40,are
screen,html.Screen,2_1_0_1_41,2022-02-15T15:58:21.933Z,,,,,,,,,,,,,,,,,53,,,,,,,,,,,,,,352.4190000022354,,response,,,,99,,,,,,,Space,keypress(Space),,,,,,,,---- -- ----- -- ------ - ------- --- ----------<br>------------- ------ ------ ---- ---- ------- ----- -- ----<br>-------- ------- -- ---------- --- - --- ----- ----- ----<br>---- --- --- ----- --- ---- ---- ------- ----- ---- -------<br>--- --- as ----- -- --- ---- -- --- ---- -- ------ ------<br>--- ----- -- ----,217984.5,217982.40000000224,217613.307,217616.6000000015,217629.981,217996.809,,41,as
screen,html.Screen,2_1_0_1_42,2022-02-15T15:58:22.245Z,,,,,,,,,,,,,,,,,53,,,,,,,,,,,,,,297.5910000022268,,response,,,,99,,,,,,,Space,keypress(Space),,,,,,,,---- -- ----- -- ------ - ------- --- ----------<br>------------- ------ ------ ---- ---- ------- ----- -- ----<br>-------- ------- -- ---------- --- - --- ----- ----- ----<br>---- --- --- ----- --- ---- ---- ------- ----- ---- -------<br>--- --- -- close -- --- ---- -- --- ---- -- ------ ------<br>--- ----- -- ----,218296.40000000224,218294.40000000224,217980.135,217984.6000000015,217996.809,218313.615,,42,close
screen,html.Screen,2_1_0_1_43,2022-02-15T15:58:22.733Z,,,,,,,,,,,,,,,,,53,,,,,,,,,,,,,,468.7850000022445,,response,,,,99,,,,,,,Space,keypress(Space),,,,,,,,---- -- ----- -- ------ - ------- --- ----------<br>------------- ------ ------ ---- ---- ------- ----- -- ----<br>-------- ------- -- ---------- --- - --- ----- ----- ----<br>---- --- --- ----- --- ---- ---- ------- ----- ---- -------<br>--- --- -- ----- as --- ---- -- --- ---- -- ------ ------<br>--- ----- -- ----,218784.80000000075,218782.40000000224,218296.941,218296.6000000015,218313.615,218797.161,,43,as
screen,html.Screen,2_1_0_1_44,2022-02-15T15:58:23.205Z,,,,,,,,,,,,,,,,,53,,,,,,,,,,,,,,457.2390000022424,,response,,,,99,,,,,,,Space,keypress(Space),,,,,,,,---- -- ----- -- ------ - ------- --- ----------<br>------------- ------ ------ ---- ---- ------- ----- -- ----<br>-------- ------- -- ---------- --- - --- ----- ----- ----<br>---- --- --- ----- --- ---- ---- ------- ----- ---- -------<br>--- --- -- ----- -- you ---- -- --- ---- -- ------ ------<br>--- ----- -- ----,219256.30000000075,219254.40000000224,218780.487,218784.90000000224,218797.161,219264.033,,44,you
screen,html.Screen,2_1_0_1_45,2022-02-15T15:58:23.701Z,,,,,,,,,,,,,,,,,53,,,,,,,,,,,,,,486.36700000223937,,response,,,,99,,,,,,,Space,keypress(Space),,,,,,,,---- -- ----- -- ------ - ------- --- ----------<br>------------- ------ ------ ---- ---- ------- ----- -- ----<br>-------- ------- -- ---------- --- - --- ----- ----- ----<br>---- --- --- ----- --- ---- ---- ------- ----- ---- -------<br>--- --- -- ----- -- --- want -- --- ---- -- ------ ------<br>--- ----- -- ----,219752.30000000075,219750.40000000224,219247.359,219256.5,219264.033,219764.253,,45,want
screen,html.Screen,2_1_0_1_46,2022-02-15T15:58:24.189Z,,,,,,,,,,,,,,,,,53,,,,,,,,,,,,,,474.1470000022382,,response,,,,99,,,,,,,Space,keypress(Space),,,,,,,,---- -- ----- -- ------ - ------- --- ----------<br>------------- ------ ------ ---- ---- ------- ----- -- ----<br>-------- ------- -- ---------- --- - --- ----- ----- ----<br>---- --- --- ----- --- ---- ---- ------- ----- ---- -------<br>--- --- -- ----- -- --- ---- to --- ---- -- ------ ------<br>--- ----- -- ----,220240.5,220238.40000000224,219747.579,219752.5,219764.253,220247.799,,46,to
screen,html.Screen,2_1_0_1_47,2022-02-15T15:58:25.469Z,,,,,,,,,,,,,,,,,53,,,,,,,,,,,,,,1270.601000002236,,response,,,,99,,,,,,,Space,keypress(Space),,,,,,,,"---- -- ----- -- ------ - ------- --- ----------<br>------------- ------ ------ ---- ---- ------- ----- -- ----<br>-------- ------- -- ---------- --- - --- ----- ----- ----<br>---- --- --- ----- --- ---- ---- ------- ----- ---- -------<br>--- --- -- ----- -- --- ---- -- be, ---- -- ------ ------<br>--- ----- -- ----",221520.40000000224,221518.40000000224,220231.125,220240.6000000015,220247.799,221531.697,,47,"be,"
screen,html.Screen,2_1_0_1_48,2022-02-15T15:58:25.869Z,,,,,,,,,,,,,,,,,53,,,,,,,,,,,,,,386.6030000007595,,response,,,,99,,,,,,,Space,keypress(Space),,,,,,,,---- -- ----- -- ------ - ------- --- ----------<br>------------- ------ ------ ---- ---- ------- ----- -- ----<br>-------- ------- -- ---------- --- - --- ----- ----- ----<br>---- --- --- ----- --- ---- ---- ------- ----- ---- -------<br>--- --- -- ----- -- --- ---- -- --- even -- ------ ------<br>--- ----- -- ----,221920.30000000075,221918.30000000075,221515.023,221520.5,221531.697,221931.873,,48,even
screen,html.Screen,2_1_0_1_49,2022-02-15T15:58:26.349Z,,,,,,,,,,,,,,,,,53,,,,,,,,,,,,,,466.52700000224286,,response,,,,99,,,,,,,Space,keypress(Space),,,,,,,,---- -- ----- -- ------ - ------- --- ----------<br>------------- ------ ------ ---- ---- ------- ----- -- ----<br>-------- ------- -- ---------- --- - --- ----- ----- ----<br>---- --- --- ----- --- ---- ---- ------- ----- ---- -------<br>--- --- -- ----- -- --- ---- -- --- ---- if ------ ------<br>--- ----- -- ----,222400.40000000224,222398.40000000224,221915.199,221920.5,221931.873,222415.419,,49,if
screen,html.Screen,2_1_0_1_50,2022-02-15T15:58:26.541Z,,,,,,,,,,,,,,,,,53,,,,,,,,,,,,,,174.88100000075065,,response,,,,99,,,,,,,Space,keypress(Space),,,,,,,,---- -- ----- -- ------ - ------- --- ----------<br>------------- ------ ------ ---- ---- ------- ----- -- ----<br>-------- ------- -- ---------- --- - --- ----- ----- ----<br>---- --- --- ----- --- ---- ---- ------- ----- ---- -------<br>--- --- -- ----- -- --- ---- -- --- ---- -- that's ------<br>--- ----- -- ----,222592.5,222590.30000000075,222398.745,222400.5,222415.419,222598.833,,50,that's
screen,html.Screen,2_1_0_1_51,2022-02-15T15:58:27.173Z,,,,,,,,,,,,,,,,,53,,,,,,,,,,,,,,623.4670000007318,,response,,,,99,,,,,,,Space,keypress(Space),,,,,,,,---- -- ----- -- ------ - ------- --- ----------<br>------------- ------ ------ ---- ---- ------- ----- -- ----<br>-------- ------- -- ---------- --- - --- ----- ----- ----<br>---- --- --- ----- --- ---- ---- ------- ----- ---- -------<br>--- --- -- ----- -- --- ---- -- --- ---- -- ------ really<br>--- ----- -- ----,223224.20000000298,223222.30000000075,222582.159,222592.70000000298,222598.833,223232.445,,51,really
screen,html.Screen,2_1_0_1_52,2022-02-15T15:58:27.581Z,,,,,,,,,,,,,,,,,53,,,,,,,,,,,,,,397.9550000022282,,response,,,,99,,,,,,,Space,keypress(Space),,,,,,,,---- -- ----- -- ------ - ------- --- ----------<br>------------- ------ ------ ---- ---- ------- ----- -- ----<br>-------- ------- -- ---------- --- - --- ----- ----- ----<br>---- --- --- ----- --- ---- ---- ------- ----- ---- -------<br>--- --- -- ----- -- --- ---- -- --- ---- -- ------ ------<br>not ----- -- ----,223632.40000000224,223630.40000000224,223215.771,223224.30000000075,223232.445,223649.295,,52,not
screen,html.Screen,2_1_0_1_53,2022-02-15T15:58:27.981Z,,,,,,,,,,,,,,,,,53,,,,,,,,,,,,,,381.10500000222237,,response,,,,99,,,,,,,Space,keypress(Space),,,,,,,,---- -- ----- -- ------ - ------- --- ----------<br>------------- ------ ------ ---- ---- ------- ----- -- ----<br>-------- ------- -- ---------- --- - --- ----- ----- ----<br>---- --- --- ----- --- ---- ---- ------- ----- ---- -------<br>--- --- -- ----- -- --- ---- -- --- ---- -- ------ ------<br>--- close -- ----,224032.30000000075,224030.40000000224,223632.621,223632.5,223649.295,224049.471,,53,close
screen,html.Screen,2_1_0_1_54,2022-02-15T15:58:28.453Z,,,,,,,,,,,,,,,,,53,,,,,,,,,,,,,,452.9290000022447,,response,,,,99,,,,,,,Space,keypress(Space),,,,,,,,---- -- ----- -- ------ - ------- --- ----------<br>------------- ------ ------ ---- ---- ------- ----- -- ----<br>-------- ------- -- ---------- --- - --- ----- ----- ----<br>---- --- --- ----- --- ---- ---- ------- ----- ---- -------<br>--- --- -- ----- -- --- ---- -- --- ---- -- ------ ------<br>--- ----- at ----,224504.40000000224,224502.40000000224,224032.797,224032.5,224049.471,224516.343,,54,at
screen,html.Screen,2_1_0_1_55,2022-02-15T15:58:29.741Z,,,,,,,,,,,,,,,,,53,,,,,,,,,,,,,,1274.0570000022417,,response,,,,99,,,,,,,Space,keypress(Space),,,,,,,,---- -- ----- -- ------ - ------- --- ----------<br>------------- ------ ------ ---- ---- ------- ----- -- ----<br>-------- ------- -- ---------- --- - --- ----- ----- ----<br>---- --- --- ----- --- ---- ---- ------- ----- ---- -------<br>--- --- -- ----- -- --- ---- -- --- ---- -- ------ ------<br>--- ----- -- all.,225792.30000000075,225790.40000000224,224499.669,224504.6000000015,224516.343,225800.241,,55,all.
Item 99,flow.Loop,2_1_0_1,2022-02-15T15:58:29.742Z,,,,,,,,,,,,,,,,,,,,,,,,,,,,,,,28552.72100000223,,completion,,,,,A,,,,,,,,,,,silence,,,,,225792.6000000015,225790.40000000224,197221.005,197224.70000000298,197237.679,225800.241,,,
Question 1,html.Screen,2_1_0_2,2022-02-15T15:58:40.295Z,,,,,,,,,,,,,,,,,,,,,,,,,,,,true,FALSE,,10543.659000002226,,response,,,,99,A,,,,,,FALSE,click #choice-2,,,,silence,,,,,236345.40000000224,236343.90000000224,225783.567,225792.70000000298,225800.241,236371.557,,,
Question 2,html.Screen,2_1_0_3,2022-02-15T15:58:52.454Z,,,,,,,,,,,,,,,,,,,,,,,,,,,,true,TRUE,,12130.64300000298,,response,,,,99,A,,,,,,TRUE,click #choice-1,,,,silence,,,,,248504.1000000015,248502.20000000298,236354.883,236345.6000000015,236371.557,248526.903,,,
Item 99,flow.Sequence,2_1_0,2022-02-15T15:58:52.454Z,,,,,,,,,,,,,,,,,,,,,,,,,,,,,,,61268.92100000297,,completion,,,,,,,,,,,,,,,,,,,,,248504.30000000075,248502.20000000298,187216.605,187213.30000000075,187233.279,248526.903,,,
Holding screen,html.Screen,2_1_1_0,2022-02-15T15:59:02.466Z,,,,,,,,,,,,,,,,,,,,,,,,,,,,,,,10004.400000000023,,timeout,,,,,,,,,,,,,,,,,,,,,258515.80000000075,258514.629,248510.229,248504.5,248526.903,258531.303,,,
screen,html.Screen,2_1_1_1_0,2022-02-15T15:59:03.772Z,,,,,,,,,,,,,,,,,54,,,,,,,,,,,,,,1287.6969999999856,,response,,,,100,,,,,,,Space,keypress(Space),,,,,,,,At --- ---- --- ------ ----- ------- ---- -- --- ------- --<br>------- ---------- ------ -- ----- -- ----- -- ---- ------<br>--- ----- --- --- ------ -------- ----- --- ------ ----- --<br>----- ----- ---------- --- --- ------ ------ ---- -- ------<br>------- --- ------ ----- --- ---- ------- -- ---- --- --<br>------- ------,259821.70000000298,259819,258514.629,258515.80000000075,258531.303,259831.875,,0,At
screen,html.Screen,2_1_1_1_1,2022-02-15T15:59:04.123Z,,,,,,,,,,,,,,,,,54,,,,,,,,,,,,,,339.125,,response,,,,100,,,,,,,Space,keypress(Space),,,,,,,,-- the ---- --- ------ ----- ------- ---- -- --- ------- --<br>------- ---------- ------ -- ----- -- ----- -- ---- ------<br>--- ----- --- --- ------ -------- ----- --- ------ ----- --<br>----- ----- ---------- --- --- ------ ------ ---- -- ------<br>------- --- ------ ----- --- ---- ------- -- ---- --- --<br>------- ------,260173,260171,259815.201,259821.80000000075,259831.875,260182.029,,1,the
screen,html.Screen,2_1_1_1_2,2022-02-15T15:59:04.435Z,,,,,,,,,,,,,,,,,54,,,,,,,,,,,,,,300.97099999999045,,response,,,,100,,,,,,,Space,keypress(Space),,,,,,,,-- --- time --- ------ ----- ------- ---- -- --- ------- --<br>------- ---------- ------ -- ----- -- ----- -- ---- ------<br>--- ----- --- --- ------ -------- ----- --- ------ ----- --<br>----- ----- ---------- --- --- ------ ------ ---- -- ------<br>------- --- ------ ----- --- ---- ------- -- ---- --- --<br>------- ------,260485.20000000298,260483,260165.355,260173.20000000298,260182.029,260498.835,,2,time
screen,html.Screen,2_1_1_1_3,2022-02-15T15:59:04.659Z,,,,,,,,,,,,,,,,,54,,,,,,,,,,,,,,208.16500000000815,,response,,,,100,,,,,,,Space,keypress(Space),,,,,,,,-- --- ---- the ------ ----- ------- ---- -- --- ------- --<br>------- ---------- ------ -- ----- -- ----- -- ---- ------<br>--- ----- --- --- ------ -------- ----- --- ------ ----- --<br>----- ----- ---------- --- --- ------ ------ ---- -- ------<br>------- --- ------ ----- --- ---- ------- -- ---- --- --<br>------- ------,260709.20000000298,260707,260482.161,260485.20000000298,260498.835,260715.597,,3,the
screen,html.Screen,2_1_1_1_4,2022-02-15T15:59:05.011Z,,,,,,,,,,,,,,,,,54,,,,,,,,,,,,,,343.50300000148127,,response,,,,100,,,,,,,Space,keypress(Space),,,,,,,,-- --- ---- --- French ----- ------- ---- -- --- ------- --<br>------- ---------- ------ -- ----- -- ----- -- ---- ------<br>--- ----- --- --- ------ -------- ----- --- ------ ----- --<br>----- ----- ---------- --- --- ------ ------ ---- -- ------<br>------- --- ------ ----- --- ---- ------- -- ---- --- --<br>------- ------,261061.20000000298,261059.1000000015,260698.923,260709.30000000075,260715.597,261065.751,,4,French
screen,html.Screen,2_1_1_1_5,2022-02-15T15:59:05.219Z,,,,,,,,,,,,,,,,,54,,,,,,,,,,,,,,201.2490000000107,,response,,,,100,,,,,,,Space,keypress(Space),,,,,,,,-- --- ---- --- ------ crown ------- ---- -- --- ------- --<br>------- ---------- ------ -- ----- -- ----- -- ---- ------<br>--- ----- --- --- ------ -------- ----- --- ------ ----- --<br>----- ----- ---------- --- --- ------ ------ ---- -- ------<br>------- --- ------ ----- --- ---- ------- -- ---- --- --<br>------- ------,261269.20000000298,261267,261049.077,261061.30000000075,261065.751,261282.513,,5,crown
screen,html.Screen,2_1_1_1_6,2022-02-15T15:59:05.675Z,,,,,,,,,,,,,,,,,54,,,,,,,,,,,,,,440.4869999999937,,response,,,,100,,,,,,,Space,keypress(Space),,,,,,,,-- --- ---- --- ------ ----- secured ---- -- --- ------- --<br>------- ---------- ------ -- ----- -- ----- -- ---- ------<br>--- ----- --- --- ------ -------- ----- --- ------ ----- --<br>----- ----- ---------- --- --- ------ ------ ---- -- ------<br>------- --- ------ ----- --- ---- ------- -- ---- --- --<br>------- ------,261725,261723,261265.839,261269.30000000075,261282.513,261732.711,,6,secured
screen,html.Screen,2_1_1_1_7,2022-02-15T15:59:06.115Z,,,,,,,,,,,,,,,,,54,,,,,,,,,,,,,,430.28899999998976,,response,,,,100,,,,,,,Space,keypress(Space),,,,,,,,-- --- ---- --- ------ ----- ------- much -- --- ------- --<br>------- ---------- ------ -- ----- -- ----- -- ---- ------<br>--- ----- --- --- ------ -------- ----- --- ------ ----- --<br>----- ----- ---------- --- --- ------ ------ ---- -- ------<br>------- --- ------ ----- --- ---- ------- -- ---- --- --<br>------- ------,262165.1000000015,262163,261716.037,261725.1000000015,261732.711,262166.235,,7,much
screen,html.Screen,2_1_1_1_8,2022-02-15T15:59:06.474Z,,,,,,,,,,,,,,,,,54,,,,,,,,,,,,,,356.76500000001397,,response,,,,100,,,,,,,Space,keypress(Space),,,,,,,,-- --- ---- --- ------ ----- ------- ---- of --- ------- --<br>------- ---------- ------ -- ----- -- ----- -- ---- ------<br>--- ----- --- --- ------ -------- ----- --- ------ ----- --<br>----- ----- ---------- --- --- ------ ------ ---- -- ------<br>------- --- ------ ----- --- ---- ------- -- ---- --- --<br>------- ------,262524.40000000224,262523,262149.561,262165.30000000075,262166.235,262533.063,,8,of
screen,html.Screen,2_1_1_1_9,2022-02-15T15:59:06.699Z,,,,,,,,,,,,,,,,,54,,,,,,,,,,,,,,213.93699999997625,,response,,,,100,,,,,,,Space,keypress(Space),,,,,,,,-- --- ---- --- ------ ----- ------- ---- -- its ------- --<br>------- ---------- ------ -- ----- -- ----- -- ---- ------<br>--- ----- --- --- ------ -------- ----- --- ------ ----- --<br>----- ----- ---------- --- --- ------ ------ ---- -- ------<br>------- --- ------ ----- --- ---- ------- -- ---- --- --<br>------- ------,262749.1000000015,262747,262516.389,262524.6000000015,262533.063,262766.499,,9,its
screen,html.Screen,2_1_1_1_10,2022-02-15T15:59:07.139Z,,,,,,,,,,,,,,,,,54,,,,,,,,,,,,,,420.5009999999893,,response,,,,100,,,,,,,Space,keypress(Space),,,,,,,,-- --- ---- --- ------ ----- ------- ---- -- --- revenue --<br>------- ---------- ------ -- ----- -- ----- -- ---- ------<br>--- ----- --- --- ------ -------- ----- --- ------ ----- --<br>----- ----- ---------- --- --- ------ ------ ---- -- ------<br>------- --- ------ ----- --- ---- ------- -- ---- --- --<br>------- ------,263189,263187,262749.825,262749.200000003,262766.499,263200.023,,10,revenue
screen,html.Screen,2_1_1_1_11,2022-02-15T15:59:07.683Z,,,,,,,,,,,,,,,,,54,,,,,,,,,,,,,,531.0770000015036,,response,,,,100,,,,,,,Space,keypress(Space),,,,,,,,-- --- ---- --- ------ ----- ------- ---- -- --- ------- by<br>------- ---------- ------ -- ----- -- ----- -- ---- ------<br>--- ----- --- --- ------ -------- ----- --- ------ ----- --<br>----- ----- ---------- --- --- ------ ------ ---- -- ------<br>------- --- ------ ----- --- ---- ------- -- ---- --- --<br>------- ------,263733.1000000015,263731.1000000015,263183.349,263189.1000000015,263200.023,263750.265,,11,by
screen,html.Screen,2_1_1_1_12,2022-02-15T15:59:08.139Z,,,,,,,,,,,,,,,,,54,,,,,,,,,,,,,,436.73499999998603,,response,,,,100,,,,,,,Space,keypress(Space),,,,,,,,-- --- ---- --- ------ ----- ------- ---- -- --- ------- --<br>issuing ---------- ------ -- ----- -- ----- -- ---- ------<br>--- ----- --- --- ------ -------- ----- --- ------ ----- --<br>----- ----- ---------- --- --- ------ ------ ---- -- ------<br>------- --- ------ ----- --- ---- ------- -- ---- --- --<br>------- ------,264189.200000003,264187,263733.591,263733.200000003,263750.265,264200.463,,12,issuing
screen,html.Screen,2_1_1_1_13,2022-02-15T15:59:08.515Z,,,,,,,,,,,,,,,,,54,,,,,,,,,,,,,,362.5370000000112,,response,,,,100,,,,,,,Space,keypress(Space),,,,,,,,-- --- ---- --- ------ ----- ------- ---- -- --- ------- --<br>------- government ------ -- ----- -- ----- -- ---- ------<br>--- ----- --- --- ------ -------- ----- --- ------ ----- --<br>----- ----- ---------- --- --- ------ ------ ---- -- ------<br>------- --- ------ ----- --- ---- ------- -- ---- --- --<br>------- ------,264565.1000000015,264563,264183.789,264189.30000000075,264200.463,264567.291,,13,government
screen,html.Screen,2_1_1_1_14,2022-02-15T15:59:08.971Z,,,,,,,,,,,,,,,,,54,,,,,,,,,,,,,,451.8090000014636,,response,,,,100,,,,,,,Space,keypress(Space),,,,,,,,-- --- ---- --- ------ ----- ------- ---- -- --- ------- --<br>------- ---------- bonds. -- ----- -- ----- -- ---- ------<br>--- ----- --- --- ------ -------- ----- --- ------ ----- --<br>----- ----- ---------- --- --- ------ ------ ---- -- ------<br>------- --- ------ ----- --- ---- ------- -- ---- --- --<br>------- ------,265021.1000000015,265019.1000000015,264550.617,264565.200000003,264567.291,265034.163,,14,bonds.
screen,html.Screen,2_1_1_1_15,2022-02-15T15:59:10.819Z,,,,,,,,,,,,,,,,,54,,,,,,,,,,,,,,1832.7370000022347,,response,,,,100,,,,,,,Space,keypress(Space),,,,,,,,-- --- ---- --- ------ ----- ------- ---- -- --- ------- --<br>------- ---------- ------ In ----- -- ----- -- ---- ------<br>--- ----- --- --- ------ -------- ----- --- ------ ----- --<br>----- ----- ---------- --- --- ------ ------ ---- -- ------<br>------- --- ------ ----- --- ---- ------- -- ---- --- --<br>------- ------,266869,266866.90000000224,265017.489,265021.30000000075,265034.163,266884.977,,15,In
screen,html.Screen,2_1_1_1_16,2022-02-15T15:59:11.203Z,,,,,,,,,,,,,,,,,54,,,,,,,,,,,,,,366.0229999999865,,response,,,,100,,,,,,,Space,keypress(Space),,,,,,,,"-- --- ---- --- ------ ----- ------- ---- -- --- ------- --<br>------- ---------- ------ -- 1727, -- ----- -- ---- ------<br>--- ----- --- --- ------ -------- ----- --- ------ ----- --<br>----- ----- ---------- --- --- ------ ------ ---- -- ------<br>------- --- ------ ----- --- ---- ------- -- ---- --- --<br>------- ------",267253.200000003,267251,266868.303,266869.1000000015,266884.977,267268.479,,16,"1727,"
screen,html.Screen,2_1_1_1_17,2022-02-15T15:59:12.451Z,,,,,,,,,,,,,,,,,54,,,,,,,,,,,,,,1230.621000001498,,response,,,,100,,,,,,,Space,keypress(Space),,,,,,,,-- --- ---- --- ------ ----- ------- ---- -- --- ------- --<br>------- ---------- ------ -- ----- in ----- -- ---- ------<br>--- ----- --- --- ------ -------- ----- --- ------ ----- --<br>----- ----- ---------- --- --- ------ ------ ---- -- ------<br>------- --- ------ ----- --- ---- ------- -- ---- --- --<br>------- ------,268501,268499.1000000015,267251.805,267253.40000000224,267268.479,268502.355,,17,in
screen,html.Screen,2_1_1_1_18,2022-02-15T15:59:12.859Z,,,,,,,,,,,,,,,,,54,,,,,,,,,,,,,,404.6450000000186,,response,,,,100,,,,,,,Space,keypress(Space),,,,,,,,-- --- ---- --- ------ ----- ------- ---- -- --- ------- --<br>------- ---------- ------ -- ----- -- order -- ---- ------<br>--- ----- --- --- ------ -------- ----- --- ------ ----- --<br>----- ----- ---------- --- --- ------ ------ ---- -- ------<br>------- --- ------ ----- --- ---- ------- -- ---- --- --<br>------- ------,268909.1000000015,268907,268485.681,268501.1000000015,268502.355,268919.205,,18,order
screen,html.Screen,2_1_1_1_19,2022-02-15T15:59:13.147Z,,,,,,,,,,,,,,,,,54,,,,,,,,,,,,,,275.7949999999837,,response,,,,100,,,,,,,Space,keypress(Space),,,,,,,,-- --- ---- --- ------ ----- ------- ---- -- --- ------- --<br>------- ---------- ------ -- ----- -- ----- to ---- ------<br>--- ----- --- --- ------ -------- ----- --- ------ ----- --<br>----- ----- ---------- --- --- ------ ------ ---- -- ------<br>------- --- ------ ----- --- ---- ------- -- ---- --- --<br>------- ------,269197,269195,268902.531,268909.200000003,268919.205,269202.663,,19,to
screen,html.Screen,2_1_1_1_20,2022-02-15T15:59:13.571Z,,,,,,,,,,,,,,,,,54,,,,,,,,,,,,,,416.33699999999953,,response,,,,100,,,,,,,Space,keypress(Space),,,,,,,,-- --- ---- --- ------ ----- ------- ---- -- --- ------- --<br>------- ---------- ------ -- ----- -- ----- -- save ------<br>--- ----- --- --- ------ -------- ----- --- ------ ----- --<br>----- ----- ---------- --- --- ------ ------ ---- -- ------<br>------- --- ------ ----- --- ---- ------- -- ---- --- --<br>------- ------,269621.1000000015,269619,269185.989,269197.1000000015,269202.663,269636.187,,20,save
screen,html.Screen,2_1_1_1_21,2022-02-15T15:59:14.020Z,,,,,,,,,,,,,,,,,54,,,,,,,,,,,,,,430.81300000002375,,response,,,,100,,,,,,,Space,keypress(Space),,,,,,,,"-- --- ---- --- ------ ----- ------- ---- -- --- ------- --<br>------- ---------- ------ -- ----- -- ----- -- ---- money,<br>--- ----- --- --- ------ -------- ----- --- ------ ----- --<br>----- ----- ---------- --- --- ------ ------ ---- -- ------<br>------- --- ------ ----- --- ---- ------- -- ---- --- --<br>------- ------",270069.6000000015,270067,269619.513,269621.200000003,269636.187,270086.385,,21,"money,"
screen,html.Screen,2_1_1_1_22,2022-02-15T15:59:14.563Z,,,,,,,,,,,,,,,,,54,,,,,,,,,,,,,,524.7150000014808,,response,,,,100,,,,,,,Space,keypress(Space),,,,,,,,-- --- ---- --- ------ ----- ------- ---- -- --- ------- --<br>------- ---------- ------ -- ----- -- ----- -- ---- ------<br>the ----- --- --- ------ -------- ----- --- ------ ----- --<br>----- ----- ---------- --- --- ------ ------ ---- -- ------<br>------- --- ------ ----- --- ---- ------- -- ---- --- --<br>------- ------,270613,270611.1000000015,270069.711,270069.700000003,270086.385,270619.953,,22,the
screen,html.Screen,2_1_1_1_23,2022-02-15T15:59:15.011Z,,,,,,,,,,,,,,,,,54,,,,,,,,,,,,,,438.94700000225566,,response,,,,100,,,,,,,Space,keypress(Space),,,,,,,,-- --- ---- --- ------ ----- ------- ---- -- --- ------- --<br>------- ---------- ------ -- ----- -- ----- -- ---- ------<br>--- state --- --- ------ -------- ----- --- ------ ----- --<br>----- ----- ---------- --- --- ------ ------ ---- -- ------<br>------- --- ------ ----- --- ---- ------- -- ---- --- --<br>------- ------,271061,271058.90000000224,270603.279,270613.1000000015,270619.953,271070.151,,23,state
screen,html.Screen,2_1_1_1_24,2022-02-15T15:59:15.387Z,,,,,,,,,,,,,,,,,54,,,,,,,,,,,,,,364.8489999999874,,response,,,,100,,,,,,,Space,keypress(Space),,,,,,,,-- --- ---- --- ------ ----- ------- ---- -- --- ------- --<br>------- ---------- ------ -- ----- -- ----- -- ---- ------<br>--- ----- cut --- ------ -------- ----- --- ------ ----- --<br>----- ----- ---------- --- --- ------ ------ ---- -- ------<br>------- --- ------ ----- --- ---- ------- -- ---- --- --<br>------- ------,271437,271435,271053.477,271061.1000000015,271070.151,271453.653,,24,cut
screen,html.Screen,2_1_1_1_25,2022-02-15T15:59:15.723Z,,,,,,,,,,,,,,,,,54,,,,,,,,,,,,,,317.34700000000885,,response,,,,100,,,,,,,Space,keypress(Space),,,,,,,,-- --- ---- --- ------ ----- ------- ---- -- --- ------- --<br>------- ---------- ------ -- ----- -- ----- -- ---- ------<br>--- ----- --- the ------ -------- ----- --- ------ ----- --<br>----- ----- ---------- --- --- ------ ------ ---- -- ------<br>------- --- ------ ----- --- ---- ------- -- ---- --- --<br>------- ------,271773.200000003,271771,271436.979,271437.1000000015,271453.653,271787.133,,25,the
screen,html.Screen,2_1_1_1_26,2022-02-15T15:59:16.019Z,,,,,,,,,,,,,,,,,54,,,,,,,,,,,,,,279.8670000000275,,response,,,,100,,,,,,,Space,keypress(Space),,,,,,,,-- --- ---- --- ------ ----- ------- ---- -- --- ------- --<br>------- ---------- ------ -- ----- -- ----- -- ---- ------<br>--- ----- --- --- bonds' -------- ----- --- ------ ----- --<br>----- ----- ---------- --- --- ------ ------ ---- -- ------<br>------- --- ------ ----- --- ---- ------- -- ---- --- --<br>------- ------,272069,272067,271770.459,271773.200000003,271787.133,272070.591,,26,bonds'
screen,html.Screen,2_1_1_1_27,2022-02-15T15:59:16.491Z,,,,,,,,,,,,,,,,,54,,,,,,,,,,,,,,468.4089999999851,,response,,,,100,,,,,,,Space,keypress(Space),,,,,,,,-- --- ---- --- ------ ----- ------- ---- -- --- ------- --<br>------- ---------- ------ -- ----- -- ----- -- ---- ------<br>--- ----- --- --- ------ interest ----- --- ------ ----- --<br>----- ----- ---------- --- --- ------ ------ ---- -- ------<br>------- --- ------ ----- --- ---- ------- -- ---- --- --<br>------- ------,272541,272539,272053.917,272069.1000000015,272070.591,272554.137,,27,interest
screen,html.Screen,2_1_1_1_28,2022-02-15T15:59:16.868Z,,,,,,,,,,,,,,,,,54,,,,,,,,,,,,,,360.9630000015022,,response,,,,100,,,,,,,Space,keypress(Space),,,,,,,,-- --- ---- --- ------ ----- ------- ---- -- --- ------- --<br>------- ---------- ------ -- ----- -- ----- -- ---- ------<br>--- ----- --- --- ------ -------- rate. --- ------ ----- --<br>----- ----- ---------- --- --- ------ ------ ---- -- ------<br>------- --- ------ ----- --- ---- ------- -- ---- --- --<br>------- ------,272917.30000000075,272915.1000000015,272537.463,272541.1000000015,272554.137,272920.965,,28,rate.
screen,html.Screen,2_1_1_1_29,2022-02-15T15:59:17.339Z,,,,,,,,,,,,,,,,,54,,,,,,,,,,,,,,466.0349999999744,,response,,,,100,,,,,,,Space,keypress(Space),,,,,,,,-- --- ---- --- ------ ----- ------- ---- -- --- ------- --<br>------- ---------- ------ -- ----- -- ----- -- ---- ------<br>--- ----- --- --- ------ -------- ----- The ------ ----- --<br>----- ----- ---------- --- --- ------ ------ ---- -- ------<br>------- --- ------ ----- --- ---- ------- -- ---- --- --<br>------- ------,273389.1000000015,273387,272904.291,272917.30000000075,272920.965,273404.511,,29,The
screen,html.Screen,2_1_1_1_30,2022-02-15T15:59:17.635Z,,,,,,,,,,,,,,,,,54,,,,,,,,,,,,,,278.4890000000014,,response,,,,100,,,,,,,Space,keypress(Space),,,,,,,,-- --- ---- --- ------ ----- ------- ---- -- --- ------- --<br>------- ---------- ------ -- ----- -- ----- -- ---- ------<br>--- ----- --- --- ------ -------- ----- --- market ----- --<br>----- ----- ---------- --- --- ------ ------ ---- -- ------<br>------- --- ------ ----- --- ---- ------- -- ---- --- --<br>------- ------,273685.200000003,273683,273387.837,273389.200000003,273404.511,273687.969,,30,market
screen,html.Screen,2_1_1_1_31,2022-02-15T15:59:18.043Z,,,,,,,,,,,,,,,,,54,,,,,,,,,,,,,,403.03100000001723,,response,,,,100,,,,,,,Space,keypress(Space),,,,,,,,-- --- ---- --- ------ ----- ------- ---- -- --- ------- --<br>------- ---------- ------ -- ----- -- ----- -- ---- ------<br>--- ----- --- --- ------ -------- ----- --- ------ value --<br>----- ----- ---------- --- --- ------ ------ ---- -- ------<br>------- --- ------ ----- --- ---- ------- -- ---- --- --<br>------- ------,274093.200000003,274091,273671.295,273685.200000003,273687.969,274104.819,,31,value
screen,html.Screen,2_1_1_1_32,2022-02-15T15:59:18.435Z,,,,,,,,,,,,,,,,,54,,,,,,,,,,,,,,378.1809999999823,,response,,,,100,,,,,,,Space,keypress(Space),,,,,,,,-- --- ---- --- ------ ----- ------- ---- -- --- ------- --<br>------- ---------- ------ -- ----- -- ----- -- ---- ------<br>--- ----- --- --- ------ -------- ----- --- ------ ----- of<br>----- ----- ---------- --- --- ------ ------ ---- -- ------<br>------- --- ------ ----- --- ---- ------- -- ---- --- --<br>------- ------,274485.1000000015,274483,274088.145,274093.30000000075,274104.819,274488.321,,32,of
screen,html.Screen,2_1_1_1_33,2022-02-15T15:59:18.843Z,,,,,,,,,,,,,,,,,54,,,,,,,,,,,,,,402.6790000000037,,response,,,,100,,,,,,,Space,keypress(Space),,,,,,,,-- --- ---- --- ------ ----- ------- ---- -- --- ------- --<br>------- ---------- ------ -- ----- -- ----- -- ---- ------<br>--- ----- --- --- ------ -------- ----- --- ------ ----- --<br>these ----- ---------- --- --- ------ ------ ---- -- ------<br>------- --- ------ ----- --- ---- ------- -- ---- --- --<br>------- ------,274893,274891,274471.647,274485.200000003,274488.321,274905.171,,33,these
screen,html.Screen,2_1_1_1_34,2022-02-15T15:59:19.235Z,,,,,,,,,,,,,,,,,54,,,,,,,,,,,,,,377.829000000027,,response,,,,100,,,,,,,Space,keypress(Space),,,,,,,,-- --- ---- --- ------ ----- ------- ---- -- --- ------- --<br>------- ---------- ------ -- ----- -- ----- -- ---- ------<br>--- ----- --- --- ------ -------- ----- --- ------ ----- --<br>----- bonds ---------- --- --- ------ ------ ---- -- ------<br>------- --- ------ ----- --- ---- ------- -- ---- --- --<br>------- ------,275285,275283,274888.497,274893.200000003,274905.171,275288.673,,34,bonds
screen,html.Screen,2_1_1_1_35,2022-02-15T15:59:19.747Z,,,,,,,,,,,,,,,,,54,,,,,,,,,,,,,,506.3269999999902,,response,,,,100,,,,,,,Space,keypress(Space),,,,,,,,"-- --- ---- --- ------ ----- ------- ---- -- --- ------- --<br>------- ---------- ------ -- ----- -- ----- -- ---- ------<br>--- ----- --- --- ------ -------- ----- --- ------ ----- --<br>----- ----- plummeted, --- --- ------ ------ ---- -- ------<br>------- --- ------ ----- --- ---- ------- -- ---- --- --<br>------- ------",275797,275795,275271.999,275285.1000000015,275288.673,275805.567,,35,"plummeted,"
screen,html.Screen,2_1_1_1_36,2022-02-15T15:59:20.156Z,,,,,,,,,,,,,,,,,54,,,,,,,,,,,,,,397.4330000000191,,response,,,,100,,,,,,,Space,keypress(Space),,,,,,,,-- --- ---- --- ------ ----- ------- ---- -- --- ------- --<br>------- ---------- ------ -- ----- -- ----- -- ---- ------<br>--- ----- --- --- ------ -------- ----- --- ------ ----- --<br>----- ----- ---------- and --- ------ ------ ---- -- ------<br>------- --- ------ ----- --- ---- ------- -- ---- --- --<br>------- ------,276205.200000003,276203,275788.893,275797.200000003,275805.567,276222.417,,36,and
screen,html.Screen,2_1_1_1_37,2022-02-15T15:59:20.555Z,,,,,,,,,,,,,,,,,54,,,,,,,,,,,,,,380.58299999998417,,response,,,,100,,,,,,,Space,keypress(Space),,,,,,,,-- --- ---- --- ------ ----- ------- ---- -- --- ------- --<br>------- ---------- ------ -- ----- -- ----- -- ---- ------<br>--- ----- --- --- ------ -------- ----- --- ------ ----- --<br>----- ----- ---------- --- the ------ ------ ---- -- ------<br>------- --- ------ ----- --- ---- ------- -- ---- --- --<br>------- ------,276605.1000000015,276603,276205.743,276205.40000000224,276222.417,276622.593,,37,the
screen,html.Screen,2_1_1_1_38,2022-02-15T15:59:20.956Z,,,,,,,,,,,,,,,,,54,,,,,,,,,,,,,,380.4070000000065,,response,,,,100,,,,,,,Space,keypress(Space),,,,,,,,-- --- ---- --- ------ ----- ------- ---- -- --- ------- --<br>------- ---------- ------ -- ----- -- ----- -- ---- ------<br>--- ----- --- --- ------ -------- ----- --- ------ ----- --<br>----- ----- ---------- --- --- market ------ ---- -- ------<br>------- --- ------ ----- --- ---- ------- -- ---- --- --<br>------- ------,277005.1000000015,277003,276605.919,276605.1000000015,276622.593,277006.095,,38,market
screen,html.Screen,2_1_1_1_39,2022-02-15T15:59:21.355Z,,,,,,,,,,,,,,,,,54,,,,,,,,,,,,,,396.90500000002794,,response,,,,100,,,,,,,Space,keypress(Space),,,,,,,,-- --- ---- --- ------ ----- ------- ---- -- --- ------- --<br>------- ---------- ------ -- ----- -- ----- -- ---- ------<br>--- ----- --- --- ------ -------- ----- --- ------ ----- --<br>----- ----- ---------- --- --- ------ became ---- -- ------<br>------- --- ------ ----- --- ---- ------- -- ---- --- --<br>------- ------,277405,277403,276989.421,277005.30000000075,277006.095,277406.271,,39,became
screen,html.Screen,2_1_1_1_40,2022-02-15T15:59:21.811Z,,,,,,,,,,,,,,,,,54,,,,,,,,,,,,,,452.7289999999921,,response,,,,100,,,,,,,Space,keypress(Space),,,,,,,,-- --- ---- --- ------ ----- ------- ---- -- --- ------- --<br>------- ---------- ------ -- ----- -- ----- -- ---- ------<br>--- ----- --- --- ------ -------- ----- --- ------ ----- --<br>----- ----- ---------- --- --- ------ ------ wary -- ------<br>------- --- ------ ----- --- ---- ------- -- ---- --- --<br>------- ------,277861,277859,277389.597,277405.200000003,277406.271,277873.143,,40,wary
screen,html.Screen,2_1_1_1_41,2022-02-15T15:59:22.188Z,,,,,,,,,,,,,,,,,54,,,,,,,,,,,,,,361.9570000015083,,response,,,,100,,,,,,,Space,keypress(Space),,,,,,,,-- --- ---- --- ------ ----- ------- ---- -- --- ------- --<br>------- ---------- ------ -- ----- -- ----- -- ---- ------<br>--- ----- --- --- ------ -------- ----- --- ------ ----- --<br>----- ----- ---------- --- --- ------ ------ ---- of ------<br>------- --- ------ ----- --- ---- ------- -- ---- --- --<br>------- ------,278237.200000003,278235.1000000015,277856.469,277861.1000000015,277873.143,278239.971,,41,of
screen,html.Screen,2_1_1_1_42,2022-02-15T15:59:22.644Z,,,,,,,,,,,,,,,,,54,,,,,,,,,,,,,,451.02899999998044,,response,,,,100,,,,,,,Space,keypress(Space),,,,,,,,-- --- ---- --- ------ ----- ------- ---- -- --- ------- --<br>------- ---------- ------ -- ----- -- ----- -- ---- ------<br>--- ----- --- --- ------ -------- ----- --- ------ ----- --<br>----- ----- ---------- --- --- ------ ------ ---- -- French<br>------- --- ------ ----- --- ---- ------- -- ---- --- --<br>------- ------,278693.1000000015,278691,278223.297,278237.30000000075,278239.971,278706.843,,42,French
screen,html.Screen,2_1_1_1_43,2022-02-15T15:59:23.059Z,,,,,,,,,,,,,,,,,54,,,,,,,,,,,,,,400.0570000022417,,response,,,,100,,,,,,,Space,keypress(Space),,,,,,,,-- --- ---- --- ------ ----- ------- ---- -- --- ------- --<br>------- ---------- ------ -- ----- -- ----- -- ---- ------<br>--- ----- --- --- ------ -------- ----- --- ------ ----- --<br>----- ----- ---------- --- --- ------ ------ ---- -- ------<br>credit. --- ------ ----- --- ---- ------- -- ---- --- --<br>------- ------,279108.90000000224,279106.90000000224,278690.169,278694.200000003,278706.843,279123.693,,43,credit.
screen,html.Screen,2_1_1_1_44,2022-02-15T15:59:23.636Z,,,,,,,,,,,,,,,,,54,,,,,,,,,,,,,,559.3069999999716,,response,,,,100,,,,,,,Space,keypress(Space),,,,,,,,-- --- ---- --- ------ ----- ------- ---- -- --- ------- --<br>------- ---------- ------ -- ----- -- ----- -- ---- ------<br>--- ----- --- --- ------ -------- ----- --- ------ ----- --<br>----- ----- ---------- --- --- ------ ------ ---- -- ------<br>------- The ------ ----- --- ---- ------- -- ---- --- --<br>------- ------,279685,279683,279107.019,279109,279123.693,279690.609,,44,The
screen,html.Screen,2_1_1_1_45,2022-02-15T15:59:24.100Z,,,,,,,,,,,,,,,,,54,,,,,,,,,,,,,,456.39100000000326,,response,,,,100,,,,,,,Space,keypress(Space),,,,,,,,-- --- ---- --- ------ ----- ------- ---- -- --- ------- --<br>------- ---------- ------ -- ----- -- ----- -- ---- ------<br>--- ----- --- --- ------ -------- ----- --- ------ ----- --<br>----- ----- ---------- --- --- ------ ------ ---- -- ------<br>------- --- French ----- --- ---- ------- -- ---- --- --<br>------- ------,280149.5,280147,279673.935,279685.1000000015,279690.609,280157.481,,45,French
screen,html.Screen,2_1_1_1_46,2022-02-15T15:59:24.492Z,,,,,,,,,,,,,,,,,54,,,,,,,,,,,,,,381.61900000146125,,response,,,,100,,,,,,,Space,keypress(Space),,,,,,,,-- --- ---- --- ------ ----- ------- ---- -- --- ------- --<br>------- ---------- ------ -- ----- -- ----- -- ---- ------<br>--- ----- --- --- ------ -------- ----- --- ------ ----- --<br>----- ----- ---------- --- --- ------ ------ ---- -- ------<br>------- --- ------ state --- ---- ------- -- ---- --- --<br>------- ------,280541.200000003,280539.1000000015,280140.807,280149.6000000015,280157.481,280557.657,,46,state
screen,html.Screen,2_1_1_1_47,2022-02-15T15:59:24.876Z,,,,,,,,,,,,,,,,,54,,,,,,,,,,,,,,365.4430000014836,,response,,,,100,,,,,,,Space,keypress(Space),,,,,,,,-- --- ---- --- ------ ----- ------- ---- -- --- ------- --<br>------- ---------- ------ -- ----- -- ----- -- ---- ------<br>--- ----- --- --- ------ -------- ----- --- ------ ----- --<br>----- ----- ---------- --- --- ------ ------ ---- -- ------<br>------- --- ------ ----- was ---- ------- -- ---- --- --<br>------- ------,280925.200000003,280923.1000000015,280540.983,280541.30000000075,280557.657,280941.159,,47,was
screen,html.Screen,2_1_1_1_48,2022-02-15T15:59:25.268Z,,,,,,,,,,,,,,,,,54,,,,,,,,,,,,,,373.8410000000149,,response,,,,100,,,,,,,Space,keypress(Space),,,,,,,,-- --- ---- --- ------ ----- ------- ---- -- --- ------- --<br>------- ---------- ------ -- ----- -- ----- -- ---- ------<br>--- ----- --- --- ------ -------- ----- --- ------ ----- --<br>----- ----- ---------- --- --- ------ ------ ---- -- ------<br>------- --- ------ ----- --- left ------- -- ---- --- --<br>------- ------,281316.90000000224,281315,280924.485,280925.30000000075,280941.159,281324.661,,48,left
screen,html.Screen,2_1_1_1_49,2022-02-15T15:59:25.668Z,,,,,,,,,,,,,,,,,54,,,,,,,,,,,,,,390.3389999999781,,response,,,,100,,,,,,,Space,keypress(Space),,,,,,,,-- --- ---- --- ------ ----- ------- ---- -- --- ------- --<br>------- ---------- ------ -- ----- -- ----- -- ---- ------<br>--- ----- --- --- ------ -------- ----- --- ------ ----- --<br>----- ----- ---------- --- --- ------ ------ ---- -- ------<br>------- --- ------ ----- --- ---- without -- ---- --- --<br>------- ------,281717,281715,281307.987,281317.1000000015,281324.661,281724.837,,49,without
screen,html.Screen,2_1_1_1_50,2022-02-15T15:59:26.036Z,,,,,,,,,,,,,,,,,54,,,,,,,,,,,,,,358.06300000223564,,response,,,,100,,,,,,,Space,keypress(Space),,,,,,,,-- --- ---- --- ------ ----- ------- ---- -- --- ------- --<br>------- ---------- ------ -- ----- -- ----- -- ---- ------<br>--- ----- --- --- ------ -------- ----- --- ------ ----- --<br>----- ----- ---------- --- --- ------ ------ ---- -- ------<br>------- --- ------ ----- --- ---- ------- an ---- --- --<br>------- ------,282085.1000000015,282082.90000000224,281708.163,281717.200000003,281724.837,282091.665,,50,an
screen,html.Screen,2_1_1_1_51,2022-02-15T15:59:26.468Z,,,,,,,,,,,,,,,,,54,,,,,,,,,,,,,,423.33500000002095,,response,,,,100,,,,,,,Space,keypress(Space),,,,,,,,-- --- ---- --- ------ ----- ------- ---- -- --- ------- --<br>------- ---------- ------ -- ----- -- ----- -- ---- ------<br>--- ----- --- --- ------ -------- ----- --- ------ ----- --<br>----- ----- ---------- --- --- ------ ------ ---- -- ------<br>------- --- ------ ----- --- ---- ------- -- easy --- --<br>------- ------,282517,282515,282074.991,282085.200000003,282091.665,282525.189,,51,easy
screen,html.Screen,2_1_1_1_52,2022-02-15T15:59:26.876Z,,,,,,,,,,,,,,,,,54,,,,,,,,,,,,,,397.81099999998696,,response,,,,100,,,,,,,Space,keypress(Space),,,,,,,,-- --- ---- --- ------ ----- ------- ---- -- --- ------- --<br>------- ---------- ------ -- ----- -- ----- -- ---- ------<br>--- ----- --- --- ------ -------- ----- --- ------ ----- --<br>----- ----- ---------- --- --- ------ ------ ---- -- ------<br>------- --- ------ ----- --- ---- ------- -- ---- way --<br>------- ------,282925.1000000015,282923,282508.515,282517.1000000015,282525.189,282942.039,,52,way
screen,html.Screen,2_1_1_1_53,2022-02-15T15:59:27.236Z,,,,,,,,,,,,,,,,,54,,,,,,,,,,,,,,340.96100000001024,,response,,,,100,,,,,,,Space,keypress(Space),,,,,,,,-- --- ---- --- ------ ----- ------- ---- -- --- ------- --<br>------- ---------- ------ -- ----- -- ----- -- ---- ------<br>--- ----- --- --- ------ -------- ----- --- ------ ----- --<br>----- ----- ---------- --- --- ------ ------ ---- -- ------<br>------- --- ------ ----- --- ---- ------- -- ---- --- of<br>------- ------,283285.1000000015,283283,282925.365,282925.30000000075,282942.039,283292.193,,53,of
screen,html.Screen,2_1_1_1_54,2022-02-15T15:59:27.652Z,,,,,,,,,,,,,,,,,54,,,,,,,,,,,,,,406.8069999999716,,response,,,,100,,,,,,,Space,keypress(Space),,,,,,,,-- --- ---- --- ------ ----- ------- ---- -- --- ------- --<br>------- ---------- ------ -- ----- -- ----- -- ---- ------<br>--- ----- --- --- ------ -------- ----- --- ------ ----- --<br>----- ----- ---------- --- --- ------ ------ ---- -- ------<br>------- --- ------ ----- --- ---- ------- -- ---- --- --<br>raising ------,283701,283699,283275.519,283285.30000000075,283292.193,283709.043,,54,raising
screen,html.Screen,2_1_1_1_55,2022-02-15T15:59:28.204Z,,,,,,,,,,,,,,,,,54,,,,,,,,,,,,,,541.9569999999949,,response,,,,100,,,,,,,Space,keypress(Space),,,,,,,,-- --- ---- --- ------ ----- ------- ---- -- --- ------- --<br>------- ---------- ------ -- ----- -- ----- -- ---- ------<br>--- ----- --- --- ------ -------- ----- --- ------ ----- --<br>----- ----- ---------- --- --- ------ ------ ---- -- ------<br>------- --- ------ ----- --- ---- ------- -- ---- --- --<br>------- money.,284252.90000000224,284251,283692.369,283701.1000000015,283709.043,284259.285,,55,money.
Item 100,flow.Loop,2_1_1_1,2022-02-15T15:59:28.204Z,,,,,,,,,,,,,,,,,,,,,,,,,,,,,,,25719.696999999986,,completion,,,,,A,,,,,,,,,,,silence,,,,,284253.200000003,284251,258514.629,258515.80000000075,258531.303,284259.285,,,
Question 1,html.Screen,2_1_1_2,2022-02-15T15:59:31.245Z,,,,,,,,,,,,,,,,,,,,,,,,,,,,true,TRUE,,3032.5150000007707,,response,,,,100,A,,,,,,TRUE,click #choice-1,,,,silence,,,,,287293.90000000224,287291.80000000075,284242.611,284253.30000000075,284259.285,287310.627,,,
Question 2,html.Screen,2_1_1_3,2022-02-15T15:59:33.177Z,,,,,,,,,,,,,,,,,,,,,,,,,,,,true,FALSE,,1913.4730000015115,,response,,,,100,A,,,,,,FALSE,click #choice-2,,,,silence,,,,,289226.1000000015,289224.1000000015,287293.953,287294,287310.627,289244.811,,,
Item 100,flow.Sequence,2_1_1,2022-02-15T15:59:33.177Z,,,,,,,,,,,,,,,,,,,,,,,,,,,,,,,40697.1970000015,,completion,,,,,,,,,,,,,,,,,,,,,289226.30000000075,289224.1000000015,248510.229,248504.40000000224,248526.903,289244.811,,,
End of Practice,html.Page,2_1_2,2022-02-15T15:59:35.393Z,,,,,,,,,,,,,,,,,,,,,,,,,,,,,,,2197.3890000029933,,form submission,,,,,,,,,,,,,,,,,,,,,291442.5,291442.200000003,289228.137,289226.40000000224,289244.811,291462.453,,,
Practice,flow.Sequence,2_1,2022-02-15T15:59:35.394Z,,,,,,,,,,,,,,,,,,,,,,,,,,,,,,,104208.92100000297,,completion,,,,,,,,,,,,,,,,,,,,,291442.700000003,291442.200000003,187216.605,187213.30000000075,187233.279,291462.453,,,
Trap_instruction,html.Page,2_2_0,2022-02-15T15:59:39.264Z,,,,,,,,,,,,,,,,,,,,,,,,,,,,,,,3850.5470000000205,,form submission,,,,,,,,,,,,,,,,,,,,,295313.200000003,295313,291445.779,291442.90000000224,291462.453,295330.821,,,
trap_trial,html.Screen,2_2_1,2022-02-15T15:59:42.556Z,,,,,,,,,,,,,,,,,,,,,,,,,,,,true,1,,3272.579000002239,,response,,,,,,,,,,,1,click #choice-1,,,,,,,,,298605,298603.40000000224,295314.147,295313.30000000075,295330.821,298632.273,,,
end of trap trial,html.Page,2_2_2,2022-02-15T15:59:44.221Z,,,,,,,,,,,,,,,,,,,,,,,,,,,,,,,1637.3270000015036,,form submission,,,,,,,,,,,,,,,,,,,,,300269.90000000224,300269.6000000015,298615.599,298605.30000000075,298632.273,300282.999,,,
Trap 1,flow.Sequence,2_2,2022-02-15T15:59:44.221Z,,,,,,,,,,,,,,,,,,,,,,,,,,,,,,,8807.14700000151,,completion,,,,,,,,,,,,,,,,,,,,,300270,300269.6000000015,291445.779,291442.80000000075,291462.453,300282.999,,,
Standby,html.Page,2_3_0,2022-02-15T15:59:52.223Z,,,,,,,,,,,,,,,,,,,,,,,,,,,,,,,8003.51999999996,,timeout,,,,,,,,,,,,,,,,,,,,,308271.6000000015,308269.845,300266.325,300270.1000000015,300282.999,308286.519,,,
Holding screen,html.Screen,2_3_1_0_0,2022-02-15T15:59:59.226Z,,,,,,,,,,,,,,,,,,,,,,,,,,,,,,,7003.080000000016,,timeout,,,,,,,,,,,,,,,,,,,,,315275,315272.925,308269.845,308271.700000003,308286.519,315289.599,,,
screen,html.Screen,2_3_1_0_1_0,2022-02-15T16:00:00.271Z,,,,,,,,,,,,,,,,,15,,,,,,,,,,,,,,1026.7010000007576,,response,,,,7,A,,,,,,Space,keypress(Space),,,,silence,,,,Greg --------- ---------- - --- ------- -- --- ------------<br>----- -- -------- ------- ---- ------ - -------- ---- -----<br>--- ------- ---- -- --- -------- --- - ----- ------ ---- --<br>-------- --- -------- -------- --- -------- ---- -- ----- -<br>-------- ---- --- ---------- --------- -- ------- ------ -<br>--------- ----- -----,316319.200000003,316316.30000000075,315272.925,315275.1000000015,315289.599,316323.387,,0,Greg
screen,html.Screen,2_3_1_0_1_1,2022-02-15T16:00:01.686Z,,,,,,,,,,,,,,,,,15,,,,,,,,,,,,,,1408.9130000007572,,response,,,,7,A,,,,,,Space,keypress(Space),,,,silence,,,,"---- Anderson, ---------- - --- ------- -- --- ------------<br>----- -- -------- ------- ---- ------ - -------- ---- -----<br>--- ------- ---- -- --- -------- --- - ----- ------ ---- --<br>-------- --- -------- -------- --- -------- ---- -- ----- -<br>-------- ---- --- ---------- --------- -- ------- ------ -<br>--------- ----- -----",317734.6000000015,317732.30000000075,316306.713,316319.200000003,316323.387,317740.677,,1,"Anderson,"
screen,html.Screen,2_3_1_0_1_2,2022-02-15T16:00:02.150Z,,,,,,,,,,,,,,,,,15,,,,,,,,,,,,,,455.6230000007199,,response,,,,7,A,,,,,,Space,keypress(Space),,,,silence,,,,---- --------- considered - --- ------- -- --- ------------<br>----- -- -------- ------- ---- ------ - -------- ---- -----<br>--- ------- ---- -- --- -------- --- - ----- ------ ---- --<br>-------- --- -------- -------- --- -------- ---- -- ----- -<br>-------- ---- --- ---------- --------- -- ------- ------ -<br>--------- ----- -----,318198.5,318196.30000000075,317724.003,317734.700000003,317740.677,318207.549,,2,considered
screen,html.Screen,2_3_1_0_1_3,2022-02-15T16:00:02.598Z,,,,,,,,,,,,,,,,,15,,,,,,,,,,,,,,436.8510000022361,,response,,,,7,A,,,,,,Space,keypress(Space),,,,silence,,,,---- --------- ---------- a --- ------- -- --- ------------<br>----- -- -------- ------- ---- ------ - -------- ---- -----<br>--- ------- ---- -- --- -------- --- - ----- ------ ---- --<br>-------- --- -------- -------- --- -------- ---- -- ----- -<br>-------- ---- --- ---------- --------- -- ------- ------ -<br>--------- ----- -----,318646.40000000224,318644.40000000224,318190.875,318198.700000003,318207.549,318657.747,,3,a
screen,html.Screen,2_3_1_0_1_4,2022-02-15T16:00:02.998Z,,,,,,,,,,,,,,,,,15,,,,,,,,,,,,,,386.55300000077114,,response,,,,7,A,,,,,,Space,keypress(Space),,,,silence,,,,---- --------- ---------- - key ------- -- --- ------------<br>----- -- -------- ------- ---- ------ - -------- ---- -----<br>--- ------- ---- -- --- -------- --- - ----- ------ ---- --<br>-------- --- -------- -------- --- -------- ---- -- ----- -<br>-------- ---- --- ---------- --------- -- ------- ------ -<br>--------- ----- -----,319046.5,319044.30000000075,318641.073,318646.6000000015,318657.747,319057.923,,4,key
screen,html.Screen,2_3_1_0_1_5,2022-02-15T16:00:03.414Z,,,,,,,,,,,,,,,,,15,,,,,,,,,,,,,,402.4770000022254,,response,,,,7,A,,,,,,Space,keypress(Space),,,,silence,,,,---- --------- ---------- - --- witness -- --- ------------<br>----- -- -------- ------- ---- ------ - -------- ---- -----<br>--- ------- ---- -- --- -------- --- - ----- ------ ---- --<br>-------- --- -------- -------- --- -------- ---- -- ----- -<br>-------- ---- --- ---------- --------- -- ------- ------ -<br>--------- ----- -----,319462.40000000224,319460.40000000224,319041.249,319046.6000000015,319057.923,319474.773,,5,witness
screen,html.Screen,2_3_1_0_1_6,2022-02-15T16:00:03.774Z,,,,,,,,,,,,,,,,,15,,,,,,,,,,,,,,345.52700000075856,,response,,,,7,A,,,,,,Space,keypress(Space),,,,silence,,,,---- --------- ---------- - --- ------- by --- ------------<br>----- -- -------- ------- ---- ------ - -------- ---- -----<br>--- ------- ---- -- --- -------- --- - ----- ------ ---- --<br>-------- --- -------- -------- --- -------- ---- -- ----- -<br>-------- ---- --- ---------- --------- -- ------- ------ -<br>--------- ----- -----,319822.30000000075,319820.30000000075,319458.099,319462.40000000224,319474.773,319824.927,,6,by
screen,html.Screen,2_3_1_0_1_7,2022-02-15T16:00:04.142Z,,,,,,,,,,,,,,,,,15,,,,,,,,,,,,,,363.47300000221003,,response,,,,7,A,,,,,,Space,keypress(Space),,,,silence,,,,---- --------- ---------- - --- ------- -- the ------------<br>----- -- -------- ------- ---- ------ - -------- ---- -----<br>--- ------- ---- -- --- -------- --- - ----- ------ ---- --<br>-------- --- -------- -------- --- -------- ---- -- ----- -<br>-------- ---- --- ---------- --------- -- ------- ------ -<br>--------- ----- -----,320190.6000000015,320188.40000000224,319808.253,319822.40000000224,319824.927,320191.755,,7,the
screen,html.Screen,2_3_1_0_1_8,2022-02-15T16:00:05.894Z,,,,,,,,,,,,,,,,,15,,,,,,,,,,,,,,1748.5450000007404,,response,,,,7,A,,,,,,Space,keypress(Space),,,,silence,,,,"---- --------- ---------- - --- ------- -- --- prosecution,<br>----- -- -------- ------- ---- ------ - -------- ---- -----<br>--- ------- ---- -- --- -------- --- - ----- ------ ---- --<br>-------- --- -------- -------- --- -------- ---- -- ----- -<br>-------- ---- --- ---------- --------- -- ------- ------ -<br>--------- ----- -----",321942.6000000015,321940.30000000075,320175.081,320190.700000003,320191.755,321959.199,,8,"prosecution,"
screen,html.Screen,2_3_1_0_1_9,2022-02-15T16:00:06.438Z,,,,,,,,,,,,,,,,,15,,,,,,,,,,,,,,525.1010000007227,,response,,,,7,A,,,,,,Space,keypress(Space),,,,silence,,,,---- --------- ---------- - --- ------- -- --- ------------<br>vowed -- -------- ------- ---- ------ - -------- ---- -----<br>--- ------- ---- -- --- -------- --- - ----- ------ ---- --<br>-------- --- -------- -------- --- -------- ---- -- ----- -<br>-------- ---- --- ---------- --------- -- ------- ------ -<br>--------- ----- -----,322486.30000000075,322484.30000000075,321942.525,321942.700000003,321959.199,322492.767,,9,vowed
screen,html.Screen,2_3_1_0_1_10,2022-02-15T16:00:06.918Z,,,,,,,,,,,,,,,,,15,,,,,,,,,,,,,,471.5330000007525,,response,,,,7,A,,,,,,Space,keypress(Space),,,,silence,,,,---- --------- ---------- - --- ------- -- --- ------------<br>----- he -------- ------- ---- ------ - -------- ---- -----<br>--- ------- ---- -- --- -------- --- - ----- ------ ---- --<br>-------- --- -------- -------- --- -------- ---- -- ----- -<br>-------- ---- --- ---------- --------- -- ------- ------ -<br>--------- ----- -----,322966.200000003,322964.30000000075,322476.093,322486.40000000224,322492.767,322976.313,,10,he
screen,html.Screen,2_3_1_0_1_11,2022-02-15T16:00:07.302Z,,,,,,,,,,,,,,,,,15,,,,,,,,,,,,,,372.0870000022114,,response,,,,7,A,,,,,,Space,keypress(Space),,,,silence,,,,---- --------- ---------- - --- ------- -- --- ------------<br>----- -- wouldn't ------- ---- ------ - -------- ---- -----<br>--- ------- ---- -- --- -------- --- - ----- ------ ---- --<br>-------- --- -------- -------- --- -------- ---- -- ----- -<br>-------- ---- --- ---------- --------- -- ------- ------ -<br>--------- ----- -----,323350.40000000224,323348.40000000224,322959.639,322966.40000000224,322976.313,323359.815,,11,wouldn't
screen,html.Screen,2_3_1_0_1_12,2022-02-15T16:00:07.734Z,,,,,,,,,,,,,,,,,15,,,,,,,,,,,,,,420.48500000074273,,response,,,,7,A,,,,,,Space,keypress(Space),,,,silence,,,,---- --------- ---------- - --- ------- -- --- ------------<br>----- -- -------- testify ---- ------ - -------- ---- -----<br>--- ------- ---- -- --- -------- --- - ----- ------ ---- --<br>-------- --- -------- -------- --- -------- ---- -- ----- -<br>-------- ---- --- ---------- --------- -- ------- ------ -<br>--------- ----- -----,323782.40000000224,323780.30000000075,323343.141,323350.5,323359.815,323793.339,,12,testify
screen,html.Screen,2_3_1_0_1_13,2022-02-15T16:00:08.254Z,,,,,,,,,,,,,,,,,15,,,,,,,,,,,,,,506.96100000076694,,response,,,,7,A,,,,,,Space,keypress(Space),,,,silence,,,,---- --------- ---------- - --- ------- -- --- ------------<br>----- -- -------- ------- when ------ - -------- ---- -----<br>--- ------- ---- -- --- -------- --- - ----- ------ ---- --<br>-------- --- -------- -------- --- -------- ---- -- ----- -<br>-------- ---- --- ---------- --------- -- ------- ------ -<br>--------- ----- -----,324302.30000000075,324300.30000000075,323776.665,323782.40000000224,323793.339,324310.233,,13,when
screen,html.Screen,2_3_1_0_1_14,2022-02-15T16:00:08.630Z,,,,,,,,,,,,,,,,,15,,,,,,,,,,,,,,366.0670000007376,,response,,,,7,A,,,,,,Space,keypress(Space),,,,silence,,,,---- --------- ---------- - --- ------- -- --- ------------<br>----- -- -------- ------- ---- served - -------- ---- -----<br>--- ------- ---- -- --- -------- --- - ----- ------ ---- --<br>-------- --- -------- -------- --- -------- ---- -- ----- -<br>-------- ---- --- ---------- --------- -- ------- ------ -<br>--------- ----- -----,324678.30000000075,324676.30000000075,324293.559,324302.40000000224,324310.233,324693.735,,14,served
screen,html.Screen,2_3_1_0_1_15,2022-02-15T16:00:08.982Z,,,,,,,,,,,,,,,,,15,,,,,,,,,,,,,,334.66500000224914,,response,,,,7,A,,,,,,Space,keypress(Space),,,,silence,,,,---- --------- ---------- - --- ------- -- --- ------------<br>----- -- -------- ------- ---- ------ a -------- ---- -----<br>--- ------- ---- -- --- -------- --- - ----- ------ ---- --<br>-------- --- -------- -------- --- -------- ---- -- ----- -<br>-------- ---- --- ---------- --------- -- ------- ------ -<br>--------- ----- -----,325030.40000000224,325028.40000000224,324677.061,324678.40000000224,324693.735,325043.889,,15,a
screen,html.Screen,2_3_1_0_1_16,2022-02-15T16:00:09.414Z,,,,,,,,,,,,,,,,,15,,,,,,,,,,,,,,416.4110000007204,,response,,,,7,A,,,,,,Space,keypress(Space),,,,silence,,,,---- --------- ---------- - --- ------- -- --- ------------<br>----- -- -------- ------- ---- ------ - subpoena ---- -----<br>--- ------- ---- -- --- -------- --- - ----- ------ ---- --<br>-------- --- -------- -------- --- -------- ---- -- ----- -<br>-------- ---- --- ---------- --------- -- ------- ------ -<br>--------- ----- -----,325462.30000000075,325460.30000000075,325027.215,325030.6000000015,325043.889,325477.413,,16,subpoena
screen,html.Screen,2_3_1_0_1_17,2022-02-15T16:00:10.222Z,,,,,,,,,,,,,,,,,15,,,,,,,,,,,,,,790.9870000022347,,response,,,,7,A,,,,,,Space,keypress(Space),,,,silence,,,,---- --------- ---------- - --- ------- -- --- ------------<br>----- -- -------- ------- ---- ------ - -------- last -----<br>--- ------- ---- -- --- -------- --- - ----- ------ ---- --<br>-------- --- -------- -------- --- -------- ---- -- ----- -<br>-------- ---- --- ---------- --------- -- ------- ------ -<br>--------- ----- -----,326270.30000000075,326268.40000000224,325460.739,325462.40000000224,325477.413,326277.765,,17,last
screen,html.Screen,2_3_1_0_1_18,2022-02-15T16:00:10.703Z,,,,,,,,,,,,,,,,,15,,,,,,,,,,,,,,470.5350000007311,,response,,,,7,A,,,,,,Space,keypress(Space),,,,silence,,,,---- --------- ---------- - --- ------- -- --- ------------<br>----- -- -------- ------- ---- ------ - -------- ---- week.<br>--- ------- ---- -- --- -------- --- - ----- ------ ---- --<br>-------- --- -------- -------- --- -------- ---- -- ----- -<br>-------- ---- --- ---------- --------- -- ------- ------ -<br>--------- ----- -----,326751.1000000015,326748.30000000075,326261.091,326270.5,326277.765,326761.311,,18,week.
screen,html.Screen,2_3_1_0_1_19,2022-02-15T16:00:11.438Z,,,,,,,,,,,,,,,,,15,,,,,,,,,,,,,,723.0890000022482,,response,,,,7,A,,,,,,Space,keypress(Space),,,,silence,,,,---- --------- ---------- - --- ------- -- --- ------------<br>----- -- -------- ------- ---- ------ - -------- ---- -----<br>His ------- ---- -- --- -------- --- - ----- ------ ---- --<br>-------- --- -------- -------- --- -------- ---- -- ----- -<br>-------- ---- --- ---------- --------- -- ------- ------ -<br>--------- ----- -----,327486.40000000224,327484.40000000224,326744.637,326751.5,326761.311,327494.967,,19,His
screen,html.Screen,2_3_1_0_1_20,2022-02-15T16:00:12.414Z,,,,,,,,,,,,,,,,,15,,,,,,,,,,,,,,965.433000002231,,response,,,,7,A,,,,,,Space,keypress(Space),,,,silence,,,,---- --------- ---------- - --- ------- -- --- ------------<br>----- -- -------- ------- ---- ------ - -------- ---- -----<br>--- lawyers ---- -- --- -------- --- - ----- ------ ---- --<br>-------- --- -------- -------- --- -------- ---- -- ----- -<br>-------- ---- --- ---------- --------- -- ------- ------ -<br>--------- ----- -----,328462.5,328460.40000000224,327478.293,327487.5,327494.967,328478.733,,20,lawyers
screen,html.Screen,2_3_1_0_1_21,2022-02-15T16:00:12.814Z,,,,,,,,,,,,,,,,,15,,,,,,,,,,,,,,381.5670000007376,,response,,,,7,A,,,,,,Space,keypress(Space),,,,silence,,,,---- --------- ---------- - --- ------- -- --- ------------<br>----- -- -------- ------- ---- ------ - -------- ---- -----<br>--- ------- said -- --- -------- --- - ----- ------ ---- --<br>-------- --- -------- -------- --- -------- ---- -- ----- -<br>-------- ---- --- ---------- --------- -- ------- ------ -<br>--------- ----- -----,328862.5,328860.30000000075,328462.059,328462.6000000015,328478.733,328878.909,,21,said
screen,html.Screen,2_3_1_0_1_22,2022-02-15T16:00:13.182Z,,,,,,,,,,,,,,,,,15,,,,,,,,,,,,,,349.4910000022501,,response,,,,7,A,,,,,,Space,keypress(Space),,,,silence,,,,---- --------- ---------- - --- ------- -- --- ------------<br>----- -- -------- ------- ---- ------ - -------- ---- -----<br>--- ------- ---- he --- -------- --- - ----- ------ ---- --<br>-------- --- -------- -------- --- -------- ---- -- ----- -<br>-------- ---- --- ---------- --------- -- ------- ------ -<br>--------- ----- -----,329230.40000000224,329228.40000000224,328862.235,328862.6000000015,328878.909,329245.737,,22,he
screen,html.Screen,2_3_1_0_1_23,2022-02-15T16:00:13.502Z,,,,,,,,,,,,,,,,,15,,,,,,,,,,,,,,302.56300000072224,,response,,,,7,A,,,,,,Space,keypress(Space),,,,silence,,,,---- --------- ---------- - --- ------- -- --- ------------<br>----- -- -------- ------- ---- ------ - -------- ---- -----<br>--- ------- ---- -- was -------- --- - ----- ------ ---- --<br>-------- --- -------- -------- --- -------- ---- -- ----- -<br>-------- ---- --- ---------- --------- -- ------- ------ -<br>--------- ----- -----,329550.40000000224,329548.30000000075,329229.063,329230.40000000224,329245.737,329562.543,,23,was
screen,html.Screen,2_3_1_0_1_24,2022-02-15T16:00:13.942Z,,,,,,,,,,,,,,,,,15,,,,,,,,,,,,,,425.75700000073994,,response,,,,7,A,,,,,,Space,keypress(Space),,,,silence,,,,---- --------- ---------- - --- ------- -- --- ------------<br>----- -- -------- ------- ---- ------ - -------- ---- -----<br>--- ------- ---- -- --- prepared --- - ----- ------ ---- --<br>-------- --- -------- -------- --- -------- ---- -- ----- -<br>-------- ---- --- ---------- --------- -- ------- ------ -<br>--------- ----- -----,329990.40000000224,329988.30000000075,329545.869,329550.5,329562.543,329996.067,,24,prepared
screen,html.Screen,2_3_1_0_1_25,2022-02-15T16:00:14.342Z,,,,,,,,,,,,,,,,,15,,,,,,,,,,,,,,392.23300000076415,,response,,,,7,A,,,,,,Space,keypress(Space),,,,silence,,,,---- --------- ---------- - --- ------- -- --- ------------<br>----- -- -------- ------- ---- ------ - -------- ---- -----<br>--- ------- ---- -- --- -------- for - ----- ------ ---- --<br>-------- --- -------- -------- --- -------- ---- -- ----- -<br>-------- ---- --- ---------- --------- -- ------- ------ -<br>--------- ----- -----,330390.30000000075,330388.30000000075,329979.393,329990.5,329996.067,330396.243,,25,for
screen,html.Screen,2_3_1_0_1_26,2022-02-15T16:00:14.735Z,,,,,,,,,,,,,,,,,15,,,,,,,,,,,,,,384.1570000022184,,response,,,,7,A,,,,,,Space,keypress(Space),,,,silence,,,,---- --------- ---------- - --- ------- -- --- ------------<br>----- -- -------- ------- ---- ------ - -------- ---- -----<br>--- ------- ---- -- --- -------- --- a ----- ------ ---- --<br>-------- --- -------- -------- --- -------- ---- -- ----- -<br>-------- ---- --- ---------- --------- -- ------- ------ -<br>--------- ----- -----,330782.700000003,330780.40000000224,330379.569,330390.40000000224,330396.243,330796.419,,26,a
screen,html.Screen,2_3_1_0_1_27,2022-02-15T16:00:15.190Z,,,,,,,,,,,,,,,,,15,,,,,,,,,,,,,,439.88100000075065,,response,,,,7,A,,,,,,Space,keypress(Space),,,,silence,,,,---- --------- ---------- - --- ------- -- --- ------------<br>----- -- -------- ------- ---- ------ - -------- ---- -----<br>--- ------- ---- -- --- -------- --- - third ------ ---- --<br>-------- --- -------- -------- --- -------- ---- -- ----- -<br>-------- ---- --- ---------- --------- -- ------- ------ -<br>--------- ----- -----,331238.40000000224,331236.30000000075,330779.745,330782.700000003,330796.419,331246.617,,27,third
screen,html.Screen,2_3_1_0_1_28,2022-02-15T16:00:15.678Z,,,,,,,,,,,,,,,,,15,,,,,,,,,,,,,,477.6830000007176,,response,,,,7,A,,,,,,Space,keypress(Space),,,,silence,,,,---- --------- ---------- - --- ------- -- --- ------------<br>----- -- -------- ------- ---- ------ - -------- ---- -----<br>--- ------- ---- -- --- -------- --- - ----- prison ---- --<br>-------- --- -------- -------- --- -------- ---- -- ----- -<br>-------- ---- --- ---------- --------- -- ------- ------ -<br>--------- ----- -----,331726.30000000075,331724.30000000075,331229.943,331238.5,331246.617,331730.163,,28,prison
screen,html.Screen,2_3_1_0_1_29,2022-02-15T16:00:16.086Z,,,,,,,,,,,,,,,,,15,,,,,,,,,,,,,,402.1370000007446,,response,,,,7,A,,,,,,Space,keypress(Space),,,,silence,,,,---- --------- ---------- - --- ------- -- --- ------------<br>----- -- -------- ------- ---- ------ - -------- ---- -----<br>--- ------- ---- -- --- -------- --- - ----- ------ stay --<br>-------- --- -------- -------- --- -------- ---- -- ----- -<br>-------- ---- --- ---------- --------- -- ------- ------ -<br>--------- ----- -----,332134.40000000224,332132.30000000075,331713.489,331726.5,331730.163,332147.013,,29,stay
screen,html.Screen,2_3_1_0_1_30,2022-02-15T16:00:16.550Z,,,,,,,,,,,,,,,,,15,,,,,,,,,,,,,,449.2870000007679,,response,,,,7,A,,,,,,Space,keypress(Space),,,,silence,,,,---- --------- ---------- - --- ------- -- --- ------------<br>----- -- -------- ------- ---- ------ - -------- ---- -----<br>--- ------- ---- -- --- -------- --- - ----- ------ ---- to<br>-------- --- -------- -------- --- -------- ---- -- ----- -<br>-------- ---- --- ---------- --------- -- ------- ------ -<br>--------- ----- -----,332598.40000000224,332596.30000000075,332130.339,332134.5,332147.013,332613.885,,30,to
screen,html.Screen,2_3_1_0_1_31,2022-02-15T16:00:16.998Z,,,,,,,,,,,,,,,,,15,,,,,,,,,,,,,,430.41500000073574,,response,,,,7,A,,,,,,Space,keypress(Space),,,,silence,,,,---- --------- ---------- - --- ------- -- --- ------------<br>----- -- -------- ------- ---- ------ - -------- ---- -----<br>--- ------- ---- -- --- -------- --- - ----- ------ ---- --<br>maintain --- -------- -------- --- -------- ---- -- ----- -<br>-------- ---- --- ---------- --------- -- ------- ------ -<br>--------- ----- -----,333046.40000000224,333044.30000000075,332597.211,332598.40000000224,332613.885,333047.409,,31,maintain
screen,html.Screen,2_3_1_0_1_32,2022-02-15T16:00:17.390Z,,,,,,,,,,,,,,,,,15,,,,,,,,,,,,,,388.9910000022501,,response,,,,7,A,,,,,,Space,keypress(Space),,,,silence,,,,---- --------- ---------- - --- ------- -- --- ------------<br>----- -- -------- ------- ---- ------ - -------- ---- -----<br>--- ------- ---- -- --- -------- --- - ----- ------ ---- --<br>-------- his -------- -------- --- -------- ---- -- ----- -<br>-------- ---- --- ---------- --------- -- ------- ------ -<br>--------- ----- -----,333438.40000000224,333436.40000000224,333030.735,333046.5,333047.409,333447.585,,32,his
screen,html.Screen,2_3_1_0_1_33,2022-02-15T16:00:17.814Z,,,,,,,,,,,,,,,,,15,,,,,,,,,,,,,,412.8150000022142,,response,,,,7,A,,,,,,Space,keypress(Space),,,,silence,,,,---- --------- ---------- - --- ------- -- --- ------------<br>----- -- -------- ------- ---- ------ - -------- ---- -----<br>--- ------- ---- -- --- -------- --- - ----- ------ ---- --<br>-------- --- silence. -------- --- -------- ---- -- ----- -<br>-------- ---- --- ---------- --------- -- ------- ------ -<br>--------- ----- -----,333862.40000000224,333860.40000000224,333430.911,333438.6000000015,333447.585,333864.435,,33,silence.
screen,html.Screen,2_3_1_0_1_34,2022-02-15T16:00:19.790Z,,,,,,,,,,,,,,,,,15,,,,,,,,,,,,,,1971.8650000007474,,response,,,,7,A,,,,,,Space,keypress(Space),,,,silence,,,,---- --------- ---------- - --- ------- -- --- ------------<br>----- -- -------- ------- ---- ------ - -------- ---- -----<br>--- ------- ---- -- --- -------- --- - ----- ------ ---- --<br>-------- --- -------- Anderson --- -------- ---- -- ----- -<br>-------- ---- --- ---------- --------- -- ------- ------ -<br>--------- ----- -----,335838.30000000075,335836.30000000075,333847.761,333862.5,333864.435,335848.641,,34,Anderson
screen,html.Screen,2_3_1_0_1_35,2022-02-15T16:00:20.374Z,,,,,,,,,,,,,,,,,15,,,,,,,,,,,,,,571.6590000007418,,response,,,,7,A,,,,,,Space,keypress(Space),,,,silence,,,,---- --------- ---------- - --- ------- -- --- ------------<br>----- -- -------- ------- ---- ------ - -------- ---- -----<br>--- ------- ---- -- --- -------- --- - ----- ------ ---- --<br>-------- --- -------- -------- was -------- ---- -- ----- -<br>-------- ---- --- ---------- --------- -- ------- ------ -<br>--------- ----- -----,336422.30000000075,336420.30000000075,335831.967,335838.40000000224,335848.641,336432.231,,35,was
screen,html.Screen,2_3_1_0_1_36,2022-02-15T16:00:20.759Z,,,,,,,,,,,,,,,,,15,,,,,,,,,,,,,,372.0690000007162,,response,,,,7,A,,,,,,Space,keypress(Space),,,,silence,,,,---- --------- ---------- - --- ------- -- --- ------------<br>----- -- -------- ------- ---- ------ - -------- ---- -----<br>--- ------- ---- -- --- -------- --- - ----- ------ ---- --<br>-------- --- -------- -------- --- released ---- -- ----- -<br>-------- ---- --- ---------- --------- -- ------- ------ -<br>--------- ----- -----,336806.700000003,336804.30000000075,336415.557,336422.40000000224,336432.231,336815.733,,36,released
screen,html.Screen,2_3_1_0_1_37,2022-02-15T16:00:21.070Z,,,,,,,,,,,,,,,,,15,,,,,,,,,,,,,,300.5670000007376,,response,,,,7,A,,,,,,Space,keypress(Space),,,,silence,,,,---- --------- ---------- - --- ------- -- --- ------------<br>----- -- -------- ------- ---- ------ - -------- ---- -----<br>--- ------- ---- -- --- -------- --- - ----- ------ ---- --<br>-------- --- -------- -------- --- -------- July -- ----- -<br>-------- ---- --- ---------- --------- -- ------- ------ -<br>--------- ----- -----,337118.30000000075,337116.30000000075,336799.059,336806.90000000224,336815.733,337132.539,,37,July
screen,html.Screen,2_3_1_0_1_38,2022-02-15T16:00:21.591Z,,,,,,,,,,,,,,,,,15,,,,,,,,,,,,,,503.7610000007553,,response,,,,7,A,,,,,,Space,keypress(Space),,,,silence,,,,---- --------- ---------- - --- ------- -- --- ------------<br>----- -- -------- ------- ---- ------ - -------- ---- -----<br>--- ------- ---- -- --- -------- --- - ----- ------ ---- --<br>-------- --- -------- -------- --- -------- ---- 20 ----- -<br>-------- ---- --- ---------- --------- -- ------- ------ -<br>--------- ----- -----,337638.6000000015,337636.30000000075,337115.865,337118.30000000075,337132.539,337649.433,,38,20
screen,html.Screen,2_3_1_0_1_39,2022-02-15T16:00:22.823Z,,,,,,,,,,,,,,,,,15,,,,,,,,,,,,,,1218.867000000726,,response,,,,7,A,,,,,,Space,keypress(Space),,,,silence,,,,---- --------- ---------- - --- ------- -- --- ------------<br>----- -- -------- ------- ---- ------ - -------- ---- -----<br>--- ------- ---- -- --- -------- --- - ----- ------ ---- --<br>-------- --- -------- -------- --- -------- ---- -- after -<br>-------- ---- --- ---------- --------- -- ------- ------ -<br>--------- ----- -----,338870.5,338868.30000000075,337632.759,337638.700000003,337649.433,338883.309,,39,after
screen,html.Screen,2_3_1_0_1_40,2022-02-15T16:00:23.991Z,,,,,,,,,,,,,,,,,15,,,,,,,,,,,,,,1152.9910000007367,,response,,,,7,A,,,,,,Space,keypress(Space),,,,silence,,,,---- --------- ---------- - --- ------- -- --- ------------<br>----- -- -------- ------- ---- ------ - -------- ---- -----<br>--- ------- ---- -- --- -------- --- - ----- ------ ---- --<br>-------- --- -------- -------- --- -------- ---- -- ----- a<br>-------- ---- --- ---------- --------- -- ------- ------ -<br>--------- ----- -----,340038.30000000075,340036.30000000075,338866.635,338870.5,338883.309,340050.489,,40,a
screen,html.Screen,2_3_1_0_1_41,2022-02-15T16:00:25.711Z,,,,,,,,,,,,,,,,,15,,,,,,,,,,,,,,1705.8110000007437,,response,,,,7,A,,,,,,Space,keypress(Space),,,,silence,,,,---- --------- ---------- - --- ------- -- --- ------------<br>----- -- -------- ------- ---- ------ - -------- ---- -----<br>--- ------- ---- -- --- -------- --- - ----- ------ ---- --<br>-------- --- -------- -------- --- -------- ---- -- ----- -<br>two-week ---- --- ---------- --------- -- ------- ------ -<br>--------- ----- -----,341758.30000000075,341756.30000000075,340033.815,340038.40000000224,340050.489,341767.911,,41,two-week
