sender,sender_type,sender_id,timestamp,meta,,Blues,Classical,Country,Dance,Electronic,Folk,Gospel,Hip-Hop,Jazz,Latin,Musical/Film,New-age,Pop,Prolific_id,Provo_ID,R&B,Rap,Reggae,Religious,Rock,Soul,Swing,Traditional,age,artist_name,correct,correctResponse,distraction,duration,education,ended_on,familiarity,gender,headphone_check_performance,item,list,music_frequency,offensiveness,pleasantness,position_correct,preference,response,response_action,snippet_file,song_name,song_rating,sound,stimulus_1,stimulus_2,stimulus_3,text,time_commit,time_end,time_render,time_run,time_show,time_switch,url,word,word_ID
Prolific ID,html.Form,0,2022-02-04T11:35:30.447Z,"{""labjs_version"":""20.2.2"",""labjs_build"":{""flavor"":""production"",""commit"":""a25486e0c714a0ae2ce03ff94b7bb6896854dcfa""},""location"":""https://run.pavlovia.org/mvasilev/prolific2_music_c/"",""userAgent"":""Mozilla/5.0 (Windows NT 10.0; Win64; x64) AppleWebKit/537.36 (KHTML, like Gecko) Chrome/97.0.4692.99 Safari/537.36"",""platform"":""Win32"",""language"":""en-US"",""locale"":""en-GB"",""timeZone"":""Europe/London"",""timezoneOffset"":0,""screen_width"":1366,""screen_height"":768,""scroll_width"":1366,""scroll_height"":720,""window_innerWidth"":1366,""window_innerHeight"":768,""devicePixelRatio"":1}",,,,,,,,,,,,,,,5edec2b3e095321650bddc22,,,,,,,,,,,,,,,35789.248,,form submission,,,,,,,,,,,,,,,,,,,,,60407,60406,24449.692,24420,24616.752,61035.832,{},,
Introduction,html.Screen,1_0,2022-02-04T11:35:36.197Z,,,,,,,,,,,,,,,,,,,,,,,,,,,,,,,5118.167999999998,,response,,,,,,,,,,,continue,click button,,,,,,,,,66157,66154,60350.886,60407,61035.832,66314.928,,,
Volume calibration,html.Screen,1_1,2022-02-04T11:35:51.732Z,,,,,,,,,,,,,,,,,,,,,,,,,,,,,,,15372.072,,response,,,,,,,,,,,continue,click button,,,,,,,,,81692,81687,66147.868,66157,66314.928,81717.86,,,
Task instructions,html.Screen,1_2,2022-02-04T11:36:03.255Z,,,,,,,,,,,,,,,,,,,,,,,,,,,,,,,11496.14,,response,,,,,,,,,,,continue,click button,,,,,,,,,93215,93214,81684.448,81692,81717.86,93228.294,,,
Sounds,html.Screen,1_3_0_0,2022-02-04T11:36:07.521Z,,,,,,,,,,,,,,,,,,,,,,,,,,,,,,,4260.029999999999,,timeout,,,,,,,,,1,,,,,,,,S,I,O,,97481,97454.912,93211.588,93215,93228.294,97488.324,,,
Judgement,html.Screen,1_3_0_1,2022-02-04T11:36:08.047Z,,,,,,,,,,,,,,,,,,,,,,,,,,,,true,1,,514.6760000000068,,response,,,,,,,,,1,,1,click #choice-1,,,,,S,I,O,,98007,98003,97454.912,97481,97488.324,98073.034,,,
Trial,flow.Sequence,1_3_0,2022-02-04T11:36:08.047Z,,,,,,,,,,,,,,,,,,,,,,,,,,,,,,,4774.706000000006,,completion,,,,,,,,,1,,,,,,,,S,I,O,,98007,98003,93211.588,93215,93228.294,98073.034,,,
Sounds,html.Screen,1_3_1_0,2022-02-04T11:36:12.340Z,,,,,,,,,,,,,,,,,,,,,,,,,,,,,,,4243.323999999993,,timeout,,,,,,,,,3,,,,,,,,I,O,S,,102300,102299.652,98006.21,98008,98073.034,102316.358,,,
Judgement,html.Screen,1_3_1_1,2022-02-04T11:36:12.751Z,,,,,,,,,,,,,,,,,,,,,,,,,,,,true,3,,393.6420000000071,,response,,,,,,,,,3,,3,click #choice-3,,,,,I,O,S,,102711,102710,102299.652,102301,102316.358,102734.008,,,
Trial,flow.Sequence,1_3_1,2022-02-04T11:36:12.751Z,,,,,,,,,,,,,,,,,,,,,,,,,,,,,,,4636.966,,completion,,,,,,,,,3,,,,,,,,I,O,S,,102711,102710,98006.21,98008,98073.034,102734.008,,,
Sounds,html.Screen,1_3_2_0,2022-02-04T11:36:17.001Z,,,,,,,,,,,,,,,,,,,,,,,,,,,,,,,4243.323999999993,,timeout,,,,,,,,,2,,,,,,,,O,S,I,,106961,106960.626,102717.302,102711,102734.008,106977.332,,,
Judgement,html.Screen,1_3_2_1,2022-02-04T11:36:17.535Z,,,,,,,,,,,,,,,,,,,,,,,,,,,,true,2,,516.6680000000051,,response,,,,,,,,,2,,2,click #choice-2,,,,,O,S,I,,107495,107494,106960.626,106961,106977.332,107511.924,,,
Trial,flow.Sequence,1_3_2,2022-02-04T11:36:17.535Z,,,,,,,,,,,,,,,,,,,,,,,,,,,,,,,4759.991999999998,,completion,,,,,,,,,2,,,,,,,,O,S,I,,107495,107494,102717.302,102711,102734.008,107511.924,,,
Sounds,html.Screen,1_3_3_0,2022-02-04T11:36:21.780Z,,,,,,,,,,,,,,,,,,,,,,,,,,,,,,,4243.324000000008,,timeout,,,,,,,,,2,,,,,,,,I,S,O,,111740,111738.542,107495.218,107495,107511.924,111755.248,,,
Judgement,html.Screen,1_3_3_1,2022-02-04T11:36:22.191Z,,,,,,,,,,,,,,,,,,,,,,,,,,,,true,2,,394.75199999999313,,response,,,,,,,,,2,,2,click #choice-2,,,,,I,S,O,,112151,112150,111738.542,111740,111755.248,112156.192,,,
Trial,flow.Sequence,1_3_3,2022-02-04T11:36:22.191Z,,,,,,,,,,,,,,,,,,,,,,,,,,,,,,,4638.076000000001,,completion,,,,,,,,,2,,,,,,,,I,S,O,,112151,112150,107495.218,107495,107511.924,112156.192,,,
Sounds,html.Screen,1_3_4_0,2022-02-04T11:36:26.423Z,,,,,,,,,,,,,,,,,,,,,,,,,,,,,,,4243.324000000008,,timeout,,,,,,,,,1,,,,,,,,S,O,I,,116383,116382.81,112139.486,112151,112156.192,116399.516,,,
Judgement,html.Screen,1_3_4_1,2022-02-04T11:36:27.127Z,,,,,,,,,,,,,,,,,,,,,,,,,,,,true,1,,686.4839999999967,,response,,,,,,,,,1,,1,click #choice-1,,,,,S,O,I,,117087,117086,116382.81,116383,116399.516,117101.168,,,
Trial,flow.Sequence,1_3_4,2022-02-04T11:36:27.127Z,,,,,,,,,,,,,,,,,,,,,,,,,,,,,,,4929.8080000000045,,completion,,,,,,,,,1,,,,,,,,S,O,I,,117087,117086,112139.486,112151,112156.192,117101.168,,,
Sounds,html.Screen,1_3_5_0,2022-02-04T11:36:31.368Z,,,,,,,,,,,,,,,,,,,,,,,,,,,,,,,4243.323999999993,,timeout,,,,,,,,,3,,,,,,,,O,I,S,,121328,121327.786,117084.462,117087,117101.168,121344.492,,,
Judgement,html.Screen,1_3_5_1,2022-02-04T11:36:32.031Z,,,,,,,,,,,,,,,,,,,,,,,,,,,,true,3,,645.5080000000016,,response,,,,,,,,,3,,3,click #choice-3,,,,,O,I,S,,121991,121990,121327.786,121328,121344.492,122012.732,,,
Trial,flow.Sequence,1_3_5,2022-02-04T11:36:32.031Z,,,,,,,,,,,,,,,,,,,,,,,,,,,,,,,4888.831999999995,,completion,,,,,,,,,3,,,,,,,,O,I,S,,121991,121990,117084.462,117087,117101.168,122012.732,,,
Task,flow.Loop,1_3,2022-02-04T11:36:32.039Z,,,,,,,,,,,,,,,,,,,,,,,,,,,,,,,28761.706000000006,,completion,,,1,,,,,,,,,,,,,,,,,,121999,121990,93211.588,93215,93228.294,122012.732,,,
Trap,html.Screen,1_4,2022-02-04T11:36:32.040Z,,,,,,,,,,,,,,,,,,,,,,,,,,,,,,,NaN,,skipped,,,,,,,,,,,,,,,,,,,,,122000,121990,,122000,,122012.732,,,
Thanks,html.Screen,1_5,2022-02-04T11:36:35.383Z,,,,,,,,,,,,,,,,,,,,,,,,,,,,,,,3329.2679999999964,,response,,,,,,,,,,,continue,click button,,,,,,,,,125343,125342,121979.32,122001,122012.732,128645.014,,,
Headphone screening,flow.Sequence,1,2022-02-04T11:36:35.383Z,,,,,,,,,,,,,,,,,,,,,,,,,,,,,,,64306.168,,completion,,,,,,,,,,,,,,,,,,,,,125343,125342,60350.886,60407,61035.832,128645.014,,,
Instructions,html.Page,2_0,2022-02-04T11:37:05.329Z,,,,,,,,,,,,,,,,,,,,,,,,,,,,,,,26642.986000000004,,form submission,,,,,,,,,,,,,,,,,,,,,155289,155288,128327.6,128421,128645.014,155307.79,,,
Holding screen,html.Screen,2_1_0_0,2022-02-04T11:37:15.350Z,,,,,,,,,,,,,,,,,,,,,,,,,,,,,,,10123.835999999981,,timeout,,,,,,,,,,,,,,,,,,,,,165310,165297.978,155291.084,155289,155307.79,165431.626,,,
screen,html.Screen,2_1_0_1_0,2022-02-04T11:37:16.548Z,,,,,,,,,,,,,,,,,53,,,,,,,,,,,,,,1071.3740000000107,,response,,,,99,,,,,,,Space,keypress(Space),,,,,,,,When -- ----- -- ------ - ------- --- ----------<br>------------- ------ ------ ---- ---- ------- ----- -- ----<br>-------- ------- -- ---------- --- - --- ----- ----- ----<br>---- --- --- ----- --- ---- ---- ------- ----- ---- -------<br>--- --- -- ----- -- --- ---- -- --- ---- -- ------ ------<br>--- ----- -- ----,166508,166503,165297.978,165310,165431.626,166517.516,,0,When
screen,html.Screen,2_1_0_1_1,2022-02-04T11:37:16.968Z,,,,,,,,,,,,,,,,,53,,,,,,,,,,,,,,409.48399999999674,,response,,,,99,,,,,,,Space,keypress(Space),,,,,,,,---- it ----- -- ------ - ------- --- ----------<br>------------- ------ ------ ---- ---- ------- ----- -- ----<br>-------- ------- -- ---------- --- - --- ----- ----- ----<br>---- --- --- ----- --- ---- ---- ------- ----- ---- -------<br>--- --- -- ----- -- --- ---- -- --- ---- -- ------ ------<br>--- ----- -- ----,166928,166927,166500.81,166509,166517.516,166935.166,,1,it
screen,html.Screen,2_1_0_1_2,2022-02-04T11:37:17.368Z,,,,,,,,,,,,,,,,,53,,,,,,,,,,,,,,391.83400000000256,,response,,,,99,,,,,,,Space,keypress(Space),,,,,,,,---- -- comes -- ------ - ------- --- ----------<br>------------- ------ ------ ---- ---- ------- ----- -- ----<br>-------- ------- -- ---------- --- - --- ----- ----- ----<br>---- --- --- ----- --- ---- ---- ------- ----- ---- -------<br>--- --- -- ----- -- --- ---- -- --- ---- -- ------ ------<br>--- ----- -- ----,167328,167327,166918.46,166928,166935.166,167336.11,,2,comes
screen,html.Screen,2_1_0_1_3,2022-02-04T11:37:17.712Z,,,,,,,,,,,,,,,,,53,,,,,,,,,,,,,,334.89000000001397,,response,,,,99,,,,,,,Space,keypress(Space),,,,,,,,---- -- ----- to ------ - ------- --- ----------<br>------------- ------ ------ ---- ---- ------- ----- -- ----<br>-------- ------- -- ---------- --- - --- ----- ----- ----<br>---- --- --- ----- --- ---- ---- ------- ----- ---- -------<br>--- --- -- ----- -- --- ---- -- --- ---- -- ------ ------<br>--- ----- -- ----,167672,167671,167319.404,167328,167336.11,167686.936,,3,to
screen,html.Screen,2_1_0_1_4,2022-02-04T11:37:18.016Z,,,,,,,,,,,,,,,,,53,,,,,,,,,,,,,,288.06400000001304,,response,,,,99,,,,,,,Space,keypress(Space),,,,,,,,---- -- ----- -- having - ------- --- ----------<br>------------- ------ ------ ---- ---- ------- ----- -- ----<br>-------- ------- -- ---------- --- - --- ----- ----- ----<br>---- --- --- ----- --- ---- ---- ------- ----- ---- -------<br>--- --- -- ----- -- --- ---- -- --- ---- -- ------ ------<br>--- ----- -- ----,167976,167975,167670.23,167672,167686.936,167987.644,,4,having
screen,html.Screen,2_1_0_1_5,2022-02-04T11:37:18.320Z,,,,,,,,,,,,,,,,,53,,,,,,,,,,,,,,291.35599999999977,,response,,,,99,,,,,,,Space,keypress(Space),,,,,,,,---- -- ----- -- ------ a ------- --- ----------<br>------------- ------ ------ ---- ---- ------- ----- -- ----<br>-------- ------- -- ---------- --- - --- ----- ----- ----<br>---- --- --- ----- --- ---- ---- ------- ----- ---- -------<br>--- --- -- ----- -- --- ---- -- --- ---- -- ------ ------<br>--- ----- -- ----,168280,168279,167970.938,167976,167987.644,168288.352,,5,a
screen,html.Screen,2_1_0_1_6,2022-02-04T11:37:18.616Z,,,,,,,,,,,,,,,,,53,,,,,,,,,,,,,,286.6479999999865,,response,,,,99,,,,,,,Space,keypress(Space),,,,,,,,---- -- ----- -- ------ - lasting --- ----------<br>------------- ------ ------ ---- ---- ------- ----- -- ----<br>-------- ------- -- ---------- --- - --- ----- ----- ----<br>---- --- --- ----- --- ---- ---- ------- ----- ---- -------<br>--- --- -- ----- -- --- ---- -- --- ---- -- ------ ------<br>--- ----- -- ----,168576,168575,168271.646,168280,168288.352,168589.06,,6,lasting
screen,html.Screen,2_1_0_1_7,2022-02-04T11:37:18.784Z,,,,,,,,,,,,,,,,,53,,,,,,,,,,,,,,153.94000000000233,,response,,,,99,,,,,,,Space,keypress(Space),,,,,,,,---- -- ----- -- ------ - ------- and ----------<br>------------- ------ ------ ---- ---- ------- ----- -- ----<br>-------- ------- -- ---------- --- - --- ----- ----- ----<br>---- --- --- ----- --- ---- ---- ------- ----- ---- -------<br>--- --- -- ----- -- --- ---- -- --- ---- -- ------ ------<br>--- ----- -- ----,168744,168743,168572.354,168576,168589.06,168756.12,,7,and
screen,html.Screen,2_1_0_1_8,2022-02-04T11:37:19.336Z,,,,,,,,,,,,,,,,,53,,,,,,,,,,,,,,538.8800000000047,,response,,,,99,,,,,,,Space,keypress(Space),,,,,,,,---- -- ----- -- ------ - ------- --- fulfilling<br>------------- ------ ------ ---- ---- ------- ----- -- ----<br>-------- ------- -- ---------- --- - --- ----- ----- ----<br>---- --- --- ----- --- ---- ---- ------- ----- ---- -------<br>--- --- -- ----- -- --- ---- -- --- ---- -- ------ ------<br>--- ----- -- ----,169296,169295,168739.414,168744,168756.12,169307.418,,8,fulfilling
screen,html.Screen,2_1_0_1_9,2022-02-04T11:37:19.672Z,,,,,,,,,,,,,,,,,53,,,,,,,,,,,,,,323.5819999999949,,response,,,,99,,,,,,,Space,keypress(Space),,,,,,,,"---- -- ----- -- ------ - ------- --- ----------<br>relationship, ------ ------ ---- ---- ------- ----- -- ----<br>-------- ------- -- ---------- --- - --- ----- ----- ----<br>---- --- --- ----- --- ---- ---- ------- ----- ---- -------<br>--- --- -- ----- -- --- ---- -- --- ---- -- ------ ------<br>--- ----- -- ----",169632,169631,169290.712,169296,169307.418,169641.538,,9,"relationship,"
screen,html.Screen,2_1_0_1_10,2022-02-04T11:37:20.120Z,,,,,,,,,,,,,,,,,53,,,,,,,,,,,,,,437.46199999999953,,response,,,,99,,,,,,,Space,keypress(Space),,,,,,,,---- -- ----- -- ------ - ------- --- ----------<br>------------- common ------ ---- ---- ------- ----- -- ----<br>-------- ------- -- ---------- --- - --- ----- ----- ----<br>---- --- --- ----- --- ---- ---- ------- ----- ---- -------<br>--- --- -- ----- -- --- ---- -- --- ---- -- ------ ------<br>--- ----- -- ----,170080,170079,169624.832,169632,169641.538,170109.306,,10,common
screen,html.Screen,2_1_0_1_11,2022-02-04T11:37:20.440Z,,,,,,,,,,,,,,,,,53,,,,,,,,,,,,,,289.6939999999886,,response,,,,99,,,,,,,Space,keypress(Space),,,,,,,,---- -- ----- -- ------ - ------- --- ----------<br>------------- ------ wisdom ---- ---- ------- ----- -- ----<br>-------- ------- -- ---------- --- - --- ----- ----- ----<br>---- --- --- ----- --- ---- ---- ------- ----- ---- -------<br>--- --- -- ----- -- --- ---- -- --- ---- -- ------ ------<br>--- ----- -- ----,170400,170399,170092.6,170080,170109.306,170410.014,,11,wisdom
screen,html.Screen,2_1_0_1_12,2022-02-04T11:37:20.760Z,,,,,,,,,,,,,,,,,53,,,,,,,,,,,,,,308.9860000000044,,response,,,,99,,,,,,,Space,keypress(Space),,,,,,,,---- -- ----- -- ------ - ------- --- ----------<br>------------- ------ ------ says ---- ------- ----- -- ----<br>-------- ------- -- ---------- --- - --- ----- ----- ----<br>---- --- --- ----- --- ---- ---- ------- ----- ---- -------<br>--- --- -- ----- -- --- ---- -- --- ---- -- ------ ------<br>--- ----- -- ----,170720,170719,170393.308,170400,170410.014,170727.428,,12,says
screen,html.Screen,2_1_0_1_13,2022-02-04T11:37:21.112Z,,,,,,,,,,,,,,,,,53,,,,,,,,,,,,,,343.57199999998556,,response,,,,99,,,,,,,Space,keypress(Space),,,,,,,,---- -- ----- -- ------ - ------- --- ----------<br>------------- ------ ------ ---- that ------- ----- -- ----<br>-------- ------- -- ---------- --- - --- ----- ----- ----<br>---- --- --- ----- --- ---- ---- ------- ----- ---- -------<br>--- --- -- ----- -- --- ---- -- --- ---- -- ------ ------<br>--- ----- -- ----,171072,171071,170710.722,170720,170727.428,171078.254,,13,that
screen,html.Screen,2_1_0_1_14,2022-02-04T11:37:21.512Z,,,,,,,,,,,,,,,,,53,,,,,,,,,,,,,,392.74600000001374,,response,,,,99,,,,,,,Space,keypress(Space),,,,,,,,---- -- ----- -- ------ - ------- --- ----------<br>------------- ------ ------ ---- ---- feeling ----- -- ----<br>-------- ------- -- ---------- --- - --- ----- ----- ----<br>---- --- --- ----- --- ---- ---- ------- ----- ---- -------<br>--- --- -- ----- -- --- ---- -- --- ---- -- ------ ------<br>--- ----- -- ----,171472,171471,171061.548,171072,171078.254,171479.198,,14,feeling
screen,html.Screen,2_1_0_1_15,2022-02-04T11:37:22.088Z,,,,,,,,,,,,,,,,,53,,,,,,,,,,,,,,567.801999999996,,response,,,,99,,,,,,,Space,keypress(Space),,,,,,,,---- -- ----- -- ------ - ------- --- ----------<br>------------- ------ ------ ---- ---- ------- close -- ----<br>-------- ------- -- ---------- --- - --- ----- ----- ----<br>---- --- --- ----- --- ---- ---- ------- ----- ---- -------<br>--- --- -- ----- -- --- ---- -- --- ---- -- ------ ------<br>--- ----- -- ----,172048,172047,171462.492,171472,171479.198,172063.908,,15,close
screen,html.Screen,2_1_0_1_16,2022-02-04T11:37:22.432Z,,,,,,,,,,,,,,,,,53,,,,,,,,,,,,,,327.0920000000042,,response,,,,99,,,,,,,Space,keypress(Space),,,,,,,,---- -- ----- -- ------ - ------- --- ----------<br>------------- ------ ------ ---- ---- ------- ----- to ----<br>-------- ------- -- ---------- --- - --- ----- ----- ----<br>---- --- --- ----- --- ---- ---- ------- ----- ---- -------<br>--- --- -- ----- -- --- ---- -- --- ---- -- ------ ------<br>--- ----- -- ----,172392,172391,172047.202,172048,172063.908,172398.028,,16,to
screen,html.Screen,2_1_0_1_17,2022-02-04T11:37:22.856Z,,,,,,,,,,,,,,,,,53,,,,,,,,,,,,,,416.97200000000885,,response,,,,99,,,,,,,Space,keypress(Space),,,,,,,,---- -- ----- -- ------ - ------- --- ----------<br>------------- ------ ------ ---- ---- ------- ----- -- your<br>-------- ------- -- ---------- --- - --- ----- ----- ----<br>---- --- --- ----- --- ---- ---- ------- ----- ---- -------<br>--- --- -- ----- -- --- ---- -- --- ---- -- ------ ------<br>--- ----- -- ----,172816,172815,172381.322,172392,172398.028,172832.384,,17,your
screen,html.Screen,2_1_0_1_18,2022-02-04T11:37:23.208Z,,,,,,,,,,,,,,,,,53,,,,,,,,,,,,,,334.6160000000091,,response,,,,99,,,,,,,Space,keypress(Space),,,,,,,,---- -- ----- -- ------ - ------- --- ----------<br>------------- ------ ------ ---- ---- ------- ----- -- ----<br>romantic ------- -- ---------- --- - --- ----- ----- ----<br>---- --- --- ----- --- ---- ---- ------- ----- ---- -------<br>--- --- -- ----- -- --- ---- -- --- ---- -- ------ ------<br>--- ----- -- ----,173168,173167,172815.678,172816,172832.384,173183.21,,18,romantic
screen,html.Screen,2_1_0_1_19,2022-02-04T11:37:23.528Z,,,,,,,,,,,,,,,,,53,,,,,,,,,,,,,,303.79000000000815,,response,,,,99,,,,,,,Space,keypress(Space),,,,,,,,---- -- ----- -- ------ - ------- --- ----------<br>------------- ------ ------ ---- ---- ------- ----- -- ----<br>-------- partner -- ---------- --- - --- ----- ----- ----<br>---- --- --- ----- --- ---- ---- ------- ----- ---- -------<br>--- --- -- ----- -- --- ---- -- --- ---- -- ------ ------<br>--- ----- -- ----,173488,173487,173166.504,173168,173183.21,173500.624,,19,partner
screen,html.Screen,2_1_0_1_20,2022-02-04T11:37:23.865Z,,,,,,,,,,,,,,,,,53,,,,,,,,,,,,,,323.3759999999893,,response,,,,99,,,,,,,Space,keypress(Space),,,,,,,,---- -- ----- -- ------ - ------- --- ----------<br>------------- ------ ------ ---- ---- ------- ----- -- ----<br>-------- ------- is ---------- --- - --- ----- ----- ----<br>---- --- --- ----- --- ---- ---- ------- ----- ---- -------<br>--- --- -- ----- -- --- ---- -- --- ---- -- ------ ------<br>--- ----- -- ----,173825,173824,173483.918,173488,173500.624,173834.744,,20,is
screen,html.Screen,2_1_0_1_21,2022-02-04T11:37:24.200Z,,,,,,,,,,,,,,,,,53,,,,,,,,,,,,,,324.25599999999395,,response,,,,99,,,,,,,Space,keypress(Space),,,,,,,,---- -- ----- -- ------ - ------- --- ----------<br>------------- ------ ------ ---- ---- ------- ----- -- ----<br>-------- ------- -- paramount. --- - --- ----- ----- ----<br>---- --- --- ----- --- ---- ---- ------- ----- ---- -------<br>--- --- -- ----- -- --- ---- -- --- ---- -- ------ ------<br>--- ----- -- ----,174160,174159,173818.038,173825,173834.744,174168.864,,21,paramount.
screen,html.Screen,2_1_0_1_22,2022-02-04T11:37:24.560Z,,,,,,,,,,,,,,,,,53,,,,,,,,,,,,,,350.1359999999986,,response,,,,99,,,,,,,Space,keypress(Space),,,,,,,,---- -- ----- -- ------ - ------- --- ----------<br>------------- ------ ------ ---- ---- ------- ----- -- ----<br>-------- ------- -- ---------- But - --- ----- ----- ----<br>---- --- --- ----- --- ---- ---- ------- ----- ---- -------<br>--- --- -- ----- -- --- ---- -- --- ---- -- ------ ------<br>--- ----- -- ----,174520,174519,174152.158,174160,174168.864,174536.396,,22,But
screen,html.Screen,2_1_0_1_23,2022-02-04T11:37:24.873Z,,,,,,,,,,,,,,,,,53,,,,,,,,,,,,,,295.6039999999921,,response,,,,99,,,,,,,Space,keypress(Space),,,,,,,,---- -- ----- -- ------ - ------- --- ----------<br>------------- ------ ------ ---- ---- ------- ----- -- ----<br>-------- ------- -- ---------- --- a --- ----- ----- ----<br>---- --- --- ----- --- ---- ---- ------- ----- ---- -------<br>--- --- -- ----- -- --- ---- -- --- ---- -- ------ ------<br>--- ----- -- ----,174833,174832,174519.69,174520,174536.396,174837.104,,23,a
screen,html.Screen,2_1_0_1_24,2022-02-04T11:37:25.168Z,,,,,,,,,,,,,,,,,53,,,,,,,,,,,,,,289.8960000000079,,response,,,,99,,,,,,,Space,keypress(Space),,,,,,,,---- -- ----- -- ------ - ------- --- ----------<br>------------- ------ ------ ---- ---- ------- ----- -- ----<br>-------- ------- -- ---------- --- - new ----- ----- ----<br>---- --- --- ----- --- ---- ---- ------- ----- ---- -------<br>--- --- -- ----- -- --- ---- -- --- ---- -- ------ ------<br>--- ----- -- ----,175128,175127,174820.398,174833,174837.104,175137.812,,24,new
screen,html.Screen,2_1_0_1_25,2022-02-04T11:37:25.416Z,,,,,,,,,,,,,,,,,53,,,,,,,,,,,,,,237.18799999999464,,response,,,,99,,,,,,,Space,keypress(Space),,,,,,,,---- -- ----- -- ------ - ------- --- ----------<br>------------- ------ ------ ---- ---- ------- ----- -- ----<br>-------- ------- -- ---------- --- - --- study ----- ----<br>---- --- --- ----- --- ---- ---- ------- ----- ---- -------<br>--- --- -- ----- -- --- ---- -- --- ---- -- ------ ------<br>--- ----- -- ----,175376,175375,175121.106,175128,175137.812,175405.108,,25,study
screen,html.Screen,2_1_0_1_26,2022-02-04T11:37:25.768Z,,,,,,,,,,,,,,,,,53,,,,,,,,,,,,,,321.89199999999255,,response,,,,99,,,,,,,Space,keypress(Space),,,,,,,,---- -- ----- -- ------ - ------- --- ----------<br>------------- ------ ------ ---- ---- ------- ----- -- ----<br>-------- ------- -- ---------- --- - --- ----- finds ----<br>---- --- --- ----- --- ---- ---- ------- ----- ---- -------<br>--- --- -- ----- -- --- ---- -- --- ---- -- ------ ------<br>--- ----- -- ----,175728,175727,175388.402,175376,175405.108,175739.228,,26,finds
screen,html.Screen,2_1_0_1_27,2022-02-04T11:37:26.024Z,,,,,,,,,,,,,,,,,53,,,,,,,,,,,,,,243.7719999999972,,response,,,,99,,,,,,,Space,keypress(Space),,,,,,,,---- -- ----- -- ------ - ------- --- ----------<br>------------- ------ ------ ---- ---- ------- ----- -- ----<br>-------- ------- -- ---------- --- - --- ----- ----- that<br>---- --- --- ----- --- ---- ---- ------- ----- ---- -------<br>--- --- -- ----- -- --- ---- -- --- ---- -- ------ ------<br>--- ----- -- ----,175984,175983,175722.522,175728,175739.228,175989.818,,27,that
screen,html.Screen,2_1_0_1_28,2022-02-04T11:37:26.240Z,,,,,,,,,,,,,,,,,53,,,,,,,,,,,,,,209.1820000000007,,response,,,,99,,,,,,,Space,keypress(Space),,,,,,,,---- -- ----- -- ------ - ------- --- ----------<br>------------- ------ ------ ---- ---- ------- ----- -- ----<br>-------- ------- -- ---------- --- - --- ----- ----- ----<br>it's --- --- ----- --- ---- ---- ------- ----- ---- -------<br>--- --- -- ----- -- --- ---- -- --- ---- -- ------ ------<br>--- ----- -- ----,176200,176199,175973.112,175984,175989.818,176206.996,,28,it's
screen,html.Screen,2_1_0_1_29,2022-02-04T11:37:26.448Z,,,,,,,,,,,,,,,,,53,,,,,,,,,,,,,,201.00399999998626,,response,,,,99,,,,,,,Space,keypress(Space),,,,,,,,---- -- ----- -- ------ - ------- --- ----------<br>------------- ------ ------ ---- ---- ------- ----- -- ----<br>-------- ------- -- ---------- --- - --- ----- ----- ----<br>---- not --- ----- --- ---- ---- ------- ----- ---- -------<br>--- --- -- ----- -- --- ---- -- --- ---- -- ------ ------<br>--- ----- -- ----,176408,176408,176190.29,176200,176206.996,176424.174,,29,not
screen,html.Screen,2_1_0_1_30,2022-02-04T11:37:26.680Z,,,,,,,,,,,,,,,,,53,,,,,,,,,,,,,,214.82600000000093,,response,,,,99,,,,,,,Space,keypress(Space),,,,,,,,---- -- ----- -- ------ - ------- --- ----------<br>------------- ------ ------ ---- ---- ------- ----- -- ----<br>-------- ------- -- ---------- --- - --- ----- ----- ----<br>---- --- how ----- --- ---- ---- ------- ----- ---- -------<br>--- --- -- ----- -- --- ---- -- --- ---- -- ------ ------<br>--- ----- -- ----,176640,176639,176407.468,176409,176424.174,176658.058,,30,how
screen,html.Screen,2_1_0_1_31,2022-02-04T11:37:26.920Z,,,,,,,,,,,,,,,,,53,,,,,,,,,,,,,,220.94200000001,,response,,,,99,,,,,,,Space,keypress(Space),,,,,,,,---- -- ----- -- ------ - ------- --- ----------<br>------------- ------ ------ ---- ---- ------- ----- -- ----<br>-------- ------- -- ---------- --- - --- ----- ----- ----<br>---- --- --- close --- ---- ---- ------- ----- ---- -------<br>--- --- -- ----- -- --- ---- -- --- ---- -- ------ ------<br>--- ----- -- ----,176880,176879,176641.352,176640,176658.058,176891.942,,31,close
screen,html.Screen,2_1_0_1_32,2022-02-04T11:37:27.160Z,,,,,,,,,,,,,,,,,53,,,,,,,,,,,,,,227.05799999999,,response,,,,99,,,,,,,Space,keypress(Space),,,,,,,,---- -- ----- -- ------ - ------- --- ----------<br>------------- ------ ------ ---- ---- ------- ----- -- ----<br>-------- ------- -- ---------- --- - --- ----- ----- ----<br>---- --- --- ----- you ---- ---- ------- ----- ---- -------<br>--- --- -- ----- -- --- ---- -- --- ---- -- ------ ------<br>--- ----- -- ----,177120,177119,176875.236,176880,176891.942,177125.826,,32,you
screen,html.Screen,2_1_0_1_33,2022-02-04T11:37:27.384Z,,,,,,,,,,,,,,,,,53,,,,,,,,,,,,,,217.17399999999907,,response,,,,99,,,,,,,Space,keypress(Space),,,,,,,,---- -- ----- -- ------ - ------- --- ----------<br>------------- ------ ------ ---- ---- ------- ----- -- ----<br>-------- ------- -- ---------- --- - --- ----- ----- ----<br>---- --- --- ----- --- feel ---- ------- ----- ---- -------<br>--- --- -- ----- -- --- ---- -- --- ---- -- ------ ------<br>--- ----- -- ----,177344,177343,177109.12,177120,177125.826,177359.71,,33,feel
screen,html.Screen,2_1_0_1_34,2022-02-04T11:37:27.688Z,,,,,,,,,,,,,,,,,53,,,,,,,,,,,,,,287.29000000000815,,response,,,,99,,,,,,,Space,keypress(Space),,,,,,,,---- -- ----- -- ------ - ------- --- ----------<br>------------- ------ ------ ---- ---- ------- ----- -- ----<br>-------- ------- -- ---------- --- - --- ----- ----- ----<br>---- --- --- ----- --- ---- that ------- ----- ---- -------<br>--- --- -- ----- -- --- ---- -- --- ---- -- ------ ------<br>--- ----- -- ----,177648,177647,177343.004,177344,177359.71,177660.418,,34,that
screen,html.Screen,2_1_0_1_35,2022-02-04T11:37:27.903Z,,,,,,,,,,,,,,,,,53,,,,,,,,,,,,,,202.58199999999488,,response,,,,99,,,,,,,Space,keypress(Space),,,,,,,,---- -- ----- -- ------ - ------- --- ----------<br>------------- ------ ------ ---- ---- ------- ----- -- ----<br>-------- ------- -- ---------- --- - --- ----- ----- ----<br>---- --- --- ----- --- ---- ---- matters ----- ---- -------<br>--- --- -- ----- -- --- ---- -- --- ---- -- ------ ------<br>--- ----- -- ----,177863,177863,177643.712,177648,177660.418,177877.596,,35,matters
screen,html.Screen,2_1_0_1_36,2022-02-04T11:37:28.224Z,,,,,,,,,,,,,,,,,53,,,,,,,,,,,,,,305.40400000000955,,response,,,,99,,,,,,,Space,keypress(Space),,,,,,,,"---- -- ----- -- ------ - ------- --- ----------<br>------------- ------ ------ ---- ---- ------- ----- -- ----<br>-------- ------- -- ---------- --- - --- ----- ----- ----<br>---- --- --- ----- --- ---- ---- ------- most, ---- -------<br>--- --- -- ----- -- --- ---- -- --- ---- -- ------ ------<br>--- ----- -- ----",178184,178183,177860.89,177863,177877.596,178195.01,,36,"most,"
screen,html.Screen,2_1_0_1_37,2022-02-04T11:37:28.496Z,,,,,,,,,,,,,,,,,53,,,,,,,,,,,,,,259.9899999999907,,response,,,,99,,,,,,,Space,keypress(Space),,,,,,,,---- -- ----- -- ------ - ------- --- ----------<br>------------- ------ ------ ---- ---- ------- ----- -- ----<br>-------- ------- -- ---------- --- - --- ----- ----- ----<br>---- --- --- ----- --- ---- ---- ------- ----- it's -------<br>--- --- -- ----- -- --- ---- -- --- ---- -- ------ ------<br>--- ----- -- ----,178456,178455,178178.304,178184,178195.01,178462.306,,37,it's
screen,html.Screen,2_1_0_1_38,2022-02-04T11:37:28.768Z,,,,,,,,,,,,,,,,,53,,,,,,,,,,,,,,264.6939999999886,,response,,,,99,,,,,,,Space,keypress(Space),,,,,,,,---- -- ----- -- ------ - ------- --- ----------<br>------------- ------ ------ ---- ---- ------- ----- -- ----<br>-------- ------- -- ---------- --- - --- ----- ----- ----<br>---- --- --- ----- --- ---- ---- ------- ----- ---- whether<br>--- --- -- ----- -- --- ---- -- --- ---- -- ------ ------<br>--- ----- -- ----,178728,178727,178445.6,178456,178462.306,178746.308,,38,whether
screen,html.Screen,2_1_0_1_39,2022-02-04T11:37:29.056Z,,,,,,,,,,,,,,,,,53,,,,,,,,,,,,,,268.69200000001,,response,,,,99,,,,,,,Space,keypress(Space),,,,,,,,---- -- ----- -- ------ - ------- --- ----------<br>------------- ------ ------ ---- ---- ------- ----- -- ----<br>-------- ------- -- ---------- --- - --- ----- ----- ----<br>---- --- --- ----- --- ---- ---- ------- ----- ---- -------<br>you --- -- ----- -- --- ---- -- --- ---- -- ------ ------<br>--- ----- -- ----,179016,179015,178729.602,178729,178746.308,179030.31,,39,you
screen,html.Screen,2_1_0_1_40,2022-02-04T11:37:29.384Z,,,,,,,,,,,,,,,,,53,,,,,,,,,,,,,,312.6900000000023,,response,,,,99,,,,,,,Space,keypress(Space),,,,,,,,---- -- ----- -- ------ - ------- --- ----------<br>------------- ------ ------ ---- ---- ------- ----- -- ----<br>-------- ------- -- ---------- --- - --- ----- ----- ----<br>---- --- --- ----- --- ---- ---- ------- ----- ---- -------<br>--- are -- ----- -- --- ---- -- --- ---- -- ------ ------<br>--- ----- -- ----,179344,179343,179013.604,179016,179030.31,179347.724,,40,are
screen,html.Screen,2_1_0_1_41,2022-02-04T11:37:29.624Z,,,,,,,,,,,,,,,,,53,,,,,,,,,,,,,,235.27600000001257,,response,,,,99,,,,,,,Space,keypress(Space),,,,,,,,---- -- ----- -- ------ - ------- --- ----------<br>------------- ------ ------ ---- ---- ------- ----- -- ----<br>-------- ------- -- ---------- --- - --- ----- ----- ----<br>---- --- --- ----- --- ---- ---- ------- ----- ---- -------<br>--- --- as ----- -- --- ---- -- --- ---- -- ------ ------<br>--- ----- -- ----,179584,179583,179331.018,179344,179347.724,179598.314,,41,as
screen,html.Screen,2_1_0_1_42,2022-02-04T11:37:29.888Z,,,,,,,,,,,,,,,,,53,,,,,,,,,,,,,,248.68599999998696,,response,,,,99,,,,,,,Space,keypress(Space),,,,,,,,---- -- ----- -- ------ - ------- --- ----------<br>------------- ------ ------ ---- ---- ------- ----- -- ----<br>-------- ------- -- ---------- --- - --- ----- ----- ----<br>---- --- --- ----- --- ---- ---- ------- ----- ---- -------<br>--- --- -- close -- --- ---- -- --- ---- -- ------ ------<br>--- ----- -- ----,179848,179847,179581.608,179584,179598.314,179865.61,,42,close
screen,html.Screen,2_1_0_1_43,2022-02-04T11:37:30.144Z,,,,,,,,,,,,,,,,,53,,,,,,,,,,,,,,237.39000000001397,,response,,,,99,,,,,,,Space,keypress(Space),,,,,,,,---- -- ----- -- ------ - ------- --- ----------<br>------------- ------ ------ ---- ---- ------- ----- -- ----<br>-------- ------- -- ---------- --- - --- ----- ----- ----<br>---- --- --- ----- --- ---- ---- ------- ----- ---- -------<br>--- --- -- ----- as --- ---- -- --- ---- -- ------ ------<br>--- ----- -- ----,180104,180103,179848.904,179848,179865.61,180116.2,,43,as
screen,html.Screen,2_1_0_1_44,2022-02-04T11:37:30.416Z,,,,,,,,,,,,,,,,,53,,,,,,,,,,,,,,258.79999999998836,,response,,,,99,,,,,,,Space,keypress(Space),,,,,,,,---- -- ----- -- ------ - ------- --- ----------<br>------------- ------ ------ ---- ---- ------- ----- -- ----<br>-------- ------- -- ---------- --- - --- ----- ----- ----<br>---- --- --- ----- --- ---- ---- ------- ----- ---- -------<br>--- --- -- ----- -- you ---- -- --- ---- -- ------ ------<br>--- ----- -- ----,180376,180375,180099.494,180104,180116.2,180383.496,,44,you
screen,html.Screen,2_1_0_1_45,2022-02-04T11:37:30.696Z,,,,,,,,,,,,,,,,,53,,,,,,,,,,,,,,272.50399999998626,,response,,,,99,,,,,,,Space,keypress(Space),,,,,,,,---- -- ----- -- ------ - ------- --- ----------<br>------------- ------ ------ ---- ---- ------- ----- -- ----<br>-------- ------- -- ---------- --- - --- ----- ----- ----<br>---- --- --- ----- --- ---- ---- ------- ----- ---- -------<br>--- --- -- ----- -- --- want -- --- ---- -- ------ ------<br>--- ----- -- ----,180656,180656,180366.79,180376,180383.496,180667.498,,45,want
screen,html.Screen,2_1_0_1_46,2022-02-04T11:37:30.928Z,,,,,,,,,,,,,,,,,53,,,,,,,,,,,,,,219.50200000000768,,response,,,,99,,,,,,,Space,keypress(Space),,,,,,,,---- -- ----- -- ------ - ------- --- ----------<br>------------- ------ ------ ---- ---- ------- ----- -- ----<br>-------- ------- -- ---------- --- - --- ----- ----- ----<br>---- --- --- ----- --- ---- ---- ------- ----- ---- -------<br>--- --- -- ----- -- --- ---- to --- ---- -- ------ ------<br>--- ----- -- ----,180888,180887,180650.792,180657,180667.498,180901.382,,46,to
screen,html.Screen,2_1_0_1_47,2022-02-04T11:37:31.232Z,,,,,,,,,,,,,,,,,53,,,,,,,,,,,,,,289.61799999998766,,response,,,,99,,,,,,,Space,keypress(Space),,,,,,,,"---- -- ----- -- ------ - ------- --- ----------<br>------------- ------ ------ ---- ---- ------- ----- -- ----<br>-------- ------- -- ---------- --- - --- ----- ----- ----<br>---- --- --- ----- --- ---- ---- ------- ----- ---- -------<br>--- --- -- ----- -- --- ---- -- be, ---- -- ------ ------<br>--- ----- -- ----",181192,181191,180884.676,180888,180901.382,181202.09,,47,"be,"
screen,html.Screen,2_1_0_1_48,2022-02-04T11:37:31.592Z,,,,,,,,,,,,,,,,,53,,,,,,,,,,,,,,348.9100000000035,,response,,,,99,,,,,,,Space,keypress(Space),,,,,,,,---- -- ----- -- ------ - ------- --- ----------<br>------------- ------ ------ ---- ---- ------- ----- -- ----<br>-------- ------- -- ---------- --- - --- ----- ----- ----<br>---- --- --- ----- --- ---- ---- ------- ----- ---- -------<br>--- --- -- ----- -- --- ---- -- --- even -- ------ ------<br>--- ----- -- ----,181552,181551,181185.384,181192,181202.09,181569.622,,48,even
screen,html.Screen,2_1_0_1_49,2022-02-04T11:37:31.880Z,,,,,,,,,,,,,,,,,53,,,,,,,,,,,,,,269.377999999997,,response,,,,99,,,,,,,Space,keypress(Space),,,,,,,,---- -- ----- -- ------ - ------- --- ----------<br>------------- ------ ------ ---- ---- ------- ----- -- ----<br>-------- ------- -- ---------- --- - --- ----- ----- ----<br>---- --- --- ----- --- ---- ---- ------- ----- ---- -------<br>--- --- -- ----- -- --- ---- -- --- ---- if ------ ------<br>--- ----- -- ----,181840,181839,181552.916,181552,181569.622,181853.624,,49,if
screen,html.Screen,2_1_0_1_50,2022-02-04T11:37:32.144Z,,,,,,,,,,,,,,,,,53,,,,,,,,,,,,,,249.3759999999893,,response,,,,99,,,,,,,Space,keypress(Space),,,,,,,,---- -- ----- -- ------ - ------- --- ----------<br>------------- ------ ------ ---- ---- ------- ----- -- ----<br>-------- ------- -- ---------- --- - --- ----- ----- ----<br>---- --- --- ----- --- ---- ---- ------- ----- ---- -------<br>--- --- -- ----- -- --- ---- -- --- ---- -- that's ------<br>--- ----- -- ----,182104,182103,181836.918,181840,181853.624,182120.92,,50,that's
screen,html.Screen,2_1_0_1_51,2022-02-04T11:37:32.464Z,,,,,,,,,,,,,,,,,53,,,,,,,,,,,,,,302.0799999999872,,response,,,,99,,,,,,,Space,keypress(Space),,,,,,,,---- -- ----- -- ------ - ------- --- ----------<br>------------- ------ ------ ---- ---- ------- ----- -- ----<br>-------- ------- -- ---------- --- - --- ----- ----- ----<br>---- --- --- ----- --- ---- ---- ------- ----- ---- -------<br>--- --- -- ----- -- --- ---- -- --- ---- -- ------ really<br>--- ----- -- ----,182424,182423,182104.214,182104,182120.92,182438.334,,51,really
screen,html.Screen,2_1_0_1_52,2022-02-04T11:37:32.928Z,,,,,,,,,,,,,,,,,53,,,,,,,,,,,,,,448.66599999999744,,response,,,,99,,,,,,,Space,keypress(Space),,,,,,,,---- -- ----- -- ------ - ------- --- ----------<br>------------- ------ ------ ---- ---- ------- ----- -- ----<br>-------- ------- -- ---------- --- - --- ----- ----- ----<br>---- --- --- ----- --- ---- ---- ------- ----- ---- -------<br>--- --- -- ----- -- --- ---- -- --- ---- -- ------ ------<br>not ----- -- ----,182888,182887,182421.628,182424,182438.334,182889.396,,52,not
screen,html.Screen,2_1_0_1_53,2022-02-04T11:37:33.240Z,,,,,,,,,,,,,,,,,53,,,,,,,,,,,,,,309.6039999999921,,response,,,,99,,,,,,,Space,keypress(Space),,,,,,,,---- -- ----- -- ------ - ------- --- ----------<br>------------- ------ ------ ---- ---- ------- ----- -- ----<br>-------- ------- -- ---------- --- - --- ----- ----- ----<br>---- --- --- ----- --- ---- ---- ------- ----- ---- -------<br>--- --- -- ----- -- --- ---- -- --- ---- -- ------ ------<br>--- close -- ----,183200,183199,182872.69,182888,182889.396,183206.81,,53,close
screen,html.Screen,2_1_0_1_54,2022-02-04T11:37:33.704Z,,,,,,,,,,,,,,,,,53,,,,,,,,,,,,,,456.1900000000023,,response,,,,99,,,,,,,Space,keypress(Space),,,,,,,,---- -- ----- -- ------ - ------- --- ----------<br>------------- ------ ------ ---- ---- ------- ----- -- ----<br>-------- ------- -- ---------- --- - --- ----- ----- ----<br>---- --- --- ----- --- ---- ---- ------- ----- ---- -------<br>--- --- -- ----- -- --- ---- -- --- ---- -- ------ ------<br>--- ----- at ----,183664,183663,183190.104,183200,183206.81,183674.578,,54,at
screen,html.Screen,2_1_0_1_55,2022-02-04T11:37:34.280Z,,,,,,,,,,,,,,,,,53,,,,,,,,,,,,,,564.4219999999914,,response,,,,99,,,,,,,Space,keypress(Space),,,,,,,,---- -- ----- -- ------ - ------- --- ----------<br>------------- ------ ------ ---- ---- ------- ----- -- ----<br>-------- ------- -- ---------- --- - --- ----- ----- ----<br>---- --- --- ----- --- ---- ---- ------- ----- ---- -------<br>--- --- -- ----- -- --- ---- -- --- ---- -- ------ ------<br>--- ----- -- all.,184240,184239,183657.872,183664,183674.578,184259.288,,55,all.
Item 99,flow.Loop,2_1_0_1,2022-02-04T11:37:34.280Z,,,,,,,,,,,,,,,,,,,,,,,,,,,,,,,18807.37400000001,,completion,,,,,C,,,,,,,,,,,silence,,,,,184240,184239,165297.978,165310,165431.626,184259.288,,,
Question 1,html.Screen,2_1_0_2,2022-02-04T11:37:38.728Z,,,,,,,,,,,,,,,,,,,,,,,,,,,,true,FALSE,,4427.7119999999995,,response,,,,99,C,,,,,,FALSE,click #choice-2,,,,silence,,,,,188688,188687,184225.876,184240,184259.288,188703.084,,,
Question 2,html.Screen,2_1_0_3,2022-02-04T11:37:43.416Z,,,,,,,,,,,,,,,,,,,,,,,,,,,,true,TRUE,,4671.915999999997,,response,,,,99,C,,,,,,TRUE,click #choice-1,,,,silence,,,,,193376,193375,188686.378,188688,188703.084,193397.47,,,
Item 99,flow.Sequence,2_1_0,2022-02-04T11:37:43.416Z,,,,,,,,,,,,,,,,,,,,,,,,,,,,,,,38067.20999999999,,completion,,,,,,,,,,,,,,,,,,,,,193376,193375,155291.084,155289,155307.79,193397.47,,,
Holding screen,html.Screen,2_1_1_0,2022-02-04T11:37:53.432Z,,,,,,,,,,,,,,,,,,,,,,,,,,,,,,,10006.894,,timeout,,,,,,,,,,,,,,,,,,,,,203392,203387.658,193364.058,193376,193397.47,203404.364,,,
screen,html.Screen,2_1_1_1_0,2022-02-04T11:37:54.512Z,,,,,,,,,,,,,,,,,54,,,,,,,,,,,,,,1066.6359999999986,,response,,,,100,,,,,,,Space,keypress(Space),,,,,,,,At --- ---- --- ------ ----- ------- ---- -- --- ------- --<br>------- ---------- ------ -- ----- -- ----- -- ---- ------<br>--- ----- --- --- ------ -------- ----- --- ------ ----- --<br>----- ----- ---------- --- --- ------ ------ ---- -- ------<br>------- --- ------ ----- --- ---- ------- -- ---- --- --<br>------- ------,204472,204471,203387.658,203392,203404.364,204473.548,,0,At
screen,html.Screen,2_1_1_1_1,2022-02-04T11:37:54.871Z,,,,,,,,,,,,,,,,,54,,,,,,,,,,,,,,356.4519999999902,,response,,,,100,,,,,,,Space,keypress(Space),,,,,,,,-- the ---- --- ------ ----- ------- ---- -- --- ------- --<br>------- ---------- ------ -- ----- -- ----- -- ---- ------<br>--- ----- --- --- ------ -------- ----- --- ------ ----- --<br>----- ----- ---------- --- --- ------ ------ ---- -- ------<br>------- --- ------ ----- --- ---- ------- -- ---- --- --<br>------- ------,204831,204830,204456.842,204472,204473.548,204841.08,,1,the
screen,html.Screen,2_1_1_1_2,2022-02-04T11:37:55.088Z,,,,,,,,,,,,,,,,,54,,,,,,,,,,,,,,205.9200000000128,,response,,,,100,,,,,,,Space,keypress(Space),,,,,,,,-- --- time --- ------ ----- ------- ---- -- --- ------- --<br>------- ---------- ------ -- ----- -- ----- -- ---- ------<br>--- ----- --- --- ------ -------- ----- --- ------ ----- --<br>----- ----- ---------- --- --- ------ ------ ---- -- ------<br>------- --- ------ ----- --- ---- ------- -- ---- --- --<br>------- ------,205048,205047,204824.374,204831,204841.08,205058.258,,2,time
screen,html.Screen,2_1_1_1_3,2022-02-04T11:37:55.375Z,,,,,,,,,,,,,,,,,54,,,,,,,,,,,,,,275.74199999999837,,response,,,,100,,,,,,,Space,keypress(Space),,,,,,,,-- --- ---- the ------ ----- ------- ---- -- --- ------- --<br>------- ---------- ------ -- ----- -- ----- -- ---- ------<br>--- ----- --- --- ------ -------- ----- --- ------ ----- --<br>----- ----- ---------- --- --- ------ ------ ---- -- ------<br>------- --- ------ ----- --- ---- ------- -- ---- --- --<br>------- ------,205335,205334,205041.552,205048,205058.258,205342.26,,3,the
screen,html.Screen,2_1_1_1_4,2022-02-04T11:37:55.751Z,,,,,,,,,,,,,,,,,54,,,,,,,,,,,,,,367.7399999999907,,response,,,,100,,,,,,,Space,keypress(Space),,,,,,,,-- --- ---- --- French ----- ------- ---- -- --- ------- --<br>------- ---------- ------ -- ----- -- ----- -- ---- ------<br>--- ----- --- --- ------ -------- ----- --- ------ ----- --<br>----- ----- ---------- --- --- ------ ------ ---- -- ------<br>------- --- ------ ----- --- ---- ------- -- ---- --- --<br>------- ------,205711,205710,205325.554,205335,205342.26,205726.498,,4,French
screen,html.Screen,2_1_1_1_5,2022-02-04T11:37:56.095Z,,,,,,,,,,,,,,,,,54,,,,,,,,,,,,,,327.5020000000077,,response,,,,100,,,,,,,Space,keypress(Space),,,,,,,,-- --- ---- --- ------ crown ------- ---- -- --- ------- --<br>------- ---------- ------ -- ----- -- ----- -- ---- ------<br>--- ----- --- --- ------ -------- ----- --- ------ ----- --<br>----- ----- ---------- --- --- ------ ------ ---- -- ------<br>------- --- ------ ----- --- ---- ------- -- ---- --- --<br>------- ------,206055,206054,205709.792,205711,205726.498,206060.618,,5,crown
screen,html.Screen,2_1_1_1_6,2022-02-04T11:37:56.423Z,,,,,,,,,,,,,,,,,54,,,,,,,,,,,,,,322.38200000001234,,response,,,,100,,,,,,,Space,keypress(Space),,,,,,,,-- --- ---- --- ------ ----- secured ---- -- --- ------- --<br>------- ---------- ------ -- ----- -- ----- -- ---- ------<br>--- ----- --- --- ------ -------- ----- --- ------ ----- --<br>----- ----- ---------- --- --- ------ ------ ---- -- ------<br>------- --- ------ ----- --- ---- ------- -- ---- --- --<br>------- ------,206383,206383,206043.912,206055,206060.618,206394.738,,6,secured
screen,html.Screen,2_1_1_1_7,2022-02-04T11:37:56.775Z,,,,,,,,,,,,,,,,,54,,,,,,,,,,,,,,339.2619999999879,,response,,,,100,,,,,,,Space,keypress(Space),,,,,,,,-- --- ---- --- ------ ----- ------- much -- --- ------- --<br>------- ---------- ------ -- ----- -- ----- -- ---- ------<br>--- ----- --- --- ------ -------- ----- --- ------ ----- --<br>----- ----- ---------- --- --- ------ ------ ---- -- ------<br>------- --- ------ ----- --- ---- ------- -- ---- --- --<br>------- ------,206735,206734,206378.032,206383,206394.738,206745.564,,7,much
screen,html.Screen,2_1_1_1_8,2022-02-04T11:37:57.111Z,,,,,,,,,,,,,,,,,54,,,,,,,,,,,,,,324.43599999998696,,response,,,,100,,,,,,,Space,keypress(Space),,,,,,,,-- --- ---- --- ------ ----- ------- ---- of --- ------- --<br>------- ---------- ------ -- ----- -- ----- -- ---- ------<br>--- ----- --- --- ------ -------- ----- --- ------ ----- --<br>----- ----- ---------- --- --- ------ ------ ---- -- ------<br>------- --- ------ ----- --- ---- ------- -- ---- --- --<br>------- ------,207071,207070,206728.858,206735,206745.564,207079.684,,8,of
screen,html.Screen,2_1_1_1_9,2022-02-04T11:37:57.384Z,,,,,,,,,,,,,,,,,54,,,,,,,,,,,,,,263.3159999999916,,response,,,,100,,,,,,,Space,keypress(Space),,,,,,,,-- --- ---- --- ------ ----- ------- ---- -- its ------- --<br>------- ---------- ------ -- ----- -- ----- -- ---- ------<br>--- ----- --- --- ------ -------- ----- --- ------ ----- --<br>----- ----- ---------- --- --- ------ ------ ---- -- ------<br>------- --- ------ ----- --- ---- ------- -- ---- --- --<br>------- ------,207344,207343,207062.978,207071,207079.684,207346.98,,9,its
screen,html.Screen,2_1_1_1_10,2022-02-04T11:37:57.591Z,,,,,,,,,,,,,,,,,54,,,,,,,,,,,,,,203.01999999998952,,response,,,,100,,,,,,,Space,keypress(Space),,,,,,,,-- --- ---- --- ------ ----- ------- ---- -- --- revenue --<br>------- ---------- ------ -- ----- -- ----- -- ---- ------<br>--- ----- --- --- ------ -------- ----- --- ------ ----- --<br>----- ----- ---------- --- --- ------ ------ ---- -- ------<br>------- --- ------ ----- --- ---- ------- -- ---- --- --<br>------- ------,207551,207550,207330.274,207344,207346.98,207564.158,,10,revenue
screen,html.Screen,2_1_1_1_11,2022-02-04T11:37:57.807Z,,,,,,,,,,,,,,,,,54,,,,,,,,,,,,,,201.8420000000042,,response,,,,100,,,,,,,Space,keypress(Space),,,,,,,,-- --- ---- --- ------ ----- ------- ---- -- --- ------- by<br>------- ---------- ------ -- ----- -- ----- -- ---- ------<br>--- ----- --- --- ------ -------- ----- --- ------ ----- --<br>----- ----- ---------- --- --- ------ ------ ---- -- ------<br>------- --- ------ ----- --- ---- ------- -- ---- --- --<br>------- ------,207767,207766,207547.452,207551,207564.158,207781.336,,11,by
screen,html.Screen,2_1_1_1_12,2022-02-04T11:37:58.144Z,,,,,,,,,,,,,,,,,54,,,,,,,,,,,,,,321.66399999998976,,response,,,,100,,,,,,,Space,keypress(Space),,,,,,,,-- --- ---- --- ------ ----- ------- ---- -- --- ------- --<br>issuing ---------- ------ -- ----- -- ----- -- ---- ------<br>--- ----- --- --- ------ -------- ----- --- ------ ----- --<br>----- ----- ---------- --- --- ------ ------ ---- -- ------<br>------- --- ------ ----- --- ---- ------- -- ---- --- --<br>------- ------,208104,208103,207764.63,207767,207781.336,208115.456,,12,issuing
screen,html.Screen,2_1_1_1_13,2022-02-04T11:37:58.464Z,,,,,,,,,,,,,,,,,54,,,,,,,,,,,,,,306.5439999999944,,response,,,,100,,,,,,,Space,keypress(Space),,,,,,,,-- --- ---- --- ------ ----- ------- ---- -- --- ------- --<br>------- government ------ -- ----- -- ----- -- ---- ------<br>--- ----- --- --- ------ -------- ----- --- ------ ----- --<br>----- ----- ---------- --- --- ------ ------ ---- -- ------<br>------- --- ------ ----- --- ---- ------- -- ---- --- --<br>------- ------,208424,208422,208098.75,208104,208115.456,208432.87,,13,government
screen,html.Screen,2_1_1_1_14,2022-02-04T11:37:58.751Z,,,,,,,,,,,,,,,,,54,,,,,,,,,,,,,,277.13000000000466,,response,,,,100,,,,,,,Space,keypress(Space),,,,,,,,-- --- ---- --- ------ ----- ------- ---- -- --- ------- --<br>------- ---------- bonds. -- ----- -- ----- -- ---- ------<br>--- ----- --- --- ------ -------- ----- --- ------ ----- --<br>----- ----- ---------- --- --- ------ ------ ---- -- ------<br>------- --- ------ ----- --- ---- ------- -- ---- --- --<br>------- ------,208711,208710,208416.164,208424,208432.87,208716.872,,14,bonds.
screen,html.Screen,2_1_1_1_15,2022-02-04T11:37:59.040Z,,,,,,,,,,,,,,,,,54,,,,,,,,,,,,,,282.127999999997,,response,,,,100,,,,,,,Space,keypress(Space),,,,,,,,-- --- ---- --- ------ ----- ------- ---- -- --- ------- --<br>------- ---------- ------ In ----- -- ----- -- ---- ------<br>--- ----- --- --- ------ -------- ----- --- ------ ----- --<br>----- ----- ---------- --- --- ------ ------ ---- -- ------<br>------- --- ------ ----- --- ---- ------- -- ---- --- --<br>------- ------,209000,208999,208700.166,208711,208716.872,209017.58,,15,In
screen,html.Screen,2_1_1_1_16,2022-02-04T11:37:59.416Z,,,,,,,,,,,,,,,,,54,,,,,,,,,,,,,,357.4200000000128,,response,,,,100,,,,,,,Space,keypress(Space),,,,,,,,"-- --- ---- --- ------ ----- ------- ---- -- --- ------- --<br>------- ---------- ------ -- 1727, -- ----- -- ---- ------<br>--- ----- --- --- ------ -------- ----- --- ------ ----- --<br>----- ----- ---------- --- --- ------ ------ ---- -- ------<br>------- --- ------ ----- --- ---- ------- -- ---- --- --<br>------- ------",209376,209375,209000.874,209000,209017.58,209385.112,,16,"1727,"
screen,html.Screen,2_1_1_1_17,2022-02-04T11:37:59.887Z,,,,,,,,,,,,,,,,,54,,,,,,,,,,,,,,461.8880000000063,,response,,,,100,,,,,,,Space,keypress(Space),,,,,,,,-- --- ---- --- ------ ----- ------- ---- -- --- ------- --<br>------- ---------- ------ -- ----- in ----- -- ---- ------<br>--- ----- --- --- ------ -------- ----- --- ------ ----- --<br>----- ----- ---------- --- --- ------ ------ ---- -- ------<br>------- --- ------ ----- --- ---- ------- -- ---- --- --<br>------- ------,209847,209847,209368.406,209376,209385.112,209852.88,,17,in
screen,html.Screen,2_1_1_1_18,2022-02-04T11:38:00.208Z,,,,,,,,,,,,,,,,,54,,,,,,,,,,,,,,314.11999999999534,,response,,,,100,,,,,,,Space,keypress(Space),,,,,,,,-- --- ---- --- ------ ----- ------- ---- -- --- ------- --<br>------- ---------- ------ -- ----- -- order -- ---- ------<br>--- ----- --- --- ------ -------- ----- --- ------ ----- --<br>----- ----- ---------- --- --- ------ ------ ---- -- ------<br>------- --- ------ ----- --- ---- ------- -- ---- --- --<br>------- ------,210168,210167,209836.174,209848,209852.88,210170.294,,18,order
screen,html.Screen,2_1_1_1_19,2022-02-04T11:38:00.536Z,,,,,,,,,,,,,,,,,54,,,,,,,,,,,,,,324.7060000000056,,response,,,,100,,,,,,,Space,keypress(Space),,,,,,,,-- --- ---- --- ------ ----- ------- ---- -- --- ------- --<br>------- ---------- ------ -- ----- -- ----- to ---- ------<br>--- ----- --- --- ------ -------- ----- --- ------ ----- --<br>----- ----- ---------- --- --- ------ ------ ---- -- ------<br>------- --- ------ ----- --- ---- ------- -- ---- --- --<br>------- ------,210496,210495,210153.588,210168,210170.294,210504.414,,19,to
screen,html.Screen,2_1_1_1_20,2022-02-04T11:38:00.815Z,,,,,,,,,,,,,,,,,54,,,,,,,,,,,,,,269.58600000001024,,response,,,,100,,,,,,,Space,keypress(Space),,,,,,,,-- --- ---- --- ------ ----- ------- ---- -- --- ------- --<br>------- ---------- ------ -- ----- -- ----- -- save ------<br>--- ----- --- --- ------ -------- ----- --- ------ ----- --<br>----- ----- ---------- --- --- ------ ------ ---- -- ------<br>------- --- ------ ----- --- ---- ------- -- ---- --- --<br>------- ------,210775,210774,210487.708,210496,210504.414,210788.416,,20,save
screen,html.Screen,2_1_1_1_21,2022-02-04T11:38:01.007Z,,,,,,,,,,,,,,,,,54,,,,,,,,,,,,,,178.58400000000256,,response,,,,100,,,,,,,Space,keypress(Space),,,,,,,,"-- --- ---- --- ------ ----- ------- ---- -- --- ------- --<br>------- ---------- ------ -- ----- -- ----- -- ---- money,<br>--- ----- --- --- ------ -------- ----- --- ------ ----- --<br>----- ----- ---------- --- --- ------ ------ ---- -- ------<br>------- --- ------ ----- --- ---- ------- -- ---- --- --<br>------- ------",210967,210967,210771.71,210775,210788.416,210972.182,,21,"money,"
screen,html.Screen,2_1_1_1_22,2022-02-04T11:38:01.344Z,,,,,,,,,,,,,,,,,54,,,,,,,,,,,,,,330.8179999999993,,response,,,,100,,,,,,,Space,keypress(Space),,,,,,,,-- --- ---- --- ------ ----- ------- ---- -- --- ------- --<br>------- ---------- ------ -- ----- -- ----- -- ---- ------<br>the ----- --- --- ------ -------- ----- --- ------ ----- --<br>----- ----- ---------- --- --- ------ ------ ---- -- ------<br>------- --- ------ ----- --- ---- ------- -- ---- --- --<br>------- ------,211304,211303,210955.476,210968,210972.182,211306.302,,22,the
screen,html.Screen,2_1_1_1_23,2022-02-04T11:38:01.704Z,,,,,,,,,,,,,,,,,54,,,,,,,,,,,,,,356.69800000000396,,response,,,,100,,,,,,,Space,keypress(Space),,,,,,,,-- --- ---- --- ------ ----- ------- ---- -- --- ------- --<br>------- ---------- ------ -- ----- -- ----- -- ---- ------<br>--- state --- --- ------ -------- ----- --- ------ ----- --<br>----- ----- ---------- --- --- ------ ------ ---- -- ------<br>------- --- ------ ----- --- ---- ------- -- ---- --- --<br>------- ------,211664,211663,211289.596,211304,211306.302,211673.834,,23,state
screen,html.Screen,2_1_1_1_24,2022-02-04T11:38:01.975Z,,,,,,,,,,,,,,,,,54,,,,,,,,,,,,,,260.16599999999744,,response,,,,100,,,,,,,Space,keypress(Space),,,,,,,,-- --- ---- --- ------ ----- ------- ---- -- --- ------- --<br>------- ---------- ------ -- ----- -- ----- -- ---- ------<br>--- ----- cut --- ------ -------- ----- --- ------ ----- --<br>----- ----- ---------- --- --- ------ ------ ---- -- ------<br>------- --- ------ ----- --- ---- ------- -- ---- --- --<br>------- ------,211935,211934,211657.128,211664,211673.834,211941.13,,24,cut
screen,html.Screen,2_1_1_1_25,2022-02-04T11:38:02.224Z,,,,,,,,,,,,,,,,,54,,,,,,,,,,,,,,241.86999999999534,,response,,,,100,,,,,,,Space,keypress(Space),,,,,,,,-- --- ---- --- ------ ----- ------- ---- -- --- ------- --<br>------- ---------- ------ -- ----- -- ----- -- ---- ------<br>--- ----- --- the ------ -------- ----- --- ------ ----- --<br>----- ----- ---------- --- --- ------ ------ ---- -- ------<br>------- --- ------ ----- --- ---- ------- -- ---- --- --<br>------- ------,212184,212183,211924.424,211935,211941.13,212191.72,,25,the
screen,html.Screen,2_1_1_1_26,2022-02-04T11:38:02.552Z,,,,,,,,,,,,,,,,,54,,,,,,,,,,,,,,319.27999999999884,,response,,,,100,,,,,,,Space,keypress(Space),,,,,,,,-- --- ---- --- ------ ----- ------- ---- -- --- ------- --<br>------- ---------- ------ -- ----- -- ----- -- ---- ------<br>--- ----- --- --- bonds' -------- ----- --- ------ ----- --<br>----- ----- ---------- --- --- ------ ------ ---- -- ------<br>------- --- ------ ----- --- ---- ------- -- ---- --- --<br>------- ------,212512,212511,212175.014,212184,212191.72,212525.84,,26,bonds'
screen,html.Screen,2_1_1_1_27,2022-02-04T11:38:02.744Z,,,,,,,,,,,,,,,,,54,,,,,,,,,,,,,,177.1600000000035,,response,,,,100,,,,,,,Space,keypress(Space),,,,,,,,-- --- ---- --- ------ ----- ------- ---- -- --- ------- --<br>------- ---------- ------ -- ----- -- ----- -- ---- ------<br>--- ----- --- --- ------ interest ----- --- ------ ----- --<br>----- ----- ---------- --- --- ------ ------ ---- -- ------<br>------- --- ------ ----- --- ---- ------- -- ---- --- --<br>------- ------,212704,212703,212509.134,212512,212525.84,212709.606,,27,interest
screen,html.Screen,2_1_1_1_28,2022-02-04T11:38:03.000Z,,,,,,,,,,,,,,,,,54,,,,,,,,,,,,,,249.39400000000023,,response,,,,100,,,,,,,Space,keypress(Space),,,,,,,,-- --- ---- --- ------ ----- ------- ---- -- --- ------- --<br>------- ---------- ------ -- ----- -- ----- -- ---- ------<br>--- ----- --- --- ------ -------- rate. --- ------ ----- --<br>----- ----- ---------- --- --- ------ ------ ---- -- ------<br>------- --- ------ ----- --- ---- ------- -- ---- --- --<br>------- ------,212960,212959,212692.9,212704,212709.606,212976.902,,28,rate.
screen,html.Screen,2_1_1_1_29,2022-02-04T11:38:03.352Z,,,,,,,,,,,,,,,,,54,,,,,,,,,,,,,,334.09799999999814,,response,,,,100,,,,,,,Space,keypress(Space),,,,,,,,-- --- ---- --- ------ ----- ------- ---- -- --- ------- --<br>------- ---------- ------ -- ----- -- ----- -- ---- ------<br>--- ----- --- --- ------ -------- ----- The ------ ----- --<br>----- ----- ---------- --- --- ------ ------ ---- -- ------<br>------- --- ------ ----- --- ---- ------- -- ---- --- --<br>------- ------,213312,213311,212960.196,212960,212976.902,213327.728,,29,The
screen,html.Screen,2_1_1_1_30,2022-02-04T11:38:03.688Z,,,,,,,,,,,,,,,,,54,,,,,,,,,,,,,,319.2719999999972,,response,,,,100,,,,,,,Space,keypress(Space),,,,,,,,-- --- ---- --- ------ ----- ------- ---- -- --- ------- --<br>------- ---------- ------ -- ----- -- ----- -- ---- ------<br>--- ----- --- --- ------ -------- ----- --- market ----- --<br>----- ----- ---------- --- --- ------ ------ ---- -- ------<br>------- --- ------ ----- --- ---- ------- -- ---- --- --<br>------- ------,213648,213647,213311.022,213312,213327.728,213661.848,,30,market
screen,html.Screen,2_1_1_1_31,2022-02-04T11:38:04.016Z,,,,,,,,,,,,,,,,,54,,,,,,,,,,,,,,313.15200000000186,,response,,,,100,,,,,,,Space,keypress(Space),,,,,,,,-- --- ---- --- ------ ----- ------- ---- -- --- ------- --<br>------- ---------- ------ -- ----- -- ----- -- ---- ------<br>--- ----- --- --- ------ -------- ----- --- ------ value --<br>----- ----- ---------- --- --- ------ ------ ---- -- ------<br>------- --- ------ ----- --- ---- ------- -- ---- --- --<br>------- ------,213976,213975,213645.142,213648,213661.848,213979.262,,31,value
screen,html.Screen,2_1_1_1_32,2022-02-04T11:38:04.336Z,,,,,,,,,,,,,,,,,54,,,,,,,,,,,,,,315.7380000000121,,response,,,,100,,,,,,,Space,keypress(Space),,,,,,,,-- --- ---- --- ------ ----- ------- ---- -- --- ------- --<br>------- ---------- ------ -- ----- -- ----- -- ---- ------<br>--- ----- --- --- ------ -------- ----- --- ------ ----- of<br>----- ----- ---------- --- --- ------ ------ ---- -- ------<br>------- --- ------ ----- --- ---- ------- -- ---- --- --<br>------- ------,214296,214295,213962.556,213976,213979.262,214313.382,,32,of
screen,html.Screen,2_1_1_1_33,2022-02-04T11:38:04.536Z,,,,,,,,,,,,,,,,,54,,,,,,,,,,,,,,181.61799999998766,,response,,,,100,,,,,,,Space,keypress(Space),,,,,,,,-- --- ---- --- ------ ----- ------- ---- -- --- ------- --<br>------- ---------- ------ -- ----- -- ----- -- ---- ------<br>--- ----- --- --- ------ -------- ----- --- ------ ----- --<br>these ----- ---------- --- --- ------ ------ ---- -- ------<br>------- --- ------ ----- --- ---- ------- -- ---- --- --<br>------- ------,214496,214495,214296.676,214296,214313.382,214513.854,,33,these
screen,html.Screen,2_1_1_1_34,2022-02-04T11:38:04.768Z,,,,,,,,,,,,,,,,,54,,,,,,,,,,,,,,213.14600000000792,,response,,,,100,,,,,,,Space,keypress(Space),,,,,,,,-- --- ---- --- ------ ----- ------- ---- -- --- ------- --<br>------- ---------- ------ -- ----- -- ----- -- ---- ------<br>--- ----- --- --- ------ -------- ----- --- ------ ----- --<br>----- bonds ---------- --- --- ------ ------ ---- -- ------<br>------- --- ------ ----- --- ---- ------- -- ---- --- --<br>------- ------,214728,214727,214497.148,214496,214513.854,214731.032,,34,bonds
screen,html.Screen,2_1_1_1_35,2022-02-04T11:38:05.072Z,,,,,,,,,,,,,,,,,54,,,,,,,,,,,,,,299.9679999999935,,response,,,,100,,,,,,,Space,keypress(Space),,,,,,,,"-- --- ---- --- ------ ----- ------- ---- -- --- ------- --<br>------- ---------- ------ -- ----- -- ----- -- ---- ------<br>--- ----- --- --- ------ -------- ----- --- ------ ----- --<br>----- ----- plummeted, --- --- ------ ------ ---- -- ------<br>------- --- ------ ----- --- ---- ------- -- ---- --- --<br>------- ------",215032,215031,214714.326,214728,214731.032,215048.446,,35,"plummeted,"
screen,html.Screen,2_1_1_1_36,2022-02-04T11:38:05.424Z,,,,,,,,,,,,,,,,,54,,,,,,,,,,,,,,334.5540000000037,,response,,,,100,,,,,,,Space,keypress(Space),,,,,,,,-- --- ---- --- ------ ----- ------- ---- -- --- ------- --<br>------- ---------- ------ -- ----- -- ----- -- ---- ------<br>--- ----- --- --- ------ -------- ----- --- ------ ----- --<br>----- ----- ---------- and --- ------ ------ ---- -- ------<br>------- --- ------ ----- --- ---- ------- -- ---- --- --<br>------- ------,215384,215383,215031.74,215032,215048.446,215399.272,,36,and
screen,html.Screen,2_1_1_1_37,2022-02-04T11:38:05.688Z,,,,,,,,,,,,,,,,,54,,,,,,,,,,,,,,247.7280000000028,,response,,,,100,,,,,,,Space,keypress(Space),,,,,,,,-- --- ---- --- ------ ----- ------- ---- -- --- ------- --<br>------- ---------- ------ -- ----- -- ----- -- ---- ------<br>--- ----- --- --- ------ -------- ----- --- ------ ----- --<br>----- ----- ---------- --- the ------ ------ ---- -- ------<br>------- --- ------ ----- --- ---- ------- -- ---- --- --<br>------- ------,215648,215647,215382.566,215384,215399.272,215649.862,,37,the
screen,html.Screen,2_1_1_1_38,2022-02-04T11:38:05.944Z,,,,,,,,,,,,,,,,,54,,,,,,,,,,,,,,253.1380000000063,,response,,,,100,,,,,,,Space,keypress(Space),,,,,,,,-- --- ---- --- ------ ----- ------- ---- -- --- ------- --<br>------- ---------- ------ -- ----- -- ----- -- ---- ------<br>--- ----- --- --- ------ -------- ----- --- ------ ----- --<br>----- ----- ---------- --- --- market ------ ---- -- ------<br>------- --- ------ ----- --- ---- ------- -- ---- --- --<br>------- ------,215904,215903,215633.156,215648,215649.862,215917.158,,38,market
screen,html.Screen,2_1_1_1_39,2022-02-04T11:38:06.226Z,,,,,,,,,,,,,,,,,54,,,,,,,,,,,,,,266.8420000000042,,response,,,,100,,,,,,,Space,keypress(Space),,,,,,,,-- --- ---- --- ------ ----- ------- ---- -- --- ------- --<br>------- ---------- ------ -- ----- -- ----- -- ---- ------<br>--- ----- --- --- ------ -------- ----- --- ------ ----- --<br>----- ----- ---------- --- --- ------ became ---- -- ------<br>------- --- ------ ----- --- ---- ------- -- ---- --- --<br>------- ------,216186,216184,215900.452,215904,215917.158,216201.16,,39,became
screen,html.Screen,2_1_1_1_40,2022-02-04T11:38:06.480Z,,,,,,,,,,,,,,,,,54,,,,,,,,,,,,,,237.8399999999965,,response,,,,100,,,,,,,Space,keypress(Space),,,,,,,,-- --- ---- --- ------ ----- ------- ---- -- --- ------- --<br>------- ---------- ------ -- ----- -- ----- -- ---- ------<br>--- ----- --- --- ------ -------- ----- --- ------ ----- --<br>----- ----- ---------- --- --- ------ ------ wary -- ------<br>------- --- ------ ----- --- ---- ------- -- ---- --- --<br>------- ------,216440,216439,216184.454,216186,216201.16,216451.75,,40,wary
screen,html.Screen,2_1_1_1_41,2022-02-04T11:38:06.808Z,,,,,,,,,,,,,,,,,54,,,,,,,,,,,,,,315.25,,response,,,,100,,,,,,,Space,keypress(Space),,,,,,,,-- --- ---- --- ------ ----- ------- ---- -- --- ------- --<br>------- ---------- ------ -- ----- -- ----- -- ---- ------<br>--- ----- --- --- ------ -------- ----- --- ------ ----- --<br>----- ----- ---------- --- --- ------ ------ ---- of ------<br>------- --- ------ ----- --- ---- ------- -- ---- --- --<br>------- ------,216768,216767,216435.044,216440,216451.75,216769.164,,41,of
screen,html.Screen,2_1_1_1_42,2022-02-04T11:38:07.072Z,,,,,,,,,,,,,,,,,54,,,,,,,,,,,,,,261.83600000001024,,response,,,,100,,,,,,,Space,keypress(Space),,,,,,,,-- --- ---- --- ------ ----- ------- ---- -- --- ------- --<br>------- ---------- ------ -- ----- -- ----- -- ---- ------<br>--- ----- --- --- ------ -------- ----- --- ------ ----- --<br>----- ----- ---------- --- --- ------ ------ ---- -- French<br>------- --- ------ ----- --- ---- ------- -- ---- --- --<br>------- ------,217032,217031,216752.458,216768,216769.164,217036.46,,42,French
screen,html.Screen,2_1_1_1_43,2022-02-04T11:38:07.352Z,,,,,,,,,,,,,,,,,54,,,,,,,,,,,,,,274.54000000000815,,response,,,,100,,,,,,,Space,keypress(Space),,,,,,,,-- --- ---- --- ------ ----- ------- ---- -- --- ------- --<br>------- ---------- ------ -- ----- -- ----- -- ---- ------<br>--- ----- --- --- ------ -------- ----- --- ------ ----- --<br>----- ----- ---------- --- --- ------ ------ ---- -- ------<br>credit. --- ------ ----- --- ---- ------- -- ---- --- --<br>------- ------,217312,217311,217019.754,217032,217036.46,217320.462,,43,credit.
screen,html.Screen,2_1_1_1_44,2022-02-04T11:38:07.600Z,,,,,,,,,,,,,,,,,54,,,,,,,,,,,,,,238.53800000000047,,response,,,,100,,,,,,,Space,keypress(Space),,,,,,,,-- --- ---- --- ------ ----- ------- ---- -- --- ------- --<br>------- ---------- ------ -- ----- -- ----- -- ---- ------<br>--- ----- --- --- ------ -------- ----- --- ------ ----- --<br>----- ----- ---------- --- --- ------ ------ ---- -- ------<br>------- The ------ ----- --- ---- ------- -- ---- --- --<br>------- ------,217560,217559,217303.756,217312,217320.462,217571.052,,44,The
screen,html.Screen,2_1_1_1_45,2022-02-04T11:38:07.880Z,,,,,,,,,,,,,,,,,54,,,,,,,,,,,,,,267.94800000000396,,response,,,,100,,,,,,,Space,keypress(Space),,,,,,,,-- --- ---- --- ------ ----- ------- ---- -- --- ------- --<br>------- ---------- ------ -- ----- -- ----- -- ---- ------<br>--- ----- --- --- ------ -------- ----- --- ------ ----- --<br>----- ----- ---------- --- --- ------ ------ ---- -- ------<br>------- --- French ----- --- ---- ------- -- ---- --- --<br>------- ------,217840,217839,217554.346,217560,217571.052,217855.054,,45,French
screen,html.Screen,2_1_1_1_46,2022-02-04T11:38:08.160Z,,,,,,,,,,,,,,,,,54,,,,,,,,,,,,,,263.9459999999963,,response,,,,100,,,,,,,Space,keypress(Space),,,,,,,,-- --- ---- --- ------ ----- ------- ---- -- --- ------- --<br>------- ---------- ------ -- ----- -- ----- -- ---- ------<br>--- ----- --- --- ------ -------- ----- --- ------ ----- --<br>----- ----- ---------- --- --- ------ ------ ---- -- ------<br>------- --- ------ state --- ---- ------- -- ---- --- --<br>------- ------,218120,218119,217838.348,217840,217855.054,218122.35,,46,state
screen,html.Screen,2_1_1_1_47,2022-02-04T11:38:08.480Z,,,,,,,,,,,,,,,,,54,,,,,,,,,,,,,,316.6499999999942,,response,,,,100,,,,,,,Space,keypress(Space),,,,,,,,-- --- ---- --- ------ ----- ------- ---- -- --- ------- --<br>------- ---------- ------ -- ----- -- ----- -- ---- ------<br>--- ----- --- --- ------ -------- ----- --- ------ ----- --<br>----- ----- ---------- --- --- ------ ------ ---- -- ------<br>------- --- ------ ----- was ---- ------- -- ---- --- --<br>------- ------,218440,218439,218105.644,218120,218122.35,218456.47,,47,was
screen,html.Screen,2_1_1_1_48,2022-02-04T11:38:08.808Z,,,,,,,,,,,,,,,,,54,,,,,,,,,,,,,,310.52999999999884,,response,,,,100,,,,,,,Space,keypress(Space),,,,,,,,-- --- ---- --- ------ ----- ------- ---- -- --- ------- --<br>------- ---------- ------ -- ----- -- ----- -- ---- ------<br>--- ----- --- --- ------ -------- ----- --- ------ ----- --<br>----- ----- ---------- --- --- ------ ------ ---- -- ------<br>------- --- ------ ----- --- left ------- -- ---- --- --<br>------- ------,218768,218767,218439.764,218440,218456.47,218773.884,,48,left
screen,html.Screen,2_1_1_1_49,2022-02-04T11:38:09.096Z,,,,,,,,,,,,,,,,,54,,,,,,,,,,,,,,281.1160000000091,,response,,,,100,,,,,,,Space,keypress(Space),,,,,,,,-- --- ---- --- ------ ----- ------- ---- -- --- ------- --<br>------- ---------- ------ -- ----- -- ----- -- ---- ------<br>--- ----- --- --- ------ -------- ----- --- ------ ----- --<br>----- ----- ---------- --- --- ------ ------ ---- -- ------<br>------- --- ------ ----- --- ---- without -- ---- --- --<br>------- ------,219056,219055,218757.178,218768,218773.884,219057.886,,49,without
screen,html.Screen,2_1_1_1_50,2022-02-04T11:38:09.344Z,,,,,,,,,,,,,,,,,54,,,,,,,,,,,,,,245.1140000000014,,response,,,,100,,,,,,,Space,keypress(Space),,,,,,,,-- --- ---- --- ------ ----- ------- ---- -- --- ------- --<br>------- ---------- ------ -- ----- -- ----- -- ---- ------<br>--- ----- --- --- ------ -------- ----- --- ------ ----- --<br>----- ----- ---------- --- --- ------ ------ ---- -- ------<br>------- --- ------ ----- --- ---- ------- an ---- --- --<br>------- ------,219304,219303,219041.18,219056,219057.886,219308.476,,50,an
screen,html.Screen,2_1_1_1_51,2022-02-04T11:38:09.608Z,,,,,,,,,,,,,,,,,54,,,,,,,,,,,,,,258.5240000000049,,response,,,,100,,,,,,,Space,keypress(Space),,,,,,,,-- --- ---- --- ------ ----- ------- ---- -- --- ------- --<br>------- ---------- ------ -- ----- -- ----- -- ---- ------<br>--- ----- --- --- ------ -------- ----- --- ------ ----- --<br>----- ----- ---------- --- --- ------ ------ ---- -- ------<br>------- --- ------ ----- --- ---- ------- -- easy --- --<br>------- ------,219568,219567,219291.77,219304,219308.476,219575.772,,51,easy
screen,html.Screen,2_1_1_1_52,2022-02-04T11:38:09.880Z,,,,,,,,,,,,,,,,,54,,,,,,,,,,,,,,263.2280000000028,,response,,,,100,,,,,,,Space,keypress(Space),,,,,,,,-- --- ---- --- ------ ----- ------- ---- -- --- ------- --<br>------- ---------- ------ -- ----- -- ----- -- ---- ------<br>--- ----- --- --- ------ -------- ----- --- ------ ----- --<br>----- ----- ---------- --- --- ------ ------ ---- -- ------<br>------- --- ------ ----- --- ---- ------- -- ---- way --<br>------- ------,219840,219839,219559.066,219568,219575.772,219843.068,,52,way
screen,html.Screen,2_1_1_1_53,2022-02-04T11:38:10.176Z,,,,,,,,,,,,,,,,,54,,,,,,,,,,,,,,291.9320000000007,,response,,,,100,,,,,,,Space,keypress(Space),,,,,,,,-- --- ---- --- ------ ----- ------- ---- -- --- ------- --<br>------- ---------- ------ -- ----- -- ----- -- ---- ------<br>--- ----- --- --- ------ -------- ----- --- ------ ----- --<br>----- ----- ---------- --- --- ------ ------ ---- -- ------<br>------- --- ------ ----- --- ---- ------- -- ---- --- of<br>------- ------,220136,220135,219826.362,219840,219843.068,220143.776,,53,of
screen,html.Screen,2_1_1_1_54,2022-02-04T11:38:10.520Z,,,,,,,,,,,,,,,,,54,,,,,,,,,,,,,,335.2239999999874,,response,,,,100,,,,,,,Space,keypress(Space),,,,,,,,-- --- ---- --- ------ ----- ------- ---- -- --- ------- --<br>------- ---------- ------ -- ----- -- ----- -- ---- ------<br>--- ----- --- --- ------ -------- ----- --- ------ ----- --<br>----- ----- ---------- --- --- ------ ------ ---- -- ------<br>------- --- ------ ----- --- ---- ------- -- ---- --- --<br>raising ------,220480,220479,220127.07,220136,220143.776,220494.602,,54,raising
screen,html.Screen,2_1_1_1_55,2022-02-04T11:38:10.952Z,,,,,,,,,,,,,,,,,54,,,,,,,,,,,,,,416.3979999999865,,response,,,,100,,,,,,,Space,keypress(Space),,,,,,,,-- --- ---- --- ------ ----- ------- ---- -- --- ------- --<br>------- ---------- ------ -- ----- -- ----- -- ---- ------<br>--- ----- --- --- ------ -------- ----- --- ------ ----- --<br>----- ----- ---------- --- --- ------ ------ ---- -- ------<br>------- --- ------ ----- --- ---- ------- -- ---- --- --<br>------- money.,220912,220911,220477.896,220480,220494.602,220928.958,,55,money.
Item 100,flow.Loop,2_1_1_1,2022-02-04T11:38:10.952Z,,,,,,,,,,,,,,,,,,,,,,,,,,,,,,,17506.636,,completion,,,,,C,,,,,,,,,,,silence,,,,,220912,220911,203387.658,203392,203404.364,220928.958,,,
Question 1,html.Screen,2_1_1_2,2022-02-04T11:38:14.056Z,,,,,,,,,,,,,,,,,,,,,,,,,,,,true,TRUE,,3086.0419999999867,,response,,,,100,C,,,,,,TRUE,click #choice-1,,,,silence,,,,,224016,224015,220912.252,220912,220928.958,224019.568,,,
Question 2,html.Screen,2_1_1_3,2022-02-04T11:38:19.136Z,,,,,,,,,,,,,,,,,,,,,,,,,,,,false,FALSE,,5075.432000000001,,response,,,,100,C,,,,,,TRUE,click #choice-1,,,,silence,,,,,229096,229095,224002.862,224016,224019.568,229098.192,,,
Item 100,flow.Sequence,2_1_1,2022-02-04T11:38:19.136Z,,,,,,,,,,,,,,,,,,,,,,,,,,,,,,,35697.53,,completion,,,,,,,,,,,,,,,,,,,,,229096,229095,193364.058,193376,193397.47,229098.192,,,
End of Practice,html.Page,2_1_2,2022-02-04T11:38:24.313Z,,,,,,,,,,,,,,,,,,,,,,,,,,,,,,,5173.80799999999,,form submission,,,,,,,,,,,,,,,,,,,,,234273,234272,229081.486,229096,229098.192,234277.052,,,
Practice,flow.Sequence,2_1,2022-02-04T11:38:24.313Z,,,,,,,,,,,,,,,,,,,,,,,,,,,,,,,78964.20999999999,,completion,,,,,,,,,,,,,,,,,,,,,234273,234272,155291.084,155289,155307.79,234277.052,,,
Trap_instruction,html.Page,2_2_0,2022-02-04T11:38:28.761Z,,,,,,,,,,,,,,,,,,,,,,,,,,,,,,,4442.948000000004,,form submission,,,,,,,,,,,,,,,,,,,,,238721,238720,234260.346,234273,234277.052,238887.908,,,
trap_trial,html.Screen,2_2_1,2022-02-04T11:38:32.296Z,,,,,,,,,,,,,,,,,,,,,,,,,,,,true,1,,3367.092000000004,,response,,,,,,,,,,,1,click #choice-1,,,,,,,,,242256,242255,238704.142,238721,238887.908,242262.52,,,
end of trap trial,html.Page,2_2_2,2022-02-04T11:38:33.858Z,,,,,,,,,,,,,,,,,,,,,,,,,,,,,,,1555.4800000000105,,form submission,,,,,,,,,,,,,,,,,,,,,243818,243818,242245.814,242256,242262.52,243816.178,,,
Trap 1,flow.Sequence,2_2,2022-02-04T11:38:33.859Z,,,,,,,,,,,,,,,,,,,,,,,,,,,,,,,9540.948000000004,,completion,,,,,,,,,,,,,,,,,,,,,243819,243818,234260.346,234273,234277.052,243816.178,,,
Standby,html.Page,2_3_0,2022-02-04T11:38:41.842Z,,,,,,,,,,,,,,,,,,,,,,,,,,,,,,,8002.173999999999,,timeout,,,,,,,,,,,,,,,,,,,,,251802,251801.646,243799.472,243819,243816.178,251818.352,,,
Holding screen,html.Screen,2_3_1_0_0,2022-02-04T11:38:48.842Z,,,,,,,,,,,,,,,,,,,,,,,,,,,,,,,6999.813999999984,,timeout,,,,,,,,,,,,,,,,,,,,,258802,258801.46,251801.646,251802,251818.352,258818.166,,,
screen,html.Screen,2_3_1_0_1_0,2022-02-04T11:38:50.009Z,,,,,,,,,,,,,,,,,11,,,,,,,,,,,,,,1149.8340000000026,,response,,,,4,C,,,,,,Space,keypress(Space),,,,instrumental,,,,Known -- ---- --- -- --- -------- ------------ ---------- --<br>- ------- ------ --------- -- ------------ -- --- ---- -----<br>------ ---- ---- ------ ------ ------- --- ----- ---------<br>---- --- -------- -------- --- --- -- ------- --- --- -----<br>-- --- ------ ------- --- --- -------- ---- --------- --<br>---------- -- -------- ----------------,259969,259968,258801.46,258802,258818.166,259970.88,,0,Known
screen,html.Screen,2_3_1_0_1_1,2022-02-04T11:38:50.344Z,,,,,,,,,,,,,,,,,11,,,,,,,,,,,,,,333.11999999999534,,response,,,,4,C,,,,,,Space,keypress(Space),,,,instrumental,,,,----- as ---- --- -- --- -------- ------------ ---------- --<br>- ------- ------ --------- -- ------------ -- --- ---- -----<br>------ ---- ---- ------ ------ ------- --- ----- ---------<br>---- --- -------- -------- --- --- -- ------- --- --- -----<br>-- --- ------ ------- --- --- -------- ---- --------- --<br>---------- -- -------- ----------------,260304,260304,259954.174,259969,259970.88,260305,,1,as
screen,html.Screen,2_3_1_0_1_2,2022-02-04T11:38:50.632Z,,,,,,,,,,,,,,,,,11,,,,,,,,,,,,,,286,,response,,,,4,C,,,,,,Space,keypress(Space),,,,instrumental,,,,----- -- Rapa --- -- --- -------- ------------ ---------- --<br>- ------- ------ --------- -- ------------ -- --- ---- -----<br>------ ---- ---- ------ ------ ------- --- ----- ---------<br>---- --- -------- -------- --- --- -- ------- --- --- -----<br>-- --- ------ ------- --- --- -------- ---- --------- --<br>---------- -- -------- ----------------,260592,260591,260288.294,260304,260305,260605.708,,2,Rapa
screen,html.Screen,2_3_1_0_1_3,2022-02-04T11:38:50.879Z,,,,,,,,,,,,,,,,,11,,,,,,,,,,,,,,233.29199999998673,,response,,,,4,C,,,,,,Space,keypress(Space),,,,instrumental,,,,----- -- ---- Nui -- --- -------- ------------ ---------- --<br>- ------- ------ --------- -- ------------ -- --- ---- -----<br>------ ---- ---- ------ ------ ------- --- ----- ---------<br>---- --- -------- -------- --- --- -- ------- --- --- -----<br>-- --- ------ ------- --- --- -------- ---- --------- --<br>---------- -- -------- ----------------,260839,260839,260589.002,260592,260605.708,260856.298,,3,Nui
screen,html.Screen,2_3_1_0_1_4,2022-02-04T11:38:51.296Z,,,,,,,,,,,,,,,,,11,,,,,,,,,,,,,,398.7019999999902,,response,,,,4,C,,,,,,Space,keypress(Space),,,,instrumental,,,,----- -- ---- --- to --- -------- ------------ ---------- --<br>- ------- ------ --------- -- ------------ -- --- ---- -----<br>------ ---- ---- ------ ------ ------- --- ----- ---------<br>---- --- -------- -------- --- --- -- ------- --- --- -----<br>-- --- ------ ------- --- --- -------- ---- --------- --<br>---------- -- -------- ----------------,261256,261255,260839.592,260840,260856.298,261257.242,,4,to
screen,html.Screen,2_3_1_0_1_5,2022-02-04T11:38:51.632Z,,,,,,,,,,,,,,,,,11,,,,,,,,,,,,,,333.75800000000163,,response,,,,4,C,,,,,,Space,keypress(Space),,,,instrumental,,,,----- -- ---- --- -- the -------- ------------ ---------- --<br>- ------- ------ --------- -- ------------ -- --- ---- -----<br>------ ---- ---- ------ ------ ------- --- ----- ---------<br>---- --- -------- -------- --- --- -- ------- --- --- -----<br>-- --- ------ ------- --- --- -------- ---- --------- --<br>---------- -- -------- ----------------,261592,261591,261240.536,261256,261257.242,261608.068,,5,the
screen,html.Screen,2_3_1_0_1_6,2022-02-04T11:38:51.952Z,,,,,,,,,,,,,,,,,11,,,,,,,,,,,,,,302.9320000000007,,response,,,,4,C,,,,,,Space,keypress(Space),,,,instrumental,,,,----- -- ---- --- -- --- island's ------------ ---------- --<br>- ------- ------ --------- -- ------------ -- --- ---- -----<br>------ ---- ---- ------ ------ ------- --- ----- ---------<br>---- --- -------- -------- --- --- -- ------- --- --- -----<br>-- --- ------ ------- --- --- -------- ---- --------- --<br>---------- -- -------- ----------------,261912,261911,261591.362,261592,261608.068,261942.188,,6,island's
screen,html.Screen,2_3_1_0_1_7,2022-02-04T11:38:52.256Z,,,,,,,,,,,,,,,,,11,,,,,,,,,,,,,,272.81200000000536,,response,,,,4,C,,,,,,Space,keypress(Space),,,,instrumental,,,,"----- -- ---- --- -- --- -------- inhabitants, ---------- --<br>- ------- ------ --------- -- ------------ -- --- ---- -----<br>------ ---- ---- ------ ------ ------- --- ----- ---------<br>---- --- -------- -------- --- --- -- ------- --- --- -----<br>-- --- ------ ------- --- --- -------- ---- --------- --<br>---------- -- -------- ----------------",262216,262215,261925.482,261912,261942.188,262226.19,,7,"inhabitants,"
screen,html.Screen,2_3_1_0_1_8,2022-02-04T11:38:52.576Z,,,,,,,,,,,,,,,,,11,,,,,,,,,,,,,,308.8099999999977,,response,,,,4,C,,,,,,Space,keypress(Space),,,,instrumental,,,,----- -- ---- --- -- --- -------- ------------ Rongorongo --<br>- ------- ------ --------- -- ------------ -- --- ---- -----<br>------ ---- ---- ------ ------ ------- --- ----- ---------<br>---- --- -------- -------- --- --- -- ------- --- --- -----<br>-- --- ------ ------- --- --- -------- ---- --------- --<br>---------- -- -------- ----------------,262536,262535,262209.484,262216,262226.19,262543.604,,8,Rongorongo
screen,html.Screen,2_3_1_0_1_9,2022-02-04T11:38:52.944Z,,,,,,,,,,,,,,,,,11,,,,,,,,,,,,,,359.3960000000079,,response,,,,4,C,,,,,,Space,keypress(Space),,,,instrumental,,,,----- -- ---- --- -- --- -------- ------------ ---------- is<br>- ------- ------ --------- -- ------------ -- --- ---- -----<br>------ ---- ---- ------ ------ ------- --- ----- ---------<br>---- --- -------- -------- --- --- -- ------- --- --- -----<br>-- --- ------ ------- --- --- -------- ---- --------- --<br>---------- -- -------- ----------------,262904,262903,262526.898,262536,262543.604,262911.136,,9,is
screen,html.Screen,2_3_1_0_1_10,2022-02-04T11:38:53.312Z,,,,,,,,,,,,,,,,,11,,,,,,,,,,,,,,359.8640000000014,,response,,,,4,C,,,,,,Space,keypress(Space),,,,instrumental,,,,----- -- ---- --- -- --- -------- ------------ ---------- --<br>a ------- ------ --------- -- ------------ -- --- ---- -----<br>------ ---- ---- ------ ------ ------- --- ----- ---------<br>---- --- -------- -------- --- --- -- ------- --- --- -----<br>-- --- ------ ------- --- --- -------- ---- --------- --<br>---------- -- -------- ----------------,263272,263271,262894.43,262904,262911.136,263278.668,,10,a
screen,html.Screen,2_3_1_0_1_11,2022-02-04T11:38:53.664Z,,,,,,,,,,,,,,,,,11,,,,,,,,,,,,,,344.3319999999949,,response,,,,4,C,,,,,,Space,keypress(Space),,,,instrumental,,,,----- -- ---- --- -- --- -------- ------------ ---------- --<br>- writing ------ --------- -- ------------ -- --- ---- -----<br>------ ---- ---- ------ ------ ------- --- ----- ---------<br>---- --- -------- -------- --- --- -- ------- --- --- -----<br>-- --- ------ ------- --- --- -------- ---- --------- --<br>---------- -- -------- ----------------,263624,263623,263261.962,263272,263278.668,263629.494,,11,writing
screen,html.Screen,2_3_1_0_1_12,2022-02-04T11:38:53.912Z,,,,,,,,,,,,,,,,,11,,,,,,,,,,,,,,241.50599999999395,,response,,,,4,C,,,,,,Space,keypress(Space),,,,instrumental,,,,----- -- ---- --- -- --- -------- ------------ ---------- --<br>- ------- system --------- -- ------------ -- --- ---- -----<br>------ ---- ---- ------ ------ ------- --- ----- ---------<br>---- --- -------- -------- --- --- -- ------- --- --- -----<br>-- --- ------ ------- --- --- -------- ---- --------- --<br>---------- -- -------- ----------------,263872,263871,263612.788,263624,263629.494,263880.084,,12,system
screen,html.Screen,2_3_1_0_1_13,2022-02-04T11:38:54.224Z,,,,,,,,,,,,,,,,,11,,,,,,,,,,,,,,302.91600000002654,,response,,,,4,C,,,,,,Space,keypress(Space),,,,instrumental,,,,----- -- ---- --- -- --- -------- ------------ ---------- --<br>- ------- ------ comprised -- ------------ -- --- ---- -----<br>------ ---- ---- ------ ------ ------- --- ----- ---------<br>---- --- -------- -------- --- --- -- ------- --- --- -----<br>-- --- ------ ------- --- --- -------- ---- --------- --<br>---------- -- -------- ----------------,264184,264183,263863.378,263872,263880.084,264197.498,,13,comprised
screen,html.Screen,2_3_1_0_1_14,2022-02-04T11:38:54.576Z,,,,,,,,,,,,,,,,,11,,,,,,,,,,,,,,337.5019999999786,,response,,,,4,C,,,,,,Space,keypress(Space),,,,instrumental,,,,----- -- ---- --- -- --- -------- ------------ ---------- --<br>- ------- ------ --------- of ------------ -- --- ---- -----<br>------ ---- ---- ------ ------ ------- --- ----- ---------<br>---- --- -------- -------- --- --- -- ------- --- --- -----<br>-- --- ------ ------- --- --- -------- ---- --------- --<br>---------- -- -------- ----------------,264536,264535,264180.792,264184,264197.498,264548.324,,14,of
screen,html.Screen,2_3_1_0_1_15,2022-02-04T11:38:54.992Z,,,,,,,,,,,,,,,,,11,,,,,,,,,,,,,,402.67599999997765,,response,,,,4,C,,,,,,Space,keypress(Space),,,,instrumental,,,,----- -- ---- --- -- --- -------- ------------ ---------- --<br>- ------- ------ --------- -- pictographs. -- --- ---- -----<br>------ ---- ---- ------ ------ ------- --- ----- ---------<br>---- --- -------- -------- --- --- -- ------- --- --- -----<br>-- --- ------ ------- --- --- -------- ---- --------- --<br>---------- -- -------- ----------------,264952,264951,264531.618,264536,264548.324,264965.974,,15,pictographs.
screen,html.Screen,2_3_1_0_1_16,2022-02-04T11:38:55.328Z,,,,,,,,,,,,,,,,,11,,,,,,,,,,,,,,321.0260000000126,,response,,,,4,C,,,,,,Space,keypress(Space),,,,instrumental,,,,----- -- ---- --- -- --- -------- ------------ ---------- --<br>- ------- ------ --------- -- ------------ It --- ---- -----<br>------ ---- ---- ------ ------ ------- --- ----- ---------<br>---- --- -------- -------- --- --- -- ------- --- --- -----<br>-- --- ------ ------- --- --- -------- ---- --------- --<br>---------- -- -------- ----------------,265288,265287,264949.268,264952,264965.974,265300.094,,16,It
screen,html.Screen,2_3_1_0_1_17,2022-02-04T11:38:55.672Z,,,,,,,,,,,,,,,,,11,,,,,,,,,,,,,,330.90600000001723,,response,,,,4,C,,,,,,Space,keypress(Space),,,,instrumental,,,,----- -- ---- --- -- --- -------- ------------ ---------- --<br>- ------- ------ --------- -- ------------ -- has ---- -----<br>------ ---- ---- ------ ------ ------- --- ----- ---------<br>---- --- -------- -------- --- --- -- ------- --- --- -----<br>-- --- ------ ------- --- --- -------- ---- --------- --<br>---------- -- -------- ----------------,265632,265631,265283.388,265288,265300.094,265650.92,,17,has
screen,html.Screen,2_3_1_0_1_18,2022-02-04T11:38:55.904Z,,,,,,,,,,,,,,,,,11,,,,,,,,,,,,,,212.0800000000163,,response,,,,4,C,,,,,,Space,keypress(Space),,,,instrumental,,,,----- -- ---- --- -- --- -------- ------------ ---------- --<br>- ------- ------ --------- -- ------------ -- --- been -----<br>------ ---- ---- ------ ------ ------- --- ----- ---------<br>---- --- -------- -------- --- --- -- ------- --- --- -----<br>-- --- ------ ------- --- --- -------- ---- --------- --<br>---------- -- -------- ----------------,265864,265863,265634.214,265632,265650.92,265868.098,,18,been
screen,html.Screen,2_3_1_0_1_19,2022-02-04T11:38:56.128Z,,,,,,,,,,,,,,,,,11,,,,,,,,,,,,,,218.90200000000186,,response,,,,4,C,,,,,,Space,keypress(Space),,,,instrumental,,,,----- -- ---- --- -- --- -------- ------------ ---------- --<br>- ------- ------ --------- -- ------------ -- --- ---- found<br>------ ---- ---- ------ ------ ------- --- ----- ---------<br>---- --- -------- -------- --- --- -- ------- --- --- -----<br>-- --- ------ ------- --- --- -------- ---- --------- --<br>---------- -- -------- ----------------,266088,266087,265851.392,265864,265868.098,266101.982,,19,found
screen,html.Screen,2_3_1_0_1_20,2022-02-04T11:38:56.440Z,,,,,,,,,,,,,,,,,11,,,,,,,,,,,,,,297.01799999998184,,response,,,,4,C,,,,,,Space,keypress(Space),,,,instrumental,,,,----- -- ---- --- -- --- -------- ------------ ---------- --<br>- ------- ------ --------- -- ------------ -- --- ---- -----<br>carved ---- ---- ------ ------ ------- --- ----- ---------<br>---- --- -------- -------- --- --- -- ------- --- --- -----<br>-- --- ------ ------- --- --- -------- ---- --------- --<br>---------- -- -------- ----------------,266400,266399,266085.276,266088,266101.982,266402.69,,20,carved
screen,html.Screen,2_3_1_0_1_21,2022-02-04T11:38:56.665Z,,,,,,,,,,,,,,,,,11,,,,,,,,,,,,,,221.30999999999767,,response,,,,4,C,,,,,,Space,keypress(Space),,,,instrumental,,,,----- -- ---- --- -- --- -------- ------------ ---------- --<br>- ------- ------ --------- -- ------------ -- --- ---- -----<br>------ into ---- ------ ------ ------- --- ----- ---------<br>---- --- -------- -------- --- --- -- ------- --- --- -----<br>-- --- ------ ------- --- --- -------- ---- --------- --<br>---------- -- -------- ----------------,266625,266624,266385.984,266400,266402.69,266636.574,,21,into
screen,html.Screen,2_3_1_0_1_22,2022-02-04T11:38:56.960Z,,,,,,,,,,,,,,,,,11,,,,,,,,,,,,,,282.42599999997765,,response,,,,4,C,,,,,,Space,keypress(Space),,,,instrumental,,,,----- -- ---- --- -- --- -------- ------------ ---------- --<br>- ------- ------ --------- -- ------------ -- --- ---- -----<br>------ ---- many ------ ------ ------- --- ----- ---------<br>---- --- -------- -------- --- --- -- ------- --- --- -----<br>-- --- ------ ------- --- --- -------- ---- --------- --<br>---------- -- -------- ----------------,266920,266919,266619.868,266625,266636.574,266937.282,,22,many
screen,html.Screen,2_3_1_0_1_23,2022-02-04T11:38:57.226Z,,,,,,,,,,,,,,,,,11,,,,,,,,,,,,,,246.71799999999348,,response,,,,4,C,,,,,,Space,keypress(Space),,,,instrumental,,,,----- -- ---- --- -- --- -------- ------------ ---------- --<br>- ------- ------ --------- -- ------------ -- --- ---- -----<br>------ ---- ---- oblong ------ ------- --- ----- ---------<br>---- --- -------- -------- --- --- -- ------- --- --- -----<br>-- --- ------ ------- --- --- -------- ---- --------- --<br>---------- -- -------- ----------------,267186,267184,266920.576,266920,266937.282,267204.578,,23,oblong
screen,html.Screen,2_3_1_0_1_24,2022-02-04T11:38:57.496Z,,,,,,,,,,,,,,,,,11,,,,,,,,,,,,,,250.4220000000205,,response,,,,4,C,,,,,,Space,keypress(Space),,,,instrumental,,,,----- -- ---- --- -- --- -------- ------------ ---------- --<br>- ------- ------ --------- -- ------------ -- --- ---- -----<br>------ ---- ---- ------ wooden ------- --- ----- ---------<br>---- --- -------- -------- --- --- -- ------- --- --- -----<br>-- --- ------ ------- --- --- -------- ---- --------- --<br>---------- -- -------- ----------------,267456,267455,267187.872,267188,267204.578,267471.874,,24,wooden
screen,html.Screen,2_3_1_0_1_25,2022-02-04T11:38:57.775Z,,,,,,,,,,,,,,,,,11,,,,,,,,,,,,,,263.1259999999893,,response,,,,4,C,,,,,,Space,keypress(Space),,,,instrumental,,,,----- -- ---- --- -- --- -------- ------------ ---------- --<br>- ------- ------ --------- -- ------------ -- --- ---- -----<br>------ ---- ---- ------ ------ tablets --- ----- ---------<br>---- --- -------- -------- --- --- -- ------- --- --- -----<br>-- --- ------ ------- --- --- -------- ---- --------- --<br>---------- -- -------- ----------------,267735,267735,267455.168,267456,267471.874,267739.17,,25,tablets
screen,html.Screen,2_3_1_0_1_26,2022-02-04T11:38:58.032Z,,,,,,,,,,,,,,,,,11,,,,,,,,,,,,,,251.8300000000163,,response,,,,4,C,,,,,,Space,keypress(Space),,,,instrumental,,,,----- -- ---- --- -- --- -------- ------------ ---------- --<br>- ------- ------ --------- -- ------------ -- --- ---- -----<br>------ ---- ---- ------ ------ ------- and ----- ---------<br>---- --- -------- -------- --- --- -- ------- --- --- -----<br>-- --- ------ ------- --- --- -------- ---- --------- --<br>---------- -- -------- ----------------,267992,267991,267722.464,267735,267739.17,268006.466,,26,and
screen,html.Screen,2_3_1_0_1_27,2022-02-04T11:38:58.280Z,,,,,,,,,,,,,,,,,11,,,,,,,,,,,,,,232.5339999999851,,response,,,,4,C,,,,,,Space,keypress(Space),,,,instrumental,,,,----- -- ---- --- -- --- -------- ------------ ---------- --<br>- ------- ------ --------- -- ------------ -- --- ---- -----<br>------ ---- ---- ------ ------ ------- --- other ---------<br>---- --- -------- -------- --- --- -- ------- --- --- -----<br>-- --- ------ ------- --- --- -------- ---- --------- --<br>---------- -- -------- ----------------,268240,268239,267989.76,267992,268006.466,268257.056,,27,other
screen,html.Screen,2_3_1_0_1_28,2022-02-04T11:38:58.512Z,,,,,,,,,,,,,,,,,11,,,,,,,,,,,,,,213.9440000000177,,response,,,,4,C,,,,,,Space,keypress(Space),,,,instrumental,,,,----- -- ---- --- -- --- -------- ------------ ---------- --<br>- ------- ------ --------- -- ------------ -- --- ---- -----<br>------ ---- ---- ------ ------ ------- --- ----- artifacts<br>---- --- -------- -------- --- --- -- ------- --- --- -----<br>-- --- ------ ------- --- --- -------- ---- --------- --<br>---------- -- -------- ----------------,268472,268471,268240.35,268240,268257.056,268474.234,,28,artifacts
screen,html.Screen,2_3_1_0_1_29,2022-02-04T11:38:58.736Z,,,,,,,,,,,,,,,,,11,,,,,,,,,,,,,,220.76600000000326,,response,,,,4,C,,,,,,Space,keypress(Space),,,,instrumental,,,,----- -- ---- --- -- --- -------- ------------ ---------- --<br>- ------- ------ --------- -- ------------ -- --- ---- -----<br>------ ---- ---- ------ ------ ------- --- ----- ---------<br>from --- -------- -------- --- --- -- ------- --- --- -----<br>-- --- ------ ------- --- --- -------- ---- --------- --<br>---------- -- -------- ----------------,268696,268695,268457.528,268472,268474.234,268708.118,,29,from
screen,html.Screen,2_3_1_0_1_30,2022-02-04T11:38:58.967Z,,,,,,,,,,,,,,,,,11,,,,,,,,,,,,,,218.88199999998324,,response,,,,4,C,,,,,,Space,keypress(Space),,,,instrumental,,,,----- -- ---- --- -- --- -------- ------------ ---------- --<br>- ------- ------ --------- -- ------------ -- --- ---- -----<br>------ ---- ---- ------ ------ ------- --- ----- ---------<br>---- the -------- -------- --- --- -- ------- --- --- -----<br>-- --- ------ ------- --- --- -------- ---- --------- --<br>---------- -- -------- ----------------,268927,268927,268691.412,268696,268708.118,268942.002,,30,the
screen,html.Screen,2_3_1_0_1_31,2022-02-04T11:38:59.192Z,,,,,,,,,,,,,,,,,11,,,,,,,,,,,,,,208.99800000002142,,response,,,,4,C,,,,,,Space,keypress(Space),,,,instrumental,,,,----- -- ---- --- -- --- -------- ------------ ---------- --<br>- ------- ------ --------- -- ------------ -- --- ---- -----<br>------ ---- ---- ------ ------ ------- --- ----- ---------<br>---- --- island's -------- --- --- -- ------- --- --- -----<br>-- --- ------ ------- --- --- -------- ---- --------- --<br>---------- -- -------- ----------------,269152,269151,268925.296,268928,268942.002,269159.18,,31,island's
screen,html.Screen,2_3_1_0_1_32,2022-02-04T11:38:59.440Z,,,,,,,,,,,,,,,,,11,,,,,,,,,,,,,,239.82000000000698,,response,,,,4,C,,,,,,Space,keypress(Space),,,,instrumental,,,,----- -- ---- --- -- --- -------- ------------ ---------- --<br>- ------- ------ --------- -- ------------ -- --- ---- -----<br>------ ---- ---- ------ ------ ------- --- ----- ---------<br>---- --- -------- history. --- --- -- ------- --- --- -----<br>-- --- ------ ------- --- --- -------- ---- --------- --<br>---------- -- -------- ----------------,269400,269399,269142.474,269152,269159.18,269409.77,,32,history.
screen,html.Screen,2_3_1_0_1_33,2022-02-04T11:38:59.736Z,,,,,,,,,,,,,,,,,11,,,,,,,,,,,,,,285.2299999999814,,response,,,,4,C,,,,,,Space,keypress(Space),,,,instrumental,,,,----- -- ---- --- -- --- -------- ------------ ---------- --<br>- ------- ------ --------- -- ------------ -- --- ---- -----<br>------ ---- ---- ------ ------ ------- --- ----- ---------<br>---- --- -------- -------- The --- -- ------- --- --- -----<br>-- --- ------ ------- --- --- -------- ---- --------- --<br>---------- -- -------- ----------------,269696,269695,269393.064,269400,269409.77,269710.478,,33,The
screen,html.Screen,2_3_1_0_1_34,2022-02-04T11:38:59.984Z,,,,,,,,,,,,,,,,,11,,,,,,,,,,,,,,232.5219999999972,,response,,,,4,C,,,,,,Space,keypress(Space),,,,instrumental,,,,----- -- ---- --- -- --- -------- ------------ ---------- --<br>- ------- ------ --------- -- ------------ -- --- ---- -----<br>------ ---- ---- ------ ------ ------- --- ----- ---------<br>---- --- -------- -------- --- art -- ------- --- --- -----<br>-- --- ------ ------- --- --- -------- ---- --------- --<br>---------- -- -------- ----------------,269944,269943,269693.772,269696,269710.478,269961.068,,34,art
screen,html.Screen,2_3_1_0_1_35,2022-02-04T11:39:00.265Z,,,,,,,,,,,,,,,,,11,,,,,,,,,,,,,,262.9319999999716,,response,,,,4,C,,,,,,Space,keypress(Space),,,,instrumental,,,,----- -- ---- --- -- --- -------- ------------ ---------- --<br>- ------- ------ --------- -- ------------ -- --- ---- -----<br>------ ---- ---- ------ ------ ------- --- ----- ---------<br>---- --- -------- -------- --- --- of ------- --- --- -----<br>-- --- ------ ------- --- --- -------- ---- --------- --<br>---------- -- -------- ----------------,270225,270224,269944.362,269944,269961.068,270228.364,,35,of
screen,html.Screen,2_3_1_0_1_36,2022-02-04T11:39:00.496Z,,,,,,,,,,,,,,,,,11,,,,,,,,,,,,,,226.6359999999986,,response,,,,4,C,,,,,,Space,keypress(Space),,,,instrumental,,,,----- -- ---- --- -- --- -------- ------------ ---------- --<br>- ------- ------ --------- -- ------------ -- --- ---- -----<br>------ ---- ---- ------ ------ ------- --- ----- ---------<br>---- --- -------- -------- --- --- -- writing --- --- -----<br>-- --- ------ ------- --- --- -------- ---- --------- --<br>---------- -- -------- ----------------,270456,270455,270211.658,270225,270228.364,270462.248,,36,writing
screen,html.Screen,2_3_1_0_1_37,2022-02-04T11:39:00.696Z,,,,,,,,,,,,,,,,,11,,,,,,,,,,,,,,192.75199999997858,,response,,,,4,C,,,,,,Space,keypress(Space),,,,instrumental,,,,----- -- ---- --- -- --- -------- ------------ ---------- --<br>- ------- ------ --------- -- ------------ -- --- ---- -----<br>------ ---- ---- ------ ------ ------- --- ----- ---------<br>---- --- -------- -------- --- --- -- ------- was --- -----<br>-- --- ------ ------- --- --- -------- ---- --------- --<br>---------- -- -------- ----------------,270656,270655,270445.542,270456,270462.248,270662.72,,37,was
screen,html.Screen,2_3_1_0_1_38,2022-02-04T11:39:00.904Z,,,,,,,,,,,,,,,,,11,,,,,,,,,,,,,,200.28000000002794,,response,,,,4,C,,,,,,Space,keypress(Space),,,,instrumental,,,,----- -- ---- --- -- --- -------- ------------ ---------- --<br>- ------- ------ --------- -- ------------ -- --- ---- -----<br>------ ---- ---- ------ ------ ------- --- ----- ---------<br>---- --- -------- -------- --- --- -- ------- --- not -----<br>-- --- ------ ------- --- --- -------- ---- --------- --<br>---------- -- -------- ----------------,270864,270863,270646.014,270656,270662.72,270879.898,,38,not
screen,html.Screen,2_3_1_0_1_39,2022-02-04T11:39:01.119Z,,,,,,,,,,,,,,,,,11,,,,,,,,,,,,,,199.1020000000135,,response,,,,4,C,,,,,,Space,keypress(Space),,,,instrumental,,,,----- -- ---- --- -- --- -------- ------------ ---------- --<br>- ------- ------ --------- -- ------------ -- --- ---- -----<br>------ ---- ---- ------ ------ ------- --- ----- ---------<br>---- --- -------- -------- --- --- -- ------- --- --- known<br>-- --- ------ ------- --- --- -------- ---- --------- --<br>---------- -- -------- ----------------,271079,271079,270863.192,270864,270879.898,271097.076,,39,known
screen,html.Screen,2_3_1_0_1_40,2022-02-04T11:39:01.392Z,,,,,,,,,,,,,,,,,11,,,,,,,,,,,,,,253.92399999999907,,response,,,,4,C,,,,,,Space,keypress(Space),,,,instrumental,,,,----- -- ---- --- -- --- -------- ------------ ---------- --<br>- ------- ------ --------- -- ------------ -- --- ---- -----<br>------ ---- ---- ------ ------ ------- --- ----- ---------<br>---- --- -------- -------- --- --- -- ------- --- --- -----<br>in --- ------ ------- --- --- -------- ---- --------- --<br>---------- -- -------- ----------------,271352,271351,271080.37,271079,271097.076,271364.372,,40,in
screen,html.Screen,2_3_1_0_1_41,2022-02-04T11:39:01.640Z,,,,,,,,,,,,,,,,,11,,,,,,,,,,,,,,234.62800000002608,,response,,,,4,C,,,,,,Space,keypress(Space),,,,instrumental,,,,----- -- ---- --- -- --- -------- ------------ ---------- --<br>- ------- ------ --------- -- ------------ -- --- ---- -----<br>------ ---- ---- ------ ------ ------- --- ----- ---------<br>---- --- -------- -------- --- --- -- ------- --- --- -----<br>-- any ------ ------- --- --- -------- ---- --------- --<br>---------- -- -------- ----------------,271600,271599,271347.666,271352,271364.372,271614.962,,41,any
screen,html.Screen,2_3_1_0_1_42,2022-02-04T11:39:01.840Z,,,,,,,,,,,,,,,,,11,,,,,,,,,,,,,,184.03800000000047,,response,,,,4,C,,,,,,Space,keypress(Space),,,,instrumental,,,,----- -- ---- --- -- --- -------- ------------ ---------- --<br>- ------- ------ --------- -- ------------ -- --- ---- -----<br>------ ---- ---- ------ ------ ------- --- ----- ---------<br>---- --- -------- -------- --- --- -- ------- --- --- -----<br>-- --- nearby ------- --- --- -------- ---- --------- --<br>---------- -- -------- ----------------,271800,271799,271598.256,271600,271614.962,271815.434,,42,nearby
screen,html.Screen,2_3_1_0_1_43,2022-02-04T11:39:02.080Z,,,,,,,,,,,,,,,,,11,,,,,,,,,,,,,,223.56599999999162,,response,,,,4,C,,,,,,Space,keypress(Space),,,,instrumental,,,,----- -- ---- --- -- --- -------- ------------ ---------- --<br>- ------- ------ --------- -- ------------ -- --- ---- -----<br>------ ---- ---- ------ ------ ------- --- ----- ---------<br>---- --- -------- -------- --- --- -- ------- --- --- -----<br>-- --- ------ islands --- --- -------- ---- --------- --<br>---------- -- -------- ----------------,272040,272039,271798.728,271800,271815.434,272049.318,,43,islands
screen,html.Screen,2_3_1_0_1_44,2022-02-04T11:39:02.288Z,,,,,,,,,,,,,,,,,11,,,,,,,,,,,,,,197.6819999999716,,response,,,,4,C,,,,,,Space,keypress(Space),,,,instrumental,,,,----- -- ---- --- -- --- -------- ------------ ---------- --<br>- ------- ------ --------- -- ------------ -- --- ---- -----<br>------ ---- ---- ------ ------ ------- --- ----- ---------<br>---- --- -------- -------- --- --- -- ------- --- --- -----<br>-- --- ------ ------- and --- -------- ---- --------- --<br>---------- -- -------- ----------------,272248,272247,272032.612,272040,272049.318,272249.79,,44,and
screen,html.Screen,2_3_1_0_1_45,2022-02-04T11:39:02.536Z,,,,,,,,,,,,,,,,,11,,,,,,,,,,,,,,245.21000000002095,,response,,,,4,C,,,,,,Space,keypress(Space),,,,instrumental,,,,----- -- ---- --- -- --- -------- ------------ ---------- --<br>- ------- ------ --------- -- ------------ -- --- ---- -----<br>------ ---- ---- ------ ------ ------- --- ----- ---------<br>---- --- -------- -------- --- --- -- ------- --- --- -----<br>-- --- ------ ------- --- the -------- ---- --------- --<br>---------- -- -------- ----------------,272496,272495,272233.084,272248,272249.79,272517.086,,45,the
screen,html.Screen,2_3_1_0_1_46,2022-02-04T11:39:02.752Z,,,,,,,,,,,,,,,,,11,,,,,,,,,,,,,,193.91399999998976,,response,,,,4,C,,,,,,Space,keypress(Space),,,,instrumental,,,,----- -- ---- --- -- --- -------- ------------ ---------- --<br>- ------- ------ --------- -- ------------ -- --- ---- -----<br>------ ---- ---- ------ ------ ------- --- ----- ---------<br>---- --- -------- -------- --- --- -- ------- --- --- -----<br>-- --- ------ ------- --- --- script's ---- --------- --<br>---------- -- -------- ----------------,272712,272711,272500.38,272496,272517.086,272717.558,,46,script's
screen,html.Screen,2_3_1_0_1_47,2022-02-04T11:39:02.976Z,,,,,,,,,,,,,,,,,11,,,,,,,,,,,,,,217.4419999999809,,response,,,,4,C,,,,,,Space,keypress(Space),,,,instrumental,,,,----- -- ---- --- -- --- -------- ------------ ---------- --<br>- ------- ------ --------- -- ------------ -- --- ---- -----<br>------ ---- ---- ------ ------ ------- --- ----- ---------<br>---- --- -------- -------- --- --- -- ------- --- --- -----<br>-- --- ------ ------- --- --- -------- mere --------- --<br>---------- -- -------- ----------------,272936,272935,272700.852,272712,272717.558,272951.442,,47,mere
screen,html.Screen,2_3_1_0_1_48,2022-02-04T11:39:03.241Z,,,,,,,,,,,,,,,,,11,,,,,,,,,,,,,,248.5580000000191,,response,,,,4,C,,,,,,Space,keypress(Space),,,,instrumental,,,,----- -- ---- --- -- --- -------- ------------ ---------- --<br>- ------- ------ --------- -- ------------ -- --- ---- -----<br>------ ---- ---- ------ ------ ------- --- ----- ---------<br>---- --- -------- -------- --- --- -- ------- --- --- -----<br>-- --- ------ ------- --- --- -------- ---- existence --<br>---------- -- -------- ----------------,273201,273200,272934.736,272936,272951.442,273218.738,,48,existence
