sender,sender_type,sender_id,timestamp,meta,,Blues,Classical,Country,Dance,Electronic,Folk,Gospel,Hip-Hop,Jazz,Latin,Musical/Film,New-age,Pop,Prolific_id,Provo_ID,R&B,Rap,Reggae,Religious,Rock,Soul,Swing,Traditional,age,artist_name,correct,correctResponse,distraction,duration,education,ended_on,familiarity,gender,headphone_check_performance,item,list,music_frequency,offensiveness,pleasantness,position_correct,preference,response,response_action,snippet_file,song_name,song_rating,sound,stimulus_1,stimulus_2,stimulus_3,text,time_commit,time_end,time_render,time_run,time_show,time_switch,url,word,word_ID
Prolific ID,html.Form,0,2022-02-17T14:17:12.833Z,"{""labjs_version"":""20.2.2"",""labjs_build"":{""flavor"":""production"",""commit"":""a25486e0c714a0ae2ce03ff94b7bb6896854dcfa""},""location"":""https://run.pavlovia.org/mvasilev/prolific2_music_e/"",""userAgent"":""Mozilla/5.0 (Windows NT 10.0; Win64; x64) AppleWebKit/537.36 (KHTML, like Gecko) Chrome/98.0.4758.102 Safari/537.36"",""platform"":""Win32"",""language"":""en-GB"",""locale"":""en-GB"",""timeZone"":""Europe/London"",""timezoneOffset"":0,""screen_width"":1920,""screen_height"":1080,""scroll_width"":1858,""scroll_height"":929,""window_innerWidth"":1858,""window_innerHeight"":977,""devicePixelRatio"":1}",,,,,,,,,,,,,,,60e1d01fd9b9ff5cac25c326,,,,,,,,,,,,,,,6412.952000011921,,form submission,,,,,,,,,,,,,,,,,,,,,13602.100000023842,13601.800000011921,7155.475,7164.899999976158,7188.848,13712.037,{},,
Introduction,html.Screen,1_0,2022-02-17T14:17:22.839Z,,,,,,,,,,,,,,,,,,,,,,,,,,,,,,,9894.463,,response,,,,,,,,,,,continue,click button,,,,,,,,,23608.399999976158,23606.5,13595.173,13602.399999976158,13712.037,23621.915,,,
Volume calibration,html.Screen,1_1,2022-02-17T14:18:05.320Z,,,,,,,,,,,,,,,,,,,,,,,,,,,,,,,42464.585,,response,,,,,,,,,,,continue,click button,,,,,,,,,66088.5,66086.5,23605.309,23608.5,23621.915,66097.538,,,
Task instructions,html.Screen,1_2,2022-02-17T14:18:22.926Z,,,,,,,,,,,,,,,,,,,,,,,,,,,,,,,17596.76200001192,,response,,,,,,,,,,,continue,click button,,,,,,,,,83694.89999997616,83694.30000001192,66080.844,66088.5,66097.538,83698.274,,,
Sounds,html.Screen,1_3_0_0,2022-02-17T14:18:27.172Z,,,,,,,,,,,,,,,,,,,,,,,,,,,,,,,4254.278999999995,,timeout,,,,,,,,,1,,,,,,,,S,I,O,,87940.80000001192,87935.958,83681.711,83695.10000002384,83698.274,87952.553,,,
Judgement,html.Screen,1_3_0_1,2022-02-17T14:18:28.734Z,,,,,,,,,,,,,,,,,,,,,,,,,,,,true,1,,1549.6469999880792,,response,,,,,,,,,1,,1,click #choice-1,,,,,S,I,O,,89503,89502.19999998808,87935.958,87941.19999998808,87952.553,89504.057,,,
Trial,flow.Sequence,1_3_0,2022-02-17T14:18:28.735Z,,,,,,,,,,,,,,,,,,,,,,,,,,,,,,,5803.925999988074,,completion,,,,,,,,,1,,,,,,,,S,I,O,,89503.10000002384,89502.19999998808,83681.711,83695.10000002384,83698.274,89504.057,,,
Sounds,html.Screen,1_3_1_0,2022-02-17T14:18:32.974Z,,,,,,,,,,,,,,,,,,,,,,,,,,,,,,,4254.277000000002,,timeout,,,,,,,,,2,,,,,,,,O,S,I,,93742.69999998808,93741.673,89487.443,89503.19999998808,89504.057,93758.334,,,
Judgement,html.Screen,1_3_1_1,2022-02-17T14:18:33.646Z,,,,,,,,,,,,,,,,,,,,,,,,,,,,true,2,,655.9660000119184,,response,,,,,,,,,2,,2,click #choice-2,,,,,O,S,I,,94414.89999997616,94414.30000001192,93741.673,93743,93758.334,94425.676,,,
Trial,flow.Sequence,1_3_1,2022-02-17T14:18:33.647Z,,,,,,,,,,,,,,,,,,,,,,,,,,,,,,,4910.24300001192,,completion,,,,,,,,,2,,,,,,,,O,S,I,,94415.10000002384,94414.30000001192,89487.443,89503.19999998808,89504.057,94425.676,,,
Sounds,html.Screen,1_3_2_0,2022-02-17T14:18:37.896Z,,,,,,,,,,,,,,,,,,,,,,,,,,,,,,,4254.238999999987,,timeout,,,,,,,,,3,,,,,,,,O,I,S,,98664.39999997616,98663.225,94409.053,94415.19999998808,94425.676,98679.915,,,
Judgement,html.Screen,1_3_2_1,2022-02-17T14:18:38.398Z,,,,,,,,,,,,,,,,,,,,,,,,,,,,true,3,,486.38500001192733,,response,,,,,,,,,3,,3,click #choice-3,,,,,O,I,S,,99166.89999997616,99166.30000001192,98663.225,98664.69999998808,98679.915,99180.425,,,
Trial,flow.Sequence,1_3_2,2022-02-17T14:18:38.398Z,,,,,,,,,,,,,,,,,,,,,,,,,,,,,,,4740.624000011914,,completion,,,,,,,,,3,,,,,,,,O,I,S,,99167,99166.30000001192,94409.053,94415.19999998808,94425.676,99180.425,,,
Sounds,html.Screen,1_3_3_0,2022-02-17T14:18:42.651Z,,,,,,,,,,,,,,,,,,,,,,,,,,,,,,,4254.213000000003,,timeout,,,,,,,,,3,,,,,,,,I,O,S,,103419.39999997616,103417.99,99163.754,99167.19999998808,99180.425,103434.638,,,
Judgement,html.Screen,1_3_3_1,2022-02-17T14:18:43.095Z,,,,,,,,,,,,,,,,,,,,,,,,,,,,true,3,,427.66200001191464,,response,,,,,,,,,3,,3,click #choice-3,,,,,I,O,S,,103863,103862.30000001192,103417.99,103419.60000002384,103434.638,103868.358,,,
Trial,flow.Sequence,1_3_3,2022-02-17T14:18:43.095Z,,,,,,,,,,,,,,,,,,,,,,,,,,,,,,,4681.875000011918,,completion,,,,,,,,,3,,,,,,,,I,O,S,,103863.19999998808,103862.30000001192,99163.754,99167.10000002384,99180.425,103868.358,,,
Sounds,html.Screen,1_3_4_0,2022-02-17T14:18:47.339Z,,,,,,,,,,,,,,,,,,,,,,,,,,,,,,,4254.273000000001,,timeout,,,,,,,,,1,,,,,,,,S,O,I,,108107.19999998808,108105.983,103851.736,103863.19999998808,103868.358,108122.631,,,
Judgement,html.Screen,1_3_4_1,2022-02-17T14:18:47.902Z,,,,,,,,,,,,,,,,,,,,,,,,,,,,true,1,,547.5689999880851,,response,,,,,,,,,1,,1,click #choice-1,,,,,S,O,I,,108670.80000001192,108670.19999998808,108105.983,108107.39999997616,108122.631,108673.126,,,
Trial,flow.Sequence,1_3_4,2022-02-17T14:18:47.902Z,,,,,,,,,,,,,,,,,,,,,,,,,,,,,,,4801.841999988086,,completion,,,,,,,,,1,,,,,,,,S,O,I,,108670.89999997616,108670.19999998808,103851.736,103863.19999998808,103868.358,108673.126,,,
Sounds,html.Screen,1_3_5_0,2022-02-17T14:18:52.143Z,,,,,,,,,,,,,,,,,,,,,,,,,,,,,,,4254.2880000000005,,timeout,,,,,,,,,2,,,,,,,,I,S,O,,112911.89999997616,112910.752,108656.554,108671,108673.126,112927.414,,,
Judgement,html.Screen,1_3_5_1,2022-02-17T14:18:52.614Z,,,,,,,,,,,,,,,,,,,,,,,,,,,,true,2,,454.78599998807476,,response,,,,,,,,,2,,2,click #choice-2,,,,,I,S,O,,113382.89999997616,113382.19999998808,112910.752,112912.19999998808,112927.414,113394.496,,,
Trial,flow.Sequence,1_3_5,2022-02-17T14:18:52.614Z,,,,,,,,,,,,,,,,,,,,,,,,,,,,,,,4709.073999988075,,completion,,,,,,,,,2,,,,,,,,I,S,O,,113383,113382.19999998808,108656.554,108671,108673.126,113394.496,,,
Task,flow.Loop,1_3,2022-02-17T14:18:52.617Z,,,,,,,,,,,,,,,,,,,,,,,,,,,,,,,29683.925999988074,,completion,,,1,,,,,,,,,,,,,,,,,,113385.80000001192,113382.19999998808,83681.711,83695.10000002384,83698.274,113394.496,,,
Trap,html.Screen,1_4,2022-02-17T14:18:52.618Z,,,,,,,,,,,,,,,,,,,,,,,,,,,,,,,NaN,,skipped,,,,,,,,,,,,,,,,,,,,,113386.60000002384,113382.19999998808,,113386.60000002384,,113394.496,,,
Thanks,html.Screen,1_5,2022-02-17T14:18:56.694Z,,,,,,,,,,,,,,,,,,,,,,,,,,,,,,,4067.504000000001,,response,,,,,,,,,,,continue,click button,,,,,,,,,117462.89999997616,117462,113377.875,113386.69999998808,113394.496,122486.914,,,
Headphone screening,flow.Sequence,1,2022-02-17T14:18:56.695Z,,,,,,,,,,,,,,,,,,,,,,,,,,,,,,,103749.963,,completion,,,,,,,,,,,,,,,,,,,,,117463.19999998808,117462,13595.173,13602.399999976158,13712.037,122486.914,,,
Instructions,html.Page,2_0,2022-02-17T14:19:38.801Z,,,,,,,,,,,,,,,,,,,,,,,,,,,,,,,37082.585999999996,,form submission,,,,,,,,,,,,,,,,,,,,,159569.69999998808,159569.5,122320.111,122419.5,122486.914,159573.795,,,
Holding screen,html.Screen,2_1_0_0,2022-02-17T14:19:48.783Z,,,,,,,,,,,,,,,,,,,,,,,,,,,,,,,10043.390999999974,,timeout,,,,,,,,,,,,,,,,,,,,,169551.10000002384,169550.406,159557.248,159569.89999997616,159573.795,169617.186,,,
screen,html.Screen,2_1_0_1_0,2022-02-17T14:19:49.863Z,,,,,,,,,,,,,,,,,53,,,,,,,,,,,,,,1007.614000011934,,response,,,,99,,,,,,,Space,keypress(Space),,,,,,,,When -- ----- -- ------ - ------- --- ----------<br>------------- ------ ------ ---- ---- ------- ----- -- ----<br>-------- ------- -- ---------- --- - --- ----- ----- ----<br>---- --- --- ----- --- ---- ---- ------- ----- ---- -------<br>--- --- -- ----- -- --- ---- -- --- ---- -- ------ ------<br>--- ----- -- ----,170631,170624.80000001192,169550.406,169551.39999997616,169617.186,170651.56,,0,When
screen,html.Screen,2_1_0_1_1,2022-02-17T14:19:50.056Z,,,,,,,,,,,,,,,,,53,,,,,,,,,,,,,,171.33999997616047,,response,,,,99,,,,,,,Space,keypress(Space),,,,,,,,---- it ----- -- ------ - ------- --- ----------<br>------------- ------ ------ ---- ---- ------- ----- -- ----<br>-------- ------- -- ---------- --- - --- ----- ----- ----<br>---- --- --- ----- --- ---- ---- ------- ----- ---- -------<br>--- --- -- ----- -- --- ---- -- --- ---- -- ------ ------<br>--- ----- -- ----,170824,170822.89999997616,170634.867,170631.39999997616,170651.56,170835.094,,1,it
screen,html.Screen,2_1_0_1_2,2022-02-17T14:19:50.270Z,,,,,,,,,,,,,,,,,53,,,,,,,,,,,,,,202.80599997614627,,response,,,,99,,,,,,,Space,keypress(Space),,,,,,,,---- -- comes -- ------ - ------- --- ----------<br>------------- ------ ------ ---- ---- ------- ----- -- ----<br>-------- ------- -- ---------- --- - --- ----- ----- ----<br>---- --- --- ----- --- ---- ---- ------- ----- ---- -------<br>--- --- -- ----- -- --- ---- -- --- ---- -- ------ ------<br>--- ----- -- ----,171038.30000001192,171037.89999997616,170818.433,170824.19999998808,170835.094,171051.936,,2,comes
screen,html.Screen,2_1_0_1_3,2022-02-17T14:19:50.473Z,,,,,,,,,,,,,,,,,53,,,,,,,,,,,,,,188.06400000001304,,response,,,,99,,,,,,,Space,keypress(Space),,,,,,,,---- -- ----- to ------ - ------- --- ----------<br>------------- ------ ------ ---- ---- ------- ----- -- ----<br>-------- ------- -- ---------- --- - --- ----- ----- ----<br>---- --- --- ----- --- ---- ---- ------- ----- ---- -------<br>--- --- -- ----- -- --- ---- -- --- ---- -- ------ ------<br>--- ----- -- ----,171241.10000002384,171240,171035.276,171038.39999997616,171051.936,171252.1,,3,to
screen,html.Screen,2_1_0_1_4,2022-02-17T14:19:50.664Z,,,,,,,,,,,,,,,,,53,,,,,,,,,,,,,,178.79999997615232,,response,,,,99,,,,,,,Space,keypress(Space),,,,,,,,---- -- ----- -- having - ------- --- ----------<br>------------- ------ ------ ---- ---- ------- ----- -- ----<br>-------- ------- -- ---------- --- - --- ----- ----- ----<br>---- --- --- ----- --- ---- ---- ------- ----- ---- -------<br>--- --- -- ----- -- --- ---- -- --- ---- -- ------ ------<br>--- ----- -- ----,171432,171430.89999997616,171235.498,171241.39999997616,171252.1,171435.639,,4,having
screen,html.Screen,2_1_0_1_5,2022-02-17T14:19:50.824Z,,,,,,,,,,,,,,,,,53,,,,,,,,,,,,,,155.16100001192535,,response,,,,99,,,,,,,Space,keypress(Space),,,,,,,,---- -- ----- -- ------ a ------- --- ----------<br>------------- ------ ------ ---- ---- ------- ----- -- ----<br>-------- ------- -- ---------- --- - --- ----- ----- ----<br>---- --- --- ----- --- ---- ---- ------- ----- ---- -------<br>--- --- -- ----- -- --- ---- -- --- ---- -- ------ ------<br>--- ----- -- ----,171591.80000001192,171590.80000001192,171419.005,171432.30000001192,171435.639,171602.568,,5,a
screen,html.Screen,2_1_0_1_6,2022-02-17T14:19:51.008Z,,,,,,,,,,,,,,,,,53,,,,,,,,,,,,,,172.23200001192163,,response,,,,99,,,,,,,Space,keypress(Space),,,,,,,,---- -- ----- -- ------ - lasting --- ----------<br>------------- ------ ------ ---- ---- ------- ----- -- ----<br>-------- ------- -- ---------- --- - --- ----- ----- ----<br>---- --- --- ----- --- ---- ---- ------- ----- ---- -------<br>--- --- -- ----- -- --- ---- -- --- ---- -- ------ ------<br>--- ----- -- ----,171775.89999997616,171774.80000001192,171585.853,171592.10000002384,171602.568,171786.061,,6,lasting
screen,html.Screen,2_1_0_1_7,2022-02-17T14:19:51.280Z,,,,,,,,,,,,,,,,,53,,,,,,,,,,,,,,260.8389999761712,,response,,,,99,,,,,,,Space,keypress(Space),,,,,,,,---- -- ----- -- ------ - ------- and ----------<br>------------- ------ ------ ---- ---- ------- ----- -- ----<br>-------- ------- -- ---------- --- - --- ----- ----- ----<br>---- --- --- ----- --- ---- ---- ------- ----- ---- -------<br>--- --- -- ----- -- --- ---- -- --- ---- -- ------ ------<br>--- ----- -- ----,172047.89999997616,172046.89999997616,171769.33,171776.19999998808,171786.061,172052.92,,7,and
screen,html.Screen,2_1_0_1_8,2022-02-17T14:19:51.504Z,,,,,,,,,,,,,,,,,53,,,,,,,,,,,,,,217.97999997614534,,response,,,,99,,,,,,,Space,keypress(Space),,,,,,,,---- -- ----- -- ------ - ------- --- fulfilling<br>------------- ------ ------ ---- ---- ------- ----- -- ----<br>-------- ------- -- ---------- --- - --- ----- ----- ----<br>---- --- --- ----- --- ---- ---- ------- ----- ---- -------<br>--- --- -- ----- -- --- ---- -- --- ---- -- ------ ------<br>--- ----- -- ----,172272.10000002384,172270.89999997616,172036.301,172048.19999998808,172052.92,172286.574,,8,fulfilling
screen,html.Screen,2_1_0_1_9,2022-02-17T14:19:51.729Z,,,,,,,,,,,,,,,,,53,,,,,,,,,,,,,,209.3259999761649,,response,,,,99,,,,,,,Space,keypress(Space),,,,,,,,"---- -- ----- -- ------ - ------- --- ----------<br>relationship, ------ ------ ---- ---- ------- ----- -- ----<br>-------- ------- -- ---------- --- - --- ----- ----- ----<br>---- --- --- ----- --- ---- ---- ------- ----- ---- -------<br>--- --- -- ----- -- --- ---- -- --- ---- -- ------ ------<br>--- ----- -- ----",172497.10000002384,172495.89999997616,172269.865,172272.30000001192,172286.574,172503.371,,9,"relationship,"
screen,html.Screen,2_1_0_1_10,2022-02-17T14:19:52.464Z,,,,,,,,,,,,,,,,,53,,,,,,,,,,,,,,727.5289999761444,,response,,,,99,,,,,,,Space,keypress(Space),,,,,,,,---- -- ----- -- ------ - ------- --- ----------<br>------------- common ------ ---- ---- ------- ----- -- ----<br>-------- ------- -- ---------- --- - --- ----- ----- ----<br>---- --- --- ----- --- ---- ---- ------- ----- ---- -------<br>--- --- -- ----- -- --- ---- -- --- ---- -- ------ ------<br>--- ----- -- ----,173231.89999997616,173230.89999997616,172486.699,172497.5,172503.371,173237.439,,10,common
screen,html.Screen,2_1_0_1_11,2022-02-17T14:19:52.760Z,,,,,,,,,,,,,,,,,53,,,,,,,,,,,,,,289.4609999761451,,response,,,,99,,,,,,,Space,keypress(Space),,,,,,,,---- -- ----- -- ------ - ------- --- ----------<br>------------- ------ wisdom ---- ---- ------- ----- -- ----<br>-------- ------- -- ---------- --- - --- ----- ----- ----<br>---- --- --- ----- --- ---- ---- ------- ----- ---- -------<br>--- --- -- ----- -- --- ---- -- --- ---- -- ------ ------<br>--- ----- -- ----,173528,173526.89999997616,173220.804,173232.19999998808,173237.439,173537.77,,11,wisdom
screen,html.Screen,2_1_0_1_12,2022-02-17T14:19:53.048Z,,,,,,,,,,,,,,,,,53,,,,,,,,,,,,,,277.1299999761686,,response,,,,99,,,,,,,Space,keypress(Space),,,,,,,,---- -- ----- -- ------ - ------- --- ----------<br>------------- ------ ------ says ---- ------- ----- -- ----<br>-------- ------- -- ---------- --- - --- ----- ----- ----<br>---- --- --- ----- --- ---- ---- ------- ----- ---- -------<br>--- --- -- ----- -- --- ---- -- --- ---- -- ------ ------<br>--- ----- -- ----,173815.80000001192,173814.89999997616,173521.028,173528.19999998808,173537.77,173821.348,,12,says
screen,html.Screen,2_1_0_1_13,2022-02-17T14:19:53.312Z,,,,,,,,,,,,,,,,,53,,,,,,,,,,,,,,257.55199997616,,response,,,,99,,,,,,,Space,keypress(Space),,,,,,,,---- -- ----- -- ------ - ------- --- ----------<br>------------- ------ ------ ---- that ------- ----- -- ----<br>-------- ------- -- ---------- --- - --- ----- ----- ----<br>---- --- --- ----- --- ---- ---- ------- ----- ---- -------<br>--- --- -- ----- -- --- ---- -- --- ---- -- ------ ------<br>--- ----- -- ----,174079.89999997616,174078.89999997616,173804.7,173816.10000002384,173821.348,174088.318,,13,that
screen,html.Screen,2_1_0_1_14,2022-02-17T14:19:53.632Z,,,,,,,,,,,,,,,,,53,,,,,,,,,,,,,,310.4820000119216,,response,,,,99,,,,,,,Space,keypress(Space),,,,,,,,---- -- ----- -- ------ - ------- --- ----------<br>------------- ------ ------ ---- ---- feeling ----- -- ----<br>-------- ------- -- ---------- --- - --- ----- ----- ----<br>---- --- --- ----- --- ---- ---- ------- ----- ---- -------<br>--- --- -- ----- -- --- ---- -- --- ---- -- ------ ------<br>--- ----- -- ----,174400,174398.80000001192,174071.631,174080.19999998808,174088.318,174405.263,,14,feeling
screen,html.Screen,2_1_0_1_15,2022-02-17T14:19:53.936Z,,,,,,,,,,,,,,,,,53,,,,,,,,,,,,,,297.63699997615186,,response,,,,99,,,,,,,Space,keypress(Space),,,,,,,,---- -- ----- -- ------ - ------- --- ----------<br>------------- ------ ------ ---- ---- ------- close -- ----<br>-------- ------- -- ---------- --- - --- ----- ----- ----<br>---- --- --- ----- --- ---- ---- ------- ----- ---- -------<br>--- --- -- ----- -- --- ---- -- --- ---- -- ------ ------<br>--- ----- -- ----,174703.89999997616,174702.89999997616,174388.619,174400.19999998808,174405.263,174734.954,,15,close
screen,html.Screen,2_1_0_1_16,2022-02-17T14:19:54.256Z,,,,,,,,,,,,,,,,,53,,,,,,,,,,,,,,287.94599997616024,,response,,,,99,,,,,,,Space,keypress(Space),,,,,,,,---- -- ----- -- ------ - ------- --- ----------<br>------------- ------ ------ ---- ---- ------- ----- to ----<br>-------- ------- -- ---------- --- - --- ----- ----- ----<br>---- --- --- ----- --- ---- ---- ------- ----- ---- -------<br>--- --- -- ----- -- --- ---- -- --- ---- -- ------ ------<br>--- ----- -- ----,175023.80000001192,175022.89999997616,174688.887,174704.19999998808,174734.954,175039.361,,16,to
screen,html.Screen,2_1_0_1_17,2022-02-17T14:19:54.577Z,,,,,,,,,,,,,,,,,53,,,,,,,,,,,,,,304.83899998807465,,response,,,,99,,,,,,,Space,keypress(Space),,,,,,,,---- -- ----- -- ------ - ------- --- ----------<br>------------- ------ ------ ---- ---- ------- ----- -- your<br>-------- ------- -- ---------- --- - --- ----- ----- ----<br>---- --- --- ----- --- ---- ---- ------- ----- ---- -------<br>--- --- -- ----- -- --- ---- -- --- ---- -- ------ ------<br>--- ----- -- ----,175345.39999997616,175344.19999998808,175022.628,175024.19999998808,175039.361,175356.196,,17,your
screen,html.Screen,2_1_0_1_18,2022-02-17T14:19:55.000Z,,,,,,,,,,,,,,,,,53,,,,,,,,,,,,,,410.60400001192465,,response,,,,99,,,,,,,Space,keypress(Space),,,,,,,,---- -- ----- -- ------ - ------- --- ----------<br>------------- ------ ------ ---- ---- ------- ----- -- ----<br>romantic ------- -- ---------- --- - --- ----- ----- ----<br>---- --- --- ----- --- ---- ---- ------- ----- ---- -------<br>--- --- -- ----- -- --- ---- -- --- ---- -- ------ ------<br>--- ----- -- ----,175767.80000001192,175766.80000001192,175339.568,175345.60000002384,175356.196,175773.295,,18,romantic
screen,html.Screen,2_1_0_1_19,2022-02-17T14:19:55.352Z,,,,,,,,,,,,,,,,,53,,,,,,,,,,,,,,345.5050000119081,,response,,,,99,,,,,,,Space,keypress(Space),,,,,,,,---- -- ----- -- ------ - ------- --- ----------<br>------------- ------ ------ ---- ---- ------- ----- -- ----<br>-------- partner -- ---------- --- - --- ----- ----- ----<br>---- --- --- ----- --- ---- ---- ------- ----- ---- -------<br>--- --- -- ----- -- --- ---- -- --- ---- -- ------ ------<br>--- ----- -- ----,176119.89999997616,176118.80000001192,175756.635,175768.10000002384,175773.295,176123.637,,19,partner
screen,html.Screen,2_1_0_1_20,2022-02-17T14:19:55.824Z,,,,,,,,,,,,,,,,,53,,,,,,,,,,,,,,467.26299997617025,,response,,,,99,,,,,,,Space,keypress(Space),,,,,,,,---- -- ----- -- ------ - ------- --- ----------<br>------------- ------ ------ ---- ---- ------- ----- -- ----<br>-------- ------- is ---------- --- - --- ----- ----- ----<br>---- --- --- ----- --- ---- ---- ------- ----- ---- -------<br>--- --- -- ----- -- --- ---- -- --- ---- -- ------ ------<br>--- ----- -- ----,176591.89999997616,176590.89999997616,176106.989,176120.10000002384,176123.637,176607.548,,20,is
screen,html.Screen,2_1_0_1_21,2022-02-17T14:19:56.224Z,,,,,,,,,,,,,,,,,53,,,,,,,,,,,,,,383.25200001191115,,response,,,,99,,,,,,,Space,keypress(Space),,,,,,,,---- -- ----- -- ------ - ------- --- ----------<br>------------- ------ ------ ---- ---- ------- ----- -- ----<br>-------- ------- -- paramount. --- - --- ----- ----- ----<br>---- --- --- ----- --- ---- ---- ------- ----- ---- -------<br>--- --- -- ----- -- --- ---- -- --- ---- -- ------ ------<br>--- ----- -- ----,176992,176990.80000001192,176590.781,176592.19999998808,176607.548,177007.916,,21,paramount.
screen,html.Screen,2_1_0_1_22,2022-02-17T14:19:56.730Z,,,,,,,,,,,,,,,,,53,,,,,,,,,,,,,,489.4839999761607,,response,,,,99,,,,,,,Space,keypress(Space),,,,,,,,---- -- ----- -- ------ - ------- --- ----------<br>------------- ------ ------ ---- ---- ------- ----- -- ----<br>-------- ------- -- ---------- But - --- ----- ----- ----<br>---- --- --- ----- --- ---- ---- ------- ----- ---- -------<br>--- --- -- ----- -- --- ---- -- --- ---- -- ------ ------<br>--- ----- -- ----,177498.60000002384,177497.39999997616,176991.16,176992.19999998808,177007.916,177508.391,,22,But
screen,html.Screen,2_1_0_1_23,2022-02-17T14:19:57.040Z,,,,,,,,,,,,,,,,,53,,,,,,,,,,,,,,297.5089999761549,,response,,,,99,,,,,,,Space,keypress(Space),,,,,,,,---- -- ----- -- ------ - ------- --- ----------<br>------------- ------ ------ ---- ---- ------- ----- -- ----<br>-------- ------- -- ---------- --- a --- ----- ----- ----<br>---- --- --- ----- --- ---- ---- ------- ----- ---- -------<br>--- --- -- ----- -- --- ---- -- --- ---- -- ------ ------<br>--- ----- -- ----,177808.69999998808,177805.89999997616,177491.69,177498.89999997616,177508.391,177825.312,,23,a
screen,html.Screen,2_1_0_1_24,2022-02-17T14:19:57.438Z,,,,,,,,,,,,,,,,,53,,,,,,,,,,,,,,380.68799999999464,,response,,,,99,,,,,,,Space,keypress(Space),,,,,,,,---- -- ----- -- ------ - ------- --- ----------<br>------------- ------ ------ ---- ---- ------- ----- -- ----<br>-------- ------- -- ---------- --- - new ----- ----- ----<br>---- --- --- ----- --- ---- ---- ------- ----- ---- -------<br>--- --- -- ----- -- --- ---- -- --- ---- -- ------ ------<br>--- ----- -- ----,178206.39999997616,178206,177808.644,177808.89999997616,177825.312,178209.017,,24,new
screen,html.Screen,2_1_0_1_25,2022-02-17T14:19:57.728Z,,,,,,,,,,,,,,,,,53,,,,,,,,,,,,,,285.6829999880865,,response,,,,99,,,,,,,Space,keypress(Space),,,,,,,,---- -- ----- -- ------ - ------- --- ----------<br>------------- ------ ------ ---- ---- ------- ----- -- ----<br>-------- ------- -- ---------- --- - --- study ----- ----<br>---- --- --- ----- --- ---- ---- ------- ----- ---- -------<br>--- --- -- ----- -- --- ---- -- --- ---- -- ------ ------<br>--- ----- -- ----,178495.89999997616,178494.69999998808,178192.302,178206.39999997616,178209.017,178509.426,,25,study
screen,html.Screen,2_1_0_1_26,2022-02-17T14:19:58.168Z,,,,,,,,,,,,,,,,,53,,,,,,,,,,,,,,425.4739999761514,,response,,,,99,,,,,,,Space,keypress(Space),,,,,,,,---- -- ----- -- ------ - ------- --- ----------<br>------------- ------ ------ ---- ---- ------- ----- -- ----<br>-------- ------- -- ---------- --- - --- ----- finds ----<br>---- --- --- ----- --- ---- ---- ------- ----- ---- -------<br>--- --- -- ----- -- --- ---- -- --- ---- -- ------ ------<br>--- ----- -- ----,178936,178934.89999997616,178492.738,178496.19999998808,178509.426,178943.212,,26,finds
screen,html.Screen,2_1_0_1_27,2022-02-17T14:19:58.592Z,,,,,,,,,,,,,,,,,53,,,,,,,,,,,,,,415.5880000119214,,response,,,,99,,,,,,,Space,keypress(Space),,,,,,,,---- -- ----- -- ------ - ------- --- ----------<br>------------- ------ ------ ---- ---- ------- ----- -- ----<br>-------- ------- -- ---------- --- - --- ----- ----- that<br>---- --- --- ----- --- ---- ---- ------- ----- ---- -------<br>--- --- -- ----- -- --- ---- -- --- ---- -- ------ ------<br>--- ----- -- ----,179359.80000001192,179358.80000001192,178926.478,178936.5,178943.212,179377.002,,27,that
screen,html.Screen,2_1_0_1_28,2022-02-17T14:19:58.969Z,,,,,,,,,,,,,,,,,53,,,,,,,,,,,,,,358.6979999880714,,response,,,,99,,,,,,,Space,keypress(Space),,,,,,,,---- -- ----- -- ------ - ------- --- ----------<br>------------- ------ ------ ---- ---- ------- ----- -- ----<br>-------- ------- -- ---------- --- - --- ----- ----- ----<br>it's --- --- ----- --- ---- ---- ------- ----- ---- -------<br>--- --- -- ----- -- --- ---- -- --- ---- -- ------ ------<br>--- ----- -- ----,179736.80000001192,179735.69999998808,179360.216,179360.10000002384,179377.002,179743.896,,28,it's
screen,html.Screen,2_1_0_1_29,2022-02-17T14:19:59.368Z,,,,,,,,,,,,,,,,,53,,,,,,,,,,,,,,391.0039999761502,,response,,,,99,,,,,,,Space,keypress(Space),,,,,,,,---- -- ----- -- ------ - ------- --- ----------<br>------------- ------ ------ ---- ---- ------- ----- -- ----<br>-------- ------- -- ---------- --- - --- ----- ----- ----<br>---- not --- ----- --- ---- ---- ------- ----- ---- -------<br>--- --- -- ----- -- --- ---- -- --- ---- -- ------ ------<br>--- ----- -- ----,180135.89999997616,180134.89999997616,179727.236,179737,179743.896,180144.429,,29,not
screen,html.Screen,2_1_0_1_30,2022-02-17T14:19:59.697Z,,,,,,,,,,,,,,,,,53,,,,,,,,,,,,,,318.3710000119172,,response,,,,99,,,,,,,Space,keypress(Space),,,,,,,,---- -- ----- -- ------ - ------- --- ----------<br>------------- ------ ------ ---- ---- ------- ----- -- ----<br>-------- ------- -- ---------- --- - --- ----- ----- ----<br>---- --- how ----- --- ---- ---- ------- ----- ---- -------<br>--- --- -- ----- -- --- ---- -- --- ---- -- ------ ------<br>--- ----- -- ----,180465.39999997616,180462.80000001192,180127.682,180136.10000002384,180144.429,180478.056,,30,how
screen,html.Screen,2_1_0_1_31,2022-02-17T14:20:00.047Z,,,,,,,,,,,,,,,,,53,,,,,,,,,,,,,,336.64399998806766,,response,,,,99,,,,,,,Space,keypress(Space),,,,,,,,---- -- ----- -- ------ - ------- --- ----------<br>------------- ------ ------ ---- ---- ------- ----- -- ----<br>-------- ------- -- ---------- --- - --- ----- ----- ----<br>---- --- --- close --- ---- ---- ------- ----- ---- -------<br>--- --- -- ----- -- --- ---- -- --- ---- -- ------ ------<br>--- ----- -- ----,180815.80000001192,180814.69999998808,180461.339,180465.69999998808,180478.056,180828.311,,31,close
screen,html.Screen,2_1_0_1_32,2022-02-17T14:20:00.367Z,,,,,,,,,,,,,,,,,53,,,,,,,,,,,,,,306.5889999761712,,response,,,,99,,,,,,,Space,keypress(Space),,,,,,,,---- -- ----- -- ------ - ------- --- ----------<br>------------- ------ ------ ---- ---- ------- ----- -- ----<br>-------- ------- -- ---------- --- - --- ----- ----- ----<br>---- --- --- ----- you ---- ---- ------- ----- ---- -------<br>--- --- -- ----- -- --- ---- -- --- ---- -- ------ ------<br>--- ----- -- ----,181135.89999997616,181134.89999997616,180811.672,180816.10000002384,180828.311,181145.367,,32,you
screen,html.Screen,2_1_0_1_33,2022-02-17T14:20:00.704Z,,,,,,,,,,,,,,,,,53,,,,,,,,,,,,,,325.7330000238435,,response,,,,99,,,,,,,Space,keypress(Space),,,,,,,,---- -- ----- -- ------ - ------- --- ----------<br>------------- ------ ------ ---- ---- ------- ----- -- ----<br>-------- ------- -- ---------- --- - --- ----- ----- ----<br>---- --- --- ----- --- feel ---- ------- ----- ---- -------<br>--- --- -- ----- -- --- ---- -- --- ---- -- ------ ------<br>--- ----- -- ----,181472.39999997616,181471.10000002384,181128.622,181136.19999998808,181145.367,181478.97,,33,feel
screen,html.Screen,2_1_0_1_34,2022-02-17T14:20:01.039Z,,,,,,,,,,,,,,,,,53,,,,,,,,,,,,,,327.83000001191976,,response,,,,99,,,,,,,Space,keypress(Space),,,,,,,,---- -- ----- -- ------ - ------- --- ----------<br>------------- ------ ------ ---- ---- ------- ----- -- ----<br>-------- ------- -- ---------- --- - --- ----- ----- ----<br>---- --- --- ----- --- ---- that ------- ----- ---- -------<br>--- --- -- ----- -- --- ---- -- --- ---- -- ------ ------<br>--- ----- -- ----,181807.89999997616,181806.80000001192,181462.287,181472.60000002384,181478.97,181812.627,,34,that
screen,html.Screen,2_1_0_1_35,2022-02-17T14:20:01.391Z,,,,,,,,,,,,,,,,,53,,,,,,,,,,,,,,346.17300001191325,,response,,,,99,,,,,,,Space,keypress(Space),,,,,,,,---- -- ----- -- ------ - ------- --- ----------<br>------------- ------ ------ ---- ---- ------- ----- -- ----<br>-------- ------- -- ---------- --- - --- ----- ----- ----<br>---- --- --- ----- --- ---- ---- matters ----- ---- -------<br>--- --- -- ----- -- --- ---- -- --- ---- -- ------ ------<br>--- ----- -- ----,182159.80000001192,182158.80000001192,181795.984,181808.19999998808,181812.627,182162.98,,35,matters
screen,html.Screen,2_1_0_1_36,2022-02-17T14:20:01.704Z,,,,,,,,,,,,,,,,,53,,,,,,,,,,,,,,308.32000001191045,,response,,,,99,,,,,,,Space,keypress(Space),,,,,,,,"---- -- ----- -- ------ - ------- --- ----------<br>------------- ------ ------ ---- ---- ------- ----- -- ----<br>-------- ------- -- ---------- --- - --- ----- ----- ----<br>---- --- --- ----- --- ---- ---- ------- most, ---- -------<br>--- --- -- ----- -- --- ---- -- --- ---- -- ------ ------<br>--- ----- -- ----",182472.39999997616,182471.30000001192,182146.304,182160.19999998808,182162.98,182479.972,,36,"most,"
screen,html.Screen,2_1_0_1_37,2022-02-17T14:20:02.007Z,,,,,,,,,,,,,,,,,53,,,,,,,,,,,,,,294.9279999761493,,response,,,,99,,,,,,,Space,keypress(Space),,,,,,,,---- -- ----- -- ------ - ------- --- ----------<br>------------- ------ ------ ---- ---- ------- ----- -- ----<br>-------- ------- -- ---------- --- - --- ----- ----- ----<br>---- --- --- ----- --- ---- ---- ------- ----- it's -------<br>--- --- -- ----- -- --- ---- -- --- ---- -- ------ ------<br>--- ----- -- ----,182776,182774.89999997616,182463.343,182472.69999998808,182479.972,182780.251,,37,it's
screen,html.Screen,2_1_0_1_38,2022-02-17T14:20:02.335Z,,,,,,,,,,,,,,,,,53,,,,,,,,,,,,,,322.54900001193164,,response,,,,99,,,,,,,Space,keypress(Space),,,,,,,,---- -- ----- -- ------ - ------- --- ----------<br>------------- ------ ------ ---- ---- ------- ----- -- ----<br>-------- ------- -- ---------- --- - --- ----- ----- ----<br>---- --- --- ----- --- ---- ---- ------- ----- ---- whether<br>--- --- -- ----- -- --- ---- -- --- ---- -- ------ ------<br>--- ----- -- ----,183103.89999997616,183102.80000001192,182763.63,182776.10000002384,182780.251,183113.989,,38,whether
screen,html.Screen,2_1_0_1_39,2022-02-17T14:20:02.711Z,,,,,,,,,,,,,,,,,53,,,,,,,,,,,,,,364.91099997615675,,response,,,,99,,,,,,,Space,keypress(Space),,,,,,,,---- -- ----- -- ------ - ------- --- ----------<br>------------- ------ ------ ---- ---- ------- ----- -- ----<br>-------- ------- -- ---------- --- - --- ----- ----- ----<br>---- --- --- ----- --- ---- ---- ------- ----- ---- -------<br>you --- -- ----- -- --- ---- -- --- ---- -- ------ ------<br>--- ----- -- ----,183480,183478.89999997616,183097.274,183104.19999998808,183113.989,183514.367,,39,you
screen,html.Screen,2_1_0_1_40,2022-02-17T14:20:03.031Z,,,,,,,,,,,,,,,,,53,,,,,,,,,,,,,,284.5329999761598,,response,,,,99,,,,,,,Space,keypress(Space),,,,,,,,---- -- ----- -- ------ - ------- --- ----------<br>------------- ------ ------ ---- ---- ------- ----- -- ----<br>-------- ------- -- ---------- --- - --- ----- ----- ----<br>---- --- --- ----- --- ---- ---- ------- ----- ---- -------<br>--- are -- ----- -- --- ---- -- --- ---- -- ------ ------<br>--- ----- -- ----,183799.80000001192,183798.89999997616,183497.712,183480.30000001192,183514.367,183814.681,,40,are
screen,html.Screen,2_1_0_1_41,2022-02-17T14:20:03.359Z,,,,,,,,,,,,,,,,,53,,,,,,,,,,,,,,312.1190000119095,,response,,,,99,,,,,,,Space,keypress(Space),,,,,,,,---- -- ----- -- ------ - ------- --- ----------<br>------------- ------ ------ ---- ---- ------- ----- -- ----<br>-------- ------- -- ---------- --- - --- ----- ----- ----<br>---- --- --- ----- --- ---- ---- ------- ----- ---- -------<br>--- --- as ----- -- --- ---- -- --- ---- -- ------ ------<br>--- ----- -- ----,184127.89999997616,184126.80000001192,183797.918,183800.10000002384,183814.681,184131.602,,41,as
screen,html.Screen,2_1_0_1_42,2022-02-17T14:20:03.767Z,,,,,,,,,,,,,,,,,53,,,,,,,,,,,,,,403.09799998806557,,response,,,,99,,,,,,,Space,keypress(Space),,,,,,,,---- -- ----- -- ------ - ------- --- ----------<br>------------- ------ ------ ---- ---- ------- ----- -- ----<br>-------- ------- -- ---------- --- - --- ----- ----- ----<br>---- --- --- ----- --- ---- ---- ------- ----- ---- -------<br>--- --- -- close -- --- ---- -- --- ---- -- ------ ------<br>--- ----- -- ----,184535.80000001192,184534.69999998808,184114.956,184128,184131.602,184548.748,,42,close
screen,html.Screen,2_1_0_1_43,2022-02-17T14:20:04.119Z,,,,,,,,,,,,,,,,,53,,,,,,,,,,,,,,338.0520000119286,,response,,,,99,,,,,,,Space,keypress(Space),,,,,,,,---- -- ----- -- ------ - ------- --- ----------<br>------------- ------ ------ ---- ---- ------- ----- -- ----<br>-------- ------- -- ---------- --- - --- ----- ----- ----<br>---- --- --- ----- --- ---- ---- ------- ----- ---- -------<br>--- --- -- ----- as --- ---- -- --- ---- -- ------ ------<br>--- ----- -- ----,184887.80000001192,184886.80000001192,184532.065,184535.89999997616,184548.748,184899.091,,43,as
screen,html.Screen,2_1_0_1_44,2022-02-17T14:20:04.543Z,,,,,,,,,,,,,,,,,53,,,,,,,,,,,,,,411.70900001193513,,response,,,,99,,,,,,,Space,keypress(Space),,,,,,,,---- -- ----- -- ------ - ------- --- ----------<br>------------- ------ ------ ---- ---- ------- ----- -- ----<br>-------- ------- -- ---------- --- - --- ----- ----- ----<br>---- --- --- ----- --- ---- ---- ------- ----- ---- -------<br>--- --- -- ----- -- you ---- -- --- ---- -- ------ ------<br>--- ----- -- ----,185311.80000001192,185310.80000001192,184882.39,184888.10000002384,184899.091,185316.166,,44,you
screen,html.Screen,2_1_0_1_45,2022-02-17T14:20:04.991Z,,,,,,,,,,,,,,,,,53,,,,,,,,,,,,,,442.7339999761607,,response,,,,99,,,,,,,Space,keypress(Space),,,,,,,,---- -- ----- -- ------ - ------- --- ----------<br>------------- ------ ------ ---- ---- ------- ----- -- ----<br>-------- ------- -- ---------- --- - --- ----- ----- ----<br>---- --- --- ----- --- ---- ---- ------- ----- ---- -------<br>--- --- -- ----- -- --- want -- --- ---- -- ------ ------<br>--- ----- -- ----,185759.89999997616,185758.89999997616,185299.475,185312,185316.166,185766.577,,45,want
screen,html.Screen,2_1_0_1_46,2022-02-17T14:20:05.358Z,,,,,,,,,,,,,,,,,53,,,,,,,,,,,,,,359.8229999761679,,response,,,,99,,,,,,,Space,keypress(Space),,,,,,,,---- -- ----- -- ------ - ------- --- ----------<br>------------- ------ ------ ---- ---- ------- ----- -- ----<br>-------- ------- -- ---------- --- - --- ----- ----- ----<br>---- --- --- ----- --- ---- ---- ------- ----- ---- -------<br>--- --- -- ----- -- --- ---- to --- ---- -- ------ ------<br>--- ----- -- ----,186127.10000002384,186126.39999997616,185749.887,185760.19999998808,185766.577,186133.616,,46,to
screen,html.Screen,2_1_0_1_47,2022-02-17T14:20:05.735Z,,,,,,,,,,,,,,,,,53,,,,,,,,,,,,,,369.18400001191185,,response,,,,99,,,,,,,Space,keypress(Space),,,,,,,,"---- -- ----- -- ------ - ------- --- ----------<br>------------- ------ ------ ---- ---- ------- ----- -- ----<br>-------- ------- -- ---------- --- - --- ----- ----- ----<br>---- --- --- ----- --- ---- ---- ------- ----- ---- -------<br>--- --- -- ----- -- --- ---- -- be, ---- -- ------ ------<br>--- ----- -- ----",186503.89999997616,186502.80000001192,186116.913,186127.19999998808,186133.616,186517.41,,47,"be,"
screen,html.Screen,2_1_0_1_48,2022-02-17T14:20:06.047Z,,,,,,,,,,,,,,,,,53,,,,,,,,,,,,,,297.48999997615465,,response,,,,99,,,,,,,Space,keypress(Space),,,,,,,,---- -- ----- -- ------ - ------- --- ----------<br>------------- ------ ------ ---- ---- ------- ----- -- ----<br>-------- ------- -- ---------- --- - --- ----- ----- ----<br>---- --- --- ----- --- ---- ---- ------- ----- ---- -------<br>--- --- -- ----- -- --- ---- -- --- even -- ------ ------<br>--- ----- -- ----,186815.89999997616,186814.89999997616,186500.65,186504.10000002384,186517.41,186849.778,,48,even
screen,html.Screen,2_1_0_1_49,2022-02-17T14:20:06.391Z,,,,,,,,,,,,,,,,,53,,,,,,,,,,,,,,309.0220000119298,,response,,,,99,,,,,,,Space,keypress(Space),,,,,,,,---- -- ----- -- ------ - ------- --- ----------<br>------------- ------ ------ ---- ---- ------- ----- -- ----<br>-------- ------- -- ---------- --- - --- ----- ----- ----<br>---- --- --- ----- --- ---- ---- ------- ----- ---- -------<br>--- --- -- ----- -- --- ---- -- --- ---- if ------ ------<br>--- ----- -- ----,187160.10000002384,187158.80000001192,186800.96,186816.10000002384,186849.778,187167.972,,49,if
screen,html.Screen,2_1_0_1_50,2022-02-17T14:20:06.703Z,,,,,,,,,,,,,,,,,53,,,,,,,,,,,,,,303.02799999999115,,response,,,,99,,,,,,,Space,keypress(Space),,,,,,,,---- -- ----- -- ------ - ------- --- ----------<br>------------- ------ ------ ---- ---- ------- ----- -- ----<br>-------- ------- -- ---------- --- - --- ----- ----- ----<br>---- --- --- ----- --- ---- ---- ------- ----- ---- -------<br>--- --- -- ----- -- --- ---- -- --- ---- -- that's ------<br>--- ----- -- ----,187472.19999998808,187471,187151.338,187160.39999997616,187167.972,187484.996,,50,that's
screen,html.Screen,2_1_0_1_51,2022-02-17T14:20:07.399Z,,,,,,,,,,,,,,,,,53,,,,,,,,,,,,,,681.9039999761444,,response,,,,99,,,,,,,Space,keypress(Space),,,,,,,,---- -- ----- -- ------ - ------- --- ----------<br>------------- ------ ------ ---- ---- ------- ----- -- ----<br>-------- ------- -- ---------- --- - --- ----- ----- ----<br>---- --- --- ----- --- ---- ---- ------- ----- ---- -------<br>--- --- -- ----- -- --- ---- -- --- ---- -- ------ really<br>--- ----- -- ----,188167.89999997616,188166.89999997616,187468.295,187472.39999997616,187484.996,188185.71,,51,really
screen,html.Screen,2_1_0_1_52,2022-02-17T14:20:07.759Z,,,,,,,,,,,,,,,,,53,,,,,,,,,,,,,,341.1899999761663,,response,,,,99,,,,,,,Space,keypress(Space),,,,,,,,---- -- ----- -- ------ - ------- --- ----------<br>------------- ------ ------ ---- ---- ------- ----- -- ----<br>-------- ------- -- ---------- --- - --- ----- ----- ----<br>---- --- --- ----- --- ---- ---- ------- ----- ---- -------<br>--- --- -- ----- -- --- ---- -- --- ---- -- ------ ------<br>not ----- -- ----,188527.80000001192,188526.89999997616,188152.327,188168.10000002384,188185.71,188536.08,,52,not
screen,html.Screen,2_1_0_1_53,2022-02-17T14:20:08.127Z,,,,,,,,,,,,,,,,,53,,,,,,,,,,,,,,358.72000001193373,,response,,,,99,,,,,,,Space,keypress(Space),,,,,,,,---- -- ----- -- ------ - ------- --- ----------<br>------------- ------ ------ ---- ---- ------- ----- -- ----<br>-------- ------- -- ---------- --- - --- ----- ----- ----<br>---- --- --- ----- --- ---- ---- ------- ----- ---- -------<br>--- --- -- ----- -- --- ---- -- --- ---- -- ------ ------<br>--- close -- ----,188895.89999997616,188894.80000001192,188519.371,188528.10000002384,188536.08,188903.211,,53,close
screen,html.Screen,2_1_0_1_54,2022-02-17T14:20:08.535Z,,,,,,,,,,,,,,,,,53,,,,,,,,,,,,,,399.5890000119107,,response,,,,99,,,,,,,Space,keypress(Space),,,,,,,,---- -- ----- -- ------ - ------- --- ----------<br>------------- ------ ------ ---- ---- ------- ----- -- ----<br>-------- ------- -- ---------- --- - --- ----- ----- ----<br>---- --- --- ----- --- ---- ---- ------- ----- ---- -------<br>--- --- -- ----- -- --- ---- -- --- ---- -- ------ ------<br>--- ----- at ----,189303.89999997616,189302.80000001192,188886.399,188896.10000002384,188903.211,189320.173,,54,at
screen,html.Screen,2_1_0_1_55,2022-02-17T14:20:08.863Z,,,,,,,,,,,,,,,,,53,,,,,,,,,,,,,,310.9270000238321,,response,,,,99,,,,,,,Space,keypress(Space),,,,,,,,---- -- ----- -- ------ - ------- --- ----------<br>------------- ------ ------ ---- ---- ------- ----- -- ----<br>-------- ------- -- ---------- --- - --- ----- ----- ----<br>---- --- --- ----- --- ---- ---- ------- ----- ---- -------<br>--- --- -- ----- -- --- ---- -- --- ---- -- ------ ------<br>--- ----- -- all.,189632.19999998808,189631.10000002384,189303.462,189304.10000002384,189320.173,189653.768,,55,all.
Item 99,flow.Loop,2_1_0_1,2022-02-17T14:20:08.864Z,,,,,,,,,,,,,,,,,,,,,,,,,,,,,,,20013.914000023855,,completion,,,,,E,,,,,,,,,,,silence,,,,,189632.80000001192,189631.10000002384,169550.406,169551.30000001192,169617.186,189653.768,,,
Question 1,html.Screen,2_1_0_2,2022-02-17T14:20:18.366Z,,,,,,,,,,,,,,,,,,,,,,,,,,,,true,FALSE,,9480.131999976147,,response,,,,99,E,,,,,,FALSE,click #choice-2,,,,silence,,,,,199134.5,199133.89999997616,189620.451,189633,189653.768,199146.583,,,
Question 2,html.Screen,2_1_0_3,2022-02-17T14:20:23.133Z,,,,,,,,,,,,,,,,,,,,,,,,,,,,true,TRUE,,4755.217000011908,,response,,,,99,E,,,,,,TRUE,click #choice-1,,,,silence,,,,,203902.19999998808,203901.80000001192,199129.934,199134.60000002384,199146.583,203934.671,,,
Item 99,flow.Sequence,2_1_0,2022-02-17T14:20:23.134Z,,,,,,,,,,,,,,,,,,,,,,,,,,,,,,,44328.00500001191,,completion,,,,,,,,,,,,,,,,,,,,,203902.39999997616,203901.80000001192,159557.248,159569.89999997616,159573.795,203934.671,,,
Holding screen,html.Screen,2_1_1_0,2022-02-17T14:20:33.144Z,,,,,,,,,,,,,,,,,,,,,,,,,,,,,,,9993.255000000005,,timeout,,,,,,,,,,,,,,,,,,,,,213912.80000001192,213911.251,203917.919,203902.60000002384,203934.671,213927.926,,,
screen,html.Screen,2_1_1_1_0,2022-02-17T14:20:34.472Z,,,,,,,,,,,,,,,,,54,,,,,,,,,,,,,,1311.5739999999932,,response,,,,100,,,,,,,Space,keypress(Space),,,,,,,,At --- ---- --- ------ ----- ------- ---- -- --- ------- --<br>------- ---------- ------ -- ----- -- ----- -- ---- ------<br>--- ----- --- --- ------ -------- ----- --- ------ ----- --<br>----- ----- ---------- --- --- ------ ------ ---- -- ------<br>------- --- ------ ----- --- ---- ------- -- ---- --- --<br>------- ------,215240.69999998808,215239.5,213911.251,213913.19999998808,213927.926,215245.907,,0,At
screen,html.Screen,2_1_1_1_1,2022-02-17T14:20:35.175Z,,,,,,,,,,,,,,,,,54,,,,,,,,,,,,,,696.6930000238353,,response,,,,100,,,,,,,Space,keypress(Space),,,,,,,,-- the ---- --- ------ ----- ------- ---- -- --- ------- --<br>------- ---------- ------ -- ----- -- ----- -- ---- ------<br>--- ----- --- --- ------ -------- ----- --- ------ ----- --<br>----- ----- ---------- --- --- ------ ------ ---- -- ------<br>------- --- ------ ----- --- ---- ------- -- ---- --- --<br>------- ------,215943.60000002384,215942.60000002384,215229.251,215240.89999997616,215245.907,215946.593,,1,the
screen,html.Screen,2_1_1_1_2,2022-02-17T14:20:35.983Z,,,,,,,,,,,,,,,,,54,,,,,,,,,,,,,,804.2070000119274,,response,,,,100,,,,,,,Space,keypress(Space),,,,,,,,-- --- time --- ------ ----- ------- ---- -- --- ------- --<br>------- ---------- ------ -- ----- -- ----- -- ---- ------<br>--- ----- --- --- ------ -------- ----- --- ------ ----- --<br>----- ----- ---------- --- --- ------ ------ ---- -- ------<br>------- --- ------ ----- --- ---- ------- -- ---- --- --<br>------- ------,216751.89999997616,216750.80000001192,215929.962,215943.89999997616,215946.593,216764.127,,2,time
screen,html.Screen,2_1_1_1_3,2022-02-17T14:20:37.182Z,,,,,,,,,,,,,,,,,54,,,,,,,,,,,,,,1185.9730000238342,,response,,,,100,,,,,,,Space,keypress(Space),,,,,,,,-- --- ---- the ------ ----- ------- ---- -- --- ------- --<br>------- ---------- ------ -- ----- -- ----- -- ---- ------<br>--- ----- --- --- ------ -------- ----- --- ------ ----- --<br>----- ----- ---------- --- --- ------ ------ ---- -- ------<br>------- --- ------ ----- --- ---- ------- -- ---- --- --<br>------- ------,217950.89999997616,217950.10000002384,216747.411,216752.10000002384,216764.127,217965.352,,3,the
screen,html.Screen,2_1_1_1_4,2022-02-17T14:20:38.135Z,,,,,,,,,,,,,,,,,54,,,,,,,,,,,,,,937.3479999880656,,response,,,,100,,,,,,,Space,keypress(Space),,,,,,,,-- --- ---- --- French ----- ------- ---- -- --- ------- --<br>------- ---------- ------ -- ----- -- ----- -- ---- ------<br>--- ----- --- --- ------ -------- ----- --- ------ ----- --<br>----- ----- ---------- --- --- ------ ------ ---- -- ------<br>------- --- ------ ----- --- ---- ------- -- ---- --- --<br>------- ------,218903.89999997616,218902.69999998808,217948.666,217951,217965.352,218916.306,,4,French
screen,html.Screen,2_1_1_1_5,2022-02-17T14:20:38.559Z,,,,,,,,,,,,,,,,,54,,,,,,,,,,,,,,410.1939999999886,,response,,,,100,,,,,,,Space,keypress(Space),,,,,,,,-- --- ---- --- ------ crown ------- ---- -- --- ------- --<br>------- ---------- ------ -- ----- -- ----- -- ---- ------<br>--- ----- --- --- ------ -------- ----- --- ------ ----- --<br>----- ----- ---------- --- --- ------ ------ ---- -- ------<br>------- --- ------ ----- --- ---- ------- -- ---- --- --<br>------- ------,219327.5,219326.5,218899.561,218904.10000002384,218916.306,219333.302,,5,crown
screen,html.Screen,2_1_1_1_6,2022-02-17T14:20:39.245Z,,,,,,,,,,,,,,,,,54,,,,,,,,,,,,,,680.397999988083,,response,,,,100,,,,,,,Space,keypress(Space),,,,,,,,-- --- ---- --- ------ ----- secured ---- -- --- ------- --<br>------- ---------- ------ -- ----- -- ----- -- ---- ------<br>--- ----- --- --- ------ -------- ----- --- ------ ----- --<br>----- ----- ---------- --- --- ------ ------ ---- -- ------<br>------- --- ------ ----- --- ---- ------- -- ---- --- --<br>------- ------,220014.19999998808,220013.69999998808,219316.673,219329.39999997616,219333.302,220017.296,,6,secured
screen,html.Screen,2_1_1_1_7,2022-02-17T14:20:39.631Z,,,,,,,,,,,,,,,,,54,,,,,,,,,,,,,,381.30400002383976,,response,,,,100,,,,,,,Space,keypress(Space),,,,,,,,-- --- ---- --- ------ ----- ------- much -- --- ------- --<br>------- ---------- ------ -- ----- -- ----- -- ---- ------<br>--- ----- --- --- ------ -------- ----- --- ------ ----- --<br>----- ----- ---------- --- --- ------ ------ ---- -- ------<br>------- --- ------ ----- --- ---- ------- -- ---- --- --<br>------- ------,220399.60000002384,220398.60000002384,220000.682,220014.30000001192,220017.296,220424.386,,7,much
screen,html.Screen,2_1_1_1_8,2022-02-17T14:20:39.959Z,,,,,,,,,,,,,,,,,54,,,,,,,,,,,,,,302.31399998808047,,response,,,,100,,,,,,,Space,keypress(Space),,,,,,,,-- --- ---- --- ------ ----- ------- ---- of --- ------- --<br>------- ---------- ------ -- ----- -- ----- -- ---- ------<br>--- ----- --- --- ------ -------- ----- --- ------ ----- --<br>----- ----- ---------- --- --- ------ ------ ---- -- ------<br>------- --- ------ ----- --- ---- ------- -- ---- --- --<br>------- ------,220727.80000001192,220726.69999998808,220384.313,220399.80000001192,220424.386,220734.726,,8,of
screen,html.Screen,2_1_1_1_9,2022-02-17T14:20:40.293Z,,,,,,,,,,,,,,,,,54,,,,,,,,,,,,,,326.97399998808396,,response,,,,100,,,,,,,Space,keypress(Space),,,,,,,,-- --- ---- --- ------ ----- ------- ---- -- its ------- --<br>------- ---------- ------ -- ----- -- ----- -- ---- ------<br>--- ----- --- --- ------ -------- ----- --- ------ ----- --<br>----- ----- ---------- --- --- ------ ------ ---- -- ------<br>------- --- ------ ----- --- ---- ------- -- ---- --- --<br>------- ------,221062,221061.69999998808,220718.039,220728,220734.726,221068.29,,9,its
screen,html.Screen,2_1_1_1_10,2022-02-17T14:20:40.655Z,,,,,,,,,,,,,,,,,54,,,,,,,,,,,,,,354.20999999999185,,response,,,,100,,,,,,,Space,keypress(Space),,,,,,,,-- --- ---- --- ------ ----- ------- ---- -- --- revenue --<br>------- ---------- ------ -- ----- -- ----- -- ---- ------<br>--- ----- --- --- ------ -------- ----- --- ------ ----- --<br>----- ----- ---------- --- --- ------ ------ ---- -- ------<br>------- --- ------ ----- --- ---- ------- -- ---- --- --<br>------- ------,221423.60000002384,221422.5,221051.718,221062.10000002384,221068.29,221435.412,,10,revenue
screen,html.Screen,2_1_1_1_11,2022-02-17T14:20:40.991Z,,,,,,,,,,,,,,,,,54,,,,,,,,,,,,,,323.2879999880679,,response,,,,100,,,,,,,Space,keypress(Space),,,,,,,,-- --- ---- --- ------ ----- ------- ---- -- --- ------- by<br>------- ---------- ------ -- ----- -- ----- -- ---- ------<br>--- ----- --- --- ------ -------- ----- --- ------ ----- --<br>----- ----- ---------- --- --- ------ ------ ---- -- ------<br>------- --- ------ ----- --- ---- ------- -- ---- --- --<br>------- ------,221759.69999998808,221758.69999998808,221418.757,221423.89999997616,221435.412,221769.146,,11,by
screen,html.Screen,2_1_1_1_12,2022-02-17T14:20:41.319Z,,,,,,,,,,,,,,,,,54,,,,,,,,,,,,,,317.55399998807115,,response,,,,100,,,,,,,Space,keypress(Space),,,,,,,,-- --- ---- --- ------ ----- ------- ---- -- --- ------- --<br>issuing ---------- ------ -- ----- -- ----- -- ---- ------<br>--- ----- --- --- ------ -------- ----- --- ------ ----- --<br>----- ----- ---------- --- --- ------ ------ ---- -- ------<br>------- --- ------ ----- --- ---- ------- -- ---- --- --<br>------- ------,222087.69999998808,222086.69999998808,221752.309,221760,221769.146,222102.778,,12,issuing
screen,html.Screen,2_1_1_1_13,2022-02-17T14:20:41.823Z,,,,,,,,,,,,,,,,,54,,,,,,,,,,,,,,487.9219999880879,,response,,,,100,,,,,,,Space,keypress(Space),,,,,,,,-- --- ---- --- ------ ----- ------- ---- -- --- ------- --<br>------- government ------ -- ----- -- ----- -- ---- ------<br>--- ----- --- --- ------ -------- ----- --- ------ ----- --<br>----- ----- ---------- --- --- ------ ------ ---- -- ------<br>------- --- ------ ----- --- ---- ------- -- ---- --- --<br>------- ------,222591.69999998808,222590.69999998808,222086.091,222087.89999997616,222102.778,222603.291,,13,government
screen,html.Screen,2_1_1_1_14,2022-02-17T14:20:42.207Z,,,,,,,,,,,,,,,,,54,,,,,,,,,,,,,,371.1089999761607,,response,,,,100,,,,,,,Space,keypress(Space),,,,,,,,-- --- ---- --- ------ ----- ------- ---- -- --- ------- --<br>------- ---------- bonds. -- ----- -- ----- -- ---- ------<br>--- ----- --- --- ------ -------- ----- --- ------ ----- --<br>----- ----- ---------- --- --- ------ ------ ---- -- ------<br>------- --- ------ ----- --- ---- ------- -- ---- --- --<br>------- ------,222975.5,222974.39999997616,222586.586,222591.89999997616,222603.291,222986.99,,14,bonds.
screen,html.Screen,2_1_1_1_15,2022-02-17T14:20:42.703Z,,,,,,,,,,,,,,,,,54,,,,,,,,,,,,,,483.7099999880884,,response,,,,100,,,,,,,Space,keypress(Space),,,,,,,,-- --- ---- --- ------ ----- ------- ---- -- --- ------- --<br>------- ---------- ------ In ----- -- ----- -- ---- ------<br>--- ----- --- --- ------ -------- ----- --- ------ ----- --<br>----- ----- ---------- --- --- ------ ------ ---- -- ------<br>------- --- ------ ----- --- ---- ------- -- ---- --- --<br>------- ------,223471.69999998808,223470.69999998808,222970.258,222975.69999998808,222986.99,223487.52,,15,In
screen,html.Screen,2_1_1_1_16,2022-02-17T14:20:43.279Z,,,,,,,,,,,,,,,,,54,,,,,,,,,,,,,,559.1799999880895,,response,,,,100,,,,,,,Space,keypress(Space),,,,,,,,"-- --- ---- --- ------ ----- ------- ---- -- --- ------- --<br>------- ---------- ------ -- 1727, -- ----- -- ---- ------<br>--- ----- --- --- ------ -------- ----- --- ------ ----- --<br>----- ----- ---------- --- --- ------ ------ ---- -- ------<br>------- --- ------ ----- --- ---- ------- -- ---- --- --<br>------- ------",224047.89999997616,224046.69999998808,223470.766,223471.89999997616,223487.52,224054.676,,16,"1727,"
screen,html.Screen,2_1_1_1_17,2022-02-17T14:20:43.927Z,,,,,,,,,,,,,,,,,54,,,,,,,,,,,,,,640.0239999880723,,response,,,,100,,,,,,,Space,keypress(Space),,,,,,,,-- --- ---- --- ------ ----- ------- ---- -- --- ------- --<br>------- ---------- ------ -- ----- in ----- -- ---- ------<br>--- ----- --- --- ------ -------- ----- --- ------ ----- --<br>----- ----- ---------- --- --- ------ ------ ---- -- ------<br>------- --- ------ ----- --- ---- ------- -- ---- --- --<br>------- ------,224695.69999998808,224694.69999998808,224038.005,224048.10000002384,224054.676,224705.385,,17,in
screen,html.Screen,2_1_1_1_18,2022-02-17T14:20:44.199Z,,,,,,,,,,,,,,,,,54,,,,,,,,,,,,,,261.31499998806976,,response,,,,100,,,,,,,Space,keypress(Space),,,,,,,,-- --- ---- --- ------ ----- ------- ---- -- --- ------- --<br>------- ---------- ------ -- ----- -- order -- ---- ------<br>--- ----- --- --- ------ -------- ----- --- ------ ----- --<br>----- ----- ---------- --- --- ------ ------ ---- -- ------<br>------- --- ------ ----- --- ---- ------- -- ---- --- --<br>------- ------,224967.80000001192,224966.69999998808,224688.657,224695.89999997616,224705.385,224972.256,,18,order
screen,html.Screen,2_1_1_1_19,2022-02-17T14:20:44.511Z,,,,,,,,,,,,,,,,,54,,,,,,,,,,,,,,307.044000011927,,response,,,,100,,,,,,,Space,keypress(Space),,,,,,,,-- --- ---- --- ------ ----- ------- ---- -- --- ------- --<br>------- ---------- ------ -- ----- -- ----- to ---- ------<br>--- ----- --- --- ------ -------- ----- --- ------ ----- --<br>----- ----- ---------- --- --- ------ ------ ---- -- ------<br>------- --- ------ ----- --- ---- ------- -- ---- --- --<br>------- ------,225280.30000001192,225279.30000001192,224955.624,224968,224972.256,225289.236,,19,to
screen,html.Screen,2_1_1_1_20,2022-02-17T14:20:44.887Z,,,,,,,,,,,,,,,,,54,,,,,,,,,,,,,,365.46399998807465,,response,,,,100,,,,,,,Space,keypress(Space),,,,,,,,-- --- ---- --- ------ ----- ------- ---- -- --- ------- --<br>------- ---------- ------ -- ----- -- ----- -- save ------<br>--- ----- --- --- ------ -------- ----- --- ------ ----- --<br>----- ----- ---------- --- --- ------ ------ ---- -- ------<br>------- --- ------ ----- --- ---- ------- -- ---- --- --<br>------- ------,225655.60000002384,225654.69999998808,225272.6,225280.5,225289.236,225672.952,,20,save
screen,html.Screen,2_1_1_1_21,2022-02-17T14:20:45.335Z,,,,,,,,,,,,,,,,,54,,,,,,,,,,,,,,429.64800002385164,,response,,,,100,,,,,,,Space,keypress(Space),,,,,,,,"-- --- ---- --- ------ ----- ------- ---- -- --- ------- --<br>------- ---------- ------ -- ----- -- ----- -- ---- money,<br>--- ----- --- --- ------ -------- ----- --- ------ ----- --<br>----- ----- ---------- --- --- ------ ------ ---- -- ------<br>------- --- ------ ----- --- ---- ------- -- ---- --- --<br>------- ------",226103.60000002384,226102.60000002384,225656.25,225655.89999997616,225672.952,226106.719,,21,"money,"
screen,html.Screen,2_1_1_1_22,2022-02-17T14:20:45.767Z,,,,,,,,,,,,,,,,,54,,,,,,,,,,,,,,427.9809999880672,,response,,,,100,,,,,,,Space,keypress(Space),,,,,,,,-- --- ---- --- ------ ----- ------- ---- -- --- ------- --<br>------- ---------- ------ -- ----- -- ----- -- ---- ------<br>the ----- --- --- ------ -------- ----- --- ------ ----- --<br>----- ----- ---------- --- --- ------ ------ ---- -- ------<br>------- --- ------ ----- --- ---- ------- -- ---- --- --<br>------- ------,226535.69999998808,226534.69999998808,226090.084,226103.89999997616,226106.719,226557.255,,22,the
screen,html.Screen,2_1_1_1_23,2022-02-17T14:20:46.159Z,,,,,,,,,,,,,,,,,54,,,,,,,,,,,,,,369.5450000119163,,response,,,,100,,,,,,,Space,keypress(Space),,,,,,,,-- --- ---- --- ------ ----- ------- ---- -- --- ------- --<br>------- ---------- ------ -- ----- -- ----- -- ---- ------<br>--- state --- --- ------ -------- ----- --- ------ ----- --<br>----- ----- ---------- --- --- ------ ------ ---- -- ------<br>------- --- ------ ----- --- ---- ------- -- ---- --- --<br>------- ------,226927.80000001192,226926.80000001192,226523.805,226536,226557.255,226940.93,,23,state
screen,html.Screen,2_1_1_1_24,2022-02-17T14:20:46.583Z,,,,,,,,,,,,,,,,,54,,,,,,,,,,,,,,409.67000002384884,,response,,,,100,,,,,,,Space,keypress(Space),,,,,,,,-- --- ---- --- ------ ----- ------- ---- -- --- ------- --<br>------- ---------- ------ -- ----- -- ----- -- ---- ------<br>--- ----- cut --- ------ -------- ----- --- ------ ----- --<br>----- ----- ---------- --- --- ------ ------ ---- -- ------<br>------- --- ------ ----- --- ---- ------- -- ---- --- --<br>------- ------,227351.69999998808,227350.60000002384,226924.201,226928,226940.93,227357.965,,24,cut
screen,html.Screen,2_1_1_1_25,2022-02-17T14:20:47.143Z,,,,,,,,,,,,,,,,,54,,,,,,,,,,,,,,552.6350000238454,,response,,,,100,,,,,,,Space,keypress(Space),,,,,,,,-- --- ---- --- ------ ----- ------- ---- -- --- ------- --<br>------- ---------- ------ -- ----- -- ----- -- ---- ------<br>--- ----- --- the ------ -------- ----- --- ------ ----- --<br>----- ----- ---------- --- --- ------ ------ ---- -- ------<br>------- --- ------ ----- --- ---- ------- -- ---- --- --<br>------- ------,227911.80000001192,227910.60000002384,227341.323,227351.89999997616,227357.965,227925.268,,25,the
screen,html.Screen,2_1_1_1_26,2022-02-17T14:20:47.591Z,,,,,,,,,,,,,,,,,54,,,,,,,,,,,,,,433.4319999880681,,response,,,,100,,,,,,,Space,keypress(Space),,,,,,,,-- --- ---- --- ------ ----- ------- ---- -- --- ------- --<br>------- ---------- ------ -- ----- -- ----- -- ---- ------<br>--- ----- --- --- bonds' -------- ----- --- ------ ----- --<br>----- ----- ---------- --- --- ------ ------ ---- -- ------<br>------- --- ------ ----- --- ---- ------- -- ---- --- --<br>------- ------,228359.69999998808,228358.69999998808,227908.5,227912,227925.268,228375.666,,26,bonds'
screen,html.Screen,2_1_1_1_27,2022-02-17T14:20:48.055Z,,,,,,,,,,,,,,,,,54,,,,,,,,,,,,,,447.03399998808163,,response,,,,100,,,,,,,Space,keypress(Space),,,,,,,,-- --- ---- --- ------ ----- ------- ---- -- --- ------- --<br>------- ---------- ------ -- ----- -- ----- -- ---- ------<br>--- ----- --- --- ------ interest ----- --- ------ ----- --<br>----- ----- ---------- --- --- ------ ------ ---- -- ------<br>------- --- ------ ----- --- ---- ------- -- ---- --- --<br>------- ------,228823.69999998808,228822.69999998808,228358.955,228359.89999997616,228375.666,228826.075,,27,interest
screen,html.Screen,2_1_1_1_28,2022-02-17T14:20:48.423Z,,,,,,,,,,,,,,,,,54,,,,,,,,,,,,,,364.62499998806743,,response,,,,100,,,,,,,Space,keypress(Space),,,,,,,,-- --- ---- --- ------ ----- ------- ---- -- --- ------- --<br>------- ---------- ------ -- ----- -- ----- -- ---- ------<br>--- ----- --- --- ------ -------- rate. --- ------ ----- --<br>----- ----- ---------- --- --- ------ ------ ---- -- ------<br>------- --- ------ ----- --- ---- ------- -- ---- --- --<br>------- ------,229191.69999998808,229190.69999998808,228809.451,228824,228826.075,229223.192,,28,rate.
screen,html.Screen,2_1_1_1_29,2022-02-17T14:20:49.047Z,,,,,,,,,,,,,,,,,54,,,,,,,,,,,,,,591.4080000238318,,response,,,,100,,,,,,,Space,keypress(Space),,,,,,,,-- --- ---- --- ------ ----- ------- ---- -- --- ------- --<br>------- ---------- ------ -- ----- -- ----- -- ---- ------<br>--- ----- --- --- ------ -------- ----- The ------ ----- --<br>----- ----- ---------- --- --- ------ ------ ---- -- ------<br>------- --- ------ ----- --- ---- ------- -- ---- --- --<br>------- ------,229815.5,229814.60000002384,229176.491,229192,229223.192,229827.165,,29,The
screen,html.Screen,2_1_1_1_30,2022-02-17T14:20:49.463Z,,,,,,,,,,,,,,,,,54,,,,,,,,,,,,,,403.4350000238337,,response,,,,100,,,,,,,Space,keypress(Space),,,,,,,,-- --- ---- --- ------ ----- ------- ---- -- --- ------- --<br>------- ---------- ------ -- ----- -- ----- -- ---- ------<br>--- ----- --- --- ------ -------- ----- --- market ----- --<br>----- ----- ---------- --- --- ------ ------ ---- -- ------<br>------- --- ------ ----- --- ---- ------- -- ---- --- --<br>------- ------,230231.80000001192,230230.60000002384,229810.4,229815.80000001192,229827.165,230244.24,,30,market
screen,html.Screen,2_1_1_1_31,2022-02-17T14:20:49.847Z,,,,,,,,,,,,,,,,,54,,,,,,,,,,,,,,370.36000002385117,,response,,,,100,,,,,,,Space,keypress(Space),,,,,,,,-- --- ---- --- ------ ----- ------- ---- -- --- ------- --<br>------- ---------- ------ -- ----- -- ----- -- ---- ------<br>--- ----- --- --- ------ -------- ----- --- ------ value --<br>----- ----- ---------- --- --- ------ ------ ---- -- ------<br>------- --- ------ ----- --- ---- ------- -- ---- --- --<br>------- ------,230615.5,230614.60000002384,230227.487,230232,230244.24,230627.937,,31,value
screen,html.Screen,2_1_1_1_32,2022-02-17T14:20:50.527Z,,,,,,,,,,,,,,,,,54,,,,,,,,,,,,,,666.5629999999946,,response,,,,100,,,,,,,Space,keypress(Space),,,,,,,,-- --- ---- --- ------ ----- ------- ---- -- --- ------- --<br>------- ---------- ------ -- ----- -- ----- -- ---- ------<br>--- ----- --- --- ------ -------- ----- --- ------ ----- of<br>----- ----- ---------- --- --- ------ ------ ---- -- ------<br>------- --- ------ ----- --- ---- ------- -- ---- --- --<br>------- ------,231295.60000002384,231294.5,230611.235,230615.80000001192,230627.937,231311.931,,32,of
screen,html.Screen,2_1_1_1_33,2022-02-17T14:20:50.911Z,,,,,,,,,,,,,,,,,54,,,,,,,,,,,,,,366.66900002383045,,response,,,,100,,,,,,,Space,keypress(Space),,,,,,,,-- --- ---- --- ------ ----- ------- ---- -- --- ------- --<br>------- ---------- ------ -- ----- -- ----- -- ---- ------<br>--- ----- --- --- ------ -------- ----- --- ------ ----- --<br>these ----- ---------- --- --- ------ ------ ---- -- ------<br>------- --- ------ ----- --- ---- ------- -- ---- --- --<br>------- ------,231679.60000002384,231678.60000002384,231295.268,231295.89999997616,231311.931,231695.694,,33,these
screen,html.Screen,2_1_1_1_34,2022-02-17T14:20:51.231Z,,,,,,,,,,,,,,,,,54,,,,,,,,,,,,,,303.10600001193234,,response,,,,100,,,,,,,Space,keypress(Space),,,,,,,,-- --- ---- --- ------ ----- ------- ---- -- --- ------- --<br>------- ---------- ------ -- ----- -- ----- -- ---- ------<br>--- ----- --- --- ------ -------- ----- --- ------ ----- --<br>----- bonds ---------- --- --- ------ ------ ---- -- ------<br>------- --- ------ ----- --- ---- ------- -- ---- --- --<br>------- ------,231999.69999998808,231998.80000001192,231678.922,231679.89999997616,231695.694,232012.678,,34,bonds
screen,html.Screen,2_1_1_1_35,2022-02-17T14:20:51.575Z,,,,,,,,,,,,,,,,,54,,,,,,,,,,,,,,330.02199998806464,,response,,,,100,,,,,,,Space,keypress(Space),,,,,,,,"-- --- ---- --- ------ ----- ------- ---- -- --- ------- --<br>------- ---------- ------ -- ----- -- ----- -- ---- ------<br>--- ----- --- --- ------ -------- ----- --- ------ ----- --<br>----- ----- plummeted, --- --- ------ ------ ---- -- ------<br>------- --- ------ ----- --- ---- ------- -- ---- --- --<br>------- ------",232343.69999998808,232342.69999998808,231995.978,232000,232012.678,232346.245,,35,"plummeted,"
screen,html.Screen,2_1_1_1_36,2022-02-17T14:20:51.983Z,,,,,,,,,,,,,,,,,54,,,,,,,,,,,,,,404.3550000238465,,response,,,,100,,,,,,,Space,keypress(Space),,,,,,,,-- --- ---- --- ------ ----- ------- ---- -- --- ------- --<br>------- ---------- ------ -- ----- -- ----- -- ---- ------<br>--- ----- --- --- ------ -------- ----- --- ------ ----- --<br>----- ----- ---------- and --- ------ ------ ---- -- ------<br>------- --- ------ ----- --- ---- ------- -- ---- --- --<br>------- ------,232751.69999998808,232750.60000002384,232329.588,232344,232346.245,232763.429,,36,and
screen,html.Screen,2_1_1_1_37,2022-02-17T14:20:52.327Z,,,,,,,,,,,,,,,,,54,,,,,,,,,,,,,,331.27099998807535,,response,,,,100,,,,,,,Space,keypress(Space),,,,,,,,-- --- ---- --- ------ ----- ------- ---- -- --- ------- --<br>------- ---------- ------ -- ----- -- ----- -- ---- ------<br>--- ----- --- --- ------ -------- ----- --- ------ ----- --<br>----- ----- ---------- --- the ------ ------ ---- -- ------<br>------- --- ------ ----- --- ---- ------- -- ---- --- --<br>------- ------,233095.69999998808,233094.69999998808,232746.658,232751.89999997616,232763.429,233119.799,,37,the
screen,html.Screen,2_1_1_1_38,2022-02-17T14:20:52.671Z,,,,,,,,,,,,,,,,,54,,,,,,,,,,,,,,318.8010000238428,,response,,,,100,,,,,,,Space,keypress(Space),,,,,,,,-- --- ---- --- ------ ----- ------- ---- -- --- ------- --<br>------- ---------- ------ -- ----- -- ----- -- ---- ------<br>--- ----- --- --- ------ -------- ----- --- ------ ----- --<br>----- ----- ---------- --- --- market ------ ---- -- ------<br>------- --- ------ ----- --- ---- ------- -- ---- --- --<br>------- ------,233439.69999998808,233438.60000002384,233080.38,233095.89999997616,233119.799,233447.353,,38,market
screen,html.Screen,2_1_1_1_39,2022-02-17T14:20:53.024Z,,,,,,,,,,,,,,,,,54,,,,,,,,,,,,,,344.74700002383906,,response,,,,100,,,,,,,Space,keypress(Space),,,,,,,,-- --- ---- --- ------ ----- ------- ---- -- --- ------- --<br>------- ---------- ------ -- ----- -- ----- -- ---- ------<br>--- ----- --- --- ------ -------- ----- --- ------ ----- --<br>----- ----- ---------- --- --- ------ became ---- -- ------<br>------- --- ------ ----- --- ---- ------- -- ---- --- --<br>------- ------,233793.10000002384,233792.10000002384,233430.723,233439.89999997616,233447.353,233797.705,,39,became
screen,html.Screen,2_1_1_1_40,2022-02-17T14:20:53.383Z,,,,,,,,,,,,,,,,,54,,,,,,,,,,,,,,352.9949999880919,,response,,,,100,,,,,,,Space,keypress(Space),,,,,,,,-- --- ---- --- ------ ----- ------- ---- -- --- ------- --<br>------- ---------- ------ -- ----- -- ----- -- ---- ------<br>--- ----- --- --- ------ -------- ----- --- ------ ----- --<br>----- ----- ---------- --- --- ------ ------ wary -- ------<br>------- --- ------ ----- --- ---- ------- -- ---- --- --<br>------- ------,234151.80000001192,234150.69999998808,233781.011,233793.30000001192,233797.705,234164.782,,40,wary
screen,html.Screen,2_1_1_1_41,2022-02-17T14:20:53.711Z,,,,,,,,,,,,,,,,,54,,,,,,,,,,,,,,313.81800002383534,,response,,,,100,,,,,,,Space,keypress(Space),,,,,,,,-- --- ---- --- ------ ----- ------- ---- -- --- ------- --<br>------- ---------- ------ -- ----- -- ----- -- ---- ------<br>--- ----- --- --- ------ -------- ----- --- ------ ----- --<br>----- ----- ---------- --- --- ------ ------ ---- of ------<br>------- --- ------ ----- --- ---- ------- -- ---- --- --<br>------- ------,234479.69999998808,234478.60000002384,234148.073,234152,234164.782,234481.701,,41,of
screen,html.Screen,2_1_1_1_42,2022-02-17T14:20:54.015Z,,,,,,,,,,,,,,,,,54,,,,,,,,,,,,,,300.79899999999907,,response,,,,100,,,,,,,Space,keypress(Space),,,,,,,,-- --- ---- --- ------ ----- ------- ---- -- --- ------- --<br>------- ---------- ------ -- ----- -- ----- -- ---- ------<br>--- ----- --- --- ------ -------- ----- --- ------ ----- --<br>----- ----- ---------- --- --- ------ ------ ---- -- French<br>------- --- ------ ----- --- ---- ------- -- ---- --- --<br>------- ------,234784,234782.5,234465.087,234479.89999997616,234481.701,234798.799,,42,French
screen,html.Screen,2_1_1_1_43,2022-02-17T14:20:54.431Z,,,,,,,,,,,,,,,,,54,,,,,,,,,,,,,,399.8010000238428,,response,,,,100,,,,,,,Space,keypress(Space),,,,,,,,-- --- ---- --- ------ ----- ------- ---- -- --- ------- --<br>------- ---------- ------ -- ----- -- ----- -- ---- ------<br>--- ----- --- --- ------ -------- ----- --- ------ ----- --<br>----- ----- ---------- --- --- ------ ------ ---- -- ------<br>credit. --- ------ ----- --- ---- ------- -- ---- --- --<br>------- ------,235199.60000002384,235198.60000002384,234782.07,234784.10000002384,234798.799,235215.813,,43,credit.
screen,html.Screen,2_1_1_1_44,2022-02-17T14:20:55.040Z,,,,,,,,,,,,,,,,,54,,,,,,,,,,,,,,591.6870000000054,,response,,,,100,,,,,,,Space,keypress(Space),,,,,,,,-- --- ---- --- ------ ----- ------- ---- -- --- ------- --<br>------- ---------- ------ -- ----- -- ----- -- ---- ------<br>--- ----- --- --- ------ -------- ----- --- ------ ----- --<br>----- ----- ---------- --- --- ------ ------ ---- -- ------<br>------- The ------ ----- --- ---- ------- -- ---- --- --<br>------- ------,235808.5,235807.5,235199.096,235199.89999997616,235215.813,235816.386,,44,The
screen,html.Screen,2_1_1_1_45,2022-02-17T14:20:55.320Z,,,,,,,,,,,,,,,,,54,,,,,,,,,,,,,,271.21400002384325,,response,,,,100,,,,,,,Space,keypress(Space),,,,,,,,-- --- ---- --- ------ ----- ------- ---- -- --- ------- --<br>------- ---------- ------ -- ----- -- ----- -- ---- ------<br>--- ----- --- --- ------ -------- ----- --- ------ ----- --<br>----- ----- ---------- --- --- ------ ------ ---- -- ------<br>------- --- French ----- --- ---- ------- -- ---- --- --<br>------- ------,236088.69999998808,236087.60000002384,235799.688,235808.80000001192,235816.386,236100.054,,45,French
screen,html.Screen,2_1_1_1_46,2022-02-17T14:20:55.671Z,,,,,,,,,,,,,,,,,54,,,,,,,,,,,,,,338.64599998807535,,response,,,,100,,,,,,,Space,keypress(Space),,,,,,,,-- --- ---- --- ------ ----- ------- ---- -- --- ------- --<br>------- ---------- ------ -- ----- -- ----- -- ---- ------<br>--- ----- --- --- ------ -------- ----- --- ------ ----- --<br>----- ----- ---------- --- --- ------ ------ ---- -- ------<br>------- --- ------ state --- ---- ------- -- ---- --- --<br>------- ------,236439.69999998808,236438.69999998808,236083.364,236088.89999997616,236100.054,236450.404,,46,state
screen,html.Screen,2_1_1_1_47,2022-02-17T14:20:56.055Z,,,,,,,,,,,,,,,,,54,,,,,,,,,,,,,,372.2959999880695,,response,,,,100,,,,,,,Space,keypress(Space),,,,,,,,-- --- ---- --- ------ ----- ------- ---- -- --- ------- --<br>------- ---------- ------ -- ----- -- ----- -- ---- ------<br>--- ----- --- --- ------ -------- ----- --- ------ ----- --<br>----- ----- ---------- --- --- ------ ------ ---- -- ------<br>------- --- ------ ----- was ---- ------- -- ---- --- --<br>------- ------,236823.69999998808,236822.69999998808,236433.68,236439.89999997616,236450.404,236834.111,,47,was
screen,html.Screen,2_1_1_1_48,2022-02-17T14:20:56.413Z,,,,,,,,,,,,,,,,,54,,,,,,,,,,,,,,347.48900002383743,,response,,,,100,,,,,,,Space,keypress(Space),,,,,,,,-- --- ---- --- ------ ----- ------- ---- -- --- ------- --<br>------- ---------- ------ -- ----- -- ----- -- ---- ------<br>--- ----- --- --- ------ -------- ----- --- ------ ----- --<br>----- ----- ---------- --- --- ------ ------ ---- -- ------<br>------- --- ------ ----- --- left ------- -- ---- --- --<br>------- ------,237182,237181.60000002384,236817.383,236824,236834.111,237184.335,,48,left
screen,html.Screen,2_1_1_1_49,2022-02-17T14:20:56.805Z,,,,,,,,,,,,,,,,,54,,,,,,,,,,,,,,389.4650000119291,,response,,,,100,,,,,,,Space,keypress(Space),,,,,,,,-- --- ---- --- ------ ----- ------- ---- -- --- ------- --<br>------- ---------- ------ -- ----- -- ----- -- ---- ------<br>--- ----- --- --- ------ -------- ----- --- ------ ----- --<br>----- ----- ---------- --- --- ------ ------ ---- -- ------<br>------- --- ------ ----- --- ---- without -- ---- --- --<br>------- ------,237574.19999998808,237573.80000001192,237167.775,237182,237184.335,237584.732,,49,without
screen,html.Screen,2_1_1_1_50,2022-02-17T14:20:57.134Z,,,,,,,,,,,,,,,,,54,,,,,,,,,,,,,,317.1679999761691,,response,,,,100,,,,,,,Space,keypress(Space),,,,,,,,-- --- ---- --- ------ ----- ------- ---- -- --- ------- --<br>------- ---------- ------ -- ----- -- ----- -- ---- ------<br>--- ----- --- --- ------ -------- ----- --- ------ ----- --<br>----- ----- ---------- --- --- ------ ------ ---- -- ------<br>------- --- ------ ----- --- ---- ------- an ---- --- --<br>------- ------,237902.5,237901.89999997616,237568.043,237574.30000001192,237584.732,237918.468,,50,an
screen,html.Screen,2_1_1_1_51,2022-02-17T14:20:57.447Z,,,,,,,,,,,,,,,,,54,,,,,,,,,,,,,,296.1320000238484,,response,,,,100,,,,,,,Space,keypress(Space),,,,,,,,-- --- ---- --- ------ ----- ------- ---- -- --- ------- --<br>------- ---------- ------ -- ----- -- ----- -- ---- ------<br>--- ----- --- --- ------ -------- ----- --- ------ ----- --<br>----- ----- ---------- --- --- ------ ------ ---- -- ------<br>------- --- ------ ----- --- ---- ------- -- easy --- --<br>------- ------,238215.60000002384,238214.60000002384,237901.736,237902.60000002384,237918.468,238218.775,,51,easy
screen,html.Screen,2_1_1_1_52,2022-02-17T14:20:57.767Z,,,,,,,,,,,,,,,,,54,,,,,,,,,,,,,,315.7250000000058,,response,,,,100,,,,,,,Space,keypress(Space),,,,,,,,-- --- ---- --- ------ ----- ------- ---- -- --- ------- --<br>------- ---------- ------ -- ----- -- ----- -- ---- ------<br>--- ----- --- --- ------ -------- ----- --- ------ ----- --<br>----- ----- ---------- --- --- ------ ------ ---- -- ------<br>------- --- ------ ----- --- ---- ------- -- ---- way --<br>------- ------,238535.39999997616,238534.5,238202.162,238215.80000001192,238218.775,238552.492,,52,way
screen,html.Screen,2_1_1_1_53,2022-02-17T14:20:58.479Z,,,,,,,,,,,,,,,,,54,,,,,,,,,,,,,,694.1080000238435,,response,,,,100,,,,,,,Space,keypress(Space),,,,,,,,-- --- ---- --- ------ ----- ------- ---- -- --- ------- --<br>------- ---------- ------ -- ----- -- ----- -- ---- ------<br>--- ----- --- --- ------ -------- ----- --- ------ ----- --<br>----- ----- ---------- --- --- ------ ------ ---- -- ------<br>------- --- ------ ----- --- ---- ------- -- ---- --- of<br>------- ------,239247.69999998808,239246.60000002384,238535.793,238535.69999998808,238552.492,239253.119,,53,of
screen,html.Screen,2_1_1_1_54,2022-02-17T14:20:58.799Z,,,,,,,,,,,,,,,,,54,,,,,,,,,,,,,,313.4810000238358,,response,,,,100,,,,,,,Space,keypress(Space),,,,,,,,-- --- ---- --- ------ ----- ------- ---- -- --- ------- --<br>------- ---------- ------ -- ----- -- ----- -- ---- ------<br>--- ----- --- --- ------ -------- ----- --- ------ ----- --<br>----- ----- ---------- --- --- ------ ------ ---- -- ------<br>------- --- ------ ----- --- ---- ------- -- ---- --- --<br>raising ------,239567.60000002384,239566.60000002384,239236.494,239248,239253.119,239570.101,,54,raising
screen,html.Screen,2_1_1_1_55,2022-02-17T14:20:59.191Z,,,,,,,,,,,,,,,,,54,,,,,,,,,,,,,,388.59899998808396,,response,,,,100,,,,,,,Space,keypress(Space),,,,,,,,-- --- ---- --- ------ ----- ------- ---- -- --- ------- --<br>------- ---------- ------ -- ----- -- ----- -- ---- ------<br>--- ----- --- --- ------ -------- ----- --- ------ ----- --<br>----- ----- ---------- --- --- ------ ------ ---- -- ------<br>------- --- ------ ----- --- ---- ------- -- ---- --- --<br>------- money.,239959.69999998808,239958.69999998808,239553.477,239567.89999997616,239570.101,239970.521,,55,money.
Item 100,flow.Loop,2_1_1_1,2022-02-17T14:20:59.191Z,,,,,,,,,,,,,,,,,,,,,,,,,,,,,,,26030.773999988072,,completion,,,,,E,,,,,,,,,,,silence,,,,,239960.10000002384,239958.69999998808,213911.251,213913,213927.926,239970.521,,,
Question 1,html.Screen,2_1_1_2,2022-02-17T14:21:01.742Z,,,,,,,,,,,,,,,,,,,,,,,,,,,,true,TRUE,,2539.178999988071,,response,,,,100,E,,,,,,TRUE,click #choice-1,,,,silence,,,,,242510.30000001192,242509.69999998808,239953.825,239960.30000001192,239970.521,242523.06,,,
Question 2,html.Screen,2_1_1_3,2022-02-17T14:21:04.150Z,,,,,,,,,,,,,,,,,,,,,,,,,,,,true,FALSE,,2394.540000023844,,response,,,,100,E,,,,,,FALSE,click #choice-2,,,,silence,,,,,244918.30000001192,244917.60000002384,242506.371,242510.30000001192,242523.06,244925.414,,,
Item 100,flow.Sequence,2_1_1,2022-02-17T14:21:04.150Z,,,,,,,,,,,,,,,,,,,,,,,,,,,,,,,40982.92900002384,,completion,,,,,,,,,,,,,,,,,,,,,244918.39999997616,244917.60000002384,203917.919,203902.39999997616,203934.671,244925.414,,,
End of Practice,html.Page,2_1_2,2022-02-17T14:21:12.656Z,,,,,,,,,,,,,,,,,,,,,,,,,,,,,,,8498.186000023852,,form submission,,,,,,,,,,,,,,,,,,,,,253423.80000001192,253423.60000002384,244908.81,244918.5,244925.414,253433.887,,,
Practice,flow.Sequence,2_1,2022-02-17T14:21:12.656Z,,,,,,,,,,,,,,,,,,,,,,,,,,,,,,,93849.80500002383,,completion,,,,,,,,,,,,,,,,,,,,,253423.89999997616,253423.60000002384,159557.248,159569.80000001192,159573.795,253433.887,,,
Trap_instruction,html.Page,2_2_0,2022-02-17T14:21:21.343Z,,,,,,,,,,,,,,,,,,,,,,,,,,,,,,,8677.613000000012,,form submission,,,,,,,,,,,,,,,,,,,,,262111.60000002384,262111.5,253417.283,253423.89999997616,253433.887,262125.889,,,
trap_trial,html.Screen,2_2_1,2022-02-17T14:21:24.830Z,,,,,,,,,,,,,,,,,,,,,,,,,,,,true,1,,3471.6110000000044,,response,,,,,,,,,,,1,click #choice-1,,,,,,,,,265598.10000002384,265597.5,262109.255,262111.69999998808,262125.889,265612.696,,,
end of trap trial,html.Page,2_2_2,2022-02-17T14:21:26.650Z,,,,,,,,,,,,,,,,,,,,,,,,,,,,,,,1805.0039999880828,,form submission,,,,,,,,,,,,,,,,,,,,,267417.89999997616,267417.6999999881,265595.96,265598.1999999881,265612.696,267414.427,,,
Trap 1,flow.Sequence,2_2,2022-02-17T14:21:26.650Z,,,,,,,,,,,,,,,,,,,,,,,,,,,,,,,13983.812999988091,,completion,,,,,,,,,,,,,,,,,,,,,267418.1999999881,267417.6999999881,253417.283,253423.89999997616,253433.887,267414.427,,,
Standby,html.Page,2_3_0,2022-02-17T14:21:34.639Z,,,,,,,,,,,,,,,,,,,,,,,,,,,,,,,8008.032999999996,,timeout,,,,,,,,,,,,,,,,,,,,,275406.8000000119,275405.783,267397.746,267418.39999997616,267414.427,275422.46,,,
Holding screen,html.Screen,2_3_1_0_0,2022-02-17T14:21:41.645Z,,,,,,,,,,,,,,,,,,,,,,,,,,,,,,,7006.994000000006,,timeout,,,,,,,,,,,,,,,,,,,,,282413.6999999881,282412.775,275405.783,275407.1999999881,275422.46,282429.454,,,
screen,html.Screen,2_3_1_0_1_0,2022-02-17T14:21:42.193Z,,,,,,,,,,,,,,,,,15,,,,,,,,,,,,,,529.9459999761311,,response,,,,7,E,,,,,,Space,keypress(Space),,,,lyrical,,,,Greg --------- ---------- - --- ------- -- --- ------------<br>----- -- -------- ------- ---- ------ - -------- ---- -----<br>--- ------- ---- -- --- -------- --- - ----- ------ ---- --<br>-------- --- -------- -------- --- -------- ---- -- ----- -<br>-------- ---- --- ---------- --------- -- ------- ------ -<br>--------- ----- -----,282960.8000000119,282959.39999997616,282412.775,282414,282429.454,282963.318,,0,Greg
screen,html.Screen,2_3_1_0_1_1,2022-02-17T14:21:42.583Z,,,,,,,,,,,,,,,,,15,,,,,,,,,,,,,,387.08199997612974,,response,,,,7,E,,,,,,Space,keypress(Space),,,,lyrical,,,,"---- Anderson, ---------- - --- ------- -- --- ------------<br>----- -- -------- ------- ---- ------ - -------- ---- -----<br>--- ------- ---- -- --- -------- --- - ----- ------ ---- --<br>-------- --- -------- -------- --- -------- ---- -- ----- -<br>-------- ---- --- ---------- --------- -- ------- ------ -<br>--------- ----- -----",283351.5,283350.39999997616,282946.634,282961.1999999881,282963.318,283363.771,,1,"Anderson,"
screen,html.Screen,2_3_1_0_1_2,2022-02-17T14:21:42.969Z,,,,,,,,,,,,,,,,,15,,,,,,,,,,,,,,372.7289999999921,,response,,,,7,E,,,,,,Space,keypress(Space),,,,lyrical,,,,---- --------- considered - --- ------- -- --- ------------<br>----- -- -------- ------- ---- ------ - -------- ---- -----<br>--- ------- ---- -- --- -------- --- - ----- ------ ---- --<br>-------- --- -------- -------- --- -------- ---- -- ----- -<br>-------- ---- --- ---------- --------- -- ------- ------ -<br>--------- ----- -----,283737.60000002384,283736.5,283347.055,283351.8000000119,283363.771,283747.408,,2,considered
screen,html.Screen,2_3_1_0_1_3,2022-02-17T14:21:43.335Z,,,,,,,,,,,,,,,,,15,,,,,,,,,,,,,,355.0920000000042,,response,,,,7,E,,,,,,Space,keypress(Space),,,,lyrical,,,,---- --------- ---------- a --- ------- -- --- ------------<br>----- -- -------- ------- ---- ------ - -------- ---- -----<br>--- ------- ---- -- --- -------- --- - ----- ------ ---- --<br>-------- --- -------- -------- --- -------- ---- -- ----- -<br>-------- ---- --- ---------- --------- -- ------- ------ -<br>--------- ----- -----,284103.60000002384,284102.5,283730.772,283737.89999997616,283747.408,284114.539,,3,a
screen,html.Screen,2_3_1_0_1_4,2022-02-17T14:21:43.719Z,,,,,,,,,,,,,,,,,15,,,,,,,,,,,,,,371.8609999761684,,response,,,,7,E,,,,,,Space,keypress(Space),,,,lyrical,,,,---- --------- ---------- - key ------- -- --- ------------<br>----- -- -------- ------- ---- ------ - -------- ---- -----<br>--- ------- ---- -- --- -------- --- - ----- ------ ---- --<br>-------- --- -------- -------- --- -------- ---- -- ----- -<br>-------- ---- --- ---------- --------- -- ------- ------ -<br>--------- ----- -----,284487.39999997616,284486.39999997616,284097.783,284103.8000000119,284114.539,284498.239,,4,key
screen,html.Screen,2_3_1_0_1_5,2022-02-17T14:21:44.087Z,,,,,,,,,,,,,,,,,15,,,,,,,,,,,,,,356.16099997615675,,response,,,,7,E,,,,,,Space,keypress(Space),,,,lyrical,,,,---- --------- ---------- - --- witness -- --- ------------<br>----- -- -------- ------- ---- ------ - -------- ---- -----<br>--- ------- ---- -- --- -------- --- - ----- ------ ---- --<br>-------- --- -------- -------- --- -------- ---- -- ----- -<br>-------- ---- --- ---------- --------- -- ------- ------ -<br>--------- ----- -----,284855.39999997616,284854.39999997616,284481.514,284487.60000002384,284498.239,284865.28,,5,witness
screen,html.Screen,2_3_1_0_1_6,2022-02-17T14:21:44.447Z,,,,,,,,,,,,,,,,,15,,,,,,,,,,,,,,349.1199999761302,,response,,,,7,E,,,,,,Space,keypress(Space),,,,lyrical,,,,---- --------- ---------- - --- ------- by --- ------------<br>----- -- -------- ------- ---- ------ - -------- ---- -----<br>--- ------- ---- -- --- -------- --- - ----- ------ ---- --<br>-------- --- -------- -------- --- -------- ---- -- ----- -<br>-------- ---- --- ---------- --------- -- ------- ------ -<br>--------- ----- -----,285215.5,285214.39999997616,284848.55,284855.6999999881,284865.28,285232.294,,6,by
screen,html.Screen,2_3_1_0_1_7,2022-02-17T14:21:44.879Z,,,,,,,,,,,,,,,,,15,,,,,,,,,,,,,,414.0060000119265,,response,,,,7,E,,,,,,Space,keypress(Space),,,,lyrical,,,,---- --------- ---------- - --- ------- -- the ------------<br>----- -- -------- ------- ---- ------ - -------- ---- -----<br>--- ------- ---- -- --- -------- --- - ----- ------ ---- --<br>-------- --- -------- -------- --- -------- ---- -- ----- -<br>-------- ---- --- ---------- --------- -- ------- ------ -<br>--------- ----- -----,285647.5,285646.3000000119,285215.57,285215.6999999881,285232.294,285667.502,,7,the
screen,html.Screen,2_3_1_0_1_8,2022-02-17T14:21:45.287Z,,,,,,,,,,,,,,,,,15,,,,,,,,,,,,,,386.89799997617956,,response,,,,7,E,,,,,,Space,keypress(Space),,,,lyrical,,,,"---- --------- ---------- - --- ------- -- --- prosecution,<br>----- -- -------- ------- ---- ------ - -------- ---- -----<br>--- ------- ---- -- --- -------- --- - ----- ------ ---- --<br>-------- --- -------- -------- --- -------- ---- -- ----- -<br>-------- ---- --- ---------- --------- -- ------- ------ -<br>--------- ----- -----",286055.39999997616,286054.39999997616,285632.702,285647.6999999881,285667.502,286066.471,,8,"prosecution,"
screen,html.Screen,2_3_1_0_1_9,2022-02-17T14:21:45.671Z,,,,,,,,,,,,,,,,,15,,,,,,,,,,,,,,371.9289999761386,,response,,,,7,E,,,,,,Space,keypress(Space),,,,lyrical,,,,---- --------- ---------- - --- ------- -- --- ------------<br>vowed -- -------- ------- ---- ------ - -------- ---- -----<br>--- ------- ---- -- --- -------- --- - ----- ------ ---- --<br>-------- --- -------- -------- --- -------- ---- -- ----- -<br>-------- ---- --- ---------- --------- -- ------- ------ -<br>--------- ----- -----,286439.5,286438.39999997616,286049.681,286055.6999999881,286066.471,286450.169,,9,vowed
screen,html.Screen,2_3_1_0_1_10,2022-02-17T14:21:46.031Z,,,,,,,,,,,,,,,,,15,,,,,,,,,,,,,,348.3310000000056,,response,,,,7,E,,,,,,Space,keypress(Space),,,,lyrical,,,,---- --------- ---------- - --- ------- -- --- ------------<br>----- he -------- ------- ---- ------ - -------- ---- -----<br>--- ------- ---- -- --- -------- --- - ----- ------ ---- --<br>-------- --- -------- -------- --- -------- ---- -- ----- -<br>-------- ---- --- ---------- --------- -- ------- ------ -<br>--------- ----- -----,286799.5,286798.5,286433.404,286439.6999999881,286450.169,286817.159,,10,he
screen,html.Screen,2_3_1_0_1_11,2022-02-17T14:21:46.439Z,,,,,,,,,,,,,,,,,15,,,,,,,,,,,,,,389.24099997617304,,response,,,,7,E,,,,,,Space,keypress(Space),,,,lyrical,,,,---- --------- ---------- - --- ------- -- --- ------------<br>----- -- wouldn't ------- ---- ------ - -------- ---- -----<br>--- ------- ---- -- --- -------- --- - ----- ------ ---- --<br>-------- --- -------- -------- --- -------- ---- -- ----- -<br>-------- ---- --- ---------- --------- -- ------- ------ -<br>--------- ----- -----,287207.39999997616,287206.39999997616,286800.457,286799.6999999881,286817.159,287217.509,,11,wouldn't
screen,html.Screen,2_3_1_0_1_12,2022-02-17T14:21:46.847Z,,,,,,,,,,,,,,,,,15,,,,,,,,,,,,,,396.8909999761381,,response,,,,7,E,,,,,,Space,keypress(Space),,,,lyrical,,,,---- --------- ---------- - --- ------- -- --- ------------<br>----- -- -------- testify ---- ------ - -------- ---- -----<br>--- ------- ---- -- --- -------- --- - ----- ------ ---- --<br>-------- --- -------- -------- --- -------- ---- -- ----- -<br>-------- ---- --- ---------- --------- -- ------- ------ -<br>--------- ----- -----,287615.60000002384,287614.39999997616,287200.867,287207.6999999881,287217.509,287617.928,,12,testify
screen,html.Screen,2_3_1_0_1_13,2022-02-17T14:21:47.383Z,,,,,,,,,,,,,,,,,15,,,,,,,,,,,,,,532.4719999761437,,response,,,,7,E,,,,,,Space,keypress(Space),,,,lyrical,,,,---- --------- ---------- - --- ------- -- --- ------------<br>----- -- -------- ------- when ------ - -------- ---- -----<br>--- ------- ---- -- --- -------- --- - ----- ------ ---- --<br>-------- --- -------- -------- --- -------- ---- -- ----- -<br>-------- ---- --- ---------- --------- -- ------- ------ -<br>--------- ----- -----,288151.5,288150.39999997616,287601.162,287616,287617.928,288168.577,,13,when
screen,html.Screen,2_3_1_0_1_14,2022-02-17T14:21:47.902Z,,,,,,,,,,,,,,,,,15,,,,,,,,,,,,,,501.02300002385164,,response,,,,7,E,,,,,,Space,keypress(Space),,,,lyrical,,,,---- --------- ---------- - --- ------- -- --- ------------<br>----- -- -------- ------- ---- served - -------- ---- -----<br>--- ------- ---- -- --- -------- --- - ----- ------ ---- --<br>-------- --- -------- -------- --- -------- ---- -- ----- -<br>-------- ---- --- ---------- --------- -- ------- ------ -<br>--------- ----- -----,288670.10000002384,288669.60000002384,288151.832,288151.6999999881,288168.577,288685.686,,14,served
screen,html.Screen,2_3_1_0_1_15,2022-02-17T14:21:48.286Z,,,,,,,,,,,,,,,,,15,,,,,,,,,,,,,,368.31400000001304,,response,,,,7,E,,,,,,Space,keypress(Space),,,,lyrical,,,,---- --------- ---------- - --- ------- -- --- ------------<br>----- -- -------- ------- ---- ------ a -------- ---- -----<br>--- ------- ---- -- --- -------- --- - ----- ------ ---- --<br>-------- --- -------- -------- --- -------- ---- -- ----- -<br>-------- ---- --- ---------- --------- -- ------- ------ -<br>--------- ----- -----,289054.60000002384,289054,288669.008,288670.1999999881,288685.686,289069.457,,15,a
screen,html.Screen,2_3_1_0_1_16,2022-02-17T14:21:48.591Z,,,,,,,,,,,,,,,,,15,,,,,,,,,,,,,,288.84300001192605,,response,,,,7,E,,,,,,Space,keypress(Space),,,,lyrical,,,,---- --------- ---------- - --- ------- -- --- ------------<br>----- -- -------- ------- ---- ------ - subpoena ---- -----<br>--- ------- ---- -- --- -------- --- - ----- ------ ---- --<br>-------- --- -------- -------- --- -------- ---- -- ----- -<br>-------- ---- --- ---------- --------- -- ------- ------ -<br>--------- ----- -----,289359.5,289358.3000000119,289052.715,289054.8000000119,289069.457,289369.78,,16,subpoena
screen,html.Screen,2_3_1_0_1_17,2022-02-17T14:21:49.239Z,,,,,,,,,,,,,,,,,15,,,,,,,,,,,,,,636.520000011893,,response,,,,7,E,,,,,,Space,keypress(Space),,,,lyrical,,,,---- --------- ---------- - --- ------- -- --- ------------<br>----- -- -------- ------- ---- ------ - -------- last -----<br>--- ------- ---- -- --- -------- --- - ----- ------ ---- --<br>-------- --- -------- -------- --- -------- ---- -- ----- -<br>-------- ---- --- ---------- --------- -- ------- ------ -<br>--------- ----- -----,290007.6999999881,290006.3000000119,289353.01,289359.6999999881,289369.78,290020.328,,17,last
screen,html.Screen,2_3_1_0_1_18,2022-02-17T14:21:49.671Z,,,,,,,,,,,,,,,,,15,,,,,,,,,,,,,,418.07199997617863,,response,,,,7,E,,,,,,Space,keypress(Space),,,,lyrical,,,,---- --------- ---------- - --- ------- -- --- ------------<br>----- -- -------- ------- ---- ------ - -------- ---- week.<br>--- ------- ---- -- --- -------- --- - ----- ------ ---- --<br>-------- --- -------- -------- --- -------- ---- -- ----- -<br>-------- ---- --- ---------- --------- -- ------- ------ -<br>--------- ----- -----,290439.39999997616,290438.39999997616,290003.695,290007.89999997616,290020.328,290454.165,,18,week.
screen,html.Screen,2_3_1_0_1_19,2022-02-17T14:21:50.175Z,,,,,,,,,,,,,,,,,15,,,,,,,,,,,,,,488.1350000119419,,response,,,,7,E,,,,,,Space,keypress(Space),,,,lyrical,,,,---- --------- ---------- - --- ------- -- --- ------------<br>----- -- -------- ------- ---- ------ - -------- ---- -----<br>His ------- ---- -- --- -------- --- - ----- ------ ---- --<br>-------- --- -------- -------- --- -------- ---- -- ----- -<br>-------- ---- --- ---------- --------- -- ------- ------ -<br>--------- ----- -----,290943.5,290942.3000000119,290437.35,290439.6999999881,290454.165,290954.544,,19,His
screen,html.Screen,2_3_1_0_1_20,2022-02-17T14:21:50.559Z,,,,,,,,,,,,,,,,,15,,,,,,,,,,,,,,371.85599997616373,,response,,,,7,E,,,,,,Space,keypress(Space),,,,lyrical,,,,---- --------- ---------- - --- ------- -- --- ------------<br>----- -- -------- ------- ---- ------ - -------- ---- -----<br>--- lawyers ---- -- --- -------- --- - ----- ------ ---- --<br>-------- --- -------- -------- --- -------- ---- -- ----- -<br>-------- ---- --- ---------- --------- -- ------- ------ -<br>--------- ----- -----,291327.5,291326.39999997616,290937.916,290943.6999999881,290954.544,291338.365,,20,lawyers
screen,html.Screen,2_3_1_0_1_21,2022-02-17T14:21:50.943Z,,,,,,,,,,,,,,,,,15,,,,,,,,,,,,,,372.1350000000093,,response,,,,7,E,,,,,,Space,keypress(Space),,,,lyrical,,,,---- --------- ---------- - --- ------- -- --- ------------<br>----- -- -------- ------- ---- ------ - -------- ---- -----<br>--- ------- said -- --- -------- --- - ----- ------ ---- --<br>-------- --- -------- -------- --- -------- ---- -- ----- -<br>-------- ---- --- ---------- --------- -- ------- ------ -<br>--------- ----- -----,291711.39999997616,291710.5,291321.55,291327.6999999881,291338.365,291722.093,,21,said
screen,html.Screen,2_3_1_0_1_22,2022-02-17T14:21:51.335Z,,,,,,,,,,,,,,,,,15,,,,,,,,,,,,,,380.4070000000065,,response,,,,7,E,,,,,,Space,keypress(Space),,,,lyrical,,,,---- --------- ---------- - --- ------- -- --- ------------<br>----- -- -------- ------- ---- ------ - -------- ---- -----<br>--- ------- ---- he --- -------- --- - ----- ------ ---- --<br>-------- --- -------- -------- --- -------- ---- -- ----- -<br>-------- ---- --- ---------- --------- -- ------- ------ -<br>--------- ----- -----,292103.5,292102.5,291705.344,291711.6999999881,291722.093,292105.722,,22,he
screen,html.Screen,2_3_1_0_1_23,2022-02-17T14:21:51.687Z,,,,,,,,,,,,,,,,,15,,,,,,,,,,,,,,348.5780000119121,,response,,,,7,E,,,,,,Space,keypress(Space),,,,lyrical,,,,---- --------- ---------- - --- ------- -- --- ------------<br>----- -- -------- ------- ---- ------ - -------- ---- -----<br>--- ------- ---- -- was -------- --- - ----- ------ ---- --<br>-------- --- -------- -------- --- -------- ---- -- ----- -<br>-------- ---- --- ---------- --------- -- ------- ------ -<br>--------- ----- -----,292455.39999997616,292454.3000000119,292089.077,292103.6999999881,292105.722,292472.841,,23,was
screen,html.Screen,2_3_1_0_1_24,2022-02-17T14:21:52.071Z,,,,,,,,,,,,,,,,,15,,,,,,,,,,,,,,365.55899997614324,,response,,,,7,E,,,,,,Space,keypress(Space),,,,lyrical,,,,---- --------- ---------- - --- ------- -- --- ------------<br>----- -- -------- ------- ---- ------ - -------- ---- -----<br>--- ------- ---- -- --- prepared --- - ----- ------ ---- --<br>-------- --- -------- -------- --- -------- ---- -- ----- -<br>-------- ---- --- ---------- --------- -- ------- ------ -<br>--------- ----- -----,292839.39999997616,292838.39999997616,292456.081,292455.5,292472.841,292856.505,,24,prepared
screen,html.Screen,2_3_1_0_1_25,2022-02-17T14:21:52.463Z,,,,,,,,,,,,,,,,,15,,,,,,,,,,,,,,373.6949999880744,,response,,,,7,E,,,,,,Space,keypress(Space),,,,lyrical,,,,---- --------- ---------- - --- ------- -- --- ------------<br>----- -- -------- ------- ---- ------ - -------- ---- -----<br>--- ------- ---- -- --- -------- for - ----- ------ ---- --<br>-------- --- -------- -------- --- -------- ---- -- ----- -<br>-------- ---- --- ---------- --------- -- ------- ------ -<br>--------- ----- -----,293230.89999997616,293230.1999999881,292839.837,292839.6999999881,292856.505,293240.17,,25,for
screen,html.Screen,2_3_1_0_1_26,2022-02-17T14:21:52.815Z,,,,,,,,,,,,,,,,,15,,,,,,,,,,,,,,342.22999997617444,,response,,,,7,E,,,,,,Space,keypress(Space),,,,lyrical,,,,---- --------- ---------- - --- ------- -- --- ------------<br>----- -- -------- ------- ---- ------ - -------- ---- -----<br>--- ------- ---- -- --- -------- --- a ----- ------ ---- --<br>-------- --- -------- -------- --- -------- ---- -- ----- -<br>-------- ---- --- ---------- --------- -- ------- ------ -<br>--------- ----- -----,293583.60000002384,293582.39999997616,293223.552,293231,293240.17,293590.646,,26,a
screen,html.Screen,2_3_1_0_1_27,2022-02-17T14:21:53.183Z,,,,,,,,,,,,,,,,,15,,,,,,,,,,,,,,359.654000011913,,response,,,,7,E,,,,,,Space,keypress(Space),,,,lyrical,,,,---- --------- ---------- - --- ------- -- --- ------------<br>----- -- -------- ------- ---- ------ - -------- ---- -----<br>--- ------- ---- -- --- -------- --- - third ------ ---- --<br>-------- --- -------- -------- --- -------- ---- -- ----- -<br>-------- ---- --- ---------- --------- -- ------- ------ -<br>--------- ----- -----,293951.39999997616,293950.3000000119,293573.905,293583.8000000119,293590.646,293957.604,,27,third
screen,html.Screen,2_3_1_0_1_28,2022-02-17T14:21:53.535Z,,,,,,,,,,,,,,,,,15,,,,,,,,,,,,,,344.69600001192885,,response,,,,7,E,,,,,,Space,keypress(Space),,,,lyrical,,,,---- --------- ---------- - --- ------- -- --- ------------<br>----- -- -------- ------- ---- ------ - -------- ---- -----<br>--- ------- ---- -- --- -------- --- - ----- prison ---- --<br>-------- --- -------- -------- --- -------- ---- -- ----- -<br>-------- ---- --- ---------- --------- -- ------- ------ -<br>--------- ----- -----,294303.39999997616,294302.3000000119,293940.889,293951.6999999881,293957.604,294307.893,,28,prison
screen,html.Screen,2_3_1_0_1_29,2022-02-17T14:21:53.975Z,,,,,,,,,,,,,,,,,15,,,,,,,,,,,,,,434.60700000001816,,response,,,,7,E,,,,,,Space,keypress(Space),,,,lyrical,,,,---- --------- ---------- - --- ------- -- --- ------------<br>----- -- -------- ------- ---- ------ - -------- ---- -----<br>--- ------- ---- -- --- -------- --- - ----- ------ stay --<br>-------- --- -------- -------- --- -------- ---- -- ----- -<br>-------- ---- --- ---------- --------- -- ------- ------ -<br>--------- ----- -----,294743.6999999881,294742.5,294291.209,294303.6999999881,294307.893,294758.441,,29,stay
screen,html.Screen,2_3_1_0_1_30,2022-02-17T14:21:54.343Z,,,,,,,,,,,,,,,,,15,,,,,,,,,,,,,,351.9589999761665,,response,,,,7,E,,,,,,Space,keypress(Space),,,,lyrical,,,,---- --------- ---------- - --- ------- -- --- ------------<br>----- -- -------- ------- ---- ------ - -------- ---- -----<br>--- ------- ---- -- --- -------- --- - ----- ------ ---- to<br>-------- --- -------- -------- --- -------- ---- -- ----- -<br>-------- ---- --- ---------- --------- -- ------- ------ -<br>--------- ----- -----,295111.5,295110.39999997616,294741.664,294743.89999997616,294758.441,295125.5,,30,to
screen,html.Screen,2_3_1_0_1_31,2022-02-17T14:21:54.695Z,,,,,,,,,,,,,,,,,15,,,,,,,,,,,,,,336.89999997615814,,response,,,,7,E,,,,,,Space,keypress(Space),,,,lyrical,,,,---- --------- ---------- - --- ------- -- --- ------------<br>----- -- -------- ------- ---- ------ - -------- ---- -----<br>--- ------- ---- -- --- -------- --- - ----- ------ ---- --<br>maintain --- -------- -------- --- -------- ---- -- ----- -<br>-------- ---- --- ---------- --------- -- ------- ------ -<br>--------- ----- -----,295463.5,295462.39999997616,295108.711,295111.8000000119,295125.5,295475.771,,31,maintain
screen,html.Screen,2_3_1_0_1_32,2022-02-17T14:21:55.023Z,,,,,,,,,,,,,,,,,15,,,,,,,,,,,,,,314.6289999761502,,response,,,,7,E,,,,,,Space,keypress(Space),,,,lyrical,,,,---- --------- ---------- - --- ------- -- --- ------------<br>----- -- -------- ------- ---- ------ - -------- ---- -----<br>--- ------- ---- -- --- -------- --- - ----- ------ ---- --<br>-------- his -------- -------- --- -------- ---- -- ----- -<br>-------- ---- --- ---------- --------- -- ------- ------ -<br>--------- ----- -----,295791.39999997616,295790.39999997616,295459.102,295463.6999999881,295475.771,295812.468,,32,his
screen,html.Screen,2_3_1_0_1_33,2022-02-17T14:21:55.367Z,,,,,,,,,,,,,,,,,15,,,,,,,,,,,,,,321.93199997616466,,response,,,,7,E,,,,,,Space,keypress(Space),,,,lyrical,,,,---- --------- ---------- - --- ------- -- --- ------------<br>----- -- -------- ------- ---- ------ - -------- ---- -----<br>--- ------- ---- -- --- -------- --- - ----- ------ ---- --<br>-------- --- silence. -------- --- -------- ---- -- ----- -<br>-------- ---- --- ---------- --------- -- ------- ------ -<br>--------- ----- -----,296135.39999997616,296134.39999997616,295776.075,295791.60000002384,295812.468,296143.088,,33,silence.
screen,html.Screen,2_3_1_0_1_34,2022-02-17T14:21:55.960Z,,,,,,,,,,,,,,,,,15,,,,,,,,,,,,,,583.6119999880902,,response,,,,7,E,,,,,,Space,keypress(Space),,,,lyrical,,,,---- --------- ---------- - --- ------- -- --- ------------<br>----- -- -------- ------- ---- ------ - -------- ---- -----<br>--- ------- ---- -- --- -------- --- - ----- ------ ---- --<br>-------- --- -------- Anderson --- -------- ---- -- ----- -<br>-------- ---- --- ---------- --------- -- ------- ------ -<br>--------- ----- -----,296727.8000000119,296726.6999999881,296126.425,296135.60000002384,296143.088,296743.738,,34,Anderson
screen,html.Screen,2_3_1_0_1_35,2022-02-17T14:21:56.303Z,,,,,,,,,,,,,,,,,15,,,,,,,,,,,,,,326.5620000119088,,response,,,,7,E,,,,,,Space,keypress(Space),,,,lyrical,,,,---- --------- ---------- - --- ------- -- --- ------------<br>----- -- -------- ------- ---- ------ - -------- ---- -----<br>--- ------- ---- -- --- -------- --- - ----- ------ ---- --<br>-------- --- -------- -------- was -------- ---- -- ----- -<br>-------- ---- --- ---------- --------- -- ------- ------ -<br>--------- ----- -----,297071.39999997616,297070.3000000119,296727.024,296728,296743.738,297077.366,,35,was
screen,html.Screen,2_3_1_0_1_36,2022-02-17T14:21:56.736Z,,,,,,,,,,,,,,,,,15,,,,,,,,,,,,,,425.03399997617817,,response,,,,7,E,,,,,,Space,keypress(Space),,,,lyrical,,,,---- --------- ---------- - --- ------- -- --- ------------<br>----- -- -------- ------- ---- ------ - -------- ---- -----<br>--- ------- ---- -- --- -------- --- - ----- ------ ---- --<br>-------- --- -------- -------- --- released ---- -- ----- -<br>-------- ---- --- ---------- --------- -- ------- ------ -<br>--------- ----- -----,297503.8000000119,297502.39999997616,297060.684,297071.60000002384,297077.366,297511.097,,36,released
screen,html.Screen,2_3_1_0_1_37,2022-02-17T14:21:57.151Z,,,,,,,,,,,,,,,,,15,,,,,,,,,,,,,,407.3029999761493,,response,,,,7,E,,,,,,Space,keypress(Space),,,,lyrical,,,,---- --------- ---------- - --- ------- -- --- ------------<br>----- -- -------- ------- ---- ------ - -------- ---- -----<br>--- ------- ---- -- --- -------- --- - ----- ------ ---- --<br>-------- --- -------- -------- --- -------- July -- ----- -<br>-------- ---- --- ---------- --------- -- ------- ------ -<br>--------- ----- -----,297919.39999997616,297918.39999997616,297494.464,297504,297511.097,297928.224,,37,July
screen,html.Screen,2_3_1_0_1_38,2022-02-17T14:21:57.583Z,,,,,,,,,,,,,,,,,15,,,,,,,,,,,,,,422.0760000119335,,response,,,,7,E,,,,,,Space,keypress(Space),,,,lyrical,,,,---- --------- ---------- - --- ------- -- --- ------------<br>----- -- -------- ------- ---- ------ - -------- ---- -----<br>--- ------- ---- -- --- -------- --- - ----- ------ ---- --<br>-------- --- -------- -------- --- -------- ---- 20 ----- -<br>-------- ---- --- ---------- --------- -- ------- ------ -<br>--------- ----- -----,298351.39999997616,298350.3000000119,297911.509,297919.60000002384,297928.224,298362.031,,38,20
screen,html.Screen,2_3_1_0_1_39,2022-02-17T14:21:58.039Z,,,,,,,,,,,,,,,,,15,,,,,,,,,,,,,,444.2690000119037,,response,,,,7,E,,,,,,Space,keypress(Space),,,,lyrical,,,,---- --------- ---------- - --- ------- -- --- ------------<br>----- -- -------- ------- ---- ------ - -------- ---- -----<br>--- ------- ---- -- --- -------- --- - ----- ------ ---- --<br>-------- --- -------- -------- --- -------- ---- -- after -<br>-------- ---- --- ---------- --------- -- ------- ------ -<br>--------- ----- -----,298807.5,298806.3000000119,298345.265,298351.60000002384,298362.031,298812.398,,39,after
screen,html.Screen,2_3_1_0_1_40,2022-02-17T14:21:58.703Z,,,,,,,,,,,,,,,,,15,,,,,,,,,,,,,,658.1020000000135,,response,,,,7,E,,,,,,Space,keypress(Space),,,,lyrical,,,,---- --------- ---------- - --- ------- -- --- ------------<br>----- -- -------- ------- ---- ------ - -------- ---- -----<br>--- ------- ---- -- --- -------- --- - ----- ------ ---- --<br>-------- --- -------- -------- --- -------- ---- -- ----- a<br>-------- ---- --- ---------- --------- -- ------- ------ -<br>--------- ----- -----,299471.60000002384,299470.5,298795.741,298807.6999999881,298812.398,299479.778,,40,a
