sender,sender_type,sender_id,timestamp,meta,,Blues,Classical,Country,Dance,Electronic,Folk,Gospel,Hip-Hop,Jazz,Latin,Musical/Film,New-age,Pop,Prolific_id,Provo_ID,R&B,Rap,Reggae,Religious,Rock,Soul,Swing,Traditional,age,artist_name,correct,correctResponse,distraction,duration,education,ended_on,familiarity,gender,headphone_check_performance,item,list,music_frequency,offensiveness,pleasantness,position_correct,preference,response,response_action,snippet_file,song_name,song_rating,sound,stimulus_1,stimulus_2,stimulus_3,text,time_commit,time_end,time_render,time_run,time_show,time_switch,url,word,word_ID
Prolific ID,html.Form,0,2022-02-17T14:36:06.667Z,"{""labjs_version"":""20.2.2"",""labjs_build"":{""flavor"":""production"",""commit"":""a25486e0c714a0ae2ce03ff94b7bb6896854dcfa""},""location"":""https://run.pavlovia.org/mvasilev/prolific2_music_e/"",""userAgent"":""Mozilla/5.0 (Windows NT 10.0; Win64; x64) AppleWebKit/537.36 (KHTML, like Gecko) Chrome/98.0.4758.80 Safari/537.36 Edg/98.0.1108.50"",""platform"":""Win32"",""language"":""en-GB"",""locale"":""en-GB"",""timeZone"":""Europe/London"",""timezoneOffset"":0,""screen_width"":1280,""screen_height"":720,""scroll_width"":1280,""scroll_height"":577,""window_innerWidth"":1280,""window_innerHeight"":577,""devicePixelRatio"":1.5}",,,,,,,,,,,,,,,5c502180f1561a00011d51c1,,,,,,,,,,,,,,,8128.657999976158,,form submission,,,,,,,,,,,,,,,,,,,,,16967.100000023842,16966.399999976158,8820.918,8834.399999976158,8837.742,16971.098,{},,
Introduction,html.Screen,1_0,2022-02-17T14:36:10.973Z,,,,,,,,,,,,,,,,,,,,,,,,,,,,,,,4296.601999928473,,response,,,,,,,,,,,continue,click button,,,,,,,,,21273.600000023842,21267.699999928474,16954.467,16967.399999976158,16971.098,21287.771,,,
Volume calibration,html.Screen,1_1,2022-02-17T14:36:27.461Z,,,,,,,,,,,,,,,,,,,,,,,,,,,,,,,16470.628999976158,,response,,,,,,,,,,,continue,click button,,,,,,,,,37760.799999952316,37758.39999997616,21254.418,21274,21287.771,37771.157,,,
Task instructions,html.Screen,1_2,2022-02-17T14:36:31.800Z,,,,,,,,,,,,,,,,,,,,,,,,,,,,,,,4326.443000023843,,response,,,,,,,,,,,continue,click button,,,,,,,,,42099.799999952316,42097.60000002384,37754.603,37761.10000002384,37771.157,42104.541,,,
Sounds,html.Screen,1_3_0_0,2022-02-17T14:36:36.041Z,,,,,,,,,,,,,,,,,,,,,,,,,,,,,,,4249.968000000001,,timeout,,,,,,,,,1,,,,,,,,S,O,I,,46340.799999952316,46337.992,42087.872,42100.199999928474,42104.541,46354.509,,,
Judgement,html.Screen,1_3_0_1,2022-02-17T14:36:37.503Z,,,,,,,,,,,,,,,,,,,,,,,,,,,,true,1,,1445.790999952318,,response,,,,,,,,,1,,1,click #choice-1,,,,,S,O,I,,47802.799999952316,47800.299999952316,46337.992,46340.89999997616,46354.509,47804.504,,,
Trial,flow.Sequence,1_3_0,2022-02-17T14:36:37.504Z,,,,,,,,,,,,,,,,,,,,,,,,,,,,,,,5695.758999952319,,completion,,,,,,,,,1,,,,,,,,S,O,I,,47803.5,47800.299999952316,42087.872,42100.199999928474,42104.541,47804.504,,,
Sounds,html.Screen,1_3_1_0,2022-02-17T14:36:41.740Z,,,,,,,,,,,,,,,,,,,,,,,,,,,,,,,4250.023999999998,,timeout,,,,,,,,,3,,,,,,,,I,O,S,,52039.699999928474,52038.069,47787.839,47803.799999952316,47804.504,52054.528,,,
Judgement,html.Screen,1_3_1_1,2022-02-17T14:36:42.627Z,,,,,,,,,,,,,,,,,,,,,,,,,,,,true,3,,869.5720000238434,,response,,,,,,,,,3,,3,click #choice-3,,,,,I,O,S,,52926.60000002384,52924.10000002384,52038.069,52040,52054.528,52937.931,,,
Trial,flow.Sequence,1_3_1,2022-02-17T14:36:42.628Z,,,,,,,,,,,,,,,,,,,,,,,,,,,,,,,5119.596000023841,,completion,,,,,,,,,3,,,,,,,,I,O,S,,52927.10000002384,52924.10000002384,47787.839,47803.699999928474,47804.504,52937.931,,,
Sounds,html.Screen,1_3_2_0,2022-02-17T14:36:46.873Z,,,,,,,,,,,,,,,,,,,,,,,,,,,,,,,4249.862000000001,,timeout,,,,,,,,,1,,,,,,,,S,I,O,,57172.10000002384,57171.177,52921.251,52927.60000002384,52937.931,57187.793,,,
Judgement,html.Screen,1_3_2_1,2022-02-17T14:36:47.682Z,,,,,,,,,,,,,,,,,,,,,,,,,,,,true,1,,791.7070000000022,,response,,,,,,,,,1,,1,click #choice-1,,,,,S,I,O,,57981.799999952316,57979.5,57171.177,57172.199999928474,57187.793,57987.892,,,
Trial,flow.Sequence,1_3_2,2022-02-17T14:36:47.683Z,,,,,,,,,,,,,,,,,,,,,,,,,,,,,,,5041.569000000003,,completion,,,,,,,,,1,,,,,,,,S,I,O,,57982.39999997616,57979.5,52921.251,52927.39999997616,52937.931,57987.892,,,
Sounds,html.Screen,1_3_3_0,2022-02-17T14:36:51.924Z,,,,,,,,,,,,,,,,,,,,,,,,,,,,,,,4249.923999999999,,timeout,,,,,,,,,2,,,,,,,,I,S,O,,62223.39999997616,62221.382,57971.454,57982.799999952316,57987.892,62237.816,,,
Judgement,html.Screen,1_3_3_1,2022-02-17T14:36:52.583Z,,,,,,,,,,,,,,,,,,,,,,,,,,,,true,2,,642.784000023843,,response,,,,,,,,,2,,2,click #choice-2,,,,,I,S,O,,62882.5,62880.60000002384,62221.382,62223.699999928474,62237.816,62887.866,,,
Trial,flow.Sequence,1_3_3,2022-02-17T14:36:52.584Z,,,,,,,,,,,,,,,,,,,,,,,,,,,,,,,4892.708000023842,,completion,,,,,,,,,2,,,,,,,,I,S,O,,62883,62880.60000002384,57971.454,57982.699999928474,57987.892,62887.866,,,
Sounds,html.Screen,1_3_4_0,2022-02-17T14:36:56.824Z,,,,,,,,,,,,,,,,,,,,,,,,,,,,,,,4250.041000000005,,timeout,,,,,,,,,2,,,,,,,,O,S,I,,67123.29999995232,67121.308,62871.426,62883.199999928474,62887.866,67137.907,,,
Judgement,html.Screen,1_3_4_1,2022-02-17T14:36:58.035Z,,,,,,,,,,,,,,,,,,,,,,,,,,,,true,2,,1195.292999928468,,response,,,,,,,,,2,,2,click #choice-2,,,,,O,S,I,,68334.19999992847,68333.19999992847,67121.308,67123.60000002384,67137.907,68337.824,,,
Trial,flow.Sequence,1_3_4,2022-02-17T14:36:58.035Z,,,,,,,,,,,,,,,,,,,,,,,,,,,,,,,5445.333999928473,,completion,,,,,,,,,2,,,,,,,,O,S,I,,68334.5,68333.19999992847,62871.426,62883.10000002384,62887.866,68337.824,,,
Sounds,html.Screen,1_3_5_0,2022-02-17T14:37:02.273Z,,,,,,,,,,,,,,,,,,,,,,,,,,,,,,,4250.330000000002,,timeout,,,,,,,,,3,,,,,,,,O,I,S,,72572.79999995232,72571.297,68321.294,68334.60000002384,68337.824,72588.154,,,
Judgement,html.Screen,1_3_5_1,2022-02-17T14:37:02.926Z,,,,,,,,,,,,,,,,,,,,,,,,,,,,true,3,,636.4460000238469,,response,,,,,,,,,3,,3,click #choice-3,,,,,O,I,S,,73225.5,73224.60000002384,72571.297,72573.10000002384,72588.154,73237.899,,,
Trial,flow.Sequence,1_3_5,2022-02-17T14:37:02.926Z,,,,,,,,,,,,,,,,,,,,,,,,,,,,,,,4886.776000023849,,completion,,,,,,,,,3,,,,,,,,O,I,S,,73225.60000002384,73224.60000002384,68321.294,68334.60000002384,68337.824,73237.899,,,
Task,flow.Loop,1_3,2022-02-17T14:37:02.929Z,,,,,,,,,,,,,,,,,,,,,,,,,,,,,,,31120.059000023844,,completion,,,1,,,,,,,,,,,,,,,,,,73228.10000002384,73224.60000002384,42087.872,42100,42104.541,73237.899,,,
Trap,html.Screen,1_4,2022-02-17T14:37:02.929Z,,,,,,,,,,,,,,,,,,,,,,,,,,,,,,,NaN,,skipped,,,,,,,,,,,,,,,,,,,,,73228.69999992847,73224.60000002384,,73228.69999992847,,73237.899,,,
Thanks,html.Screen,1_5,2022-02-17T14:37:05.347Z,,,,,,,,,,,,,,,,,,,,,,,,,,,,,,,2406.100999999995,,response,,,,,,,,,,,continue,click button,,,,,,,,,75645.89999997616,75644,73221.251,73228.79999995232,73237.899,78771.176,,,
Headphone screening,flow.Sequence,1,2022-02-17T14:37:05.347Z,,,,,,,,,,,,,,,,,,,,,,,,,,,,,,,58672.902,,completion,,,,,,,,,,,,,,,,,,,,,75646.19999992847,75644,16954.467,16967.299999952316,16971.098,78771.176,,,
Instructions,html.Page,2_0,2022-02-17T14:37:17.620Z,,,,,,,,,,,,,,,,,,,,,,,,,,,,,,,9147.12399995231,,form submission,,,,,,,,,,,,,,,,,,,,,87919.10000002384,87918.29999995232,78754.567,78773.19999992847,78771.176,87921.277,,,
Holding screen,html.Screen,2_1_0_0,2022-02-17T14:37:27.607Z,,,,,,,,,,,,,,,,,,,,,,,,,,,,,,,9999.962,,timeout,,,,,,,,,,,,,,,,,,,,,97906.39999997616,97904.763,87904.565,87919.5,87921.277,97921.239,,,
screen,html.Screen,2_1_0_1_0,2022-02-17T14:37:28.708Z,,,,,,,,,,,,,,,,,53,,,,,,,,,,,,,,1080.3610000238405,,response,,,,99,,,,,,,Space,keypress(Space),,,,,,,,When -- ----- -- ------ - ------- --- ----------<br>------------- ------ ------ ---- ---- ------- ----- -- ----<br>-------- ------- -- ---------- --- - --- ----- ----- ----<br>---- --- --- ----- --- ---- ---- ------- ----- ---- -------<br>--- --- -- ----- -- --- ---- -- --- ---- -- ------ ------<br>--- ----- -- ----,99007.69999992847,99001.60000002384,97904.763,97906.69999992847,97921.239,99021.274,,0,When
screen,html.Screen,2_1_0_1_1,2022-02-17T14:37:29.167Z,,,,,,,,,,,,,,,,,53,,,,,,,,,,,,,,443.7259999999951,,response,,,,99,,,,,,,Space,keypress(Space),,,,,,,,---- it ----- -- ------ - ------- --- ----------<br>------------- ------ ------ ---- ---- ------- ----- -- ----<br>-------- ------- -- ---------- --- - --- ----- ----- ----<br>---- --- --- ----- --- ---- ---- ------- ----- ---- -------<br>--- --- -- ----- -- --- ---- -- --- ---- -- ------ ------<br>--- ----- -- ----,99466.10000002384,99465,99004.799,99008,99021.274,99471.28,,1,it
screen,html.Screen,2_1_0_1_2,2022-02-17T14:37:29.735Z,,,,,,,,,,,,,,,,,53,,,,,,,,,,,,,,562.5199999523174,,response,,,,99,,,,,,,Space,keypress(Space),,,,,,,,---- -- comes -- ------ - ------- --- ----------<br>------------- ------ ------ ---- ---- ------- ----- -- ----<br>-------- ------- -- ---------- --- - --- ----- ----- ----<br>---- --- --- ----- --- ---- ---- ------- ----- ---- -------<br>--- --- -- ----- -- --- ---- -- --- ---- -- ------ ------<br>--- ----- -- ----,100034.89999997616,100033.79999995232,99454.789,99466.39999997616,99471.28,100037.96,,2,comes
screen,html.Screen,2_1_0_1_3,2022-02-17T14:37:30.194Z,,,,,,,,,,,,,,,,,53,,,,,,,,,,,,,,454.8399999523099,,response,,,,99,,,,,,,Space,keypress(Space),,,,,,,,---- -- ----- to ------ - ------- --- ----------<br>------------- ------ ------ ---- ---- ------- ----- -- ----<br>-------- ------- -- ---------- --- - --- ----- ----- ----<br>---- --- --- ----- --- ---- ---- ------- ----- ---- -------<br>--- --- -- ----- -- --- ---- -- --- ---- -- ------ ------<br>--- ----- -- ----,100493.5,100492.79999995232,100021.291,100035.10000002384,100037.96,100504.916,,3,to
screen,html.Screen,2_1_0_1_4,2022-02-17T14:37:30.678Z,,,,,,,,,,,,,,,,,53,,,,,,,,,,,,,,471.08400000000256,,response,,,,99,,,,,,,Space,keypress(Space),,,,,,,,---- -- ----- -- having - ------- --- ----------<br>------------- ------ ------ ---- ---- ------- ----- -- ----<br>-------- ------- -- ---------- --- - --- ----- ----- ----<br>---- --- --- ----- --- ---- ---- ------- ----- ---- -------<br>--- --- -- ----- -- --- ---- -- --- ---- -- ------ ------<br>--- ----- -- ----,100977.10000002384,100976,100487.871,100493.69999992847,100504.916,100988.201,,4,having
screen,html.Screen,2_1_0_1_5,2022-02-17T14:37:31.124Z,,,,,,,,,,,,,,,,,53,,,,,,,,,,,,,,431.79899999999907,,response,,,,99,,,,,,,Space,keypress(Space),,,,,,,,---- -- ----- -- ------ a ------- --- ----------<br>------------- ------ ------ ---- ---- ------- ----- -- ----<br>-------- ------- -- ---------- --- - --- ----- ----- ----<br>---- --- --- ----- --- ---- ---- ------- ----- ---- -------<br>--- --- -- ----- -- --- ---- -- --- ---- -- ------ ------<br>--- ----- -- ----,101423.19999992847,101420,100971.44,100977.29999995232,100988.201,101438.151,,5,a
screen,html.Screen,2_1_0_1_6,2022-02-17T14:37:31.556Z,,,,,,,,,,,,,,,,,53,,,,,,,,,,,,,,415.7489999761601,,response,,,,99,,,,,,,Space,keypress(Space),,,,,,,,---- -- ----- -- ------ - lasting --- ----------<br>------------- ------ ------ ---- ---- ------- ----- -- ----<br>-------- ------- -- ---------- --- - --- ----- ----- ----<br>---- --- --- ----- --- ---- ---- ------- ----- ---- -------<br>--- --- -- ----- -- --- ---- -- --- ---- -- ------ ------<br>--- ----- -- ----,101855,101853.89999997616,101421.287,101423.39999997616,101438.151,101871.365,,6,lasting
screen,html.Screen,2_1_0_1_7,2022-02-17T14:37:32.079Z,,,,,,,,,,,,,,,,,53,,,,,,,,,,,,,,505.8349999284692,,response,,,,99,,,,,,,Space,keypress(Space),,,,,,,,---- -- ----- -- ------ - ------- and ----------<br>------------- ------ ------ ---- ---- ------- ----- -- ----<br>-------- ------- -- ---------- --- - --- ----- ----- ----<br>---- --- --- ----- --- ---- ---- ------- ----- ---- -------<br>--- --- -- ----- -- --- ---- -- --- ---- -- ------ ------<br>--- ----- -- ----,102378.10000002384,102377.19999992847,101854.644,101855.29999995232,101871.365,102387.928,,7,and
screen,html.Screen,2_1_0_1_8,2022-02-17T14:37:32.549Z,,,,,,,,,,,,,,,,,53,,,,,,,,,,,,,,459.97199997615826,,response,,,,99,,,,,,,Space,keypress(Space),,,,,,,,---- -- ----- -- ------ - ------- --- fulfilling<br>------------- ------ ------ ---- ---- ------- ----- -- ----<br>-------- ------- -- ---------- --- - --- ----- ----- ----<br>---- --- --- ----- --- ---- ---- ------- ----- ---- -------<br>--- --- -- ----- -- --- ---- -- --- ---- -- ------ ------<br>--- ----- -- ----,102848.79999995232,102847.89999997616,102371.467,102378.39999997616,102387.928,102854.587,,8,fulfilling
screen,html.Screen,2_1_0_1_9,2022-02-17T14:37:33.020Z,,,,,,,,,,,,,,,,,53,,,,,,,,,,,,,,463.5130000238423,,response,,,,99,,,,,,,Space,keypress(Space),,,,,,,,"---- -- ----- -- ------ - ------- --- ----------<br>relationship, ------ ------ ---- ---- ------- ----- -- ----<br>-------- ------- -- ---------- --- - --- ----- ----- ----<br>---- --- --- ----- --- ---- ---- ------- ----- ---- -------<br>--- --- -- ----- -- --- ---- -- --- ---- -- ------ ------<br>--- ----- -- ----",103319.19999992847,103318.10000002384,102837.918,102849,102854.587,103344.711,,9,"relationship,"
screen,html.Screen,2_1_0_1_10,2022-02-17T14:37:33.463Z,,,,,,,,,,,,,,,,,53,,,,,,,,,,,,,,416.7890000000043,,response,,,,99,,,,,,,Space,keypress(Space),,,,,,,,---- -- ----- -- ------ - ------- --- ----------<br>------------- common ------ ---- ---- ------- ----- -- ----<br>-------- ------- -- ---------- --- - --- ----- ----- ----<br>---- --- --- ----- --- ---- ---- ------- ----- ---- -------<br>--- --- -- ----- -- --- ---- -- --- ---- -- ------ ------<br>--- ----- -- ----,103762.69999992847,103761.5,103304.761,103319.39999997616,103344.711,103771.341,,10,common
screen,html.Screen,2_1_0_1_11,2022-02-17T14:37:33.959Z,,,,,,,,,,,,,,,,,53,,,,,,,,,,,,,,486.95899995231593,,response,,,,99,,,,,,,Space,keypress(Space),,,,,,,,---- -- ----- -- ------ - ------- --- ----------<br>------------- ------ wisdom ---- ---- ------- ----- -- ----<br>-------- ------- -- ---------- --- - --- ----- ----- ----<br>---- --- --- ----- --- ---- ---- ------- ----- ---- -------<br>--- --- -- ----- -- --- ---- -- --- ---- -- ------ ------<br>--- ----- -- ----,104258.69999992847,104258.29999995232,103754.657,103763.19999992847,103771.341,104271.183,,11,wisdom
screen,html.Screen,2_1_0_1_12,2022-02-17T14:37:34.433Z,,,,,,,,,,,,,,,,,53,,,,,,,,,,,,,,459.7169999761536,,response,,,,99,,,,,,,Space,keypress(Space),,,,,,,,---- -- ----- -- ------ - ------- --- ----------<br>------------- ------ ------ says ---- ------- ----- -- ----<br>-------- ------- -- ---------- --- - --- ----- ----- ----<br>---- --- --- ----- --- ---- ---- ------- ----- ---- -------<br>--- --- -- ----- -- --- ---- -- --- ---- -- ------ ------<br>--- ----- -- ----,104732,104730.89999997616,104254.64,104258.69999992847,104271.183,104737.973,,12,says
screen,html.Screen,2_1_0_1_13,2022-02-17T14:37:34.855Z,,,,,,,,,,,,,,,,,53,,,,,,,,,,,,,,415.2269999284763,,response,,,,99,,,,,,,Space,keypress(Space),,,,,,,,---- -- ----- -- ------ - ------- --- ----------<br>------------- ------ ------ ---- that ------- ----- -- ----<br>-------- ------- -- ---------- --- - --- ----- ----- ----<br>---- --- --- ----- --- ---- ---- ------- ----- ---- -------<br>--- --- -- ----- -- --- ---- -- --- ---- -- ------ ------<br>--- ----- -- ----,105154.29999995232,105153.19999992847,104721.311,104732.29999995232,104737.973,105171.325,,13,that
screen,html.Screen,2_1_0_1_14,2022-02-17T14:37:35.399Z,,,,,,,,,,,,,,,,,53,,,,,,,,,,,,,,525.7750000238448,,response,,,,99,,,,,,,Space,keypress(Space),,,,,,,,---- -- ----- -- ------ - ------- --- ----------<br>------------- ------ ------ ---- ---- feeling ----- -- ----<br>-------- ------- -- ---------- --- - --- ----- ----- ----<br>---- --- --- ----- --- ---- ---- ------- ----- ---- -------<br>--- --- -- ----- -- --- ---- -- --- ---- -- ------ ------<br>--- ----- -- ----,105698.19999992847,105697.10000002384,105154.837,105154.60000002384,105171.325,105704.563,,14,feeling
screen,html.Screen,2_1_0_1_15,2022-02-17T14:37:35.861Z,,,,,,,,,,,,,,,,,53,,,,,,,,,,,,,,454.6369999284798,,response,,,,99,,,,,,,Space,keypress(Space),,,,,,,,---- -- ----- -- ------ - ------- --- ----------<br>------------- ------ ------ ---- ---- ------- close -- ----<br>-------- ------- -- ---------- --- - --- ----- ----- ----<br>---- --- --- ----- --- ---- ---- ------- ----- ---- -------<br>--- --- -- ----- -- --- ---- -- --- ---- -- ------ ------<br>--- ----- -- ----,106160.29999995232,106159.19999992847,105687.944,105698.5,105704.563,106171.47,,15,close
screen,html.Screen,2_1_0_1_16,2022-02-17T14:37:36.300Z,,,,,,,,,,,,,,,,,53,,,,,,,,,,,,,,427.1300000238407,,response,,,,99,,,,,,,Space,keypress(Space),,,,,,,,---- -- ----- -- ------ - ------- --- ----------<br>------------- ------ ------ ---- ---- ------- ----- to ----<br>-------- ------- -- ---------- --- - --- ----- ----- ----<br>---- --- --- ----- --- ---- ---- ------- ----- ---- -------<br>--- --- -- ----- -- --- ---- -- --- ---- -- ------ ------<br>--- ----- -- ----,106599.69999992847,106598.60000002384,106154.603,106160.69999992847,106171.47,106604.655,,16,to
screen,html.Screen,2_1_0_1_17,2022-02-17T14:37:36.796Z,,,,,,,,,,,,,,,,,53,,,,,,,,,,,,,,489.7449999761593,,response,,,,99,,,,,,,Space,keypress(Space),,,,,,,,---- -- ----- -- ------ - ------- --- ----------<br>------------- ------ ------ ---- ---- ------- ----- -- your<br>-------- ------- -- ---------- --- - --- ----- ----- ----<br>---- --- --- ----- --- ---- ---- ------- ----- ---- -------<br>--- --- -- ----- -- --- ---- -- --- ---- -- ------ ------<br>--- ----- -- ----,107095.5,107094.39999997616,106588.017,106600,106604.655,107104.796,,17,your
screen,html.Screen,2_1_0_1_18,2022-02-17T14:37:37.170Z,,,,,,,,,,,,,,,,,53,,,,,,,,,,,,,,363.90399992847233,,response,,,,99,,,,,,,Space,keypress(Space),,,,,,,,---- -- ----- -- ------ - ------- --- ----------<br>------------- ------ ------ ---- ---- ------- ----- -- ----<br>romantic ------- -- ---------- --- - --- ----- ----- ----<br>---- --- --- ----- --- ---- ---- ------- ----- ---- -------<br>--- --- -- ----- -- --- ---- -- --- ---- -- ------ ------<br>--- ----- -- ----,107469.29999995232,107468.69999992847,107088.15,107095.79999995232,107104.796,107471.161,,18,romantic
screen,html.Screen,2_1_0_1_19,2022-02-17T14:37:37.561Z,,,,,,,,,,,,,,,,,53,,,,,,,,,,,,,,387.8390000000072,,response,,,,99,,,,,,,Space,keypress(Space),,,,,,,,---- -- ----- -- ------ - ------- --- ----------<br>------------- ------ ------ ---- ---- ------- ----- -- ----<br>-------- partner -- ---------- --- - --- ----- ----- ----<br>---- --- --- ----- --- ---- ---- ------- ----- ---- -------<br>--- --- -- ----- -- --- ---- -- --- ---- -- ------ ------<br>--- ----- -- ----,107860.29999995232,107859,107454.635,107469.39999997616,107471.161,107871.543,,19,partner
screen,html.Screen,2_1_0_1_20,2022-02-17T14:37:37.980Z,,,,,,,,,,,,,,,,,53,,,,,,,,,,,,,,407.25699995231116,,response,,,,99,,,,,,,Space,keypress(Space),,,,,,,,---- -- ----- -- ------ - ------- --- ----------<br>------------- ------ ------ ---- ---- ------- ----- -- ----<br>-------- ------- is ---------- --- - --- ----- ----- ----<br>---- --- --- ----- --- ---- ---- ------- ----- ---- -------<br>--- --- -- ----- -- --- ---- -- --- ---- -- ------ ------<br>--- ----- -- ----,108279.79999995232,108278.79999995232,107854.558,107860.60000002384,107871.543,108287.894,,20,is
screen,html.Screen,2_1_0_1_21,2022-02-17T14:37:38.440Z,,,,,,,,,,,,,,,,,53,,,,,,,,,,,,,,450.7060000238416,,response,,,,99,,,,,,,Space,keypress(Space),,,,,,,,---- -- ----- -- ------ - ------- --- ----------<br>------------- ------ ------ ---- ---- ------- ----- -- ----<br>-------- ------- -- paramount. --- - --- ----- ----- ----<br>---- --- --- ----- --- ---- ---- ------- ----- ---- -------<br>--- --- -- ----- -- --- ---- -- --- ---- -- ------ ------<br>--- ----- -- ----,108739.69999992847,108738.60000002384,108271.263,108280,108287.894,108754.625,,21,paramount.
screen,html.Screen,2_1_0_1_22,2022-02-17T14:37:38.858Z,,,,,,,,,,,,,,,,,53,,,,,,,,,,,,,,401.0749999284744,,response,,,,99,,,,,,,Space,keypress(Space),,,,,,,,---- -- ----- -- ------ - ------- --- ----------<br>------------- ------ ------ ---- ---- ------- ----- -- ----<br>-------- ------- -- ---------- But - --- ----- ----- ----<br>---- --- --- ----- --- ---- ---- ------- ----- ---- -------<br>--- --- -- ----- -- --- ---- -- --- ---- -- ------ ------<br>--- ----- -- ----,109156.89999997616,109155.69999992847,108738.227,108740,108754.625,109171.591,,22,But
screen,html.Screen,2_1_0_1_23,2022-02-17T14:37:39.239Z,,,,,,,,,,,,,,,,,53,,,,,,,,,,,,,,365.8089999761578,,response,,,,99,,,,,,,Space,keypress(Space),,,,,,,,---- -- ----- -- ------ - ------- --- ----------<br>------------- ------ ------ ---- ---- ------- ----- -- ----<br>-------- ------- -- ---------- --- a --- ----- ----- ----<br>---- --- --- ----- --- ---- ---- ------- ----- ---- -------<br>--- --- -- ----- -- --- ---- -- --- ---- -- ------ ------<br>--- ----- -- ----,109538.29999995232,109537.39999997616,109154.799,109157.19999992847,109171.591,109554.693,,23,a
screen,html.Screen,2_1_0_1_24,2022-02-17T14:37:39.643Z,,,,,,,,,,,,,,,,,53,,,,,,,,,,,,,,386.606999952317,,response,,,,99,,,,,,,Space,keypress(Space),,,,,,,,---- -- ----- -- ------ - ------- --- ----------<br>------------- ------ ------ ---- ---- ------- ----- -- ----<br>-------- ------- -- ---------- --- - new ----- ----- ----<br>---- --- --- ----- --- ---- ---- ------- ----- ---- -------<br>--- --- -- ----- -- --- ---- -- --- ---- -- ------ ------<br>--- ----- -- ----,109942.69999992847,109941.29999995232,109538.205,109538.69999992847,109554.693,109954.66,,24,new
screen,html.Screen,2_1_0_1_25,2022-02-17T14:37:40.186Z,,,,,,,,,,,,,,,,,53,,,,,,,,,,,,,,529.7399999761546,,response,,,,99,,,,,,,Space,keypress(Space),,,,,,,,---- -- ----- -- ------ - ------- --- ----------<br>------------- ------ ------ ---- ---- ------- ----- -- ----<br>-------- ------- -- ---------- --- - --- study ----- ----<br>---- --- --- ----- --- ---- ---- ------- ----- ---- -------<br>--- --- -- ----- -- --- ---- -- --- ---- -- ------ ------<br>--- ----- -- ----,110485,110484.39999997616,109938.168,109943.10000002384,109954.66,110487.95,,25,study
screen,html.Screen,2_1_0_1_26,2022-02-17T14:37:40.778Z,,,,,,,,,,,,,,,,,53,,,,,,,,,,,,,,587.8499999523192,,response,,,,99,,,,,,,Space,keypress(Space),,,,,,,,---- -- ----- -- ------ - ------- --- ----------<br>------------- ------ ------ ---- ---- ------- ----- -- ----<br>-------- ------- -- ---------- --- - --- ----- finds ----<br>---- --- --- ----- --- ---- ---- ------- ----- ---- -------<br>--- --- -- ----- -- --- ---- -- --- ---- -- ------ ------<br>--- ----- -- ----,111077.10000002384,111075.79999995232,110471.514,110485,110487.95,111087.922,,26,finds
screen,html.Screen,2_1_0_1_27,2022-02-17T14:37:41.359Z,,,,,,,,,,,,,,,,,53,,,,,,,,,,,,,,569.2779999284685,,response,,,,99,,,,,,,Space,keypress(Space),,,,,,,,---- -- ----- -- ------ - ------- --- ----------<br>------------- ------ ------ ---- ---- ------- ----- -- ----<br>-------- ------- -- ---------- --- - --- ----- ----- that<br>---- --- --- ----- --- ---- ---- ------- ----- ---- -------<br>--- --- -- ----- -- --- ---- -- --- ---- -- ------ ------<br>--- ----- -- ----,111658.60000002384,111657.19999992847,111071.428,111077.60000002384,111087.922,111671.587,,27,that
screen,html.Screen,2_1_0_1_28,2022-02-17T14:37:41.855Z,,,,,,,,,,,,,,,,,53,,,,,,,,,,,,,,482.0130000238423,,response,,,,99,,,,,,,Space,keypress(Space),,,,,,,,---- -- ----- -- ------ - ------- --- ----------<br>------------- ------ ------ ---- ---- ------- ----- -- ----<br>-------- ------- -- ---------- --- - --- ----- ----- ----<br>it's --- --- ----- --- ---- ---- ------- ----- ---- -------<br>--- --- -- ----- -- --- ---- -- --- ---- -- ------ ------<br>--- ----- -- ----,112154.89999997616,112153.60000002384,111654.721,111658.79999995232,111671.587,112171.641,,28,it's
screen,html.Screen,2_1_0_1_29,2022-02-17T14:37:42.262Z,,,,,,,,,,,,,,,,,53,,,,,,,,,,,,,,389.658999952313,,response,,,,99,,,,,,,Space,keypress(Space),,,,,,,,---- -- ----- -- ------ - ------- --- ----------<br>------------- ------ ------ ---- ---- ------- ----- -- ----<br>-------- ------- -- ---------- --- - --- ----- ----- ----<br>---- not --- ----- --- ---- ---- ------- ----- ---- -------<br>--- --- -- ----- -- --- ---- -- --- ---- -- ------ ------<br>--- ----- -- ----,112561.69999992847,112561.29999995232,112154.665,112155.19999992847,112171.641,112571.233,,29,not
screen,html.Screen,2_1_0_1_30,2022-02-17T14:37:42.643Z,,,,,,,,,,,,,,,,,53,,,,,,,,,,,,,,369.66699997616524,,response,,,,99,,,,,,,Space,keypress(Space),,,,,,,,---- -- ----- -- ------ - ------- --- ----------<br>------------- ------ ------ ---- ---- ------- ----- -- ----<br>-------- ------- -- ---------- --- - --- ----- ----- ----<br>---- --- how ----- --- ---- ---- ------- ----- ---- -------<br>--- --- -- ----- -- --- ---- -- --- ---- -- ------ ------<br>--- ----- -- ----,112942.10000002384,112940.89999997616,112554.875,112561.79999995232,112571.233,112954.892,,30,how
screen,html.Screen,2_1_0_1_31,2022-02-17T14:37:42.951Z,,,,,,,,,,,,,,,,,53,,,,,,,,,,,,,,294.4079999523092,,response,,,,99,,,,,,,Space,keypress(Space),,,,,,,,---- -- ----- -- ------ - ------- --- ----------<br>------------- ------ ------ ---- ---- ------- ----- -- ----<br>-------- ------- -- ---------- --- - --- ----- ----- ----<br>---- --- --- close --- ---- ---- ------- ----- ---- -------<br>--- --- -- ----- -- --- ---- -- --- ---- -- ------ ------<br>--- ----- -- ----,113250.5,113249.29999995232,112938.017,112942.39999997616,112954.892,113254.531,,31,close
screen,html.Screen,2_1_0_1_32,2022-02-17T14:37:43.262Z,,,,,,,,,,,,,,,,,53,,,,,,,,,,,,,,305.86899997615546,,response,,,,99,,,,,,,Space,keypress(Space),,,,,,,,---- -- ----- -- ------ - ------- --- ----------<br>------------- ------ ------ ---- ---- ------- ----- -- ----<br>-------- ------- -- ---------- --- - --- ----- ----- ----<br>---- --- --- ----- you ---- ---- ------- ----- ---- -------<br>--- --- -- ----- -- --- ---- -- --- ---- -- ------ ------<br>--- ----- -- ----,113561.5,113560.39999997616,113238.137,113250.79999995232,113254.531,113571.407,,32,you
screen,html.Screen,2_1_0_1_33,2022-02-17T14:37:43.792Z,,,,,,,,,,,,,,,,,53,,,,,,,,,,,,,,519.2929999284679,,response,,,,99,,,,,,,Space,keypress(Space),,,,,,,,---- -- ----- -- ------ - ------- --- ----------<br>------------- ------ ------ ---- ---- ------- ----- -- ----<br>-------- ------- -- ---------- --- - --- ----- ----- ----<br>---- --- --- ----- --- feel ---- ------- ----- ---- -------<br>--- --- -- ----- -- --- ---- -- --- ---- -- ------ ------<br>--- ----- -- ----,114091.89999997616,114090.69999992847,113554.814,113561.69999992847,113571.407,114104.794,,33,feel
screen,html.Screen,2_1_0_1_34,2022-02-17T14:37:44.141Z,,,,,,,,,,,,,,,,,53,,,,,,,,,,,,,,335.30600002384745,,response,,,,99,,,,,,,Space,keypress(Space),,,,,,,,---- -- ----- -- ------ - ------- --- ----------<br>------------- ------ ------ ---- ---- ------- ----- -- ----<br>-------- ------- -- ---------- --- - --- ----- ----- ----<br>---- --- --- ----- --- ---- that ------- ----- ---- -------<br>--- --- -- ----- -- --- ---- -- --- ---- -- ------ ------<br>--- ----- -- ----,114440.79999995232,114440.10000002384,114088.251,114092.19999992847,114104.794,114454.581,,34,that
screen,html.Screen,2_1_0_1_35,2022-02-17T14:37:44.444Z,,,,,,,,,,,,,,,,,53,,,,,,,,,,,,,,287.31899997615255,,response,,,,99,,,,,,,Space,keypress(Space),,,,,,,,---- -- ----- -- ------ - ------- --- ----------<br>------------- ------ ------ ---- ---- ------- ----- -- ----<br>-------- ------- -- ---------- --- - --- ----- ----- ----<br>---- --- --- ----- --- ---- ---- matters ----- ---- -------<br>--- --- -- ----- -- --- ---- -- --- ---- -- ------ ------<br>--- ----- -- ----,114743,114741.89999997616,114438.09,114441,114454.581,114754.612,,35,matters
screen,html.Screen,2_1_0_1_36,2022-02-17T14:37:44.784Z,,,,,,,,,,,,,,,,,53,,,,,,,,,,,,,,327.28799997616443,,response,,,,99,,,,,,,Space,keypress(Space),,,,,,,,"---- -- ----- -- ------ - ------- --- ----------<br>------------- ------ ------ ---- ---- ------- ----- -- ----<br>-------- ------- -- ---------- --- - --- ----- ----- ----<br>---- --- --- ----- --- ---- ---- ------- most, ---- -------<br>--- --- -- ----- -- --- ---- -- --- ---- -- ------ ------<br>--- ----- -- ----",115083.5,115081.89999997616,114737.949,114743.39999997616,114754.612,115088.004,,36,"most,"
screen,html.Screen,2_1_0_1_37,2022-02-17T14:37:45.295Z,,,,,,,,,,,,,,,,,53,,,,,,,,,,,,,,504.9959999999992,,response,,,,99,,,,,,,Space,keypress(Space),,,,,,,,---- -- ----- -- ------ - ------- --- ----------<br>------------- ------ ------ ---- ---- ------- ----- -- ----<br>-------- ------- -- ---------- --- - --- ----- ----- ----<br>---- --- --- ----- --- ---- ---- ------- ----- it's -------<br>--- --- -- ----- -- --- ---- -- --- ---- -- ------ ------<br>--- ----- -- ----,115594.10000002384,115593,115071.523,115083.79999995232,115088.004,115604.89,,37,it's
screen,html.Screen,2_1_0_1_38,2022-02-17T14:37:45.731Z,,,,,,,,,,,,,,,,,53,,,,,,,,,,,,,,424.21000002384244,,response,,,,99,,,,,,,Space,keypress(Space),,,,,,,,---- -- ----- -- ------ - ------- --- ----------<br>------------- ------ ------ ---- ---- ------- ----- -- ----<br>-------- ------- -- ---------- --- - --- ----- ----- ----<br>---- --- --- ----- --- ---- ---- ------- ----- ---- whether<br>--- --- -- ----- -- --- ---- -- --- ---- -- ------ ------<br>--- ----- -- ----,116030,116029.10000002384,115588.015,115594.29999995232,115604.89,116037.981,,38,whether
screen,html.Screen,2_1_0_1_39,2022-02-17T14:37:46.130Z,,,,,,,,,,,,,,,,,53,,,,,,,,,,,,,,390.21899992847466,,response,,,,99,,,,,,,Space,keypress(Space),,,,,,,,---- -- ----- -- ------ - ------- --- ----------<br>------------- ------ ------ ---- ---- ------- ----- -- ----<br>-------- ------- -- ---------- --- - --- ----- ----- ----<br>---- --- --- ----- --- ---- ---- ------- ----- ---- -------<br>you --- -- ----- -- --- ---- -- --- ---- -- ------ ------<br>--- ----- -- ----,116429.5,116428.19999992847,116021.462,116030.29999995232,116037.981,116437.989,,39,you
screen,html.Screen,2_1_0_1_40,2022-02-17T14:37:46.562Z,,,,,,,,,,,,,,,,,53,,,,,,,,,,,,,,422.61100002384046,,response,,,,99,,,,,,,Space,keypress(Space),,,,,,,,---- -- ----- -- ------ - ------- --- ----------<br>------------- ------ ------ ---- ---- ------- ----- -- ----<br>-------- ------- -- ---------- --- - --- ----- ----- ----<br>---- --- --- ----- --- ---- ---- ------- ----- ---- -------<br>--- are -- ----- -- --- ---- -- --- ---- -- ------ ------<br>--- ----- -- ----,116861.79999995232,116860.60000002384,116421.55,116429.69999992847,116437.989,116871.438,,40,are
screen,html.Screen,2_1_0_1_41,2022-02-17T14:37:46.988Z,,,,,,,,,,,,,,,,,53,,,,,,,,,,,,,,414.7619999284798,,response,,,,99,,,,,,,Space,keypress(Space),,,,,,,,---- -- ----- -- ------ - ------- --- ----------<br>------------- ------ ------ ---- ---- ------- ----- -- ----<br>-------- ------- -- ---------- --- - --- ----- ----- ----<br>---- --- --- ----- --- ---- ---- ------- ----- ---- -------<br>--- --- as ----- -- --- ---- -- --- ---- -- ------ ------<br>--- ----- -- ----,117287.39999997616,117286.19999992847,116854.539,116862,116871.438,117304.864,,41,as
screen,html.Screen,2_1_0_1_42,2022-02-17T14:37:47.511Z,,,,,,,,,,,,,,,,,53,,,,,,,,,,,,,,504.33599992847303,,response,,,,99,,,,,,,Space,keypress(Space),,,,,,,,---- -- ----- -- ------ - ------- --- ----------<br>------------- ------ ------ ---- ---- ------- ----- -- ----<br>-------- ------- -- ---------- --- - --- ----- ----- ----<br>---- --- --- ----- --- ---- ---- ------- ----- ---- -------<br>--- --- -- close -- --- ---- -- --- ---- -- ------ ------<br>--- ----- -- ----,117810.39999997616,117809.19999992847,117288.044,117287.69999992847,117304.864,117821.559,,42,close
screen,html.Screen,2_1_0_1_43,2022-02-17T14:37:47.856Z,,,,,,,,,,,,,,,,,53,,,,,,,,,,,,,,332.1409999284806,,response,,,,99,,,,,,,Space,keypress(Space),,,,,,,,---- -- ----- -- ------ - ------- --- ----------<br>------------- ------ ------ ---- ---- ------- ----- -- ----<br>-------- ------- -- ---------- --- - --- ----- ----- ----<br>---- --- --- ----- --- ---- ---- ------- ----- ---- -------<br>--- --- -- ----- as --- ---- -- --- ---- -- ------ ------<br>--- ----- -- ----,118154.89999997616,118153.69999992847,117804.839,117810.69999992847,117821.559,118171.611,,43,as
screen,html.Screen,2_1_0_1_44,2022-02-17T14:37:48.162Z,,,,,,,,,,,,,,,,,53,,,,,,,,,,,,,,288.8889999999956,,response,,,,99,,,,,,,Space,keypress(Space),,,,,,,,---- -- ----- -- ------ - ------- --- ----------<br>------------- ------ ------ ---- ---- ------- ----- -- ----<br>-------- ------- -- ---------- --- - --- ----- ----- ----<br>---- --- --- ----- --- ---- ---- ------- ----- ---- -------<br>--- --- -- ----- -- you ---- -- --- ---- -- ------ ------<br>--- ----- -- ----,118461.19999992847,118460.5,118154.855,118155.29999995232,118171.611,118471.237,,44,you
screen,html.Screen,2_1_0_1_45,2022-02-17T14:37:48.457Z,,,,,,,,,,,,,,,,,53,,,,,,,,,,,,,,284.9629999284807,,response,,,,99,,,,,,,Space,keypress(Space),,,,,,,,---- -- ----- -- ------ - ------- --- ----------<br>------------- ------ ------ ---- ---- ------- ----- -- ----<br>-------- ------- -- ---------- --- - --- ----- ----- ----<br>---- --- --- ----- --- ---- ---- ------- ----- ---- -------<br>--- --- -- ----- -- --- want -- --- ---- -- ------ ------<br>--- ----- -- ----,118756.60000002384,118756.19999992847,118454.678,118461.39999997616,118471.237,118771.239,,45,want
screen,html.Screen,2_1_0_1_46,2022-02-17T14:37:48.717Z,,,,,,,,,,,,,,,,,53,,,,,,,,,,,,,,243.66099997615675,,response,,,,99,,,,,,,Space,keypress(Space),,,,,,,,---- -- ----- -- ------ - ------- --- ----------<br>------------- ------ ------ ---- ---- ------- ----- -- ----<br>-------- ------- -- ---------- --- - --- ----- ----- ----<br>---- --- --- ----- --- ---- ---- ------- ----- ---- -------<br>--- --- -- ----- -- --- ---- to --- ---- -- ------ ------<br>--- ----- -- ----,119016,119014.89999997616,118754.601,118756.69999992847,118771.239,119021.321,,46,to
screen,html.Screen,2_1_0_1_47,2022-02-17T14:37:49.229Z,,,,,,,,,,,,,,,,,53,,,,,,,,,,,,,,505.97899995232,,response,,,,99,,,,,,,Space,keypress(Space),,,,,,,,"---- -- ----- -- ------ - ------- --- ----------<br>------------- ------ ------ ---- ---- ------- ----- -- ----<br>-------- ------- -- ---------- --- - --- ----- ----- ----<br>---- --- --- ----- --- ---- ---- ------- ----- ---- -------<br>--- --- -- ----- -- --- ---- -- be, ---- -- ------ ------<br>--- ----- -- ----",119528.39999997616,119527.29999995232,119004.561,119016.29999995232,119021.321,119537.934,,47,"be,"
screen,html.Screen,2_1_0_1_48,2022-02-17T14:37:49.563Z,,,,,,,,,,,,,,,,,53,,,,,,,,,,,,,,323.56600000000617,,response,,,,99,,,,,,,Space,keypress(Space),,,,,,,,---- -- ----- -- ------ - ------- --- ----------<br>------------- ------ ------ ---- ---- ------- ----- -- ----<br>-------- ------- -- ---------- --- - --- ----- ----- ----<br>---- --- --- ----- --- ---- ---- ------- ----- ---- -------<br>--- --- -- ----- -- --- ---- -- --- even -- ------ ------<br>--- ----- -- ----,119862.69999992847,119861.5,119521.318,119528.69999992847,119537.934,119871.355,,48,even
screen,html.Screen,2_1_0_1_49,2022-02-17T14:37:49.820Z,,,,,,,,,,,,,,,,,53,,,,,,,,,,,,,,246.54499997616222,,response,,,,99,,,,,,,Space,keypress(Space),,,,,,,,---- -- ----- -- ------ - ------- --- ----------<br>------------- ------ ------ ---- ---- ------- ----- -- ----<br>-------- ------- -- ---------- --- - --- ----- ----- ----<br>---- --- --- ----- --- ---- ---- ------- ----- ---- -------<br>--- --- -- ----- -- --- ---- -- --- ---- if ------ ------<br>--- ----- -- ----,120119,120117.89999997616,119854.886,119863.10000002384,119871.355,120153.757,,49,if
screen,html.Screen,2_1_0_1_50,2022-02-17T14:37:50.080Z,,,,,,,,,,,,,,,,,53,,,,,,,,,,,,,,224.14299997616035,,response,,,,99,,,,,,,Space,keypress(Space),,,,,,,,---- -- ----- -- ------ - ------- --- ----------<br>------------- ------ ------ ---- ---- ------- ----- -- ----<br>-------- ------- -- ---------- --- - --- ----- ----- ----<br>---- --- --- ----- --- ---- ---- ------- ----- ---- -------<br>--- --- -- ----- -- --- ---- -- --- ---- -- that's ------<br>--- ----- -- ----,120379,120377.89999997616,120104.701,120119.39999997616,120153.757,120387.961,,50,that's
screen,html.Screen,2_1_0_1_51,2022-02-17T14:37:50.421Z,,,,,,,,,,,,,,,,,53,,,,,,,,,,,,,,331.23899992847873,,response,,,,99,,,,,,,Space,keypress(Space),,,,,,,,---- -- ----- -- ------ - ------- --- ----------<br>------------- ------ ------ ---- ---- ------- ----- -- ----<br>-------- ------- -- ---------- --- - --- ----- ----- ----<br>---- --- --- ----- --- ---- ---- ------- ----- ---- -------<br>--- --- -- ----- -- --- ---- -- --- ---- -- ------ really<br>--- ----- -- ----,120720.19999992847,120719.19999992847,120371.275,120379.39999997616,120387.961,120738.234,,51,really
screen,html.Screen,2_1_0_1_52,2022-02-17T14:37:50.879Z,,,,,,,,,,,,,,,,,53,,,,,,,,,,,,,,438.26600000000326,,response,,,,99,,,,,,,Space,keypress(Space),,,,,,,,---- -- ----- -- ------ - ------- --- ----------<br>------------- ------ ------ ---- ---- ------- ----- -- ----<br>-------- ------- -- ---------- --- - --- ----- ----- ----<br>---- --- --- ----- --- ---- ---- ------- ----- ---- -------<br>--- --- -- ----- -- --- ---- -- --- ---- -- ------ ------<br>not ----- -- ----,121177.89999997616,121176.5,120721.544,120720.5,120738.234,121188.003,,52,not
screen,html.Screen,2_1_0_1_53,2022-02-17T14:37:51.201Z,,,,,,,,,,,,,,,,,53,,,,,,,,,,,,,,311.5970000238449,,response,,,,99,,,,,,,Space,keypress(Space),,,,,,,,---- -- ----- -- ------ - ------- --- ----------<br>------------- ------ ------ ---- ---- ------- ----- -- ----<br>-------- ------- -- ---------- --- - --- ----- ----- ----<br>---- --- --- ----- --- ---- ---- ------- ----- ---- -------<br>--- --- -- ----- -- --- ---- -- --- ---- -- ------ ------<br>--- close -- ----,121500.29999995232,121499.60000002384,121171.567,121178.19999992847,121188.003,121504.541,,53,close
screen,html.Screen,2_1_0_1_54,2022-02-17T14:37:51.587Z,,,,,,,,,,,,,,,,,53,,,,,,,,,,,,,,380.45900000000256,,response,,,,99,,,,,,,Space,keypress(Space),,,,,,,,---- -- ----- -- ------ - ------- --- ----------<br>------------- ------ ------ ---- ---- ------- ----- -- ----<br>-------- ------- -- ---------- --- - --- ----- ----- ----<br>---- --- --- ----- --- ---- ---- ------- ----- ---- -------<br>--- --- -- ----- -- --- ---- -- --- ---- -- ------ ------<br>--- ----- at ----,121886.60000002384,121885,121488.167,121500.39999997616,121504.541,121904.651,,54,at
screen,html.Screen,2_1_0_1_55,2022-02-17T14:37:52.105Z,,,,,,,,,,,,,,,,,53,,,,,,,,,,,,,,498.7489999761601,,response,,,,99,,,,,,,Space,keypress(Space),,,,,,,,---- -- ----- -- ------ - ------- --- ----------<br>------------- ------ ------ ---- ---- ------- ----- -- ----<br>-------- ------- -- ---------- --- - --- ----- ----- ----<br>---- --- --- ----- --- ---- ---- ------- ----- ---- -------<br>--- --- -- ----- -- --- ---- -- --- ---- -- ------ ------<br>--- ----- -- all.,122404.69999992847,122403.39999997616,121888.003,121887,121904.651,122421.251,,55,all.
Item 99,flow.Loop,2_1_0_1,2022-02-17T14:37:52.106Z,,,,,,,,,,,,,,,,,,,,,,,,,,,,,,,24482.160999976157,,completion,,,,,E,,,,,,,,,,,silence,,,,,122405.29999995232,122403.39999997616,97904.763,97906.60000002384,97921.239,122421.251,,,
Question 1,html.Screen,2_1_0_2,2022-02-17T14:37:57.070Z,,,,,,,,,,,,,,,,,,,,,,,,,,,,true,FALSE,,4945.748999999996,,response,,,,99,E,,,,,,FALSE,click #choice-2,,,,silence,,,,,127369.29999995232,127367,122404.631,122405.60000002384,122421.251,127371.296,,,
Question 2,html.Screen,2_1_0_3,2022-02-17T14:38:00.554Z,,,,,,,,,,,,,,,,,,,,,,,,,,,,true,TRUE,,3481.703999999998,,response,,,,99,E,,,,,,TRUE,click #choice-1,,,,silence,,,,,130853.79999995232,130853,127354.8,127369.79999995232,127371.296,130876.311,,,
Item 99,flow.Sequence,2_1_0,2022-02-17T14:38:00.555Z,,,,,,,,,,,,,,,,,,,,,,,,,,,,,,,42931.723,,completion,,,,,,,,,,,,,,,,,,,,,130854.10000002384,130853,87904.565,87919.39999997616,87921.277,130876.311,,,
Holding screen,html.Screen,2_1_1_0,2022-02-17T14:38:10.557Z,,,,,,,,,,,,,,,,,,,,,,,,,,,,,,,9995.262000000002,,timeout,,,,,,,,,,,,,,,,,,,,,140856.29999995232,140854.73,130838.159,130854.10000002384,130876.311,140871.573,,,
screen,html.Screen,2_1_1_1_0,2022-02-17T14:38:11.254Z,,,,,,,,,,,,,,,,,54,,,,,,,,,,,,,,680.6269999284705,,response,,,,100,,,,,,,Space,keypress(Space),,,,,,,,At --- ---- --- ------ ----- ------- ---- -- --- ------- --<br>------- ---------- ------ -- ----- -- ----- -- ---- ------<br>--- ----- --- --- ------ -------- ----- --- ------ ----- --<br>----- ----- ---------- --- --- ------ ------ ---- -- ------<br>------- --- ------ ----- --- ---- ------- -- ---- --- --<br>------- ------,141552.89999997616,141552.19999992847,140854.73,140856.69999992847,140871.573,141554.621,,0,At
screen,html.Screen,2_1_1_1_1,2022-02-17T14:38:11.906Z,,,,,,,,,,,,,,,,,54,,,,,,,,,,,,,,649.9790000238281,,response,,,,100,,,,,,,Space,keypress(Space),,,,,,,,-- the ---- --- ------ ----- ------- ---- -- --- ------- --<br>------- ---------- ------ -- ----- -- ----- -- ---- ------<br>--- ----- --- --- ------ -------- ----- --- ------ ----- --<br>----- ----- ---------- --- --- ------ ------ ---- -- ------<br>------- --- ------ ----- --- ---- ------- -- ---- --- --<br>------- ------,142205.69999992847,142204.60000002384,141537.98,141553.10000002384,141554.621,142221.605,,1,the
screen,html.Screen,2_1_1_1_2,2022-02-17T14:38:12.340Z,,,,,,,,,,,,,,,,,54,,,,,,,,,,,,,,416.1949999523058,,response,,,,100,,,,,,,Space,keypress(Space),,,,,,,,-- --- time --- ------ ----- ------- ---- -- --- ------- --<br>------- ---------- ------ -- ----- -- ----- -- ---- ------<br>--- ----- --- --- ------ -------- ----- --- ------ ----- --<br>----- ----- ---------- --- --- ------ ------ ---- -- ------<br>------- --- ------ ----- --- ---- ------- -- ---- --- --<br>------- ------,142638.89999997616,142637.79999995232,142204.579,142206,142221.605,142654.93,,2,time
screen,html.Screen,2_1_1_1_3,2022-02-17T14:38:12.695Z,,,,,,,,,,,,,,,,,54,,,,,,,,,,,,,,337.7699999284814,,response,,,,100,,,,,,,Space,keypress(Space),,,,,,,,-- --- ---- the ------ ----- ------- ---- -- --- ------- --<br>------- ---------- ------ -- ----- -- ----- -- ---- ------<br>--- ----- --- --- ------ -------- ----- --- ------ ----- --<br>----- ----- ---------- --- --- ------ ------ ---- -- ------<br>------- --- ------ ----- --- ---- ------- -- ---- --- --<br>------- ------,142993.89999997616,142992.69999992847,142638.066,142639.29999995232,142654.93,143004.775,,3,the
screen,html.Screen,2_1_1_1_4,2022-02-17T14:38:13.078Z,,,,,,,,,,,,,,,,,54,,,,,,,,,,,,,,371.62499997616396,,response,,,,100,,,,,,,Space,keypress(Space),,,,,,,,-- --- ---- --- French ----- ------- ---- -- --- ------- --<br>------- ---------- ------ -- ----- -- ----- -- ---- ------<br>--- ----- --- --- ------ -------- ----- --- ------ ----- --<br>----- ----- ---------- --- --- ------ ------ ---- -- ------<br>------- --- ------ ----- --- ---- ------- -- ---- --- --<br>------- ------,143377.5,143376.39999997616,142988.164,142994.19999992847,143004.775,143388.067,,4,French
screen,html.Screen,2_1_1_1_5,2022-02-17T14:38:13.465Z,,,,,,,,,,,,,,,,,54,,,,,,,,,,,,,,376.33299997614813,,response,,,,100,,,,,,,Space,keypress(Space),,,,,,,,-- --- ---- --- ------ crown ------- ---- -- --- ------- --<br>------- ---------- ------ -- ----- -- ----- -- ---- ------<br>--- ----- --- --- ------ -------- ----- --- ------ ----- --<br>----- ----- ---------- --- --- ------ ------ ---- -- ------<br>------- --- ------ ----- --- ---- ------- -- ---- --- --<br>------- ------,143764.89999997616,143764.39999997616,143371.388,143377.79999995232,143388.067,143771.357,,5,crown
screen,html.Screen,2_1_1_1_6,2022-02-17T14:38:14.021Z,,,,,,,,,,,,,,,,,54,,,,,,,,,,,,,,547.9429999523272,,response,,,,100,,,,,,,Space,keypress(Space),,,,,,,,-- --- ---- --- ------ ----- secured ---- -- --- ------- --<br>------- ---------- ------ -- ----- -- ----- -- ---- ------<br>--- ----- --- --- ------ -------- ----- --- ------ ----- --<br>----- ----- ---------- --- --- ------ ------ ---- -- ------<br>------- --- ------ ----- --- ---- ------- -- ---- --- --<br>------- ------,144320.5,144319.29999995232,143754.84,143764.89999997616,143771.357,144338.036,,6,secured
screen,html.Screen,2_1_1_1_7,2022-02-17T14:38:14.408Z,,,,,,,,,,,,,,,,,54,,,,,,,,,,,,,,368.0640000238491,,response,,,,100,,,,,,,Space,keypress(Space),,,,,,,,-- --- ---- --- ------ ----- ------- much -- --- ------- --<br>------- ---------- ------ -- ----- -- ----- -- ---- ------<br>--- ----- --- --- ------ -------- ----- --- ------ ----- --<br>----- ----- ---------- --- --- ------ ------ ---- -- ------<br>------- --- ------ ----- --- ---- ------- -- ---- --- --<br>------- ------,144707.10000002384,144706.10000002384,144321.285,144320.79999995232,144338.036,144721.646,,7,much
screen,html.Screen,2_1_1_1_8,2022-02-17T14:38:14.778Z,,,,,,,,,,,,,,,,,54,,,,,,,,,,,,,,355.2539999761502,,response,,,,100,,,,,,,Space,keypress(Space),,,,,,,,-- --- ---- --- ------ ----- ------- ---- of --- ------- --<br>------- ---------- ------ -- ----- -- ----- -- ---- ------<br>--- ----- --- --- ------ -------- ----- --- ------ ----- --<br>----- ----- ---------- --- --- ------ ------ ---- -- ------<br>------- --- ------ ----- --- ---- ------- -- ---- --- --<br>------- ------,145077.60000002384,145076.89999997616,144704.71,144707.39999997616,144721.646,145088.198,,8,of
screen,html.Screen,2_1_1_1_9,2022-02-17T14:38:15.232Z,,,,,,,,,,,,,,,,,54,,,,,,,,,,,,,,442.1019999523123,,response,,,,100,,,,,,,Space,keypress(Space),,,,,,,,-- --- ---- --- ------ ----- ------- ---- -- its ------- --<br>------- ---------- ------ -- ----- -- ----- -- ---- ------<br>--- ----- --- --- ------ -------- ----- --- ------ ----- --<br>----- ----- ---------- --- --- ------ ------ ---- -- ------<br>------- --- ------ ----- --- ---- ------- -- ---- --- --<br>------- ------,145531.39999997616,145530.29999995232,145071.513,145077.69999992847,145088.198,145554.72,,9,its
screen,html.Screen,2_1_1_1_10,2022-02-17T14:38:15.723Z,,,,,,,,,,,,,,,,,54,,,,,,,,,,,,,,466.8800000238407,,response,,,,100,,,,,,,Space,keypress(Space),,,,,,,,-- --- ---- --- ------ ----- ------- ---- -- --- revenue --<br>------- ---------- ------ -- ----- -- ----- -- ---- ------<br>--- ----- --- --- ------ -------- ----- --- ------ ----- --<br>----- ----- ---------- --- --- ------ ------ ---- -- ------<br>------- --- ------ ----- --- ---- ------- -- ---- --- --<br>------- ------,146022.89999997616,146021.60000002384,145521.322,145531.79999995232,145554.72,146038.35,,10,revenue
screen,html.Screen,2_1_1_1_11,2022-02-17T14:38:16.263Z,,,,,,,,,,,,,,,,,54,,,,,,,,,,,,,,523.1499999999942,,response,,,,100,,,,,,,Space,keypress(Space),,,,,,,,-- --- ---- --- ------ ----- ------- ---- -- --- ------- by<br>------- ---------- ------ -- ----- -- ----- -- ---- ------<br>--- ----- --- --- ------ -------- ----- --- ------ ----- --<br>----- ----- ---------- --- --- ------ ------ ---- -- ------<br>------- --- ------ ----- --- ---- ------- -- ---- --- --<br>------- ------,146562.19999992847,146561.5,146021.558,146023.10000002384,146038.35,146571.278,,11,by
screen,html.Screen,2_1_1_1_12,2022-02-17T14:38:16.716Z,,,,,,,,,,,,,,,,,54,,,,,,,,,,,,,,442.9219999284833,,response,,,,100,,,,,,,Space,keypress(Space),,,,,,,,-- --- ---- --- ------ ----- ------- ---- -- --- ------- --<br>issuing ---------- ------ -- ----- -- ----- -- ---- ------<br>--- ----- --- --- ------ -------- ----- --- ------ ----- --<br>----- ----- ---------- --- --- ------ ------ ---- -- ------<br>------- --- ------ ----- --- ---- ------- -- ---- --- --<br>------- ------,147015.39999997616,147014.19999992847,146554.876,146562.29999995232,146571.278,147021.313,,12,issuing
screen,html.Screen,2_1_1_1_13,2022-02-17T14:38:17.291Z,,,,,,,,,,,,,,,,,54,,,,,,,,,,,,,,568.4869999523216,,response,,,,100,,,,,,,Space,keypress(Space),,,,,,,,-- --- ---- --- ------ ----- ------- ---- -- --- ------- --<br>------- government ------ -- ----- -- ----- -- ---- ------<br>--- ----- --- --- ------ -------- ----- --- ------ ----- --<br>----- ----- ---------- --- --- ------ ------ ---- -- ------<br>------- --- ------ ----- --- ---- ------- -- ---- --- --<br>------- ------,147590.19999992847,147589.79999995232,147004.715,147015.60000002384,147021.313,147604.586,,13,government
screen,html.Screen,2_1_1_1_14,2022-02-17T14:38:17.974Z,,,,,,,,,,,,,,,,,54,,,,,,,,,,,,,,667.9139999999898,,response,,,,100,,,,,,,Space,keypress(Space),,,,,,,,-- --- ---- --- ------ ----- ------- ---- -- --- ------- --<br>------- ---------- bonds. -- ----- -- ----- -- ---- ------<br>--- ----- --- --- ------ -------- ----- --- ------ ----- --<br>----- ----- ---------- --- --- ------ ------ ---- -- ------<br>------- --- ------ ----- --- ---- ------- -- ---- --- --<br>------- ------,148273.60000002384,148272.5,147588.273,147590.29999995232,147604.586,148288.27,,14,bonds.
screen,html.Screen,2_1_1_1_15,2022-02-17T14:38:18.379Z,,,,,,,,,,,,,,,,,54,,,,,,,,,,,,,,389.1299999761686,,response,,,,100,,,,,,,Space,keypress(Space),,,,,,,,-- --- ---- --- ------ ----- ------- ---- -- --- ------- --<br>------- ---------- ------ In ----- -- ----- -- ---- ------<br>--- ----- --- --- ------ -------- ----- --- ------ ----- --<br>----- ----- ---------- --- --- ------ ------ ---- -- ------<br>------- --- ------ ----- --- ---- ------- -- ---- --- --<br>------- ------,148678.60000002384,148677.39999997616,148271.439,148273.89999997616,148288.27,148688.229,,15,In
screen,html.Screen,2_1_1_1_16,2022-02-17T14:38:18.823Z,,,,,,,,,,,,,,,,,54,,,,,,,,,,,,,,433.17099997616606,,response,,,,100,,,,,,,Space,keypress(Space),,,,,,,,"-- --- ---- --- ------ ----- ------- ---- -- --- ------- --<br>------- ---------- ------ -- 1727, -- ----- -- ---- ------<br>--- ----- --- --- ------ -------- ----- --- ------ ----- --<br>----- ----- ---------- --- --- ------ ------ ---- -- ------<br>------- --- ------ ----- --- ---- ------- -- ---- --- --<br>------- ------",149122.5,149121.39999997616,148671.593,148678.89999997616,148688.229,149138.221,,16,"1727,"
screen,html.Screen,2_1_1_1_17,2022-02-17T14:38:19.266Z,,,,,,,,,,,,,,,,,54,,,,,,,,,,,,,,426.3790000238514,,response,,,,100,,,,,,,Space,keypress(Space),,,,,,,,-- --- ---- --- ------ ----- ------- ---- -- --- ------- --<br>------- ---------- ------ -- ----- in ----- -- ---- ------<br>--- ----- --- --- ------ -------- ----- --- ------ ----- --<br>----- ----- ---------- --- --- ------ ------ ---- -- ------<br>------- --- ------ ----- --- ---- ------- -- ---- --- --<br>------- ------,149565.10000002384,149564.60000002384,149121.342,149122.89999997616,149138.221,149571.309,,17,in
screen,html.Screen,2_1_1_1_18,2022-02-17T14:38:19.756Z,,,,,,,,,,,,,,,,,54,,,,,,,,,,,,,,482.9909999523079,,response,,,,100,,,,,,,Space,keypress(Space),,,,,,,,-- --- ---- --- ------ ----- ------- ---- -- --- ------- --<br>------- ---------- ------ -- ----- -- order -- ---- ------<br>--- ----- --- --- ------ -------- ----- --- ------ ----- --<br>----- ----- ---------- --- --- ------ ------ ---- -- ------<br>------- --- ------ ----- --- ---- ------- -- ---- --- --<br>------- ------,150055.29999995232,150054.29999995232,149554.754,149565.19999992847,149571.309,150071.623,,18,order
screen,html.Screen,2_1_1_1_19,2022-02-17T14:38:20.169Z,,,,,,,,,,,,,,,,,54,,,,,,,,,,,,,,395.5769999284821,,response,,,,100,,,,,,,Space,keypress(Space),,,,,,,,-- --- ---- --- ------ ----- ------- ---- -- --- ------- --<br>------- ---------- ------ -- ----- -- ----- to ---- ------<br>--- ----- --- --- ------ -------- ----- --- ------ ----- --<br>----- ----- ---------- --- --- ------ ------ ---- -- ------<br>------- --- ------ ----- --- ---- ------- -- ---- --- --<br>------- ------,150468.39999997616,150467.19999992847,150054.81,150055.60000002384,150071.623,150471.347,,19,to
screen,html.Screen,2_1_1_1_20,2022-02-17T14:38:20.752Z,,,,,,,,,,,,,,,,,54,,,,,,,,,,,,,,578.8529999284656,,response,,,,100,,,,,,,Space,keypress(Space),,,,,,,,-- --- ---- --- ------ ----- ------- ---- -- --- ------- --<br>------- ---------- ------ -- ----- -- ----- -- save ------<br>--- ----- --- --- ------ -------- ----- --- ------ ----- --<br>----- ----- ---------- --- --- ------ ------ ---- -- ------<br>------- --- ------ ----- --- ---- ------- -- ---- --- --<br>------- ------,151051.39999997616,151050.19999992847,150454.972,150468.69999992847,150471.347,151054.721,,20,save
screen,html.Screen,2_1_1_1_21,2022-02-17T14:38:21.260Z,,,,,,,,,,,,,,,,,54,,,,,,,,,,,,,,503.77900000000955,,response,,,,100,,,,,,,Space,keypress(Space),,,,,,,,"-- --- ---- --- ------ ----- ------- ---- -- --- ------- --<br>------- ---------- ------ -- ----- -- ----- -- ---- money,<br>--- ----- --- --- ------ -------- ----- --- ------ ----- --<br>----- ----- ---------- --- --- ------ ------ ---- -- ------<br>------- --- ------ ----- --- ---- ------- -- ---- --- --<br>------- ------",151559.89999997616,151558.5,151038.035,151051.69999992847,151054.721,151571.609,,21,"money,"
screen,html.Screen,2_1_1_1_22,2022-02-17T14:38:21.694Z,,,,,,,,,,,,,,,,,54,,,,,,,,,,,,,,420.5909999284777,,response,,,,100,,,,,,,Space,keypress(Space),,,,,,,,-- --- ---- --- ------ ----- ------- ---- -- --- ------- --<br>------- ---------- ------ -- ----- -- ----- -- ---- ------<br>the ----- --- --- ------ -------- ----- --- ------ ----- --<br>----- ----- ---------- --- --- ------ ------ ---- -- ------<br>------- --- ------ ----- --- ---- ------- -- ---- --- --<br>------- ------,151993.29999995232,151992.19999992847,151554.848,151560,151571.609,152004.729,,22,the
screen,html.Screen,2_1_1_1_23,2022-02-17T14:38:22.105Z,,,,,,,,,,,,,,,,,54,,,,,,,,,,,,,,398.47099992848234,,response,,,,100,,,,,,,Space,keypress(Space),,,,,,,,-- --- ---- --- ------ ----- ------- ---- -- --- ------- --<br>------- ---------- ------ -- ----- -- ----- -- ---- ------<br>--- state --- --- ------ -------- ----- --- ------ ----- --<br>----- ----- ---------- --- --- ------ ------ ---- -- ------<br>------- --- ------ ----- --- ---- ------- -- ---- --- --<br>------- ------,152404.5,152403.19999992847,151987.941,151993.5,152004.729,152421.709,,23,state
screen,html.Screen,2_1_1_1_24,2022-02-17T14:38:22.519Z,,,,,,,,,,,,,,,,,54,,,,,,,,,,,,,,395.8910000238393,,response,,,,100,,,,,,,Space,keypress(Space),,,,,,,,-- --- ---- --- ------ ----- ------- ---- -- --- ------- --<br>------- ---------- ------ -- ----- -- ----- -- ---- ------<br>--- ----- cut --- ------ -------- ----- --- ------ ----- --<br>----- ----- ---------- --- --- ------ ------ ---- -- ------<br>------- --- ------ ----- --- ---- ------- -- ---- --- --<br>------- ------,152818.79999995232,152817.60000002384,152404.561,152404.79999995232,152421.709,152821.385,,24,cut
screen,html.Screen,2_1_1_1_25,2022-02-17T14:38:22.914Z,,,,,,,,,,,,,,,,,54,,,,,,,,,,,,,,391.01499997614883,,response,,,,100,,,,,,,Space,keypress(Space),,,,,,,,-- --- ---- --- ------ ----- ------- ---- -- --- ------- --<br>------- ---------- ------ -- ----- -- ----- -- ---- ------<br>--- ----- --- the ------ -------- ----- --- ------ ----- --<br>----- ----- ---------- --- --- ------ ------ ---- -- ------<br>------- --- ------ ----- --- ---- ------- -- ---- --- --<br>------- ------,153213.79999995232,153212.39999997616,152804.666,152819.10000002384,152821.385,153221.533,,25,the
screen,html.Screen,2_1_1_1_26,2022-02-17T14:38:23.347Z,,,,,,,,,,,,,,,,,54,,,,,,,,,,,,,,424.1669999284786,,response,,,,100,,,,,,,Space,keypress(Space),,,,,,,,-- --- ---- --- ------ ----- ------- ---- -- --- ------- --<br>------- ---------- ------ -- ----- -- ----- -- ---- ------<br>--- ----- --- --- bonds' -------- ----- --- ------ ----- --<br>----- ----- ---------- --- --- ------ ------ ---- -- ------<br>------- --- ------ ----- --- ---- ------- -- ---- --- --<br>------- ------,153646.19999992847,153645.69999992847,153204.727,153214,153221.533,153654.614,,26,bonds'
screen,html.Screen,2_1_1_1_27,2022-02-17T14:38:23.807Z,,,,,,,,,,,,,,,,,54,,,,,,,,,,,,,,451.78599997615675,,response,,,,100,,,,,,,Space,keypress(Space),,,,,,,,-- --- ---- --- ------ ----- ------- ---- -- --- ------- --<br>------- ---------- ------ -- ----- -- ----- -- ---- ------<br>--- ----- --- --- ------ interest ----- --- ------ ----- --<br>----- ----- ---------- --- --- ------ ------ ---- -- ------<br>------- --- ------ ----- --- ---- ------- -- ---- --- --<br>------- ------,154106.79999995232,154106.39999997616,153638.221,153646.29999995232,153654.614,154121.328,,27,interest
screen,html.Screen,2_1_1_1_28,2022-02-17T14:38:24.236Z,,,,,,,,,,,,,,,,,54,,,,,,,,,,,,,,412.97199995230767,,response,,,,100,,,,,,,Space,keypress(Space),,,,,,,,-- --- ---- --- ------ ----- ------- ---- -- --- ------- --<br>------- ---------- ------ -- ----- -- ----- -- ---- ------<br>--- ----- --- --- ------ -------- rate. --- ------ ----- --<br>----- ----- ---------- --- --- ------ ------ ---- -- ------<br>------- --- ------ ----- --- ---- ------- -- ---- --- --<br>------- ------,154535.39999997616,154534.29999995232,154104.577,154106.89999997616,154121.328,154538.062,,28,rate.
screen,html.Screen,2_1_1_1_29,2022-02-17T14:38:24.658Z,,,,,,,,,,,,,,,,,54,,,,,,,,,,,,,,418.73799995231093,,response,,,,100,,,,,,,Space,keypress(Space),,,,,,,,-- --- ---- --- ------ ----- ------- ---- -- --- ------- --<br>------- ---------- ------ -- ----- -- ----- -- ---- ------<br>--- ----- --- --- ------ -------- ----- The ------ ----- --<br>----- ----- ---------- --- --- ------ ------ ---- -- ------<br>------- --- ------ ----- --- ---- ------- -- ---- --- --<br>------- ------,154957.89999997616,154956.79999995232,154521.549,154535.69999992847,154538.062,154971.495,,29,The
screen,html.Screen,2_1_1_1_30,2022-02-17T14:38:25.039Z,,,,,,,,,,,,,,,,,54,,,,,,,,,,,,,,365.30499995232094,,response,,,,100,,,,,,,Space,keypress(Space),,,,,,,,-- --- ---- --- ------ ----- ------- ---- -- --- ------- --<br>------- ---------- ------ -- ----- -- ----- -- ---- ------<br>--- ----- --- --- ------ -------- ----- --- market ----- --<br>----- ----- ---------- --- --- ------ ------ ---- -- ------<br>------- --- ------ ----- --- ---- ------- -- ---- --- --<br>------- ------,155338.19999992847,155336.79999995232,154954.665,154958.19999992847,154971.495,155354.774,,30,market
screen,html.Screen,2_1_1_1_31,2022-02-17T14:38:25.527Z,,,,,,,,,,,,,,,,,54,,,,,,,,,,,,,,470.62599997615325,,response,,,,100,,,,,,,Space,keypress(Space),,,,,,,,-- --- ---- --- ------ ----- ------- ---- -- --- ------- --<br>------- ---------- ------ -- ----- -- ----- -- ---- ------<br>--- ----- --- --- ------ -------- ----- --- ------ value --<br>----- ----- ---------- --- --- ------ ------ ---- -- ------<br>------- --- ------ ----- --- ---- ------- -- ---- --- --<br>------- ------,155826.60000002384,155825.39999997616,155338.218,155338.39999997616,155354.774,155838.004,,31,value
screen,html.Screen,2_1_1_1_32,2022-02-17T14:38:25.861Z,,,,,,,,,,,,,,,,,54,,,,,,,,,,,,,,321.49600000001374,,response,,,,100,,,,,,,Space,keypress(Space),,,,,,,,-- --- ---- --- ------ ----- ------- ---- -- --- ------- --<br>------- ---------- ------ -- ----- -- ----- -- ---- ------<br>--- ----- --- --- ------ -------- ----- --- ------ ----- of<br>----- ----- ---------- --- --- ------ ------ ---- -- ------<br>------- --- ------ ----- --- ---- ------- -- ---- --- --<br>------- ------,156160.29999995232,156159.5,155821.596,155826.89999997616,155838.004,156171.255,,32,of
screen,html.Screen,2_1_1_1_33,2022-02-17T14:38:26.217Z,,,,,,,,,,,,,,,,,54,,,,,,,,,,,,,,344.24499999999534,,response,,,,100,,,,,,,Space,keypress(Space),,,,,,,,-- --- ---- --- ------ ----- ------- ---- -- --- ------- --<br>------- ---------- ------ -- ----- -- ----- -- ---- ------<br>--- ----- --- --- ------ -------- ----- --- ------ ----- --<br>these ----- ---------- --- --- ------ ------ ---- -- ------<br>------- --- ------ ----- --- ---- ------- -- ---- --- --<br>------- ------,156516.69999992847,156515.5,156154.913,156160.5,156171.255,156521.413,,33,these
screen,html.Screen,2_1_1_1_34,2022-02-17T14:38:26.530Z,,,,,,,,,,,,,,,,,54,,,,,,,,,,,,,,307.08699999999953,,response,,,,100,,,,,,,Space,keypress(Space),,,,,,,,-- --- ---- --- ------ ----- ------- ---- -- --- ------- --<br>------- ---------- ------ -- ----- -- ----- -- ---- ------<br>--- ----- --- --- ------ -------- ----- --- ------ ----- --<br>----- bonds ---------- --- --- ------ ------ ---- -- ------<br>------- --- ------ ----- --- ---- ------- -- ---- --- --<br>------- ------,156829.79999995232,156828.5,156504.905,156517,156521.413,156838.007,,34,bonds
screen,html.Screen,2_1_1_1_35,2022-02-17T14:38:26.822Z,,,,,,,,,,,,,,,,,54,,,,,,,,,,,,,,282.8929999761458,,response,,,,100,,,,,,,Space,keypress(Space),,,,,,,,"-- --- ---- --- ------ ----- ------- ---- -- --- ------- --<br>------- ---------- ------ -- ----- -- ----- -- ---- ------<br>--- ----- --- --- ------ -------- ----- --- ------ ----- --<br>----- ----- plummeted, --- --- ------ ------ ---- -- ------<br>------- --- ------ ----- --- ---- ------- -- ---- --- --<br>------- ------",157121.39999997616,157120.89999997616,156821.52,156830.10000002384,156838.007,157137.994,,35,"plummeted,"
screen,html.Screen,2_1_1_1_36,2022-02-17T14:38:27.345Z,,,,,,,,,,,,,,,,,54,,,,,,,,,,,,,,505.2059999284684,,response,,,,100,,,,,,,Space,keypress(Space),,,,,,,,-- --- ---- --- ------ ----- ------- ---- -- --- ------- --<br>------- ---------- ------ -- ----- -- ----- -- ---- ------<br>--- ----- --- --- ------ -------- ----- --- ------ ----- --<br>----- ----- ---------- and --- ------ ------ ---- -- ------<br>------- --- ------ ----- --- ---- ------- -- ---- --- --<br>------- ------,157644.19999992847,157643.19999992847,157121.422,157121.5,157137.994,157654.658,,36,and
screen,html.Screen,2_1_1_1_37,2022-02-17T14:38:27.708Z,,,,,,,,,,,,,,,,,54,,,,,,,,,,,,,,351.24199997616233,,response,,,,100,,,,,,,Space,keypress(Space),,,,,,,,-- --- ---- --- ------ ----- ------- ---- -- --- ------- --<br>------- ---------- ------ -- ----- -- ----- -- ---- ------<br>--- ----- --- --- ------ -------- ----- --- ------ ----- --<br>----- ----- ---------- --- the ------ ------ ---- -- ------<br>------- --- ------ ----- --- ---- ------- -- ---- --- --<br>------- ------,158007,158005.89999997616,157637.93,157644.5,157654.658,158021.466,,37,the
screen,html.Screen,2_1_1_1_38,2022-02-17T14:38:28.036Z,,,,,,,,,,,,,,,,,54,,,,,,,,,,,,,,312.73399992848863,,response,,,,100,,,,,,,Space,keypress(Space),,,,,,,,-- --- ---- --- ------ ----- ------- ---- -- --- ------- --<br>------- ---------- ------ -- ----- -- ----- -- ---- ------<br>--- ----- --- --- ------ -------- ----- --- ------ ----- --<br>----- ----- ---------- --- --- market ------ ---- -- ------<br>------- --- ------ ----- --- ---- ------- -- ---- --- --<br>------- ------,158334.79999995232,158334.19999992847,158004.653,158007.29999995232,158021.466,158337.928,,38,market
screen,html.Screen,2_1_1_1_39,2022-02-17T14:38:28.545Z,,,,,,,,,,,,,,,,,54,,,,,,,,,,,,,,505.27199992846,,response,,,,100,,,,,,,Space,keypress(Space),,,,,,,,-- --- ---- --- ------ ----- ------- ---- -- --- ------- --<br>------- ---------- ------ -- ----- -- ----- -- ---- ------<br>--- ----- --- --- ------ -------- ----- --- ------ ----- --<br>----- ----- ---------- --- --- ------ became ---- -- ------<br>------- --- ------ ----- --- ---- ------- -- ---- --- --<br>------- ------,158844.39999997616,158843.19999992847,158321.558,158335,158337.928,158854.86,,39,became
screen,html.Screen,2_1_1_1_40,2022-02-17T14:38:28.889Z,,,,,,,,,,,,,,,,,54,,,,,,,,,,,,,,332.3399999284884,,response,,,,100,,,,,,,Space,keypress(Space),,,,,,,,-- --- ---- --- ------ ----- ------- ---- -- --- ------- --<br>------- ---------- ------ -- ----- -- ----- -- ---- ------<br>--- ----- --- --- ------ -------- ----- --- ------ ----- --<br>----- ----- ---------- --- --- ------ ------ wary -- ------<br>------- --- ------ ----- --- ---- ------- -- ---- --- --<br>------- ------,159188.39999997616,159187.19999992847,158838.248,158844.60000002384,158854.86,159204.87,,40,wary
screen,html.Screen,2_1_1_1_41,2022-02-17T14:38:29.185Z,,,,,,,,,,,,,,,,,54,,,,,,,,,,,,,,278.13000000000466,,response,,,,100,,,,,,,Space,keypress(Space),,,,,,,,-- --- ---- --- ------ ----- ------- ---- -- --- ------- --<br>------- ---------- ------ -- ----- -- ----- -- ---- ------<br>--- ----- --- --- ------ -------- ----- --- ------ ----- --<br>----- ----- ---------- --- --- ------ ------ ---- of ------<br>------- --- ------ ----- --- ---- ------- -- ---- --- --<br>------- ------,159484.29999995232,159483,159188.281,159188.69999992847,159204.87,159488.07,,41,of
screen,html.Screen,2_1_1_1_42,2022-02-17T14:38:29.681Z,,,,,,,,,,,,,,,,,54,,,,,,,,,,,,,,490.7299999523093,,response,,,,100,,,,,,,Space,keypress(Space),,,,,,,,-- --- ---- --- ------ ----- ------- ---- -- --- ------- --<br>------- ---------- ------ -- ----- -- ----- -- ---- ------<br>--- ----- --- --- ------ -------- ----- --- ------ ----- --<br>----- ----- ---------- --- --- ------ ------ ---- -- French<br>------- --- ------ ----- --- ---- ------- -- ---- --- --<br>------- ------,159980.29999995232,159978.79999995232,159471.317,159484.60000002384,159488.07,159988.004,,42,French
screen,html.Screen,2_1_1_1_43,2022-02-17T14:38:30.141Z,,,,,,,,,,,,,,,,,54,,,,,,,,,,,,,,451.19599992848816,,response,,,,100,,,,,,,Space,keypress(Space),,,,,,,,-- --- ---- --- ------ ----- ------- ---- -- --- ------- --<br>------- ---------- ------ -- ----- -- ----- -- ---- ------<br>--- ----- --- --- ------ -------- ----- --- ------ ----- --<br>----- ----- ---------- --- --- ------ ------ ---- -- ------<br>credit. --- ------ ----- --- ---- ------- -- ---- --- --<br>------- ------,160439.60000002384,160439.19999992847,159971.626,159980.79999995232,159988.004,160454.756,,43,credit.
screen,html.Screen,2_1_1_1_44,2022-02-17T14:38:30.512Z,,,,,,,,,,,,,,,,,54,,,,,,,,,,,,,,355.8440000238479,,response,,,,100,,,,,,,Space,keypress(Space),,,,,,,,-- --- ---- --- ------ ----- ------- ---- -- --- ------- --<br>------- ---------- ------ -- ----- -- ----- -- ---- ------<br>--- ----- --- --- ------ -------- ----- --- ------ ----- --<br>----- ----- ---------- --- --- ------ ------ ---- -- ------<br>------- The ------ ----- --- ---- ------- -- ---- --- --<br>------- ------,160811.60000002384,160810.60000002384,160437.972,160439.79999995232,160454.756,160821.41,,44,The
screen,html.Screen,2_1_1_1_45,2022-02-17T14:38:30.765Z,,,,,,,,,,,,,,,,,54,,,,,,,,,,,,,,241.0899999999965,,response,,,,100,,,,,,,Space,keypress(Space),,,,,,,,-- --- ---- --- ------ ----- ------- ---- -- --- ------- --<br>------- ---------- ------ -- ----- -- ----- -- ---- ------<br>--- ----- --- --- ------ -------- ----- --- ------ ----- --<br>----- ----- ---------- --- --- ------ ------ ---- -- ------<br>------- --- French ----- --- ---- ------- -- ---- --- --<br>------- ------,161063.69999992847,161062.5,160804.902,160811.89999997616,160821.41,161071.411,,45,French
screen,html.Screen,2_1_1_1_46,2022-02-17T14:38:31.199Z,,,,,,,,,,,,,,,,,54,,,,,,,,,,,,,,425.5890000000072,,response,,,,100,,,,,,,Space,keypress(Space),,,,,,,,-- --- ---- --- ------ ----- ------- ---- -- --- ------- --<br>------- ---------- ------ -- ----- -- ----- -- ---- ------<br>--- ----- --- --- ------ -------- ----- --- ------ ----- --<br>----- ----- ---------- --- --- ------ ------ ---- -- ------<br>------- --- ------ state --- ---- ------- -- ---- --- --<br>------- ------,161498.10000002384,161497,161054.738,161064,161071.411,161504.655,,46,state
screen,html.Screen,2_1_1_1_47,2022-02-17T14:38:31.715Z,,,,,,,,,,,,,,,,,54,,,,,,,,,,,,,,507.945000023843,,response,,,,100,,,,,,,Space,keypress(Space),,,,,,,,-- --- ---- --- ------ ----- ------- ---- -- --- ------- --<br>------- ---------- ------ -- ----- -- ----- -- ---- ------<br>--- ----- --- --- ------ -------- ----- --- ------ ----- --<br>----- ----- ---------- --- --- ------ ------ ---- -- ------<br>------- --- ------ ----- was ---- ------- -- ---- --- --<br>------- ------,162013.79999995232,162012.60000002384,161488.187,161498.39999997616,161504.655,162021.272,,47,was
screen,html.Screen,2_1_1_1_48,2022-02-17T14:38:32.170Z,,,,,,,,,,,,,,,,,54,,,,,,,,,,,,,,447.32800002384465,,response,,,,100,,,,,,,Space,keypress(Space),,,,,,,,-- --- ---- --- ------ ----- ------- ---- -- --- ------- --<br>------- ---------- ------ -- ----- -- ----- -- ---- ------<br>--- ----- --- --- ------ -------- ----- --- ------ ----- --<br>----- ----- ---------- --- --- ------ ------ ---- -- ------<br>------- --- ------ ----- --- left ------- -- ---- --- --<br>------- ------,162469.10000002384,162468.60000002384,162004.682,162014.10000002384,162021.272,162471.276,,48,left
screen,html.Screen,2_1_1_1_49,2022-02-17T14:38:32.584Z,,,,,,,,,,,,,,,,,54,,,,,,,,,,,,,,411.0239999523037,,response,,,,100,,,,,,,Space,keypress(Space),,,,,,,,-- --- ---- --- ------ ----- ------- ---- -- --- ------- --<br>------- ---------- ------ -- ----- -- ----- -- ---- ------<br>--- ----- --- --- ------ -------- ----- --- ------ ----- --<br>----- ----- ---------- --- --- ------ ------ ---- -- ------<br>------- --- ------ ----- --- ---- without -- ---- --- --<br>------- ------,162883.5,162882.29999995232,162454.682,162469.19999992847,162471.276,162888.075,,49,without
screen,html.Screen,2_1_1_1_50,2022-02-17T14:38:32.990Z,,,,,,,,,,,,,,,,,54,,,,,,,,,,,,,,400.0250000238302,,response,,,,100,,,,,,,Space,keypress(Space),,,,,,,,-- --- ---- --- ------ ----- ------- ---- -- --- ------- --<br>------- ---------- ------ -- ----- -- ----- -- ---- ------<br>--- ----- --- --- ------ -------- ----- --- ------ ----- --<br>----- ----- ---------- --- --- ------ ------ ---- -- ------<br>------- --- ------ ----- --- ---- ------- an ---- --- --<br>------- ------,163289.29999995232,163288.10000002384,162871.385,162883.79999995232,162888.075,163304.925,,50,an
screen,html.Screen,2_1_1_1_51,2022-02-17T14:38:33.403Z,,,,,,,,,,,,,,,,,54,,,,,,,,,,,,,,396.27499992848607,,response,,,,100,,,,,,,Space,keypress(Space),,,,,,,,-- --- ---- --- ------ ----- ------- ---- -- --- ------- --<br>------- ---------- ------ -- ----- -- ----- -- ---- ------<br>--- ----- --- --- ------ -------- ----- --- ------ ----- --<br>----- ----- ---------- --- --- ------ ------ ---- -- ------<br>------- --- ------ ----- --- ---- ------- -- easy --- --<br>------- ------,163702.39999997616,163701.19999992847,163288.383,163289.60000002384,163304.925,163731.686,,51,easy
screen,html.Screen,2_1_1_1_52,2022-02-17T14:38:33.818Z,,,,,,,,,,,,,,,,,54,,,,,,,,,,,,,,384.7139999761712,,response,,,,100,,,,,,,Space,keypress(Space),,,,,,,,-- --- ---- --- ------ ----- ------- ---- -- --- ------- --<br>------- ---------- ------ -- ----- -- ----- -- ---- ------<br>--- ----- --- --- ------ -------- ----- --- ------ ----- --<br>----- ----- ---------- --- --- ------ ------ ---- -- ------<br>------- --- ------ ----- --- ---- ------- -- ---- way --<br>------- ------,164117.29999995232,164116.39999997616,163688.179,163702.69999992847,163731.686,164121.389,,52,way
screen,html.Screen,2_1_1_1_53,2022-02-17T14:38:34.241Z,,,,,,,,,,,,,,,,,54,,,,,,,,,,,,,,418.51099997616257,,response,,,,100,,,,,,,Space,keypress(Space),,,,,,,,-- --- ---- --- ------ ----- ------- ---- -- --- ------- --<br>------- ---------- ------ -- ----- -- ----- -- ---- ------<br>--- ----- --- --- ------ -------- ----- --- ------ ----- --<br>----- ----- ---------- --- --- ------ ------ ---- -- ------<br>------- --- ------ ----- --- ---- ------- -- ---- --- of<br>------- ------,164540.29999995232,164539.89999997616,164104.704,164117.60000002384,164121.389,164554.921,,53,of
screen,html.Screen,2_1_1_1_54,2022-02-17T14:38:34.790Z,,,,,,,,,,,,,,,,,54,,,,,,,,,,,,,,532.8789999523142,,response,,,,100,,,,,,,Space,keypress(Space),,,,,,,,-- --- ---- --- ------ ----- ------- ---- -- --- ------- --<br>------- ---------- ------ -- ----- -- ----- -- ---- ------<br>--- ----- --- --- ------ -------- ----- --- ------ ----- --<br>----- ----- ---------- --- --- ------ ------ ---- -- ------<br>------- --- ------ ----- --- ---- ------- -- ---- --- --<br>raising ------,165088.89999997616,165087.79999995232,164538.304,164540.39999997616,164554.921,165104.793,,54,raising
screen,html.Screen,2_1_1_1_55,2022-02-17T14:38:35.209Z,,,,,,,,,,,,,,,,,54,,,,,,,,,,,,,,402.2069999999949,,response,,,,100,,,,,,,Space,keypress(Space),,,,,,,,-- --- ---- --- ------ ----- ------- ---- -- --- ------- --<br>------- ---------- ------ -- ----- -- ----- -- ---- ------<br>--- ----- --- --- ------ -------- ----- --- ------ ----- --<br>----- ----- ---------- --- --- ------ ------ ---- -- ------<br>------- --- ------ ----- --- ---- ------- -- ---- --- --<br>------- money.,165508.19999992847,165507,165088.207,165089.19999992847,165104.793,165521.344,,55,money.
Item 100,flow.Loop,2_1_1_1,2022-02-17T14:38:35.210Z,,,,,,,,,,,,,,,,,,,,,,,,,,,,,,,24635.426999999996,,completion,,,,,E,,,,,,,,,,,silence,,,,,165508.69999992847,165507,140854.73,140856.60000002384,140871.573,165521.344,,,
Question 1,html.Screen,2_1_1_2,2022-02-17T14:38:37.821Z,,,,,,,,,,,,,,,,,,,,,,,,,,,,true,TRUE,,2596.5559999761463,,response,,,,100,E,,,,,,TRUE,click #choice-1,,,,silence,,,,,168119.69999992847,168117.89999997616,165504.729,165509,165521.344,168121.387,,,
Question 2,html.Screen,2_1_1_3,2022-02-17T14:38:39.873Z,,,,,,,,,,,,,,,,,,,,,,,,,,,,true,FALSE,,2049.113000000012,,response,,,,100,E,,,,,,FALSE,click #choice-2,,,,silence,,,,,170172.39999997616,170170.5,168104.725,168119.89999997616,168121.387,170171.378,,,
Item 100,flow.Sequence,2_1_1,2022-02-17T14:38:39.874Z,,,,,,,,,,,,,,,,,,,,,,,,,,,,,,,39294.189,,completion,,,,,,,,,,,,,,,,,,,,,170172.89999997616,170170.5,130838.159,130854.10000002384,130876.311,170171.378,,,
End of Practice,html.Page,2_1_2,2022-02-17T14:38:42.674Z,,,,,,,,,,,,,,,,,,,,,,,,,,,,,,,2801.521999976161,,form submission,,,,,,,,,,,,,,,,,,,,,172973.5,172972.89999997616,170154.786,170173,170171.378,172988.102,,,
Practice,flow.Sequence,2_1,2022-02-17T14:38:42.675Z,,,,,,,,,,,,,,,,,,,,,,,,,,,,,,,85051.62299997616,,completion,,,,,,,,,,,,,,,,,,,,,172974,172972.89999997616,87904.565,87919.29999995232,87921.277,172988.102,,,
Trap_instruction,html.Page,2_2_0,2022-02-17T14:38:45.189Z,,,,,,,,,,,,,,,,,,,,,,,,,,,,,,,2499.4980000238284,,form submission,,,,,,,,,,,,,,,,,,,,,175488.29999995232,175487.60000002384,172971.432,172974.29999995232,172988.102,175505.599,,,
trap_trial,html.Screen,2_2_1,2022-02-17T14:38:47.946Z,,,,,,,,,,,,,,,,,,,,,,,,,,,,true,1,,2738.600999928487,,response,,,,,,,,,,,1,click #choice-1,,,,,,,,,178245.39999997616,178244.19999992847,175471.378,175488.79999995232,175505.599,178254.782,,,
end of trap trial,html.Page,2_2_2,2022-02-17T14:38:49.581Z,,,,,,,,,,,,,,,,,,,,,,,,,,,,,,,1624.2179999999935,,form submission,,,,,,,,,,,,,,,,,,,,,179879.60000002384,179879,178238.088,178245.60000002384,178254.782,179888.039,,,
Trap 1,flow.Sequence,2_2,2022-02-17T14:38:49.581Z,,,,,,,,,,,,,,,,,,,,,,,,,,,,,,,6890.8979999999865,,completion,,,,,,,,,,,,,,,,,,,,,179880.10000002384,179879,172971.432,172974.29999995232,172988.102,179888.039,,,
Standby,html.Page,2_3_0,2022-02-17T14:38:57.574Z,,,,,,,,,,,,,,,,,,,,,,,,,,,,,,,8000.015000000014,,timeout,,,,,,,,,,,,,,,,,,,,,187872.89999997616,187871.697,179871.688,179880.5,179888.039,187888.054,,,
Holding screen,html.Screen,2_3_1_0_0,2022-02-17T14:39:04.574Z,,,,,,,,,,,,,,,,,,,,,,,,,,,,,,,6999.973999999987,,timeout,,,,,,,,,,,,,,,,,,,,,194873.60000002384,194871.695,187871.697,187873.39999997616,187888.054,194888.028,,,
screen,html.Screen,2_3_1_0_1_0,2022-02-17T14:39:05.486Z,,,,,,,,,,,,,,,,,11,,,,,,,,,,,,,,896.5720000238507,,response,,,,4,E,,,,,,Space,keypress(Space),,,,lyrical,,,,Known -- ---- --- -- --- -------- ------------ ---------- --<br>- ------- ------ --------- -- ------------ -- --- ---- -----<br>------ ---- ---- ------ ------ ------- --- ----- ---------<br>---- --- -------- -------- --- --- -- ------- --- --- -----<br>-- --- ------ ------- --- --- -------- ---- --------- --<br>---------- -- -------- ----------------,195785.19999992847,195784.60000002384,194871.695,194874.10000002384,194888.028,195787.972,,0,Known
screen,html.Screen,2_3_1_0_1_1,2022-02-17T14:39:06.009Z,,,,,,,,,,,,,,,,,11,,,,,,,,,,,,,,518.628000023833,,response,,,,4,E,,,,,,Space,keypress(Space),,,,lyrical,,,,----- as ---- --- -- --- -------- ------------ ---------- --<br>- ------- ------ --------- -- ------------ -- --- ---- -----<br>------ ---- ---- ------ ------ ------- --- ----- ---------<br>---- --- -------- -------- --- --- -- ------- --- --- -----<br>-- --- ------ ------- --- --- -------- ---- --------- --<br>---------- -- -------- ----------------,196307.60000002384,196306.60000002384,195771.522,195785.5,195787.972,196321.476,,1,as
screen,html.Screen,2_3_1_0_1_2,2022-02-17T14:39:06.556Z,,,,,,,,,,,,,,,,,11,,,,,,,,,,,,,,532.5240000000049,,response,,,,4,E,,,,,,Space,keypress(Space),,,,lyrical,,,,----- -- Rapa --- -- --- -------- ------------ ---------- --<br>- ------- ------ --------- -- ------------ -- --- ---- -----<br>------ ---- ---- ------ ------ ------- --- ----- ---------<br>---- --- -------- -------- --- --- -- ------- --- --- -----<br>-- --- ------ ------- --- --- -------- ---- --------- --<br>---------- -- -------- ----------------,196855.19999992847,196854,196304.729,196307.89999997616,196321.476,196871.7,,2,Rapa
screen,html.Screen,2_3_1_0_1_3,2022-02-17T14:39:07.115Z,,,,,,,,,,,,,,,,,11,,,,,,,,,,,,,,541.4000000238302,,response,,,,4,E,,,,,,Space,keypress(Space),,,,lyrical,,,,----- -- ---- Nui -- --- -------- ------------ ---------- --<br>- ------- ------ --------- -- ------------ -- --- ---- -----<br>------ ---- ---- ------ ------ ------- --- ----- ---------<br>---- --- -------- -------- --- --- -- ------- --- --- -----<br>-- --- ------ ------- --- --- -------- ---- --------- --<br>---------- -- -------- ----------------,197414.39999997616,197413.10000002384,196854.794,196855.29999995232,196871.7,197421.357,,3,Nui
screen,html.Screen,2_3_1_0_1_4,2022-02-17T14:39:07.515Z,,,,,,,,,,,,,,,,,11,,,,,,,,,,,,,,391.64300000001094,,response,,,,4,E,,,,,,Space,keypress(Space),,,,lyrical,,,,----- -- ---- --- to --- -------- ------------ ---------- --<br>- ------- ------ --------- -- ------------ -- --- ---- -----<br>------ ---- ---- ------ ------ ------- --- ----- ---------<br>---- --- -------- -------- --- --- -- ------- --- --- -----<br>-- --- ------ ------- --- --- -------- ---- --------- --<br>---------- -- -------- ----------------,197814.29999995232,197813,197405.086,197416.10000002384,197421.357,197821.458,,4,to
screen,html.Screen,2_3_1_0_1_5,2022-02-17T14:39:07.808Z,,,,,,,,,,,,,,,,,11,,,,,,,,,,,,,,284.341999952303,,response,,,,4,E,,,,,,Space,keypress(Space),,,,lyrical,,,,----- -- ---- --- -- the -------- ------------ ---------- --<br>- ------- ------ --------- -- ------------ -- --- ---- -----<br>------ ---- ---- ------ ------ ------- --- ----- ---------<br>---- --- -------- -------- --- --- -- ------- --- --- -----<br>-- --- ------ ------- --- --- -------- ---- --------- --<br>---------- -- -------- ----------------,198106.79999995232,198105.79999995232,197804.795,197814.5,197821.458,198121.518,,5,the
screen,html.Screen,2_3_1_0_1_6,2022-02-17T14:39:08.077Z,,,,,,,,,,,,,,,,,11,,,,,,,,,,,,,,252.8819999761472,,response,,,,4,E,,,,,,Space,keypress(Space),,,,lyrical,,,,----- -- ---- --- -- --- island's ------------ ---------- --<br>- ------- ------ --------- -- ------------ -- --- ---- -----<br>------ ---- ---- ------ ------ ------- --- ----- ---------<br>---- --- -------- -------- --- --- -- ------- --- --- -----<br>-- --- ------ ------- --- --- -------- ---- --------- --<br>---------- -- -------- ----------------,198375.79999995232,198374.39999997616,198105.051,198107,198121.518,198388.397,,6,island's
screen,html.Screen,2_3_1_0_1_7,2022-02-17T14:39:08.626Z,,,,,,,,,,,,,,,,,11,,,,,,,,,,,,,,535.2030000238447,,response,,,,4,E,,,,,,Space,keypress(Space),,,,lyrical,,,,"----- -- ---- --- -- --- -------- inhabitants, ---------- --<br>- ------- ------ --------- -- ------------ -- --- ---- -----<br>------ ---- ---- ------ ------ ------- --- ----- ---------<br>---- --- -------- -------- --- --- -- ------- --- --- -----<br>-- --- ------ ------- --- --- -------- ---- --------- --<br>---------- -- -------- ----------------",198924.69999992847,198923.60000002384,198371.443,198376.10000002384,198388.397,198938.16,,7,"inhabitants,"
screen,html.Screen,2_3_1_0_1_8,2022-02-17T14:39:09.718Z,,,,,,,,,,,,,,,,,11,,,,,,,,,,,,,,1077.539999928471,,response,,,,4,E,,,,,,Space,keypress(Space),,,,lyrical,,,,----- -- ---- --- -- --- -------- ------------ Rongorongo --<br>- ------- ------ --------- -- ------------ -- --- ---- -----<br>------ ---- ---- ------ ------ ------- --- ----- ---------<br>---- --- -------- -------- --- --- -- ------- --- --- -----<br>-- --- ------ ------- --- --- -------- ---- --------- --<br>---------- -- -------- ----------------,200016.79999995232,200015.69999992847,198921.636,198925.10000002384,198938.16,200021.406,,8,Rongorongo
screen,html.Screen,2_3_1_0_1_9,2022-02-17T14:39:10.213Z,,,,,,,,,,,,,,,,,11,,,,,,,,,,,,,,489.39399995232816,,response,,,,4,E,,,,,,Space,keypress(Space),,,,lyrical,,,,----- -- ---- --- -- --- -------- ------------ ---------- is<br>- ------- ------ --------- -- ------------ -- --- ---- -----<br>------ ---- ---- ------ ------ ------- --- ----- ---------<br>---- --- -------- -------- --- --- -- ------- --- --- -----<br>-- --- ------ ------- --- --- -------- ---- --------- --<br>---------- -- -------- ----------------,200511.79999995232,200510.79999995232,200004.926,200017,200021.406,200521.468,,9,is
screen,html.Screen,2_3_1_0_1_10,2022-02-17T14:39:10.557Z,,,,,,,,,,,,,,,,,11,,,,,,,,,,,,,,333.5320000000065,,response,,,,4,E,,,,,,Space,keypress(Space),,,,lyrical,,,,----- -- ---- --- -- --- -------- ------------ ---------- --<br>a ------- ------ --------- -- ------------ -- --- ---- -----<br>------ ---- ---- ------ ------ ------- --- ----- ---------<br>---- --- -------- -------- --- --- -- ------- --- --- -----<br>-- --- ------ ------- --- --- -------- ---- --------- --<br>---------- -- -------- ----------------,200856.19999992847,200855,200504.798,200512.10000002384,200521.468,200871.735,,10,a
screen,html.Screen,2_3_1_0_1_11,2022-02-17T14:39:10.893Z,,,,,,,,,,,,,,,,,11,,,,,,,,,,,,,,318.76500000001397,,response,,,,4,E,,,,,,Space,keypress(Space),,,,lyrical,,,,----- -- ---- --- -- --- -------- ------------ ---------- --<br>- writing ------ --------- -- ------------ -- --- ---- -----<br>------ ---- ---- ------ ------ ------- --- ----- ---------<br>---- --- -------- -------- --- --- -- ------- --- --- -----<br>-- --- ------ ------- --- --- -------- ---- --------- --<br>---------- -- -------- ----------------,201192,201190.5,200855.045,200856.5,200871.735,201204.772,,11,writing
screen,html.Screen,2_3_1_0_1_12,2022-02-17T14:39:11.566Z,,,,,,,,,,,,,,,,,11,,,,,,,,,,,,,,659.6279999761609,,response,,,,4,E,,,,,,Space,keypress(Space),,,,lyrical,,,,----- -- ---- --- -- --- -------- ------------ ---------- --<br>- ------- system --------- -- ------------ -- --- ---- -----<br>------ ---- ---- ------ ------ ------- --- ----- ---------<br>---- --- -------- -------- --- --- -- ------- --- --- -----<br>-- --- ------ ------- --- --- -------- ---- --------- --<br>---------- -- -------- ----------------,201865.10000002384,201864.39999997616,201188.427,201192.39999997616,201204.772,201871.576,,12,system
screen,html.Screen,2_3_1_0_1_13,2022-02-17T14:39:12.027Z,,,,,,,,,,,,,,,,,11,,,,,,,,,,,,,,453.3239999761572,,response,,,,4,E,,,,,,Space,keypress(Space),,,,lyrical,,,,----- -- ---- --- -- --- -------- ------------ ---------- --<br>- ------- ------ comprised -- ------------ -- --- ---- -----<br>------ ---- ---- ------ ------ ------- --- ----- ---------<br>---- --- -------- -------- --- --- -- ------- --- --- -----<br>-- --- ------ ------- --- --- -------- ---- --------- --<br>---------- -- -------- ----------------,202326.19999992847,202324.89999997616,201854.762,201865.19999992847,201871.576,202338.525,,13,comprised
screen,html.Screen,2_3_1_0_1_14,2022-02-17T14:39:12.422Z,,,,,,,,,,,,,,,,,11,,,,,,,,,,,,,,381.17499992848025,,response,,,,4,E,,,,,,Space,keypress(Space),,,,lyrical,,,,----- -- ---- --- -- --- -------- ------------ ---------- --<br>- ------- ------ --------- of ------------ -- --- ---- -----<br>------ ---- ---- ------ ------ ------- --- ----- ---------<br>---- --- -------- -------- --- --- -- ------- --- --- -----<br>-- --- ------ ------- --- --- -------- ---- --------- --<br>---------- -- -------- ----------------,202720.60000002384,202719.69999992847,202321.446,202326.5,202338.525,202738.155,,14,of
screen,html.Screen,2_3_1_0_1_15,2022-02-17T14:39:12.966Z,,,,,,,,,,,,,,,,,11,,,,,,,,,,,,,,526.1449999523174,,response,,,,4,E,,,,,,Space,keypress(Space),,,,lyrical,,,,----- -- ---- --- -- --- -------- ------------ ---------- --<br>- ------- ------ --------- -- pictographs. -- --- ---- -----<br>------ ---- ---- ------ ------ ------- --- ----- ---------<br>---- --- -------- -------- --- --- -- ------- --- --- -----<br>-- --- ------ ------- --- --- -------- ---- --------- --<br>---------- -- -------- ----------------,203265.29999995232,203264.29999995232,202721.484,202720.89999997616,202738.155,203271.391,,15,pictographs.
screen,html.Screen,2_3_1_0_1_16,2022-02-17T14:39:13.381Z,,,,,,,,,,,,,,,,,11,,,,,,,,,,,,,,407.5089999761549,,response,,,,4,E,,,,,,Space,keypress(Space),,,,lyrical,,,,----- -- ---- --- -- --- -------- ------------ ---------- --<br>- ------- ------ --------- -- ------------ It --- ---- -----<br>------ ---- ---- ------ ------ ------- --- ----- ---------<br>---- --- -------- -------- --- --- -- ------- --- --- -----<br>-- --- ------ ------- --- --- -------- ---- --------- --<br>---------- -- -------- ----------------,203680.19999992847,203678.89999997616,203254.716,203265.5,203271.391,203688.099,,16,It
screen,html.Screen,2_3_1_0_1_17,2022-02-17T14:39:13.711Z,,,,,,,,,,,,,,,,,11,,,,,,,,,,,,,,320.8009999761707,,response,,,,4,E,,,,,,Space,keypress(Space),,,,lyrical,,,,----- -- ---- --- -- --- -------- ------------ ---------- --<br>- ------- ------ --------- -- ------------ -- has ---- -----<br>------ ---- ---- ------ ------ ------- --- ----- ---------<br>---- --- -------- -------- --- --- -- ------- --- --- -----<br>-- --- ------ ------- --- --- -------- ---- --------- --<br>---------- -- -------- ----------------,204010,204008.89999997616,203671.596,203680.39999997616,203688.099,204021.692,,17,has
screen,html.Screen,2_3_1_0_1_18,2022-02-17T14:39:14.037Z,,,,,,,,,,,,,,,,,11,,,,,,,,,,,,,,312.90800002383185,,response,,,,4,E,,,,,,Space,keypress(Space),,,,lyrical,,,,----- -- ---- --- -- --- -------- ------------ ---------- --<br>- ------- ------ --------- -- ------------ -- --- been -----<br>------ ---- ---- ------ ------ ------- --- ----- ---------<br>---- --- -------- -------- --- --- -- ------- --- --- -----<br>-- --- ------ ------- --- --- -------- ---- --------- --<br>---------- -- -------- ----------------,204336,204334.60000002384,204004.774,204010.19999992847,204021.692,204368.338,,18,been
screen,html.Screen,2_3_1_0_1_19,2022-02-17T14:39:14.595Z,,,,,,,,,,,,,,,,,11,,,,,,,,,,,,,,524.6620000000112,,response,,,,4,E,,,,,,Space,keypress(Space),,,,lyrical,,,,----- -- ---- --- -- --- -------- ------------ ---------- --<br>- ------- ------ --------- -- ------------ -- --- ---- found<br>------ ---- ---- ------ ------ ------- --- ----- ---------<br>---- --- -------- -------- --- --- -- ------- --- --- -----<br>-- --- ------ ------- --- --- -------- ---- --------- --<br>---------- -- -------- ----------------,204894.19999992847,204893,204321.452,204336.29999995232,204368.338,204904.745,,19,found
screen,html.Screen,2_3_1_0_1_20,2022-02-17T14:39:14.975Z,,,,,,,,,,,,,,,,,11,,,,,,,,,,,,,,367.6549999761628,,response,,,,4,E,,,,,,Space,keypress(Space),,,,lyrical,,,,----- -- ---- --- -- --- -------- ------------ ---------- --<br>- ------- ------ --------- -- ------------ -- --- ---- -----<br>carved ---- ---- ------ ------ ------- --- ----- ---------<br>---- --- -------- -------- --- --- -- ------- --- --- -----<br>-- --- ------ ------- --- --- -------- ---- --------- --<br>---------- -- -------- ----------------,205273.69999992847,205272.39999997616,204888.357,204894.5,204904.745,205288.391,,20,carved
screen,html.Screen,2_3_1_0_1_21,2022-02-17T14:39:15.356Z,,,,,,,,,,,,,,,,,11,,,,,,,,,,,,,,365.7090000238386,,response,,,,4,E,,,,,,Space,keypress(Space),,,,lyrical,,,,----- -- ---- --- -- --- -------- ------------ ---------- --<br>- ------- ------ --------- -- ------------ -- --- ---- -----<br>------ into ---- ------ ------ ------- --- ----- ---------<br>---- --- -------- -------- --- --- -- ------- --- --- -----<br>-- --- ------ ------- --- --- -------- ---- --------- --<br>---------- -- -------- ----------------,205655.29999995232,205654.10000002384,205271.64,205274,205288.391,205671.539,,21,into
screen,html.Screen,2_3_1_0_1_22,2022-02-17T14:39:15.652Z,,,,,,,,,,,,,,,,,11,,,,,,,,,,,,,,278.3609999761684,,response,,,,4,E,,,,,,Space,keypress(Space),,,,lyrical,,,,----- -- ---- --- -- --- -------- ------------ ---------- --<br>- ------- ------ --------- -- ------------ -- --- ---- -----<br>------ ---- many ------ ------ ------- --- ----- ---------<br>---- --- -------- -------- --- --- -- ------- --- --- -----<br>-- --- ------ ------- --- --- -------- ---- --------- --<br>---------- -- -------- ----------------,205950.79999995232,205949.89999997616,205654.77,205655.60000002384,205671.539,205954.715,,22,many
screen,html.Screen,2_3_1_0_1_23,2022-02-17T14:39:16.224Z,,,,,,,,,,,,,,,,,11,,,,,,,,,,,,,,564.1849999761616,,response,,,,4,E,,,,,,Space,keypress(Space),,,,lyrical,,,,----- -- ---- --- -- --- -------- ------------ ---------- --<br>- ------- ------ --------- -- ------------ -- --- ---- -----<br>------ ---- ---- oblong ------ ------- --- ----- ---------<br>---- --- -------- -------- --- --- -- ------- --- --- -----<br>-- --- ------ ------- --- --- -------- ---- --------- --<br>---------- -- -------- ----------------,206523.29999995232,206518.89999997616,205938.42,205950.89999997616,205954.715,206538.42,,23,oblong
screen,html.Screen,2_3_1_0_1_24,2022-02-17T14:39:16.640Z,,,,,,,,,,,,,,,,,11,,,,,,,,,,,,,,399.7799999284616,,response,,,,4,E,,,,,,Space,keypress(Space),,,,lyrical,,,,----- -- ---- --- -- --- -------- ------------ ---------- --<br>- ------- ------ --------- -- ------------ -- --- ---- -----<br>------ ---- ---- ------ wooden ------- --- ----- ---------<br>---- --- -------- -------- --- --- -- ------- --- --- -----<br>-- --- ------ ------- --- --- -------- ---- --------- --<br>---------- -- -------- ----------------,206939.39999997616,206938.19999992847,206521.575,206523.5,206538.42,206954.841,,24,wooden
screen,html.Screen,2_3_1_0_1_25,2022-02-17T14:39:17.017Z,,,,,,,,,,,,,,,,,11,,,,,,,,,,,,,,359.85899992848863,,response,,,,4,E,,,,,,Space,keypress(Space),,,,lyrical,,,,----- -- ---- --- -- --- -------- ------------ ---------- --<br>- ------- ------ --------- -- ------------ -- --- ---- -----<br>------ ---- ---- ------ ------ tablets --- ----- ---------<br>---- --- -------- -------- --- --- -- ------- --- --- -----<br>-- --- ------ ------- --- --- -------- ---- --------- --<br>---------- -- -------- ----------------,207315.79999995232,207314.69999992847,206938.103,206939.69999992847,206954.841,207321.389,,25,tablets
screen,html.Screen,2_3_1_0_1_26,2022-02-17T14:39:17.518Z,,,,,,,,,,,,,,,,,11,,,,,,,,,,,,,,494.51099997616257,,response,,,,4,E,,,,,,Space,keypress(Space),,,,lyrical,,,,----- -- ---- --- -- --- -------- ------------ ---------- --<br>- ------- ------ --------- -- ------------ -- --- ---- -----<br>------ ---- ---- ------ ------ ------- and ----- ---------<br>---- --- -------- -------- --- --- -- ------- --- --- -----<br>-- --- ------ ------- --- --- -------- ---- --------- --<br>---------- -- -------- ----------------,207816.89999997616,207815.89999997616,207304.973,207316,207321.389,207821.461,,26,and
screen,html.Screen,2_3_1_0_1_27,2022-02-17T14:39:17.919Z,,,,,,,,,,,,,,,,,11,,,,,,,,,,,,,,395.83899995230604,,response,,,,4,E,,,,,,Space,keypress(Space),,,,lyrical,,,,----- -- ---- --- -- --- -------- ------------ ---------- --<br>- ------- ------ --------- -- ------------ -- --- ---- -----<br>------ ---- ---- ------ ------ ------- --- other ---------<br>---- --- -------- -------- --- --- -- ------- --- --- -----<br>-- --- ------ ------- --- --- -------- ---- --------- --<br>---------- -- -------- ----------------,208218.29999995232,208217.29999995232,207804.693,207817.19999992847,207821.461,208221.437,,27,other
screen,html.Screen,2_3_1_0_1_28,2022-02-17T14:39:18.432Z,,,,,,,,,,,,,,,,,11,,,,,,,,,,,,,,509.06299999999464,,response,,,,4,E,,,,,,Space,keypress(Space),,,,lyrical,,,,----- -- ---- --- -- --- -------- ------------ ---------- --<br>- ------- ------ --------- -- ------------ -- --- ---- -----<br>------ ---- ---- ------ ------ ------- --- ----- artifacts<br>---- --- -------- -------- --- --- -- ------- --- --- -----<br>-- --- ------ ------- --- --- -------- ---- --------- --<br>---------- -- -------- ----------------,208731.10000002384,208730.5,208205.019,208218.60000002384,208221.437,208738.136,,28,artifacts
screen,html.Screen,2_3_1_0_1_29,2022-02-17T14:39:18.932Z,,,,,,,,,,,,,,,,,11,,,,,,,,,,,,,,491.26399997615954,,response,,,,4,E,,,,,,Space,keypress(Space),,,,lyrical,,,,----- -- ---- --- -- --- -------- ------------ ---------- --<br>- ------- ------ --------- -- ------------ -- --- ---- -----<br>------ ---- ---- ------ ------ ------- --- ----- ---------<br>from --- -------- -------- --- --- -- ------- --- --- -----<br>-- --- ------ ------- --- --- -------- ---- --------- --<br>---------- -- -------- ----------------,209230.69999992847,209229.39999997616,208721.463,208731.29999995232,208738.136,209238.108,,29,from
screen,html.Screen,2_3_1_0_1_30,2022-02-17T14:39:19.360Z,,,,,,,,,,,,,,,,,11,,,,,,,,,,,,,,420.19199995230883,,response,,,,4,E,,,,,,Space,keypress(Space),,,,lyrical,,,,----- -- ---- --- -- --- -------- ------------ ---------- --<br>- ------- ------ --------- -- ------------ -- --- ---- -----<br>------ ---- ---- ------ ------ ------- --- ----- ---------<br>---- the -------- -------- --- --- -- ------- --- --- -----<br>-- --- ------ ------- --- --- -------- ---- --------- --<br>---------- -- -------- ----------------,209659.29999995232,209658.29999995232,209221.649,209231.10000002384,209238.108,209671.524,,30,the
screen,html.Screen,2_3_1_0_1_31,2022-02-17T14:39:20.288Z,,,,,,,,,,,,,,,,,11,,,,,,,,,,,,,,914.8759999761533,,response,,,,4,E,,,,,,Space,keypress(Space),,,,lyrical,,,,----- -- ---- --- -- --- -------- ------------ ---------- --<br>- ------- ------ --------- -- ------------ -- --- ---- -----<br>------ ---- ---- ------ ------ ------- --- ----- ---------<br>---- --- island's -------- --- --- -- ------- --- --- -----<br>-- --- ------ ------- --- --- -------- ---- --------- --<br>---------- -- -------- ----------------,210587.5,210586.39999997616,209654.93,209659.60000002384,209671.524,210604.763,,31,island's
screen,html.Screen,2_3_1_0_1_32,2022-02-17T14:39:20.692Z,,,,,,,,,,,,,,,,,11,,,,,,,,,,,,,,384.93699992846814,,response,,,,4,E,,,,,,Space,keypress(Space),,,,lyrical,,,,----- -- ---- --- -- --- -------- ------------ ---------- --<br>- ------- ------ --------- -- ------------ -- --- ---- -----<br>------ ---- ---- ------ ------ ------- --- ----- ---------<br>---- --- -------- history. --- --- -- ------- --- --- -----<br>-- --- ------ ------- --- --- -------- ---- --------- --<br>---------- -- -------- ----------------,210990.79999995232,210989.69999992847,210588.102,210587.69999992847,210604.763,211004.883,,32,history.
screen,html.Screen,2_3_1_0_1_33,2022-02-17T14:39:21.204Z,,,,,,,,,,,,,,,,,11,,,,,,,,,,,,,,496.61699999999837,,response,,,,4,E,,,,,,Space,keypress(Space),,,,lyrical,,,,----- -- ---- --- -- --- -------- ------------ ---------- --<br>- ------- ------ --------- -- ------------ -- --- ---- -----<br>------ ---- ---- ------ ------ ------- --- ----- ---------<br>---- --- -------- -------- The --- -- ------- --- --- -----<br>-- --- ------ ------- --- --- -------- ---- --------- --<br>---------- -- -------- ----------------,211502.79999995232,211501.5,210988.3,210991,211004.883,211537.194,,33,The
screen,html.Screen,2_3_1_0_1_34,2022-02-17T14:39:21.662Z,,,,,,,,,,,,,,,,,11,,,,,,,,,,,,,,423.40600002385327,,response,,,,4,E,,,,,,Space,keypress(Space),,,,lyrical,,,,----- -- ---- --- -- --- -------- ------------ ---------- --<br>- ------- ------ --------- -- ------------ -- --- ---- -----<br>------ ---- ---- ------ ------ ------- --- ----- ---------<br>---- --- -------- -------- --- art -- ------- --- --- -----<br>-- --- ------ ------- --- --- -------- ---- --------- --<br>---------- -- -------- ----------------,211961.60000002384,211960.60000002384,211488.146,211503.10000002384,211537.194,211971.416,,34,art
screen,html.Screen,2_3_1_0_1_35,2022-02-17T14:39:22.187Z,,,,,,,,,,,,,,,,,11,,,,,,,,,,,,,,513.3839999523188,,response,,,,4,E,,,,,,Space,keypress(Space),,,,lyrical,,,,----- -- ---- --- -- --- -------- ------------ ---------- --<br>- ------- ------ --------- -- ------------ -- --- ---- -----<br>------ ---- ---- ------ ------ ------- --- ----- ---------<br>---- --- -------- -------- --- --- of ------- --- --- -----<br>-- --- ------ ------- --- --- -------- ---- --------- --<br>---------- -- -------- ----------------,212485.89999997616,212484.79999995232,211954.777,211961.79999995232,211971.416,212513.673,,35,of
screen,html.Screen,2_3_1_0_1_36,2022-02-17T14:39:22.726Z,,,,,,,,,,,,,,,,,11,,,,,,,,,,,,,,510.22699997614836,,response,,,,4,E,,,,,,Space,keypress(Space),,,,lyrical,,,,----- -- ---- --- -- --- -------- ------------ ---------- --<br>- ------- ------ --------- -- ------------ -- --- ---- -----<br>------ ---- ---- ------ ------ ------- --- ----- ---------<br>---- --- -------- -------- --- --- -- writing --- --- -----<br>-- --- ------ ------- --- --- -------- ---- --------- --<br>---------- -- -------- ----------------,213025.10000002384,213023.89999997616,212471.726,212486.19999992847,212513.673,213038.382,,36,writing
screen,html.Screen,2_3_1_0_1_37,2022-02-17T14:39:23.076Z,,,,,,,,,,,,,,,,,11,,,,,,,,,,,,,,335.7180000238295,,response,,,,4,E,,,,,,Space,keypress(Space),,,,lyrical,,,,----- -- ---- --- -- --- -------- ------------ ---------- --<br>- ------- ------ --------- -- ------------ -- --- ---- -----<br>------ ---- ---- ------ ------ ------- --- ----- ---------<br>---- --- -------- -------- --- --- -- ------- was --- -----<br>-- --- ------ ------- --- --- -------- ---- --------- --<br>---------- -- -------- ----------------,213375.10000002384,213374.10000002384,213021.673,213025.39999997616,213038.382,213388.142,,37,was
screen,html.Screen,2_3_1_0_1_38,2022-02-17T14:39:23.747Z,,,,,,,,,,,,,,,,,11,,,,,,,,,,,,,,657.4580000238493,,response,,,,4,E,,,,,,Space,keypress(Space),,,,lyrical,,,,----- -- ---- --- -- --- -------- ------------ ---------- --<br>- ------- ------ --------- -- ------------ -- --- ---- -----<br>------ ---- ---- ------ ------ ------- --- ----- ---------<br>---- --- -------- -------- --- --- -- ------- --- not -----<br>-- --- ------ ------- --- --- -------- ---- --------- --<br>---------- -- -------- ----------------,214046.10000002384,214045.60000002384,213371.523,213375.29999995232,213388.142,214054.701,,38,not
screen,html.Screen,2_3_1_0_1_39,2022-02-17T14:39:24.349Z,,,,,,,,,,,,,,,,,11,,,,,,,,,,,,,,592.3990000238409,,response,,,,4,E,,,,,,Space,keypress(Space),,,,lyrical,,,,----- -- ---- --- -- --- -------- ------------ ---------- --<br>- ------- ------ --------- -- ------------ -- --- ---- -----<br>------ ---- ---- ------ ------ ------- --- ----- ---------<br>---- --- -------- -------- --- --- -- ------- --- --- known<br>-- --- ------ ------- --- --- -------- ---- --------- --<br>---------- -- -------- ----------------,214648.10000002384,214647.10000002384,214038.058,214046.19999992847,214054.701,214654.751,,39,known
