sender,sender_type,sender_id,timestamp,meta,,Blues,Classical,Country,Dance,Electronic,Folk,Gospel,Hip-Hop,Jazz,Latin,Musical/Film,New-age,Pop,Prolific_id,Provo_ID,R&B,Rap,Reggae,Religious,Rock,Soul,Swing,Traditional,age,artist_name,correct,correctResponse,distraction,duration,education,ended_on,familiarity,gender,headphone_check_performance,item,list,music_frequency,offensiveness,pleasantness,position_correct,preference,response,response_action,snippet_file,song_name,song_rating,sound,stimulus_1,stimulus_2,stimulus_3,text,time_commit,time_end,time_render,time_run,time_show,time_switch,url,word,word_ID
Prolific ID,html.Form,0,2022-02-02T14:40:00.638Z,"{""labjs_version"":""20.2.2"",""labjs_build"":{""flavor"":""production"",""commit"":""a25486e0c714a0ae2ce03ff94b7bb6896854dcfa""},""location"":""https://run.pavlovia.org/mvasilev/prolific2_music_c/"",""userAgent"":""Mozilla/5.0 (Windows NT 10.0; Win64; x64; rv:95.0) Gecko/20100101 Firefox/95.0"",""platform"":""Win32"",""language"":""en-GB"",""locale"":""en-GB"",""timeZone"":""Europe/London"",""timezoneOffset"":0,""screen_width"":1536,""screen_height"":864,""scroll_width"":1536,""scroll_height"":691,""window_innerWidth"":1536,""window_innerHeight"":739,""devicePixelRatio"":1.25}",,,,,,,,,,,,,,,6007421356226920359b5f3e,,,,,,,,,,,,,,,20532.2,,form submission,,,,,,,,,,,,,,,,,,,,,33921,33920,13377.08,13377,13387.8,33923.2,{},,
Introduction,html.Screen,1_0,2022-02-02T14:40:16.190Z,,,,,,,,,,,,,,,,,,,,,,,,,,,,,,,15542.800000000003,,response,,,,,,,,,,,continue,click button,,,,,,,,,49474,49466,33912.34,33921,33923.2,49474.04,,,
Volume calibration,html.Screen,1_1,2022-02-02T14:40:29.205Z,,,,,,,,,,,,,,,,,,,,,,,,,,,,,,,13007.96,,response,,,,,,,,,,,continue,click button,,,,,,,,,62489,62482,49472.58,49474,49474.04,62491.4,,,
Task instructions,html.Screen,1_2,2022-02-02T14:40:29.878Z,,,,,,,,,,,,,,,,,,,,,,,,,,,,,,,661.5999999999985,,response,,,,,,,,,,,continue,click button,,,,,,,,,63162,63153,62488.1,62489,62491.4,63174.76,,,
Sounds,html.Screen,1_3_0_0,2022-02-02T14:40:34.128Z,,,,,,,,,,,,,,,,,,,,,,,,,,,,,,,4250.239999999998,,timeout,,,,,,,,,3,,,,,,,,O,I,S,,67411,67408.32,63160.84,63163,63174.76,67425,,,
Judgement,html.Screen,1_3_0_1,2022-02-02T14:40:35.510Z,,,,,,,,,,,,,,,,,,,,,,,,,,,,true,3,,1353,,response,,,,,,,,,3,,3,click #choice-3,,,,,O,I,S,,68794,68778,67408.32,67411,67425,68808.4,,,
Trial,flow.Sequence,1_3_0,2022-02-02T14:40:35.512Z,,,,,,,,,,,,,,,,,,,,,,,,,,,,,,,5603.239999999998,,completion,,,,,,,,,3,,,,,,,,O,I,S,,68795,68778,63160.84,63163,63174.76,68808.4,,,
Sounds,html.Screen,1_3_1_0,2022-02-02T14:40:39.761Z,,,,,,,,,,,,,,,,,,,,,,,,,,,,,,,4250.240000000005,,timeout,,,,,,,,,1,,,,,,,,S,I,O,,73045,73041.96,68792.68,68796,68808.4,73058.64,,,
Judgement,html.Screen,1_3_1_1,2022-02-02T14:40:40.375Z,,,,,,,,,,,,,,,,,,,,,,,,,,,,true,1,,579.3600000000006,,response,,,,,,,,,1,,1,click #choice-1,,,,,S,I,O,,73658,73638,73041.96,73046,73058.64,73658.66,,,
Trial,flow.Sequence,1_3_1,2022-02-02T14:40:40.375Z,,,,,,,,,,,,,,,,,,,,,,,,,,,,,,,4829.600000000006,,completion,,,,,,,,,1,,,,,,,,S,I,O,,73659,73638,68792.68,68796,68808.4,73658.66,,,
Sounds,html.Screen,1_3_2_0,2022-02-02T14:40:44.611Z,,,,,,,,,,,,,,,,,,,,,,,,,,,,,,,4250.239999999991,,timeout,,,,,,,,,1,,,,,,,,S,O,I,,77894,77892.22,73656.48,73659,73658.66,77908.9,,,
Judgement,html.Screen,1_3_2_1,2022-02-02T14:40:45.246Z,,,,,,,,,,,,,,,,,,,,,,,,,,,,true,1,,604.1000000000058,,response,,,,,,,,,1,,1,click #choice-1,,,,,S,O,I,,78529,78513,77892.22,77895,77908.9,78542.26,,,
Trial,flow.Sequence,1_3_2,2022-02-02T14:40:45.246Z,,,,,,,,,,,,,,,,,,,,,,,,,,,,,,,4854.3399999999965,,completion,,,,,,,,,1,,,,,,,,S,O,I,,78530,78513,73656.48,73659,73658.66,78542.26,,,
Sounds,html.Screen,1_3_3_0,2022-02-02T14:40:49.495Z,,,,,,,,,,,,,,,,,,,,,,,,,,,,,,,4250.240000000005,,timeout,,,,,,,,,2,,,,,,,,I,S,O,,82778,82775.82,78528.5,78530,78542.26,82792.5,,,
Judgement,html.Screen,1_3_3_1,2022-02-02T14:40:50.063Z,,,,,,,,,,,,,,,,,,,,,,,,,,,,true,2,,548.5,,response,,,,,,,,,2,,2,click #choice-2,,,,,I,S,O,,83346,83341,82775.82,82778,82792.5,83359.18,,,
Trial,flow.Sequence,1_3_3,2022-02-02T14:40:50.063Z,,,,,,,,,,,,,,,,,,,,,,,,,,,,,,,4798.740000000005,,completion,,,,,,,,,2,,,,,,,,I,S,O,,83346,83341,78528.5,78530,78542.26,83359.18,,,
Sounds,html.Screen,1_3_4_0,2022-02-02T14:40:54.312Z,,,,,,,,,,,,,,,,,,,,,,,,,,,,,,,4250.240000000005,,timeout,,,,,,,,,3,,,,,,,,I,O,S,,87594,87592.74,83344.98,83347,83359.18,87609.42,,,
Judgement,html.Screen,1_3_4_1,2022-02-02T14:40:55.278Z,,,,,,,,,,,,,,,,,,,,,,,,,,,,true,3,,934.5800000000017,,response,,,,,,,,,3,,3,click #choice-3,,,,,I,O,S,,88561,88544,87592.74,87595,87609.42,88576.14,,,
Trial,flow.Sequence,1_3_4,2022-02-02T14:40:55.279Z,,,,,,,,,,,,,,,,,,,,,,,,,,,,,,,5184.820000000007,,completion,,,,,,,,,3,,,,,,,,I,O,S,,88562,88544,83344.98,83347,83359.18,88576.14,,,
Sounds,html.Screen,1_3_5_0,2022-02-02T14:40:59.528Z,,,,,,,,,,,,,,,,,,,,,,,,,,,,,,,4250.220000000001,,timeout,,,,,,,,,2,,,,,,,,O,S,I,,92813,92809.7,88560.76,88562,88576.14,92826.36,,,
Judgement,html.Screen,1_3_5_1,2022-02-02T14:41:00.069Z,,,,,,,,,,,,,,,,,,,,,,,,,,,,true,2,,514.6399999999994,,response,,,,,,,,,2,,2,click #choice-2,,,,,O,S,I,,93353,93341,92809.7,92813,92826.36,93359.72,,,
Trial,flow.Sequence,1_3_5,2022-02-02T14:41:00.070Z,,,,,,,,,,,,,,,,,,,,,,,,,,,,,,,4764.860000000001,,completion,,,,,,,,,2,,,,,,,,O,S,I,,93353,93341,88560.76,88562,88576.14,93359.72,,,
Task,flow.Loop,1_3,2022-02-02T14:41:00.070Z,,,,,,,,,,,,,,,,,,,,,,,,,,,,,,,30166.239999999998,,completion,,,1,,,,,,,,,,,,,,,,,,93353,93341,63160.84,63163,63174.76,93359.72,,,
Trap,html.Screen,1_4,2022-02-02T14:41:00.073Z,,,,,,,,,,,,,,,,,,,,,,,,,,,,,,,NaN,,skipped,,,,,,,,,,,,,,,,,,,,,93356,93341,,93356,,93359.72,,,
Thanks,html.Screen,1_5,2022-02-02T14:41:04.639Z,,,,,,,,,,,,,,,,,,,,,,,,,,,,,,,4543.279999999999,,response,,,,,,,,,,,continue,click button,,,,,,,,,97922,97903,93352.14,93356,93359.72,105927.98,,,
Headphone screening,flow.Sequence,1,2022-02-02T14:41:04.639Z,,,,,,,,,,,,,,,,,,,,,,,,,,,,,,,63979.8,,completion,,,,,,,,,,,,,,,,,,,,,97922,97903,33912.34,33921,33923.2,105927.98,,,
Instructions,html.Page,2_0,2022-02-02T14:42:17.073Z,,,,,,,,,,,,,,,,,,,,,,,,,,,,,,,64428.020000000004,,form submission,,,,,,,,,,,,,,,,,,,,,170357,170356,105911.32,105896,105927.98,170365.14,,,
Holding screen,html.Screen,2_1_0_0,2022-02-02T14:42:27.067Z,,,,,,,,,,,,,,,,,,,,,,,,,,,,,,,10000.539999999979,,timeout,,,,,,,,,,,,,,,,,,,,,180350,180349,170353.6,170358,170365.14,180365.68,,,
screen,html.Screen,2_1_0_1_0,2022-02-02T14:42:28.177Z,,,,,,,,,,,,,,,,,53,,,,,,,,,,,,,,1084.320000000007,,response,,,,99,,,,,,,Space,keypress(Space),,,,,,,,When -- ----- -- ------ - ------- --- ----------<br>------------- ------ ------ ---- ---- ------- ----- -- ----<br>-------- ------- -- ---------- --- - --- ----- ----- ----<br>---- --- --- ----- --- ---- ---- ------- ----- ---- -------<br>--- --- -- ----- -- --- ---- -- --- ---- -- ------ ------<br>--- ----- -- ----,181460,181450,180349,180351,180365.68,181465.74,,0,When
screen,html.Screen,2_1_0_1_1,2022-02-02T14:42:28.711Z,,,,,,,,,,,,,,,,,53,,,,,,,,,,,,,,516.2600000000093,,response,,,,99,,,,,,,Space,keypress(Space),,,,,,,,---- it ----- -- ------ - ------- --- ----------<br>------------- ------ ------ ---- ---- ------- ----- -- ----<br>-------- ------- -- ---------- --- - --- ----- ----- ----<br>---- --- --- ----- --- ---- ---- ------- ----- ---- -------<br>--- --- -- ----- -- --- ---- -- --- ---- -- ------ ------<br>--- ----- -- ----,181993,181982,181460.36,181460,181465.74,181999.1,,1,it
screen,html.Screen,2_1_0_1_2,2022-02-02T14:42:29.168Z,,,,,,,,,,,,,,,,,53,,,,,,,,,,,,,,435.8999999999942,,response,,,,99,,,,,,,Space,keypress(Space),,,,,,,,---- -- comes -- ------ - ------- --- ----------<br>------------- ------ ------ ---- ---- ------- ----- -- ----<br>-------- ------- -- ---------- --- - --- ----- ----- ----<br>---- --- --- ----- --- ---- ---- ------- ----- ---- -------<br>--- --- -- ----- -- --- ---- -- --- ---- -- ------ ------<br>--- ----- -- ----,182451,182435,181994.2,181995,181999.1,182465.78,,2,comes
screen,html.Screen,2_1_0_1_3,2022-02-02T14:42:29.608Z,,,,,,,,,,,,,,,,,53,,,,,,,,,,,,,,406.22000000000116,,response,,,,99,,,,,,,Space,keypress(Space),,,,,,,,---- -- ----- to ------ - ------- --- ----------<br>------------- ------ ------ ---- ---- ------- ----- -- ----<br>-------- ------- -- ---------- --- - --- ----- ----- ----<br>---- --- --- ----- --- ---- ---- ------- ----- ---- -------<br>--- --- -- ----- -- --- ---- -- --- ---- -- ------ ------<br>--- ----- -- ----,182892,182872,182451.6,182452,182465.78,182899.14,,3,to
screen,html.Screen,2_1_0_1_4,2022-02-02T14:42:30.029Z,,,,,,,,,,,,,,,,,53,,,,,,,,,,,,,,410.85999999998603,,response,,,,99,,,,,,,Space,keypress(Space),,,,,,,,---- -- ----- -- having - ------- --- ----------<br>------------- ------ ------ ---- ---- ------- ----- -- ----<br>-------- ------- -- ---------- --- - --- ----- ----- ----<br>---- --- --- ----- --- ---- ---- ------- ----- ---- -------<br>--- --- -- ----- -- --- ---- -- --- ---- -- ------ ------<br>--- ----- -- ----,183312,183310,182891.78,182892,182899.14,183315.84,,4,having
screen,html.Screen,2_1_0_1_5,2022-02-02T14:42:30.441Z,,,,,,,,,,,,,,,,,53,,,,,,,,,,,,,,400.1600000000035,,response,,,,99,,,,,,,Space,keypress(Space),,,,,,,,---- -- ----- -- ------ a ------- --- ----------<br>------------- ------ ------ ---- ---- ------- ----- -- ----<br>-------- ------- -- ---------- --- - --- ----- ----- ----<br>---- --- --- ----- --- ---- ---- ------- ----- ---- -------<br>--- --- -- ----- -- --- ---- -- --- ---- -- ------ ------<br>--- ----- -- ----,183724,183716,183312.46,183312,183315.84,183732.52,,5,a
screen,html.Screen,2_1_0_1_6,2022-02-02T14:42:30.862Z,,,,,,,,,,,,,,,,,53,,,,,,,,,,,,,,405.4800000000105,,response,,,,99,,,,,,,Space,keypress(Space),,,,,,,,---- -- ----- -- ------ - lasting --- ----------<br>------------- ------ ------ ---- ---- ------- ----- -- ----<br>-------- ------- -- ---------- --- - --- ----- ----- ----<br>---- --- --- ----- --- ---- ---- ------- ----- ---- -------<br>--- --- -- ----- -- --- ---- -- --- ---- -- ------ ------<br>--- ----- -- ----,184145,184138,183724.34,183724,183732.52,184149.2,,6,lasting
screen,html.Screen,2_1_0_1_7,2022-02-02T14:42:31.242Z,,,,,,,,,,,,,,,,,53,,,,,,,,,,,,,,363.79999999998836,,response,,,,99,,,,,,,Space,keypress(Space),,,,,,,,---- -- ----- -- ------ - ------- and ----------<br>------------- ------ ------ ---- ---- ------- ----- -- ----<br>-------- ------- -- ---------- --- - --- ----- ----- ----<br>---- --- --- ----- --- ---- ---- ------- ----- ---- -------<br>--- --- -- ----- -- --- ---- -- --- ---- -- ------ ------<br>--- ----- -- ----,184525,184513,184145.5,184146,184149.2,184532.56,,7,and
screen,html.Screen,2_1_0_1_8,2022-02-02T14:42:31.778Z,,,,,,,,,,,,,,,,,53,,,,,,,,,,,,,,511.4400000000023,,response,,,,99,,,,,,,Space,keypress(Space),,,,,,,,---- -- ----- -- ------ - ------- --- fulfilling<br>------------- ------ ------ ---- ---- ------- ----- -- ----<br>-------- ------- -- ---------- --- - --- ----- ----- ----<br>---- --- --- ----- --- ---- ---- ------- ----- ---- -------<br>--- --- -- ----- -- --- ---- -- --- ---- -- ------ ------<br>--- ----- -- ----,185062,185044,184525.44,184525,184532.56,185065.92,,8,fulfilling
screen,html.Screen,2_1_0_1_9,2022-02-02T14:42:32.325Z,,,,,,,,,,,,,,,,,53,,,,,,,,,,,,,,525.0799999999872,,response,,,,99,,,,,,,Space,keypress(Space),,,,,,,,"---- -- ----- -- ------ - ------- --- ----------<br>relationship, ------ ------ ---- ---- ------- ----- -- ----<br>-------- ------- -- ---------- --- - --- ----- ----- ----<br>---- --- --- ----- --- ---- ---- ------- ----- ---- -------<br>--- --- -- ----- -- --- ---- -- --- ---- -- ------ ------<br>--- ----- -- ----",185607,185591,185061.3,185062,185065.92,185615.96,,9,"relationship,"
screen,html.Screen,2_1_0_1_10,2022-02-02T14:42:32.717Z,,,,,,,,,,,,,,,,,53,,,,,,,,,,,,,,366.04000000000815,,response,,,,99,,,,,,,Space,keypress(Space),,,,,,,,---- -- ----- -- ------ - ------- --- ----------<br>------------- common ------ ---- ---- ------- ----- -- ----<br>-------- ------- -- ---------- --- - --- ----- ----- ----<br>---- --- --- ----- --- ---- ---- ------- ----- ---- -------<br>--- --- -- ----- -- --- ---- -- --- ---- -- ------ ------<br>--- ----- -- ----,186000,185982,185608.22,185608,185615.96,186015.98,,10,common
screen,html.Screen,2_1_0_1_11,2022-02-02T14:42:33.170Z,,,,,,,,,,,,,,,,,53,,,,,,,,,,,,,,419.0199999999895,,response,,,,99,,,,,,,Space,keypress(Space),,,,,,,,---- -- ----- -- ------ - ------- --- ----------<br>------------- ------ wisdom ---- ---- ------- ----- -- ----<br>-------- ------- -- ---------- --- - --- ----- ----- ----<br>---- --- --- ----- --- ---- ---- ------- ----- ---- -------<br>--- --- -- ----- -- --- ---- -- --- ---- -- ------ ------<br>--- ----- -- ----,186453,186435,186000.66,186000,186015.98,186466,,11,wisdom
screen,html.Screen,2_1_0_1_12,2022-02-02T14:42:33.529Z,,,,,,,,,,,,,,,,,53,,,,,,,,,,,,,,328,,response,,,,99,,,,,,,Space,keypress(Space),,,,,,,,---- -- ----- -- ------ - ------- --- ----------<br>------------- ------ ------ says ---- ------- ----- -- ----<br>-------- ------- -- ---------- --- - --- ----- ----- ----<br>---- --- --- ----- --- ---- ---- ------- ----- ---- -------<br>--- --- -- ----- -- --- ---- -- --- ---- -- ------ ------<br>--- ----- -- ----,186812,186794,186452.9,186453,186466,186816.02,,12,says
screen,html.Screen,2_1_0_1_13,2022-02-02T14:42:33.941Z,,,,,,,,,,,,,,,,,53,,,,,,,,,,,,,,400.9800000000105,,response,,,,99,,,,,,,Space,keypress(Space),,,,,,,,---- -- ----- -- ------ - ------- --- ----------<br>------------- ------ ------ ---- that ------- ----- -- ----<br>-------- ------- -- ---------- --- - --- ----- ----- ----<br>---- --- --- ----- --- ---- ---- ------- ----- ---- -------<br>--- --- -- ----- -- --- ---- -- --- ---- -- ------ ------<br>--- ----- -- ----,187225,187217,186812.32,186812,186816.02,187232.7,,13,that
screen,html.Screen,2_1_0_1_14,2022-02-02T14:42:34.334Z,,,,,,,,,,,,,,,,,53,,,,,,,,,,,,,,375.29999999998836,,response,,,,99,,,,,,,Space,keypress(Space),,,,,,,,---- -- ----- -- ------ - ------- --- ----------<br>------------- ------ ------ ---- ---- feeling ----- -- ----<br>-------- ------- -- ---------- --- - --- ----- ----- ----<br>---- --- --- ----- --- ---- ---- ------- ----- ---- -------<br>--- --- -- ----- -- --- ---- -- --- ---- -- ------ ------<br>--- ----- -- ----,187617,187608,187224.96,187225,187232.7,187632.72,,14,feeling
screen,html.Screen,2_1_0_1_15,2022-02-02T14:42:34.741Z,,,,,,,,,,,,,,,,,53,,,,,,,,,,,,,,380.27999999999884,,response,,,,99,,,,,,,Space,keypress(Space),,,,,,,,---- -- ----- -- ------ - ------- --- ----------<br>------------- ------ ------ ---- ---- ------- close -- ----<br>-------- ------- -- ---------- --- - --- ----- ----- ----<br>---- --- --- ----- --- ---- ---- ------- ----- ---- -------<br>--- --- -- ----- -- --- ---- -- --- ---- -- ------ ------<br>--- ----- -- ----,188025,188013,187617.32,187618,187632.72,188032.76,,15,close
screen,html.Screen,2_1_0_1_16,2022-02-02T14:42:35.110Z,,,,,,,,,,,,,,,,,53,,,,,,,,,,,,,,339.2399999999907,,response,,,,99,,,,,,,Space,keypress(Space),,,,,,,,---- -- ----- -- ------ - ------- --- ----------<br>------------- ------ ------ ---- ---- ------- ----- to ----<br>-------- ------- -- ---------- --- - --- ----- ----- ----<br>---- --- --- ----- --- ---- ---- ------- ----- ---- -------<br>--- --- -- ----- -- --- ---- -- --- ---- -- ------ ------<br>--- ----- -- ----,188393,188372,188025.32,188025,188032.76,188399.44,,16,to
screen,html.Screen,2_1_0_1_17,2022-02-02T14:42:35.446Z,,,,,,,,,,,,,,,,,53,,,,,,,,,,,,,,316.5599999999977,,response,,,,99,,,,,,,Space,keypress(Space),,,,,,,,---- -- ----- -- ------ - ------- --- ----------<br>------------- ------ ------ ---- ---- ------- ----- -- your<br>-------- ------- -- ---------- --- - --- ----- ----- ----<br>---- --- --- ----- --- ---- ---- ------- ----- ---- -------<br>--- --- -- ----- -- --- ---- -- --- ---- -- ------ ------<br>--- ----- -- ----,188730,188716,188393.3,188393,188399.44,188732.78,,17,your
screen,html.Screen,2_1_0_1_18,2022-02-02T14:42:35.885Z,,,,,,,,,,,,,,,,,53,,,,,,,,,,,,,,420.22000000000116,,response,,,,99,,,,,,,Space,keypress(Space),,,,,,,,---- -- ----- -- ------ - ------- --- ----------<br>------------- ------ ------ ---- ---- ------- ----- -- ----<br>romantic ------- -- ---------- --- - --- ----- ----- ----<br>---- --- --- ----- --- ---- ---- ------- ----- ---- -------<br>--- --- -- ----- -- --- ---- -- --- ---- -- ------ ------<br>--- ----- -- ----,189168,189153,188730,188730,188732.78,189182.82,,18,romantic
screen,html.Screen,2_1_0_1_19,2022-02-02T14:42:36.217Z,,,,,,,,,,,,,,,,,53,,,,,,,,,,,,,,299.179999999993,,response,,,,99,,,,,,,Space,keypress(Space),,,,,,,,---- -- ----- -- ------ - ------- --- ----------<br>------------- ------ ------ ---- ---- ------- ----- -- ----<br>-------- partner -- ---------- --- - --- ----- ----- ----<br>---- --- --- ----- --- ---- ---- ------- ----- ---- -------<br>--- --- -- ----- -- --- ---- -- --- ---- -- ------ ------<br>--- ----- -- ----,189500,189482,189168.52,189168,189182.82,189516.16,,19,partner
screen,html.Screen,2_1_0_1_20,2022-02-02T14:42:36.601Z,,,,,,,,,,,,,,,,,53,,,,,,,,,,,,,,355.8399999999965,,response,,,,99,,,,,,,Space,keypress(Space),,,,,,,,---- -- ----- -- ------ - ------- --- ----------<br>------------- ------ ------ ---- ---- ------- ----- -- ----<br>-------- ------- is ---------- --- - --- ----- ----- ----<br>---- --- --- ----- --- ---- ---- ------- ----- ---- -------<br>--- --- -- ----- -- --- ---- -- --- ---- -- ------ ------<br>--- ----- -- ----,189883,189872,189500.54,189500,189516.16,189899.52,,20,is
screen,html.Screen,2_1_0_1_21,2022-02-02T14:42:36.999Z,,,,,,,,,,,,,,,,,53,,,,,,,,,,,,,,363.4800000000105,,response,,,,99,,,,,,,Space,keypress(Space),,,,,,,,---- -- ----- -- ------ - ------- --- ----------<br>------------- ------ ------ ---- ---- ------- ----- -- ----<br>-------- ------- -- paramount. --- - --- ----- ----- ----<br>---- --- --- ----- --- ---- ---- ------- ----- ---- -------<br>--- --- -- ----- -- --- ---- -- --- ---- -- ------ ------<br>--- ----- -- ----,190282,190263,189884.22,189884,189899.52,190282.88,,21,paramount.
screen,html.Screen,2_1_0_1_22,2022-02-02T14:42:37.411Z,,,,,,,,,,,,,,,,,53,,,,,,,,,,,,,,402.11999999999534,,response,,,,99,,,,,,,Space,keypress(Space),,,,,,,,---- -- ----- -- ------ - ------- --- ----------<br>------------- ------ ------ ---- ---- ------- ----- -- ----<br>-------- ------- -- ---------- But - --- ----- ----- ----<br>---- --- --- ----- --- ---- ---- ------- ----- ---- -------<br>--- --- -- ----- -- --- ---- -- --- ---- -- ------ ------<br>--- ----- -- ----,190695,190685,190282.46,190283,190282.88,190699.56,,22,But
screen,html.Screen,2_1_0_1_23,2022-02-02T14:42:37.793Z,,,,,,,,,,,,,,,,,53,,,,,,,,,,,,,,360.4400000000023,,response,,,,99,,,,,,,Space,keypress(Space),,,,,,,,---- -- ----- -- ------ - ------- --- ----------<br>------------- ------ ------ ---- ---- ------- ----- -- ----<br>-------- ------- -- ---------- --- a --- ----- ----- ----<br>---- --- --- ----- --- ---- ---- ------- ----- ---- -------<br>--- --- -- ----- -- --- ---- -- --- ---- -- ------ ------<br>--- ----- -- ----,191077,191060,190694.86,190695,190699.56,191082.92,,23,a
screen,html.Screen,2_1_0_1_24,2022-02-02T14:42:38.148Z,,,,,,,,,,,,,,,,,53,,,,,,,,,,,,,,336.0799999999872,,response,,,,99,,,,,,,Space,keypress(Space),,,,,,,,---- -- ----- -- ------ - ------- --- ----------<br>------------- ------ ------ ---- ---- ------- ----- -- ----<br>-------- ------- -- ---------- --- - new ----- ----- ----<br>---- --- --- ----- --- ---- ---- ------- ----- ---- -------<br>--- --- -- ----- -- --- ---- -- --- ---- -- ------ ------<br>--- ----- -- ----,191431,191419,191077.14,191077,191082.92,191432.94,,24,new
screen,html.Screen,2_1_0_1_25,2022-02-02T14:42:38.532Z,,,,,,,,,,,,,,,,,53,,,,,,,,,,,,,,361.0599999999977,,response,,,,99,,,,,,,Space,keypress(Space),,,,,,,,---- -- ----- -- ------ - ------- --- ----------<br>------------- ------ ------ ---- ---- ------- ----- -- ----<br>-------- ------- -- ---------- --- - --- study ----- ----<br>---- --- --- ----- --- ---- ---- ------- ----- ---- -------<br>--- --- -- ----- -- --- ---- -- --- ---- -- ------ ------<br>--- ----- -- ----,191815,191794,191431.9,191431,191432.94,191816.28,,25,study
screen,html.Screen,2_1_0_1_26,2022-02-02T14:42:38.856Z,,,,,,,,,,,,,,,,,53,,,,,,,,,,,,,,305.72000000000116,,response,,,,99,,,,,,,Space,keypress(Space),,,,,,,,---- -- ----- -- ------ - ------- --- ----------<br>------------- ------ ------ ---- ---- ------- ----- -- ----<br>-------- ------- -- ---------- --- - --- ----- finds ----<br>---- --- --- ----- --- ---- ---- ------- ----- ---- -------<br>--- --- -- ----- -- --- ---- -- --- ---- -- ------ ------<br>--- ----- -- ----,192140,192122,191815.16,191815,191816.28,192149.64,,26,finds
screen,html.Screen,2_1_0_1_27,2022-02-02T14:42:39.224Z,,,,,,,,,,,,,,,,,53,,,,,,,,,,,,,,347.35999999998603,,response,,,,99,,,,,,,Space,keypress(Space),,,,,,,,---- -- ----- -- ------ - ------- --- ----------<br>------------- ------ ------ ---- ---- ------- ----- -- ----<br>-------- ------- -- ---------- --- - --- ----- ----- that<br>---- --- --- ----- --- ---- ---- ------- ----- ---- -------<br>--- --- -- ----- -- --- ---- -- --- ---- -- ------ ------<br>--- ----- -- ----,192508,192497,192139.82,192140,192149.64,192516.32,,27,that
screen,html.Screen,2_1_0_1_28,2022-02-02T14:42:39.587Z,,,,,,,,,,,,,,,,,53,,,,,,,,,,,,,,340.679999999993,,response,,,,99,,,,,,,Space,keypress(Space),,,,,,,,---- -- ----- -- ------ - ------- --- ----------<br>------------- ------ ------ ---- ---- ------- ----- -- ----<br>-------- ------- -- ---------- --- - --- ----- ----- ----<br>it's --- --- ----- --- ---- ---- ------- ----- ---- -------<br>--- --- -- ----- -- --- ---- -- --- ---- -- ------ ------<br>--- ----- -- ----,192871,192857,192508.1,192508,192516.32,192883.02,,28,it's
screen,html.Screen,2_1_0_1_29,2022-02-02T14:42:39.915Z,,,,,,,,,,,,,,,,,53,,,,,,,,,,,,,,301.9800000000105,,response,,,,99,,,,,,,Space,keypress(Space),,,,,,,,---- -- ----- -- ------ - ------- --- ----------<br>------------- ------ ------ ---- ---- ------- ----- -- ----<br>-------- ------- -- ---------- --- - --- ----- ----- ----<br>---- not --- ----- --- ---- ---- ------- ----- ---- -------<br>--- --- -- ----- -- --- ---- -- --- ---- -- ------ ------<br>--- ----- -- ----,193199,193185,192870.86,192871,192883.02,193199.7,,29,not
screen,html.Screen,2_1_0_1_30,2022-02-02T14:42:40.264Z,,,,,,,,,,,,,,,,,53,,,,,,,,,,,,,,328.29999999998836,,response,,,,99,,,,,,,Space,keypress(Space),,,,,,,,---- -- ----- -- ------ - ------- --- ----------<br>------------- ------ ------ ---- ---- ------- ----- -- ----<br>-------- ------- -- ---------- --- - --- ----- ----- ----<br>---- --- how ----- --- ---- ---- ------- ----- ---- -------<br>--- --- -- ----- -- --- ---- -- --- ---- -- ------ ------<br>--- ----- -- ----,193548,193528,193198.78,193199,193199.7,193549.72,,30,how
screen,html.Screen,2_1_0_1_31,2022-02-02T14:42:40.637Z,,,,,,,,,,,,,,,,,53,,,,,,,,,,,,,,353.27999999999884,,response,,,,99,,,,,,,Space,keypress(Space),,,,,,,,---- -- ----- -- ------ - ------- --- ----------<br>------------- ------ ------ ---- ---- ------- ----- -- ----<br>-------- ------- -- ---------- --- - --- ----- ----- ----<br>---- --- --- close --- ---- ---- ------- ----- ---- -------<br>--- --- -- ----- -- --- ---- -- --- ---- -- ------ ------<br>--- ----- -- ----,193920,193903,193547.8,193548,193549.72,193933.06,,31,close
screen,html.Screen,2_1_0_1_32,2022-02-02T14:42:40.988Z,,,,,,,,,,,,,,,,,53,,,,,,,,,,,,,,330.9400000000023,,response,,,,99,,,,,,,Space,keypress(Space),,,,,,,,---- -- ----- -- ------ - ------- --- ----------<br>------------- ------ ------ ---- ---- ------- ----- -- ----<br>-------- ------- -- ---------- --- - --- ----- ----- ----<br>---- --- --- ----- you ---- ---- ------- ----- ---- -------<br>--- --- -- ----- -- --- ---- -- --- ---- -- ------ ------<br>--- ----- -- ----,194272,194264,193920.26,193920,193933.06,194283.08,,32,you
screen,html.Screen,2_1_0_1_33,2022-02-02T14:42:41.351Z,,,,,,,,,,,,,,,,,53,,,,,,,,,,,,,,338.9200000000128,,response,,,,99,,,,,,,Space,keypress(Space),,,,,,,,---- -- ----- -- ------ - ------- --- ----------<br>------------- ------ ------ ---- ---- ------- ----- -- ----<br>-------- ------- -- ---------- --- - --- ----- ----- ----<br>---- --- --- ----- --- feel ---- ------- ----- ---- -------<br>--- --- -- ----- -- --- ---- -- --- ---- -- ------ ------<br>--- ----- -- ----,194634,194622,194272.04,194272,194283.08,194649.78,,33,feel
screen,html.Screen,2_1_0_1_34,2022-02-02T14:42:41.688Z,,,,,,,,,,,,,,,,,53,,,,,,,,,,,,,,316.22000000000116,,response,,,,99,,,,,,,Space,keypress(Space),,,,,,,,---- -- ----- -- ------ - ------- --- ----------<br>------------- ------ ------ ---- ---- ------- ----- -- ----<br>-------- ------- -- ---------- --- - --- ----- ----- ----<br>---- --- --- ----- --- ---- that ------- ----- ---- -------<br>--- --- -- ----- -- --- ---- -- --- ---- -- ------ ------<br>--- ----- -- ----,194971,194966,194634.36,194635,194649.78,194983.12,,34,that
screen,html.Screen,2_1_0_1_35,2022-02-02T14:42:42.066Z,,,,,,,,,,,,,,,,,53,,,,,,,,,,,,,,357.88000000000466,,response,,,,99,,,,,,,Space,keypress(Space),,,,,,,,---- -- ----- -- ------ - ------- --- ----------<br>------------- ------ ------ ---- ---- ------- ----- -- ----<br>-------- ------- -- ---------- --- - --- ----- ----- ----<br>---- --- --- ----- --- ---- ---- matters ----- ---- -------<br>--- --- -- ----- -- --- ---- -- --- ---- -- ------ ------<br>--- ----- -- ----,195348,195341,194971.62,194972,194983.12,195349.82,,35,matters
screen,html.Screen,2_1_0_1_36,2022-02-02T14:42:42.420Z,,,,,,,,,,,,,,,,,53,,,,,,,,,,,,,,335.179999999993,,response,,,,99,,,,,,,Space,keypress(Space),,,,,,,,"---- -- ----- -- ------ - ------- --- ----------<br>------------- ------ ------ ---- ---- ------- ----- -- ----<br>-------- ------- -- ---------- --- - --- ----- ----- ----<br>---- --- --- ----- --- ---- ---- ------- most, ---- -------<br>--- --- -- ----- -- --- ---- -- --- ---- -- ------ ------<br>--- ----- -- ----",195704,195685,195348.9,195349,195349.82,195716.5,,36,"most,"
screen,html.Screen,2_1_0_1_37,2022-02-02T14:42:42.837Z,,,,,,,,,,,,,,,,,53,,,,,,,,,,,,,,390.5,,response,,,,99,,,,,,,Space,keypress(Space),,,,,,,,---- -- ----- -- ------ - ------- --- ----------<br>------------- ------ ------ ---- ---- ------- ----- -- ----<br>-------- ------- -- ---------- --- - --- ----- ----- ----<br>---- --- --- ----- --- ---- ---- ------- ----- it's -------<br>--- --- -- ----- -- --- ---- -- --- ---- -- ------ ------<br>--- ----- -- ----,196121,196107,195703.88,195704,195716.5,196133.18,,37,it's
screen,html.Screen,2_1_0_1_38,2022-02-02T14:42:43.252Z,,,,,,,,,,,,,,,,,53,,,,,,,,,,,,,,379.820000000007,,response,,,,99,,,,,,,Space,keypress(Space),,,,,,,,---- -- ----- -- ------ - ------- --- ----------<br>------------- ------ ------ ---- ---- ------- ----- -- ----<br>-------- ------- -- ---------- --- - --- ----- ----- ----<br>---- --- --- ----- --- ---- ---- ------- ----- ---- whether<br>--- --- -- ----- -- --- ---- -- --- ---- -- ------ ------<br>--- ----- -- ----,196535,196513,196120.32,196121,196133.18,196550.64,,38,whether
screen,html.Screen,2_1_0_1_39,2022-02-02T14:42:43.654Z,,,,,,,,,,,,,,,,,53,,,,,,,,,,,,,,368.35999999998603,,response,,,,99,,,,,,,Space,keypress(Space),,,,,,,,---- -- ----- -- ------ - ------- --- ----------<br>------------- ------ ------ ---- ---- ------- ----- -- ----<br>-------- ------- -- ---------- --- - --- ----- ----- ----<br>---- --- --- ----- --- ---- ---- ------- ----- ---- -------<br>you --- -- ----- -- --- ---- -- --- ---- -- ------ ------<br>--- ----- -- ----,196938,196919,196535.5,196536,196550.64,196950.68,,39,you
screen,html.Screen,2_1_0_1_40,2022-02-02T14:42:44.001Z,,,,,,,,,,,,,,,,,53,,,,,,,,,,,,,,312.320000000007,,response,,,,99,,,,,,,Space,keypress(Space),,,,,,,,---- -- ----- -- ------ - ------- --- ----------<br>------------- ------ ------ ---- ---- ------- ----- -- ----<br>-------- ------- -- ---------- --- - --- ----- ----- ----<br>---- --- --- ----- --- ---- ---- ------- ----- ---- -------<br>--- are -- ----- -- --- ---- -- --- ---- -- ------ ------<br>--- ----- -- ----,197284,197263,196938.44,196938,196950.68,197300.68,,40,are
screen,html.Screen,2_1_0_1_41,2022-02-02T14:42:44.338Z,,,,,,,,,,,,,,,,,53,,,,,,,,,,,,,,306.320000000007,,response,,,,99,,,,,,,Space,keypress(Space),,,,,,,,---- -- ----- -- ------ - ------- --- ----------<br>------------- ------ ------ ---- ---- ------- ----- -- ----<br>-------- ------- -- ---------- --- - --- ----- ----- ----<br>---- --- --- ----- --- ---- ---- ------- ----- ---- -------<br>--- --- as ----- -- --- ---- -- --- ---- -- ------ ------<br>--- ----- -- ----,197621,197607,197284.34,197284,197300.68,197634.04,,41,as
screen,html.Screen,2_1_0_1_42,2022-02-02T14:42:44.681Z,,,,,,,,,,,,,,,,,53,,,,,,,,,,,,,,315.95999999999185,,response,,,,99,,,,,,,Space,keypress(Space),,,,,,,,---- -- ----- -- ------ - ------- --- ----------<br>------------- ------ ------ ---- ---- ------- ----- -- ----<br>-------- ------- -- ---------- --- - --- ----- ----- ----<br>---- --- --- ----- --- ---- ---- ------- ----- ---- -------<br>--- --- -- close -- --- ---- -- --- ---- -- ------ ------<br>--- ----- -- ----,197964,197950,197621.44,197622,197634.04,197967.38,,42,close
screen,html.Screen,2_1_0_1_43,2022-02-02T14:42:45.080Z,,,,,,,,,,,,,,,,,53,,,,,,,,,,,,,,389.61999999999534,,response,,,,99,,,,,,,Space,keypress(Space),,,,,,,,---- -- ----- -- ------ - ------- --- ----------<br>------------- ------ ------ ---- ---- ------- ----- -- ----<br>-------- ------- -- ---------- --- - --- ----- ----- ----<br>---- --- --- ----- --- ---- ---- ------- ----- ---- -------<br>--- --- -- ----- as --- ---- -- --- ---- -- ------ ------<br>--- ----- -- ----,198363,198357,197964.34,197964,197967.38,198367.4,,43,as
screen,html.Screen,2_1_0_1_44,2022-02-02T14:42:45.427Z,,,,,,,,,,,,,,,,,53,,,,,,,,,,,,,,333.6000000000058,,response,,,,99,,,,,,,Space,keypress(Space),,,,,,,,---- -- ----- -- ------ - ------- --- ----------<br>------------- ------ ------ ---- ---- ------- ----- -- ----<br>-------- ------- -- ---------- --- - --- ----- ----- ----<br>---- --- --- ----- --- ---- ---- ------- ----- ---- -------<br>--- --- -- ----- -- you ---- -- --- ---- -- ------ ------<br>--- ----- -- ----,198711,198701,198362.84,198363,198367.4,198717.42,,44,you
screen,html.Screen,2_1_0_1_45,2022-02-02T14:42:45.790Z,,,,,,,,,,,,,,,,,53,,,,,,,,,,,,,,342.5799999999872,,response,,,,99,,,,,,,Space,keypress(Space),,,,,,,,---- -- ----- -- ------ - ------- --- ----------<br>------------- ------ ------ ---- ---- ------- ----- -- ----<br>-------- ------- -- ---------- --- - --- ----- ----- ----<br>---- --- --- ----- --- ---- ---- ------- ----- ---- -------<br>--- --- -- ----- -- --- want -- --- ---- -- ------ ------<br>--- ----- -- ----,199073,199060,198711.18,198711,198717.42,199084.1,,45,want
screen,html.Screen,2_1_0_1_46,2022-02-02T14:42:46.112Z,,,,,,,,,,,,,,,,,53,,,,,,,,,,,,,,288.8999999999942,,response,,,,99,,,,,,,Space,keypress(Space),,,,,,,,---- -- ----- -- ------ - ------- --- ----------<br>------------- ------ ------ ---- ---- ------- ----- -- ----<br>-------- ------- -- ---------- --- - --- ----- ----- ----<br>---- --- --- ----- --- ---- ---- ------- ----- ---- -------<br>--- --- -- ----- -- --- ---- to --- ---- -- ------ ------<br>--- ----- -- ----,199396,199373,199073.2,199073,199084.1,199400.8,,46,to
screen,html.Screen,2_1_0_1_47,2022-02-02T14:42:46.471Z,,,,,,,,,,,,,,,,,53,,,,,,,,,,,,,,346.20000000001164,,response,,,,99,,,,,,,Space,keypress(Space),,,,,,,,"---- -- ----- -- ------ - ------- --- ----------<br>------------- ------ ------ ---- ---- ------- ----- -- ----<br>-------- ------- -- ---------- --- - --- ----- ----- ----<br>---- --- --- ----- --- ---- ---- ------- ----- ---- -------<br>--- --- -- ----- -- --- ---- -- be, ---- -- ------ ------<br>--- ----- -- ----",199753,199747,199395.86,199396,199400.8,199767.48,,47,"be,"
screen,html.Screen,2_1_0_1_48,2022-02-02T14:42:46.887Z,,,,,,,,,,,,,,,,,53,,,,,,,,,,,,,,385.5199999999895,,response,,,,99,,,,,,,Space,keypress(Space),,,,,,,,---- -- ----- -- ------ - ------- --- ----------<br>------------- ------ ------ ---- ---- ------- ----- -- ----<br>-------- ------- -- ---------- --- - --- ----- ----- ----<br>---- --- --- ----- --- ---- ---- ------- ----- ---- -------<br>--- --- -- ----- -- --- ---- -- --- even -- ------ ------<br>--- ----- -- ----,200170,200153,199753.8,199754,199767.48,200184.16,,48,even
screen,html.Screen,2_1_0_1_49,2022-02-02T14:42:47.191Z,,,,,,,,,,,,,,,,,53,,,,,,,,,,,,,,281.8399999999965,,response,,,,99,,,,,,,Space,keypress(Space),,,,,,,,---- -- ----- -- ------ - ------- --- ----------<br>------------- ------ ------ ---- ---- ------- ----- -- ----<br>-------- ------- -- ---------- --- - --- ----- ----- ----<br>---- --- --- ----- --- ---- ---- ------- ----- ---- -------<br>--- --- -- ----- -- --- ---- -- --- ---- if ------ ------<br>--- ----- -- ----,200474,200466,200170.36,200170,200184.16,200484.18,,49,if
screen,html.Screen,2_1_0_1_50,2022-02-02T14:42:47.536Z,,,,,,,,,,,,,,,,,53,,,,,,,,,,,,,,326.820000000007,,response,,,,99,,,,,,,Space,keypress(Space),,,,,,,,---- -- ----- -- ------ - ------- --- ----------<br>------------- ------ ------ ---- ---- ------- ----- -- ----<br>-------- ------- -- ---------- --- - --- ----- ----- ----<br>---- --- --- ----- --- ---- ---- ------- ----- ---- -------<br>--- --- -- ----- -- --- ---- -- --- ---- -- that's ------<br>--- ----- -- ----,200819,200811,200474.82,200475,200484.18,200834.2,,50,that's
screen,html.Screen,2_1_0_1_51,2022-02-02T14:42:47.910Z,,,,,,,,,,,,,,,,,53,,,,,,,,,,,,,,350.79999999998836,,response,,,,99,,,,,,,Space,keypress(Space),,,,,,,,---- -- ----- -- ------ - ------- --- ----------<br>------------- ------ ------ ---- ---- ------- ----- -- ----<br>-------- ------- -- ---------- --- - --- ----- ----- ----<br>---- --- --- ----- --- ---- ---- ------- ----- ---- -------<br>--- --- -- ----- -- --- ---- -- --- ---- -- ------ really<br>--- ----- -- ----,201193,201185,200819.8,200820,200834.2,201200.88,,51,really
screen,html.Screen,2_1_0_1_52,2022-02-02T14:42:48.449Z,,,,,,,,,,,,,,,,,53,,,,,,,,,,,,,,515.1199999999953,,response,,,,99,,,,,,,Space,keypress(Space),,,,,,,,---- -- ----- -- ------ - ------- --- ----------<br>------------- ------ ------ ---- ---- ------- ----- -- ----<br>-------- ------- -- ---------- --- - --- ----- ----- ----<br>---- --- --- ----- --- ---- ---- ------- ----- ---- -------<br>--- --- -- ----- -- --- ---- -- --- ---- -- ------ ------<br>not ----- -- ----,201732,201716,201193.1,201193,201200.88,201734.26,,52,not
screen,html.Screen,2_1_0_1_53,2022-02-02T14:42:48.778Z,,,,,,,,,,,,,,,,,53,,,,,,,,,,,,,,309.7399999999907,,response,,,,99,,,,,,,Space,keypress(Space),,,,,,,,---- -- ----- -- ------ - ------- --- ----------<br>------------- ------ ------ ---- ---- ------- ----- -- ----<br>-------- ------- -- ---------- --- - --- ----- ----- ----<br>---- --- --- ----- --- ---- ---- ------- ----- ---- -------<br>--- --- -- ----- -- --- ---- -- --- ---- -- ------ ------<br>--- close -- ----,202061,202044,201732.02,201732,201734.26,202067.6,,53,close
screen,html.Screen,2_1_0_1_54,2022-02-02T14:42:49.060Z,,,,,,,,,,,,,,,,,53,,,,,,,,,,,,,,257.3999999999942,,response,,,,99,,,,,,,Space,keypress(Space),,,,,,,,---- -- ----- -- ------ - ------- --- ----------<br>------------- ------ ------ ---- ---- ------- ----- -- ----<br>-------- ------- -- ---------- --- - --- ----- ----- ----<br>---- --- --- ----- --- ---- ---- ------- ----- ---- -------<br>--- --- -- ----- -- --- ---- -- --- ---- -- ------ ------<br>--- ----- at ----,202343,202325,202061.38,202062,202067.6,202350.96,,54,at
screen,html.Screen,2_1_0_1_55,2022-02-02T14:42:49.458Z,,,,,,,,,,,,,,,,,53,,,,,,,,,,,,,,381.04000000000815,,response,,,,99,,,,,,,Space,keypress(Space),,,,,,,,---- -- ----- -- ------ - ------- --- ----------<br>------------- ------ ------ ---- ---- ------- ----- -- ----<br>-------- ------- -- ---------- --- - --- ----- ----- ----<br>---- --- --- ----- --- ---- ---- ------- ----- ---- -------<br>--- --- -- ----- -- --- ---- -- --- ---- -- ------ ------<br>--- ----- -- all.,202741,202732,202342.88,202343,202350.96,202750.98,,55,all.
Item 99,flow.Loop,2_1_0_1,2022-02-02T14:42:49.459Z,,,,,,,,,,,,,,,,,,,,,,,,,,,,,,,22366.320000000007,,completion,,,,,C,,,,,,,,,,,silence,,,,,202742,202732,180349,180351,180365.68,202750.98,,,
Question 1,html.Screen,2_1_0_2,2022-02-02T14:42:53.439Z,,,,,,,,,,,,,,,,,,,,,,,,,,,,true,FALSE,,3965.0199999999895,,response,,,,99,C,,,,,,FALSE,click #choice-2,,,,silence,,,,,206723,206716,202741.9,202742,202750.98,206734.52,,,
Question 2,html.Screen,2_1_0_3,2022-02-02T14:42:57.567Z,,,,,,,,,,,,,,,,,,,,,,,,,,,,true,TRUE,,4106.4800000000105,,response,,,,99,C,,,,,,TRUE,click #choice-1,,,,silence,,,,,210850,210841,206721.88,206723,206734.52,210851.4,,,
Item 99,flow.Sequence,2_1_0,2022-02-02T14:42:57.567Z,,,,,,,,,,,,,,,,,,,,,,,,,,,,,,,40475.859999999986,,completion,,,,,,,,,,,,,,,,,,,,,210851,210841,170353.6,170357,170365.14,210851.4,,,
Holding screen,html.Screen,2_1_1_0,2022-02-02T14:43:07.553Z,,,,,,,,,,,,,,,,,,,,,,,,,,,,,,,10000.540000000008,,timeout,,,,,,,,,,,,,,,,,,,,,220836,220835.28,210849.62,210851,210851.4,220851.94,,,
screen,html.Screen,2_1_1_1_0,2022-02-02T14:43:08.278Z,,,,,,,,,,,,,,,,,54,,,,,,,,,,,,,,692.0599999999977,,response,,,,100,,,,,,,Space,keypress(Space),,,,,,,,At --- ---- --- ------ ----- ------- ---- -- --- ------- --<br>------- ---------- ------ -- ----- -- ----- -- ---- ------<br>--- ----- --- --- ------ -------- ----- --- ------ ----- --<br>----- ----- ---------- --- --- ------ ------ ---- -- ------<br>------- --- ------ ----- --- ---- ------- -- ---- --- --<br>------- ------,221561,221544,220835.28,220837,220851.94,221568.66,,0,At
screen,html.Screen,2_1_1_1_1,2022-02-02T14:43:08.640Z,,,,,,,,,,,,,,,,,54,,,,,,,,,,,,,,334.3399999999965,,response,,,,100,,,,,,,Space,keypress(Space),,,,,,,,-- the ---- --- ------ ----- ------- ---- -- --- ------- --<br>------- ---------- ------ -- ----- -- ----- -- ---- ------<br>--- ----- --- --- ------ -------- ----- --- ------ ----- --<br>----- ----- ---------- --- --- ------ ------ ---- -- ------<br>------- --- ------ ----- --- ---- ------- -- ---- --- --<br>------- ------,221923,221903,221561.48,221561,221568.66,221935.34,,1,the
screen,html.Screen,2_1_1_1_2,2022-02-02T14:43:09.013Z,,,,,,,,,,,,,,,,,54,,,,,,,,,,,,,,342.6600000000035,,response,,,,100,,,,,,,Space,keypress(Space),,,,,,,,-- --- time --- ------ ----- ------- ---- -- --- ------- --<br>------- ---------- ------ -- ----- -- ----- -- ---- ------<br>--- ----- --- --- ------ -------- ----- --- ------ ----- --<br>----- ----- ---------- --- --- ------ ------ ---- -- ------<br>------- --- ------ ----- --- ---- ------- -- ---- --- --<br>------- ------,222296,222278,221923.28,221923,221935.34,222302.02,,2,time
screen,html.Screen,2_1_1_1_3,2022-02-02T14:43:09.457Z,,,,,,,,,,,,,,,,,54,,,,,,,,,,,,,,430.9800000000105,,response,,,,100,,,,,,,Space,keypress(Space),,,,,,,,-- --- ---- the ------ ----- ------- ---- -- --- ------- --<br>------- ---------- ------ -- ----- -- ----- -- ---- ------<br>--- ----- --- --- ------ -------- ----- --- ------ ----- --<br>----- ----- ---------- --- --- ------ ------ ---- -- ------<br>------- --- ------ ----- --- ---- ------- -- ---- --- --<br>------- ------,222741,222733,222296.16,222296,222302.02,222752.04,,3,the
screen,html.Screen,2_1_1_1_4,2022-02-02T14:43:09.851Z,,,,,,,,,,,,,,,,,54,,,,,,,,,,,,,,369.95999999999185,,response,,,,100,,,,,,,Space,keypress(Space),,,,,,,,-- --- ---- --- French ----- ------- ---- -- --- ------- --<br>------- ---------- ------ -- ----- -- ----- -- ---- ------<br>--- ----- --- --- ------ -------- ----- --- ------ ----- --<br>----- ----- ---------- --- --- ------ ------ ---- -- ------<br>------- --- ------ ----- --- ---- ------- -- ---- --- --<br>------- ------,223134,223122,222741,222741,222752.04,223135.4,,4,French
screen,html.Screen,2_1_1_1_5,2022-02-02T14:43:10.245Z,,,,,,,,,,,,,,,,,54,,,,,,,,,,,,,,377.6000000000058,,response,,,,100,,,,,,,Space,keypress(Space),,,,,,,,-- --- ---- --- ------ crown ------- ---- -- --- ------- --<br>------- ---------- ------ -- ----- -- ----- -- ---- ------<br>--- ----- --- --- ------ -------- ----- --- ------ ----- --<br>----- ----- ---------- --- --- ------ ------ ---- -- ------<br>------- --- ------ ----- --- ---- ------- -- ---- --- --<br>------- ------,223529,223513,223134.26,223134,223135.4,223535.42,,5,crown
screen,html.Screen,2_1_1_1_6,2022-02-02T14:43:10.725Z,,,,,,,,,,,,,,,,,54,,,,,,,,,,,,,,461.5799999999872,,response,,,,100,,,,,,,Space,keypress(Space),,,,,,,,-- --- ---- --- ------ ----- secured ---- -- --- ------- --<br>------- ---------- ------ -- ----- -- ----- -- ---- ------<br>--- ----- --- --- ------ -------- ----- --- ------ ----- --<br>----- ----- ---------- --- --- ------ ------ ---- -- ------<br>------- --- ------ ----- --- ---- ------- -- ---- --- --<br>------- ------,224008,223997,223529.12,223529,223535.42,224018.78,,6,secured
screen,html.Screen,2_1_1_1_7,2022-02-02T14:43:11.138Z,,,,,,,,,,,,,,,,,54,,,,,,,,,,,,,,385.22000000000116,,response,,,,100,,,,,,,Space,keypress(Space),,,,,,,,-- --- ---- --- ------ ----- ------- much -- --- ------- --<br>------- ---------- ------ -- ----- -- ----- -- ---- ------<br>--- ----- --- --- ------ -------- ----- --- ------ ----- --<br>----- ----- ---------- --- --- ------ ------ ---- -- ------<br>------- --- ------ ----- --- ---- ------- -- ---- --- --<br>------- ------,224421,224404,224008.5,224009,224018.78,224435.48,,7,much
screen,html.Screen,2_1_1_1_8,2022-02-02T14:43:11.597Z,,,,,,,,,,,,,,,,,54,,,,,,,,,,,,,,436.5199999999895,,response,,,,100,,,,,,,Space,keypress(Space),,,,,,,,-- --- ---- --- ------ ----- ------- ---- of --- ------- --<br>------- ---------- ------ -- ----- -- ----- -- ---- ------<br>--- ----- --- --- ------ -------- ----- --- ------ ----- --<br>----- ----- ---------- --- --- ------ ------ ---- -- ------<br>------- --- ------ ----- --- ---- ------- -- ---- --- --<br>------- ------,224880,224872,224422.04,224422,224435.48,224885.5,,8,of
screen,html.Screen,2_1_1_1_9,2022-02-02T14:43:11.940Z,,,,,,,,,,,,,,,,,54,,,,,,,,,,,,,,330.5,,response,,,,100,,,,,,,Space,keypress(Space),,,,,,,,-- --- ---- --- ------ ----- ------- ---- -- its ------- --<br>------- ---------- ------ -- ----- -- ----- -- ---- ------<br>--- ----- --- --- ------ -------- ----- --- ------ ----- --<br>----- ----- ---------- --- --- ------ ------ ---- -- ------<br>------- --- ------ ----- --- ---- ------- -- ---- --- --<br>------- ------,225223,225216,224880.6,224881,224885.5,225235.52,,9,its
screen,html.Screen,2_1_1_1_10,2022-02-02T14:43:12.405Z,,,,,,,,,,,,,,,,,54,,,,,,,,,,,,,,434.4800000000105,,response,,,,100,,,,,,,Space,keypress(Space),,,,,,,,-- --- ---- --- ------ ----- ------- ---- -- --- revenue --<br>------- ---------- ------ -- ----- -- ----- -- ---- ------<br>--- ----- --- --- ------ -------- ----- --- ------ ----- --<br>----- ----- ---------- --- --- ------ ------ ---- -- ------<br>------- --- ------ ----- --- ---- ------- -- ---- --- --<br>------- ------,225689,225670,225222.92,225223,225235.52,225702.2,,10,revenue
screen,html.Screen,2_1_1_1_11,2022-02-02T14:43:12.767Z,,,,,,,,,,,,,,,,,54,,,,,,,,,,,,,,341.79999999998836,,response,,,,100,,,,,,,Space,keypress(Space),,,,,,,,-- --- ---- --- ------ ----- ------- ---- -- --- ------- by<br>------- ---------- ------ -- ----- -- ----- -- ---- ------<br>--- ----- --- --- ------ -------- ----- --- ------ ----- --<br>----- ----- ---------- --- --- ------ ------ ---- -- ------<br>------- --- ------ ----- --- ---- ------- -- ---- --- --<br>------- ------,226050,226044,225688.94,225689,225702.2,226052.22,,11,by
screen,html.Screen,2_1_1_1_12,2022-02-02T14:43:13.315Z,,,,,,,,,,,,,,,,,54,,,,,,,,,,,,,,538.7799999999988,,response,,,,100,,,,,,,Space,keypress(Space),,,,,,,,-- --- ---- --- ------ ----- ------- ---- -- --- ------- --<br>issuing ---------- ------ -- ----- -- ----- -- ---- ------<br>--- ----- --- --- ------ -------- ----- --- ------ ----- --<br>----- ----- ---------- --- --- ------ ------ ---- -- ------<br>------- --- ------ ----- --- ---- ------- -- ---- --- --<br>------- ------,226598,226591,226050.98,226051,226052.22,226602.26,,12,issuing
screen,html.Screen,2_1_1_1_13,2022-02-02T14:43:13.800Z,,,,,,,,,,,,,,,,,54,,,,,,,,,,,,,,472.7399999999907,,response,,,,100,,,,,,,Space,keypress(Space),,,,,,,,-- --- ---- --- ------ ----- ------- ---- -- --- ------- --<br>------- government ------ -- ----- -- ----- -- ---- ------<br>--- ----- --- --- ------ -------- ----- --- ------ ----- --<br>----- ----- ---------- --- --- ------ ------ ---- -- ------<br>------- --- ------ ----- --- ---- ------- -- ---- --- --<br>------- ------,227084,227075,226598.56,226598,226602.26,227085.62,,13,government
screen,html.Screen,2_1_1_1_14,2022-02-02T14:43:14.303Z,,,,,,,,,,,,,,,,,54,,,,,,,,,,,,,,489.38000000000466,,response,,,,100,,,,,,,Space,keypress(Space),,,,,,,,-- --- ---- --- ------ ----- ------- ---- -- --- ------- --<br>------- ---------- bonds. -- ----- -- ----- -- ---- ------<br>--- ----- --- --- ------ -------- ----- --- ------ ----- --<br>----- ----- ---------- --- --- ------ ------ ---- -- ------<br>------- --- ------ ----- --- ---- ------- -- ---- --- --<br>------- ------,227586,227575,227084.14,227084,227085.62,227602.32,,14,bonds.
screen,html.Screen,2_1_1_1_15,2022-02-02T14:43:14.682Z,,,,,,,,,,,,,,,,,54,,,,,,,,,,,,,,347.679999999993,,response,,,,100,,,,,,,Space,keypress(Space),,,,,,,,-- --- ---- --- ------ ----- ------- ---- -- --- ------- --<br>------- ---------- ------ In ----- -- ----- -- ---- ------<br>--- ----- --- --- ------ -------- ----- --- ------ ----- --<br>----- ----- ---------- --- --- ------ ------ ---- -- ------<br>------- --- ------ ----- --- ---- ------- -- ---- --- --<br>------- ------,227965,227950,227586.82,227586,227602.32,227969,,15,In
screen,html.Screen,2_1_1_1_16,2022-02-02T14:43:15.123Z,,,,,,,,,,,,,,,,,54,,,,,,,,,,,,,,434,,response,,,,100,,,,,,,Space,keypress(Space),,,,,,,,"-- --- ---- --- ------ ----- ------- ---- -- --- ------- --<br>------- ---------- ------ -- 1727, -- ----- -- ---- ------<br>--- ----- --- --- ------ -------- ----- --- ------ ----- --<br>----- ----- ---------- --- --- ------ ------ ---- -- ------<br>------- --- ------ ----- --- ---- ------- -- ---- --- --<br>------- ------",228408,228403,227965.32,227965,227969,228419.02,,16,"1727,"
screen,html.Screen,2_1_1_1_17,2022-02-02T14:43:15.673Z,,,,,,,,,,,,,,,,,54,,,,,,,,,,,,,,530.9800000000105,,response,,,,100,,,,,,,Space,keypress(Space),,,,,,,,-- --- ---- --- ------ ----- ------- ---- -- --- ------- --<br>------- ---------- ------ -- ----- in ----- -- ---- ------<br>--- ----- --- --- ------ -------- ----- --- ------ ----- --<br>----- ----- ---------- --- --- ------ ------ ---- -- ------<br>------- --- ------ ----- --- ---- ------- -- ---- --- --<br>------- ------,228957,228950,228407.62,228408,228419.02,228969.06,,17,in
screen,html.Screen,2_1_1_1_18,2022-02-02T14:43:16.147Z,,,,,,,,,,,,,,,,,54,,,,,,,,,,,,,,449.9400000000023,,response,,,,100,,,,,,,Space,keypress(Space),,,,,,,,-- --- ---- --- ------ ----- ------- ---- -- --- ------- --<br>------- ---------- ------ -- ----- -- order -- ---- ------<br>--- ----- --- --- ------ -------- ----- --- ------ ----- --<br>----- ----- ---------- --- --- ------ ------ ---- -- ------<br>------- --- ------ ----- --- ---- ------- -- ---- --- --<br>------- ------,229430,229419,228957.52,228958,228969.06,229435.74,,18,order
screen,html.Screen,2_1_1_1_19,2022-02-02T14:43:16.587Z,,,,,,,,,,,,,,,,,54,,,,,,,,,,,,,,421.2600000000093,,response,,,,100,,,,,,,Space,keypress(Space),,,,,,,,-- --- ---- --- ------ ----- ------- ---- -- --- ------- --<br>------- ---------- ------ -- ----- -- ----- to ---- ------<br>--- ----- --- --- ------ -------- ----- --- ------ ----- --<br>----- ----- ---------- --- --- ------ ------ ---- -- ------<br>------- --- ------ ----- --- ---- ------- -- ---- --- --<br>------- ------,229870,229857,229430.42,229430,229435.74,229885.76,,19,to
screen,html.Screen,2_1_1_1_20,2022-02-02T14:43:17.009Z,,,,,,,,,,,,,,,,,54,,,,,,,,,,,,,,392.2399999999907,,response,,,,100,,,,,,,Space,keypress(Space),,,,,,,,-- --- ---- --- ------ ----- ------- ---- -- --- ------- --<br>------- ---------- ------ -- ----- -- ----- -- save ------<br>--- ----- --- --- ------ -------- ----- --- ------ ----- --<br>----- ----- ---------- --- --- ------ ------ ---- -- ------<br>------- --- ------ ----- --- ---- ------- -- ---- --- --<br>------- ------,230293,230278,229870,229870,229885.76,230302.46,,20,save
screen,html.Screen,2_1_1_1_21,2022-02-02T14:43:17.341Z,,,,,,,,,,,,,,,,,54,,,,,,,,,,,,,,304.54000000000815,,response,,,,100,,,,,,,Space,keypress(Space),,,,,,,,"-- --- ---- --- ------ ----- ------- ---- -- --- ------- --<br>------- ---------- ------ -- ----- -- ----- -- ---- money,<br>--- ----- --- --- ------ -------- ----- --- ------ ----- --<br>----- ----- ---------- --- --- ------ ------ ---- -- ------<br>------- --- ------ ----- --- ---- ------- -- ---- --- --<br>------- ------",230624,230607,230293.04,230293,230302.46,230635.8,,21,"money,"
screen,html.Screen,2_1_1_1_22,2022-02-02T14:43:17.740Z,,,,,,,,,,,,,,,,,54,,,,,,,,,,,,,,377.20000000001164,,response,,,,100,,,,,,,Space,keypress(Space),,,,,,,,-- --- ---- --- ------ ----- ------- ---- -- --- ------- --<br>------- ---------- ------ -- ----- -- ----- -- ---- ------<br>the ----- --- --- ------ -------- ----- --- ------ ----- --<br>----- ----- ---------- --- --- ------ ------ ---- -- ------<br>------- --- ------ ----- --- ---- ------- -- ---- --- --<br>------- ------,231023,231013,230624.32,230625,230635.8,231035.82,,22,the
screen,html.Screen,2_1_1_1_23,2022-02-02T14:43:18.115Z,,,,,,,,,,,,,,,,,54,,,,,,,,,,,,,,352.179999999993,,response,,,,100,,,,,,,Space,keypress(Space),,,,,,,,-- --- ---- --- ------ ----- ------- ---- -- --- ------- --<br>------- ---------- ------ -- ----- -- ----- -- ---- ------<br>--- state --- --- ------ -------- ----- --- ------ ----- --<br>----- ----- ---------- --- --- ------ ------ ---- -- ------<br>------- --- ------ ----- --- ---- ------- -- ---- --- --<br>------- ------,231399,231388,231023.1,231023,231035.82,231402.52,,23,state
screen,html.Screen,2_1_1_1_24,2022-02-02T14:43:18.551Z,,,,,,,,,,,,,,,,,54,,,,,,,,,,,,,,422.4800000000105,,response,,,,100,,,,,,,Space,keypress(Space),,,,,,,,-- --- ---- --- ------ ----- ------- ---- -- --- ------- --<br>------- ---------- ------ -- ----- -- ----- -- ---- ------<br>--- ----- cut --- ------ -------- ----- --- ------ ----- --<br>----- ----- ---------- --- --- ------ ------ ---- -- ------<br>------- --- ------ ----- --- ---- ------- -- ---- --- --<br>------- ------,231834,231825,231398.82,231399,231402.52,231835.88,,24,cut
screen,html.Screen,2_1_1_1_25,2022-02-02T14:43:18.957Z,,,,,,,,,,,,,,,,,54,,,,,,,,,,,,,,396.11999999999534,,response,,,,100,,,,,,,Space,keypress(Space),,,,,,,,-- --- ---- --- ------ ----- ------- ---- -- --- ------- --<br>------- ---------- ------ -- ----- -- ----- -- ---- ------<br>--- ----- --- the ------ -------- ----- --- ------ ----- --<br>----- ----- ---------- --- --- ------ ------ ---- -- ------<br>------- --- ------ ----- --- ---- ------- -- ---- --- --<br>------- ------,232240,232232,231834.48,231834,231835.88,232252.56,,25,the
screen,html.Screen,2_1_1_1_26,2022-02-02T14:43:19.435Z,,,,,,,,,,,,,,,,,54,,,,,,,,,,,,,,447.4400000000023,,response,,,,100,,,,,,,Space,keypress(Space),,,,,,,,-- --- ---- --- ------ ----- ------- ---- -- --- ------- --<br>------- ---------- ------ -- ----- -- ----- -- ---- ------<br>--- ----- --- --- bonds' -------- ----- --- ------ ----- --<br>----- ----- ---------- --- --- ------ ------ ---- -- ------<br>------- --- ------ ----- --- ---- ------- -- ---- --- --<br>------- ------,232719,232700,232240.48,232241,232252.56,232719.26,,26,bonds'
screen,html.Screen,2_1_1_1_27,2022-02-02T14:43:19.895Z,,,,,,,,,,,,,,,,,54,,,,,,,,,,,,,,450.7399999999907,,response,,,,100,,,,,,,Space,keypress(Space),,,,,,,,-- --- ---- --- ------ ----- ------- ---- -- --- ------- --<br>------- ---------- ------ -- ----- -- ----- -- ---- ------<br>--- ----- --- --- ------ interest ----- --- ------ ----- --<br>----- ----- ---------- --- --- ------ ------ ---- -- ------<br>------- --- ------ ----- --- ---- ------- -- ---- --- --<br>------- ------,233179,233170,232718.88,232719,232719.26,233185.94,,27,interest
screen,html.Screen,2_1_1_1_28,2022-02-02T14:43:20.268Z,,,,,,,,,,,,,,,,,54,,,,,,,,,,,,,,358.0599999999977,,response,,,,100,,,,,,,Space,keypress(Space),,,,,,,,-- --- ---- --- ------ ----- ------- ---- -- --- ------- --<br>------- ---------- ------ -- ----- -- ----- -- ---- ------<br>--- ----- --- --- ------ -------- rate. --- ------ ----- --<br>----- ----- ---------- --- --- ------ ------ ---- -- ------<br>------- --- ------ ----- --- ---- ------- -- ---- --- --<br>------- ------,233551,233544,233179.4,233179,233185.94,233552.64,,28,rate.
screen,html.Screen,2_1_1_1_29,2022-02-02T14:43:20.720Z,,,,,,,,,,,,,,,,,54,,,,,,,,,,,,,,429.35999999998603,,response,,,,100,,,,,,,Space,keypress(Space),,,,,,,,-- --- ---- --- ------ ----- ------- ---- -- --- ------- --<br>------- ---------- ------ -- ----- -- ----- -- ---- ------<br>--- ----- --- --- ------ -------- ----- The ------ ----- --<br>----- ----- ---------- --- --- ------ ------ ---- -- ------<br>------- --- ------ ----- --- ---- ------- -- ---- --- --<br>------- ------,234004,233982,233551.36,233551,233552.64,234019.32,,29,The
screen,html.Screen,2_1_1_1_30,2022-02-02T14:43:21.204Z,,,,,,,,,,,,,,,,,54,,,,,,,,,,,,,,463.679999999993,,response,,,,100,,,,,,,Space,keypress(Space),,,,,,,,-- --- ---- --- ------ ----- ------- ---- -- --- ------- --<br>------- ---------- ------ -- ----- -- ----- -- ---- ------<br>--- ----- --- --- ------ -------- ----- --- market ----- --<br>----- ----- ---------- --- --- ------ ------ ---- -- ------<br>------- --- ------ ----- --- ---- ------- -- ---- --- --<br>------- ------,234487,234483,234004.22,234005,234019.32,234502.68,,30,market
screen,html.Screen,2_1_1_1_31,2022-02-02T14:43:21.548Z,,,,,,,,,,,,,,,,,54,,,,,,,,,,,,,,322.320000000007,,response,,,,100,,,,,,,Space,keypress(Space),,,,,,,,-- --- ---- --- ------ ----- ------- ---- -- --- ------- --<br>------- ---------- ------ -- ----- -- ----- -- ---- ------<br>--- ----- --- --- ------ -------- ----- --- ------ value --<br>----- ----- ---------- --- --- ------ ------ ---- -- ------<br>------- --- ------ ----- --- ---- ------- -- ---- --- --<br>------- ------,234832,234825,234487.66,234487,234502.68,234836.04,,31,value
screen,html.Screen,2_1_1_1_32,2022-02-02T14:43:21.914Z,,,,,,,,,,,,,,,,,54,,,,,,,,,,,,,,348.95999999999185,,response,,,,100,,,,,,,Space,keypress(Space),,,,,,,,-- --- ---- --- ------ ----- ------- ---- -- --- ------- --<br>------- ---------- ------ -- ----- -- ----- -- ---- ------<br>--- ----- --- --- ------ -------- ----- --- ------ ----- of<br>----- ----- ---------- --- --- ------ ------ ---- -- ------<br>------- --- ------ ----- --- ---- ------- -- ---- --- --<br>------- ------,235197,235185,234831.72,234832,234836.04,235202.72,,32,of
screen,html.Screen,2_1_1_1_33,2022-02-02T14:43:22.297Z,,,,,,,,,,,,,,,,,54,,,,,,,,,,,,,,372.27999999999884,,response,,,,100,,,,,,,Space,keypress(Space),,,,,,,,-- --- ---- --- ------ ----- ------- ---- -- --- ------- --<br>------- ---------- ------ -- ----- -- ----- -- ---- ------<br>--- ----- --- --- ------ -------- ----- --- ------ ----- --<br>these ----- ---------- --- --- ------ ------ ---- -- ------<br>------- --- ------ ----- --- ---- ------- -- ---- --- --<br>------- ------,235580,235575,235197.54,235198,235202.72,235586.08,,33,these
screen,html.Screen,2_1_1_1_34,2022-02-02T14:43:22.621Z,,,,,,,,,,,,,,,,,54,,,,,,,,,,,,,,301.9200000000128,,response,,,,100,,,,,,,Space,keypress(Space),,,,,,,,-- --- ---- --- ------ ----- ------- ---- -- --- ------- --<br>------- ---------- ------ -- ----- -- ----- -- ---- ------<br>--- ----- --- --- ------ -------- ----- --- ------ ----- --<br>----- bonds ---------- --- --- ------ ------ ---- -- ------<br>------- --- ------ ----- --- ---- ------- -- ---- --- --<br>------- ------,235905,235888,235580.66,235580,235586.08,235919.42,,34,bonds
screen,html.Screen,2_1_1_1_35,2022-02-02T14:43:23.200Z,,,,,,,,,,,,,,,,,54,,,,,,,,,,,,,,546.5799999999872,,response,,,,100,,,,,,,Space,keypress(Space),,,,,,,,"-- --- ---- --- ------ ----- ------- ---- -- --- ------- --<br>------- ---------- ------ -- ----- -- ----- -- ---- ------<br>--- ----- --- --- ------ -------- ----- --- ------ ----- --<br>----- ----- plummeted, --- --- ------ ------ ---- -- ------<br>------- --- ------ ----- --- ---- ------- -- ---- --- --<br>------- ------",236483,236466,235905.18,235905,235919.42,236486.12,,35,"plummeted,"
screen,html.Screen,2_1_1_1_36,2022-02-02T14:43:23.571Z,,,,,,,,,,,,,,,,,54,,,,,,,,,,,,,,354.88000000000466,,response,,,,100,,,,,,,Space,keypress(Space),,,,,,,,-- --- ---- --- ------ ----- ------- ---- -- --- ------- --<br>------- ---------- ------ -- ----- -- ----- -- ---- ------<br>--- ----- --- --- ------ -------- ----- --- ------ ----- --<br>----- ----- ---------- and --- ------ ------ ---- -- ------<br>------- --- ------ ----- --- ---- ------- -- ---- --- --<br>------- ------,236854,236841,236483.24,236483,236486.12,236869.48,,36,and
screen,html.Screen,2_1_1_1_37,2022-02-02T14:43:23.959Z,,,,,,,,,,,,,,,,,54,,,,,,,,,,,,,,362.5199999999895,,response,,,,100,,,,,,,Space,keypress(Space),,,,,,,,-- --- ---- --- ------ ----- ------- ---- -- --- ------- --<br>------- ---------- ------ -- ----- -- ----- -- ---- ------<br>--- ----- --- --- ------ -------- ----- --- ------ ----- --<br>----- ----- ---------- --- the ------ ------ ---- -- ------<br>------- --- ------ ----- --- ---- ------- -- ---- --- --<br>------- ------,237243,237232,236854.26,236855,236869.48,237252.84,,37,the
screen,html.Screen,2_1_1_1_38,2022-02-02T14:43:24.428Z,,,,,,,,,,,,,,,,,54,,,,,,,,,,,,,,447.1600000000035,,response,,,,100,,,,,,,Space,keypress(Space),,,,,,,,-- --- ---- --- ------ ----- ------- ---- -- --- ------- --<br>------- ---------- ------ -- ----- -- ----- -- ---- ------<br>--- ----- --- --- ------ -------- ----- --- ------ ----- --<br>----- ----- ---------- --- --- market ------ ---- -- ------<br>------- --- ------ ----- --- ---- ------- -- ---- --- --<br>------- ------,237711,237700,237243,237243,237252.84,237719.52,,38,market
screen,html.Screen,2_1_1_1_39,2022-02-02T14:43:24.861Z,,,,,,,,,,,,,,,,,54,,,,,,,,,,,,,,402.4800000000105,,response,,,,100,,,,,,,Space,keypress(Space),,,,,,,,-- --- ---- --- ------ ----- ------- ---- -- --- ------- --<br>------- ---------- ------ -- ----- -- ----- -- ---- ------<br>--- ----- --- --- ------ -------- ----- --- ------ ----- --<br>----- ----- ---------- --- --- ------ became ---- -- ------<br>------- --- ------ ----- --- ---- ------- -- ---- --- --<br>------- ------,238145,238122,237711.3,237711,237719.52,238152.88,,39,became
screen,html.Screen,2_1_1_1_40,2022-02-02T14:43:25.244Z,,,,,,,,,,,,,,,,,54,,,,,,,,,,,,,,360.11999999999534,,response,,,,100,,,,,,,Space,keypress(Space),,,,,,,,-- --- ---- --- ------ ----- ------- ---- -- --- ------- --<br>------- ---------- ------ -- ----- -- ----- -- ---- ------<br>--- ----- --- --- ------ -------- ----- --- ------ ----- --<br>----- ----- ---------- --- --- ------ ------ wary -- ------<br>------- --- ------ ----- --- ---- ------- -- ---- --- --<br>------- ------,238528,238513,238144.76,238145,238152.88,238536.24,,40,wary
screen,html.Screen,2_1_1_1_41,2022-02-02T14:43:25.612Z,,,,,,,,,,,,,,,,,54,,,,,,,,,,,,,,335.7600000000093,,response,,,,100,,,,,,,Space,keypress(Space),,,,,,,,-- --- ---- --- ------ ----- ------- ---- -- --- ------- --<br>------- ---------- ------ -- ----- -- ----- -- ---- ------<br>--- ----- --- --- ------ -------- ----- --- ------ ----- --<br>----- ----- ---------- --- --- ------ ------ ---- of ------<br>------- --- ------ ----- --- ---- ------- -- ---- --- --<br>------- ------,238895,238872,238528.44,238528,238536.24,238902.92,,41,of
screen,html.Screen,2_1_1_1_42,2022-02-02T14:43:26.003Z,,,,,,,,,,,,,,,,,54,,,,,,,,,,,,,,375.0799999999872,,response,,,,100,,,,,,,Space,keypress(Space),,,,,,,,-- --- ---- --- ------ ----- ------- ---- -- --- ------- --<br>------- ---------- ------ -- ----- -- ----- -- ---- ------<br>--- ----- --- --- ------ -------- ----- --- ------ ----- --<br>----- ----- ---------- --- --- ------ ------ ---- -- French<br>------- --- ------ ----- --- ---- ------- -- ---- --- --<br>------- ------,239286,239278,238895.5,238895,238902.92,239302.94,,42,French
screen,html.Screen,2_1_1_1_43,2022-02-02T14:43:26.448Z,,,,,,,,,,,,,,,,,54,,,,,,,,,,,,,,414.0599999999977,,response,,,,100,,,,,,,Space,keypress(Space),,,,,,,,-- --- ---- --- ------ ----- ------- ---- -- --- ------- --<br>------- ---------- ------ -- ----- -- ----- -- ---- ------<br>--- ----- --- --- ------ -------- ----- --- ------ ----- --<br>----- ----- ---------- --- --- ------ ------ ---- -- ------<br>credit. --- ------ ----- --- ---- ------- -- ---- --- --<br>------- ------,239731,239717,239286.52,239286,239302.94,239736.3,,43,credit.
screen,html.Screen,2_1_1_1_44,2022-02-02T14:43:26.927Z,,,,,,,,,,,,,,,,,54,,,,,,,,,,,,,,463.70000000001164,,response,,,,100,,,,,,,Space,keypress(Space),,,,,,,,-- --- ---- --- ------ ----- ------- ---- -- --- ------- --<br>------- ---------- ------ -- ----- -- ----- -- ---- ------<br>--- ----- --- --- ------ -------- ----- --- ------ ----- --<br>----- ----- ---------- --- --- ------ ------ ---- -- ------<br>------- The ------ ----- --- ---- ------- -- ---- --- --<br>------- ------,240210,240200,239730.8,239731,239736.3,240219.66,,44,The
screen,html.Screen,2_1_1_1_45,2022-02-02T14:43:27.382Z,,,,,,,,,,,,,,,,,54,,,,,,,,,,,,,,433.3399999999965,,response,,,,100,,,,,,,Space,keypress(Space),,,,,,,,-- --- ---- --- ------ ----- ------- ---- -- --- ------- --<br>------- ---------- ------ -- ----- -- ----- -- ---- ------<br>--- ----- --- --- ------ -------- ----- --- ------ ----- --<br>----- ----- ---------- --- --- ------ ------ ---- -- ------<br>------- --- French ----- --- ---- ------- -- ---- --- --<br>------- ------,240665,240653,240210.36,240210,240219.66,240669.68,,45,French
screen,html.Screen,2_1_1_1_46,2022-02-02T14:43:27.743Z,,,,,,,,,,,,,,,,,54,,,,,,,,,,,,,,344.320000000007,,response,,,,100,,,,,,,Space,keypress(Space),,,,,,,,-- --- ---- --- ------ ----- ------- ---- -- --- ------- --<br>------- ---------- ------ -- ----- -- ----- -- ---- ------<br>--- ----- --- --- ------ -------- ----- --- ------ ----- --<br>----- ----- ---------- --- --- ------ ------ ---- -- ------<br>------- --- ------ state --- ---- ------- -- ---- --- --<br>------- ------,241026,241014,240665.28,240665,240669.68,241036.36,,46,state
screen,html.Screen,2_1_1_1_47,2022-02-02T14:43:28.114Z,,,,,,,,,,,,,,,,,54,,,,,,,,,,,,,,335.64000000001397,,response,,,,100,,,,,,,Space,keypress(Space),,,,,,,,-- --- ---- --- ------ ----- ------- ---- -- --- ------- --<br>------- ---------- ------ -- ----- -- ----- -- ---- ------<br>--- ----- --- --- ------ -------- ----- --- ------ ----- --<br>----- ----- ---------- --- --- ------ ------ ---- -- ------<br>------- --- ------ ----- was ---- ------- -- ---- --- --<br>------- ------,241397,241372,241026.62,241027,241036.36,241403.06,,47,was
screen,html.Screen,2_1_1_1_48,2022-02-02T14:43:28.478Z,,,,,,,,,,,,,,,,,54,,,,,,,,,,,,,,343.9400000000023,,response,,,,100,,,,,,,Space,keypress(Space),,,,,,,,-- --- ---- --- ------ ----- ------- ---- -- --- ------- --<br>------- ---------- ------ -- ----- -- ----- -- ---- ------<br>--- ----- --- --- ------ -------- ----- --- ------ ----- --<br>----- ----- ---------- --- --- ------ ------ ---- -- ------<br>------- --- ------ ----- --- left ------- -- ---- --- --<br>------- ------,241761,241747,241397.26,241398,241403.06,241769.74,,48,left
screen,html.Screen,2_1_1_1_49,2022-02-02T14:43:28.850Z,,,,,,,,,,,,,,,,,54,,,,,,,,,,,,,,352.2600000000093,,response,,,,100,,,,,,,Space,keypress(Space),,,,,,,,-- --- ---- --- ------ ----- ------- ---- -- --- ------- --<br>------- ---------- ------ -- ----- -- ----- -- ---- ------<br>--- ----- --- --- ------ -------- ----- --- ------ ----- --<br>----- ----- ---------- --- --- ------ ------ ---- -- ------<br>------- --- ------ ----- --- ---- without -- ---- --- --<br>------- ------,242133,242122,241761.32,241762,241769.74,242136.42,,49,without
screen,html.Screen,2_1_1_1_50,2022-02-02T14:43:29.226Z,,,,,,,,,,,,,,,,,54,,,,,,,,,,,,,,360.5799999999872,,response,,,,100,,,,,,,Space,keypress(Space),,,,,,,,-- --- ---- --- ------ ----- ------- ---- -- --- ------- --<br>------- ---------- ------ -- ----- -- ----- -- ---- ------<br>--- ----- --- --- ------ -------- ----- --- ------ ----- --<br>----- ----- ---------- --- --- ------ ------ ---- -- ------<br>------- --- ------ ----- --- ---- ------- an ---- --- --<br>------- ------,242509,242497,242133.32,242133,242136.42,242519.78,,50,an
screen,html.Screen,2_1_1_1_51,2022-02-02T14:43:29.614Z,,,,,,,,,,,,,,,,,54,,,,,,,,,,,,,,369.22000000000116,,response,,,,100,,,,,,,Space,keypress(Space),,,,,,,,-- --- ---- --- ------ ----- ------- ---- -- --- ------- --<br>------- ---------- ------ -- ----- -- ----- -- ---- ------<br>--- ----- --- --- ------ -------- ----- --- ------ ----- --<br>----- ----- ---------- --- --- ------ ------ ---- -- ------<br>------- --- ------ ----- --- ---- ------- -- easy --- --<br>------- ------,242897,242889,242508.88,242509,242519.78,242903.14,,51,easy
screen,html.Screen,2_1_1_1_52,2022-02-02T14:43:29.934Z,,,,,,,,,,,,,,,,,54,,,,,,,,,,,,,,297.85999999998603,,response,,,,100,,,,,,,Space,keypress(Space),,,,,,,,-- --- ---- --- ------ ----- ------- ---- -- --- ------- --<br>------- ---------- ------ -- ----- -- ----- -- ---- ------<br>--- ----- --- --- ------ -------- ----- --- ------ ----- --<br>----- ----- ---------- --- --- ------ ------ ---- -- ------<br>------- --- ------ ----- --- ---- ------- -- ---- way --<br>------- ------,243217,243201,242897.76,242897,242903.14,243219.82,,52,way
screen,html.Screen,2_1_1_1_53,2022-02-02T14:43:30.318Z,,,,,,,,,,,,,,,,,54,,,,,,,,,,,,,,371.179999999993,,response,,,,100,,,,,,,Space,keypress(Space),,,,,,,,-- --- ---- --- ------ ----- ------- ---- -- --- ------- --<br>------- ---------- ------ -- ----- -- ----- -- ---- ------<br>--- ----- --- --- ------ -------- ----- --- ------ ----- --<br>----- ----- ---------- --- --- ------ ------ ---- -- ------<br>------- --- ------ ----- --- ---- ------- -- ---- --- of<br>------- ------,243601,243591,243217.8,243218,243219.82,243603.18,,53,of
screen,html.Screen,2_1_1_1_54,2022-02-02T14:43:30.721Z,,,,,,,,,,,,,,,,,54,,,,,,,,,,,,,,393.820000000007,,response,,,,100,,,,,,,Space,keypress(Space),,,,,,,,-- --- ---- --- ------ ----- ------- ---- -- --- ------- --<br>------- ---------- ------ -- ----- -- ----- -- ---- ------<br>--- ----- --- --- ------ -------- ----- --- ------ ----- --<br>----- ----- ---------- --- --- ------ ------ ---- -- ------<br>------- --- ------ ----- --- ---- ------- -- ---- --- --<br>raising ------,244004,243997,243602.02,243602,243603.18,244019.86,,54,raising
screen,html.Screen,2_1_1_1_55,2022-02-02T14:43:31.107Z,,,,,,,,,,,,,,,,,54,,,,,,,,,,,,,,352.14000000001397,,response,,,,100,,,,,,,Space,keypress(Space),,,,,,,,-- --- ---- --- ------ ----- ------- ---- -- --- ------- --<br>------- ---------- ------ -- ----- -- ----- -- ---- ------<br>--- ----- --- --- ------ -------- ----- --- ------ ----- --<br>----- ----- ---------- --- --- ------ ------ ---- -- ------<br>------- --- ------ ----- --- ---- ------- -- ---- --- --<br>------- money.,244391,244372,244004.42,244005,244019.86,244403.22,,55,money.
Item 100,flow.Loop,2_1_1_1,2022-02-02T14:43:31.108Z,,,,,,,,,,,,,,,,,,,,,,,,,,,,,,,23520.059999999998,,completion,,,,,C,,,,,,,,,,,silence,,,,,244391,244372,220835.28,220837,220851.94,244403.22,,,
Question 1,html.Screen,2_1_1_2,2022-02-02T14:43:34.255Z,,,,,,,,,,,,,,,,,,,,,,,,,,,,true,TRUE,,3124.779999999999,,response,,,,100,C,,,,,,TRUE,click #choice-1,,,,silence,,,,,247538,247528,244391.4,244392,244403.22,247553.38,,,
Question 2,html.Screen,2_1_1_3,2022-02-02T14:43:37.095Z,,,,,,,,,,,,,,,,,,,,,,,,,,,,true,FALSE,,2818.6199999999953,,response,,,,100,C,,,,,,FALSE,click #choice-2,,,,silence,,,,,250379,250372,247537.72,247538,247553.38,250386.88,,,
Item 100,flow.Sequence,2_1_1,2022-02-02T14:43:37.096Z,,,,,,,,,,,,,,,,,,,,,,,,,,,,,,,39520.600000000006,,completion,,,,,,,,,,,,,,,,,,,,,250379,250372,210849.62,210851,210851.4,250386.88,,,
End of Practice,html.Page,2_1_2,2022-02-02T14:43:45.385Z,,,,,,,,,,,,,,,,,,,,,,,,,,,,,,,8281.119999999995,,form submission,,,,,,,,,,,,,,,,,,,,,258668,258668,250377.76,250379,250386.88,258670.66,,,
Practice,flow.Sequence,2_1,2022-02-02T14:43:45.385Z,,,,,,,,,,,,,,,,,,,,,,,,,,,,,,,88302.85999999999,,completion,,,,,,,,,,,,,,,,,,,,,258668,258668,170353.6,170357,170365.14,258670.66,,,
Trap_instruction,html.Page,2_2_0,2022-02-02T14:43:50.456Z,,,,,,,,,,,,,,,,,,,,,,,,,,,,,,,5069.3399999999965,,form submission,,,,,,,,,,,,,,,,,,,,,263740,263740,258666,258669,258670.66,263754.26,,,
trap_trial,html.Screen,2_2_1,2022-02-02T14:43:54.152Z,,,,,,,,,,,,,,,,,,,,,,,,,,,,true,1,,3664.7399999999907,,response,,,,,,,,,,,1,click #choice-1,,,,,,,,,267436,267419,263738.04,263740,263754.26,267437.78,,,
end of trap trial,html.Page,2_2_2,2022-02-02T14:43:55.954Z,,,,,,,,,,,,,,,,,,,,,,,,,,,,,,,1799.219999999972,,form submission,,,,,,,,,,,,,,,,,,,,,269237,269237,267434.7,267436,267437.78,269237.88,,,
Trap 1,flow.Sequence,2_2,2022-02-02T14:43:55.954Z,,,,,,,,,,,,,,,,,,,,,,,,,,,,,,,10566.339999999997,,completion,,,,,,,,,,,,,,,,,,,,,269237,269237,258666,258669,258670.66,269237.88,,,
Standby,html.Page,2_3_0,2022-02-02T14:44:03.941Z,,,,,,,,,,,,,,,,,,,,,,,,,,,,,,,8000.440000000002,,timeout,,,,,,,,,,,,,,,,,,,,,277223,277221.66,269234.42,269237,269237.88,277238.32,,,
Holding screen,html.Screen,2_3_1_0_0,2022-02-02T14:44:10.941Z,,,,,,,,,,,,,,,,,,,,,,,,,,,,,,,7000.380000000005,,timeout,,,,,,,,,,,,,,,,,,,,,284224,284222.02,277221.66,277224,277238.32,284238.7,,,
screen,html.Screen,2_3_1_0_1_0,2022-02-02T14:44:11.864Z,,,,,,,,,,,,,,,,,51,,,,,,,,,,,,,,899.2999999999884,,response,,,,13,C,,,,,,Space,keypress(Space),,,,instrumental,,,,American -------- --- --- ---- --- --- ------ -- --------<br>---- --------- --- ------- ------------ ---------- ---------<br>--- ---------- ------- ---------- ------- -- -------- ----<br>---- --- ------ ----- ------ -- ---- --- ----- -- - -------<br>-------- -- --- --- -- ----- ----------- ----- -----------<br>---- --- ---------- --- ---- --- -- ----------,285147,285138,284222.02,284224,284238.7,285155.42,,0,American
screen,html.Screen,2_3_1_0_1_1,2022-02-02T14:44:12.242Z,,,,,,,,,,,,,,,,,51,,,,,,,,,,,,,,357.5800000000163,,response,,,,13,C,,,,,,Space,keypress(Space),,,,instrumental,,,,-------- industry --- --- ---- --- --- ------ -- --------<br>---- --------- --- ------- ------------ ---------- ---------<br>--- ---------- ------- ---------- ------- -- -------- ----<br>---- --- ------ ----- ------ -- ---- --- ----- -- - -------<br>-------- -- --- --- -- ----- ----------- ----- -----------<br>---- --- ---------- --- ---- --- -- ----------,285525,285513,285147.56,285147,285155.42,285538.76,,1,industry
screen,html.Screen,2_3_1_0_1_2,2022-02-02T14:44:12.630Z,,,,,,,,,,,,,,,,,51,,,,,,,,,,,,,,364.2399999999907,,response,,,,13,C,,,,,,Space,keypress(Space),,,,instrumental,,,,-------- -------- may --- ---- --- --- ------ -- --------<br>---- --------- --- ------- ------------ ---------- ---------<br>--- ---------- ------- ---------- ------- -- -------- ----<br>---- --- ------ ----- ------ -- ---- --- ----- -- - -------<br>-------- -- --- --- -- ----- ----------- ----- -----------<br>---- --- ---------- --- ---- --- -- ----------,285913,285903,285525.64,285525,285538.76,285922.12,,2,may
screen,html.Screen,2_3_1_0_1_3,2022-02-02T14:44:12.998Z,,,,,,,,,,,,,,,,,51,,,,,,,,,,,,,,340.88000000000466,,response,,,,13,C,,,,,,Space,keypress(Space),,,,instrumental,,,,-------- -------- --- not ---- --- --- ------ -- --------<br>---- --------- --- ------- ------------ ---------- ---------<br>--- ---------- ------- ---------- ------- -- -------- ----<br>---- --- ------ ----- ------ -- ---- --- ----- -- - -------<br>-------- -- --- --- -- ----- ----------- ----- -----------<br>---- --- ---------- --- ---- --- -- ----------,286281,286263,285913.78,285914,285922.12,286288.8,,3,not
screen,html.Screen,2_3_1_0_1_4,2022-02-02T14:44:13.381Z,,,,,,,,,,,,,,,,,51,,,,,,,,,,,,,,364.20000000001164,,response,,,,13,C,,,,,,Space,keypress(Space),,,,instrumental,,,,-------- -------- --- --- know --- --- ------ -- --------<br>---- --------- --- ------- ------------ ---------- ---------<br>--- ---------- ------- ---------- ------- -- -------- ----<br>---- --- ------ ----- ------ -- ---- --- ----- -- - -------<br>-------- -- --- --- -- ----- ----------- ----- -----------<br>---- --- ---------- --- ---- --- -- ----------,286663,286653,286280.86,286281,286288.8,286672.16,,4,know
screen,html.Screen,2_3_1_0_1_5,2022-02-02T14:44:13.990Z,,,,,,,,,,,,,,,,,51,,,,,,,,,,,,,,590.8400000000256,,response,,,,13,C,,,,,,Space,keypress(Space),,,,instrumental,,,,"-------- -------- --- --- ---- it, --- ------ -- --------<br>---- --------- --- ------- ------------ ---------- ---------<br>--- ---------- ------- ---------- ------- -- -------- ----<br>---- --- ------ ----- ------ -- ---- --- ----- -- - -------<br>-------- -- --- --- -- ----- ----------- ----- -----------<br>---- --- ---------- --- ---- --- -- ----------",287273,287263,286663.96,286663,286672.16,287288.86,,5,"it,"
screen,html.Screen,2_3_1_0_1_6,2022-02-02T14:44:14.307Z,,,,,,,,,,,,,,,,,51,,,,,,,,,,,,,,287.14000000001397,,response,,,,13,C,,,,,,Space,keypress(Space),,,,instrumental,,,,-------- -------- --- --- ---- --- but ------ -- --------<br>---- --------- --- ------- ------------ ---------- ---------<br>--- ---------- ------- ---------- ------- -- -------- ----<br>---- --- ------ ----- ------ -- ---- --- ----- -- - -------<br>-------- -- --- --- -- ----- ----------- ----- -----------<br>---- --- ---------- --- ---- --- -- ----------,287591,287576,287273.46,287274,287288.86,287605.54,,6,but
screen,html.Screen,2_3_1_0_1_7,2022-02-02T14:44:14.732Z,,,,,,,,,,,,,,,,,51,,,,,,,,,,,,,,391.46000000002095,,response,,,,13,C,,,,,,Space,keypress(Space),,,,instrumental,,,,-------- -------- --- --- ---- --- --- debate -- --------<br>---- --------- --- ------- ------------ ---------- ---------<br>--- ---------- ------- ---------- ------- -- -------- ----<br>---- --- ------ ----- ------ -- ---- --- ----- -- - -------<br>-------- -- --- --- -- ----- ----------- ----- -----------<br>---- --- ---------- --- ---- --- -- ----------,288016,287997,287591.04,287591,287605.54,288022.24,,7,debate
screen,html.Screen,2_3_1_0_1_8,2022-02-02T14:44:15.119Z,,,,,,,,,,,,,,,,,51,,,,,,,,,,,,,,365.7600000000093,,response,,,,13,C,,,,,,Space,keypress(Space),,,,instrumental,,,,-------- -------- --- --- ---- --- --- ------ in --------<br>---- --------- --- ------- ------------ ---------- ---------<br>--- ---------- ------- ---------- ------- -- -------- ----<br>---- --- ------ ----- ------ -- ---- --- ----- -- - -------<br>-------- -- --- --- -- ----- ----------- ----- -----------<br>---- --- ---------- --- ---- --- -- ----------,288401,288388,288016.62,288016,288022.24,288405.58,,8,in
screen,html.Screen,2_3_1_0_1_9,2022-02-02T14:44:15.591Z,,,,,,,,,,,,,,,,,51,,,,,,,,,,,,,,451.4199999999837,,response,,,,13,C,,,,,,Space,keypress(Space),,,,instrumental,,,,-------- -------- --- --- ---- --- --- ------ -- Congress<br>---- --------- --- ------- ------------ ---------- ---------<br>--- ---------- ------- ---------- ------- -- -------- ----<br>---- --- ------ ----- ------ -- ---- --- ----- -- - -------<br>-------- -- --- --- -- ----- ----------- ----- -----------<br>---- --- ---------- --- ---- --- -- ----------,288875,288857,288402.02,288402,288405.58,288888.94,,9,Congress
screen,html.Screen,2_3_1_0_1_10,2022-02-02T14:44:15.954Z,,,,,,,,,,,,,,,,,51,,,,,,,,,,,,,,343.0599999999977,,response,,,,13,C,,,,,,Space,keypress(Space),,,,instrumental,,,,-------- -------- --- --- ---- --- --- ------ -- --------<br>over --------- --- ------- ------------ ---------- ---------<br>--- ---------- ------- ---------- ------- -- -------- ----<br>---- --- ------ ----- ------ -- ---- --- ----- -- - -------<br>-------- -- --- --- -- ----- ----------- ----- -----------<br>---- --- ---------- --- ---- --- -- ----------,289238,289232,288874.76,288875,288888.94,289238.96,,10,over
screen,html.Screen,2_3_1_0_1_11,2022-02-02T14:44:16.363Z,,,,,,,,,,,,,,,,,51,,,,,,,,,,,,,,383.03999999997905,,response,,,,13,C,,,,,,Space,keypress(Space),,,,instrumental,,,,-------- -------- --- --- ---- --- --- ------ -- --------<br>---- reforming --- ------- ------------ ---------- ---------<br>--- ---------- ------- ---------- ------- -- -------- ----<br>---- --- ------ ----- ------ -- ---- --- ----- -- - -------<br>-------- -- --- --- -- ----- ----------- ----- -----------<br>---- --- ---------- --- ---- --- -- ----------,289647,289622,289237.94,289238,289238.96,289655.66,,11,reforming
screen,html.Screen,2_3_1_0_1_12,2022-02-02T14:44:16.677Z,,,,,,,,,,,,,,,,,51,,,,,,,,,,,,,,294.3400000000256,,response,,,,13,C,,,,,,Space,keypress(Space),,,,instrumental,,,,-------- -------- --- --- ---- --- --- ------ -- --------<br>---- --------- the ------- ------------ ---------- ---------<br>--- ---------- ------- ---------- ------- -- -------- ----<br>---- --- ------ ----- ------ -- ---- --- ----- -- - -------<br>-------- -- --- --- -- ----- ----------- ----- -----------<br>---- --- ---------- --- ---- --- -- ----------,289960,289950,289646.66,289647,289655.66,289972.34,,12,the
screen,html.Screen,2_3_1_0_1_13,2022-02-02T14:44:17.090Z,,,,,,,,,,,,,,,,,51,,,,,,,,,,,,,,384.6599999999744,,response,,,,13,C,,,,,,Space,keypress(Space),,,,instrumental,,,,-------- -------- --- --- ---- --- --- ------ -- --------<br>---- --------- --- federal ------------ ---------- ---------<br>--- ---------- ------- ---------- ------- -- -------- ----<br>---- --- ------ ----- ------ -- ---- --- ----- -- - -------<br>-------- -- --- --- -- ----- ----------- ----- -----------<br>---- --- ---------- --- ---- --- -- ----------,290373,290357,289960.34,289960,289972.34,290389.02,,13,federal
screen,html.Screen,2_3_1_0_1_14,2022-02-02T14:44:17.426Z,,,,,,,,,,,,,,,,,51,,,,,,,,,,,,,,310.9799999999814,,response,,,,13,C,,,,,,Space,keypress(Space),,,,instrumental,,,,-------- -------- --- --- ---- --- --- ------ -- --------<br>---- --------- --- ------- government's ---------- ---------<br>--- ---------- ------- ---------- ------- -- -------- ----<br>---- --- ------ ----- ------ -- ---- --- ----- -- - -------<br>-------- -- --- --- -- ----- ----------- ----- -----------<br>---- --- ---------- --- ---- --- -- ----------,290709,290700,290373.28,290374,290389.02,290723.46,,14,government's
screen,html.Screen,2_3_1_0_1_15,2022-02-02T14:44:17.828Z,,,,,,,,,,,,,,,,,51,,,,,,,,,,,,,,383.53999999997905,,response,,,,13,C,,,,,,Space,keypress(Space),,,,instrumental,,,,-------- -------- --- --- ---- --- --- ------ -- --------<br>---- --------- --- ------- ------------ regulatory ---------<br>--- ---------- ------- ---------- ------- -- -------- ----<br>---- --- ------ ----- ------ -- ---- --- ----- -- - -------<br>-------- -- --- --- -- ----- ----------- ----- -----------<br>---- --- ---------- --- ---- --- -- ----------,291112,291107,290709.32,290709,290723.46,291123.48,,15,regulatory
screen,html.Screen,2_3_1_0_1_16,2022-02-02T14:44:18.263Z,,,,,,,,,,,,,,,,,51,,,,,,,,,,,,,,404.5200000000186,,response,,,,13,C,,,,,,Space,keypress(Space),,,,instrumental,,,,-------- -------- --- --- ---- --- --- ------ -- --------<br>---- --------- --- ------- ------------ ---------- apparatus<br>--- ---------- ------- ---------- ------- -- -------- ----<br>---- --- ------ ----- ------ -- ---- --- ----- -- - -------<br>-------- -- --- --- -- ----- ----------- ----- -----------<br>---- --- ---------- --- ---- --- -- ----------,291546,291528,291112.06,291112,291123.48,291556.82,,16,apparatus
screen,html.Screen,2_3_1_0_1_17,2022-02-02T14:44:18.685Z,,,,,,,,,,,,,,,,,51,,,,,,,,,,,,,,394.179999999993,,response,,,,13,C,,,,,,Space,keypress(Space),,,,instrumental,,,,-------- -------- --- --- ---- --- --- ------ -- --------<br>---- --------- --- ------- ------------ ---------- ---------<br>may ---------- ------- ---------- ------- -- -------- ----<br>---- --- ------ ----- ------ -- ---- --- ----- -- - -------<br>-------- -- --- --- -- ----- ----------- ----- -----------<br>---- --- ---------- --- ---- --- -- ----------,291969,291951,291545.96,291546,291556.82,291973.52,,17,may
screen,html.Screen,2_3_1_0_1_18,2022-02-02T14:44:19.028Z,,,,,,,,,,,,,,,,,51,,,,,,,,,,,,,,320.4799999999814,,response,,,,13,C,,,,,,Space,keypress(Space),,,,instrumental,,,,-------- -------- --- --- ---- --- --- ------ -- --------<br>---- --------- --- ------- ------------ ---------- ---------<br>--- profoundly ------- ---------- ------- -- -------- ----<br>---- --- ------ ----- ------ -- ---- --- ----- -- - -------<br>-------- -- --- --- -- ----- ----------- ----- -----------<br>---- --- ---------- --- ---- --- -- ----------,292311,292294,291968.98,291969,291973.52,292323.54,,18,profoundly
screen,html.Screen,2_3_1_0_1_19,2022-02-02T14:44:19.460Z,,,,,,,,,,,,,,,,,51,,,,,,,,,,,,,,409.46000000002095,,response,,,,13,C,,,,,,Space,keypress(Space),,,,instrumental,,,,-------- -------- --- --- ---- --- --- ------ -- --------<br>---- --------- --- ------- ------------ ---------- ---------<br>--- ---------- improve ---------- ------- -- -------- ----<br>---- --- ------ ----- ------ -- ---- --- ----- -- - -------<br>-------- -- --- --- -- ----- ----------- ----- -----------<br>---- --- ---------- --- ---- --- -- ----------,292742,292733,292311.5,292312,292323.54,292756.88,,19,improve
screen,html.Screen,2_3_1_0_1_20,2022-02-02T14:44:19.864Z,,,,,,,,,,,,,,,,,51,,,,,,,,,,,,,,381.11999999999534,,response,,,,13,C,,,,,,Space,keypress(Space),,,,instrumental,,,,-------- -------- --- --- ---- --- --- ------ -- --------<br>---- --------- --- ------- ------------ ---------- ---------<br>--- ---------- ------- companies' ------- -- -------- ----<br>---- --- ------ ----- ------ -- ---- --- ----- -- - -------<br>-------- -- --- --- -- ----- ----------- ----- -----------<br>---- --- ---------- --- ---- --- -- ----------,293147,293138,292742.8,292743,292756.88,293156.9,,20,companies'
screen,html.Screen,2_3_1_0_1_21,2022-02-02T14:44:20.210Z,,,,,,,,,,,,,,,,,51,,,,,,,,,,,,,,325.0999999999767,,response,,,,13,C,,,,,,Space,keypress(Space),,,,instrumental,,,,-------- -------- --- --- ---- --- --- ------ -- --------<br>---- --------- --- ------- ------------ ---------- ---------<br>--- ---------- ------- ---------- ability -- -------- ----<br>---- --- ------ ----- ------ -- ---- --- ----- -- - -------<br>-------- -- --- --- -- ----- ----------- ----- -----------<br>---- --- ---------- --- ---- --- -- ----------,293493,293482,293147.58,293148,293156.9,293506.92,,21,ability
screen,html.Screen,2_3_1_0_1_22,2022-02-02T14:44:20.528Z,,,,,,,,,,,,,,,,,51,,,,,,,,,,,,,,287.0800000000163,,response,,,,13,C,,,,,,Space,keypress(Space),,,,instrumental,,,,-------- -------- --- --- ---- --- --- ------ -- --------<br>---- --------- --- ------- ------------ ---------- ---------<br>--- ---------- ------- ---------- ------- to -------- ----<br>---- --- ------ ----- ------ -- ---- --- ----- -- - -------<br>-------- -- --- --- -- ----- ----------- ----- -----------<br>---- --- ---------- --- ---- --- -- ----------,293812,293794,293493.4,293493,293506.92,293823.6,,22,to
screen,html.Screen,2_3_1_0_1_23,2022-02-02T14:44:21.182Z,,,,,,,,,,,,,,,,,51,,,,,,,,,,,,,,626.4000000000233,,response,,,,13,C,,,,,,Space,keypress(Space),,,,instrumental,,,,-------- -------- --- --- ---- --- --- ------ -- --------<br>---- --------- --- ------- ------------ ---------- ---------<br>--- ---------- ------- ---------- ------- -- survive. ----<br>---- --- ------ ----- ------ -- ---- --- ----- -- - -------<br>-------- -- --- --- -- ----- ----------- ----- -----------<br>---- --- ---------- --- ---- --- -- ----------,294466,294450,293811.56,293812,293823.6,294473.64,,23,survive.
screen,html.Screen,2_3_1_0_1_24,2022-02-02T14:44:21.753Z,,,,,,,,,,,,,,,,,51,,,,,,,,,,,,,,539.359999999986,,response,,,,13,C,,,,,,Space,keypress(Space),,,,instrumental,,,,-------- -------- --- --- ---- --- --- ------ -- --------<br>---- --------- --- ------- ------------ ---------- ---------<br>--- ---------- ------- ---------- ------- -- -------- This<br>---- --- ------ ----- ------ -- ---- --- ----- -- - -------<br>-------- -- --- --- -- ----- ----------- ----- -----------<br>---- --- ---------- --- ---- --- -- ----------,295036,295013,294465.74,294466,294473.64,295040.34,,24,This
screen,html.Screen,2_3_1_0_1_25,2022-02-02T14:44:22.987Z,,,,,,,,,,,,,,,,,51,,,,,,,,,,,,,,1222.6599999999744,,response,,,,13,C,,,,,,Space,keypress(Space),,,,instrumental,,,,-------- -------- --- --- ---- --- --- ------ -- --------<br>---- --------- --- ------- ------------ ---------- ---------<br>--- ---------- ------- ---------- ------- -- -------- ----<br>week --- ------ ----- ------ -- ---- --- ----- -- - -------<br>-------- -- --- --- -- ----- ----------- ----- -----------<br>---- --- ---------- --- ---- --- -- ----------,296270,296263,295036.24,295036,295040.34,296273.74,,25,week
screen,html.Screen,2_3_1_0_1_26,2022-02-02T14:44:23.452Z,,,,,,,,,,,,,,,,,51,,,,,,,,,,,,,,442.2600000000093,,response,,,,13,C,,,,,,Space,keypress(Space),,,,instrumental,,,,-------- -------- --- --- ---- --- --- ------ -- --------<br>---- --------- --- ------- ------------ ---------- ---------<br>--- ---------- ------- ---------- ------- -- -------- ----<br>---- the ------ ----- ------ -- ---- --- ----- -- - -------<br>-------- -- --- --- -- ----- ----------- ----- -----------<br>---- --- ---------- --- ---- --- -- ----------,296735,296716,296271,296271,296273.74,296740.42,,26,the
screen,html.Screen,2_3_1_0_1_27,2022-02-02T14:44:23.894Z,,,,,,,,,,,,,,,,,51,,,,,,,,,,,,,,428.5800000000163,,response,,,,13,C,,,,,,Space,keypress(Space),,,,instrumental,,,,-------- -------- --- --- ---- --- --- ------ -- --------<br>---- --------- --- ------- ------------ ---------- ---------<br>--- ---------- ------- ---------- ------- -- -------- ----<br>---- --- Senate ----- ------ -- ---- --- ----- -- - -------<br>-------- -- --- --- -- ----- ----------- ----- -----------<br>---- --- ---------- --- ---- --- -- ----------,297178,297169,296735.76,296735,296740.42,297190.44,,27,Senate
screen,html.Screen,2_3_1_0_1_28,2022-02-02T14:44:24.363Z,,,,,,,,,,,,,,,,,51,,,,,,,,,,,,,,447.5599999999977,,response,,,,13,C,,,,,,Space,keypress(Space),,,,instrumental,,,,-------- -------- --- --- ---- --- --- ------ -- --------<br>---- --------- --- ------- ------------ ---------- ---------<br>--- ---------- ------- ---------- ------- -- -------- ----<br>---- --- ------ seems ------ -- ---- --- ----- -- - -------<br>-------- -- --- --- -- ----- ----------- ----- -----------<br>---- --- ---------- --- ---- --- -- ----------,297647,297638,297178.32,297178,297190.44,297657.14,,28,seems
screen,html.Screen,2_3_1_0_1_29,2022-02-02T14:44:25.013Z,,,,,,,,,,,,,,,,,51,,,,,,,,,,,,,,620.859999999986,,response,,,,13,C,,,,,,Space,keypress(Space),,,,instrumental,,,,-------- -------- --- --- ---- --- --- ------ -- --------<br>---- --------- --- ------- ------------ ---------- ---------<br>--- ---------- ------- ---------- ------- -- -------- ----<br>---- --- ------ ----- poised -- ---- --- ----- -- - -------<br>-------- -- --- --- -- ----- ----------- ----- -----------<br>---- --- ---------- --- ---- --- -- ----------,298296,298278,297647,297647,297657.14,298307.18,,29,poised
screen,html.Screen,2_3_1_0_1_30,2022-02-02T14:44:25.375Z,,,,,,,,,,,,,,,,,51,,,,,,,,,,,,,,345.820000000007,,response,,,,13,C,,,,,,Space,keypress(Space),,,,instrumental,,,,-------- -------- --- --- ---- --- --- ------ -- --------<br>---- --------- --- ------- ------------ ---------- ---------<br>--- ---------- ------- ---------- ------- -- -------- ----<br>---- --- ------ ----- ------ to ---- --- ----- -- - -------<br>-------- -- --- --- -- ----- ----------- ----- -----------<br>---- --- ---------- --- ---- --- -- ----------,298659,298653,298296.7,298297,298307.18,298673.86,,30,to
screen,html.Screen,2_3_1_0_1_31,2022-02-02T14:44:25.764Z,,,,,,,,,,,,,,,,,51,,,,,,,,,,,,,,370.14000000001397,,response,,,,13,C,,,,,,Space,keypress(Space),,,,instrumental,,,,-------- -------- --- --- ---- --- --- ------ -- --------<br>---- --------- --- ------- ------------ ---------- ---------<br>--- ---------- ------- ---------- ------- -- -------- ----<br>---- --- ------ ----- ------ -- join --- ----- -- - -------<br>-------- -- --- --- -- ----- ----------- ----- -----------<br>---- --- ---------- --- ---- --- -- ----------,299047,299044,298658.9,298659,298673.86,299057.22,,31,join
screen,html.Screen,2_3_1_0_1_32,2022-02-02T14:44:26.158Z,,,,,,,,,,,,,,,,,51,,,,,,,,,,,,,,377.78000000002794,,response,,,,13,C,,,,,,Space,keypress(Space),,,,instrumental,,,,-------- -------- --- --- ---- --- --- ------ -- --------<br>---- --------- --- ------- ------------ ---------- ---------<br>--- ---------- ------- ---------- ------- -- -------- ----<br>---- --- ------ ----- ------ -- ---- the ----- -- - -------<br>-------- -- --- --- -- ----- ----------- ----- -----------<br>---- --- ---------- --- ---- --- -- ----------,299441,299435,299047.58,299047,299057.22,299457.24,,32,the
screen,html.Screen,2_3_1_0_1_33,2022-02-02T14:44:26.594Z,,,,,,,,,,,,,,,,,51,,,,,,,,,,,,,,414.7600000000093,,response,,,,13,C,,,,,,Space,keypress(Space),,,,instrumental,,,,-------- -------- --- --- ---- --- --- ------ -- --------<br>---- --------- --- ------- ------------ ---------- ---------<br>--- ---------- ------- ---------- ------- -- -------- ----<br>---- --- ------ ----- ------ -- ---- --- House -- - -------<br>-------- -- --- --- -- ----- ----------- ----- -----------<br>---- --- ---------- --- ---- --- -- ----------,299877,299872,299440.86,299441,299457.24,299890.6,,33,House
screen,html.Screen,2_3_1_0_1_34,2022-02-02T14:44:26.927Z,,,,,,,,,,,,,,,,,51,,,,,,,,,,,,,,309.4000000000233,,response,,,,13,C,,,,,,Space,keypress(Space),,,,instrumental,,,,-------- -------- --- --- ---- --- --- ------ -- --------<br>---- --------- --- ------- ------------ ---------- ---------<br>--- ---------- ------- ---------- ------- -- -------- ----<br>---- --- ------ ----- ------ -- ---- --- ----- in - -------<br>-------- -- --- --- -- ----- ----------- ----- -----------<br>---- --- ---------- --- ---- --- -- ----------,300211,300200,299878.12,299878,299890.6,300223.94,,34,in
screen,html.Screen,2_3_1_0_1_35,2022-02-02T14:44:27.295Z,,,,,,,,,,,,,,,,,51,,,,,,,,,,,,,,336.0599999999977,,response,,,,13,C,,,,,,Space,keypress(Space),,,,instrumental,,,,-------- -------- --- --- ---- --- --- ------ -- --------<br>---- --------- --- ------- ------------ ---------- ---------<br>--- ---------- ------- ---------- ------- -- -------- ----<br>---- --- ------ ----- ------ -- ---- --- ----- -- a -------<br>-------- -- --- --- -- ----- ----------- ----- -----------<br>---- --- ---------- --- ---- --- -- ----------,300578,300560,300210.56,300211,300223.94,300590.64,,35,a
screen,html.Screen,2_3_1_0_1_36,2022-02-02T14:44:27.686Z,,,,,,,,,,,,,,,,,51,,,,,,,,,,,,,,359.35999999998603,,response,,,,13,C,,,,,,Space,keypress(Space),,,,instrumental,,,,-------- -------- --- --- ---- --- --- ------ -- --------<br>---- --------- --- ------- ------------ ---------- ---------<br>--- ---------- ------- ---------- ------- -- -------- ----<br>---- --- ------ ----- ------ -- ---- --- ----- -- - massive<br>-------- -- --- --- -- ----- ----------- ----- -----------<br>---- --- ---------- --- ---- --- -- ----------,300969,300950,300578.5,300578,300590.64,300973.98,,36,massive
screen,html.Screen,2_3_1_0_1_37,2022-02-02T14:44:28.086Z,,,,,,,,,,,,,,,,,51,,,,,,,,,,,,,,383.0200000000186,,response,,,,13,C,,,,,,Space,keypress(Space),,,,instrumental,,,,-------- -------- --- --- ---- --- --- ------ -- --------<br>---- --------- --- ------- ------------ ---------- ---------<br>--- ---------- ------- ---------- ------- -- -------- ----<br>---- --- ------ ----- ------ -- ---- --- ----- -- - -------<br>overhaul -- --- --- -- ----- ----------- ----- -----------<br>---- --- ---------- --- ---- --- -- ----------,301370,301357,300969.34,300969,300973.98,301374,,37,overhaul
screen,html.Screen,2_3_1_0_1_38,2022-02-02T14:44:28.398Z,,,,,,,,,,,,,,,,,51,,,,,,,,,,,,,,296,,response,,,,13,C,,,,,,Space,keypress(Space),,,,instrumental,,,,-------- -------- --- --- ---- --- --- ------ -- --------<br>---- --------- --- ------- ------------ ---------- ---------<br>--- ---------- ------- ---------- ------- -- -------- ----<br>---- --- ------ ----- ------ -- ---- --- ----- -- - -------<br>-------- of --- --- -- ----- ----------- ----- -----------<br>---- --- ---------- --- ---- --- -- ----------,301682,301670,301369.42,301370,301374,301690.7,,38,of
screen,html.Screen,2_3_1_0_1_39,2022-02-02T14:44:28.698Z,,,,,,,,,,,,,,,,,51,,,,,,,,,,,,,,275.29999999998836,,response,,,,13,C,,,,,,Space,keypress(Space),,,,instrumental,,,,-------- -------- --- --- ---- --- --- ------ -- --------<br>---- --------- --- ------- ------------ ---------- ---------<br>--- ---------- ------- ---------- ------- -- -------- ----<br>---- --- ------ ----- ------ -- ---- --- ----- -- - -------<br>-------- -- the --- -- ----- ----------- ----- -----------<br>---- --- ---------- --- ---- --- -- ----------,301981,301966,301681.98,301682,301690.7,301990.7,,39,the
screen,html.Screen,2_3_1_0_1_40,2022-02-02T14:44:29.003Z,,,,,,,,,,,,,,,,,51,,,,,,,,,,,,,,273.29999999998836,,response,,,,13,C,,,,,,Space,keypress(Space),,,,instrumental,,,,-------- -------- --- --- ---- --- --- ------ -- --------<br>---- --------- --- ------- ------------ ---------- ---------<br>--- ---------- ------- ---------- ------- -- -------- ----<br>---- --- ------ ----- ------ -- ---- --- ----- -- - -------<br>-------- -- --- way -- ----- ----------- ----- -----------<br>---- --- ---------- --- ---- --- -- ----------,302286,302264,301981.1,301982,301990.7,302290.72,,40,way
screen,html.Screen,2_3_1_0_1_41,2022-02-02T14:44:29.310Z,,,,,,,,,,,,,,,,,51,,,,,,,,,,,,,,284.28000000002794,,response,,,,13,C,,,,,,Space,keypress(Space),,,,instrumental,,,,-------- -------- --- --- ---- --- --- ------ -- --------<br>---- --------- --- ------- ------------ ---------- ---------<br>--- ---------- ------- ---------- ------- -- -------- ----<br>---- --- ------ ----- ------ -- ---- --- ----- -- - -------<br>-------- -- --- --- in ----- ----------- ----- -----------<br>---- --- ---------- --- ---- --- -- ----------,302594,302575,302286.42,302287,302290.72,302607.4,,41,in
screen,html.Screen,2_3_1_0_1_42,2022-02-02T14:44:29.670Z,,,,,,,,,,,,,,,,,51,,,,,,,,,,,,,,327.5999999999767,,response,,,,13,C,,,,,,Space,keypress(Space),,,,instrumental,,,,-------- -------- --- --- ---- --- --- ------ -- --------<br>---- --------- --- ------- ------------ ---------- ---------<br>--- ---------- ------- ---------- ------- -- -------- ----<br>---- --- ------ ----- ------ -- ---- --- ----- -- - -------<br>-------- -- --- --- -- which ----------- ----- -----------<br>---- --- ---------- --- ---- --- -- ----------,302954,302935,302593.8,302594,302607.4,302957.42,,42,which
screen,html.Screen,2_3_1_0_1_43,2022-02-02T14:44:30.112Z,,,,,,,,,,,,,,,,,51,,,,,,,,,,,,,,414.5800000000163,,response,,,,13,C,,,,,,Space,keypress(Space),,,,instrumental,,,,-------- -------- --- --- ---- --- --- ------ -- --------<br>---- --------- --- ------- ------------ ---------- ---------<br>--- ---------- ------- ---------- ------- -- -------- ----<br>---- --- ------ ----- ------ -- ---- --- ----- -- - -------<br>-------- -- --- --- -- ----- bureaucrats ----- -----------<br>---- --- ---------- --- ---- --- -- ----------,303395,303372,302953.82,302954,302957.42,303407.44,,43,bureaucrats
screen,html.Screen,2_3_1_0_1_44,2022-02-02T14:44:30.429Z,,,,,,,,,,,,,,,,,51,,,,,,,,,,,,,,292.5599999999977,,response,,,,13,C,,,,,,Space,keypress(Space),,,,instrumental,,,,-------- -------- --- --- ---- --- --- ------ -- --------<br>---- --------- --- ------- ------------ ---------- ---------<br>--- ---------- ------- ---------- ------- -- -------- ----<br>---- --- ------ ----- ------ -- ---- --- ----- -- - -------<br>-------- -- --- --- -- ----- ----------- enact -----------<br>---- --- ---------- --- ---- --- -- ----------,303712,303700,303395.62,303395,303407.44,303724.14,,44,enact
screen,html.Screen,2_3_1_0_1_45,2022-02-02T14:44:30.908Z,,,,,,,,,,,,,,,,,51,,,,,,,,,,,,,,460.85999999998603,,response,,,,13,C,,,,,,Space,keypress(Space),,,,instrumental,,,,-------- -------- --- --- ---- --- --- ------ -- --------<br>---- --------- --- ------- ------------ ---------- ---------<br>--- ---------- ------- ---------- ------- -- -------- ----<br>---- --- ------ ----- ------ -- ---- --- ----- -- - -------<br>-------- -- --- --- -- ----- ----------- ----- regulations<br>---- --- ---------- --- ---- --- -- ----------,304191,304185,303711.78,303712,303724.14,304207.5,,45,regulations
screen,html.Screen,2_3_1_0_1_46,2022-02-02T14:44:31.265Z,,,,,,,,,,,,,,,,,51,,,,,,,,,,,,,,336.5,,response,,,,13,C,,,,,,Space,keypress(Space),,,,instrumental,,,,-------- -------- --- --- ---- --- --- ------ -- --------<br>---- --------- --- ------- ------------ ---------- ---------<br>--- ---------- ------- ---------- ------- -- -------- ----<br>---- --- ------ ----- ------ -- ---- --- ----- -- - -------<br>-------- -- --- --- -- ----- ----------- ----- -----------<br>that --- ---------- --- ---- --- -- ----------,304549,304544,304191.58,304192,304207.5,304557.52,,46,that
screen,html.Screen,2_3_1_0_1_47,2022-02-02T14:44:31.594Z,,,,,,,,,,,,,,,,,51,,,,,,,,,,,,,,314.4799999999814,,response,,,,13,C,,,,,,Space,keypress(Space),,,,instrumental,,,,-------- -------- --- --- ---- --- --- ------ -- --------<br>---- --------- --- ------- ------------ ---------- ---------<br>--- ---------- ------- ---------- ------- -- -------- ----<br>---- --- ------ ----- ------ -- ---- --- ----- -- - -------<br>-------- -- --- --- -- ----- ----------- ----- -----------<br>---- are ---------- --- ---- --- -- ----------,304878,304872,304549.06,304549,304557.52,304890.86,,47,are
screen,html.Screen,2_3_1_0_1_48,2022-02-02T14:44:32.000Z,,,,,,,,,,,,,,,,,51,,,,,,,,,,,,,,372.14000000001397,,response,,,,13,C,,,,,,Space,keypress(Space),,,,instrumental,,,,-------- -------- --- --- ---- --- --- ------ -- --------<br>---- --------- --- ------- ------------ ---------- ---------<br>--- ---------- ------- ---------- ------- -- -------- ----<br>---- --- ------ ----- ------ -- ---- --- ----- -- - -------<br>-------- -- --- --- -- ----- ----------- ----- -----------<br>---- --- strangling --- ---- --- -- ----------,305284,305263,304877.86,304878,304890.86,305290.88,,48,strangling
screen,html.Screen,2_3_1_0_1_49,2022-02-02T14:44:32.399Z,,,,,,,,,,,,,,,,,51,,,,,,,,,,,,,,378.11999999999534,,response,,,,13,C,,,,,,Space,keypress(Space),,,,instrumental,,,,-------- -------- --- --- ---- --- --- ------ -- --------<br>---- --------- --- ------- ------------ ---------- ---------<br>--- ---------- ------- ---------- ------- -- -------- ----<br>---- --- ------ ----- ------ -- ---- --- ----- -- - -------<br>-------- -- --- --- -- ----- ----------- ----- -----------<br>---- --- ---------- the ---- --- -- ----------,305681,305669,305283.72,305284,305290.88,305690.9,,49,the
