sender,sender_type,sender_id,timestamp,meta,,Blues,Classical,Country,Dance,Electronic,Folk,Gospel,Hip-Hop,Jazz,Latin,Musical/Film,New-age,Pop,Prolific_id,Provo_ID,R&B,Rap,Reggae,Religious,Rock,Soul,Swing,Traditional,age,artist_name,correct,correctResponse,distraction,duration,education,ended_on,familiarity,gender,headphone_check_performance,item,list,music_frequency,offensiveness,pleasantness,position_correct,preference,response,response_action,snippet_file,song_name,song_rating,sound,stimulus_1,stimulus_2,stimulus_3,text,time_commit,time_end,time_render,time_run,time_show,time_switch,url,word,word_ID
Prolific ID,html.Form,0,2022-02-02T17:47:24.749Z,"{""labjs_version"":""20.2.2"",""labjs_build"":{""flavor"":""production"",""commit"":""a25486e0c714a0ae2ce03ff94b7bb6896854dcfa""},""location"":""https://run.pavlovia.org/mvasilev/prolific2_music_e/"",""userAgent"":""Mozilla/5.0 (Windows NT 10.0; Win64; x64) AppleWebKit/537.36 (KHTML, like Gecko) Chrome/97.0.4692.71 Safari/537.36"",""platform"":""Win32"",""language"":""en-GB"",""locale"":""en-GB"",""timeZone"":""Europe/London"",""timezoneOffset"":0,""screen_width"":1536,""screen_height"":864,""scroll_width"":1536,""scroll_height"":706,""window_innerWidth"":1536,""window_innerHeight"":754,""devicePixelRatio"":1.25}",,,,,,,,,,,,,,,5ee17767c5575d567bb7ba8d,,,,,,,,,,,,,,,4460.812000190735,,form submission,,,,,,,,,,,,,,,,,,,,,12133,12132.300000190735,7638.168,7651.599999904633,7671.488,12168.294,{},,
Introduction,html.Screen,1_0,2022-02-02T17:47:28.717Z,,,,,,,,,,,,,,,,,,,,,,,,,,,,,,,3929.3059999046327,,response,,,,,,,,,,,continue,click button,,,,,,,,,16101.700000286102,16097.599999904633,12119.056,12133.300000190735,12168.294,16098.957,,,
Volume calibration,html.Screen,1_1,2022-02-02T17:48:02.871Z,,,,,,,,,,,,,,,,,,,,,,,,,,,,,,,34151.543,,response,,,,,,,,,,,continue,click button,,,,,,,,,50255.300000190735,50250.5,16083.168,16101.900000095367,16098.957,50258.766,,,
Task instructions,html.Screen,1_2,2022-02-02T17:48:11.808Z,,,,,,,,,,,,,,,,,,,,,,,,,,,,,,,8932.434000286099,,response,,,,,,,,,,,continue,click button,,,,,,,,,59192.2000002861,59191.2000002861,50242.981,50255.5,50258.766,59202.815,,,
Sounds,html.Screen,1_3_0_0,2022-02-02T17:48:16.053Z,,,,,,,,,,,,,,,,,,,,,,,,,,,,,,,4247.178999999996,,timeout,,,,,,,,,2,,,,,,,,I,S,O,,63437.40000009537,63433.042,59187.209,59192.5,59202.815,63449.994,,,
Judgement,html.Screen,1_3_0_1,2022-02-02T17:48:19.619Z,,,,,,,,,,,,,,,,,,,,,,,,,,,,true,2,,3551.605999904634,,response,,,,,,,,,2,,2,click #choice-2,,,,,I,S,O,,67002.80000019073,67001.59999990463,63433.042,63437.5,63449.994,67014.006,,,
Trial,flow.Sequence,1_3_0,2022-02-02T17:48:19.619Z,,,,,,,,,,,,,,,,,,,,,,,,,,,,,,,7798.78499990463,,completion,,,,,,,,,2,,,,,,,,I,S,O,,67003.2000002861,67001.59999990463,59187.209,59192.40000009537,59202.815,67014.006,,,
Sounds,html.Screen,1_3_1_0,2022-02-02T17:48:23.862Z,,,,,,,,,,,,,,,,,,,,,,,,,,,,,,,4247.221000000005,,timeout,,,,,,,,,1,,,,,,,,S,I,O,,71246,71244.994,66998.358,67003.7000002861,67014.006,71261.227,,,
Judgement,html.Screen,1_3_1_1,2022-02-02T17:48:26.829Z,,,,,,,,,,,,,,,,,,,,,,,,,,,,true,1,,2950.4730002861033,,response,,,,,,,,,1,,1,click #choice-1,,,,,S,I,O,,74213.2000002861,74211.7000002861,71244.994,71246.2000002861,71261.227,74226.459,,,
Trial,flow.Sequence,1_3_1,2022-02-02T17:48:26.830Z,,,,,,,,,,,,,,,,,,,,,,,,,,,,,,,7197.694000286108,,completion,,,,,,,,,1,,,,,,,,S,I,O,,74214,74211.7000002861,66998.358,67003.40000009537,67014.006,74226.459,,,
Sounds,html.Screen,1_3_2_0,2022-02-02T17:48:31.074Z,,,,,,,,,,,,,,,,,,,,,,,,,,,,,,,4247.025999999998,,timeout,,,,,,,,,3,,,,,,,,I,O,S,,78458,78456.884,74209.409,74214.2000002861,74226.459,78473.485,,,
Judgement,html.Screen,1_3_2_1,2022-02-02T17:48:32.609Z,,,,,,,,,,,,,,,,,,,,,,,,,,,,true,3,,1519.114999904632,,response,,,,,,,,,3,,3,click #choice-3,,,,,I,O,S,,79993.7000002861,79992.59999990463,78456.884,78458.2000002861,78473.485,80005.337,,,
Trial,flow.Sequence,1_3_2,2022-02-02T17:48:32.610Z,,,,,,,,,,,,,,,,,,,,,,,,,,,,,,,5766.14099990463,,completion,,,,,,,,,3,,,,,,,,I,O,S,,79994.09999990463,79992.59999990463,74209.409,74214.2000002861,74226.459,80005.337,,,
Sounds,html.Screen,1_3_3_0,2022-02-02T17:48:36.853Z,,,,,,,,,,,,,,,,,,,,,,,,,,,,,,,4247.763999999996,,timeout,,,,,,,,,1,,,,,,,,S,O,I,,84237.2000002861,84236.232,79989.17,79994.30000019073,80005.337,84253.101,,,
Judgement,html.Screen,1_3_3_1,2022-02-02T17:48:38.327Z,,,,,,,,,,,,,,,,,,,,,,,,,,,,true,1,,1456.9989999046375,,response,,,,,,,,,1,,1,click #choice-1,,,,,S,O,I,,85711.30000019073,85710.09999990463,84236.232,84237.40000009537,84253.101,85717.713,,,
Trial,flow.Sequence,1_3_3,2022-02-02T17:48:38.327Z,,,,,,,,,,,,,,,,,,,,,,,,,,,,,,,5704.762999904633,,completion,,,,,,,,,1,,,,,,,,S,O,I,,85711.59999990463,85710.09999990463,79989.17,79994.2000002861,80005.337,85717.713,,,
Sounds,html.Screen,1_3_4_0,2022-02-02T17:48:42.566Z,,,,,,,,,,,,,,,,,,,,,,,,,,,,,,,4247.1159999999945,,timeout,,,,,,,,,3,,,,,,,,O,I,S,,89949.90000009537,89948.855,85701.093,85711.7000002861,85717.713,89964.829,,,
Judgement,html.Screen,1_3_4_1,2022-02-02T17:48:43.879Z,,,,,,,,,,,,,,,,,,,,,,,,,,,,true,3,,1297.5710000953695,,response,,,,,,,,,3,,3,click #choice-3,,,,,O,I,S,,91263.5,91262.40000009537,89948.855,89950.09999990463,89964.829,91263.882,,,
Trial,flow.Sequence,1_3_4,2022-02-02T17:48:43.879Z,,,,,,,,,,,,,,,,,,,,,,,,,,,,,,,5544.687000095364,,completion,,,,,,,,,3,,,,,,,,O,I,S,,91263.7000002861,91262.40000009537,85701.093,85711.7000002861,85717.713,91263.882,,,
Sounds,html.Screen,1_3_5_0,2022-02-02T17:48:48.111Z,,,,,,,,,,,,,,,,,,,,,,,,,,,,,,,4247.104999999996,,timeout,,,,,,,,,2,,,,,,,,O,S,I,,95495.40000009537,95494.457,91248.093,91263.80000019073,91263.882,95510.987,,,
Judgement,html.Screen,1_3_5_1,2022-02-02T17:48:49.958Z,,,,,,,,,,,,,,,,,,,,,,,,,,,,true,2,,1829.7130002861086,,response,,,,,,,,,2,,2,click #choice-2,,,,,O,S,I,,97342.2000002861,97340.7000002861,95494.457,95495.59999990463,95510.987,97342.986,,,
Trial,flow.Sequence,1_3_5,2022-02-02T17:48:49.958Z,,,,,,,,,,,,,,,,,,,,,,,,,,,,,,,6076.8180002861045,,completion,,,,,,,,,2,,,,,,,,O,S,I,,97342.5,97340.7000002861,91248.093,91263.80000019073,91263.882,97342.986,,,
Task,flow.Loop,1_3,2022-02-02T17:48:49.963Z,,,,,,,,,,,,,,,,,,,,,,,,,,,,,,,38137.8850002861,,completion,,,1,,,,,,,,,,,,,,,,,,97347.80000019073,97340.7000002861,59187.209,59192.40000009537,59202.815,97342.986,,,
Trap,html.Screen,1_4,2022-02-02T17:48:49.964Z,,,,,,,,,,,,,,,,,,,,,,,,,,,,,,,NaN,,skipped,,,,,,,,,,,,,,,,,,,,,97348.5,97340.7000002861,,97348.5,,97342.986,,,
Thanks,html.Screen,1_5,2022-02-02T17:48:53.428Z,,,,,,,,,,,,,,,,,,,,,,,,,,,,,,,3468.5139999999956,,response,,,,,,,,,,,continue,click button,,,,,,,,,100812.5,100811.5,97327.218,97348.59999990463,97342.986,104088.451,,,
Headphone screening,flow.Sequence,1,2022-02-02T17:48:53.428Z,,,,,,,,,,,,,,,,,,,,,,,,,,,,,,,88643.206,,completion,,,,,,,,,,,,,,,,,,,,,100812.7000002861,100811.5,12119.056,12133.300000190735,12168.294,104088.451,,,
Instructions,html.Page,2_0,2022-02-02T17:49:20.134Z,,,,,,,,,,,,,,,,,,,,,,,,,,,,,,,23429.64899990463,,form submission,,,,,,,,,,,,,,,,,,,,,127518.59999990463,127518.09999990463,104071.637,104081.59999990463,104088.451,127522.296,,,
Holding screen,html.Screen,2_1_0_0,2022-02-02T17:49:30.116Z,,,,,,,,,,,,,,,,,,,,,,,,,,,,,,,10010.027999999991,,timeout,,,,,,,,,,,,,,,,,,,,,137500.40000009537,137499.553,127505.855,127518.90000009537,127522.296,137532.324,,,
screen,html.Screen,2_1_0_1_0,2022-02-02T17:49:31.093Z,,,,,,,,,,,,,,,,,53,,,,,,,,,,,,,,941.6760000000068,,response,,,,99,,,,,,,Space,keypress(Space),,,,,,,,When -- ----- -- ------ - ------- --- ----------<br>------------- ------ ------ ---- ---- ------- ----- -- ----<br>-------- ------- -- ---------- --- - --- ----- ----- ----<br>---- --- --- ----- --- ---- ---- ------- ----- ---- -------<br>--- --- -- ----- -- --- ---- -- --- ---- -- ------ ------<br>--- ----- -- ----,138477.7000002861,138474,137499.553,137500.7000002861,137532.324,138481.319,,0,When
screen,html.Screen,2_1_0_1_1,2022-02-02T17:49:31.500Z,,,,,,,,,,,,,,,,,53,,,,,,,,,,,,,,402.1810000000114,,response,,,,99,,,,,,,Space,keypress(Space),,,,,,,,---- it ----- -- ------ - ------- --- ----------<br>------------- ------ ------ ---- ---- ------- ----- -- ----<br>-------- ------- -- ---------- --- - --- ----- ----- ----<br>---- --- --- ----- --- ---- ---- ------- ----- ---- -------<br>--- --- -- ----- -- --- ---- -- --- ---- -- ------ ------<br>--- ----- -- ----,138884.2000002861,138883.5,138464.979,138477.90000009537,138481.319,138898.03,,1,it
screen,html.Screen,2_1_0_1_2,2022-02-02T17:49:31.919Z,,,,,,,,,,,,,,,,,53,,,,,,,,,,,,,,404.56999990463373,,response,,,,99,,,,,,,Space,keypress(Space),,,,,,,,---- -- comes -- ------ - ------- --- ----------<br>------------- ------ ------ ---- ---- ------- ----- -- ----<br>-------- ------- -- ---------- --- - --- ----- ----- ----<br>---- --- --- ----- --- ---- ---- ------- ----- ---- -------<br>--- --- -- ----- -- --- ---- -- --- ---- -- ------ ------<br>--- ----- -- ----,139303.40000009537,139302.59999990463,138881.085,138884.40000009537,138898.03,139314.209,,2,comes
screen,html.Screen,2_1_0_1_3,2022-02-02T17:49:32.360Z,,,,,,,,,,,,,,,,,53,,,,,,,,,,,,,,429.29099999999744,,response,,,,99,,,,,,,Space,keypress(Space),,,,,,,,---- -- ----- to ------ - ------- --- ----------<br>------------- ------ ------ ---- ---- ------- ----- -- ----<br>-------- ------- -- ---------- --- - --- ----- ----- ----<br>---- --- --- ----- --- ---- ---- ------- ----- ---- -------<br>--- --- -- ----- -- --- ---- -- --- ---- -- ------ ------<br>--- ----- -- ----,139744.30000019073,139743.5,139297.524,139303.5,139314.209,139747.154,,3,to
screen,html.Screen,2_1_0_1_4,2022-02-02T17:49:32.767Z,,,,,,,,,,,,,,,,,53,,,,,,,,,,,,,,403.2460000953579,,response,,,,99,,,,,,,Space,keypress(Space),,,,,,,,---- -- ----- -- having - ------- --- ----------<br>------------- ------ ------ ---- ---- ------- ----- -- ----<br>-------- ------- -- ---------- --- - --- ----- ----- ----<br>---- --- --- ----- --- ---- ---- ------- ----- ---- -------<br>--- --- -- ----- -- --- ---- -- --- ---- -- ------ ------<br>--- ----- -- ----,140151.09999990463,140150.40000009537,139730.472,139744.5,139747.154,140164.431,,4,having
screen,html.Screen,2_1_0_1_5,2022-02-02T17:49:33.202Z,,,,,,,,,,,,,,,,,53,,,,,,,,,,,,,,421.0689999999886,,response,,,,99,,,,,,,Space,keypress(Space),,,,,,,,---- -- ----- -- ------ a ------- --- ----------<br>------------- ------ ------ ---- ---- ------- ----- -- ----<br>-------- ------- -- ---------- --- - --- ----- ----- ----<br>---- --- --- ----- --- ---- ---- ------- ----- ---- -------<br>--- --- -- ----- -- --- ---- -- --- ---- -- ------ ------<br>--- ----- -- ----,140586.2000002861,140585.5,140147.793,140151.2000002861,140164.431,140596.783,,5,a
screen,html.Screen,2_1_0_1_6,2022-02-02T17:49:33.675Z,,,,,,,,,,,,,,,,,53,,,,,,,,,,,,,,462.2170000000042,,response,,,,99,,,,,,,Space,keypress(Space),,,,,,,,---- -- ----- -- ------ - lasting --- ----------<br>------------- ------ ------ ---- ---- ------- ----- -- ----<br>-------- ------- -- ---------- --- - --- ----- ----- ----<br>---- --- --- ----- --- ---- ---- ------- ----- ---- -------<br>--- --- -- ----- -- --- ---- -- --- ---- -- ------ ------<br>--- ----- -- ----,141059.7000002861,141059,140579.97,140586.30000019073,140596.783,141062.879,,6,lasting
screen,html.Screen,2_1_0_1_7,2022-02-02T17:49:34.051Z,,,,,,,,,,,,,,,,,53,,,,,,,,,,,,,,371.62100000001374,,response,,,,99,,,,,,,Space,keypress(Space),,,,,,,,---- -- ----- -- ------ - ------- and ----------<br>------------- ------ ------ ---- ---- ------- ----- -- ----<br>-------- ------- -- ---------- --- - --- ----- ----- ----<br>---- --- --- ----- --- ---- ---- ------- ----- ---- -------<br>--- --- -- ----- -- --- ---- -- --- ---- -- ------ ------<br>--- ----- -- ----,141435.30000019073,141434.5,141047.12,141059.90000009537,141062.879,141446.839,,7,and
screen,html.Screen,2_1_0_1_8,2022-02-02T17:49:34.457Z,,,,,,,,,,,,,,,,,53,,,,,,,,,,,,,,394.26099990462535,,response,,,,99,,,,,,,Space,keypress(Space),,,,,,,,---- -- ----- -- ------ - ------- --- fulfilling<br>------------- ------ ------ ---- ---- ------- ----- -- ----<br>-------- ------- -- ---------- --- - --- ----- ----- ----<br>---- --- --- ----- --- ---- ---- ------- ----- ---- -------<br>--- --- -- ----- -- --- ---- -- --- ---- -- ------ ------<br>--- ----- -- ----,141841.80000019073,141841.09999990463,141429.947,141435.7000002861,141446.839,141845.677,,8,fulfilling
screen,html.Screen,2_1_0_1_9,2022-02-02T17:49:35.176Z,,,,,,,,,,,,,,,,,53,,,,,,,,,,,,,,713.7230000953714,,response,,,,99,,,,,,,Space,keypress(Space),,,,,,,,"---- -- ----- -- ------ - ------- --- ----------<br>relationship, ------ ------ ---- ---- ------- ----- -- ----<br>-------- ------- -- ---------- --- - --- ----- ----- ----<br>---- --- --- ----- --- ---- ---- ------- ----- ---- -------<br>--- --- -- ----- -- --- ---- -- --- ---- -- ------ ------<br>--- ----- -- ----",142560.09999990463,142559.40000009537,141829.903,141842,141845.677,142561.848,,9,"relationship,"
screen,html.Screen,2_1_0_1_10,2022-02-02T17:49:35.682Z,,,,,,,,,,,,,,,,,53,,,,,,,,,,,,,,503.75199990463443,,response,,,,99,,,,,,,Space,keypress(Space),,,,,,,,---- -- ----- -- ------ - ------- --- ----------<br>------------- common ------ ---- ---- ------- ----- -- ----<br>-------- ------- -- ---------- --- - --- ----- ----- ----<br>---- --- --- ----- --- ---- ---- ------- ----- ---- -------<br>--- --- -- ----- -- --- ---- -- --- ---- -- ------ ------<br>--- ----- -- ----,143066.40000009537,143065.59999990463,142546.022,142560.30000019073,142561.848,143078.143,,10,common
screen,html.Screen,2_1_0_1_11,2022-02-02T17:49:35.930Z,,,,,,,,,,,,,,,,,53,,,,,,,,,,,,,,235.7570000953565,,response,,,,99,,,,,,,Space,keypress(Space),,,,,,,,---- -- ----- -- ------ - ------- --- ----------<br>------------- ------ wisdom ---- ---- ------- ----- -- ----<br>-------- ------- -- ---------- --- - --- ----- ----- ----<br>---- --- --- ----- --- ---- ---- ------- ----- ---- -------<br>--- --- -- ----- -- --- ---- -- --- ---- -- ------ ------<br>--- ----- -- ----,143314.7000002861,143313.90000009537,143061.693,143066.59999990463,143078.143,143328.462,,11,wisdom
screen,html.Screen,2_1_0_1_12,2022-02-02T17:49:36.914Z,,,,,,,,,,,,,,,,,53,,,,,,,,,,,,,,969.0380000000005,,response,,,,99,,,,,,,Space,keypress(Space),,,,,,,,---- -- ----- -- ------ - ------- --- ----------<br>------------- ------ ------ says ---- ------- ----- -- ----<br>-------- ------- -- ---------- --- - --- ----- ----- ----<br>---- --- --- ----- --- ---- ---- ------- ----- ---- -------<br>--- --- -- ----- -- --- ---- -- --- ---- -- ------ ------<br>--- ----- -- ----,144298.2000002861,144297.5,143311.555,143314.90000009537,143328.462,144311.426,,12,says
screen,html.Screen,2_1_0_1_13,2022-02-02T17:49:37.390Z,,,,,,,,,,,,,,,,,53,,,,,,,,,,,,,,462.27400028609554,,response,,,,99,,,,,,,Space,keypress(Space),,,,,,,,---- -- ----- -- ------ - ------- --- ----------<br>------------- ------ ------ ---- that ------- ----- -- ----<br>-------- ------- -- ---------- --- - --- ----- ----- ----<br>---- --- --- ----- --- ---- ---- ------- ----- ---- -------<br>--- --- -- ----- -- --- ---- -- --- ---- -- ------ ------<br>--- ----- -- ----,144774.40000009537,144773.7000002861,144294.929,144298.5,144311.426,144776.986,,13,that
screen,html.Screen,2_1_0_1_14,2022-02-02T17:49:37.896Z,,,,,,,,,,,,,,,,,53,,,,,,,,,,,,,,503.0139999999956,,response,,,,99,,,,,,,Space,keypress(Space),,,,,,,,---- -- ----- -- ------ - ------- --- ----------<br>------------- ------ ------ ---- ---- feeling ----- -- ----<br>-------- ------- -- ---------- --- - --- ----- ----- ----<br>---- --- --- ----- --- ---- ---- ------- ----- ---- -------<br>--- --- -- ----- -- --- ---- -- --- ---- -- ------ ------<br>--- ----- -- ----,145280.80000019073,145280,144761.17,144774.5,144776.986,145294.184,,14,feeling
screen,html.Screen,2_1_0_1_15,2022-02-02T17:49:39.362Z,,,,,,,,,,,,,,,,,53,,,,,,,,,,,,,,1451.6160001907265,,response,,,,99,,,,,,,Space,keypress(Space),,,,,,,,---- -- ----- -- ------ - ------- --- ----------<br>------------- ------ ------ ---- ---- ------- close -- ----<br>-------- ------- -- ---------- --- - --- ----- ----- ----<br>---- --- --- ----- --- ---- ---- ------- ----- ---- -------<br>--- --- -- ----- -- --- ---- -- --- ---- -- ------ ------<br>--- ----- -- ----,146746.59999990463,146745.80000019073,145277.602,145280.90000009537,145294.184,146759.842,,15,close
screen,html.Screen,2_1_0_1_16,2022-02-02T17:49:39.904Z,,,,,,,,,,,,,,,,,53,,,,,,,,,,,,,,528.1579999999958,,response,,,,99,,,,,,,Space,keypress(Space),,,,,,,,---- -- ----- -- ------ - ------- --- ----------<br>------------- ------ ------ ---- ---- ------- ----- to ----<br>-------- ------- -- ---------- --- - --- ----- ----- ----<br>---- --- --- ----- --- ---- ---- ------- ----- ---- -------<br>--- --- -- ----- -- --- ---- -- --- ---- -- ------ ------<br>--- ----- -- ----,147288.7000002861,147288,146743.245,146746.7000002861,146759.842,147291.936,,16,to
screen,html.Screen,2_1_0_1_17,2022-02-02T17:49:40.271Z,,,,,,,,,,,,,,,,,53,,,,,,,,,,,,,,362.76400028611533,,response,,,,99,,,,,,,Space,keypress(Space),,,,,,,,---- -- ----- -- ------ - ------- --- ----------<br>------------- ------ ------ ---- ---- ------- ----- -- your<br>-------- ------- -- ---------- --- - --- ----- ----- ----<br>---- --- --- ----- --- ---- ---- ------- ----- ---- -------<br>--- --- -- ----- -- --- ---- -- --- ---- -- ------ ------<br>--- ----- -- ----,147655.59999990463,147654.7000002861,147276.146,147288.90000009537,147291.936,147658.348,,17,your
screen,html.Screen,2_1_0_1_18,2022-02-02T17:49:40.920Z,,,,,,,,,,,,,,,,,53,,,,,,,,,,,,,,645.3520002861042,,response,,,,99,,,,,,,Space,keypress(Space),,,,,,,,---- -- ----- -- ------ - ------- --- ----------<br>------------- ------ ------ ---- ---- ------- ----- -- ----<br>romantic ------- -- ---------- --- - --- ----- ----- ----<br>---- --- --- ----- --- ---- ---- ------- ----- ---- -------<br>--- --- -- ----- -- --- ---- -- --- ---- -- ------ ------<br>--- ----- -- ----,148304.59999990463,148303.7000002861,147641.962,147655.80000019073,147658.348,148308.002,,18,romantic
screen,html.Screen,2_1_0_1_19,2022-02-02T17:49:41.619Z,,,,,,,,,,,,,,,,,53,,,,,,,,,,,,,,694.0979999046249,,response,,,,99,,,,,,,Space,keypress(Space),,,,,,,,---- -- ----- -- ------ - ------- --- ----------<br>------------- ------ ------ ---- ---- ------- ----- -- ----<br>-------- partner -- ---------- --- - --- ----- ----- ----<br>---- --- --- ----- --- ---- ---- ------- ----- ---- -------<br>--- --- -- ----- -- --- ---- -- --- ---- -- ------ ------<br>--- ----- -- ----,149002.80000019073,149002.09999990463,148291.295,148304.80000019073,148308.002,149007.405,,19,partner
screen,html.Screen,2_1_0_1_20,2022-02-02T17:49:42.150Z,,,,,,,,,,,,,,,,,53,,,,,,,,,,,,,,526.2950002861035,,response,,,,99,,,,,,,Space,keypress(Space),,,,,,,,---- -- ----- -- ------ - ------- --- ----------<br>------------- ------ ------ ---- ---- ------- ----- -- ----<br>-------- ------- is ---------- --- - --- ----- ----- ----<br>---- --- --- ----- --- ---- ---- ------- ----- ---- -------<br>--- --- -- ----- -- --- ---- -- --- ---- -- ------ ------<br>--- ----- -- ----,149534.40000009537,149533.7000002861,148991.14,149003,149007.405,149540.349,,20,is
screen,html.Screen,2_1_0_1_21,2022-02-02T17:49:42.647Z,,,,,,,,,,,,,,,,,53,,,,,,,,,,,,,,490.35100028611487,,response,,,,99,,,,,,,Space,keypress(Space),,,,,,,,---- -- ----- -- ------ - ------- --- ----------<br>------------- ------ ------ ---- ---- ------- ----- -- ----<br>-------- ------- -- paramount. --- - --- ----- ----- ----<br>---- --- --- ----- --- ---- ---- ------- ----- ---- -------<br>--- --- -- ----- -- --- ---- -- --- ---- -- ------ ------<br>--- ----- -- ----,150031.30000019073,150030.7000002861,149524.605,149534.7000002861,149540.349,150040.876,,21,paramount.
screen,html.Screen,2_1_0_1_22,2022-02-02T17:49:43.270Z,,,,,,,,,,,,,,,,,53,,,,,,,,,,,,,,612.6240000000107,,response,,,,99,,,,,,,Space,keypress(Space),,,,,,,,---- -- ----- -- ------ - ------- --- ----------<br>------------- ------ ------ ---- ---- ------- ----- -- ----<br>-------- ------- -- ---------- But - --- ----- ----- ----<br>---- --- --- ----- --- ---- ---- ------- ----- ---- -------<br>--- --- -- ----- -- --- ---- -- --- ---- -- ------ ------<br>--- ----- -- ----,150654.30000019073,150653.5,150024.252,150031.59999990463,150040.876,150656.333,,22,But
screen,html.Screen,2_1_0_1_23,2022-02-02T17:49:43.923Z,,,,,,,,,,,,,,,,,53,,,,,,,,,,,,,,650.1669999999867,,response,,,,99,,,,,,,Space,keypress(Space),,,,,,,,---- -- ----- -- ------ - ------- --- ----------<br>------------- ------ ------ ---- ---- ------- ----- -- ----<br>-------- ------- -- ---------- --- a --- ----- ----- ----<br>---- --- --- ----- --- ---- ---- ------- ----- ---- -------<br>--- --- -- ----- -- --- ---- -- --- ---- -- ------ ------<br>--- ----- -- ----,151307.40000009537,151306.5,150640.54,150654.40000009537,150656.333,151323.409,,23,a
screen,html.Screen,2_1_0_1_24,2022-02-02T17:49:44.478Z,,,,,,,,,,,,,,,,,53,,,,,,,,,,,,,,538.3910001907207,,response,,,,99,,,,,,,Space,keypress(Space),,,,,,,,---- -- ----- -- ------ - ------- --- ----------<br>------------- ------ ------ ---- ---- ------- ----- -- ----<br>-------- ------- -- ---------- --- - new ----- ----- ----<br>---- --- --- ----- --- ---- ---- ------- ----- ---- -------<br>--- --- -- ----- -- --- ---- -- --- ---- -- ------ ------<br>--- ----- -- ----,151862.30000019073,151861.80000019073,151305.912,151307.59999990463,151323.409,151872.338,,24,new
screen,html.Screen,2_1_0_1_25,2022-02-02T17:49:44.936Z,,,,,,,,,,,,,,,,,53,,,,,,,,,,,,,,447.1620000000112,,response,,,,99,,,,,,,Space,keypress(Space),,,,,,,,---- -- ----- -- ------ - ------- --- ----------<br>------------- ------ ------ ---- ---- ------- ----- -- ----<br>-------- ------- -- ---------- --- - --- study ----- ----<br>---- --- --- ----- --- ---- ---- ------- ----- ---- -------<br>--- --- -- ----- -- --- ---- -- --- ---- -- ------ ------<br>--- ----- -- ----,152320.30000019073,152319.5,151855.805,151862.59999990463,151872.338,152321.819,,25,study
screen,html.Screen,2_1_0_1_26,2022-02-02T17:49:45.465Z,,,,,,,,,,,,,,,,,53,,,,,,,,,,,,,,526.6810000000114,,response,,,,99,,,,,,,Space,keypress(Space),,,,,,,,---- -- ----- -- ------ - ------- --- ----------<br>------------- ------ ------ ---- ---- ------- ----- -- ----<br>-------- ------- -- ---------- --- - --- ----- finds ----<br>---- --- --- ----- --- ---- ---- ------- ----- ---- -------<br>--- --- -- ----- -- --- ---- -- --- ---- -- ------ ------<br>--- ----- -- ----,152849.30000019073,152848.5,152306.024,152320.5,152321.819,152855.047,,26,finds
screen,html.Screen,2_1_0_1_27,2022-02-02T17:49:45.935Z,,,,,,,,,,,,,,,,,53,,,,,,,,,,,,,,463.7530001907435,,response,,,,99,,,,,,,Space,keypress(Space),,,,,,,,---- -- ----- -- ------ - ------- --- ----------<br>------------- ------ ------ ---- ---- ------- ----- -- ----<br>-------- ------- -- ---------- --- - --- ----- ----- that<br>---- --- --- ----- --- ---- ---- ------- ----- ---- -------<br>--- --- -- ----- -- --- ---- -- --- ---- -- ------ ------<br>--- ----- -- ----,153319.80000019073,153318.80000019073,152838.283,152849.5,152855.047,153321.133,,27,that
screen,html.Screen,2_1_0_1_28,2022-02-02T17:49:46.498Z,,,,,,,,,,,,,,,,,53,,,,,,,,,,,,,,560.7670000953658,,response,,,,99,,,,,,,Space,keypress(Space),,,,,,,,---- -- ----- -- ------ - ------- --- ----------<br>------------- ------ ------ ---- ---- ------- ----- -- ----<br>-------- ------- -- ---------- --- - --- ----- ----- ----<br>it's --- --- ----- --- ---- ---- ------- ----- ---- -------<br>--- --- -- ----- -- --- ---- -- --- ---- -- ------ ------<br>--- ----- -- ----,153882.7000002861,153881.90000009537,153305.317,153319.90000009537,153321.133,153887.425,,28,it's
screen,html.Screen,2_1_0_1_29,2022-02-02T17:49:46.960Z,,,,,,,,,,,,,,,,,53,,,,,,,,,,,,,,456.1749999046442,,response,,,,99,,,,,,,Space,keypress(Space),,,,,,,,---- -- ----- -- ------ - ------- --- ----------<br>------------- ------ ------ ---- ---- ------- ----- -- ----<br>-------- ------- -- ---------- --- - --- ----- ----- ----<br>---- not --- ----- --- ---- ---- ------- ----- ---- -------<br>--- --- -- ----- -- --- ---- -- --- ---- -- ------ ------<br>--- ----- -- ----,154344.30000019073,154343.59999990463,153871.403,153882.80000019073,153887.425,154354.714,,29,not
screen,html.Screen,2_1_0_1_30,2022-02-02T17:49:47.430Z,,,,,,,,,,,,,,,,,53,,,,,,,,,,,,,,459.1860000953602,,response,,,,99,,,,,,,Space,keypress(Space),,,,,,,,---- -- ----- -- ------ - ------- --- ----------<br>------------- ------ ------ ---- ---- ------- ----- -- ----<br>-------- ------- -- ---------- --- - --- ----- ----- ----<br>---- --- how ----- --- ---- ---- ------- ----- ---- -------<br>--- --- -- ----- -- --- ---- -- --- ---- -- ------ ------<br>--- ----- -- ----,154814.7000002861,154813.90000009537,154337.132,154344.5,154354.714,154820.116,,30,how
screen,html.Screen,2_1_0_1_31,2022-02-02T17:49:47.923Z,,,,,,,,,,,,,,,,,53,,,,,,,,,,,,,,486.0840002860932,,response,,,,99,,,,,,,Space,keypress(Space),,,,,,,,---- -- ----- -- ------ - ------- --- ----------<br>------------- ------ ------ ---- ---- ------- ----- -- ----<br>-------- ------- -- ---------- --- - --- ----- ----- ----<br>---- --- --- close --- ---- ---- ------- ----- ---- -------<br>--- --- -- ----- -- --- ---- -- --- ---- -- ------ ------<br>--- ----- -- ----,155307,155306.2000002861,154804.3,154815.09999990463,154820.116,155319.992,,31,close
screen,html.Screen,2_1_0_1_32,2022-02-02T17:49:48.707Z,,,,,,,,,,,,,,,,,53,,,,,,,,,,,,,,770.4080000953691,,response,,,,99,,,,,,,Space,keypress(Space),,,,,,,,---- -- ----- -- ------ - ------- --- ----------<br>------------- ------ ------ ---- ---- ------- ----- -- ----<br>-------- ------- -- ---------- --- - --- ----- ----- ----<br>---- --- --- ----- you ---- ---- ------- ----- ---- -------<br>--- --- -- ----- -- --- ---- -- --- ---- -- ------ ------<br>--- ----- -- ----,156091.09999990463,156090.40000009537,155303.759,155307.09999990463,155319.992,156103.412,,32,you
screen,html.Screen,2_1_0_1_33,2022-02-02T17:49:49.208Z,,,,,,,,,,,,,,,,,53,,,,,,,,,,,,,,487.6879999046214,,response,,,,99,,,,,,,Space,keypress(Space),,,,,,,,---- -- ----- -- ------ - ------- --- ----------<br>------------- ------ ------ ---- ---- ------- ----- -- ----<br>-------- ------- -- ---------- --- - --- ----- ----- ----<br>---- --- --- ----- --- feel ---- ------- ----- ---- -------<br>--- --- -- ----- -- --- ---- -- --- ---- -- ------ ------<br>--- ----- -- ----,156591.90000009537,156591.09999990463,156086.818,156091.30000019073,156103.412,156602.343,,33,feel
screen,html.Screen,2_1_0_1_34,2022-02-02T17:49:49.705Z,,,,,,,,,,,,,,,,,53,,,,,,,,,,,,,,485.8570002861088,,response,,,,99,,,,,,,Space,keypress(Space),,,,,,,,---- -- ----- -- ------ - ------- --- ----------<br>------------- ------ ------ ---- ---- ------- ----- -- ----<br>-------- ------- -- ---------- --- - --- ----- ----- ----<br>---- --- --- ----- --- ---- that ------- ----- ---- -------<br>--- --- -- ----- -- --- ---- -- --- ---- -- ------ ------<br>--- ----- -- ----,157088.80000019073,157088.2000002861,156586.423,156592,156602.343,157101.875,,34,that
screen,html.Screen,2_1_0_1_35,2022-02-02T17:49:50.168Z,,,,,,,,,,,,,,,,,53,,,,,,,,,,,,,,449.8250002861023,,response,,,,99,,,,,,,Space,keypress(Space),,,,,,,,---- -- ----- -- ------ - ------- --- ----------<br>------------- ------ ------ ---- ---- ------- ----- -- ----<br>-------- ------- -- ---------- --- - --- ----- ----- ----<br>---- --- --- ----- --- ---- ---- matters ----- ---- -------<br>--- --- -- ----- -- --- ---- -- --- ---- -- ------ ------<br>--- ----- -- ----,157552.40000009537,157551.7000002861,157086.098,157088.90000009537,157101.875,157569.086,,35,matters
screen,html.Screen,2_1_0_1_36,2022-02-02T17:49:50.595Z,,,,,,,,,,,,,,,,,53,,,,,,,,,,,,,,409.8140000953572,,response,,,,99,,,,,,,Space,keypress(Space),,,,,,,,"---- -- ----- -- ------ - ------- --- ----------<br>------------- ------ ------ ---- ---- ------- ----- -- ----<br>-------- ------- -- ---------- --- - --- ----- ----- ----<br>---- --- --- ----- --- ---- ---- ------- most, ---- -------<br>--- --- -- ----- -- --- ---- -- --- ---- -- ------ ------<br>--- ----- -- ----",157979.59999990463,157978.90000009537,157551.585,157552.80000019073,157569.086,157984.662,,36,"most,"
screen,html.Screen,2_1_0_1_37,2022-02-02T17:49:51.151Z,,,,,,,,,,,,,,,,,53,,,,,,,,,,,,,,549.3379999999888,,response,,,,99,,,,,,,Space,keypress(Space),,,,,,,,---- -- ----- -- ------ - ------- --- ----------<br>------------- ------ ------ ---- ---- ------- ----- -- ----<br>-------- ------- -- ---------- --- - --- ----- ----- ----<br>---- --- --- ----- --- ---- ---- ------- ----- it's -------<br>--- --- -- ----- -- --- ---- -- --- ---- -- ------ ------<br>--- ----- -- ----,158534.90000009537,158534,157967.957,157979.80000019073,157984.662,158551.159,,37,it's
screen,html.Screen,2_1_0_1_38,2022-02-02T17:49:51.632Z,,,,,,,,,,,,,,,,,53,,,,,,,,,,,,,,464.8409999999858,,response,,,,99,,,,,,,Space,keypress(Space),,,,,,,,---- -- ----- -- ------ - ------- --- ----------<br>------------- ------ ------ ---- ---- ------- ----- -- ----<br>-------- ------- -- ---------- --- - --- ----- ----- ----<br>---- --- --- ----- --- ---- ---- ------- ----- ---- whether<br>--- --- -- ----- -- --- ---- -- --- ---- -- ------ ------<br>--- ----- -- ----,159016.7000002861,159016,158534.264,158535,158551.159,159034.764,,38,whether
screen,html.Screen,2_1_0_1_39,2022-02-02T17:49:52.085Z,,,,,,,,,,,,,,,,,53,,,,,,,,,,,,,,434.0360001907393,,response,,,,99,,,,,,,Space,keypress(Space),,,,,,,,---- -- ----- -- ------ - ------- --- ----------<br>------------- ------ ------ ---- ---- ------- ----- -- ----<br>-------- ------- -- ---------- --- - --- ----- ----- ----<br>---- --- --- ----- --- ---- ---- ------- ----- ---- -------<br>you --- -- ----- -- --- ---- -- --- ---- -- ------ ------<br>--- ----- -- ----,159469.5,159468.80000019073,159017.247,159016.90000009537,159034.764,159483.91,,39,you
screen,html.Screen,2_1_0_1_40,2022-02-02T17:49:52.528Z,,,,,,,,,,,,,,,,,53,,,,,,,,,,,,,,427.39000019073137,,response,,,,99,,,,,,,Space,keypress(Space),,,,,,,,---- -- ----- -- ------ - ------- --- ----------<br>------------- ------ ------ ---- ---- ------- ----- -- ----<br>-------- ------- -- ---------- --- - --- ----- ----- ----<br>---- --- --- ----- --- ---- ---- ------- ----- ---- -------<br>--- are -- ----- -- --- ---- -- --- ---- -- ------ ------<br>--- ----- -- ----,159912,159911.30000019073,159466.939,159469.59999990463,159483.91,159916.553,,40,are
screen,html.Screen,2_1_0_1_41,2022-02-02T17:49:53.026Z,,,,,,,,,,,,,,,,,53,,,,,,,,,,,,,,492.7470001907204,,response,,,,99,,,,,,,Space,keypress(Space),,,,,,,,---- -- ----- -- ------ - ------- --- ----------<br>------------- ------ ------ ---- ---- ------- ----- -- ----<br>-------- ------- -- ---------- --- - --- ----- ----- ----<br>---- --- --- ----- --- ---- ---- ------- ----- ---- -------<br>--- --- as ----- -- --- ---- -- --- ---- -- ------ ------<br>--- ----- -- ----,160410,160409.30000019073,159899.986,159912.30000019073,159916.553,160416.366,,41,as
screen,html.Screen,2_1_0_1_42,2022-02-02T17:49:53.593Z,,,,,,,,,,,,,,,,,53,,,,,,,,,,,,,,560.0340000953584,,response,,,,99,,,,,,,Space,keypress(Space),,,,,,,,---- -- ----- -- ------ - ------- --- ----------<br>------------- ------ ------ ---- ---- ------- ----- -- ----<br>-------- ------- -- ---------- --- - --- ----- ----- ----<br>---- --- --- ----- --- ---- ---- ------- ----- ---- -------<br>--- --- -- close -- --- ---- -- --- ---- -- ------ ------<br>--- ----- -- ----,160977.09999990463,160976.40000009537,160400.443,160410.2000002861,160416.366,160982.626,,42,close
screen,html.Screen,2_1_0_1_43,2022-02-02T17:49:54.031Z,,,,,,,,,,,,,,,,,53,,,,,,,,,,,,,,431.3740000000107,,response,,,,99,,,,,,,Space,keypress(Space),,,,,,,,---- -- ----- -- ------ - ------- --- ----------<br>------------- ------ ------ ---- ---- ------- ----- -- ----<br>-------- ------- -- ---------- --- - --- ----- ----- ----<br>---- --- --- ----- --- ---- ---- ------- ----- ---- -------<br>--- --- -- ----- as --- ---- -- --- ---- -- ------ ------<br>--- ----- -- ----,161414.90000009537,161414,160966.732,160977.30000019073,160982.626,161432.303,,43,as
screen,html.Screen,2_1_0_1_44,2022-02-02T17:49:54.518Z,,,,,,,,,,,,,,,,,53,,,,,,,,,,,,,,469.097000095353,,response,,,,99,,,,,,,Space,keypress(Space),,,,,,,,---- -- ----- -- ------ - ------- --- ----------<br>------------- ------ ------ ---- ---- ------- ----- -- ----<br>-------- ------- -- ---------- --- - --- ----- ----- ----<br>---- --- --- ----- --- ---- ---- ------- ----- ---- -------<br>--- --- -- ----- -- you ---- -- --- ---- -- ------ ------<br>--- ----- -- ----,161902.09999990463,161901.40000009537,161415.559,161415,161432.303,161915.487,,44,you
screen,html.Screen,2_1_0_1_45,2022-02-02T17:49:54.960Z,,,,,,,,,,,,,,,,,53,,,,,,,,,,,,,,427.9130000953737,,response,,,,99,,,,,,,Space,keypress(Space),,,,,,,,---- -- ----- -- ------ - ------- --- ----------<br>------------- ------ ------ ---- ---- ------- ----- -- ----<br>-------- ------- -- ---------- --- - --- ----- ----- ----<br>---- --- --- ----- --- ---- ---- ------- ----- ---- -------<br>--- --- -- ----- -- --- want -- --- ---- -- ------ ------<br>--- ----- -- ----,162344.2000002861,162343.40000009537,161899.087,161902.30000019073,161915.487,162348.238,,45,want
screen,html.Screen,2_1_0_1_46,2022-02-02T17:49:55.387Z,,,,,,,,,,,,,,,,,53,,,,,,,,,,,,,,421.86199990462046,,response,,,,99,,,,,,,Space,keypress(Space),,,,,,,,---- -- ----- -- ------ - ------- --- ----------<br>------------- ------ ------ ---- ---- ------- ----- -- ----<br>-------- ------- -- ---------- --- - --- ----- ----- ----<br>---- --- --- ----- --- ---- ---- ------- ----- ---- -------<br>--- --- -- ----- -- --- ---- to --- ---- -- ------ ------<br>--- ----- -- ----,162771,162770.09999990463,162331.613,162344.40000009537,162348.238,162781.426,,46,to
screen,html.Screen,2_1_0_1_47,2022-02-02T17:49:55.914Z,,,,,,,,,,,,,,,,,53,,,,,,,,,,,,,,515.7740002860955,,response,,,,99,,,,,,,Space,keypress(Space),,,,,,,,"---- -- ----- -- ------ - ------- --- ----------<br>------------- ------ ------ ---- ---- ------- ----- -- ----<br>-------- ------- -- ---------- --- - --- ----- ----- ----<br>---- --- --- ----- --- ---- ---- ------- ----- ---- -------<br>--- --- -- ----- -- --- ---- -- be, ---- -- ------ ------<br>--- ----- -- ----",163298,163297.2000002861,162764.703,162771.2000002861,162781.426,163314.281,,47,"be,"
screen,html.Screen,2_1_0_1_48,2022-02-02T17:49:56.546Z,,,,,,,,,,,,,,,,,53,,,,,,,,,,,,,,615.5190001907467,,response,,,,99,,,,,,,Space,keypress(Space),,,,,,,,---- -- ----- -- ------ - ------- --- ----------<br>------------- ------ ------ ---- ---- ------- ----- -- ----<br>-------- ------- -- ---------- --- - --- ----- ----- ----<br>---- --- --- ----- --- ---- ---- ------- ----- ---- -------<br>--- --- -- ----- -- --- ---- -- --- even -- ------ ------<br>--- ----- -- ----,163930.5,163929.80000019073,163297.591,163298.2000002861,163314.281,163947.219,,48,even
screen,html.Screen,2_1_0_1_49,2022-02-02T17:49:57.012Z,,,,,,,,,,,,,,,,,53,,,,,,,,,,,,,,448.2809999999881,,response,,,,99,,,,,,,Space,keypress(Space),,,,,,,,---- -- ----- -- ------ - ------- --- ----------<br>------------- ------ ------ ---- ---- ------- ----- -- ----<br>-------- ------- -- ---------- --- - --- ----- ----- ----<br>---- --- --- ----- --- ---- ---- ------- ----- ---- -------<br>--- --- -- ----- -- --- ---- -- --- ---- if ------ ------<br>--- ----- -- ----,164396.2000002861,164395.5,163930.534,163930.80000019073,163947.219,164396.786,,49,if
screen,html.Screen,2_1_0_1_50,2022-02-02T17:49:57.520Z,,,,,,,,,,,,,,,,,53,,,,,,,,,,,,,,506.4140002861095,,response,,,,99,,,,,,,Space,keypress(Space),,,,,,,,---- -- ----- -- ------ - ------- --- ----------<br>------------- ------ ------ ---- ---- ------- ----- -- ----<br>-------- ------- -- ---------- --- - --- ----- ----- ----<br>---- --- --- ----- --- ---- ---- ------- ----- ---- -------<br>--- --- -- ----- -- --- ---- -- --- ---- -- that's ------<br>--- ----- -- ----,164904,164903.2000002861,164381.023,164396.30000019073,164396.786,164913.379,,50,that's
screen,html.Screen,2_1_0_1_51,2022-02-02T17:49:58.020Z,,,,,,,,,,,,,,,,,53,,,,,,,,,,,,,,490.52100009538117,,response,,,,99,,,,,,,Space,keypress(Space),,,,,,,,---- -- ----- -- ------ - ------- --- ----------<br>------------- ------ ------ ---- ---- ------- ----- -- ----<br>-------- ------- -- ---------- --- - --- ----- ----- ----<br>---- --- --- ----- --- ---- ---- ------- ----- ---- -------<br>--- --- -- ----- -- --- ---- -- --- ---- -- ------ really<br>--- ----- -- ----,165404.7000002861,165403.90000009537,164896.548,164904.09999990463,164913.379,165413.661,,51,really
screen,html.Screen,2_1_0_1_52,2022-02-02T17:49:58.531Z,,,,,,,,,,,,,,,,,53,,,,,,,,,,,,,,500.6390001907421,,response,,,,99,,,,,,,Space,keypress(Space),,,,,,,,---- -- ----- -- ------ - ------- --- ----------<br>------------- ------ ------ ---- ---- ------- ----- -- ----<br>-------- ------- -- ---------- --- - --- ----- ----- ----<br>---- --- --- ----- --- ---- ---- ------- ----- ---- -------<br>--- --- -- ----- -- --- ---- -- --- ---- -- ------ ------<br>not ----- -- ----,165915,165914.30000019073,165396.998,165404.90000009537,165413.661,165929.14,,52,not
screen,html.Screen,2_1_0_1_53,2022-02-02T17:49:59.020Z,,,,,,,,,,,,,,,,,53,,,,,,,,,,,,,,474.26000009535346,,response,,,,99,,,,,,,Space,keypress(Space),,,,,,,,---- -- ----- -- ------ - ------- --- ----------<br>------------- ------ ------ ---- ---- ------- ----- -- ----<br>-------- ------- -- ---------- --- - --- ----- ----- ----<br>---- --- --- ----- --- ---- ---- ------- ----- ---- -------<br>--- --- -- ----- -- --- ---- -- --- ---- -- ------ ------<br>--- close -- ----,166404.09999990463,166403.40000009537,165912.457,165915.09999990463,165929.14,166412.277,,53,close
screen,html.Screen,2_1_0_1_54,2022-02-02T17:49:59.472Z,,,,,,,,,,,,,,,,,53,,,,,,,,,,,,,,442.92300028610043,,response,,,,99,,,,,,,Space,keypress(Space),,,,,,,,---- -- ----- -- ------ - ------- --- ----------<br>------------- ------ ------ ---- ---- ------- ----- -- ----<br>-------- ------- -- ---------- --- - --- ----- ----- ----<br>---- --- --- ----- --- ---- ---- ------- ----- ---- -------<br>--- --- -- ----- -- --- ---- -- --- ---- -- ------ ------<br>--- ----- at ----,166855.90000009537,166855.2000002861,166396.279,166404.40000009537,166412.277,166861.981,,54,at
screen,html.Screen,2_1_0_1_55,2022-02-02T17:50:00.009Z,,,,,,,,,,,,,,,,,53,,,,,,,,,,,,,,530.7190002861025,,response,,,,99,,,,,,,Space,keypress(Space),,,,,,,,---- -- ----- -- ------ - ------- --- ----------<br>------------- ------ ------ ---- ---- ------- ----- -- ----<br>-------- ------- -- ---------- --- - --- ----- ----- ----<br>---- --- --- ----- --- ---- ---- ------- ----- ---- -------<br>--- --- -- ----- -- --- ---- -- --- ---- -- ------ ------<br>--- ----- -- all.,167393.30000019073,167392.7000002861,166845.413,166856.2000002861,166861.981,167394.785,,55,all.
Item 99,flow.Loop,2_1_0_1,2022-02-02T17:50:00.009Z,,,,,,,,,,,,,,,,,,,,,,,,,,,,,,,29860.37600028611,,completion,,,,,E,,,,,,,,,,,silence,,,,,167393.5,167392.7000002861,137499.553,137500.59999990463,137532.324,167394.785,,,
Question 1,html.Screen,2_1_0_2,2022-02-02T17:50:13.441Z,,,,,,,,,,,,,,,,,,,,,,,,,,,,true,FALSE,,13429.515000190731,,response,,,,99,E,,,,,,FALSE,click #choice-2,,,,silence,,,,,180825.59999990463,180824.30000019073,167378.964,167393.5,167394.785,180835.679,,,
Question 2,html.Screen,2_1_0_3,2022-02-02T17:50:18.244Z,,,,,,,,,,,,,,,,,,,,,,,,,,,,true,TRUE,,4792.021000286099,,response,,,,99,E,,,,,,TRUE,click #choice-1,,,,silence,,,,,185628.80000019073,185627.7000002861,180819.719,180825.7000002861,180835.679,185632.244,,,
Item 99,flow.Sequence,2_1_0,2022-02-02T17:50:18.245Z,,,,,,,,,,,,,,,,,,,,,,,,,,,,,,,58105.4040002861,,completion,,,,,,,,,,,,,,,,,,,,,185629,185627.7000002861,127505.855,127518.90000009537,127522.296,185632.244,,,
Holding screen,html.Screen,2_1_1_0,2022-02-02T17:50:28.226Z,,,,,,,,,,,,,,,,,,,,,,,,,,,,,,,9993.962999999989,,timeout,,,,,,,,,,,,,,,,,,,,,195610.40000009537,195609.539,185616.412,185629.2000002861,185632.244,195626.207,,,
screen,html.Screen,2_1_1_1_0,2022-02-02T17:50:29.208Z,,,,,,,,,,,,,,,,,54,,,,,,,,,,,,,,965.1930000953726,,response,,,,100,,,,,,,Space,keypress(Space),,,,,,,,At --- ---- --- ------ ----- ------- ---- -- --- ------- --<br>------- ---------- ------ -- ----- -- ----- -- ---- ------<br>--- ----- --- --- ------ -------- ----- --- ------ ----- --<br>----- ----- ---------- --- --- ------ ------ ---- -- ------<br>------- --- ------ ----- --- ---- ------- -- ---- --- --<br>------- ------,196592.09999990463,196591.40000009537,195609.539,195610.5,195626.207,196608.884,,0,At
screen,html.Screen,2_1_1_1_1,2022-02-02T17:50:29.614Z,,,,,,,,,,,,,,,,,54,,,,,,,,,,,,,,388.41600019074394,,response,,,,100,,,,,,,Space,keypress(Space),,,,,,,,-- the ---- --- ------ ----- ------- ---- -- --- ------- --<br>------- ---------- ------ -- ----- -- ----- -- ---- ------<br>--- ----- --- --- ------ -------- ----- --- ------ ----- --<br>----- ----- ---------- --- --- ------ ------ ---- -- ------<br>------- --- ------ ----- --- ---- ------- -- ---- --- --<br>------- ------,196998,196997.30000019073,196591.356,196592.40000009537,196608.884,197008.615,,1,the
screen,html.Screen,2_1_1_1_2,2022-02-02T17:50:29.920Z,,,,,,,,,,,,,,,,,54,,,,,,,,,,,,,,294.4849999046419,,response,,,,100,,,,,,,Space,keypress(Space),,,,,,,,-- --- time --- ------ ----- ------- ---- -- --- ------- --<br>------- ---------- ------ -- ----- -- ----- -- ---- ------<br>--- ----- --- --- ------ -------- ----- --- ------ ----- --<br>----- ----- ---------- --- --- ------ ------ ---- -- ------<br>------- --- ------ ----- --- ---- ------- -- ---- --- --<br>------- ------,197303.80000019073,197303.09999990463,196991.114,196998.2000002861,197008.615,197307.461,,2,time
screen,html.Screen,2_1_1_1_3,2022-02-02T17:50:30.221Z,,,,,,,,,,,,,,,,,54,,,,,,,,,,,,,,296.4390000953572,,response,,,,100,,,,,,,Space,keypress(Space),,,,,,,,-- --- ---- the ------ ----- ------- ---- -- --- ------- --<br>------- ---------- ------ -- ----- -- ----- -- ---- ------<br>--- ----- --- --- ------ -------- ----- --- ------ ----- --<br>----- ----- ---------- --- --- ------ ------ ---- -- ------<br>------- --- ------ ----- --- ---- ------- -- ---- --- --<br>------- ------,197604.7000002861,197603.90000009537,197291.587,197304.09999990463,197307.461,197607.298,,3,the
screen,html.Screen,2_1_1_1_4,2022-02-02T17:50:30.583Z,,,,,,,,,,,,,,,,,54,,,,,,,,,,,,,,359.2019999999902,,response,,,,100,,,,,,,Space,keypress(Space),,,,,,,,-- --- ---- --- French ----- ------- ---- -- --- ------- --<br>------- ---------- ------ -- ----- -- ----- -- ---- ------<br>--- ----- --- --- ------ -------- ----- --- ------ ----- --<br>----- ----- ---------- --- --- ------ ------ ---- -- ------<br>------- --- ------ ----- --- ---- ------- -- ---- --- --<br>------- ------,197967.09999990463,197966.5,197591.532,197604.80000019073,197607.298,197973.817,,4,French
screen,html.Screen,2_1_1_1_5,2022-02-02T17:50:31.025Z,,,,,,,,,,,,,,,,,54,,,,,,,,,,,,,,434.68299999999,,response,,,,100,,,,,,,Space,keypress(Space),,,,,,,,-- --- ---- --- ------ crown ------- ---- -- --- ------- --<br>------- ---------- ------ -- ----- -- ----- -- ---- ------<br>--- ----- --- --- ------ -------- ----- --- ------ ----- --<br>----- ----- ---------- --- --- ------ ------ ---- -- ------<br>------- --- ------ ----- --- ---- ------- -- ---- --- --<br>------- ------,198409.09999990463,198408.5,197957.934,197967.30000019073,197973.817,198423.479,,5,crown
screen,html.Screen,2_1_1_1_6,2022-02-02T17:50:31.401Z,,,,,,,,,,,,,,,,,54,,,,,,,,,,,,,,361.1209999046405,,response,,,,100,,,,,,,Space,keypress(Space),,,,,,,,-- --- ---- --- ------ ----- secured ---- -- --- ------- --<br>------- ---------- ------ -- ----- -- ----- -- ---- ------<br>--- ----- --- --- ------ -------- ----- --- ------ ----- --<br>----- ----- ---------- --- --- ------ ------ ---- -- ------<br>------- --- ------ ----- --- ---- ------- -- ---- --- --<br>------- ------,198785.30000019073,198784.59999990463,198406.792,198409.2000002861,198423.479,198789.757,,6,secured
screen,html.Screen,2_1_1_1_7,2022-02-02T17:50:31.857Z,,,,,,,,,,,,,,,,,54,,,,,,,,,,,,,,450.44300028608995,,response,,,,100,,,,,,,Space,keypress(Space),,,,,,,,-- --- ---- --- ------ ----- ------- much -- --- ------- --<br>------- ---------- ------ -- ----- -- ----- -- ---- ------<br>--- ----- --- --- ------ -------- ----- --- ------ ----- --<br>----- ----- ---------- --- --- ------ ------ ---- -- ------<br>------- --- ------ ----- --- ---- ------- -- ---- --- --<br>------- ------,199241,199240.2000002861,198774.02,198785.5,198789.757,199257.072,,7,much
screen,html.Screen,2_1_1_1_8,2022-02-02T17:50:32.228Z,,,,,,,,,,,,,,,,,54,,,,,,,,,,,,,,354.2280001907493,,response,,,,100,,,,,,,Space,keypress(Space),,,,,,,,-- --- ---- --- ------ ----- ------- ---- of --- ------- --<br>------- ---------- ------ -- ----- -- ----- -- ---- ------<br>--- ----- --- --- ------ -------- ----- --- ------ ----- --<br>----- ----- ---------- --- --- ------ ------ ---- -- ------<br>------- --- ------ ----- --- ---- ------- -- ---- --- --<br>------- ------,199611.90000009537,199611.30000019073,199239.549,199241.2000002861,199257.072,199622.904,,8,of
screen,html.Screen,2_1_1_1_9,2022-02-02T17:50:32.601Z,,,,,,,,,,,,,,,,,54,,,,,,,,,,,,,,360.9960000953579,,response,,,,100,,,,,,,Space,keypress(Space),,,,,,,,-- --- ---- --- ------ ----- ------- ---- -- its ------- --<br>------- ---------- ------ -- ----- -- ----- -- ---- ------<br>--- ----- --- --- ------ -------- ----- --- ------ ----- --<br>----- ----- ---------- --- --- ------ ------ ---- -- ------<br>------- --- ------ ----- --- ---- ------- -- ---- --- --<br>------- ------,199984.59999990463,199983.90000009537,199606.792,199612.09999990463,199622.904,199989.013,,9,its
screen,html.Screen,2_1_1_1_10,2022-02-02T17:50:32.961Z,,,,,,,,,,,,,,,,,54,,,,,,,,,,,,,,355.687000286096,,response,,,,100,,,,,,,Space,keypress(Space),,,,,,,,-- --- ---- --- ------ ----- ------- ---- -- --- revenue --<br>------- ---------- ------ -- ----- -- ----- -- ---- ------<br>--- ----- --- --- ------ -------- ----- --- ------ ----- --<br>----- ----- ---------- --- --- ------ ------ ---- -- ------<br>------- --- ------ ----- --- ---- ------- -- ---- --- --<br>------- ------,200345.5,200344.7000002861,199972.546,199984.7000002861,199989.013,200356.33,,10,revenue
screen,html.Screen,2_1_1_1_11,2022-02-02T17:50:33.440Z,,,,,,,,,,,,,,,,,54,,,,,,,,,,,,,,466.97000019074767,,response,,,,100,,,,,,,Space,keypress(Space),,,,,,,,-- --- ---- --- ------ ----- ------- ---- -- --- ------- by<br>------- ---------- ------ -- ----- -- ----- -- ---- ------<br>--- ----- --- --- ------ -------- ----- --- ------ ----- --<br>----- ----- ---------- --- --- ------ ------ ---- -- ------<br>------- --- ------ ----- --- ---- ------- -- ---- --- --<br>------- ------,200824,200823.30000019073,200339.629,200345.59999990463,200356.33,200839.325,,11,by
screen,html.Screen,2_1_1_1_12,2022-02-02T17:50:33.980Z,,,,,,,,,,,,,,,,,54,,,,,,,,,,,,,,524.2749999046209,,response,,,,100,,,,,,,Space,keypress(Space),,,,,,,,-- --- ---- --- ------ ----- ------- ---- -- --- ------- --<br>issuing ---------- ------ -- ----- -- ----- -- ---- ------<br>--- ----- --- --- ------ -------- ----- --- ------ ----- --<br>----- ----- ---------- --- --- ------ ------ ---- -- ------<br>------- --- ------ ----- --- ---- ------- -- ---- --- --<br>------- ------,201364.40000009537,201363.59999990463,200821.785,200824.30000019073,200839.325,201371.378,,12,issuing
screen,html.Screen,2_1_1_1_13,2022-02-02T17:50:34.458Z,,,,,,,,,,,,,,,,,54,,,,,,,,,,,,,,469.622000000003,,response,,,,100,,,,,,,Space,keypress(Space),,,,,,,,-- --- ---- --- ------ ----- ------- ---- -- --- ------- --<br>------- government ------ -- ----- -- ----- -- ---- ------<br>--- ----- --- --- ------ -------- ----- --- ------ ----- --<br>----- ----- ---------- --- --- ------ ------ ---- -- ------<br>------- --- ------ ----- --- ---- ------- -- ---- --- --<br>------- ------,201841.80000019073,201841,201355.582,201364.5,201371.378,201855.238,,13,government
screen,html.Screen,2_1_1_1_14,2022-02-02T17:50:34.864Z,,,,,,,,,,,,,,,,,54,,,,,,,,,,,,,,392.4620002860902,,response,,,,100,,,,,,,Space,keypress(Space),,,,,,,,-- --- ---- --- ------ ----- ------- ---- -- --- ------- --<br>------- ---------- bonds. -- ----- -- ----- -- ---- ------<br>--- ----- --- --- ------ -------- ----- --- ------ ----- --<br>----- ----- ---------- --- --- ------ ------ ---- -- ------<br>------- --- ------ ----- --- ---- ------- -- ---- --- --<br>------- ------,202248.30000019073,202247.7000002861,201838.647,201842,201855.238,202254.2,,14,bonds.
screen,html.Screen,2_1_1_1_15,2022-02-02T17:50:36.211Z,,,,,,,,,,,,,,,,,54,,,,,,,,,,,,,,1339.7999999999884,,response,,,,100,,,,,,,Space,keypress(Space),,,,,,,,-- --- ---- --- ------ ----- ------- ---- -- --- ------- --<br>------- ---------- ------ In ----- -- ----- -- ---- ------<br>--- ----- --- --- ------ -------- ----- --- ------ ----- --<br>----- ----- ---------- --- --- ------ ------ ---- -- ------<br>------- --- ------ ----- --- ---- ------- -- ---- --- --<br>------- ------,203594.80000019073,203594,202238.302,202248.40000009537,202254.2,203603.232,,15,In
screen,html.Screen,2_1_1_1_16,2022-02-02T17:50:36.567Z,,,,,,,,,,,,,,,,,54,,,,,,,,,,,,,,347.0680001907458,,response,,,,100,,,,,,,Space,keypress(Space),,,,,,,,"-- --- ---- --- ------ ----- ------- ---- -- --- ------- --<br>------- ---------- ------ -- 1727, -- ----- -- ---- ------<br>--- ----- --- --- ------ -------- ----- --- ------ ----- --<br>----- ----- ---------- --- --- ------ ------ ---- -- ------<br>------- --- ------ ----- --- ---- ------- -- ---- --- --<br>------- ------",203951.2000002861,203950.30000019073,203587.413,203595,203603.232,203952.91,,16,"1727,"
screen,html.Screen,2_1_1_1_17,2022-02-02T17:50:37.681Z,,,,,,,,,,,,,,,,,54,,,,,,,,,,,,,,1111.5899999999965,,response,,,,100,,,,,,,Space,keypress(Space),,,,,,,,-- --- ---- --- ------ ----- ------- ---- -- --- ------- --<br>------- ---------- ------ -- ----- in ----- -- ---- ------<br>--- ----- --- --- ------ -------- ----- --- ------ ----- --<br>----- ----- ---------- --- --- ------ ------ ---- -- ------<br>------- --- ------ ----- --- ---- ------- -- ---- --- --<br>------- ------,205065.30000019073,205064.5,203937.165,203951.30000019073,203952.91,205068.814,,17,in
screen,html.Screen,2_1_1_1_18,2022-02-02T17:50:38.058Z,,,,,,,,,,,,,,,,,54,,,,,,,,,,,,,,372.88600028608926,,response,,,,100,,,,,,,Space,keypress(Space),,,,,,,,-- --- ---- --- ------ ----- ------- ---- -- --- ------- --<br>------- ---------- ------ -- ----- -- order -- ---- ------<br>--- ----- --- --- ------ -------- ----- --- ------ ----- --<br>----- ----- ---------- --- --- ------ ------ ---- -- ------<br>------- --- ------ ----- --- ---- ------- -- ---- --- --<br>------- ------,205442.5,205441.7000002861,205053.082,205065.40000009537,205068.814,205451.928,,18,order
screen,html.Screen,2_1_1_1_19,2022-02-02T17:50:38.464Z,,,,,,,,,,,,,,,,,54,,,,,,,,,,,,,,395.3720001907204,,response,,,,100,,,,,,,Space,keypress(Space),,,,,,,,-- --- ---- --- ------ ----- ------- ---- -- --- ------- --<br>------- ---------- ------ -- ----- -- ----- to ---- ------<br>--- ----- --- --- ------ -------- ----- --- ------ ----- --<br>----- ----- ---------- --- --- ------ ------ ---- -- ------<br>------- --- ------ ----- --- ---- ------- -- ---- --- --<br>------- ------,205848,205847.30000019073,205436.101,205442.7000002861,205451.928,205851.703,,19,to
screen,html.Screen,2_1_1_1_20,2022-02-02T17:50:38.827Z,,,,,,,,,,,,,,,,,54,,,,,,,,,,,,,,358.1970000953588,,response,,,,100,,,,,,,Space,keypress(Space),,,,,,,,-- --- ---- --- ------ ----- ------- ---- -- --- ------- --<br>------- ---------- ------ -- ----- -- ----- -- save ------<br>--- ----- --- --- ------ -------- ----- --- ------ ----- --<br>----- ----- ---------- --- --- ------ ------ ---- -- ------<br>------- --- ------ ----- --- ---- ------- -- ---- --- --<br>------- ------,206210.5,206209.90000009537,205835.819,205848.09999990463,205851.703,206218.084,,20,save
screen,html.Screen,2_1_1_1_21,2022-02-02T17:50:39.213Z,,,,,,,,,,,,,,,,,54,,,,,,,,,,,,,,378.41599999999744,,response,,,,100,,,,,,,Space,keypress(Space),,,,,,,,"-- --- ---- --- ------ ----- ------- ---- -- --- ------- --<br>------- ---------- ------ -- ----- -- ----- -- ---- money,<br>--- ----- --- --- ------ -------- ----- --- ------ ----- --<br>----- ----- ---------- --- --- ------ ------ ---- -- ------<br>------- --- ------ ----- --- ---- ------- -- ---- --- --<br>------- ------",206597.30000019073,206596.5,206201.625,206210.7000002861,206218.084,206601.12,,21,"money,"
screen,html.Screen,2_1_1_1_22,2022-02-02T17:50:39.750Z,,,,,,,,,,,,,,,,,54,,,,,,,,,,,,,,532.4799999046372,,response,,,,100,,,,,,,Space,keypress(Space),,,,,,,,-- --- ---- --- ------ ----- ------- ---- -- --- ------- --<br>------- ---------- ------ -- ----- -- ----- -- ---- ------<br>the ----- --- --- ------ -------- ----- --- ------ ----- --<br>----- ----- ---------- --- --- ------ ------ ---- -- ------<br>------- --- ------ ----- --- ---- ------- -- ---- --- --<br>------- ------,207134.5,207133.59999990463,206585.31,206597.5,206601.12,207151.36,,22,the
screen,html.Screen,2_1_1_1_23,2022-02-02T17:50:40.022Z,,,,,,,,,,,,,,,,,54,,,,,,,,,,,,,,253.94000019074883,,response,,,,100,,,,,,,Space,keypress(Space),,,,,,,,-- --- ---- --- ------ ----- ------- ---- -- --- ------- --<br>------- ---------- ------ -- ----- -- ----- -- ---- ------<br>--- state --- --- ------ -------- ----- --- ------ ----- --<br>----- ----- ---------- --- --- ------ ------ ---- -- ------<br>------- --- ------ ----- --- ---- ------- -- ---- --- --<br>------- ------,207406.09999990463,207405.30000019073,207134.125,207134.59999990463,207151.36,207417.896,,23,state
screen,html.Screen,2_1_1_1_24,2022-02-02T17:50:40.683Z,,,,,,,,,,,,,,,,,54,,,,,,,,,,,,,,648.0040000953595,,response,,,,100,,,,,,,Space,keypress(Space),,,,,,,,-- --- ---- --- ------ ----- ------- ---- -- --- ------- --<br>------- ---------- ------ -- ----- -- ----- -- ---- ------<br>--- ----- cut --- ------ -------- ----- --- ------ ----- --<br>----- ----- ---------- --- --- ------ ------ ---- -- ------<br>------- --- ------ ----- --- ---- ------- -- ---- --- --<br>------- ------,208066.59999990463,208065.90000009537,207401.517,207406.40000009537,207417.896,208084.278,,24,cut
screen,html.Screen,2_1_1_1_25,2022-02-02T17:50:41.260Z,,,,,,,,,,,,,,,,,54,,,,,,,,,,,,,,559.3219999046414,,response,,,,100,,,,,,,Space,keypress(Space),,,,,,,,-- --- ---- --- ------ ----- ------- ---- -- --- ------- --<br>------- ---------- ------ -- ----- -- ----- -- ---- ------<br>--- ----- --- the ------ -------- ----- --- ------ ----- --<br>----- ----- ---------- --- --- ------ ------ ---- -- ------<br>------- --- ------ ----- --- ---- ------- -- ---- --- --<br>------- ------,208644.40000009537,208643.59999990463,208066.789,208066.7000002861,208084.278,208649.615,,25,the
screen,html.Screen,2_1_1_1_26,2022-02-02T17:50:41.658Z,,,,,,,,,,,,,,,,,54,,,,,,,,,,,,,,392.1850001907442,,response,,,,100,,,,,,,Space,keypress(Space),,,,,,,,-- --- ---- --- ------ ----- ------- ---- -- --- ------- --<br>------- ---------- ------ -- ----- -- ----- -- ---- ------<br>--- ----- --- --- bonds' -------- ----- --- ------ ----- --<br>----- ----- ---------- --- --- ------ ------ ---- -- ------<br>------- --- ------ ----- --- ---- ------- -- ---- --- --<br>------- ------,209042.5,209041.80000019073,208633.923,208645.40000009537,208649.615,209049.46,,26,bonds'
screen,html.Screen,2_1_1_1_27,2022-02-02T17:50:42.220Z,,,,,,,,,,,,,,,,,54,,,,,,,,,,,,,,554.2400002861104,,response,,,,100,,,,,,,Space,keypress(Space),,,,,,,,-- --- ---- --- ------ ----- ------- ---- -- --- ------- --<br>------- ---------- ------ -- ----- -- ----- -- ---- ------<br>--- ----- --- --- ------ interest ----- --- ------ ----- --<br>----- ----- ---------- --- --- ------ ------ ---- -- ------<br>------- --- ------ ----- --- ---- ------- -- ---- --- --<br>------- ------,209604.5,209603.7000002861,209033.642,209042.59999990463,209049.46,209616.502,,27,interest
screen,html.Screen,2_1_1_1_28,2022-02-02T17:50:42.585Z,,,,,,,,,,,,,,,,,54,,,,,,,,,,,,,,351.89800009535975,,response,,,,100,,,,,,,Space,keypress(Space),,,,,,,,-- --- ---- --- ------ ----- ------- ---- -- --- ------- --<br>------- ---------- ------ -- ----- -- ----- -- ---- ------<br>--- ----- --- --- ------ -------- rate. --- ------ ----- --<br>----- ----- ---------- --- --- ------ ------ ---- -- ------<br>------- --- ------ ----- --- ---- ------- -- ---- --- --<br>------- ------,209969,209968.40000009537,209599.995,209604.7000002861,209616.502,209982.365,,28,rate.
screen,html.Screen,2_1_1_1_29,2022-02-02T17:50:43.255Z,,,,,,,,,,,,,,,,,54,,,,,,,,,,,,,,655.5350000953767,,response,,,,100,,,,,,,Space,keypress(Space),,,,,,,,-- --- ---- --- ------ ----- ------- ---- -- --- ------- --<br>------- ---------- ------ -- ----- -- ----- -- ---- ------<br>--- ----- --- --- ------ -------- ----- The ------ ----- --<br>----- ----- ---------- --- --- ------ ------ ---- -- ------<br>------- --- ------ ----- --- ---- ------- -- ---- --- --<br>------- ------,210638.7000002861,210637.90000009537,209965.653,209969.2000002861,209982.365,210649.137,,29,The
screen,html.Screen,2_1_1_1_30,2022-02-02T17:50:43.667Z,,,,,,,,,,,,,,,,,54,,,,,,,,,,,,,,401.0630002861144,,response,,,,100,,,,,,,Space,keypress(Space),,,,,,,,-- --- ---- --- ------ ----- ------- ---- -- --- ------- --<br>------- ---------- ------ -- ----- -- ----- -- ---- ------<br>--- ----- --- --- ------ -------- ----- --- market ----- --<br>----- ----- ---------- --- --- ------ ------ ---- -- ------<br>------- --- ------ ----- --- ---- ------- -- ---- --- --<br>------- ------,211050.90000009537,211050.2000002861,210631.873,210638.90000009537,210649.137,211065.23,,30,market
screen,html.Screen,2_1_1_1_31,2022-02-02T17:50:44.061Z,,,,,,,,,,,,,,,,,54,,,,,,,,,,,,,,379.0700001907244,,response,,,,100,,,,,,,Space,keypress(Space),,,,,,,,-- --- ---- --- ------ ----- ------- ---- -- --- ------- --<br>------- ---------- ------ -- ----- -- ----- -- ---- ------<br>--- ----- --- --- ------ -------- ----- --- ------ value --<br>----- ----- ---------- --- --- ------ ------ ---- -- ------<br>------- --- ------ ----- --- ---- ------- -- ---- --- --<br>------- ------,211445.09999990463,211444.30000019073,211048.062,211051.09999990463,211065.23,211447.77,,31,value
screen,html.Screen,2_1_1_1_32,2022-02-02T17:50:44.533Z,,,,,,,,,,,,,,,,,54,,,,,,,,,,,,,,468.82999990464305,,response,,,,100,,,,,,,Space,keypress(Space),,,,,,,,-- --- ---- --- ------ ----- ------- ---- -- --- ------- --<br>------- ---------- ------ -- ----- -- ----- -- ---- ------<br>--- ----- --- --- ------ -------- ----- --- ------ ----- of<br>----- ----- ---------- --- --- ------ ------ ---- -- ------<br>------- --- ------ ----- --- ---- ------- -- ---- --- --<br>------- ------,211917.40000009537,211916.59999990463,211431.186,211445.2000002861,211447.77,211930.866,,32,of
screen,html.Screen,2_1_1_1_33,2022-02-02T17:50:44.920Z,,,,,,,,,,,,,,,,,54,,,,,,,,,,,,,,372.4340001907258,,response,,,,100,,,,,,,Space,keypress(Space),,,,,,,,-- --- ---- --- ------ ----- ------- ---- -- --- ------- --<br>------- ---------- ------ -- ----- -- ----- -- ---- ------<br>--- ----- --- --- ------ -------- ----- --- ------ ----- --<br>these ----- ---------- --- --- ------ ------ ---- -- ------<br>------- --- ------ ----- --- ---- ------- -- ---- --- --<br>------- ------,212303.90000009537,212303.30000019073,211914.179,211917.5,211930.866,212314.619,,33,these
screen,html.Screen,2_1_1_1_34,2022-02-02T17:50:45.261Z,,,,,,,,,,,,,,,,,54,,,,,,,,,,,,,,329.4809999046265,,response,,,,100,,,,,,,Space,keypress(Space),,,,,,,,-- --- ---- --- ------ ----- ------- ---- -- --- ------- --<br>------- ---------- ------ -- ----- -- ----- -- ---- ------<br>--- ----- --- --- ------ -------- ----- --- ------ ----- --<br>----- bonds ---------- --- --- ------ ------ ---- -- ------<br>------- --- ------ ----- --- ---- ------- -- ---- --- --<br>------- ------,212644.80000019073,212644.09999990463,212298.035,212304.09999990463,212314.619,212646.957,,34,bonds
screen,html.Screen,2_1_1_1_35,2022-02-02T17:50:45.900Z,,,,,,,,,,,,,,,,,54,,,,,,,,,,,,,,636.1429999046377,,response,,,,100,,,,,,,Space,keypress(Space),,,,,,,,"-- --- ---- --- ------ ----- ------- ---- -- --- ------- --<br>------- ---------- ------ -- ----- -- ----- -- ---- ------<br>--- ----- --- --- ------ -------- ----- --- ------ ----- --<br>----- ----- plummeted, --- --- ------ ------ ---- -- ------<br>------- --- ------ ----- --- ---- ------- -- ---- --- --<br>------- ------",213283.80000019073,213283.09999990463,212631.148,212645.09999990463,212646.957,213297.417,,35,"plummeted,"
screen,html.Screen,2_1_1_1_36,2022-02-02T17:50:46.466Z,,,,,,,,,,,,,,,,,54,,,,,,,,,,,,,,552.1829999046458,,response,,,,100,,,,,,,Space,keypress(Space),,,,,,,,-- --- ---- --- ------ ----- ------- ---- -- --- ------- --<br>------- ---------- ------ -- ----- -- ----- -- ---- ------<br>--- ----- --- --- ------ -------- ----- --- ------ ----- --<br>----- ----- ---------- and --- ------ ------ ---- -- ------<br>------- --- ------ ----- --- ---- ------- -- ---- --- --<br>------- ------,213850.2000002861,213849.59999990463,213280.797,213284,213297.417,213863.643,,36,and
screen,html.Screen,2_1_1_1_37,2022-02-02T17:50:47.068Z,,,,,,,,,,,,,,,,,54,,,,,,,,,,,,,,588.1570001907239,,response,,,,100,,,,,,,Space,keypress(Space),,,,,,,,-- --- ---- --- ------ ----- ------- ---- -- --- ------- --<br>------- ---------- ------ -- ----- -- ----- -- ---- ------<br>--- ----- --- --- ------ -------- ----- --- ------ ----- --<br>----- ----- ---------- --- the ------ ------ ---- -- ------<br>------- --- ------ ----- --- ---- ------- -- ---- --- --<br>------- ------,214452.5,214451.80000019073,213847.063,213850.40000009537,213863.643,214462.62,,37,the
screen,html.Screen,2_1_1_1_38,2022-02-02T17:50:47.511Z,,,,,,,,,,,,,,,,,54,,,,,,,,,,,,,,431.38000000000466,,response,,,,100,,,,,,,Space,keypress(Space),,,,,,,,-- --- ---- --- ------ ----- ------- ---- -- --- ------- --<br>------- ---------- ------ -- ----- -- ----- -- ---- ------<br>--- ----- --- --- ------ -------- ----- --- ------ ----- --<br>----- ----- ---------- --- --- market ------ ---- -- ------<br>------- --- ------ ----- --- ---- ------- -- ---- --- --<br>------- ------,214894.80000019073,214894,214446.005,214452.59999990463,214462.62,214895.44,,38,market
screen,html.Screen,2_1_1_1_39,2022-02-02T17:50:47.924Z,,,,,,,,,,,,,,,,,54,,,,,,,,,,,,,,411.86000019073253,,response,,,,100,,,,,,,Space,keypress(Space),,,,,,,,-- --- ---- --- ------ ----- ------- ---- -- --- ------- --<br>------- ---------- ------ -- ----- -- ----- -- ---- ------<br>--- ----- --- --- ------ -------- ----- --- ------ ----- --<br>----- ----- ---------- --- --- ------ became ---- -- ------<br>------- --- ------ ----- --- ---- ------- -- ---- --- --<br>------- ------,215308.09999990463,215307.30000019073,214879.651,214895.09999990463,214895.44,215311.752,,39,became
screen,html.Screen,2_1_1_1_40,2022-02-02T17:50:48.349Z,,,,,,,,,,,,,,,,,54,,,,,,,,,,,,,,420.5480001907272,,response,,,,100,,,,,,,Space,keypress(Space),,,,,,,,-- --- ---- --- ------ ----- ------- ---- -- --- ------- --<br>------- ---------- ------ -- ----- -- ----- -- ---- ------<br>--- ----- --- --- ------ -------- ----- --- ------ ----- --<br>----- ----- ---------- --- --- ------ ------ wary -- ------<br>------- --- ------ ----- --- ---- ------- -- ---- --- --<br>------- ------,215733.09999990463,215732.30000019073,215295.968,215308.30000019073,215311.752,215745.691,,40,wary
screen,html.Screen,2_1_1_1_41,2022-02-02T17:50:48.861Z,,,,,,,,,,,,,,,,,54,,,,,,,,,,,,,,498.60900019074325,,response,,,,100,,,,,,,Space,keypress(Space),,,,,,,,-- --- ---- --- ------ ----- ------- ---- -- --- ------- --<br>------- ---------- ------ -- ----- -- ----- -- ---- ------<br>--- ----- --- --- ------ -------- ----- --- ------ ----- --<br>----- ----- ---------- --- --- ------ ------ ---- of ------<br>------- --- ------ ----- --- ---- ------- -- ---- --- --<br>------- ------,216245.2000002861,216244.30000019073,215729.012,215733.30000019073,215745.691,216261.689,,41,of
screen,html.Screen,2_1_1_1_42,2022-02-02T17:50:49.589Z,,,,,,,,,,,,,,,,,54,,,,,,,,,,,,,,710.4109999046195,,response,,,,100,,,,,,,Space,keypress(Space),,,,,,,,-- --- ---- --- ------ ----- ------- ---- -- --- ------- --<br>------- ---------- ------ -- ----- -- ----- -- ---- ------<br>--- ----- --- --- ------ -------- ----- --- ------ ----- --<br>----- ----- ---------- --- --- ------ ------ ---- -- French<br>------- --- ------ ----- --- ---- ------- -- ---- --- --<br>------- ------,216972.7000002861,216972.09999990463,216244.588,216245.40000009537,216261.689,216977.324,,42,French
screen,html.Screen,2_1_1_1_43,2022-02-02T17:50:50.168Z,,,,,,,,,,,,,,,,,54,,,,,,,,,,,,,,573.876000286109,,response,,,,100,,,,,,,Space,keypress(Space),,,,,,,,-- --- ---- --- ------ ----- ------- ---- -- --- ------- --<br>------- ---------- ------ -- ----- -- ----- -- ---- ------<br>--- ----- --- --- ------ -------- ----- --- ------ ----- --<br>----- ----- ---------- --- --- ------ ------ ---- -- ------<br>credit. --- ------ ----- --- ---- ------- -- ---- --- --<br>------- ------,217552,217551.2000002861,216960.707,216972.80000019073,216977.324,217561.069,,43,credit.
screen,html.Screen,2_1_1_1_44,2022-02-02T17:50:50.860Z,,,,,,,,,,,,,,,,,54,,,,,,,,,,,,,,682.6310002861137,,response,,,,100,,,,,,,Space,keypress(Space),,,,,,,,-- --- ---- --- ------ ----- ------- ---- -- --- ------- --<br>------- ---------- ------ -- ----- -- ----- -- ---- ------<br>--- ----- --- --- ------ -------- ----- --- ------ ----- --<br>----- ----- ---------- --- --- ------ ------ ---- -- ------<br>------- The ------ ----- --- ---- ------- -- ---- --- --<br>------- ------,218244.5,218243.7000002861,217544.454,217552.09999990463,217561.069,218260.092,,44,The
screen,html.Screen,2_1_1_1_45,2022-02-02T17:50:51.337Z,,,,,,,,,,,,,,,,,54,,,,,,,,,,,,,,460.5079999046284,,response,,,,100,,,,,,,Space,keypress(Space),,,,,,,,-- --- ---- --- ------ ----- ------- ---- -- --- ------- --<br>------- ---------- ------ -- ----- -- ----- -- ---- ------<br>--- ----- --- --- ------ -------- ----- --- ------ ----- --<br>----- ----- ---------- --- --- ------ ------ ---- -- ------<br>------- --- French ----- --- ---- ------- -- ---- --- --<br>------- ------,218721.40000009537,218720.59999990463,218243.156,218244.59999990463,218260.092,218726.177,,45,French
screen,html.Screen,2_1_1_1_46,2022-02-02T17:50:51.760Z,,,,,,,,,,,,,,,,,54,,,,,,,,,,,,,,416.52300028610625,,response,,,,100,,,,,,,Space,keypress(Space),,,,,,,,-- --- ---- --- ------ ----- ------- ---- -- --- ------- --<br>------- ---------- ------ -- ----- -- ----- -- ---- ------<br>--- ----- --- --- ------ -------- ----- --- ------ ----- --<br>----- ----- ---------- --- --- ------ ------ ---- -- ------<br>------- --- ------ state --- ---- ------- -- ---- --- --<br>------- ------,219143.5,219142.7000002861,218710.302,218721.59999990463,218726.177,219159.286,,46,state
screen,html.Screen,2_1_1_1_47,2022-02-02T17:50:52.076Z,,,,,,,,,,,,,,,,,54,,,,,,,,,,,,,,299.9140002861095,,response,,,,100,,,,,,,Space,keypress(Space),,,,,,,,-- --- ---- --- ------ ----- ------- ---- -- --- ------- --<br>------- ---------- ------ -- ----- -- ----- -- ---- ------<br>--- ----- --- --- ------ -------- ----- --- ------ ----- --<br>----- ----- ---------- --- --- ------ ------ ---- -- ------<br>------- --- ------ ----- was ---- ------- -- ---- --- --<br>------- ------,219460,219459.2000002861,219142.52,219143.7000002861,219159.286,219475.919,,47,was
screen,html.Screen,2_1_1_1_48,2022-02-02T17:50:52.346Z,,,,,,,,,,,,,,,,,54,,,,,,,,,,,,,,253.68099990463816,,response,,,,100,,,,,,,Space,keypress(Space),,,,,,,,-- --- ---- --- ------ ----- ------- ---- -- --- ------- --<br>------- ---------- ------ -- ----- -- ----- -- ---- ------<br>--- ----- --- --- ------ -------- ----- --- ------ ----- --<br>----- ----- ---------- --- --- ------ ------ ---- -- ------<br>------- --- ------ ----- --- left ------- -- ---- --- --<br>------- ------,219730.30000019073,219729.59999990463,219458.916,219460,219475.919,219742.95,,48,left
screen,html.Screen,2_1_1_1_49,2022-02-02T17:50:52.873Z,,,,,,,,,,,,,,,,,54,,,,,,,,,,,,,,513.4500000953558,,response,,,,100,,,,,,,Space,keypress(Space),,,,,,,,-- --- ---- --- ------ ----- ------- ---- -- --- ------- --<br>------- ---------- ------ -- ----- -- ----- -- ---- ------<br>--- ----- --- --- ------ -------- ----- --- ------ ----- --<br>----- ----- ---------- --- --- ------ ------ ---- -- ------<br>------- --- ------ ----- --- ---- without -- ---- --- --<br>------- ------,220257.2000002861,220256.40000009537,219726.272,219730.5,219742.95,220258.392,,49,without
screen,html.Screen,2_1_1_1_50,2022-02-02T17:50:53.151Z,,,,,,,,,,,,,,,,,54,,,,,,,,,,,,,,275.80800028610975,,response,,,,100,,,,,,,Space,keypress(Space),,,,,,,,-- --- ---- --- ------ ----- ------- ---- -- --- ------- --<br>------- ---------- ------ -- ----- -- ----- -- ---- ------<br>--- ----- --- --- ------ -------- ----- --- ------ ----- --<br>----- ----- ---------- --- --- ------ ------ ---- -- ------<br>------- --- ------ ----- --- ---- ------- an ---- --- --<br>------- ------,220534.80000019073,220534.2000002861,220242.015,220257.30000019073,220258.392,220541.474,,50,an
screen,html.Screen,2_1_1_1_51,2022-02-02T17:50:53.632Z,,,,,,,,,,,,,,,,,54,,,,,,,,,,,,,,474.42600009538,,response,,,,100,,,,,,,Space,keypress(Space),,,,,,,,-- --- ---- --- ------ ----- ------- ---- -- --- ------- --<br>------- ---------- ------ -- ----- -- ----- -- ---- ------<br>--- ----- --- --- ------ -------- ----- --- ------ ----- --<br>----- ----- ---------- --- --- ------ ------ ---- -- ------<br>------- --- ------ ----- --- ---- ------- -- easy --- --<br>------- ------,221016.5,221015.90000009537,220525.721,220534.90000009537,220541.474,221024.542,,51,easy
screen,html.Screen,2_1_1_1_52,2022-02-02T17:50:53.999Z,,,,,,,,,,,,,,,,,54,,,,,,,,,,,,,,358.15800028611557,,response,,,,100,,,,,,,Space,keypress(Space),,,,,,,,-- --- ---- --- ------ ----- ------- ---- -- --- ------- --<br>------- ---------- ------ -- ----- -- ----- -- ---- ------<br>--- ----- --- --- ------ -------- ----- --- ------ ----- --<br>----- ----- ---------- --- --- ------ ------ ---- -- ------<br>------- --- ------ ----- --- ---- ------- -- ---- way --<br>------- ------,221383.40000009537,221382.7000002861,221008.063,221016.59999990463,221024.542,221390.985,,52,way
screen,html.Screen,2_1_1_1_53,2022-02-02T17:50:54.400Z,,,,,,,,,,,,,,,,,54,,,,,,,,,,,,,,392.71500028611626,,response,,,,100,,,,,,,Space,keypress(Space),,,,,,,,-- --- ---- --- ------ ----- ------- ---- -- --- ------- --<br>------- ---------- ------ -- ----- -- ----- -- ---- ------<br>--- ----- --- --- ------ -------- ----- --- ------ ----- --<br>----- ----- ---------- --- --- ------ ------ ---- -- ------<br>------- --- ------ ----- --- ---- ------- -- ---- --- of<br>------- ------,221784.40000009537,221783.7000002861,221374.459,221383.59999990463,221390.985,221790.776,,53,of
screen,html.Screen,2_1_1_1_54,2022-02-02T17:50:55.185Z,,,,,,,,,,,,,,,,,54,,,,,,,,,,,,,,777.4240002860897,,response,,,,100,,,,,,,Space,keypress(Space),,,,,,,,-- --- ---- --- ------ ----- ------- ---- -- --- ------- --<br>------- ---------- ------ -- ----- -- ----- -- ---- ------<br>--- ----- --- --- ------ -------- ----- --- ------ ----- --<br>----- ----- ---------- --- --- ------ ------ ---- -- ------<br>------- --- ------ ----- --- ---- ------- -- ---- --- --<br>raising ------,222568.90000009537,222568.2000002861,221774.862,221784.59999990463,221790.776,222573.415,,54,raising
screen,html.Screen,2_1_1_1_55,2022-02-02T17:50:55.967Z,,,,,,,,,,,,,,,,,54,,,,,,,,,,,,,,777.2850002860941,,response,,,,100,,,,,,,Space,keypress(Space),,,,,,,,-- --- ---- --- ------ ----- ------- ---- -- --- ------- --<br>------- ---------- ------ -- ----- -- ----- -- ---- ------<br>--- ----- --- --- ------ -------- ----- --- ------ ----- --<br>----- ----- ---------- --- --- ------ ------ ---- -- ------<br>------- --- ------ ----- --- ---- ------- -- ---- --- --<br>------- money.,223351.40000009537,223350.7000002861,222556.841,222569.09999990463,222573.415,223356.311,,55,money.
Item 100,flow.Loop,2_1_1_1,2022-02-02T17:50:55.968Z,,,,,,,,,,,,,,,,,,,,,,,,,,,,,,,27724.493000286107,,completion,,,,,E,,,,,,,,,,,silence,,,,,223351.7000002861,223350.7000002861,195609.539,195610.5,195626.207,223356.311,,,
Question 1,html.Screen,2_1_1_2,2022-02-02T17:50:59.539Z,,,,,,,,,,,,,,,,,,,,,,,,,,,,true,TRUE,,3565.5890000953805,,response,,,,100,E,,,,,,TRUE,click #choice-1,,,,silence,,,,,226923,226921.90000009537,223340.45,223351.7000002861,223356.311,226937.763,,,
Question 2,html.Screen,2_1_1_3,2022-02-02T17:51:02.202Z,,,,,,,,,,,,,,,,,,,,,,,,,,,,true,FALSE,,2647.0370001907286,,response,,,,100,E,,,,,,FALSE,click #choice-2,,,,silence,,,,,229585.90000009537,229584.80000019073,226920.517,226923.09999990463,226937.763,229601.991,,,
Item 100,flow.Sequence,2_1_1,2022-02-02T17:51:02.202Z,,,,,,,,,,,,,,,,,,,,,,,,,,,,,,,43952.55600019073,,completion,,,,,,,,,,,,,,,,,,,,,229586.09999990463,229584.80000019073,185616.412,185629.09999990463,185632.244,229601.991,,,
End of Practice,html.Page,2_1_2,2022-02-02T17:51:08.681Z,,,,,,,,,,,,,,,,,,,,,,,,,,,,,,,6462.6089999046235,,form submission,,,,,,,,,,,,,,,,,,,,,236064.90000009537,236064.59999990463,229585.236,229586.2000002861,229601.991,236064.17,,,
Practice,flow.Sequence,2_1,2022-02-02T17:51:08.681Z,,,,,,,,,,,,,,,,,,,,,,,,,,,,,,,108542.30399990463,,completion,,,,,,,,,,,,,,,,,,,,,236065.2000002861,236064.59999990463,127505.855,127518.7000002861,127522.296,236064.17,,,
Trap_instruction,html.Page,2_2_0,2022-02-02T17:51:13.289Z,,,,,,,,,,,,,,,,,,,,,,,,,,,,,,,4608.230000095355,,form submission,,,,,,,,,,,,,,,,,,,,,240672.80000019073,240672.40000009537,236048.307,236065.40000009537,236064.17,240711.045,,,
trap_trial,html.Screen,2_2_1,2022-02-02T17:51:16.614Z,,,,,,,,,,,,,,,,,,,,,,,,,,,,true,1,,3285.954999999987,,response,,,,,,,,,,,1,click #choice-1,,,,,,,,,243998.09999990463,243997,240661.21,240673,240711.045,244008.699,,,
end of trap trial,html.Page,2_2_2,2022-02-02T17:51:19.213Z,,,,,,,,,,,,,,,,,,,,,,,,,,,,,,,2587.6010001907416,,form submission,,,,,,,,,,,,,,,,,,,,,246596.59999990463,246596.30000019073,243992.251,243999.30000019073,244008.699,246607.689,,,
Trap 1,flow.Sequence,2_2,2022-02-02T17:51:19.213Z,,,,,,,,,,,,,,,,,,,,,,,,,,,,,,,10532.130000190722,,completion,,,,,,,,,,,,,,,,,,,,,246596.80000019073,246596.30000019073,236048.307,236065.40000009537,236064.17,246607.689,,,
Standby,html.Page,2_3_0,2022-02-02T17:51:27.202Z,,,,,,,,,,,,,,,,,,,,,,,,,,,,,,,7993.864999999991,,timeout,,,,,,,,,,,,,,,,,,,,,254586.30000019073,254584.847,246590.968,246597,246607.689,254601.554,,,
Holding screen,html.Screen,2_3_1_0_0,2022-02-02T17:51:34.198Z,,,,,,,,,,,,,,,,,,,,,,,,,,,,,,,6995.0229999999865,,timeout,,,,,,,,,,,,,,,,,,,,,261581.80000019073,261580.063,254584.847,254586.5,254601.554,261596.577,,,
screen,html.Screen,2_3_1_0_1_0,2022-02-02T17:51:35.278Z,,,,,,,,,,,,,,,,,51,,,,,,,,,,,,,,1064.9230000000098,,response,,,,13,E,,,,,,Space,keypress(Space),,,,lyrical,,,,American -------- --- --- ---- --- --- ------ -- --------<br>---- --------- --- ------- ------------ ---------- ---------<br>--- ---------- ------- ---------- ------- -- -------- ----<br>---- --- ------ ----- ------ -- ---- --- ----- -- - -------<br>-------- -- --- --- -- ----- ----------- ----- -----------<br>---- --- ---------- --- ---- --- -- ----------,262662.2000002861,262661.5,261580.063,261582.09999990463,261596.577,262662.47,,0,American
screen,html.Screen,2_3_1_0_1_1,2022-02-02T17:51:35.604Z,,,,,,,,,,,,,,,,,51,,,,,,,,,,,,,,324.8300001907628,,response,,,,13,E,,,,,,Space,keypress(Space),,,,lyrical,,,,-------- industry --- --- ---- --- --- ------ -- --------<br>---- --------- --- ------- ------------ ---------- ---------<br>--- ---------- ------- ---------- ------- -- -------- ----<br>---- --- ------ ----- ------ -- ---- --- ----- -- - -------<br>-------- -- --- --- -- ----- ----------- ----- -----------<br>---- --- ---------- --- ---- --- -- ----------,262988.09999990463,262987.30000019073,262645.946,262662.7000002861,262662.47,262995.649,,1,industry
screen,html.Screen,2_3_1_0_1_2,2022-02-02T17:51:35.955Z,,,,,,,,,,,,,,,,,51,,,,,,,,,,,,,,342.3510000000242,,response,,,,13,E,,,,,,Space,keypress(Space),,,,lyrical,,,,-------- -------- may --- ---- --- --- ------ -- --------<br>---- --------- --- ------- ------------ ---------- ---------<br>--- ---------- ------- ---------- ------- -- -------- ----<br>---- --- ------ ----- ------ -- ---- --- ----- -- - -------<br>-------- -- --- --- -- ----- ----------- ----- -----------<br>---- --- ---------- --- ---- --- -- ----------,263338.7000002861,263338,262979.767,262988.30000019073,262995.649,263345.558,,2,may
screen,html.Screen,2_3_1_0_1_3,2022-02-02T17:51:36.302Z,,,,,,,,,,,,,,,,,51,,,,,,,,,,,,,,339.84200009534834,,response,,,,13,E,,,,,,Space,keypress(Space),,,,lyrical,,,,-------- -------- --- not ---- --- --- ------ -- --------<br>---- --------- --- ------- ------------ ---------- ---------<br>--- ---------- ------- ---------- ------- -- -------- ----<br>---- --- ------ ----- ------ -- ---- --- ----- -- - -------<br>-------- -- --- --- -- ----- ----------- ----- -----------<br>---- --- ---------- --- ---- --- -- ----------,263686.2000002861,263685.40000009537,263329.481,263338.90000009537,263345.558,263695.368,,3,not
screen,html.Screen,2_3_1_0_1_4,2022-02-02T17:51:36.733Z,,,,,,,,,,,,,,,,,51,,,,,,,,,,,,,,421.2319999046158,,response,,,,13,E,,,,,,Space,keypress(Space),,,,lyrical,,,,-------- -------- --- --- know --- --- ------ -- --------<br>---- --------- --- ------- ------------ ---------- ---------<br>--- ---------- ------- ---------- ------- -- -------- ----<br>---- --- ------ ----- ------ -- ---- --- ----- -- - -------<br>-------- -- --- --- -- ----- ----------- ----- -----------<br>---- --- ---------- --- ---- --- -- ----------,264117.40000009537,264116.59999990463,263678.784,263686.30000019073,263695.368,264128.978,,4,know
screen,html.Screen,2_3_1_0_1_5,2022-02-02T17:51:37.126Z,,,,,,,,,,,,,,,,,51,,,,,,,,,,,,,,379.92200009536464,,response,,,,13,E,,,,,,Space,keypress(Space),,,,lyrical,,,,"-------- -------- --- --- ---- it, --- ------ -- --------<br>---- --------- --- ------- ------------ ---------- ---------<br>--- ---------- ------- ---------- ------- -- -------- ----<br>---- --- ------ ----- ------ -- ---- --- ----- -- - -------<br>-------- -- --- --- -- ----- ----------- ----- -----------<br>---- --- ---------- --- ---- --- -- ----------",264509.59999990463,264508.90000009537,264112.303,264117.59999990463,264128.978,264511.213,,5,"it,"
screen,html.Screen,2_3_1_0_1_6,2022-02-02T17:51:37.532Z,,,,,,,,,,,,,,,,,51,,,,,,,,,,,,,,404.2870000000112,,response,,,,13,E,,,,,,Space,keypress(Space),,,,lyrical,,,,-------- -------- --- --- ---- --- but ------ -- --------<br>---- --------- --- ------- ------------ ---------- ---------<br>--- ---------- ------- ---------- ------- -- -------- ----<br>---- --- ------ ----- ------ -- ---- --- ----- -- - -------<br>-------- -- --- --- -- ----- ----------- ----- -----------<br>---- --- ---------- --- ---- --- -- ----------,264916.30000019073,264915.5,264495.339,264509.80000019073,264511.213,264927.677,,6,but
screen,html.Screen,2_3_1_0_1_7,2022-02-02T17:51:37.965Z,,,,,,,,,,,,,,,,,51,,,,,,,,,,,,,,420.6230001907097,,response,,,,13,E,,,,,,Space,keypress(Space),,,,lyrical,,,,-------- -------- --- --- ---- --- --- debate -- --------<br>---- --------- --- ------- ------------ ---------- ---------<br>--- ---------- ------- ---------- ------- -- -------- ----<br>---- --- ------ ----- ------ -- ---- --- ----- -- - -------<br>-------- -- --- --- -- ----- ----------- ----- -----------<br>---- --- ---------- --- ---- --- -- ----------,265349,265348.30000019073,264911.801,264916.5,264927.677,265361.021,,7,debate
screen,html.Screen,2_3_1_0_1_8,2022-02-02T17:51:38.451Z,,,,,,,,,,,,,,,,,51,,,,,,,,,,,,,,472.8790000953595,,response,,,,13,E,,,,,,Space,keypress(Space),,,,lyrical,,,,-------- -------- --- --- ---- --- --- ------ in --------<br>---- --------- --- ------- ------------ ---------- ---------<br>--- ---------- ------- ---------- ------- -- -------- ----<br>---- --- ------ ----- ------ -- ---- --- ----- -- - -------<br>-------- -- --- --- -- ----- ----------- ----- -----------<br>---- --- ---------- --- ---- --- -- ----------,265834.59999990463,265833.90000009537,265344.654,265349.09999990463,265361.021,265844.039,,8,in
screen,html.Screen,2_3_1_0_1_9,2022-02-02T17:51:38.917Z,,,,,,,,,,,,,,,,,51,,,,,,,,,,,,,,455.96100000001024,,response,,,,13,E,,,,,,Space,keypress(Space),,,,lyrical,,,,-------- -------- --- --- ---- --- --- ------ -- Congress<br>---- --------- --- ------- ------------ ---------- ---------<br>--- ---------- ------- ---------- ------- -- -------- ----<br>---- --- ------ ----- ------ -- ---- --- ----- -- - -------<br>-------- -- --- --- -- ----- ----------- ----- -----------<br>---- --- ---------- --- ---- --- -- ----------,266300.80000019073,266300,265827.163,265834.80000019073,265844.039,266310.324,,9,Congress
screen,html.Screen,2_3_1_0_1_10,2022-02-02T17:51:39.465Z,,,,,,,,,,,,,,,,,51,,,,,,,,,,,,,,537.1759999999776,,response,,,,13,E,,,,,,Space,keypress(Space),,,,lyrical,,,,-------- -------- --- --- ---- --- --- ------ -- --------<br>over --------- --- ------- ------------ ---------- ---------<br>--- ---------- ------- ---------- ------- -- -------- ----<br>---- --- ------ ----- ------ -- ---- --- ----- -- - -------<br>-------- -- --- --- -- ----- ----------- ----- -----------<br>---- --- ---------- --- ---- --- -- ----------,266848.5,266847.5,266293.768,266301,266310.324,266860.397,,10,over
screen,html.Screen,2_3_1_0_1_11,2022-02-02T17:51:39.918Z,,,,,,,,,,,,,,,,,51,,,,,,,,,,,,,,440.5030000953702,,response,,,,13,E,,,,,,Space,keypress(Space),,,,lyrical,,,,-------- -------- --- --- ---- --- --- ------ -- --------<br>---- reforming --- ------- ------------ ---------- ---------<br>--- ---------- ------- ---------- ------- -- -------- ----<br>---- --- ------ ----- ------ -- ---- --- ----- -- - -------<br>-------- -- --- --- -- ----- ----------- ----- -----------<br>---- --- ---------- --- ---- --- -- ----------,267301.59999990463,267300.90000009537,266843.801,266848.59999990463,266860.397,267310.175,,11,reforming
screen,html.Screen,2_3_1_0_1_12,2022-02-02T17:51:40.224Z,,,,,,,,,,,,,,,,,51,,,,,,,,,,,,,,296.9249999046442,,response,,,,13,E,,,,,,Space,keypress(Space),,,,lyrical,,,,-------- -------- --- --- ---- --- --- ------ -- --------<br>---- --------- the ------- ------------ ---------- ---------<br>--- ---------- ------- ---------- ------- -- -------- ----<br>---- --- ------ ----- ------ -- ---- --- ----- -- - -------<br>-------- -- --- --- -- ----- ----------- ----- -----------<br>---- --- ---------- --- ---- --- -- ----------,267607.90000009537,267607.09999990463,267293.494,267301.80000019073,267310.175,267609.07,,12,the
screen,html.Screen,2_3_1_0_1_13,2022-02-02T17:51:40.515Z,,,,,,,,,,,,,,,,,51,,,,,,,,,,,,,,289.2300001907279,,response,,,,13,E,,,,,,Space,keypress(Space),,,,lyrical,,,,-------- -------- --- --- ---- --- --- ------ -- --------<br>---- --------- --- federal ------------ ---------- ---------<br>--- ---------- ------- ---------- ------- -- -------- ----<br>---- --- ------ ----- ------ -- ---- --- ----- -- - -------<br>-------- -- --- --- -- ----- ----------- ----- -----------<br>---- --- ---------- --- ---- --- -- ----------,267899,267898.30000019073,267593.233,267608.09999990463,267609.07,267909.759,,13,federal
screen,html.Screen,2_3_1_0_1_14,2022-02-02T17:51:40.946Z,,,,,,,,,,,,,,,,,51,,,,,,,,,,,,,,419.74099999998,,response,,,,13,E,,,,,,Space,keypress(Space),,,,lyrical,,,,-------- -------- --- --- ---- --- --- ------ -- --------<br>---- --------- --- ------- government's ---------- ---------<br>--- ---------- ------- ---------- ------- -- -------- ----<br>---- --- ------ ----- ------ -- ---- --- ----- -- - -------<br>-------- -- --- --- -- ----- ----------- ----- -----------<br>---- --- ---------- --- ---- --- -- ----------,268330.2000002861,268329.5,267893.122,267899.2000002861,267909.759,268342.017,,14,government's
screen,html.Screen,2_3_1_0_1_15,2022-02-02T17:51:41.203Z,,,,,,,,,,,,,,,,,51,,,,,,,,,,,,,,243.98300000000745,,response,,,,13,E,,,,,,Space,keypress(Space),,,,lyrical,,,,-------- -------- --- --- ---- --- --- ------ -- --------<br>---- --------- --- ------- ------------ regulatory ---------<br>--- ---------- ------- ---------- ------- -- -------- ----<br>---- --- ------ ----- ------ -- ---- --- ----- -- - -------<br>-------- -- --- --- -- ----- ----------- ----- -----------<br>---- --- ---------- --- ---- --- -- ----------,268586.7000002861,268586,268325.771,268330.40000009537,268342.017,268591.863,,15,regulatory
screen,html.Screen,2_3_1_0_1_16,2022-02-02T17:51:41.866Z,,,,,,,,,,,,,,,,,51,,,,,,,,,,,,,,657.0370000953553,,response,,,,13,E,,,,,,Space,keypress(Space),,,,lyrical,,,,-------- -------- --- --- ---- --- --- ------ -- --------<br>---- --------- --- ------- ------------ ---------- apparatus<br>--- ---------- ------- ---------- ------- -- -------- ----<br>---- --- ------ ----- ------ -- ---- --- ----- -- - -------<br>-------- -- --- --- -- ----- ----------- ----- -----------<br>---- --- ---------- --- ---- --- -- ----------,269249.59999990463,269248.90000009537,268575.779,268586.90000009537,268591.863,269258.82,,16,apparatus
screen,html.Screen,2_3_1_0_1_17,2022-02-02T17:51:42.402Z,,,,,,,,,,,,,,,,,51,,,,,,,,,,,,,,526.9800001907279,,response,,,,13,E,,,,,,Space,keypress(Space),,,,lyrical,,,,-------- -------- --- --- ---- --- --- ------ -- --------<br>---- --------- --- ------- ------------ ---------- ---------<br>may ---------- ------- ---------- ------- -- -------- ----<br>---- --- ------ ----- ------ -- ---- --- ----- -- - -------<br>-------- -- --- --- -- ----- ----------- ----- -----------<br>---- --- ---------- --- ---- --- -- ----------,269786.40000009537,269785.80000019073,269242.171,269249.7000002861,269258.82,269791.014,,17,may
screen,html.Screen,2_3_1_0_1_18,2022-02-02T17:51:42.665Z,,,,,,,,,,,,,,,,,51,,,,,,,,,,,,,,257.38600009534275,,response,,,,13,E,,,,,,Space,keypress(Space),,,,lyrical,,,,-------- -------- --- --- ---- --- --- ------ -- --------<br>---- --------- --- ------- ------------ ---------- ---------<br>--- profoundly ------- ---------- ------- -- -------- ----<br>---- --- ------ ----- ------ -- ---- --- ----- -- - -------<br>-------- -- --- --- -- ----- ----------- ----- -----------<br>---- --- ---------- --- ---- --- -- ----------,270049.09999990463,270048.40000009537,269774.407,269786.59999990463,269791.014,270057.462,,18,profoundly
screen,html.Screen,2_3_1_0_1_19,2022-02-02T17:51:42.911Z,,,,,,,,,,,,,,,,,51,,,,,,,,,,,,,,236.4380000953679,,response,,,,13,E,,,,,,Space,keypress(Space),,,,lyrical,,,,-------- -------- --- --- ---- --- --- ------ -- --------<br>---- --------- --- ------- ------------ ---------- ---------<br>--- ---------- improve ---------- ------- -- -------- ----<br>---- --- ------ ----- ------ -- ---- --- ----- -- - -------<br>-------- -- --- --- -- ----- ----------- ----- -----------<br>---- --- ---------- --- ---- --- -- ----------,270294.7000002861,270293.90000009537,270041.523,270049.2000002861,270057.462,270307.39,,19,improve
screen,html.Screen,2_3_1_0_1_20,2022-02-02T17:51:43.815Z,,,,,,,,,,,,,,,,,51,,,,,,,,,,,,,,890.7099999046186,,response,,,,13,E,,,,,,Space,keypress(Space),,,,lyrical,,,,-------- -------- --- --- ---- --- --- ------ -- --------<br>---- --------- --- ------- ------------ ---------- ---------<br>--- ---------- ------- companies' ------- -- -------- ----<br>---- --- ------ ----- ------ -- ---- --- ----- -- - -------<br>-------- -- --- --- -- ----- ----------- ----- -----------<br>---- --- ---------- --- ---- --- -- ----------,271198.80000019073,271198.09999990463,270291.465,270294.90000009537,270307.39,271206.583,,20,companies'
screen,html.Screen,2_3_1_0_1_21,2022-02-02T17:51:44.388Z,,,,,,,,,,,,,,,,,51,,,,,,,,,,,,,,564.2170001907507,,response,,,,13,E,,,,,,Space,keypress(Space),,,,lyrical,,,,-------- -------- --- --- ---- --- --- ------ -- --------<br>---- --------- --- ------- ------------ ---------- ---------<br>--- ---------- ------- ---------- ability -- -------- ----<br>---- --- ------ ----- ------ -- ---- --- ----- -- - -------<br>-------- -- --- --- -- ----- ----------- ----- -----------<br>---- --- ---------- --- ---- --- -- ----------,271771.59999990463,271770.80000019073,271190.812,271198.90000009537,271206.583,271772.875,,21,ability
screen,html.Screen,2_3_1_0_1_22,2022-02-02T17:51:44.788Z,,,,,,,,,,,,,,,,,51,,,,,,,,,,,,,,398.3250002861023,,response,,,,13,E,,,,,,Space,keypress(Space),,,,lyrical,,,,-------- -------- --- --- ---- --- --- ------ -- --------<br>---- --------- --- ------- ------------ ---------- ---------<br>--- ---------- ------- ---------- ------- to -------- ----<br>---- --- ------ ----- ------ -- ---- --- ----- -- - -------<br>-------- -- --- --- -- ----- ----------- ----- -----------<br>---- --- ---------- --- ---- --- -- ----------,272172,272171.2000002861,271756.252,271771.7000002861,271772.875,272172.663,,22,to
screen,html.Screen,2_3_1_0_1_23,2022-02-02T17:51:45.235Z,,,,,,,,,,,,,,,,,51,,,,,,,,,,,,,,445.23700009536697,,response,,,,13,E,,,,,,Space,keypress(Space),,,,lyrical,,,,-------- -------- --- --- ---- --- --- ------ -- --------<br>---- --------- --- ------- ------------ ---------- ---------<br>--- ---------- ------- ---------- ------- -- survive. ----<br>---- --- ------ ----- ------ -- ---- --- ----- -- - -------<br>-------- -- --- --- -- ----- ----------- ----- -----------<br>---- --- ---------- --- ---- --- -- ----------,272618.7000002861,272617.90000009537,272156.868,272172.09999990463,272172.663,272622.299,,23,survive.
screen,html.Screen,2_3_1_0_1_24,2022-02-02T17:51:45.898Z,,,,,,,,,,,,,,,,,51,,,,,,,,,,,,,,659.3009999046335,,response,,,,13,E,,,,,,Space,keypress(Space),,,,lyrical,,,,-------- -------- --- --- ---- --- --- ------ -- --------<br>---- --------- --- ------- ------------ ---------- ---------<br>--- ---------- ------- ---------- ------- -- -------- This<br>---- --- ------ ----- ------ -- ---- --- ----- -- - -------<br>-------- -- --- --- -- ----- ----------- ----- -----------<br>---- --- ---------- --- ---- --- -- ----------,273282.40000009537,273281.59999990463,272605.845,272618.80000019073,272622.299,273288.699,,24,This
screen,html.Screen,2_3_1_0_1_25,2022-02-02T17:51:46.506Z,,,,,,,,,,,,,,,,,51,,,,,,,,,,,,,,600.2010000953451,,response,,,,13,E,,,,,,Space,keypress(Space),,,,lyrical,,,,-------- -------- --- --- ---- --- --- ------ -- --------<br>---- --------- --- ------- ------------ ---------- ---------<br>--- ---------- ------- ---------- ------- -- -------- ----<br>week --- ------ ----- ------ -- ---- --- ----- -- - -------<br>-------- -- --- --- -- ----- ----------- ----- -----------<br>---- --- ---------- --- ---- --- -- ----------,273889.7000002861,273888.90000009537,273272.635,273282.5,273288.699,273905.372,,25,week
screen,html.Screen,2_3_1_0_1_26,2022-02-02T17:51:47.018Z,,,,,,,,,,,,,,,,,51,,,,,,,,,,,,,,495.5280000953935,,response,,,,13,E,,,,,,Space,keypress(Space),,,,lyrical,,,,-------- -------- --- --- ---- --- --- ------ -- --------<br>---- --------- --- ------- ------------ ---------- ---------<br>--- ---------- ------- ---------- ------- -- -------- ----<br>---- the ------ ----- ------ -- ---- --- ----- -- - -------<br>-------- -- --- --- -- ----- ----------- ----- -----------<br>---- --- ---------- --- ---- --- -- ----------,274401.59999990463,274400.90000009537,273888.173,273889.80000019073,273905.372,274404.464,,26,the
screen,html.Screen,2_3_1_0_1_27,2022-02-02T17:51:47.254Z,,,,,,,,,,,,,,,,,51,,,,,,,,,,,,,,232.43600009538932,,response,,,,13,E,,,,,,Space,keypress(Space),,,,lyrical,,,,-------- -------- --- --- ---- --- --- ------ -- --------<br>---- --------- --- ------- ------------ ---------- ---------<br>--- ---------- ------- ---------- ------- -- -------- ----<br>---- --- Senate ----- ------ -- ---- --- ----- -- - -------<br>-------- -- --- --- -- ----- ----------- ----- -----------<br>---- --- ---------- --- ---- --- -- ----------,274637.7000002861,274636.90000009537,274388.567,274401.80000019073,274404.464,274655.073,,27,Senate
screen,html.Screen,2_3_1_0_1_28,2022-02-02T17:51:47.660Z,,,,,,,,,,,,,,,,,51,,,,,,,,,,,,,,388.42700000002515,,response,,,,13,E,,,,,,Space,keypress(Space),,,,lyrical,,,,-------- -------- --- --- ---- --- --- ------ -- --------<br>---- --------- --- ------- ------------ ---------- ---------<br>--- ---------- ------- ---------- ------- -- -------- ----<br>---- --- ------ seems ------ -- ---- --- ----- -- - -------<br>-------- -- --- --- -- ----- ----------- ----- -----------<br>---- --- ---------- --- ---- --- -- ----------,275044.2000002861,275043.5,274637.612,274637.90000009537,274655.073,275054.787,,28,seems
screen,html.Screen,2_3_1_0_1_29,2022-02-02T17:51:48.163Z,,,,,,,,,,,,,,,,,51,,,,,,,,,,,,,,490.9130002860911,,response,,,,13,E,,,,,,Space,keypress(Space),,,,lyrical,,,,-------- -------- --- --- ---- --- --- ------ -- --------<br>---- --------- --- ------- ------------ ---------- ---------<br>--- ---------- ------- ---------- ------- -- -------- ----<br>---- --- ------ ----- poised -- ---- --- ----- -- - -------<br>-------- -- --- --- -- ----- ----------- ----- -----------<br>---- --- ---------- --- ---- --- -- ----------,275546.59999990463,275545.7000002861,275038.164,275044.40000009537,275054.787,275553.768,,29,poised
screen,html.Screen,2_3_1_0_1_30,2022-02-02T17:51:48.579Z,,,,,,,,,,,,,,,,,51,,,,,,,,,,,,,,408.43200028612046,,response,,,,13,E,,,,,,Space,keypress(Space),,,,lyrical,,,,-------- -------- --- --- ---- --- --- ------ -- --------<br>---- --------- --- ------- ------------ ---------- ---------<br>--- ---------- ------- ---------- ------- -- -------- ----<br>---- --- ------ ----- ------ to ---- --- ----- -- - -------<br>-------- -- --- --- -- ----- ----------- ----- -----------<br>---- --- ---------- --- ---- --- -- ----------,275963,275962.2000002861,275537.037,275546.7000002861,275553.768,275970.225,,30,to
screen,html.Screen,2_3_1_0_1_31,2022-02-02T17:51:48.926Z,,,,,,,,,,,,,,,,,51,,,,,,,,,,,,,,338.7750000000233,,response,,,,13,E,,,,,,Space,keypress(Space),,,,lyrical,,,,-------- -------- --- --- ---- --- --- ------ -- --------<br>---- --------- --- ------- ------------ ---------- ---------<br>--- ---------- ------- ---------- ------- -- -------- ----<br>---- --- ------ ----- ------ -- join --- ----- -- - -------<br>-------- -- --- --- -- ----- ----------- ----- -----------<br>---- --- ---------- --- ---- --- -- ----------,276309.80000019073,276309,275954.204,275963.09999990463,275970.225,276320.634,,31,join
screen,html.Screen,2_3_1_0_1_32,2022-02-02T17:51:49.567Z,,,,,,,,,,,,,,,,,51,,,,,,,,,,,,,,629.9659999046125,,response,,,,13,E,,,,,,Space,keypress(Space),,,,lyrical,,,,-------- -------- --- --- ---- --- --- ------ -- --------<br>---- --------- --- ------- ------------ ---------- ---------<br>--- ---------- ------- ---------- ------- -- -------- ----<br>---- --- ------ ----- ------ -- ---- the ----- -- - -------<br>-------- -- --- --- -- ----- ----------- ----- -----------<br>---- --- ---------- --- ---- --- -- ----------,276951.30000019073,276950.59999990463,276303.893,276310,276320.634,276952.723,,32,the
screen,html.Screen,2_3_1_0_1_33,2022-02-02T17:51:50.175Z,,,,,,,,,,,,,,,,,51,,,,,,,,,,,,,,605.6770000953693,,response,,,,13,E,,,,,,Space,keypress(Space),,,,lyrical,,,,-------- -------- --- --- ---- --- --- ------ -- --------<br>---- --------- --- ------- ------------ ---------- ---------<br>--- ---------- ------- ---------- ------- -- -------- ----<br>---- --- ------ ----- ------ -- ---- --- House -- - -------<br>-------- -- --- --- -- ----- ----------- ----- -----------<br>---- --- ---------- --- ---- --- -- ----------,277559.09999990463,277558.40000009537,276936.045,276951.5,276952.723,277569.836,,33,House
screen,html.Screen,2_3_1_0_1_34,2022-02-02T17:51:50.576Z,,,,,,,,,,,,,,,,,51,,,,,,,,,,,,,,389.86400028609205,,response,,,,13,E,,,,,,Space,keypress(Space),,,,lyrical,,,,-------- -------- --- --- ---- --- --- ------ -- --------<br>---- --------- --- ------- ------------ ---------- ---------<br>--- ---------- ------- ---------- ------- -- -------- ----<br>---- --- ------ ----- ------ -- ---- --- ----- in - -------<br>-------- -- --- --- -- ----- ----------- ----- -----------<br>---- --- ---------- --- ---- --- -- ----------,277960.40000009537,277959.7000002861,277553.036,277559.30000019073,277569.836,277969.513,,34,in
screen,html.Screen,2_3_1_0_1_35,2022-02-02T17:51:51.230Z,,,,,,,,,,,,,,,,,51,,,,,,,,,,,,,,643.4870000000228,,response,,,,13,E,,,,,,Space,keypress(Space),,,,lyrical,,,,-------- -------- --- --- ---- --- --- ------ -- --------<br>---- --------- --- ------- ------------ ---------- ---------<br>--- ---------- ------- ---------- ------- -- -------- ----<br>---- --- ------ ----- ------ -- ---- --- ----- -- a -------<br>-------- -- --- --- -- ----- ----------- ----- -----------<br>---- --- ---------- --- ---- --- -- ----------,278613.80000019073,278613,277952.786,277960.7000002861,277969.513,278618.21,,35,a
screen,html.Screen,2_3_1_0_1_36,2022-02-02T17:51:51.762Z,,,,,,,,,,,,,,,,,51,,,,,,,,,,,,,,526.9900002860813,,response,,,,13,E,,,,,,Space,keypress(Space),,,,lyrical,,,,-------- -------- --- --- ---- --- --- ------ -- --------<br>---- --------- --- ------- ------------ ---------- ---------<br>--- ---------- ------- ---------- ------- -- -------- ----<br>---- --- ------ ----- ------ -- ---- --- ----- -- - massive<br>-------- -- --- --- -- ----- ----------- ----- -----------<br>---- --- ---------- --- ---- --- -- ----------,279146,279145.2000002861,278602.373,278613.90000009537,278618.21,279151.151,,36,massive
screen,html.Screen,2_3_1_0_1_37,2022-02-02T17:51:52.153Z,,,,,,,,,,,,,,,,,51,,,,,,,,,,,,,,385.3489999999874,,response,,,,13,E,,,,,,Space,keypress(Space),,,,lyrical,,,,-------- -------- --- --- ---- --- --- ------ -- --------<br>---- --------- --- ------- ------------ ---------- ---------<br>--- ---------- ------- ---------- ------- -- -------- ----<br>---- --- ------ ----- ------ -- ---- --- ----- -- - -------<br>overhaul -- --- --- -- ----- ----------- ----- -----------<br>---- --- ---------- --- ---- --- -- ----------,279537.2000002861,279536.5,279135.372,279146.09999990463,279151.151,279550.921,,37,overhaul
screen,html.Screen,2_3_1_0_1_38,2022-02-02T17:51:52.621Z,,,,,,,,,,,,,,,,,51,,,,,,,,,,,,,,452.97900009539444,,response,,,,13,E,,,,,,Space,keypress(Space),,,,lyrical,,,,-------- -------- --- --- ---- --- --- ------ -- --------<br>---- --------- --- ------- ------------ ---------- ---------<br>--- ---------- ------- ---------- ------- -- -------- ----<br>---- --- ------ ----- ------ -- ---- --- ----- -- - -------<br>-------- of --- --- -- ----- ----------- ----- -----------<br>---- --- ---------- --- ---- --- -- ----------,280004.7000002861,280003.90000009537,279534.249,279537.40000009537,279550.921,280017.396,,38,of
screen,html.Screen,2_3_1_0_1_39,2022-02-02T17:51:52.912Z,,,,,,,,,,,,,,,,,51,,,,,,,,,,,,,,277.40400019072695,,response,,,,13,E,,,,,,Space,keypress(Space),,,,lyrical,,,,-------- -------- --- --- ---- --- --- ------ -- --------<br>---- --------- --- ------- ------------ ---------- ---------<br>--- ---------- ------- ---------- ------- -- -------- ----<br>---- --- ------ ----- ------ -- ---- --- ----- -- - -------<br>-------- -- the --- -- ----- ----------- ----- -----------<br>---- --- ---------- --- ---- --- -- ----------,280295.5,280294.80000019073,280001.382,280005,280017.396,280300.333,,39,the
