sender,sender_type,sender_id,timestamp,meta,,Blues,Classical,Country,Dance,Electronic,Folk,Gospel,Hip-Hop,Jazz,Latin,Musical/Film,New-age,Pop,Prolific_id,Provo_ID,R&B,Rap,Reggae,Religious,Rock,Soul,Swing,Traditional,age,artist_name,correct,correctResponse,distraction,duration,education,ended_on,familiarity,gender,headphone_check_performance,item,list,music_frequency,offensiveness,pleasantness,position_correct,preference,response,response_action,snippet_file,song_name,song_rating,sound,stimulus_1,stimulus_2,stimulus_3,text,time_commit,time_end,time_render,time_run,time_show,time_switch,url,word,word_ID
Prolific ID,html.Form,0,2022-02-17T12:50:20.994Z,"{""labjs_version"":""20.2.2"",""labjs_build"":{""flavor"":""production"",""commit"":""a25486e0c714a0ae2ce03ff94b7bb6896854dcfa""},""location"":""https://run.pavlovia.org/mvasilev/prolific2_music_d/"",""userAgent"":""Mozilla/5.0 (Macintosh; Intel Mac OS X 10_15_7) AppleWebKit/537.36 (KHTML, like Gecko) Chrome/98.0.4758.102 Safari/537.36"",""platform"":""MacIntel"",""language"":""en-GB"",""locale"":""en-GB"",""timeZone"":""Europe/London"",""timezoneOffset"":0,""screen_width"":1440,""screen_height"":900,""scroll_width"":1440,""scroll_height"":628,""window_innerWidth"":1440,""window_innerHeight"":676,""devicePixelRatio"":2}",,,,,,,,,,,,,,,5ebbb2c71d02ec194579f014,,,,,,,,,,,,,,,96075.77899999963,,form submission,,,,,,,,,,,,,,,,,,,,,105405.59999999963,105405.09999999963,9295.989,9307.400000000373,9329.321,105408.811,{},,
Introduction,html.Screen,1_0,2022-02-17T12:58:26.384Z,,,,,,,,,,,,,,,,,,,,,,,,,,,,,,,485367.5890000004,,response,,,,,,,,,,,continue,click button,,,,,,,,,590781.0999999996,590776.4000000004,105392.145,105405.90000000037,105408.811,590789.395,,,
Volume calibration,html.Screen,1_1,2022-02-17T12:58:36.902Z,,,,,,,,,,,,,,,,,,,,,,,,,,,,,,,10504.305000001099,,response,,,,,,,,,,,continue,click button,,,,,,,,,601298.9000000004,601293.7000000011,590772.729,590781.2000000011,590789.395,601305.641,,,
Task instructions,html.Screen,1_2,2022-02-17T12:58:42.186Z,,,,,,,,,,,,,,,,,,,,,,,,,,,,,,,5274.6590000008,,response,,,,,,,,,,,continue,click button,,,,,,,,,606582.9000000004,606580.3000000007,601288.975,601299.0999999996,601305.641,606588.763,,,
Sounds,html.Screen,1_3_0_0,2022-02-17T12:58:46.430Z,,,,,,,,,,,,,,,,,,,,,,,,,,,,,,,4249.829999999958,,timeout,,,,,,,,,3,,,,,,,,I,O,S,,610826,610821.927,606572.097,606583.0999999996,606588.763,610838.593,,,
Judgement,html.Screen,1_3_0_1,2022-02-17T12:58:47.301Z,,,,,,,,,,,,,,,,,,,,,,,,,,,,true,3,,856.506999999634,,response,,,,,,,,,3,,3,click #choice-3,,,,,I,O,S,,611697.9000000004,611695.0999999996,610821.927,610826.0999999996,610838.593,611705.225,,,
Trial,flow.Sequence,1_3_0,2022-02-17T12:58:47.302Z,,,,,,,,,,,,,,,,,,,,,,,,,,,,,,,5106.336999999592,,completion,,,,,,,,,3,,,,,,,,I,O,S,,611698.0999999996,611695.0999999996,606572.097,606583.0999999996,606588.763,611705.225,,,
Sounds,html.Screen,1_3_1_0,2022-02-17T12:58:51.545Z,,,,,,,,,,,,,,,,,,,,,,,,,,,,,,,4249.8300000000745,,timeout,,,,,,,,,3,,,,,,,,O,I,S,,615941.4000000004,615938.389,611688.559,611698.5,611705.225,615955.055,,,
Judgement,html.Screen,1_3_1_1,2022-02-17T12:58:52.186Z,,,,,,,,,,,,,,,,,,,,,,,,,,,,true,3,,624.7450000006938,,response,,,,,,,,,3,,3,click #choice-3,,,,,O,I,S,,616582.5,616579.8000000007,615938.389,615941.7000000011,615955.055,616588.363,,,
Trial,flow.Sequence,1_3_1,2022-02-17T12:58:52.187Z,,,,,,,,,,,,,,,,,,,,,,,,,,,,,,,4874.575000000768,,completion,,,,,,,,,3,,,,,,,,O,I,S,,616582.8000000007,616579.8000000007,611688.559,611698.2000000011,611705.225,616588.363,,,
Sounds,html.Screen,1_3_2_0,2022-02-17T12:58:56.427Z,,,,,,,,,,,,,,,,,,,,,,,,,,,,,,,4249.829999999958,,timeout,,,,,,,,,2,,,,,,,,O,S,I,,620823.5,620821.527,616571.697,616583,616588.363,620838.193,,,
Judgement,html.Screen,1_3_2_1,2022-02-17T12:58:57.009Z,,,,,,,,,,,,,,,,,,,,,,,,,,,,true,2,,564.0070000011474,,response,,,,,,,,,2,,2,click #choice-2,,,,,O,S,I,,621405,621402.2000000011,620821.527,620823.5999999996,620838.193,621404.837,,,
Trial,flow.Sequence,1_3_2,2022-02-17T12:58:57.009Z,,,,,,,,,,,,,,,,,,,,,,,,,,,,,,,4813.8370000011055,,completion,,,,,,,,,2,,,,,,,,O,S,I,,621405.3000000007,621402.2000000011,616571.697,616582.9000000004,616588.363,621404.837,,,
Sounds,html.Screen,1_3_3_0,2022-02-17T12:59:01.245Z,,,,,,,,,,,,,,,,,,,,,,,,,,,,,,,4249.829999999958,,timeout,,,,,,,,,1,,,,,,,,S,I,O,,625640.7000000011,625638.001,621388.171,621405.3000000007,621404.837,625654.667,,,
Judgement,html.Screen,1_3_3_1,2022-02-17T12:59:01.990Z,,,,,,,,,,,,,,,,,,,,,,,,,,,,true,1,,728.7330000003567,,response,,,,,,,,,1,,1,click #choice-1,,,,,S,I,O,,626386.2000000011,626383.4000000004,625638.001,625640.9000000004,625654.667,626387.971,,,
Trial,flow.Sequence,1_3_3,2022-02-17T12:59:01.990Z,,,,,,,,,,,,,,,,,,,,,,,,,,,,,,,4978.563000000315,,completion,,,,,,,,,1,,,,,,,,S,I,O,,626386.2999999989,626383.4000000004,621388.171,621405.3000000007,621404.837,626387.971,,,
Sounds,html.Screen,1_3_4_0,2022-02-17T12:59:06.228Z,,,,,,,,,,,,,,,,,,,,,,,,,,,,,,,4249.829999999958,,timeout,,,,,,,,,2,,,,,,,,I,S,O,,630623.5999999996,630621.135,626371.305,626386.4000000004,626387.971,630637.801,,,
Judgement,html.Screen,1_3_4_1,2022-02-17T12:59:06.698Z,,,,,,,,,,,,,,,,,,,,,,,,,,,,true,2,,453.5990000003949,,response,,,,,,,,,2,,2,click #choice-2,,,,,I,S,O,,631094.0999999996,631091.4000000004,630621.135,630623.7999999989,630637.801,631104.449,,,
Trial,flow.Sequence,1_3_4,2022-02-17T12:59:06.698Z,,,,,,,,,,,,,,,,,,,,,,,,,,,,,,,4703.429000000353,,completion,,,,,,,,,2,,,,,,,,I,S,O,,631094.2000000011,631091.4000000004,626371.305,626386.2999999989,626387.971,631104.449,,,
Sounds,html.Screen,1_3_5_0,2022-02-17T12:59:10.944Z,,,,,,,,,,,,,,,,,,,,,,,,,,,,,,,4249.829999999958,,timeout,,,,,,,,,1,,,,,,,,S,O,I,,635339.7000000011,635337.613,631087.783,631094.4000000004,631104.449,635354.279,,,
Judgement,html.Screen,1_3_5_1,2022-02-17T12:59:11.342Z,,,,,,,,,,,,,,,,,,,,,,,,,,,,true,1,,380.52099999890197,,response,,,,,,,,,1,,1,click #choice-1,,,,,S,O,I,,635737.7000000011,635734.7999999989,635337.613,635339.7999999989,635354.279,635737.597,,,
Trial,flow.Sequence,1_3_5,2022-02-17T12:59:11.342Z,,,,,,,,,,,,,,,,,,,,,,,,,,,,,,,4630.35099999886,,completion,,,,,,,,,1,,,,,,,,S,O,I,,635737.7999999989,635734.7999999989,631087.783,631094.2999999989,631104.449,635737.597,,,
Task,flow.Loop,1_3,2022-02-17T12:59:11.347Z,,,,,,,,,,,,,,,,,,,,,,,,,,,,,,,29146.036999998847,,completion,,,1,,,,,,,,,,,,,,,,,,635743.0999999996,635734.7999999989,606572.097,606583,606588.763,635737.597,,,
Trap,html.Screen,1_4,2022-02-17T12:59:11.349Z,,,,,,,,,,,,,,,,,,,,,,,,,,,,,,,NaN,,skipped,,,,,,,,,,,,,,,,,,,,,635744.5000000019,635734.7999999989,,635744.4000000004,,635737.597,,,
Thanks,html.Screen,1_5,2022-02-17T12:59:13.704Z,,,,,,,,,,,,,,,,,,,,,,,,,,,,,,,2359.303000000422,,response,,,,,,,,,,,continue,click button,,,,,,,,,638099.5000000019,638096.9000000004,635720.931,635744.7000000011,635737.597,641237.377,,,
Headphone screening,flow.Sequence,1,2022-02-17T12:59:13.704Z,,,,,,,,,,,,,,,,,,,,,,,,,,,,,,,532688.0890000004,,completion,,,,,,,,,,,,,,,,,,,,,638099.5999999996,638096.9000000004,105392.145,105405.80000000075,105408.811,641237.377,,,
Instructions,html.Page,2_0,2022-02-17T12:59:33.185Z,,,,,,,,,,,,,,,,,,,,,,,,,,,,,,,16342.023000000394,,form submission,,,,,,,,,,,,,,,,,,,,,657580.2000000011,657579.4000000004,641220.711,641237.7999999989,641237.377,657580.576,,,
Holding screen,html.Screen,2_1_0_0,2022-02-17T12:59:43.170Z,,,,,,,,,,,,,,,,,,,,,,,,,,,,,,,9999.599999999977,,timeout,,,,,,,,,,,,,,,,,,,,,667565.0000000019,667563.51,657563.91,657580.4000000004,657580.576,667580.176,,,
screen,html.Screen,2_1_0_1_0,2022-02-17T12:59:43.948Z,,,,,,,,,,,,,,,,,53,,,,,,,,,,,,,,755.9239999996498,,response,,,,99,,,,,,,Space,keypress(Space),,,,,,,,When -- ----- -- ------ - ------- --- ----------<br>------------- ------ ------ ---- ---- ------- ----- -- ----<br>-------- ------- -- ---------- --- - --- ----- ----- ----<br>---- --- --- ----- --- ---- ---- ------- ----- ---- -------<br>--- --- -- ----- -- --- ---- -- --- ---- -- ------ ------<br>--- ----- -- ----,668343.0000000019,668336.0999999996,667563.51,667565.2000000011,667580.176,668346.812,,0,When
screen,html.Screen,2_1_0_1_1,2022-02-17T12:59:44.455Z,,,,,,,,,,,,,,,,,53,,,,,,,,,,,,,,498.287999999593,,response,,,,99,,,,,,,Space,keypress(Space),,,,,,,,---- it ----- -- ------ - ------- --- ----------<br>------------- ------ ------ ---- ---- ------- ----- -- ----<br>-------- ------- -- ---------- --- - --- ----- ----- ----<br>---- --- --- ----- --- ---- ---- ------- ----- ---- -------<br>--- --- -- ----- -- --- ---- -- --- ---- -- ------ ------<br>--- ----- -- ----,668849.5999999996,668845.0999999996,668330.146,668343.0999999996,668346.812,668863.458,,1,it
screen,html.Screen,2_1_0_1_2,2022-02-17T12:59:44.910Z,,,,,,,,,,,,,,,,,53,,,,,,,,,,,,,,436.7420000011334,,response,,,,99,,,,,,,Space,keypress(Space),,,,,,,,---- -- comes -- ------ - ------- --- ----------<br>------------- ------ ------ ---- ---- ------- ----- -- ----<br>-------- ------- -- ---------- --- - --- ----- ----- ----<br>---- --- --- ----- --- ---- ---- ------- ----- ---- -------<br>--- --- -- ----- -- --- ---- -- --- ---- -- ------ ------<br>--- ----- -- ----,669304.2999999989,669300.2000000011,668846.792,668849.7000000011,668863.458,669313.44,,2,comes
screen,html.Screen,2_1_0_1_3,2022-02-17T12:59:45.287Z,,,,,,,,,,,,,,,,,53,,,,,,,,,,,,,,364.5600000019185,,response,,,,99,,,,,,,Space,keypress(Space),,,,,,,,---- -- ----- to ------ - ------- --- ----------<br>------------- ------ ------ ---- ---- ------- ----- -- ----<br>-------- ------- -- ---------- --- - --- ----- ----- ----<br>---- --- --- ----- --- ---- ---- ------- ----- ---- -------<br>--- --- -- ----- -- --- ---- -- --- ---- -- ------ ------<br>--- ----- -- ----,669682.0000000019,669678.0000000019,669296.774,669304.2999999989,669313.44,669696.758,,3,to
screen,html.Screen,2_1_0_1_4,2022-02-17T12:59:45.648Z,,,,,,,,,,,,,,,,,53,,,,,,,,,,,,,,341.2420000018319,,response,,,,99,,,,,,,Space,keypress(Space),,,,,,,,---- -- ----- -- having - ------- --- ----------<br>------------- ------ ------ ---- ---- ------- ----- -- ----<br>-------- ------- -- ---------- --- - --- ----- ----- ----<br>---- --- --- ----- --- ---- ---- ------- ----- ---- -------<br>--- --- -- ----- -- --- ---- -- --- ---- -- ------ ------<br>--- ----- -- ----,670042.0999999996,670038.0000000019,669680.092,669682.0999999996,669696.758,670046.744,,4,having
screen,html.Screen,2_1_0_1_5,2022-02-17T12:59:46.017Z,,,,,,,,,,,,,,,,,53,,,,,,,,,,,,,,360.05599999893457,,response,,,,99,,,,,,,Space,keypress(Space),,,,,,,,---- -- ----- -- ------ a ------- --- ----------<br>------------- ------ ------ ---- ---- ------- ----- -- ----<br>-------- ------- -- ---------- --- - --- ----- ----- ----<br>---- --- --- ----- --- ---- ---- ------- ----- ---- -------<br>--- --- -- ----- -- --- ---- -- --- ---- -- ------ ------<br>--- ----- -- ----,670411.0999999996,670406.7999999989,670030.078,670042.2999999989,670046.744,670413.396,,5,a
screen,html.Screen,2_1_0_1_6,2022-02-17T12:59:46.394Z,,,,,,,,,,,,,,,,,53,,,,,,,,,,,,,,371.4039999989327,,response,,,,99,,,,,,,Space,keypress(Space),,,,,,,,---- -- ----- -- ------ - lasting --- ----------<br>------------- ------ ------ ---- ---- ------- ----- -- ----<br>-------- ------- -- ---------- --- - --- ----- ----- ----<br>---- --- --- ----- --- ---- ---- ------- ----- ---- -------<br>--- --- -- ----- -- --- ---- -- --- ---- -- ------ ------<br>--- ----- -- ----,670788.9000000004,670784.7999999989,670396.73,670411.2999999989,670413.396,670796.714,,6,lasting
screen,html.Screen,2_1_0_1_7,2022-02-17T12:59:46.783Z,,,,,,,,,,,,,,,,,53,,,,,,,,,,,,,,377.38599999959115,,response,,,,99,,,,,,,Space,keypress(Space),,,,,,,,---- -- ----- -- ------ - ------- and ----------<br>------------- ------ ------ ---- ---- ------- ----- -- ----<br>-------- ------- -- ---------- --- - --- ----- ----- ----<br>---- --- --- ----- --- ---- ---- ------- ----- ---- -------<br>--- --- -- ----- -- --- ---- -- --- ---- -- ------ ------<br>--- ----- -- ----,671178.0999999996,671174.0999999996,670780.048,670789.0999999996,670796.714,671180.032,,7,and
screen,html.Screen,2_1_0_1_8,2022-02-17T12:59:47.155Z,,,,,,,,,,,,,,,,,53,,,,,,,,,,,,,,364.868000000366,,response,,,,99,,,,,,,Space,keypress(Space),,,,,,,,---- -- ----- -- ------ - ------- --- fulfilling<br>------------- ------ ------ ---- ---- ------- ----- -- ----<br>-------- ------- -- ---------- --- - --- ----- ----- ----<br>---- --- --- ----- --- ---- ---- ------- ----- ---- -------<br>--- --- -- ----- -- --- ---- -- --- ---- -- ------ ------<br>--- ----- -- ----,671549.2000000011,671544.9000000004,671163.366,671178.2999999989,671180.032,671563.35,,8,fulfilling
screen,html.Screen,2_1_0_1_9,2022-02-17T12:59:47.573Z,,,,,,,,,,,,,,,,,53,,,,,,,,,,,,,,397.74999999965075,,response,,,,99,,,,,,,Space,keypress(Space),,,,,,,,"---- -- ----- -- ------ - ------- --- ----------<br>relationship, ------ ------ ---- ---- ------- ----- -- ----<br>-------- ------- -- ---------- --- - --- ----- ----- ----<br>---- --- --- ----- --- ---- ---- ------- ----- ---- -------<br>--- --- -- ----- -- --- ---- -- --- ---- -- ------ ------<br>--- ----- -- ----",671967.2000000011,671961.0999999996,671546.684,671549.4000000004,671563.35,671980,,9,"relationship,"
screen,html.Screen,2_1_0_1_10,2022-02-17T12:59:48.080Z,,,,,,,,,,,,,,,,,53,,,,,,,,,,,,,,490.00000000186265,,response,,,,99,,,,,,,Space,keypress(Space),,,,,,,,---- -- ----- -- ------ - ------- --- ----------<br>------------- common ------ ---- ---- ------- ----- -- ----<br>-------- ------- -- ---------- --- - --- ----- ----- ----<br>---- --- --- ----- --- ---- ---- ------- ----- ---- -------<br>--- --- -- ----- -- --- ---- -- --- ---- -- ------ ------<br>--- ----- -- ----,672474.4000000004,672470.0000000019,671963.334,671967.2999999989,671980,672479.98,,10,common
screen,html.Screen,2_1_0_1_11,2022-02-17T12:59:48.673Z,,,,,,,,,,,,,,,,,53,,,,,,,,,,,,,,583.0200000018813,,response,,,,99,,,,,,,Space,keypress(Space),,,,,,,,---- -- ----- -- ------ - ------- --- ----------<br>------------- ------ wisdom ---- ---- ------- ----- -- ----<br>-------- ------- -- ---------- --- - --- ----- ----- ----<br>---- --- --- ----- --- ---- ---- ------- ----- ---- -------<br>--- --- -- ----- -- --- ---- -- --- ---- -- ------ ------<br>--- ----- -- ----,673067.4000000004,673063.0000000019,672463.314,672474.5000000019,672479.98,673079.956,,11,wisdom
screen,html.Screen,2_1_0_1_12,2022-02-17T12:59:49.154Z,,,,,,,,,,,,,,,,,53,,,,,,,,,,,,,,465.04400000185706,,response,,,,99,,,,,,,Space,keypress(Space),,,,,,,,---- -- ----- -- ------ - ------- --- ----------<br>------------- ------ ------ says ---- ------- ----- -- ----<br>-------- ------- -- ---------- --- - --- ----- ----- ----<br>---- --- --- ----- --- ---- ---- ------- ----- ---- -------<br>--- --- -- ----- -- --- ---- -- --- ---- -- ------ ------<br>--- ----- -- ----,673548.7000000011,673545.0000000019,673063.29,673067.5000000019,673079.956,673563.27,,12,says
screen,html.Screen,2_1_0_1_13,2022-02-17T12:59:49.578Z,,,,,,,,,,,,,,,,,53,,,,,,,,,,,,,,403.43000000109896,,response,,,,99,,,,,,,Space,keypress(Space),,,,,,,,---- -- ----- -- ------ - ------- --- ----------<br>------------- ------ ------ ---- that ------- ----- -- ----<br>-------- ------- -- ---------- --- - --- ----- ----- ----<br>---- --- --- ----- --- ---- ---- ------- ----- ---- -------<br>--- --- -- ----- -- --- ---- -- --- ---- -- ------ ------<br>--- ----- -- ----,673972.5999999996,673966.7000000011,673546.604,673548.9000000004,673563.27,673979.92,,13,that
screen,html.Screen,2_1_0_1_14,2022-02-17T12:59:49.996Z,,,,,,,,,,,,,,,,,53,,,,,,,,,,,,,,404.8799999988405,,response,,,,99,,,,,,,Space,keypress(Space),,,,,,,,---- -- ----- -- ------ - ------- --- ----------<br>------------- ------ ------ ---- ---- feeling ----- -- ----<br>-------- ------- -- ---------- --- - --- ----- ----- ----<br>---- --- --- ----- --- ---- ---- ------- ----- ---- -------<br>--- --- -- ----- -- --- ---- -- --- ---- -- ------ ------<br>--- ----- -- ----,674390.7999999989,674384.7999999989,673963.254,673972.7999999989,673979.92,674396.57,,14,feeling
screen,html.Screen,2_1_0_1_15,2022-02-17T12:59:50.468Z,,,,,,,,,,,,,,,,,53,,,,,,,,,,,,,,463.1300000011688,,response,,,,99,,,,,,,Space,keypress(Space),,,,,,,,---- -- ----- -- ------ - ------- --- ----------<br>------------- ------ ------ ---- ---- ------- close -- ----<br>-------- ------- -- ---------- --- - --- ----- ----- ----<br>---- --- --- ----- --- ---- ---- ------- ----- ---- -------<br>--- --- -- ----- -- --- ---- -- --- ---- -- ------ ------<br>--- ----- -- ----,674862.5000000019,674859.7000000011,674379.904,674390.9000000004,674396.57,674863.218,,15,close
screen,html.Screen,2_1_0_1_16,2022-02-17T12:59:50.800Z,,,,,,,,,,,,,,,,,53,,,,,,,,,,,,,,325.4820000011241,,response,,,,99,,,,,,,Space,keypress(Space),,,,,,,,---- -- ----- -- ------ - ------- --- ----------<br>------------- ------ ------ ---- ---- ------- ----- to ----<br>-------- ------- -- ---------- --- - --- ----- ----- ----<br>---- --- --- ----- --- ---- ---- ------- ----- ---- -------<br>--- --- -- ----- -- --- ---- -- --- ---- -- ------ ------<br>--- ----- -- ----,675194.7999999989,675188.7000000011,674846.552,674862.5999999996,674863.218,675196.538,,16,to
screen,html.Screen,2_1_0_1_17,2022-02-17T12:59:51.112Z,,,,,,,,,,,,,,,,,53,,,,,,,,,,,,,,303.4620000019204,,response,,,,99,,,,,,,Space,keypress(Space),,,,,,,,---- -- ----- -- ------ - ------- --- ----------<br>------------- ------ ------ ---- ---- ------- ----- -- your<br>-------- ------- -- ---------- --- - --- ----- ----- ----<br>---- --- --- ----- --- ---- ---- ------- ----- ---- -------<br>--- --- -- ----- -- --- ---- -- --- ---- -- ------ ------<br>--- ----- -- ----,675506.7000000011,675500.0000000019,675179.872,675195.0000000019,675196.538,675513.192,,17,your
screen,html.Screen,2_1_0_1_18,2022-02-17T12:59:51.496Z,,,,,,,,,,,,,,,,,53,,,,,,,,,,,,,,370.80800000182353,,response,,,,99,,,,,,,Space,keypress(Space),,,,,,,,---- -- ----- -- ------ - ------- --- ----------<br>------------- ------ ------ ---- ---- ------- ----- -- ----<br>romantic ------- -- ---------- --- - --- ----- ----- ----<br>---- --- --- ----- --- ---- ---- ------- ----- ---- -------<br>--- --- -- ----- -- --- ---- -- --- ---- -- ------ ------<br>--- ----- -- ----,675890.2000000011,675884.0000000019,675496.526,675506.9000000004,675513.192,675896.51,,18,romantic
screen,html.Screen,2_1_0_1_19,2022-02-17T12:59:51.854Z,,,,,,,,,,,,,,,,,53,,,,,,,,,,,,,,346.2899999988731,,response,,,,99,,,,,,,Space,keypress(Space),,,,,,,,---- -- ----- -- ------ - ------- --- ----------<br>------------- ------ ------ ---- ---- ------- ----- -- ----<br>-------- partner -- ---------- --- - --- ----- ----- ----<br>---- --- --- ----- --- ---- ---- ------- ----- ---- -------<br>--- --- -- ----- -- --- ---- -- --- ---- -- ------ ------<br>--- ----- -- ----,676247.9000000004,676242.7999999989,675879.844,675890.4000000004,675896.51,676263.162,,19,partner
screen,html.Screen,2_1_0_1_20,2022-02-17T12:59:52.252Z,,,,,,,,,,,,,,,,,53,,,,,,,,,,,,,,378.63799999887124,,response,,,,99,,,,,,,Space,keypress(Space),,,,,,,,---- -- ----- -- ------ - ------- --- ----------<br>------------- ------ ------ ---- ---- ------- ----- -- ----<br>-------- ------- is ---------- --- - --- ----- ----- ----<br>---- --- --- ----- --- ---- ---- ------- ----- ---- -------<br>--- --- -- ----- -- --- ---- -- --- ---- -- ------ ------<br>--- ----- -- ----,676646.2999999989,676641.7999999989,676246.496,676248.0000000019,676263.162,676663.146,,20,is
screen,html.Screen,2_1_0_1_21,2022-02-17T12:59:52.631Z,,,,,,,,,,,,,,,,,53,,,,,,,,,,,,,,358.5540000011679,,response,,,,99,,,,,,,Space,keypress(Space),,,,,,,,---- -- ----- -- ------ - ------- --- ----------<br>------------- ------ ------ ---- ---- ------- ----- -- ----<br>-------- ------- -- paramount. --- - --- ----- ----- ----<br>---- --- --- ----- --- ---- ---- ------- ----- ---- -------<br>--- --- -- ----- -- --- ---- -- --- ---- -- ------ ------<br>--- ----- -- ----,677025.7000000011,677021.7000000011,676646.48,676646.4000000004,676663.146,677029.798,,21,paramount.
screen,html.Screen,2_1_0_1_22,2022-02-17T12:59:53.236Z,,,,,,,,,,,,,,,,,53,,,,,,,,,,,,,,595.0019999989308,,response,,,,99,,,,,,,Space,keypress(Space),,,,,,,,---- -- ----- -- ------ - ------- --- ----------<br>------------- ------ ------ ---- ---- ------- ----- -- ----<br>-------- ------- -- ---------- But - --- ----- ----- ----<br>---- --- --- ----- --- ---- ---- ------- ----- ---- -------<br>--- --- -- ----- -- --- ---- -- --- ---- -- ------ ------<br>--- ----- -- ----,677630.5000000019,677624.7999999989,677013.132,677025.9000000004,677029.798,677646.44,,22,But
screen,html.Screen,2_1_0_1_23,2022-02-17T12:59:53.553Z,,,,,,,,,,,,,,,,,53,,,,,,,,,,,,,,295.4600000004284,,response,,,,99,,,,,,,Space,keypress(Space),,,,,,,,---- -- ----- -- ------ - ------- --- ----------<br>------------- ------ ------ ---- ---- ------- ----- -- ----<br>-------- ------- -- ---------- --- a --- ----- ----- ----<br>---- --- --- ----- --- ---- ---- ------- ----- ---- -------<br>--- --- -- ----- -- --- ---- -- --- ---- -- ------ ------<br>--- ----- -- ----,677947.7000000011,677941.9000000004,677629.774,677630.7000000011,677646.44,677963.094,,23,a
screen,html.Screen,2_1_0_1_24,2022-02-17T12:59:53.798Z,,,,,,,,,,,,,,,,,53,,,,,,,,,,,,,,224.80600000033155,,response,,,,99,,,,,,,Space,keypress(Space),,,,,,,,---- -- ----- -- ------ - ------- --- ----------<br>------------- ------ ------ ---- ---- ------- ----- -- ----<br>-------- ------- -- ---------- --- - new ----- ----- ----<br>---- --- --- ----- --- ---- ---- ------- ----- ---- -------<br>--- --- -- ----- -- --- ---- -- --- ---- -- ------ ------<br>--- ----- -- ----,678192.2000000011,678187.9000000004,677946.428,677947.7999999989,677963.094,678196.418,,24,new
screen,html.Screen,2_1_0_1_25,2022-02-17T12:59:54.092Z,,,,,,,,,,,,,,,,,53,,,,,,,,,,,,,,285.3819999989355,,response,,,,99,,,,,,,Space,keypress(Space),,,,,,,,---- -- ----- -- ------ - ------- --- ----------<br>------------- ------ ------ ---- ---- ------- ----- -- ----<br>-------- ------- -- ---------- --- - --- study ----- ----<br>---- --- --- ----- --- ---- ---- ------- ----- ---- -------<br>--- --- -- ----- -- --- ---- -- --- ---- -- ------ ------<br>--- ----- -- ----,678486.2000000011,678481.7999999989,678179.752,678192.4000000004,678196.418,678496.406,,25,study
screen,html.Screen,2_1_0_1_26,2022-02-17T12:59:54.447Z,,,,,,,,,,,,,,,,,53,,,,,,,,,,,,,,339.4940000004135,,response,,,,99,,,,,,,Space,keypress(Space),,,,,,,,---- -- ----- -- ------ - ------- --- ----------<br>------------- ------ ------ ---- ---- ------- ----- -- ----<br>-------- ------- -- ---------- --- - --- ----- finds ----<br>---- --- --- ----- --- ---- ---- ------- ----- ---- -------<br>--- --- -- ----- -- --- ---- -- --- ---- -- ------ ------<br>--- ----- -- ----,678841.7000000011,678835.9000000004,678479.74,678486.2000000011,678496.406,678846.392,,26,finds
screen,html.Screen,2_1_0_1_27,2022-02-17T12:59:54.828Z,,,,,,,,,,,,,,,,,53,,,,,,,,,,,,,,371.40799999888986,,response,,,,99,,,,,,,Space,keypress(Space),,,,,,,,---- -- ----- -- ------ - ------- --- ----------<br>------------- ------ ------ ---- ---- ------- ----- -- ----<br>-------- ------- -- ---------- --- - --- ----- ----- that<br>---- --- --- ----- --- ---- ---- ------- ----- ---- -------<br>--- --- -- ----- -- --- ---- -- --- ---- -- ------ ------<br>--- ----- -- ----,679222.2999999989,679217.7999999989,678829.726,678841.9000000004,678846.392,679229.71,,27,that
screen,html.Screen,2_1_0_1_28,2022-02-17T12:59:55.205Z,,,,,,,,,,,,,,,,,53,,,,,,,,,,,,,,365.1900000004098,,response,,,,99,,,,,,,Space,keypress(Space),,,,,,,,---- -- ----- -- ------ - ------- --- ----------<br>------------- ------ ------ ---- ---- ------- ----- -- ----<br>-------- ------- -- ---------- --- - --- ----- ----- ----<br>it's --- --- ----- --- ---- ---- ------- ----- ---- -------<br>--- --- -- ----- -- --- ---- -- --- ---- -- ------ ------<br>--- ----- -- ----,679599.5999999996,679594.9000000004,679213.044,679222.4000000004,679229.71,679613.028,,28,it's
screen,html.Screen,2_1_0_1_29,2022-02-17T12:59:55.432Z,,,,,,,,,,,,,,,,,53,,,,,,,,,,,,,,207.87200000032317,,response,,,,99,,,,,,,Space,keypress(Space),,,,,,,,---- -- ----- -- ------ - ------- --- ----------<br>------------- ------ ------ ---- ---- ------- ----- -- ----<br>-------- ------- -- ---------- --- - --- ----- ----- ----<br>---- not --- ----- --- ---- ---- ------- ----- ---- -------<br>--- --- -- ----- -- --- ---- -- --- ---- -- ------ ------<br>--- ----- -- ----,679826.0999999996,679820.9000000004,679596.362,679599.7000000011,679613.028,679829.686,,29,not
screen,html.Screen,2_1_0_1_30,2022-02-17T12:59:55.717Z,,,,,,,,,,,,,,,,,53,,,,,,,,,,,,,,277.11399999889545,,response,,,,99,,,,,,,Space,keypress(Space),,,,,,,,---- -- ----- -- ------ - ------- --- ----------<br>------------- ------ ------ ---- ---- ------- ----- -- ----<br>-------- ------- -- ---------- --- - --- ----- ----- ----<br>---- --- how ----- --- ---- ---- ------- ----- ---- -------<br>--- --- -- ----- -- --- ---- -- --- ---- -- ------ ------<br>--- ----- -- ----,680111.5999999996,680106.7999999989,679813.02,679826.2999999989,679829.686,680113.008,,30,how
screen,html.Screen,2_1_0_1_31,2022-02-17T12:59:55.937Z,,,,,,,,,,,,,,,,,53,,,,,,,,,,,,,,212.79199999885168,,response,,,,99,,,,,,,Space,keypress(Space),,,,,,,,---- -- ----- -- ------ - ------- --- ----------<br>------------- ------ ------ ---- ---- ------- ----- -- ----<br>-------- ------- -- ---------- --- - --- ----- ----- ----<br>---- --- --- close --- ---- ---- ------- ----- ---- -------<br>--- --- -- ----- -- --- ---- -- --- ---- -- ------ ------<br>--- ----- -- ----,680331.7000000011,680325.7999999989,680096.342,680111.9000000004,680113.008,680346.332,,31,close
screen,html.Screen,2_1_0_1_32,2022-02-17T12:59:56.213Z,,,,,,,,,,,,,,,,,53,,,,,,,,,,,,,,256.56800000031944,,response,,,,99,,,,,,,Space,keypress(Space),,,,,,,,---- -- ----- -- ------ - ------- --- ----------<br>------------- ------ ------ ---- ---- ------- ----- -- ----<br>-------- ------- -- ---------- --- - --- ----- ----- ----<br>---- --- --- ----- you ---- ---- ------- ----- ---- -------<br>--- --- -- ----- -- --- ---- -- --- ---- -- ------ ------<br>--- ----- -- ----,680607.0999999996,680602.9000000004,680329.666,680331.7999999989,680346.332,680612.988,,32,you
screen,html.Screen,2_1_0_1_33,2022-02-17T12:59:56.456Z,,,,,,,,,,,,,,,,,53,,,,,,,,,,,,,,232.91200000036042,,response,,,,99,,,,,,,Space,keypress(Space),,,,,,,,---- -- ----- -- ------ - ------- --- ----------<br>------------- ------ ------ ---- ---- ------- ----- -- ----<br>-------- ------- -- ---------- --- - --- ----- ----- ----<br>---- --- --- ----- --- feel ---- ------- ----- ---- -------<br>--- --- -- ----- -- --- ---- -- --- ---- -- ------ ------<br>--- ----- -- ----,680850.0999999996,680845.9000000004,680596.322,680607.2000000011,680612.988,680862.978,,33,feel
screen,html.Screen,2_1_0_1_34,2022-02-17T12:59:56.734Z,,,,,,,,,,,,,,,,,53,,,,,,,,,,,,,,260.7220000011148,,response,,,,99,,,,,,,Space,keypress(Space),,,,,,,,---- -- ----- -- ------ - ------- --- ----------<br>------------- ------ ------ ---- ---- ------- ----- -- ----<br>-------- ------- -- ---------- --- - --- ----- ----- ----<br>---- --- --- ----- --- ---- that ------- ----- ---- -------<br>--- --- -- ----- -- --- ---- -- --- ---- -- ------ ------<br>--- ----- -- ----,681127.9000000004,681123.7000000011,680846.312,680850.2000000011,680862.978,681129.634,,34,that
screen,html.Screen,2_1_0_1_35,2022-02-17T12:59:57.218Z,,,,,,,,,,,,,,,,,53,,,,,,,,,,,,,,479.06600000115577,,response,,,,99,,,,,,,Space,keypress(Space),,,,,,,,---- -- ----- -- ------ - ------- --- ----------<br>------------- ------ ------ ---- ---- ------- ----- -- ----<br>-------- ------- -- ---------- --- - --- ----- ----- ----<br>---- --- --- ----- --- ---- ---- matters ----- ---- -------<br>--- --- -- ----- -- --- ---- -- --- ---- -- ------ ------<br>--- ----- -- ----,681612.7000000011,681608.7000000011,681112.968,681128.0000000019,681129.634,681629.614,,35,matters
screen,html.Screen,2_1_0_1_36,2022-02-17T12:59:57.620Z,,,,,,,,,,,,,,,,,53,,,,,,,,,,,,,,381.0860000011744,,response,,,,99,,,,,,,Space,keypress(Space),,,,,,,,"---- -- ----- -- ------ - ------- --- ----------<br>------------- ------ ------ ---- ---- ------- ----- -- ----<br>-------- ------- -- ---------- --- - --- ----- ----- ----<br>---- --- --- ----- --- ---- ---- ------- most, ---- -------<br>--- --- -- ----- -- --- ---- -- --- ---- -- ------ ------<br>--- ----- -- ----",682014.5000000019,682010.7000000011,681612.948,681612.9000000004,681629.614,682029.598,,36,"most,"
screen,html.Screen,2_1_0_1_37,2022-02-17T12:59:58.112Z,,,,,,,,,,,,,,,,,53,,,,,,,,,,,,,,473.4020000018645,,response,,,,99,,,,,,,Space,keypress(Space),,,,,,,,---- -- ----- -- ------ - ------- --- ----------<br>------------- ------ ------ ---- ---- ------- ----- -- ----<br>-------- ------- -- ---------- --- - --- ----- ----- ----<br>---- --- --- ----- --- ---- ---- ------- ----- it's -------<br>--- --- -- ----- -- --- ---- -- --- ---- -- ------ ------<br>--- ----- -- ----,682506.5000000019,682503.0000000019,682012.932,682014.7000000011,682029.598,682512.912,,37,it's
screen,html.Screen,2_1_0_1_38,2022-02-17T12:59:58.578Z,,,,,,,,,,,,,,,,,53,,,,,,,,,,,,,,455.88799999887124,,response,,,,99,,,,,,,Space,keypress(Space),,,,,,,,---- -- ----- -- ------ - ------- --- ----------<br>------------- ------ ------ ---- ---- ------- ----- -- ----<br>-------- ------- -- ---------- --- - --- ----- ----- ----<br>---- --- --- ----- --- ---- ---- ------- ----- ---- whether<br>--- --- -- ----- -- --- ---- -- --- ---- -- ------ ------<br>--- ----- -- ----,682972.5999999996,682968.7999999989,682496.246,682506.5999999996,682512.912,682979.56,,38,whether
screen,html.Screen,2_1_0_1_39,2022-02-17T12:59:59.088Z,,,,,,,,,,,,,,,,,53,,,,,,,,,,,,,,497.34000000031665,,response,,,,99,,,,,,,Space,keypress(Space),,,,,,,,---- -- ----- -- ------ - ------- --- ----------<br>------------- ------ ------ ---- ---- ------- ----- -- ----<br>-------- ------- -- ---------- --- - --- ----- ----- ----<br>---- --- --- ----- --- ---- ---- ------- ----- ---- -------<br>you --- -- ----- -- --- ---- -- --- ---- -- ------ ------<br>--- ----- -- ----,683482.7000000011,683476.9000000004,682962.894,682972.7999999989,682979.56,683496.206,,39,you
screen,html.Screen,2_1_0_1_40,2022-02-17T12:59:59.583Z,,,,,,,,,,,,,,,,,53,,,,,,,,,,,,,,474.494000001112,,response,,,,99,,,,,,,Space,keypress(Space),,,,,,,,---- -- ----- -- ------ - ------- --- ----------<br>------------- ------ ------ ---- ---- ------- ----- -- ----<br>-------- ------- -- ---------- --- - --- ----- ----- ----<br>---- --- --- ----- --- ---- ---- ------- ----- ---- -------<br>--- are -- ----- -- --- ---- -- --- ---- -- ------ ------<br>--- ----- -- ----,683976.7999999989,683970.7000000011,683479.54,683482.7999999989,683496.206,683979.52,,40,are
screen,html.Screen,2_1_0_1_41,2022-02-17T12:59:59.970Z,,,,,,,,,,,,,,,,,53,,,,,,,,,,,,,,380.2799999988638,,response,,,,99,,,,,,,Space,keypress(Space),,,,,,,,---- -- ----- -- ------ - ------- --- ----------<br>------------- ------ ------ ---- ---- ------- ----- -- ----<br>-------- ------- -- ---------- --- - --- ----- ----- ----<br>---- --- --- ----- --- ---- ---- ------- ----- ---- -------<br>--- --- as ----- -- --- ---- -- --- ---- -- ------ ------<br>--- ----- -- ----,684364.2000000011,684359.7999999989,683962.854,683977.0999999996,683979.52,684379.504,,41,as
screen,html.Screen,2_1_0_1_42,2022-02-17T13:00:00.320Z,,,,,,,,,,,,,,,,,53,,,,,,,,,,,,,,331.1960000011604,,response,,,,99,,,,,,,Space,keypress(Space),,,,,,,,---- -- ----- -- ------ - ------- --- ----------<br>------------- ------ ------ ---- ---- ------- ----- -- ----<br>-------- ------- -- ---------- --- - --- ----- ----- ----<br>---- --- --- ----- --- ---- ---- ------- ----- ---- -------<br>--- --- -- close -- --- ---- -- --- ---- -- ------ ------<br>--- ----- -- ----,684714.4000000004,684710.7000000011,684362.838,684364.4000000004,684379.504,684729.49,,42,close
screen,html.Screen,2_1_0_1_43,2022-02-17T13:00:00.681Z,,,,,,,,,,,,,,,,,53,,,,,,,,,,,,,,342.3099999988917,,response,,,,99,,,,,,,Space,keypress(Space),,,,,,,,---- -- ----- -- ------ - ------- --- ----------<br>------------- ------ ------ ---- ---- ------- ----- -- ----<br>-------- ------- -- ---------- --- - --- ----- ----- ----<br>---- --- --- ----- --- ---- ---- ------- ----- ---- -------<br>--- --- -- ----- as --- ---- -- --- ---- -- ------ ------<br>--- ----- -- ----,685075.5999999996,685071.7999999989,684712.824,684714.5000000019,684729.49,685079.476,,43,as
screen,html.Screen,2_1_0_1_44,2022-02-17T13:00:01.017Z,,,,,,,,,,,,,,,,,53,,,,,,,,,,,,,,328.12399999960326,,response,,,,99,,,,,,,Space,keypress(Space),,,,,,,,---- -- ----- -- ------ - ------- --- ----------<br>------------- ------ ------ ---- ---- ------- ----- -- ----<br>-------- ------- -- ---------- --- - --- ----- ----- ----<br>---- --- --- ----- --- ---- ---- ------- ----- ---- -------<br>--- --- -- ----- -- you ---- -- --- ---- -- ------ ------<br>--- ----- -- ----,685411.5000000019,685407.5999999996,685062.81,685076.5999999996,685079.476,685412.796,,44,you
screen,html.Screen,2_1_0_1_45,2022-02-17T13:00:01.415Z,,,,,,,,,,,,,,,,,53,,,,,,,,,,,,,,391.8039999996545,,response,,,,99,,,,,,,Space,keypress(Space),,,,,,,,---- -- ----- -- ------ - ------- --- ----------<br>------------- ------ ------ ---- ---- ------- ----- -- ----<br>-------- ------- -- ---------- --- - --- ----- ----- ----<br>---- --- --- ----- --- ---- ---- ------- ----- ---- -------<br>--- --- -- ----- -- --- want -- --- ---- -- ------ ------<br>--- ----- -- ----,685808.7000000011,685804.5999999996,685396.13,685411.7000000011,685412.796,685812.78,,45,want
screen,html.Screen,2_1_0_1_46,2022-02-17T13:00:01.813Z,,,,,,,,,,,,,,,,,53,,,,,,,,,,,,,,388.7200000018347,,response,,,,99,,,,,,,Space,keypress(Space),,,,,,,,---- -- ----- -- ------ - ------- --- ----------<br>------------- ------ ------ ---- ---- ------- ----- -- ----<br>-------- ------- -- ---------- --- - --- ----- ----- ----<br>---- --- --- ----- --- ---- ---- ------- ----- ---- -------<br>--- --- -- ----- -- --- ---- to --- ---- -- ------ ------<br>--- ----- -- ----,686207.5999999996,686201.5000000019,685796.114,685808.7999999989,685812.78,686212.764,,46,to
screen,html.Screen,2_1_0_1_47,2022-02-17T13:00:02.150Z,,,,,,,,,,,,,,,,,53,,,,,,,,,,,,,,326.9360000011511,,response,,,,99,,,,,,,Space,keypress(Space),,,,,,,,"---- -- ----- -- ------ - ------- --- ----------<br>------------- ------ ------ ---- ---- ------- ----- -- ----<br>-------- ------- -- ---------- --- - --- ----- ----- ----<br>---- --- --- ----- --- ---- ---- ------- ----- ---- -------<br>--- --- -- ----- -- --- ---- -- be, ---- -- ------ ------<br>--- ----- -- ----",686543.9000000004,686539.7000000011,686196.098,686207.9000000004,686212.764,686546.084,,47,"be,"
screen,html.Screen,2_1_0_1_48,2022-02-17T13:00:02.460Z,,,,,,,,,,,,,,,,,53,,,,,,,,,,,,,,304.6160000010859,,response,,,,99,,,,,,,Space,keypress(Space),,,,,,,,---- -- ----- -- ------ - ------- --- ----------<br>------------- ------ ------ ---- ---- ------- ----- -- ----<br>-------- ------- -- ---------- --- - --- ----- ----- ----<br>---- --- --- ----- --- ---- ---- ------- ----- ---- -------<br>--- --- -- ----- -- --- ---- -- --- even -- ------ ------<br>--- ----- -- ----,686854.4000000004,686850.7000000011,686529.418,686544.0000000019,686546.084,686862.738,,48,even
screen,html.Screen,2_1_0_1_49,2022-02-17T13:00:02.772Z,,,,,,,,,,,,,,,,,53,,,,,,,,,,,,,,299.0619999988703,,response,,,,99,,,,,,,Space,keypress(Space),,,,,,,,---- -- ----- -- ------ - ------- --- ----------<br>------------- ------ ------ ---- ---- ------- ----- -- ----<br>-------- ------- -- ---------- --- - --- ----- ----- ----<br>---- --- --- ----- --- ---- ---- ------- ----- ---- -------<br>--- --- -- ----- -- --- ---- -- --- ---- if ------ ------<br>--- ----- -- ----,687166.0999999996,687161.7999999989,686846.072,686854.5000000019,686862.738,687179.392,,49,if
screen,html.Screen,2_1_0_1_50,2022-02-17T13:00:03.092Z,,,,,,,,,,,,,,,,,53,,,,,,,,,,,,,,302.50800000038,,response,,,,99,,,,,,,Space,keypress(Space),,,,,,,,---- -- ----- -- ------ - ------- --- ----------<br>------------- ------ ------ ---- ---- ------- ----- -- ----<br>-------- ------- -- ---------- --- - --- ----- ----- ----<br>---- --- --- ----- --- ---- ---- ------- ----- ---- -------<br>--- --- -- ----- -- --- ---- -- --- ---- -- that's ------<br>--- ----- -- ----,687486.2000000011,687481.9000000004,687162.726,687166.0999999996,687179.392,687496.046,,50,that's
screen,html.Screen,2_1_0_1_51,2022-02-17T13:00:03.474Z,,,,,,,,,,,,,,,,,53,,,,,,,,,,,,,,365.7539999989094,,response,,,,99,,,,,,,Space,keypress(Space),,,,,,,,---- -- ----- -- ------ - ------- --- ----------<br>------------- ------ ------ ---- ---- ------- ----- -- ----<br>-------- ------- -- ---------- --- - --- ----- ----- ----<br>---- --- --- ----- --- ---- ---- ------- ----- ---- -------<br>--- --- -- ----- -- --- ---- -- --- ---- -- ------ really<br>--- ----- -- ----,687867.7999999989,687861.7999999989,687479.38,687486.4000000004,687496.046,687879.364,,51,really
screen,html.Screen,2_1_0_1_52,2022-02-17T13:00:03.826Z,,,,,,,,,,,,,,,,,53,,,,,,,,,,,,,,335.2359999996843,,response,,,,99,,,,,,,Space,keypress(Space),,,,,,,,---- -- ----- -- ------ - ------- --- ----------<br>------------- ------ ------ ---- ---- ------- ----- -- ----<br>-------- ------- -- ---------- --- - --- ----- ----- ----<br>---- --- --- ----- --- ---- ---- ------- ----- ---- -------<br>--- --- -- ----- -- --- ---- -- --- ---- -- ------ ------<br>not ----- -- ----,688220.0999999996,688214.5999999996,687862.698,687868.0000000019,687879.364,688229.35,,52,not
screen,html.Screen,2_1_0_1_53,2022-02-17T13:00:04.159Z,,,,,,,,,,,,,,,,,53,,,,,,,,,,,,,,319.24999999965075,,response,,,,99,,,,,,,Space,keypress(Space),,,,,,,,---- -- ----- -- ------ - ------- --- ----------<br>------------- ------ ------ ---- ---- ------- ----- -- ----<br>-------- ------- -- ---------- --- - --- ----- ----- ----<br>---- --- --- ----- --- ---- ---- ------- ----- ---- -------<br>--- --- -- ----- -- --- ---- -- --- ---- -- ------ ------<br>--- close -- ----,688552.5999999996,688548.5999999996,688212.684,688220.2000000011,688229.35,688562.67,,53,close
screen,html.Screen,2_1_0_1_54,2022-02-17T13:00:04.505Z,,,,,,,,,,,,,,,,,53,,,,,,,,,,,,,,331.0300000010757,,response,,,,99,,,,,,,Space,keypress(Space),,,,,,,,---- -- ----- -- ------ - ------- --- ----------<br>------------- ------ ------ ---- ---- ------- ----- -- ----<br>-------- ------- -- ---------- --- - --- ----- ----- ----<br>---- --- --- ----- --- ---- ---- ------- ----- ---- -------<br>--- --- -- ----- -- --- ---- -- --- ---- -- ------ ------<br>--- ----- at ----,688899.5000000019,688893.7000000011,688546.004,688552.9000000004,688562.67,688912.656,,54,at
screen,html.Screen,2_1_0_1_55,2022-02-17T13:00:04.823Z,,,,,,,,,,,,,,,,,53,,,,,,,,,,,,,,299.94399999966845,,response,,,,99,,,,,,,Space,keypress(Space),,,,,,,,---- -- ----- -- ------ - ------- --- ----------<br>------------- ------ ------ ---- ---- ------- ----- -- ----<br>-------- ------- -- ---------- --- - --- ----- ----- ----<br>---- --- --- ----- --- ---- ---- ------- ----- ---- -------<br>--- --- -- ----- -- --- ---- -- --- ---- -- ------ ------<br>--- ----- -- all.,689216.5000000019,689212.5999999996,688895.99,688899.5999999996,688912.656,689229.31,,55,all.
Item 99,flow.Loop,2_1_0_1,2022-02-17T13:00:04.823Z,,,,,,,,,,,,,,,,,,,,,,,,,,,,,,,21632.42399999965,,completion,,,,,D,,,,,,,,,,,silence,,,,,689216.7999999989,689212.5999999996,667563.51,667565.0999999996,667580.176,689229.31,,,
Question 1,html.Screen,2_1_0_2,2022-02-17T13:00:08.913Z,,,,,,,,,,,,,,,,,,,,,,,,,,,,false,FALSE,,4074.5900000003166,,response,,,,99,D,,,,,,TRUE,click #choice-1,,,,silence,,,,,693306.5000000019,693303.9000000004,689212.644,689216.9000000004,689229.31,693312.48,,,
Question 2,html.Screen,2_1_0_3,2022-02-17T13:00:16.549Z,,,,,,,,,,,,,,,,,,,,,,,,,,,,true,TRUE,,7627.319999998901,,response,,,,99,D,,,,,,TRUE,click #choice-1,,,,silence,,,,,700942.2999999989,700939.7999999989,693295.814,693306.5999999996,693312.48,700945.508,,,
Item 99,flow.Sequence,2_1_0,2022-02-17T13:00:16.549Z,,,,,,,,,,,,,,,,,,,,,,,,,,,,,,,43359.22399999888,,completion,,,,,,,,,,,,,,,,,,,,,700942.4000000004,700939.7999999989,657563.91,657580.4000000004,657580.576,700945.508,,,
Holding screen,html.Screen,2_1_1_0,2022-02-17T13:00:26.537Z,,,,,,,,,,,,,,,,,,,,,,,,,,,,,,,9999.599999999977,,timeout,,,,,,,,,,,,,,,,,,,,,710930.0000000019,710928.442,700928.842,700942.5000000019,700945.508,710945.108,,,
screen,html.Screen,2_1_1_1_0,2022-02-17T13:00:27.551Z,,,,,,,,,,,,,,,,,54,,,,,,,,,,,,,,992.3920000018552,,response,,,,100,,,,,,,Space,keypress(Space),,,,,,,,At --- ---- --- ------ ----- ------- ---- -- --- ------- --<br>------- ---------- ------ -- ----- -- ----- -- ---- ------<br>--- ----- --- --- ------ -------- ----- --- ------ ----- --<br>----- ----- ---------- --- --- ------ ------ ---- -- ------<br>------- --- ------ ----- --- ---- ------- -- ---- --- --<br>------- ------,711944.5000000019,711937.5000000019,710928.442,710930.0999999996,710945.108,711961.734,,0,At
screen,html.Screen,2_1_1_1_1,2022-02-17T13:00:27.970Z,,,,,,,,,,,,,,,,,54,,,,,,,,,,,,,,396.6660000003176,,response,,,,100,,,,,,,Space,keypress(Space),,,,,,,,-- the ---- --- ------ ----- ------- ---- -- --- ------- --<br>------- ---------- ------ -- ----- -- ----- -- ---- ------<br>--- ----- --- --- ------ -------- ----- --- ------ ----- --<br>----- ----- ---------- --- --- ------ ------ ---- -- ------<br>------- --- ------ ----- --- ---- ------- -- ---- --- --<br>------- ------,712363.7999999989,712358.4000000004,711945.068,711944.5999999996,711961.734,712378.384,,1,the
screen,html.Screen,2_1_1_1_2,2022-02-17T13:00:28.783Z,,,,,,,,,,,,,,,,,54,,,,,,,,,,,,,,792.0160000004107,,response,,,,100,,,,,,,Space,keypress(Space),,,,,,,,-- --- time --- ------ ----- ------- ---- -- --- ------- --<br>------- ---------- ------ -- ----- -- ----- -- ---- ------<br>--- ----- --- --- ------ -------- ----- --- ------ ----- --<br>----- ----- ---------- --- --- ------ ------ ---- -- ------<br>------- --- ------ ----- --- ---- ------- -- ---- --- --<br>------- ------,713176.4000000004,713170.4000000004,712361.718,712363.9000000004,712378.384,713178.352,,2,time
screen,html.Screen,2_1_1_1_3,2022-02-17T13:00:29.702Z,,,,,,,,,,,,,,,,,54,,,,,,,,,,,,,,913.1480000019073,,response,,,,100,,,,,,,Space,keypress(Space),,,,,,,,-- --- ---- the ------ ----- ------- ---- -- --- ------- --<br>------- ---------- ------ -- ----- -- ----- -- ---- ------<br>--- ----- --- --- ------ -------- ----- --- ------ ----- --<br>----- ----- ---------- --- --- ------ ------ ---- -- ------<br>------- --- ------ ----- --- ---- ------- -- ---- --- --<br>------- ------,714095.5999999996,714091.5000000019,713161.686,713176.5000000019,713178.352,714111.648,,3,the
screen,html.Screen,2_1_1_1_4,2022-02-17T13:00:30.326Z,,,,,,,,,,,,,,,,,54,,,,,,,,,,,,,,601.8520000018179,,response,,,,100,,,,,,,Space,keypress(Space),,,,,,,,-- --- ---- --- French ----- ------- ---- -- --- ------- --<br>------- ---------- ------ -- ----- -- ----- -- ---- ------<br>--- ----- --- --- ------ -------- ----- --- ------ ----- --<br>----- ----- ---------- --- --- ------ ------ ---- -- ------<br>------- --- ------ ----- --- ---- ------- -- ---- --- --<br>------- ------,714719.7000000011,714713.5000000019,714094.982,714095.7000000011,714111.648,714728.29,,4,French
screen,html.Screen,2_1_1_1_5,2022-02-17T13:00:30.874Z,,,,,,,,,,,,,,,,,54,,,,,,,,,,,,,,533.0099999988452,,response,,,,100,,,,,,,Space,keypress(Space),,,,,,,,-- --- ---- --- ------ crown ------- ---- -- --- ------- --<br>------- ---------- ------ -- ----- -- ----- -- ---- ------<br>--- ----- --- --- ------ -------- ----- --- ------ ----- --<br>----- ----- ---------- --- --- ------ ------ ---- -- ------<br>------- --- ------ ----- --- ---- ------- -- ---- --- --<br>------- ------,715267.0999999996,715261.2999999989,714711.624,714719.9000000004,714728.29,715278.268,,5,crown
screen,html.Screen,2_1_1_1_6,2022-02-17T13:00:31.349Z,,,,,,,,,,,,,,,,,54,,,,,,,,,,,,,,458.2320000018226,,response,,,,100,,,,,,,Space,keypress(Space),,,,,,,,-- --- ---- --- ------ ----- secured ---- -- --- ------- --<br>------- ---------- ------ -- ----- -- ----- -- ---- ------<br>--- ----- --- --- ------ -------- ----- --- ------ ----- --<br>----- ----- ---------- --- --- ------ ------ ---- -- ------<br>------- --- ------ ----- --- ---- ------- -- ---- --- --<br>------- ------,715742.5999999996,715736.5000000019,715261.602,715267.2000000011,715278.268,715744.916,,6,secured
screen,html.Screen,2_1_1_1_7,2022-02-17T13:00:31.807Z,,,,,,,,,,,,,,,,,54,,,,,,,,,,,,,,451.3839999989141,,response,,,,100,,,,,,,Space,keypress(Space),,,,,,,,-- --- ---- --- ------ ----- ------- much -- --- ------- --<br>------- ---------- ------ -- ----- -- ----- -- ---- ------<br>--- ----- --- --- ------ -------- ----- --- ------ ----- --<br>----- ----- ---------- --- --- ------ ------ ---- -- ------<br>------- --- ------ ----- --- ---- ------- -- ---- --- --<br>------- ------,716200.2000000011,716196.2999999989,715728.25,715742.7999999989,715744.916,716211.564,,7,much
screen,html.Screen,2_1_1_1_8,2022-02-17T13:00:32.211Z,,,,,,,,,,,,,,,,,54,,,,,,,,,,,,,,386.7359999988694,,response,,,,100,,,,,,,Space,keypress(Space),,,,,,,,-- --- ---- --- ------ ----- ------- ---- of --- ------- --<br>------- ---------- ------ -- ----- -- ----- -- ---- ------<br>--- ----- --- --- ------ -------- ----- --- ------ ----- --<br>----- ----- ---------- --- --- ------ ------ ---- -- ------<br>------- --- ------ ----- --- ---- ------- -- ---- --- --<br>------- ------,716604.2000000011,716598.2999999989,716194.898,716200.4000000004,716211.564,716611.548,,8,of
screen,html.Screen,2_1_1_1_9,2022-02-17T13:00:32.575Z,,,,,,,,,,,,,,,,,54,,,,,,,,,,,,,,352.75199999893084,,response,,,,100,,,,,,,Space,keypress(Space),,,,,,,,-- --- ---- --- ------ ----- ------- ---- -- its ------- --<br>------- ---------- ------ -- ----- -- ----- -- ---- ------<br>--- ----- --- --- ------ -------- ----- --- ------ ----- --<br>----- ----- ---------- --- --- ------ ------ ---- -- ------<br>------- --- ------ ----- --- ---- ------- -- ---- --- --<br>------- ------,716968.5999999996,716964.2999999989,716594.882,716604.4000000004,716611.548,716978.2,,9,its
screen,html.Screen,2_1_1_1_10,2022-02-17T13:00:33.062Z,,,,,,,,,,,,,,,,,54,,,,,,,,,,,,,,474.00000000116415,,response,,,,100,,,,,,,Space,keypress(Space),,,,,,,,-- --- ---- --- ------ ----- ------- ---- -- --- revenue --<br>------- ---------- ------ -- ----- -- ----- -- ---- ------<br>--- ----- --- --- ------ -------- ----- --- ------ ----- --<br>----- ----- ---------- --- --- ------ ------ ---- -- ------<br>------- --- ------ ----- --- ---- ------- -- ---- --- --<br>------- ------,717455.7000000011,717452.2000000011,716961.534,716968.7000000011,716978.2,717461.514,,10,revenue
screen,html.Screen,2_1_1_1_11,2022-02-17T13:00:33.560Z,,,,,,,,,,,,,,,,,54,,,,,,,,,,,,,,485.78599999891594,,response,,,,100,,,,,,,Space,keypress(Space),,,,,,,,-- --- ---- --- ------ ----- ------- ---- -- --- ------- by<br>------- ---------- ------ -- ----- -- ----- -- ---- ------<br>--- ----- --- --- ------ -------- ----- --- ------ ----- --<br>----- ----- ---------- --- --- ------ ------ ---- -- ------<br>------- --- ------ ----- --- ---- ------- -- ---- --- --<br>------- ------,717953.0999999996,717947.2999999989,717444.848,717455.7000000011,717461.514,717961.494,,11,by
screen,html.Screen,2_1_1_1_12,2022-02-17T13:00:34.024Z,,,,,,,,,,,,,,,,,54,,,,,,,,,,,,,,447.9060000004247,,response,,,,100,,,,,,,Space,keypress(Space),,,,,,,,-- --- ---- --- ------ ----- ------- ---- -- --- ------- --<br>issuing ---------- ------ -- ----- -- ----- -- ---- ------<br>--- ----- --- --- ------ -------- ----- --- ------ ----- --<br>----- ----- ---------- --- --- ------ ------ ---- -- ------<br>------- --- ------ ----- --- ---- ------- -- ---- --- --<br>------- ------,718416.7000000011,718409.4000000004,717944.828,717953.5000000019,717961.494,718428.142,,12,issuing
screen,html.Screen,2_1_1_1_13,2022-02-17T13:00:34.468Z,,,,,,,,,,,,,,,,,54,,,,,,,,,,,,,,427.25800000038,,response,,,,100,,,,,,,Space,keypress(Space),,,,,,,,-- --- ---- --- ------ ----- ------- ---- -- --- ------- --<br>------- government ------ -- ----- -- ----- -- ---- ------<br>--- ----- --- --- ------ -------- ----- --- ------ ----- --<br>----- ----- ---------- --- --- ------ ------ ---- -- ------<br>------- --- ------ ----- --- ---- ------- -- ---- --- --<br>------- ------,718861.5000000019,718855.4000000004,718411.476,718416.7999999989,718428.142,718878.124,,13,government
screen,html.Screen,2_1_1_1_14,2022-02-17T13:00:34.934Z,,,,,,,,,,,,,,,,,54,,,,,,,,,,,,,,443.27600000042,,response,,,,100,,,,,,,Space,keypress(Space),,,,,,,,-- --- ---- --- ------ ----- ------- ---- -- --- ------- --<br>------- ---------- bonds. -- ----- -- ----- -- ---- ------<br>--- ----- --- --- ------ -------- ----- --- ------ ----- --<br>----- ----- ---------- --- --- ------ ------ ---- -- ------<br>------- --- ------ ----- --- ---- ------- -- ---- --- --<br>------- ------,719327.2000000011,719321.4000000004,718861.458,718861.5999999996,718878.124,719344.772,,14,bonds.
screen,html.Screen,2_1_1_1_15,2022-02-17T13:00:35.394Z,,,,,,,,,,,,,,,,,54,,,,,,,,,,,,,,438.5279999988852,,response,,,,100,,,,,,,Space,keypress(Space),,,,,,,,-- --- ---- --- ------ ----- ------- ---- -- --- ------- --<br>------- ---------- ------ In ----- -- ----- -- ---- ------<br>--- ----- --- --- ------ -------- ----- --- ------ ----- --<br>----- ----- ---------- --- --- ------ ------ ---- -- ------<br>------- --- ------ ----- --- ---- ------- -- ---- --- --<br>------- ------,719787.2999999989,719783.2999999989,719328.106,719327.4000000004,719344.772,719794.754,,15,In
screen,html.Screen,2_1_1_1_16,2022-02-17T13:00:35.947Z,,,,,,,,,,,,,,,,,54,,,,,,,,,,,,,,538.7460000019055,,response,,,,100,,,,,,,Space,keypress(Space),,,,,,,,"-- --- ---- --- ------ ----- ------- ---- -- --- ------- --<br>------- ---------- ------ -- 1727, -- ----- -- ---- ------<br>--- ----- --- --- ------ -------- ----- --- ------ ----- --<br>----- ----- ---------- --- --- ------ ------ ---- -- ------<br>------- --- ------ ----- --- ---- ------- -- ---- --- --<br>------- ------",720339.7999999989,720333.5000000019,719778.088,719787.4000000004,719794.754,720344.732,,16,"1727,"
screen,html.Screen,2_1_1_1_17,2022-02-17T13:00:36.947Z,,,,,,,,,,,,,,,,,54,,,,,,,,,,,,,,987.5679999989225,,response,,,,100,,,,,,,Space,keypress(Space),,,,,,,,-- --- ---- --- ------ ----- ------- ---- -- --- ------- --<br>------- ---------- ------ -- ----- in ----- -- ---- ------<br>--- ----- --- --- ------ -------- ----- --- ------ ----- --<br>----- ----- ---------- --- --- ------ ------ ---- -- ------<br>------- --- ------ ----- --- ---- ------- -- ---- --- --<br>------- ------,721339.7999999989,721332.2999999989,720328.066,720339.9000000004,720344.732,721344.692,,17,in
screen,html.Screen,2_1_1_1_18,2022-02-17T13:00:37.366Z,,,,,,,,,,,,,,,,,54,,,,,,,,,,,,,,408.7080000003334,,response,,,,100,,,,,,,Space,keypress(Space),,,,,,,,-- --- ---- --- ------ ----- ------- ---- -- --- ------- --<br>------- ---------- ------ -- ----- -- order -- ---- ------<br>--- ----- --- --- ------ -------- ----- --- ------ ----- --<br>----- ----- ---------- --- --- ------ ------ ---- -- ------<br>------- --- ------ ----- --- ---- ------- -- ---- --- --<br>------- ------,721759.2999999989,721753.4000000004,721328.026,721340.0000000019,721344.692,721761.342,,18,order
screen,html.Screen,2_1_1_1_19,2022-02-17T13:00:37.817Z,,,,,,,,,,,,,,,,,54,,,,,,,,,,,,,,441.95799999893643,,response,,,,100,,,,,,,Space,keypress(Space),,,,,,,,-- --- ---- --- ------ ----- ------- ---- -- --- ------- --<br>------- ---------- ------ -- ----- -- ----- to ---- ------<br>--- ----- --- --- ------ -------- ----- --- ------ ----- --<br>----- ----- ---------- --- --- ------ ------ ---- -- ------<br>------- --- ------ ----- --- ---- ------- -- ---- --- --<br>------- ------,722209.5999999996,722203.2999999989,721744.676,721759.5999999996,721761.342,722211.324,,19,to
screen,html.Screen,2_1_1_1_20,2022-02-17T13:00:38.327Z,,,,,,,,,,,,,,,,,54,,,,,,,,,,,,,,502.87600000109524,,response,,,,100,,,,,,,Space,keypress(Space),,,,,,,,-- --- ---- --- ------ ----- ------- ---- -- --- ------- --<br>------- ---------- ------ -- ----- -- ----- -- save ------<br>--- ----- --- --- ------ -------- ----- --- ------ ----- --<br>----- ----- ---------- --- --- ------ ------ ---- -- ------<br>------- --- ------ ----- --- ---- ------- -- ---- --- --<br>------- ------,722720.2999999989,722714.2000000011,722194.658,722209.7999999989,722211.324,722727.97,,20,save
screen,html.Screen,2_1_1_1_21,2022-02-17T13:00:38.826Z,,,,,,,,,,,,,,,,,54,,,,,,,,,,,,,,485.1299999996554,,response,,,,100,,,,,,,Space,keypress(Space),,,,,,,,"-- --- ---- --- ------ ----- ------- ---- -- --- ------- --<br>------- ---------- ------ -- ----- -- ----- -- ---- money,<br>--- ----- --- --- ------ -------- ----- --- ------ ----- --<br>----- ----- ---------- --- --- ------ ------ ---- -- ------<br>------- --- ------ ----- --- ---- ------- -- ---- --- --<br>------- ------",723218.9000000004,723213.0999999996,722711.304,722720.5000000019,722727.97,723227.95,,21,"money,"
screen,html.Screen,2_1_1_1_22,2022-02-17T13:00:39.273Z,,,,,,,,,,,,,,,,,54,,,,,,,,,,,,,,432.349999998929,,response,,,,100,,,,,,,Space,keypress(Space),,,,,,,,-- --- ---- --- ------ ----- ------- ---- -- --- ------- --<br>------- ---------- ------ -- ----- -- ----- -- ---- ------<br>the ----- --- --- ------ -------- ----- --- ------ ----- --<br>----- ----- ---------- --- --- ------ ------ ---- -- ------<br>------- --- ------ ----- --- ---- ------- -- ---- --- --<br>------- ------,723666.2999999989,723660.2999999989,723211.284,723219.0999999996,723227.95,723677.932,,22,the
screen,html.Screen,2_1_1_1_23,2022-02-17T13:00:39.798Z,,,,,,,,,,,,,,,,,54,,,,,,,,,,,,,,507.2680000010878,,response,,,,100,,,,,,,Space,keypress(Space),,,,,,,,-- --- ---- --- ------ ----- ------- ---- -- --- ------- --<br>------- ---------- ------ -- ----- -- ----- -- ---- ------<br>--- state --- --- ------ -------- ----- --- ------ ----- --<br>----- ----- ---------- --- --- ------ ------ ---- -- ------<br>------- --- ------ ----- --- ---- ------- -- ---- --- --<br>------- ------,724191.4000000004,724185.2000000011,723661.266,723666.5000000019,723677.932,724194.578,,23,state
screen,html.Screen,2_1_1_1_24,2022-02-17T13:00:40.205Z,,,,,,,,,,,,,,,,,54,,,,,,,,,,,,,,397.7219999989029,,response,,,,100,,,,,,,Space,keypress(Space),,,,,,,,-- --- ---- --- ------ ----- ------- ---- -- --- ------- --<br>------- ---------- ------ -- ----- -- ----- -- ---- ------<br>--- ----- cut --- ------ -------- ----- --- ------ ----- --<br>----- ----- ---------- --- --- ------ ------ ---- -- ------<br>------- --- ------ ----- --- ---- ------- -- ---- --- --<br>------- ------,724597.9000000004,724592.2999999989,724177.912,724191.5999999996,724194.578,724611.228,,24,cut
screen,html.Screen,2_1_1_1_25,2022-02-17T13:00:40.596Z,,,,,,,,,,,,,,,,,54,,,,,,,,,,,,,,370.8719999996247,,response,,,,100,,,,,,,Space,keypress(Space),,,,,,,,-- --- ---- --- ------ ----- ------- ---- -- --- ------- --<br>------- ---------- ------ -- ----- -- ----- -- ---- ------<br>--- ----- --- the ------ -------- ----- --- ------ ----- --<br>----- ----- ---------- --- --- ------ ------ ---- -- ------<br>------- --- ------ ----- --- ---- ------- -- ---- --- --<br>------- ------,724988.5999999996,724982.0999999996,724594.562,724598.0999999996,724611.228,724994.546,,25,the
screen,html.Screen,2_1_1_1_26,2022-02-17T13:00:41.014Z,,,,,,,,,,,,,,,,,54,,,,,,,,,,,,,,406.6540000011446,,response,,,,100,,,,,,,Space,keypress(Space),,,,,,,,-- --- ---- --- ------ ----- ------- ---- -- --- ------- --<br>------- ---------- ------ -- ----- -- ----- -- ---- ------<br>--- ----- --- --- bonds' -------- ----- --- ------ ----- --<br>----- ----- ---------- --- --- ------ ------ ---- -- ------<br>------- --- ------ ----- --- ---- ------- -- ---- --- --<br>------- ------,725407.2000000011,725401.2000000011,724977.88,724988.7999999989,724994.546,725411.196,,26,bonds'
screen,html.Screen,2_1_1_1_27,2022-02-17T13:00:41.411Z,,,,,,,,,,,,,,,,,54,,,,,,,,,,,,,,387.0040000011213,,response,,,,100,,,,,,,Space,keypress(Space),,,,,,,,-- --- ---- --- ------ ----- ------- ---- -- --- ------- --<br>------- ---------- ------ -- ----- -- ----- -- ---- ------<br>--- ----- --- --- ------ interest ----- --- ------ ----- --<br>----- ----- ---------- --- --- ------ ------ ---- -- ------<br>------- --- ------ ----- --- ---- ------- -- ---- --- --<br>------- ------,725804.0999999996,725798.2000000011,725394.53,725407.2999999989,725411.196,725811.18,,27,interest
screen,html.Screen,2_1_1_1_28,2022-02-17T13:00:41.788Z,,,,,,,,,,,,,,,,,54,,,,,,,,,,,,,,363.91999999957625,,response,,,,100,,,,,,,Space,keypress(Space),,,,,,,,-- --- ---- --- ------ ----- ------- ---- -- --- ------- --<br>------- ---------- ------ -- ----- -- ----- -- ---- ------<br>--- ----- --- --- ------ -------- rate. --- ------ ----- --<br>----- ----- ---------- --- --- ------ ------ ---- -- ------<br>------- --- ------ ----- --- ---- ------- -- ---- --- --<br>------- ------,726180.5000000019,726175.0999999996,725794.514,725804.2999999989,725811.18,726194.498,,28,rate.
screen,html.Screen,2_1_1_1_29,2022-02-17T13:00:42.205Z,,,,,,,,,,,,,,,,,54,,,,,,,,,,,,,,397.5020000018412,,response,,,,100,,,,,,,Space,keypress(Space),,,,,,,,-- --- ---- --- ------ ----- ------- ---- -- --- ------- --<br>------- ---------- ------ -- ----- -- ----- -- ---- ------<br>--- ----- --- --- ------ -------- ----- The ------ ----- --<br>----- ----- ---------- --- --- ------ ------ ---- -- ------<br>------- --- ------ ----- --- ---- ------- -- ---- --- --<br>------- ------,726597.7999999989,726592.0000000019,726177.832,726180.5999999996,726194.498,726611.148,,29,The
screen,html.Screen,2_1_1_1_30,2022-02-17T13:00:42.675Z,,,,,,,,,,,,,,,,,54,,,,,,,,,,,,,,453.0520000010729,,response,,,,100,,,,,,,Space,keypress(Space),,,,,,,,-- --- ---- --- ------ ----- ------- ---- -- --- ------- --<br>------- ---------- ------ -- ----- -- ----- -- ---- ------<br>--- ----- --- --- ------ -------- ----- --- market ----- --<br>----- ----- ---------- --- --- ------ ------ ---- -- ------<br>------- --- ------ ----- --- ---- ------- -- ---- --- --<br>------- ------,727068.2999999989,727064.2000000011,726594.482,726597.9000000004,726611.148,727077.796,,30,market
screen,html.Screen,2_1_1_1_31,2022-02-17T13:00:43.035Z,,,,,,,,,,,,,,,,,54,,,,,,,,,,,,,,344.3039999996545,,response,,,,100,,,,,,,Space,keypress(Space),,,,,,,,-- --- ---- --- ------ ----- ------- ---- -- --- ------- --<br>------- ---------- ------ -- ----- -- ----- -- ---- ------<br>--- ----- --- --- ------ -------- ----- --- ------ value --<br>----- ----- ---------- --- --- ------ ------ ---- -- ------<br>------- --- ------ ----- --- ---- ------- -- ---- --- --<br>------- ------,727427.9000000004,727422.0999999996,727061.13,727068.5000000019,727077.796,727444.448,,31,value
screen,html.Screen,2_1_1_1_32,2022-02-17T13:00:43.406Z,,,,,,,,,,,,,,,,,54,,,,,,,,,,,,,,348.85199999890756,,response,,,,100,,,,,,,Space,keypress(Space),,,,,,,,-- --- ---- --- ------ ----- ------- ---- -- --- ------- --<br>------- ---------- ------ -- ----- -- ----- -- ---- ------<br>--- ----- --- --- ------ -------- ----- --- ------ ----- of<br>----- ----- ---------- --- --- ------ ------ ---- -- ------<br>------- --- ------ ----- --- ---- ------- -- ---- --- --<br>------- ------,727799.0999999996,727793.2999999989,727427.782,727427.9000000004,727444.448,727811.1,,32,of
screen,html.Screen,2_1_1_1_33,2022-02-17T13:00:43.791Z,,,,,,,,,,,,,,,,,54,,,,,,,,,,,,,,367.10000000114087,,response,,,,100,,,,,,,Space,keypress(Space),,,,,,,,-- --- ---- --- ------ ----- ------- ---- -- --- ------- --<br>------- ---------- ------ -- ----- -- ----- -- ---- ------<br>--- ----- --- --- ------ -------- ----- --- ------ ----- --<br>these ----- ---------- --- --- ------ ------ ---- -- ------<br>------- --- ------ ----- --- ---- ------- -- ---- --- --<br>------- ------,728184.2999999989,728178.2000000011,727794.434,727799.0999999996,727811.1,728194.418,,33,these
screen,html.Screen,2_1_1_1_34,2022-02-17T13:00:44.224Z,,,,,,,,,,,,,,,,,54,,,,,,,,,,,,,,416.7820000011707,,response,,,,100,,,,,,,Space,keypress(Space),,,,,,,,-- --- ---- --- ------ ----- ------- ---- -- --- ------- --<br>------- ---------- ------ -- ----- -- ----- -- ---- ------<br>--- ----- --- --- ------ -------- ----- --- ------ ----- --<br>----- bonds ---------- --- --- ------ ------ ---- -- ------<br>------- --- ------ ----- --- ---- ------- -- ---- --- --<br>------- ------,728617.2000000011,728611.2000000011,728177.752,728184.4000000004,728194.418,728627.734,,34,bonds
screen,html.Screen,2_1_1_1_35,2022-02-17T13:00:44.758Z,,,,,,,,,,,,,,,,,54,,,,,,,,,,,,,,517.4660000010626,,response,,,,100,,,,,,,Space,keypress(Space),,,,,,,,"-- --- ---- --- ------ ----- ------- ---- -- --- ------- --<br>------- ---------- ------ -- ----- -- ----- -- ---- ------<br>--- ----- --- --- ------ -------- ----- --- ------ ----- --<br>----- ----- plummeted, --- --- ------ ------ ---- -- ------<br>------- --- ------ ----- --- ---- ------- -- ---- --- --<br>------- ------",729151.2999999989,729145.2000000011,728611.068,728617.5000000019,728627.734,729161.046,,35,"plummeted,"
screen,html.Screen,2_1_1_1_36,2022-02-17T13:00:45.561Z,,,,,,,,,,,,,,,,,54,,,,,,,,,,,,,,787.1540000011446,,response,,,,100,,,,,,,Space,keypress(Space),,,,,,,,-- --- ---- --- ------ ----- ------- ---- -- --- ------- --<br>------- ---------- ------ -- ----- -- ----- -- ---- ------<br>--- ----- --- --- ------ -------- ----- --- ------ ----- --<br>----- ----- ---------- and --- ------ ------ ---- -- ------<br>------- --- ------ ----- --- ---- ------- -- ---- --- --<br>------- ------,729954.0000000019,729948.2000000011,729144.38,729151.5999999996,729161.046,729961.014,,36,and
screen,html.Screen,2_1_1_1_37,2022-02-17T13:00:46.057Z,,,,,,,,,,,,,,,,,54,,,,,,,,,,,,,,485.085999999661,,response,,,,100,,,,,,,Space,keypress(Space),,,,,,,,-- --- ---- --- ------ ----- ------- ---- -- --- ------- --<br>------- ---------- ------ -- ----- -- ----- -- ---- ------<br>--- ----- --- --- ------ -------- ----- --- ------ ----- --<br>----- ----- ---------- --- the ------ ------ ---- -- ------<br>------- --- ------ ----- --- ---- ------- -- ---- --- --<br>------- ------,730449.7000000011,730446.0999999996,729944.348,729954.2000000011,729961.014,730460.994,,37,the
screen,html.Screen,2_1_1_1_38,2022-02-17T13:00:46.509Z,,,,,,,,,,,,,,,,,54,,,,,,,,,,,,,,435.20600000116974,,response,,,,100,,,,,,,Space,keypress(Space),,,,,,,,-- --- ---- --- ------ ----- ------- ---- -- --- ------- --<br>------- ---------- ------ -- ----- -- ----- -- ---- ------<br>--- ----- --- --- ------ -------- ----- --- ------ ----- --<br>----- ----- ---------- --- --- market ------ ---- -- ------<br>------- --- ------ ----- --- ---- ------- -- ---- --- --<br>------- ------,730901.9000000004,730896.2000000011,730444.328,730449.7000000011,730460.994,730910.976,,38,market
screen,html.Screen,2_1_1_1_39,2022-02-17T13:00:46.969Z,,,,,,,,,,,,,,,,,54,,,,,,,,,,,,,,443.12399999960326,,response,,,,100,,,,,,,Space,keypress(Space),,,,,,,,-- --- ---- --- ------ ----- ------- ---- -- --- ------- --<br>------- ---------- ------ -- ----- -- ----- -- ---- ------<br>--- ----- --- --- ------ -------- ----- --- ------ ----- --<br>----- ----- ---------- --- --- ------ became ---- -- ------<br>------- --- ------ ----- --- ---- ------- -- ---- --- --<br>------- ------,731361.7999999989,731354.0999999996,730894.31,730902.2999999989,730910.976,731377.624,,39,became
screen,html.Screen,2_1_1_1_40,2022-02-17T13:00:48.135Z,,,,,,,,,,,,,,,,,54,,,,,,,,,,,,,,1143.3760000019101,,response,,,,100,,,,,,,Space,keypress(Space),,,,,,,,-- --- ---- --- ------ ----- ------- ---- -- --- ------- --<br>------- ---------- ------ -- ----- -- ----- -- ---- ------<br>--- ----- --- --- ------ -------- ----- --- ------ ----- --<br>----- ----- ---------- --- --- ------ ------ wary -- ------<br>------- --- ------ ----- --- ---- ------- -- ---- --- --<br>------- ------,732527.7999999989,732521.0000000019,731360.958,731362.0000000019,731377.624,732544.244,,40,wary
screen,html.Screen,2_1_1_1_41,2022-02-17T13:00:48.526Z,,,,,,,,,,,,,,,,,54,,,,,,,,,,,,,,368.6560000004247,,response,,,,100,,,,,,,Space,keypress(Space),,,,,,,,-- --- ---- --- ------ ----- ------- ---- -- --- ------- --<br>------- ---------- ------ -- ----- -- ----- -- ---- ------<br>--- ----- --- --- ------ -------- ----- --- ------ ----- --<br>----- ----- ---------- --- --- ------ ------ ---- of ------<br>------- --- ------ ----- --- ---- ------- -- ---- --- --<br>------- ------,732918.5999999996,732912.9000000004,732527.578,732528.0000000019,732544.244,732927.562,,41,of
screen,html.Screen,2_1_1_1_42,2022-02-17T13:00:48.923Z,,,,,,,,,,,,,,,,,54,,,,,,,,,,,,,,382.537999999593,,response,,,,100,,,,,,,Space,keypress(Space),,,,,,,,-- --- ---- --- ------ ----- ------- ---- -- --- ------- --<br>------- ---------- ------ -- ----- -- ----- -- ---- ------<br>--- ----- --- --- ------ -------- ----- --- ------ ----- --<br>----- ----- ---------- --- --- ------ ------ ---- -- French<br>------- --- ------ ----- --- ---- ------- -- ---- --- --<br>------- ------,733316.2000000011,733310.0999999996,732910.896,732918.7000000011,732927.562,733327.546,,42,French
screen,html.Screen,2_1_1_1_43,2022-02-17T13:00:49.319Z,,,,,,,,,,,,,,,,,54,,,,,,,,,,,,,,378.6540000011446,,response,,,,100,,,,,,,Space,keypress(Space),,,,,,,,-- --- ---- --- ------ ----- ------- ---- -- --- ------- --<br>------- ---------- ------ -- ----- -- ----- -- ---- ------<br>--- ----- --- --- ------ -------- ----- --- ------ ----- --<br>----- ----- ---------- --- --- ------ ------ ---- -- ------<br>credit. --- ------ ----- --- ---- ------- -- ---- --- --<br>------- ------,733712.0999999996,733706.2000000011,733310.88,733316.4000000004,733327.546,733727.53,,43,credit.
screen,html.Screen,2_1_1_1_44,2022-02-17T13:00:49.827Z,,,,,,,,,,,,,,,,,54,,,,,,,,,,,,,,488.3700000003446,,response,,,,100,,,,,,,Space,keypress(Space),,,,,,,,-- --- ---- --- ------ ----- ------- ---- -- --- ------- --<br>------- ---------- ------ -- ----- -- ----- -- ---- ------<br>--- ----- --- --- ------ -------- ----- --- ------ ----- --<br>----- ----- ---------- --- --- ------ ------ ---- -- ------<br>------- The ------ ----- --- ---- ------- -- ---- --- --<br>------- ------,734219.7000000011,734215.9000000004,733710.864,733712.2000000011,733727.53,734227.51,,44,The
screen,html.Screen,2_1_1_1_45,2022-02-17T13:00:50.199Z,,,,,,,,,,,,,,,,,54,,,,,,,,,,,,,,359.58999999961816,,response,,,,100,,,,,,,Space,keypress(Space),,,,,,,,-- --- ---- --- ------ ----- ------- ---- -- --- ------- --<br>------- ---------- ------ -- ----- -- ----- -- ---- ------<br>--- ----- --- --- ------ -------- ----- --- ------ ----- --<br>----- ----- ---------- --- --- ------ ------ ---- -- ------<br>------- --- French ----- --- ---- ------- -- ---- --- --<br>------- ------,734591.5000000019,734587.0999999996,734210.844,734219.9000000004,734227.51,734594.162,,45,French
screen,html.Screen,2_1_1_1_46,2022-02-17T13:00:50.583Z,,,,,,,,,,,,,,,,,54,,,,,,,,,,,,,,375.73800000036135,,response,,,,100,,,,,,,Space,keypress(Space),,,,,,,,-- --- ---- --- ------ ----- ------- ---- -- --- ------- --<br>------- ---------- ------ -- ----- -- ----- -- ---- ------<br>--- ----- --- --- ------ -------- ----- --- ------ ----- --<br>----- ----- ---------- --- --- ------ ------ ---- -- ------<br>------- --- ------ state --- ---- ------- -- ---- --- --<br>------- ------,734975.5000000019,734969.9000000004,734577.496,734591.7000000011,734594.162,734977.48,,46,state
screen,html.Screen,2_1_1_1_47,2022-02-17T13:00:50.984Z,,,,,,,,,,,,,,,,,54,,,,,,,,,,,,,,393.5200000018813,,response,,,,100,,,,,,,Space,keypress(Space),,,,,,,,-- --- ---- --- ------ ----- ------- ---- -- --- ------- --<br>------- ---------- ------ -- ----- -- ----- -- ---- ------<br>--- ----- --- --- ------ -------- ----- --- ------ ----- --<br>----- ----- ---------- --- --- ------ ------ ---- -- ------<br>------- --- ------ ----- was ---- ------- -- ---- --- --<br>------- ------,735377.0000000019,735371.0000000019,734960.814,734975.7000000011,734977.48,735394.13,,47,was
screen,html.Screen,2_1_1_1_48,2022-02-17T13:00:51.270Z,,,,,,,,,,,,,,,,,54,,,,,,,,,,,,,,262.870000001858,,response,,,,100,,,,,,,Space,keypress(Space),,,,,,,,-- --- ---- --- ------ ----- ------- ---- -- --- ------- --<br>------- ---------- ------ -- ----- -- ----- -- ---- ------<br>--- ----- --- --- ------ -------- ----- --- ------ ----- --<br>----- ----- ---------- --- --- ------ ------ ---- -- ------<br>------- --- ------ ----- --- left ------- -- ---- --- --<br>------- ------,735662.7999999989,735657.0000000019,735377.464,735377.0999999996,735394.13,735677.452,,48,left
screen,html.Screen,2_1_1_1_49,2022-02-17T13:00:51.789Z,,,,,,,,,,,,,,,,,54,,,,,,,,,,,,,,498.4480000003241,,response,,,,100,,,,,,,Space,keypress(Space),,,,,,,,-- --- ---- --- ------ ----- ------- ---- -- --- ------- --<br>------- ---------- ------ -- ----- -- ----- -- ---- ------<br>--- ----- --- --- ------ -------- ----- --- ------ ----- --<br>----- ----- ---------- --- --- ------ ------ ---- -- ------<br>------- --- ------ ----- --- ---- without -- ---- --- --<br>------- ------,736181.7000000011,736175.9000000004,735660.786,735662.9000000004,735677.452,736194.098,,49,without
screen,html.Screen,2_1_1_1_50,2022-02-17T13:00:52.175Z,,,,,,,,,,,,,,,,,54,,,,,,,,,,,,,,368.8020000003744,,response,,,,100,,,,,,,Space,keypress(Space),,,,,,,,-- --- ---- --- ------ ----- ------- ---- -- --- ------- --<br>------- ---------- ------ -- ----- -- ----- -- ---- ------<br>--- ----- --- --- ------ -------- ----- --- ------ ----- --<br>----- ----- ---------- --- --- ------ ------ ---- -- ------<br>------- --- ------ ----- --- ---- ------- an ---- --- --<br>------- ------,736567.4000000004,736562.9000000004,736177.432,736182.0999999996,736194.098,736577.416,,50,an
screen,html.Screen,2_1_1_1_51,2022-02-17T13:00:52.550Z,,,,,,,,,,,,,,,,,54,,,,,,,,,,,,,,358.5840000018943,,response,,,,100,,,,,,,Space,keypress(Space),,,,,,,,-- --- ---- --- ------ ----- ------- ---- -- --- ------- --<br>------- ---------- ------ -- ----- -- ----- -- ---- ------<br>--- ----- --- --- ------ -------- ----- --- ------ ----- --<br>----- ----- ---------- --- --- ------ ------ ---- -- ------<br>------- --- ------ ----- --- ---- ------- -- easy --- --<br>------- ------,736942.2000000011,736936.0000000019,736560.75,736567.5999999996,736577.416,736944.068,,51,easy
screen,html.Screen,2_1_1_1_52,2022-02-17T13:00:52.846Z,,,,,,,,,,,,,,,,,54,,,,,,,,,,,,,,287.83200000040233,,response,,,,100,,,,,,,Space,keypress(Space),,,,,,,,-- --- ---- --- ------ ----- ------- ---- -- --- ------- --<br>------- ---------- ------ -- ----- -- ----- -- ---- ------<br>--- ----- --- --- ------ -------- ----- --- ------ ----- --<br>----- ----- ---------- --- --- ------ ------ ---- -- ------<br>------- --- ------ ----- --- ---- ------- -- ---- way --<br>------- ------,737238.0999999996,737231.9000000004,736927.402,736942.2999999989,736944.068,737244.056,,52,way
screen,html.Screen,2_1_1_1_53,2022-02-17T13:00:53.157Z,,,,,,,,,,,,,,,,,54,,,,,,,,,,,,,,298.94400000188034,,response,,,,100,,,,,,,Space,keypress(Space),,,,,,,,-- --- ---- --- ------ ----- ------- ---- -- --- ------- --<br>------- ---------- ------ -- ----- -- ----- -- ---- ------<br>--- ----- --- --- ------ -------- ----- --- ------ ----- --<br>----- ----- ---------- --- --- ------ ------ ---- -- ------<br>------- --- ------ ----- --- ---- ------- -- ---- --- of<br>------- ------,737549.0999999996,737543.0000000019,737227.39,737238.2999999989,737244.056,737560.71,,53,of
screen,html.Screen,2_1_1_1_54,2022-02-17T13:00:53.613Z,,,,,,,,,,,,,,,,,54,,,,,,,,,,,,,,439.2900000018999,,response,,,,100,,,,,,,Space,keypress(Space),,,,,,,,-- --- ---- --- ------ ----- ------- ---- -- --- ------- --<br>------- ---------- ------ -- ----- -- ----- -- ---- ------<br>--- ----- --- --- ------ -------- ----- --- ------ ----- --<br>----- ----- ---------- --- --- ------ ------ ---- -- ------<br>------- --- ------ ----- --- ---- ------- -- ---- --- --<br>raising ------,738005.7999999989,738000.0000000019,737544.044,737549.2999999989,737560.71,738010.692,,54,raising
screen,html.Screen,2_1_1_1_55,2022-02-17T13:00:53.968Z,,,,,,,,,,,,,,,,,54,,,,,,,,,,,,,,344.1079999988433,,response,,,,100,,,,,,,Space,keypress(Space),,,,,,,,-- --- ---- --- ------ ----- ------- ---- -- --- ------- --<br>------- ---------- ------ -- ----- -- ----- -- ---- ------<br>--- ----- --- --- ------ -------- ----- --- ------ ----- --<br>----- ----- ---------- --- --- ------ ------ ---- -- ------<br>------- --- ------ ----- --- ---- ------- -- ---- --- --<br>------- money.,738360.7000000011,738354.7999999989,737994.026,738005.9000000004,738010.692,738377.344,,55,money.
Item 100,flow.Loop,2_1_1_1,2022-02-17T13:00:53.968Z,,,,,,,,,,,,,,,,,,,,,,,,,,,,,,,27409.691999998875,,completion,,,,,D,,,,,,,,,,,silence,,,,,738361.0000000019,738354.7999999989,710928.442,710930.0999999996,710945.108,738377.344,,,
Question 1,html.Screen,2_1_1_2,2022-02-17T13:00:56.185Z,,,,,,,,,,,,,,,,,,,,,,,,,,,,true,TRUE,,2196.9559999988414,,response,,,,100,D,,,,,,TRUE,click #choice-1,,,,silence,,,,,740577.2999999989,740574.2999999989,738360.678,738361.2000000011,738377.344,740577.256,,,
Question 2,html.Screen,2_1_1_3,2022-02-17T13:00:58.539Z,,,,,,,,,,,,,,,,,,,,,,,,,,,,true,FALSE,,2351.5439999988303,,response,,,,100,D,,,,,,FALSE,click #choice-2,,,,silence,,,,,742931.2999999989,742928.7999999989,740560.59,740577.2999999989,740577.256,742943.828,,,
Item 100,flow.Sequence,2_1_1,2022-02-17T13:00:58.539Z,,,,,,,,,,,,,,,,,,,,,,,,,,,,,,,41983.29199999885,,completion,,,,,,,,,,,,,,,,,,,,,742931.5000000019,742928.7999999989,700928.842,700942.5000000019,700945.508,742943.828,,,
End of Practice,html.Page,2_1_2,2022-02-17T13:01:01.666Z,,,,,,,,,,,,,,,,,,,,,,,,,,,,,,,3113.872000001138,,form submission,,,,,,,,,,,,,,,,,,,,,746058.5000000019,746057.7000000011,742927.162,742931.5999999996,742943.828,746060.37,,,
Practice,flow.Sequence,2_1,2022-02-17T13:01:01.666Z,,,,,,,,,,,,,,,,,,,,,,,,,,,,,,,88477.12400000112,,completion,,,,,,,,,,,,,,,,,,,,,746058.7999999989,746057.7000000011,657563.91,657580.2999999989,657580.576,746060.37,,,
Trap_instruction,html.Page,2_2_0,2022-02-17T13:01:04.951Z,,,,,,,,,,,,,,,,,,,,,,,,,,,,,,,3282.8300000011222,,form submission,,,,,,,,,,,,,,,,,,,,,749343.5000000019,749343.2000000011,746043.704,746058.9000000004,746060.37,749343.572,,,
trap_trial,html.Screen,2_2_1,2022-02-17T13:01:08.462Z,,,,,,,,,,,,,,,,,,,,,,,,,,,,true,1,,3508.428000001819,,response,,,,,,,,,,,1,click #choice-1,,,,,,,,,752854.5000000019,752852.0000000019,749326.906,749343.5999999996,749343.572,752860.098,,,
end of trap trial,html.Page,2_2_2,2022-02-17T13:01:09.861Z,,,,,,,,,,,,,,,,,,,,,,,,,,,,,,,1392.2019999988843,,form submission,,,,,,,,,,,,,,,,,,,,,754253.0999999996,754252.2999999989,752843.432,752854.5999999996,752860.098,754260.042,,,
Trap 1,flow.Sequence,2_2,2022-02-17T13:01:09.861Z,,,,,,,,,,,,,,,,,,,,,,,,,,,,,,,8191.929999998887,,completion,,,,,,,,,,,,,,,,,,,,,754253.2999999989,754252.2999999989,746043.704,746058.9000000004,746060.37,754260.042,,,
Standby,html.Page,2_3_0,2022-02-17T13:01:17.853Z,,,,,,,,,,,,,,,,,,,,,,,,,,,,,,,7999.679999999935,,timeout,,,,,,,,,,,,,,,,,,,,,762245.0999999996,762243.056,754243.376,754253.4000000004,754260.042,762259.722,,,
Holding screen,html.Screen,2_3_1_0_0,2022-02-17T13:01:24.853Z,,,,,,,,,,,,,,,,,,,,,,,,,,,,,,,6999.7200000000885,,timeout,,,,,,,,,,,,,,,,,,,,,769244.7000000011,769242.776,762243.056,762245.5000000019,762259.722,769259.442,,,
screen,html.Screen,2_3_1_0_1_0,2022-02-17T13:01:25.700Z,,,,,,,,,,,,,,,,,2,,,,,,,,,,,,,,827.1579999995884,,response,,,,1,D,,,,,,Space,keypress(Space),,,,silence,,,,Two ---- ------ --- ------- ---------- ------- ----------<br>--- --------- --- ----------- ------- ----- ------- ---<br>--------- ---- -- --- ---- -- --------- -- ---- -------<br>-- --------- ------ --- ----- ------ ---- --- --------- --<br>------ - ---- -- --- ----------- ------- ---- ----- -----<br>--- -------- - ------ ---- -- ----- ---- --- --- -----------<br>-- -------,770091.7000000011,770086.5999999996,769242.776,769244.9000000004,769259.442,770092.742,,0,Two
screen,html.Screen,2_3_1_0_1_1,2022-02-17T13:01:26.121Z,,,,,,,,,,,,,,,,,2,,,,,,,,,,,,,,414.8579999996582,,response,,,,1,D,,,,,,Space,keypress(Space),,,,silence,,,,--- days ------ --- ------- ---------- ------- ----------<br>--- --------- --- ----------- ------- ----- ------- ---<br>--------- ---- -- --- ---- -- --------- -- ---- -------<br>-- --------- ------ --- ----- ------ ---- --- --------- --<br>------ - ---- -- --- ----------- ------- ---- ----- -----<br>--- -------- - ------ ---- -- ----- ---- --- --- -----------<br>-- -------,770512.2999999989,770507.5999999996,770076.076,770091.7999999989,770092.742,770526.058,,1,days
screen,html.Screen,2_3_1_0_1_2,2022-02-17T13:01:26.491Z,,,,,,,,,,,,,,,,,2,,,,,,,,,,,,,,353.0419999996666,,response,,,,1,D,,,,,,Space,keypress(Space),,,,silence,,,,"--- ---- later, --- ------- ---------- ------- ----------<br>--- --------- --- ----------- ------- ----- ------- ---<br>--------- ---- -- --- ---- -- --------- -- ---- -------<br>-- --------- ------ --- ----- ------ ---- --- --------- --<br>------ - ---- -- --- ----------- ------- ---- ----- -----<br>--- -------- - ------ ---- -- ----- ---- --- --- -----------<br>-- -------",770883.0000000019,770879.0999999996,770509.392,770512.5000000019,770526.058,770892.71,,2,"later,"
screen,html.Screen,2_3_1_0_1_3,2022-02-17T13:01:27.066Z,,,,,,,,,,,,,,,,,2,,,,,,,,,,,,,,557.8899999996647,,response,,,,1,D,,,,,,Space,keypress(Space),,,,silence,,,,--- ---- ------ the ------- ---------- ------- ----------<br>--- --------- --- ----------- ------- ----- ------- ---<br>--------- ---- -- --- ---- -- --------- -- ---- -------<br>-- --------- ------ --- ----- ------ ---- --- --------- --<br>------ - ---- -- --- ----------- ------- ---- ----- -----<br>--- -------- - ------ ---- -- ----- ---- --- --- -----------<br>-- -------,771457.9000000004,771450.5999999996,770876.044,770883.2000000011,770892.71,771459.354,,3,the
screen,html.Screen,2_3_1_0_1_4,2022-02-17T13:01:27.502Z,,,,,,,,,,,,,,,,,2,,,,,,,,,,,,,,429.4459999988321,,response,,,,1,D,,,,,,Space,keypress(Space),,,,silence,,,,--- ---- ------ --- British ---------- ------- ----------<br>--- --------- --- ----------- ------- ----- ------- ---<br>--------- ---- -- --- ---- -- --------- -- ---- -------<br>-- --------- ------ --- ----- ------ ---- --- --------- --<br>------ - ---- -- --- ----------- ------- ---- ----- -----<br>--- -------- - ------ ---- -- ----- ---- --- --- -----------<br>-- -------,771893.2000000011,771888.7999999989,771442.688,771458.0999999996,771459.354,771909.336,,4,British
screen,html.Screen,2_3_1_0_1_5,2022-02-17T13:01:28.033Z,,,,,,,,,,,,,,,,,2,,,,,,,,,,,,,,511.5640000003623,,response,,,,1,D,,,,,,Space,keypress(Space),,,,silence,,,,--- ---- ------ --- ------- astronomer ------- ----------<br>--- --------- --- ----------- ------- ----- ------- ---<br>--------- ---- -- --- ---- -- --------- -- ---- -------<br>-- --------- ------ --- ----- ------ ---- --- --------- --<br>------ - ---- -- --- ----------- ------- ---- ----- -----<br>--- -------- - ------ ---- -- ----- ---- --- --- -----------<br>-- -------,772424.7999999989,772420.9000000004,771892.67,771893.4000000004,771909.336,772425.982,,5,astronomer
screen,html.Screen,2_3_1_0_1_6,2022-02-17T13:01:28.504Z,,,,,,,,,,,,,,,,,2,,,,,,,,,,,,,,465.4180000004126,,response,,,,1,D,,,,,,Space,keypress(Space),,,,silence,,,,--- ---- ------ --- ------- ---------- Richard ----------<br>--- --------- --- ----------- ------- ----- ------- ---<br>--------- ---- -- --- ---- -- --------- -- ---- -------<br>-- --------- ------ --- ----- ------ ---- --- --------- --<br>------ - ---- -- --- ----------- ------- ---- ----- -----<br>--- -------- - ------ ---- -- ----- ---- --- --- -----------<br>-- -------,772895.7999999989,772891.4000000004,772409.316,772425.0999999996,772425.982,772909.296,,6,Richard
screen,html.Screen,2_3_1_0_1_7,2022-02-17T13:01:29.107Z,,,,,,,,,,,,,,,,,2,,,,,,,,,,,,,,585.2040000018897,,response,,,,1,D,,,,,,Space,keypress(Space),,,,silence,,,,--- ---- ------ --- ------- ---------- ------- Carrington<br>--- --------- --- ----------- ------- ----- ------- ---<br>--------- ---- -- --- ---- -- --------- -- ---- -------<br>-- --------- ------ --- ----- ------ ---- --- --------- --<br>------ - ---- -- --- ----------- ------- ---- ----- -----<br>--- -------- - ------ ---- -- ----- ---- --- --- -----------<br>-- -------,773498.2000000011,773494.5000000019,772892.63,772895.7999999989,772909.296,773509.272,,7,Carrington
screen,html.Screen,2_3_1_0_1_8,2022-02-17T13:01:29.568Z,,,,,,,,,,,,,,,,,2,,,,,,,,,,,,,,446.1280000003753,,response,,,,1,D,,,,,,Space,keypress(Space),,,,silence,,,,--- ---- ------ --- ------- ---------- ------- ----------<br>was --------- --- ----------- ------- ----- ------- ---<br>--------- ---- -- --- ---- -- --------- -- ---- -------<br>-- --------- ------ --- ----- ------ ---- --- --------- --<br>------ - ---- -- --- ----------- ------- ---- ----- -----<br>--- -------- - ------ ---- -- ----- ---- --- --- -----------<br>-- -------,773959.0999999996,773955.4000000004,773492.606,773498.2999999989,773509.272,773975.92,,8,was
screen,html.Screen,2_3_1_0_1_9,2022-02-17T13:01:30.305Z,,,,,,,,,,,,,,,,,2,,,,,,,,,,,,,,706.3799999988405,,response,,,,1,D,,,,,,Space,keypress(Space),,,,silence,,,,--- ---- ------ --- ------- ---------- ------- ----------<br>--- observing --- ----------- ------- ----- ------- ---<br>--------- ---- -- --- ---- -- --------- -- ---- -------<br>-- --------- ------ --- ----- ------ ---- --- --------- --<br>------ - ---- -- --- ----------- ------- ---- ----- -----<br>--- -------- - ------ ---- -- ----- ---- --- --- -----------<br>-- -------,774696.9000000004,774682.2999999989,773959.254,773959.2000000011,773975.92,774725.89,,9,observing
screen,html.Screen,2_3_1_0_1_10,2022-02-17T13:01:30.725Z,,,,,,,,,,,,,,,,,2,,,,,,,,,,,,,,386.6100000018487,,response,,,,1,D,,,,,,Space,keypress(Space),,,,silence,,,,--- ---- ------ --- ------- ---------- ------- ----------<br>--- --------- the ----------- ------- ----- ------- ---<br>--------- ---- -- --- ---- -- --------- -- ---- -------<br>-- --------- ------ --- ----- ------ ---- --- --------- --<br>------ - ---- -- --- ----------- ------- ---- ----- -----<br>--- -------- - ------ ---- -- ----- ---- --- --- -----------<br>-- -------,775116.4000000004,775112.5000000019,774709.224,774697.0000000019,774725.89,775125.874,,10,the
screen,html.Screen,2_3_1_0_1_11,2022-02-17T13:01:31.280Z,,,,,,,,,,,,,,,,,2,,,,,,,,,,,,,,542.4259999989299,,response,,,,1,D,,,,,,Space,keypress(Space),,,,silence,,,,--- ---- ------ --- ------- ---------- ------- ----------<br>--- --------- --- interesting ------- ----- ------- ---<br>--------- ---- -- --- ---- -- --------- -- ---- -------<br>-- --------- ------ --- ----- ------ ---- --- --------- --<br>------ - ---- -- --- ----------- ------- ---- ----- -----<br>--- -------- - ------ ---- -- ----- ---- --- --- -----------<br>-- -------,775671.7999999989,775668.2999999989,775109.208,775116.5000000019,775125.874,775675.852,,11,interesting
screen,html.Screen,2_3_1_0_1_12,2022-02-17T13:01:31.726Z,,,,,,,,,,,,,,,,,2,,,,,,,,,,,,,,436.64800000190735,,response,,,,1,D,,,,,,Space,keypress(Space),,,,silence,,,,--- ---- ------ --- ------- ---------- ------- ----------<br>--- --------- --- ----------- sunspot ----- ------- ---<br>--------- ---- -- --- ---- -- --------- -- ---- -------<br>-- --------- ------ --- ----- ------ ---- --- --------- --<br>------ - ---- -- --- ----------- ------- ---- ----- -----<br>--- -------- - ------ ---- -- ----- ---- --- --- -----------<br>-- -------,776117.2000000011,776112.5000000019,775659.186,775671.9000000004,775675.852,776125.834,,12,sunspot
screen,html.Screen,2_3_1_0_1_13,2022-02-17T13:01:32.156Z,,,,,,,,,,,,,,,,,2,,,,,,,,,,,,,,418.46599999885075,,response,,,,1,D,,,,,,Space,keypress(Space),,,,silence,,,,--- ---- ------ --- ------- ---------- ------- ----------<br>--- --------- --- ----------- ------- group ------- ---<br>--------- ---- -- --- ---- -- --------- -- ---- -------<br>-- --------- ------ --- ----- ------ ---- --- --------- --<br>------ - ---- -- --- ----------- ------- ---- ----- -----<br>--- -------- - ------ ---- -- ----- ---- --- --- -----------<br>-- -------,776547.9000000004,776544.2999999989,776109.168,776117.2000000011,776125.834,776559.15,,13,group
screen,html.Screen,2_3_1_0_1_14,2022-02-17T13:01:32.604Z,,,,,,,,,,,,,,,,,2,,,,,,,,,,,,,,432.25000000034925,,response,,,,1,D,,,,,,Space,keypress(Space),,,,silence,,,,--- ---- ------ --- ------- ---------- ------- ----------<br>--- --------- --- ----------- ------- ----- through ---<br>--------- ---- -- --- ---- -- --------- -- ---- -------<br>-- --------- ------ --- ----- ------ ---- --- --------- --<br>------ - ---- -- --- ----------- ------- ---- ----- -----<br>--- -------- - ------ ---- -- ----- ---- --- --- -----------<br>-- -------,776995.7000000011,776991.4000000004,776542.484,776548.0000000019,776559.15,777009.132,,14,through
screen,html.Screen,2_3_1_0_1_15,2022-02-17T13:01:32.984Z,,,,,,,,,,,,,,,,,2,,,,,,,,,,,,,,363.1679999988992,,response,,,,1,D,,,,,,Space,keypress(Space),,,,silence,,,,--- ---- ------ --- ------- ---------- ------- ----------<br>--- --------- --- ----------- ------- ----- ------- his<br>--------- ---- -- --- ---- -- --------- -- ---- -------<br>-- --------- ------ --- ----- ------ ---- --- --------- --<br>------ - ---- -- --- ----------- ------- ---- ----- -----<br>--- -------- - ------ ---- -- ----- ---- --- --- -----------<br>-- -------,777375.7000000011,777372.2999999989,776992.466,776995.7000000011,777009.132,777392.45,,15,his
screen,html.Screen,2_3_1_0_1_16,2022-02-17T13:01:33.388Z,,,,,,,,,,,,,,,,,2,,,,,,,,,,,,,,382.9500000004191,,response,,,,1,D,,,,,,Space,keypress(Space),,,,silence,,,,--- ---- ------ --- ------- ---------- ------- ----------<br>--- --------- --- ----------- ------- ----- ------- ---<br>telescope ---- -- --- ---- -- --------- -- ---- -------<br>-- --------- ------ --- ----- ------ ---- --- --------- --<br>------ - ---- -- --- ----------- ------- ---- ----- -----<br>--- -------- - ------ ---- -- ----- ---- --- --- -----------<br>-- -------,777779.0000000019,777775.4000000004,777375.784,777375.7999999989,777392.45,777792.434,,16,telescope
screen,html.Screen,2_3_1_0_1_17,2022-02-17T13:01:33.854Z,,,,,,,,,,,,,,,,,2,,,,,,,,,,,,,,447.96600000036415,,response,,,,1,D,,,,,,Space,keypress(Space),,,,silence,,,,--- ---- ------ --- ------- ---------- ------- ----------<br>--- --------- --- ----------- ------- ----- ------- ---<br>--------- when -- --- ---- -- --------- -- ---- -------<br>-- --------- ------ --- ----- ------ ---- --- --------- --<br>------ - ---- -- --- ----------- ------- ---- ----- -----<br>--- -------- - ------ ---- -- ----- ---- --- --- -----------<br>-- -------,778244.9000000004,778240.4000000004,777775.768,777779.0999999996,777792.434,778259.082,,17,when
screen,html.Screen,2_3_1_0_1_18,2022-02-17T13:01:34.704Z,,,,,,,,,,,,,,,,,2,,,,,,,,,,,,,,832.3180000003194,,response,,,,1,D,,,,,,Space,keypress(Space),,,,silence,,,,--- ---- ------ --- ------- ---------- ------- ----------<br>--- --------- --- ----------- ------- ----- ------- ---<br>--------- ---- he --- ---- -- --------- -- ---- -------<br>-- --------- ------ --- ----- ------ ---- --- --------- --<br>------ - ---- -- --- ----------- ------- ---- ----- -----<br>--- -------- - ------ ---- -- ----- ---- --- --- -----------<br>-- -------,779095.5999999996,779091.4000000004,778242.416,778245.2000000011,778259.082,779109.048,,18,he
screen,html.Screen,2_3_1_0_1_19,2022-02-17T13:01:35.965Z,,,,,,,,,,,,,,,,,2,,,,,,,,,,,,,,1242.452000001911,,response,,,,1,D,,,,,,Space,keypress(Space),,,,silence,,,,--- ---- ------ --- ------- ---------- ------- ----------<br>--- --------- --- ----------- ------- ----- ------- ---<br>--------- ---- -- saw ---- -- --------- -- ---- -------<br>-- --------- ------ --- ----- ------ ---- --- --------- --<br>------ - ---- -- --- ----------- ------- ---- ----- -----<br>--- -------- - ------ ---- -- ----- ---- --- --- -----------<br>-- -------,780356.0000000019,780351.5000000019,779092.382,779096.0999999996,779109.048,780358.998,,19,saw
screen,html.Screen,2_3_1_0_1_20,2022-02-17T13:01:36.438Z,,,,,,,,,,,,,,,,,2,,,,,,,,,,,,,,465.301999998861,,response,,,,1,D,,,,,,Space,keypress(Space),,,,silence,,,,--- ---- ------ --- ------- ---------- ------- ----------<br>--- --------- --- ----------- ------- ----- ------- ---<br>--------- ---- -- --- what -- --------- -- ---- -------<br>-- --------- ------ --- ----- ------ ---- --- --------- --<br>------ - ---- -- --- ----------- ------- ---- ----- -----<br>--- -------- - ------ ---- -- ----- ---- --- --- -----------<br>-- -------,780828.9000000004,780824.2999999989,780342.332,780356.0999999996,780358.998,780842.312,,20,what
screen,html.Screen,2_3_1_0_1_21,2022-02-17T13:01:36.801Z,,,,,,,,,,,,,,,,,2,,,,,,,,,,,,,,345.287999999593,,response,,,,1,D,,,,,,Space,keypress(Space),,,,silence,,,,--- ---- ------ --- ------- ---------- ------- ----------<br>--- --------- --- ----------- ------- ----- ------- ---<br>--------- ---- -- --- ---- he --------- -- ---- -------<br>-- --------- ------ --- ----- ------ ---- --- --------- --<br>------ - ---- -- --- ----------- ------- ---- ----- -----<br>--- -------- - ------ ---- -- ----- ---- --- --- -----------<br>-- -------,781192.4000000004,781187.5999999996,780825.646,780828.9000000004,780842.312,781208.964,,21,he
screen,html.Screen,2_3_1_0_1_22,2022-02-17T13:01:37.192Z,,,,,,,,,,,,,,,,,2,,,,,,,,,,,,,,370.4360000003362,,response,,,,1,D,,,,,,Space,keypress(Space),,,,silence,,,,--- ---- ------ --- ------- ---------- ------- ----------<br>--- --------- --- ----------- ------- ----- ------- ---<br>--------- ---- -- --- ---- -- described -- ---- -------<br>-- --------- ------ --- ----- ------ ---- --- --------- --<br>------ - ---- -- --- ----------- ------- ---- ----- -----<br>--- -------- - ------ ---- -- ----- ---- --- --- -----------<br>-- -------,781583.4000000004,781579.4000000004,781192.298,781192.5000000019,781208.964,781592.282,,22,described
screen,html.Screen,2_3_1_0_1_23,2022-02-17T13:01:37.663Z,,,,,,,,,,,,,,,,,2,,,,,,,,,,,,,,458.118000000366,,response,,,,1,D,,,,,,Space,keypress(Space),,,,silence,,,,--- ---- ------ --- ------- ---------- ------- ----------<br>--- --------- --- ----------- ------- ----- ------- ---<br>--------- ---- -- --- ---- -- --------- as ---- -------<br>-- --------- ------ --- ----- ------ ---- --- --------- --<br>------ - ---- -- --- ----------- ------- ---- ----- -----<br>--- -------- - ------ ---- -- ----- ---- --- --- -----------<br>-- -------,782054.0999999996,782050.4000000004,781575.616,781583.5000000019,781592.282,782058.93,,23,as
screen,html.Screen,2_3_1_0_1_24,2022-02-17T13:01:37.936Z,,,,,,,,,,,,,,,,,2,,,,,,,,,,,,,,264.3699999988312,,response,,,,1,D,,,,,,Space,keypress(Space),,,,silence,,,,"--- ---- ------ --- ------- ---------- ------- ----------<br>--- --------- --- ----------- ------- ----- ------- ---<br>--------- ---- -- --- ---- -- --------- -- ""two -------<br>-- --------- ------ --- ----- ------ ---- --- --------- --<br>------ - ---- -- --- ----------- ------- ---- ----- -----<br>--- -------- - ------ ---- -- ----- ---- --- --- -----------<br>-- -------",782327.0000000019,782323.2999999989,782042.264,782054.2000000011,782058.93,782342.252,,24,"""two"
screen,html.Screen,2_3_1_0_1_25,2022-02-17T13:01:38.343Z,,,,,,,,,,,,,,,,,2,,,,,,,,,,,,,,388.14800000039395,,response,,,,1,D,,,,,,Space,keypress(Space),,,,silence,,,,--- ---- ------ --- ------- ---------- ------- ----------<br>--- --------- --- ----------- ------- ----- ------- ---<br>--------- ---- -- --- ---- -- --------- -- ---- patches<br>-- --------- ------ --- ----- ------ ---- --- --------- --<br>------ - ---- -- --- ----------- ------- ---- ----- -----<br>--- -------- - ------ ---- -- ----- ---- --- --- -----------<br>-- -------,782734.0999999996,782730.4000000004,782325.586,782327.2000000011,782342.252,782742.236,,25,patches
screen,html.Screen,2_3_1_0_1_26,2022-02-17T13:01:38.753Z,,,,,,,,,,,,,,,,,2,,,,,,,,,,,,,,397.96400000108406,,response,,,,1,D,,,,,,Space,keypress(Space),,,,silence,,,,--- ---- ------ --- ------- ---------- ------- ----------<br>--- --------- --- ----------- ------- ----- ------- ---<br>--------- ---- -- --- ---- -- --------- -- ---- -------<br>of --------- ------ --- ----- ------ ---- --- --------- --<br>------ - ---- -- --- ----------- ------- ---- ----- -----<br>--- -------- - ------ ---- -- ----- ---- --- --- -----------<br>-- -------,783144.0000000019,783140.2000000011,782725.57,782734.2000000011,782742.236,783158.886,,26,of
screen,html.Screen,2_3_1_0_1_27,2022-02-17T13:01:39.163Z,,,,,,,,,,,,,,,,,2,,,,,,,,,,,,,,390.5140000003157,,response,,,,1,D,,,,,,Space,keypress(Space),,,,silence,,,,--- ---- ------ --- ------- ---------- ------- ----------<br>--- --------- --- ----------- ------- ----- ------- ---<br>--------- ---- -- --- ---- -- --------- -- ---- -------<br>-- intensely ------ --- ----- ------ ---- --- --------- --<br>------ - ---- -- --- ----------- ------- ---- ----- -----<br>--- -------- - ------ ---- -- ----- ---- --- --- -----------<br>-- -------,783553.7000000011,783549.4000000004,783142.22,783144.0999999996,783158.886,783558.87,,27,intensely
screen,html.Screen,2_3_1_0_1_28,2022-02-17T13:01:39.584Z,,,,,,,,,,,,,,,,,2,,,,,,,,,,,,,,412.42999999888707,,response,,,,1,D,,,,,,Space,keypress(Space),,,,silence,,,,--- ---- ------ --- ------- ---------- ------- ----------<br>--- --------- --- ----------- ------- ----- ------- ---<br>--------- ---- -- --- ---- -- --------- -- ---- -------<br>-- --------- bright --- ----- ------ ---- --- --------- --<br>------ - ---- -- --- ----------- ------- ---- ----- -----<br>--- -------- - ------ ---- -- ----- ---- --- --- -----------<br>-- -------,783975.2999999989,783971.2999999989,783542.204,783553.9000000004,783558.87,783992.186,,28,bright
screen,html.Screen,2_3_1_0_1_29,2022-02-17T13:01:39.982Z,,,,,,,,,,,,,,,,,2,,,,,,,,,,,,,,377.11399999889545,,response,,,,1,D,,,,,,Space,keypress(Space),,,,silence,,,,--- ---- ------ --- ------- ---------- ------- ----------<br>--- --------- --- ----------- ------- ----- ------- ---<br>--------- ---- -- --- ---- -- --------- -- ---- -------<br>-- --------- ------ and ----- ------ ---- --- --------- --<br>------ - ---- -- --- ----------- ------- ---- ----- -----<br>--- -------- - ------ ---- -- ----- ---- --- --- -----------<br>-- -------,784373.2000000011,784369.2999999989,783975.52,783975.4000000004,783992.186,784375.504,,29,and
screen,html.Screen,2_3_1_0_1_30,2022-02-17T13:01:40.390Z,,,,,,,,,,,,,,,,,2,,,,,,,,,,,,,,401.79599999892525,,response,,,,1,D,,,,,,Space,keypress(Space),,,,silence,,,,--- ---- ------ --- ------- ---------- ------- ----------<br>--- --------- --- ----------- ------- ----- ------- ---<br>--------- ---- -- --- ---- -- --------- -- ---- -------<br>-- --------- ------ --- white ------ ---- --- --------- --<br>------ - ---- -- --- ----------- ------- ---- ----- -----<br>--- -------- - ------ ---- -- ----- ---- --- --- -----------<br>-- -------,784781.0000000019,784777.2999999989,784358.838,784373.2999999989,784375.504,784792.154,,30,white
screen,html.Screen,2_3_1_0_1_31,2022-02-17T13:01:40.823Z,,,,,,,,,,,,,,,,,2,,,,,,,,,,,,,,418.14599999890197,,response,,,,1,D,,,,,,Space,keypress(Space),,,,silence,,,,"--- ---- ------ --- ------- ---------- ------- ----------<br>--- --------- --- ----------- ------- ----- ------- ---<br>--------- ---- -- --- ---- -- --------- -- ---- -------<br>-- --------- ------ --- ----- light"" ---- --- --------- --<br>------ - ---- -- --- ----------- ------- ---- ----- -----<br>--- -------- - ------ ---- -- ----- ---- --- --- -----------<br>-- -------",785214.5999999996,785210.2999999989,784775.488,784781.0999999996,784792.154,785225.47,,31,"light"""
screen,html.Screen,2_3_1_0_1_32,2022-02-17T13:01:41.269Z,,,,,,,,,,,,,,,,,2,,,,,,,,,,,,,,430.7300000011455,,response,,,,1,D,,,,,,Space,keypress(Space),,,,silence,,,,--- ---- ------ --- ------- ---------- ------- ----------<br>--- --------- --- ----------- ------- ----- ------- ---<br>--------- ---- -- --- ---- -- --------- -- ---- -------<br>-- --------- ------ --- ----- ------ over --- --------- --<br>------ - ---- -- --- ----------- ------- ---- ----- -----<br>--- -------- - ------ ---- -- ----- ---- --- --- -----------<br>-- -------,785660.0999999996,785656.2000000011,785208.804,785214.7999999989,785225.47,785675.452,,32,over
screen,html.Screen,2_3_1_0_1_33,2022-02-17T13:01:41.616Z,,,,,,,,,,,,,,,,,2,,,,,,,,,,,,,,325.74800000106916,,response,,,,1,D,,,,,,Space,keypress(Space),,,,silence,,,,--- ---- ------ --- ------- ---------- ------- ----------<br>--- --------- --- ----------- ------- ----- ------- ---<br>--------- ---- -- --- ---- -- --------- -- ---- -------<br>-- --------- ------ --- ----- ------ ---- the --------- --<br>------ - ---- -- --- ----------- ------- ---- ----- -----<br>--- -------- - ------ ---- -- ----- ---- --- --- -----------<br>-- -------,786007.5999999996,786001.2000000011,785658.786,785660.2000000011,785675.452,786008.772,,33,the
screen,html.Screen,2_3_1_0_1_34,2022-02-17T13:01:41.924Z,,,,,,,,,,,,,,,,,2,,,,,,,,,,,,,,302.6280000003753,,response,,,,1,D,,,,,,Space,keypress(Space),,,,silence,,,,--- ---- ------ --- ------- ---------- ------- ----------<br>--- --------- --- ----------- ------- ----- ------- ---<br>--------- ---- -- --- ---- -- --------- -- ---- -------<br>-- --------- ------ --- ----- ------ ---- --- sunspots. --<br>------ - ---- -- --- ----------- ------- ---- ----- -----<br>--- -------- - ------ ---- -- ----- ---- --- --- -----------<br>-- -------,786315.0999999996,786311.4000000004,785992.106,786007.7000000011,786008.772,786325.426,,34,sunspots.
screen,html.Screen,2_3_1_0_1_35,2022-02-17T13:01:42.440Z,,,,,,,,,,,,,,,,,2,,,,,,,,,,,,,,501.9740000003949,,response,,,,1,D,,,,,,Space,keypress(Space),,,,silence,,,,--- ---- ------ --- ------- ---------- ------- ----------<br>--- --------- --- ----------- ------- ----- ------- ---<br>--------- ---- -- --- ---- -- --------- -- ---- -------<br>-- --------- ------ --- ----- ------ ---- --- --------- He<br>------ - ---- -- --- ----------- ------- ---- ----- -----<br>--- -------- - ------ ---- -- ----- ---- --- --- -----------<br>-- -------,786830.9000000004,786827.4000000004,786308.76,786315.2999999989,786325.426,786842.072,,35,He
screen,html.Screen,2_3_1_0_1_36,2022-02-17T13:01:42.994Z,,,,,,,,,,,,,,,,,2,,,,,,,,,,,,,,538.3280000003288,,response,,,,1,D,,,,,,Space,keypress(Space),,,,silence,,,,--- ---- ------ --- ------- ---------- ------- ----------<br>--- --------- --- ----------- ------- ----- ------- ---<br>--------- ---- -- --- ---- -- --------- -- ---- -------<br>-- --------- ------ --- ----- ------ ---- --- --------- --<br>jotted - ---- -- --- ----------- ------- ---- ----- -----<br>--- -------- - ------ ---- -- ----- ---- --- --- -----------<br>-- -------,787385.2000000011,787380.4000000004,786825.406,786831.0000000019,786842.072,787408.716,,36,jotted
