sender,sender_type,sender_id,timestamp,meta,,Blues,Classical,Country,Dance,Electronic,Folk,Gospel,Hip-Hop,Jazz,Latin,Musical/Film,New-age,Pop,Prolific_id,Provo_ID,R&B,Rap,Reggae,Religious,Rock,Soul,Swing,Traditional,age,artist_name,correct,correctResponse,distraction,duration,education,ended_on,familiarity,gender,headphone_check_performance,item,list,music_frequency,offensiveness,pleasantness,position_correct,preference,response,response_action,snippet_file,song_name,song_rating,sound,stimulus_1,stimulus_2,stimulus_3,text,time_commit,time_end,time_render,time_run,time_show,time_switch,url,word,word_ID
Prolific ID,html.Form,0,2022-02-15T15:54:02.200Z,"{""labjs_version"":""20.2.2"",""labjs_build"":{""flavor"":""production"",""commit"":""a25486e0c714a0ae2ce03ff94b7bb6896854dcfa""},""location"":""https://run.pavlovia.org/mvasilev/prolific2_music_a/"",""userAgent"":""Mozilla/5.0 (Windows NT 10.0; Win64; x64) AppleWebKit/537.36 (KHTML, like Gecko) Chrome/98.0.4758.82 Safari/537.36"",""platform"":""Win32"",""language"":""en-US"",""locale"":""en-GB"",""timeZone"":""Europe/London"",""timezoneOffset"":0,""screen_width"":1280,""screen_height"":720,""scroll_width"":1600,""scroll_height"":722,""window_innerWidth"":1600,""window_innerHeight"":770,""devicePixelRatio"":1.2000000476837158}",,,,,,,,,,,,,,,615f338fdbb7744db42e0f7f,,,,,,,,,,,,,,,21687.162000011922,,form submission,,,,,,,,,,,,,,,,,,,,,32426.59999999404,32426.30000001192,10722.539,10728.800000011921,10739.138,32429.251,{},,
Introduction,html.Screen,1_0,2022-02-15T15:54:06.983Z,,,,,,,,,,,,,,,,,,,,,,,,,,,,,,,4777.948999988079,,response,,,,,,,,,,,continue,click button,,,,,,,,,37209.09999999404,37207.19999998808,32412.643,32427,32429.251,37210.438,,,
Volume calibration,html.Screen,1_1,2022-02-15T15:54:30.596Z,,,,,,,,,,,,,,,,,,,,,,,,,,,,,,,23609.161999994038,,response,,,,,,,,,,,continue,click button,,,,,,,,,60822.19999998808,60819.59999999404,37193.849,37209.19999998808,37210.438,60833.264,,,
Task instructions,html.Screen,1_2,2022-02-15T15:54:41.599Z,,,,,,,,,,,,,,,,,,,,,,,,,,,,,,,10991.235999999997,,response,,,,,,,,,,,continue,click button,,,,,,,,,71825.19999998808,71824.5,60816.584,60822.30000001192,60833.264,71828.088,,,
Sounds,html.Screen,1_3_0_0,2022-02-15T15:54:45.837Z,,,,,,,,,,,,,,,,,,,,,,,,,,,,,,,4248.112999999998,,timeout,,,,,,,,,1,,,,,,,,S,I,O,,76063,76059.555,71811.71,71825.30000001192,71828.088,76076.201,,,
Judgement,html.Screen,1_3_0_1,2022-02-15T15:54:46.779Z,,,,,,,,,,,,,,,,,,,,,,,,,,,,true,1,,927.7989999999991,,response,,,,,,,,,1,,1,click #choice-1,,,,,S,I,O,,77004.69999998808,77004,76059.555,76063.09999999404,76076.201,77009.279,,,
Trial,flow.Sequence,1_3_0,2022-02-15T15:54:46.779Z,,,,,,,,,,,,,,,,,,,,,,,,,,,,,,,5175.911999999997,,completion,,,,,,,,,1,,,,,,,,S,I,O,,77004.90000000596,77004,71811.71,71825.30000001192,71828.088,77009.279,,,
Sounds,html.Screen,1_3_1_0,2022-02-15T15:54:51.015Z,,,,,,,,,,,,,,,,,,,,,,,,,,,,,,,4247.959000000003,,timeout,,,,,,,,,2,,,,,,,,I,S,O,,81241,81240.586,76992.439,77005.09999999404,77009.279,81257.238,,,
Judgement,html.Screen,1_3_1_1,2022-02-15T15:54:51.630Z,,,,,,,,,,,,,,,,,,,,,,,,,,,,true,2,,597.861999994042,,response,,,,,,,,,2,,2,click #choice-2,,,,,I,S,O,,81855.90000000596,81855.09999999404,81240.586,81241.19999998808,81257.238,81856.851,,,
Trial,flow.Sequence,1_3_1,2022-02-15T15:54:51.630Z,,,,,,,,,,,,,,,,,,,,,,,,,,,,,,,4845.8209999940445,,completion,,,,,,,,,2,,,,,,,,I,S,O,,81856.09999999404,81855.09999999404,76992.439,77004.90000000596,77009.279,81856.851,,,
Sounds,html.Screen,1_3_2_0,2022-02-15T15:54:55.863Z,,,,,,,,,,,,,,,,,,,,,,,,,,,,,,,4248.375,,timeout,,,,,,,,,3,,,,,,,,I,O,S,,86089,86088.46,81840.426,81856.19999998808,81856.851,86105.226,,,
Judgement,html.Screen,1_3_2_1,2022-02-15T15:54:56.916Z,,,,,,,,,,,,,,,,,,,,,,,,,,,,true,3,,1036.3739999940444,,response,,,,,,,,,3,,3,click #choice-3,,,,,I,O,S,,87142.40000000596,87141.59999999404,86088.46,86089.09999999404,86105.226,87154.589,,,
Trial,flow.Sequence,1_3_2,2022-02-15T15:54:56.916Z,,,,,,,,,,,,,,,,,,,,,,,,,,,,,,,5284.748999994044,,completion,,,,,,,,,3,,,,,,,,I,O,S,,87142.5,87141.59999999404,81840.426,81856.19999998808,81856.851,87154.589,,,
Sounds,html.Screen,1_3_3_0,2022-02-15T15:55:01.161Z,,,,,,,,,,,,,,,,,,,,,,,,,,,,,,,4248.12999999999,,timeout,,,,,,,,,1,,,,,,,,S,O,I,,91386.80000001192,91386.086,87137.865,87142.59999999404,87154.589,91402.719,,,
Judgement,html.Screen,1_3_3_1,2022-02-15T15:55:02.579Z,,,,,,,,,,,,,,,,,,,,,,,,,,,,false,1,,1401.1810000059631,,response,,,,,,,,,1,,2,click #choice-2,,,,,S,O,I,,92804.69999998808,92803.90000000596,91386.086,91386.80000001192,91402.719,92818.801,,,
Trial,flow.Sequence,1_3_3,2022-02-15T15:55:02.579Z,,,,,,,,,,,,,,,,,,,,,,,,,,,,,,,5649.311000005953,,completion,,,,,,,,,1,,,,,,,,S,O,I,,92804.90000000596,92803.90000000596,87137.865,87142.59999999404,87154.589,92818.801,,,
Sounds,html.Screen,1_3_4_0,2022-02-15T15:55:06.824Z,,,,,,,,,,,,,,,,,,,,,,,,,,,,,,,4247.878999999986,,timeout,,,,,,,,,2,,,,,,,,O,S,I,,97050.5,97050.08,92802.148,92804.90000000596,92818.801,97066.68,,,
Judgement,html.Screen,1_3_4_1,2022-02-15T15:55:07.431Z,,,,,,,,,,,,,,,,,,,,,,,,,,,,true,2,,589.320000000007,,response,,,,,,,,,2,,2,click #choice-2,,,,,O,S,I,,97656.80000001192,97656,97050.08,97050.59999999404,97066.68,97666.589,,,
Trial,flow.Sequence,1_3_4,2022-02-15T15:55:07.431Z,,,,,,,,,,,,,,,,,,,,,,,,,,,,,,,4837.198999999993,,completion,,,,,,,,,2,,,,,,,,O,S,I,,97656.80000001192,97656,92802.148,92804.90000000596,92818.801,97666.589,,,
Sounds,html.Screen,1_3_5_0,2022-02-15T15:55:11.672Z,,,,,,,,,,,,,,,,,,,,,,,,,,,,,,,4247.97099999999,,timeout,,,,,,,,,3,,,,,,,,O,I,S,,101898.30000001192,101897.878,97649.741,97656.90000000596,97666.589,101914.56,,,
Judgement,html.Screen,1_3_5_1,2022-02-15T15:55:12.186Z,,,,,,,,,,,,,,,,,,,,,,,,,,,,true,3,,497.03999999404186,,response,,,,,,,,,3,,3,click #choice-3,,,,,O,I,S,,102412.59999999404,102411.59999999404,101897.878,101898.40000000596,101914.56,102414.236,,,
Trial,flow.Sequence,1_3_5,2022-02-15T15:55:12.186Z,,,,,,,,,,,,,,,,,,,,,,,,,,,,,,,4745.010999994032,,completion,,,,,,,,,3,,,,,,,,O,I,S,,102412.69999998808,102411.59999999404,97649.741,97656.90000000596,97666.589,102414.236,,,
Task,flow.Loop,1_3,2022-02-15T15:55:12.190Z,,,,,,,,,,,,,,,,,,,,,,,,,,,,,,,30583.511999994036,,completion,,,0.8333333333333334,,,,,,,,,,,,,,,,,,102416.59999999404,102411.59999999404,71811.71,71825.30000001192,71828.088,102414.236,,,
Trap,html.Screen,1_4,2022-02-15T15:55:12.191Z,,,,,,,,,,,,,,,,,,,,,,,,,,,,,,,NaN,,skipped,,,,,,,,,,,,,,,,,,,,,102417.19999998808,102411.59999999404,,102417.19999998808,,102414.236,,,
Thanks,html.Screen,1_5,2022-02-15T15:55:17.096Z,,,,,,,,,,,,,,,,,,,,,,,,,,,,,,,4907.363999994035,,response,,,,,,,,,,,continue,click button,,,,,,,,,107322.30000001192,107321.59999999404,102397.801,102417.30000001192,102414.236,111110.348,,,
Headphone screening,flow.Sequence,1,2022-02-15T15:55:17.096Z,,,,,,,,,,,,,,,,,,,,,,,,,,,,,,,74892.34899999404,,completion,,,,,,,,,,,,,,,,,,,,,107322.30000001192,107321.59999999404,32412.643,32426.90000000596,32429.251,111110.348,,,
Instructions,html.Page,2_0,2022-02-15T15:55:32.039Z,,,,,,,,,,,,,,,,,,,,,,,,,,,,,,,11154.552000005962,,form submission,,,,,,,,,,,,,,,,,,,,,122265,122264.90000000596,111093.714,111114.59999999404,111110.348,122271.878,,,
Holding screen,html.Screen,2_1_0_0,2022-02-15T15:55:42.025Z,,,,,,,,,,,,,,,,,,,,,,,,,,,,,,,9995.591000000015,,timeout,,,,,,,,,,,,,,,,,,,,,132251.19999998808,132250.932,122255.233,122265.19999998808,122271.878,132267.469,,,
screen,html.Screen,2_1_0_1_0,2022-02-15T15:55:42.834Z,,,,,,,,,,,,,,,,,53,,,,,,,,,,,,,,791.0309999999881,,response,,,,99,,,,,,,Space,keypress(Space),,,,,,,,When -- ----- -- ------ - ------- --- ----------<br>------------- ------ ------ ---- ---- ------- ----- -- ----<br>-------- ------- -- ---------- --- - --- ----- ----- ----<br>---- --- --- ----- --- ---- ---- ------- ----- ---- -------<br>--- --- -- ----- -- --- ---- -- --- ---- -- ------ ------<br>--- ----- -- ----,133060.30000001192,133058.5,132250.932,132251.40000000596,132267.469,133067.184,,0,When
screen,html.Screen,2_1_0_1_1,2022-02-15T15:55:43.171Z,,,,,,,,,,,,,,,,,53,,,,,,,,,,,,,,329.7160000059521,,response,,,,99,,,,,,,Space,keypress(Space),,,,,,,,---- it ----- -- ------ - ------- --- ----------<br>------------- ------ ------ ---- ---- ------- ----- -- ----<br>-------- ------- -- ---------- --- - --- ----- ----- ----<br>---- --- --- ----- --- ---- ---- ------- ----- ---- -------<br>--- --- -- ----- -- --- ---- -- --- ---- -- ------ ------<br>--- ----- -- ----,133397.40000000596,133396.90000000596,133050.437,133060.40000000596,133067.184,133400.156,,1,it
screen,html.Screen,2_1_0_1_2,2022-02-15T15:55:43.494Z,,,,,,,,,,,,,,,,,53,,,,,,,,,,,,,,318.8440000000119,,response,,,,99,,,,,,,Space,keypress(Space),,,,,,,,---- -- comes -- ------ - ------- --- ----------<br>------------- ------ ------ ---- ---- ------- ----- -- ----<br>-------- ------- -- ---------- --- - --- ----- ----- ----<br>---- --- --- ----- --- ---- ---- ------- ----- ---- -------<br>--- --- -- ----- -- --- ---- -- --- ---- -- ------ ------<br>--- ----- -- ----,133720.09999999404,133719,133383.766,133397.5,133400.156,133733.577,,2,comes
screen,html.Screen,2_1_0_1_3,2022-02-15T15:55:43.790Z,,,,,,,,,,,,,,,,,53,,,,,,,,,,,,,,282.32300000597024,,response,,,,99,,,,,,,Space,keypress(Space),,,,,,,,---- -- ----- to ------ - ------- --- ----------<br>------------- ------ ------ ---- ---- ------- ----- -- ----<br>-------- ------- -- ---------- --- - --- ----- ----- ----<br>---- --- --- ----- --- ---- ---- ------- ----- ---- -------<br>--- --- -- ----- -- --- ---- -- --- ---- -- ------ ------<br>--- ----- -- ----,134016.40000000596,134015.90000000596,133716.785,133720.19999998808,133733.577,134033.218,,3,to
screen,html.Screen,2_1_0_1_4,2022-02-15T15:55:44.178Z,,,,,,,,,,,,,,,,,53,,,,,,,,,,,,,,370.7820000000065,,response,,,,99,,,,,,,Space,keypress(Space),,,,,,,,---- -- ----- -- having - ------- --- ----------<br>------------- ------ ------ ---- ---- ------- ----- -- ----<br>-------- ------- -- ---------- --- - --- ----- ----- ----<br>---- --- --- ----- --- ---- ---- ------- ----- ---- -------<br>--- --- -- ----- -- --- ---- -- --- ---- -- ------ ------<br>--- ----- -- ----,134404.5,134404,134016.686,134016.5,134033.218,134416.591,,4,having
screen,html.Screen,2_1_0_1_5,2022-02-15T15:55:44.447Z,,,,,,,,,,,,,,,,,53,,,,,,,,,,,,,,256.6089999880933,,response,,,,99,,,,,,,Space,keypress(Space),,,,,,,,---- -- ----- -- ------ a ------- --- ----------<br>------------- ------ ------ ---- ---- ------- ----- -- ----<br>-------- ------- -- ---------- --- - --- ----- ----- ----<br>---- --- --- ----- --- ---- ---- ------- ----- ---- -------<br>--- --- -- ----- -- --- ---- -- --- ---- -- ------ ------<br>--- ----- -- ----,134673.59999999404,134673.19999998808,134399.819,134404.59999999404,134416.591,134682.936,,5,a
screen,html.Screen,2_1_0_1_6,2022-02-15T15:55:44.864Z,,,,,,,,,,,,,,,,,53,,,,,,,,,,,,,,406.86400001193397,,response,,,,99,,,,,,,Space,keypress(Space),,,,,,,,---- -- ----- -- ------ - lasting --- ----------<br>------------- ------ ------ ---- ---- ------- ----- -- ----<br>-------- ------- -- ---------- --- - --- ----- ----- ----<br>---- --- --- ----- --- ---- ---- ------- ----- ---- -------<br>--- --- -- ----- -- --- ---- -- --- ---- -- ------ ------<br>--- ----- -- ----,135090.30000001192,135089.80000001192,134666.497,134673.69999998808,134682.936,135099.707,,6,lasting
screen,html.Screen,2_1_0_1_7,2022-02-15T15:55:45.129Z,,,,,,,,,,,,,,,,,53,,,,,,,,,,,,,,255.39299999404466,,response,,,,99,,,,,,,Space,keypress(Space),,,,,,,,---- -- ----- -- ------ - ------- and ----------<br>------------- ------ ------ ---- ---- ------- ----- -- ----<br>-------- ------- -- ---------- --- - --- ----- ----- ----<br>---- --- --- ----- --- ---- ---- ------- ----- ---- -------<br>--- --- -- ----- -- --- ---- -- --- ---- -- ------ ------<br>--- ----- -- ----,135355.59999999404,135355.09999999404,135082.788,135090.30000001192,135099.707,135365.959,,7,and
screen,html.Screen,2_1_0_1_8,2022-02-15T15:55:45.535Z,,,,,,,,,,,,,,,,,53,,,,,,,,,,,,,,395.34100001191837,,response,,,,99,,,,,,,Space,keypress(Space),,,,,,,,---- -- ----- -- ------ - ------- --- fulfilling<br>------------- ------ ------ ---- ---- ------- ----- -- ----<br>-------- ------- -- ---------- --- - --- ----- ----- ----<br>---- --- --- ----- --- ---- ---- ------- ----- ---- -------<br>--- --- -- ----- -- --- ---- -- --- ---- -- ------ ------<br>--- ----- -- ----,135761.69999998808,135761.30000001192,135349.432,135355.69999998808,135365.959,135765.939,,8,fulfilling
screen,html.Screen,2_1_0_1_9,2022-02-15T15:55:46.011Z,,,,,,,,,,,,,,,,,53,,,,,,,,,,,,,,470.6609999940265,,response,,,,99,,,,,,,Space,keypress(Space),,,,,,,,"---- -- ----- -- ------ - ------- --- ----------<br>relationship, ------ ------ ---- ---- ------- ----- -- ----<br>-------- ------- -- ---------- --- - --- ----- ----- ----<br>---- --- --- ----- --- ---- ---- ------- ----- ---- -------<br>--- --- -- ----- -- --- ---- -- --- ---- -- ------ ------<br>--- ----- -- ----",136237.09999999404,136236.59999999404,135749.117,135761.80000001192,135765.939,136249.483,,9,"relationship,"
screen,html.Screen,2_1_0_1_10,2022-02-15T15:55:46.460Z,,,,,,,,,,,,,,,,,53,,,,,,,,,,,,,,436.1169999940321,,response,,,,99,,,,,,,Space,keypress(Space),,,,,,,,---- -- ----- -- ------ - ------- --- ----------<br>------------- common ------ ---- ---- ------- ----- -- ----<br>-------- ------- -- ---------- --- - --- ----- ----- ----<br>---- --- --- ----- --- ---- ---- ------- ----- ---- -------<br>--- --- -- ----- -- --- ---- -- --- ---- -- ------ ------<br>--- ----- -- ----,136686.09999999404,136685.59999999404,136232.598,136237.19999998808,136249.483,136698.81,,10,common
screen,html.Screen,2_1_0_1_11,2022-02-15T15:55:46.758Z,,,,,,,,,,,,,,,,,53,,,,,,,,,,,,,,285.28999999404186,,response,,,,99,,,,,,,Space,keypress(Space),,,,,,,,---- -- ----- -- ------ - ------- --- ----------<br>------------- ------ wisdom ---- ---- ------- ----- -- ----<br>-------- ------- -- ---------- --- - --- ----- ----- ----<br>---- --- --- ----- --- ---- ---- ------- ----- ---- -------<br>--- --- -- ----- -- --- ---- -- --- ---- -- ------ ------<br>--- ----- -- ----,136984.59999999404,136984.09999999404,136682.689,136686.19999998808,136698.81,136999.172,,11,wisdom
screen,html.Screen,2_1_0_1_12,2022-02-15T15:55:47.130Z,,,,,,,,,,,,,,,,,53,,,,,,,,,,,,,,357.2280000059691,,response,,,,99,,,,,,,Space,keypress(Space),,,,,,,,---- -- ----- -- ------ - ------- --- ----------<br>------------- ------ ------ says ---- ------- ----- -- ----<br>-------- ------- -- ---------- --- - --- ----- ----- ----<br>---- --- --- ----- --- ---- ---- ------- ----- ---- -------<br>--- --- -- ----- -- --- ---- -- --- ---- -- ------ ------<br>--- ----- -- ----,137356.90000000596,137356.40000000596,136982.407,136984.69999998808,136999.172,137365.547,,12,says
screen,html.Screen,2_1_0_1_13,2022-02-15T15:55:47.480Z,,,,,,,,,,,,,,,,,53,,,,,,,,,,,,,,340.4530000000086,,response,,,,99,,,,,,,Space,keypress(Space),,,,,,,,---- -- ----- -- ------ - ------- --- ----------<br>------------- ------ ------ ---- that ------- ----- -- ----<br>-------- ------- -- ---------- --- - --- ----- ----- ----<br>---- --- --- ----- --- ---- ---- ------- ----- ---- -------<br>--- --- -- ----- -- --- ---- -- --- ---- -- ------ ------<br>--- ----- -- ----,137706.40000000596,137706,137348.411,137357,137365.547,137715.122,,13,that
screen,html.Screen,2_1_0_1_14,2022-02-15T15:55:47.974Z,,,,,,,,,,,,,,,,,53,,,,,,,,,,,,,,485.377999999997,,response,,,,99,,,,,,,Space,keypress(Space),,,,,,,,---- -- ----- -- ------ - ------- --- ----------<br>------------- ------ ------ ---- ---- feeling ----- -- ----<br>-------- ------- -- ---------- --- - --- ----- ----- ----<br>---- --- --- ----- --- ---- ---- ------- ----- ---- -------<br>--- --- -- ----- -- --- ---- -- --- ---- -- ------ ------<br>--- ----- -- ----,138200.90000000596,138200.5,137698.467,137706.5,137715.122,138215.068,,14,feeling
screen,html.Screen,2_1_0_1_15,2022-02-15T15:55:48.309Z,,,,,,,,,,,,,,,,,53,,,,,,,,,,,,,,319.9320000000007,,response,,,,99,,,,,,,Space,keypress(Space),,,,,,,,---- -- ----- -- ------ - ------- --- ----------<br>------------- ------ ------ ---- ---- ------- close -- ----<br>-------- ------- -- ---------- --- - --- ----- ----- ----<br>---- --- --- ----- --- ---- ---- ------- ----- ---- -------<br>--- --- -- ----- -- --- ---- -- --- ---- -- ------ ------<br>--- ----- -- ----,138535.59999999404,138535,138198.648,138201,138215.068,138548.204,,15,close
screen,html.Screen,2_1_0_1_16,2022-02-15T15:55:48.632Z,,,,,,,,,,,,,,,,,53,,,,,,,,,,,,,,310.39599999404163,,response,,,,99,,,,,,,Space,keypress(Space),,,,,,,,---- -- ----- -- ------ - ------- --- ----------<br>------------- ------ ------ ---- ---- ------- ----- to ----<br>-------- ------- -- ---------- --- - --- ----- ----- ----<br>---- --- --- ----- --- ---- ---- ------- ----- ---- -------<br>--- --- -- ----- -- --- ---- -- --- ---- -- ------ ------<br>--- ----- -- ----,138859,138858.59999999404,138531.55,138535.90000000596,138548.204,138864.709,,16,to
screen,html.Screen,2_1_0_1_17,2022-02-15T15:55:49.316Z,,,,,,,,,,,,,,,,,53,,,,,,,,,,,,,,677.7909999999974,,response,,,,99,,,,,,,Space,keypress(Space),,,,,,,,---- -- ----- -- ------ - ------- --- ----------<br>------------- ------ ------ ---- ---- ------- ----- -- your<br>-------- ------- -- ---------- --- - --- ----- ----- ----<br>---- --- --- ----- --- ---- ---- ------- ----- ---- -------<br>--- --- -- ----- -- --- ---- -- --- ---- -- ------ ------<br>--- ----- -- ----,139543,139542.5,138848.118,138859.19999998808,138864.709,139547.458,,17,your
screen,html.Screen,2_1_0_1_18,2022-02-15T15:55:49.726Z,,,,,,,,,,,,,,,,,53,,,,,,,,,,,,,,405.04199999998673,,response,,,,99,,,,,,,Space,keypress(Space),,,,,,,,---- -- ----- -- ------ - ------- --- ----------<br>------------- ------ ------ ---- ---- ------- ----- -- ----<br>romantic ------- -- ---------- --- - --- ----- ----- ----<br>---- --- --- ----- --- ---- ---- ------- ----- ---- -------<br>--- --- -- ----- -- --- ---- -- --- ---- -- ------ ------<br>--- ----- -- ----,139952.90000000596,139952.5,139530.817,139543.09999999404,139547.458,139963.961,,18,romantic
screen,html.Screen,2_1_0_1_19,2022-02-15T15:55:50.035Z,,,,,,,,,,,,,,,,,53,,,,,,,,,,,,,,297.03899999998976,,response,,,,99,,,,,,,Space,keypress(Space),,,,,,,,---- -- ----- -- ------ - ------- --- ----------<br>------------- ------ ------ ---- ---- ------- ----- -- ----<br>-------- partner -- ---------- --- - --- ----- ----- ----<br>---- --- --- ----- --- ---- ---- ------- ----- ---- -------<br>--- --- -- ----- -- --- ---- -- --- ---- -- ------ ------<br>--- ----- -- ----,140261.5,140261,139947.826,139953,139963.961,140263.769,,19,partner
screen,html.Screen,2_1_0_1_20,2022-02-15T15:55:50.346Z,,,,,,,,,,,,,,,,,53,,,,,,,,,,,,,,308.43099998807884,,response,,,,99,,,,,,,Space,keypress(Space),,,,,,,,---- -- ----- -- ------ - ------- --- ----------<br>------------- ------ ------ ---- ---- ------- ----- -- ----<br>-------- ------- is ---------- --- - --- ----- ----- ----<br>---- --- --- ----- --- ---- ---- ------- ----- ---- -------<br>--- --- -- ----- -- --- ---- -- --- ---- -- ------ ------<br>--- ----- -- ----,140572.59999999404,140572.19999998808,140247.193,140261.59999999404,140263.769,140580.69,,20,is
screen,html.Screen,2_1_0_1_21,2022-02-15T15:55:50.542Z,,,,,,,,,,,,,,,,,53,,,,,,,,,,,,,,187.6100000119186,,response,,,,99,,,,,,,Space,keypress(Space),,,,,,,,---- -- ----- -- ------ - ------- --- ----------<br>------------- ------ ------ ---- ---- ------- ----- -- ----<br>-------- ------- -- paramount. --- - --- ----- ----- ----<br>---- --- --- ----- --- ---- ---- ------- ----- ---- -------<br>--- --- -- ----- -- --- ---- -- --- ---- -- ------ ------<br>--- ----- -- ----,140768.69999998808,140768.30000001192,140564.106,140572.59999999404,140580.69,140780.384,,21,paramount.
screen,html.Screen,2_1_0_1_22,2022-02-15T15:55:50.696Z,,,,,,,,,,,,,,,,,53,,,,,,,,,,,,,,141.61600000000908,,response,,,,99,,,,,,,Space,keypress(Space),,,,,,,,---- -- ----- -- ------ - ------- --- ----------<br>------------- ------ ------ ---- ---- ------- ----- -- ----<br>-------- ------- -- ---------- But - --- ----- ----- ----<br>---- --- --- ----- --- ---- ---- ------- ----- ---- -------<br>--- --- -- ----- -- --- ---- -- --- ---- -- ------ ------<br>--- ----- -- ----,140922.5,140922,140763.631,140768.80000001192,140780.384,140930.634,,22,But
screen,html.Screen,2_1_0_1_23,2022-02-15T15:55:51.497Z,,,,,,,,,,,,,,,,,53,,,,,,,,,,,,,,792.66600001193,,response,,,,99,,,,,,,Space,keypress(Space),,,,,,,,---- -- ----- -- ------ - ------- --- ----------<br>------------- ------ ------ ---- ---- ------- ----- -- ----<br>-------- ------- -- ---------- --- a --- ----- ----- ----<br>---- --- --- ----- --- ---- ---- ------- ----- ---- -------<br>--- --- -- ----- -- --- ---- -- --- ---- -- ------ ------<br>--- ----- -- ----,141723.80000001192,141723.30000001192,140913.968,140922.59999999404,140930.634,141730.227,,23,a
screen,html.Screen,2_1_0_1_24,2022-02-15T15:55:52.205Z,,,,,,,,,,,,,,,,,53,,,,,,,,,,,,,,700.872999994026,,response,,,,99,,,,,,,Space,keypress(Space),,,,,,,,---- -- ----- -- ------ - ------- --- ----------<br>------------- ------ ------ ---- ---- ------- ----- -- ----<br>-------- ------- -- ---------- --- - new ----- ----- ----<br>---- --- --- ----- --- ---- ---- ------- ----- ---- -------<br>--- --- -- ----- -- --- ---- -- --- ---- -- ------ ------<br>--- ----- -- ----,142431.5,142431.09999999404,141713.212,141723.80000001192,141730.227,142446.114,,24,new
screen,html.Screen,2_1_0_1_25,2022-02-15T15:55:52.922Z,,,,,,,,,,,,,,,,,53,,,,,,,,,,,,,,701.4859999940381,,response,,,,99,,,,,,,Space,keypress(Space),,,,,,,,---- -- ----- -- ------ - ------- --- ----------<br>------------- ------ ------ ---- ---- ------- ----- -- ----<br>-------- ------- -- ---------- --- - --- study ----- ----<br>---- --- --- ----- --- ---- ---- ------- ----- ---- -------<br>--- --- -- ----- -- --- ---- -- --- ---- -- ------ ------<br>--- ----- -- ----,143148.09999999404,143147.59999999404,142429.89,142431.69999998808,142446.114,143162.952,,25,study
screen,html.Screen,2_1_0_1_26,2022-02-15T15:55:53.246Z,,,,,,,,,,,,,,,,,53,,,,,,,,,,,,,,309.5480000000098,,response,,,,99,,,,,,,Space,keypress(Space),,,,,,,,---- -- ----- -- ------ - ------- --- ----------<br>------------- ------ ------ ---- ---- ------- ----- -- ----<br>-------- ------- -- ---------- --- - --- ----- finds ----<br>---- --- --- ----- --- ---- ---- ------- ----- ---- -------<br>--- --- -- ----- -- --- ---- -- --- ---- -- ------ ------<br>--- ----- -- ----,143472.90000000596,143472.5,143146.408,143148.19999998808,143162.952,143479.525,,26,finds
screen,html.Screen,2_1_0_1_27,2022-02-15T15:55:53.549Z,,,,,,,,,,,,,,,,,53,,,,,,,,,,,,,,295.9750000000058,,response,,,,99,,,,,,,Space,keypress(Space),,,,,,,,---- -- ----- -- ------ - ------- --- ----------<br>------------- ------ ------ ---- ---- ------- ----- -- ----<br>-------- ------- -- ---------- --- - --- ----- ----- that<br>---- --- --- ----- --- ---- ---- ------- ----- ---- -------<br>--- --- -- ----- -- --- ---- -- --- ---- -- ------ ------<br>--- ----- -- ----,143775.90000000596,143775.5,143462.647,143473,143479.525,143778.827,,27,that
screen,html.Screen,2_1_0_1_28,2022-02-15T15:55:53.817Z,,,,,,,,,,,,,,,,,53,,,,,,,,,,,,,,263.87299998808885,,response,,,,99,,,,,,,Space,keypress(Space),,,,,,,,---- -- ----- -- ------ - ------- --- ----------<br>------------- ------ ------ ---- ---- ------- ----- -- ----<br>-------- ------- -- ---------- --- - --- ----- ----- ----<br>it's --- --- ----- --- ---- ---- ------- ----- ---- -------<br>--- --- -- ----- -- --- ---- -- --- ---- -- ------ ------<br>--- ----- -- ----,144043.09999999404,144042.69999998808,143762.726,143775.90000000596,143778.827,144045.344,,28,it's
screen,html.Screen,2_1_0_1_29,2022-02-15T15:55:54.235Z,,,,,,,,,,,,,,,,,53,,,,,,,,,,,,,,415.95600001190905,,response,,,,99,,,,,,,Space,keypress(Space),,,,,,,,---- -- ----- -- ------ - ------- --- ----------<br>------------- ------ ------ ---- ---- ------- ----- -- ----<br>-------- ------- -- ---------- --- - --- ----- ----- ----<br>---- not --- ----- --- ---- ---- ------- ----- ---- -------<br>--- --- -- ----- -- --- ---- -- --- ---- -- ------ ------<br>--- ----- -- ----,144461.80000001192,144461.30000001192,144029.354,144043.09999999404,144045.344,144478.924,,29,not
screen,html.Screen,2_1_0_1_30,2022-02-15T15:55:54.564Z,,,,,,,,,,,,,,,,,53,,,,,,,,,,,,,,311.27599998808,,response,,,,99,,,,,,,Space,keypress(Space),,,,,,,,---- -- ----- -- ------ - ------- --- ----------<br>------------- ------ ------ ---- ---- ------- ----- -- ----<br>-------- ------- -- ---------- --- - --- ----- ----- ----<br>---- --- how ----- --- ---- ---- ------- ----- ---- -------<br>--- --- -- ----- -- --- ---- -- --- ---- -- ------ ------<br>--- ----- -- ----,144790.80000001192,144790.19999998808,144462.02,144461.90000000596,144478.924,144795.03,,30,how
screen,html.Screen,2_1_0_1_31,2022-02-15T15:55:54.952Z,,,,,,,,,,,,,,,,,53,,,,,,,,,,,,,,383.37000000596163,,response,,,,99,,,,,,,Space,keypress(Space),,,,,,,,---- -- ----- -- ------ - ------- --- ----------<br>------------- ------ ------ ---- ---- ------- ----- -- ----<br>-------- ------- -- ---------- --- - --- ----- ----- ----<br>---- --- --- close --- ---- ---- ------- ----- ---- -------<br>--- --- -- ----- -- --- ---- -- --- ---- -- ------ ------<br>--- ----- -- ----,145179.09999999404,145178.40000000596,144778.486,144790.80000001192,144795.03,145195.478,,31,close
screen,html.Screen,2_1_0_1_32,2022-02-15T15:55:55.326Z,,,,,,,,,,,,,,,,,53,,,,,,,,,,,,,,356.32200001191813,,response,,,,99,,,,,,,Space,keypress(Space),,,,,,,,---- -- ----- -- ------ - ------- --- ----------<br>------------- ------ ------ ---- ---- ------- ----- -- ----<br>-------- ------- -- ---------- --- - --- ----- ----- ----<br>---- --- --- ----- you ---- ---- ------- ----- ---- -------<br>--- --- -- ----- -- --- ---- -- --- ---- -- ------ ------<br>--- ----- -- ----,145552.30000001192,145551.80000001192,145178.765,145179.09999999404,145195.478,145561.499,,32,you
screen,html.Screen,2_1_0_1_33,2022-02-15T15:55:55.708Z,,,,,,,,,,,,,,,,,53,,,,,,,,,,,,,,372.6009999940288,,response,,,,99,,,,,,,Space,keypress(Space),,,,,,,,---- -- ----- -- ------ - ------- --- ----------<br>------------- ------ ------ ---- ---- ------- ----- -- ----<br>-------- ------- -- ---------- --- - --- ----- ----- ----<br>---- --- --- ----- --- feel ---- ------- ----- ---- -------<br>--- --- -- ----- -- --- ---- -- --- ---- -- ------ ------<br>--- ----- -- ----,145934.59999999404,145934.09999999404,145544.791,145552.40000000596,145561.499,145944.56,,33,feel
screen,html.Screen,2_1_0_1_34,2022-02-15T15:55:56.110Z,,,,,,,,,,,,,,,,,53,,,,,,,,,,,,,,391.6399999880814,,response,,,,99,,,,,,,Space,keypress(Space),,,,,,,,---- -- ----- -- ------ - ------- --- ----------<br>------------- ------ ------ ---- ---- ------- ----- -- ----<br>-------- ------- -- ---------- --- - --- ----- ----- ----<br>---- --- --- ----- --- ---- that ------- ----- ---- -------<br>--- --- -- ----- -- --- ---- -- --- ---- -- ------ ------<br>--- ----- -- ----,146336.80000001192,146336.19999998808,145928.348,145934.59999999404,145944.56,146344.377,,34,that
screen,html.Screen,2_1_0_1_35,2022-02-15T15:55:56.400Z,,,,,,,,,,,,,,,,,53,,,,,,,,,,,,,,282.0230000059528,,response,,,,99,,,,,,,Space,keypress(Space),,,,,,,,---- -- ----- -- ------ - ------- --- ----------<br>------------- ------ ------ ---- ---- ------- ----- -- ----<br>-------- ------- -- ---------- --- - --- ----- ----- ----<br>---- --- --- ----- --- ---- ---- matters ----- ---- -------<br>--- --- -- ----- -- --- ---- -- --- ---- -- ------ ------<br>--- ----- -- ----,146626.80000001192,146626.40000000596,146327.864,146336.80000001192,146344.377,146646.102,,35,matters
screen,html.Screen,2_1_0_1_36,2022-02-15T15:55:56.628Z,,,,,,,,,,,,,,,,,53,,,,,,,,,,,,,,208.3979999999865,,response,,,,99,,,,,,,Space,keypress(Space),,,,,,,,"---- -- ----- -- ------ - ------- --- ----------<br>------------- ------ ------ ---- ---- ------- ----- -- ----<br>-------- ------- -- ---------- --- - --- ----- ----- ----<br>---- --- --- ----- --- ---- ---- ------- most, ---- -------<br>--- --- -- ----- -- --- ---- -- --- ---- -- ------ ------<br>--- ----- -- ----",146854.90000000596,146854.5,146611.432,146627,146646.102,146860.807,,36,"most,"
screen,html.Screen,2_1_0_1_37,2022-02-15T15:55:57.111Z,,,,,,,,,,,,,,,,,53,,,,,,,,,,,,,,476.49300001192023,,response,,,,99,,,,,,,Space,keypress(Space),,,,,,,,---- -- ----- -- ------ - ------- --- ----------<br>------------- ------ ------ ---- ---- ------- ----- -- ----<br>-------- ------- -- ---------- --- - --- ----- ----- ----<br>---- --- --- ----- --- ---- ---- ------- ----- it's -------<br>--- --- -- ----- -- --- ---- -- --- ---- -- ------ ------<br>--- ----- -- ----,147337.59999999404,147337.30000001192,146844.104,146855,146860.807,147344.489,,37,it's
screen,html.Screen,2_1_0_1_38,2022-02-15T15:55:57.453Z,,,,,,,,,,,,,,,,,53,,,,,,,,,,,,,,334.61099999403814,,response,,,,99,,,,,,,Space,keypress(Space),,,,,,,,---- -- ----- -- ------ - ------- --- ----------<br>------------- ------ ------ ---- ---- ------- ----- -- ----<br>-------- ------- -- ---------- --- - --- ----- ----- ----<br>---- --- --- ----- --- ---- ---- ------- ----- ---- whether<br>--- --- -- ----- -- --- ---- -- --- ---- -- ------ ------<br>--- ----- -- ----,147679.5,147679.09999999404,147327.317,147337.69999998808,147344.489,147693.766,,38,whether
screen,html.Screen,2_1_0_1_39,2022-02-15T15:55:57.806Z,,,,,,,,,,,,,,,,,53,,,,,,,,,,,,,,338.53400001191767,,response,,,,99,,,,,,,Space,keypress(Space),,,,,,,,---- -- ----- -- ------ - ------- --- ----------<br>------------- ------ ------ ---- ---- ------- ----- -- ----<br>-------- ------- -- ---------- --- - --- ----- ----- ----<br>---- --- --- ----- --- ---- ---- ------- ----- ---- -------<br>you --- -- ----- -- --- ---- -- --- ---- -- ------ ------<br>--- ----- -- ----,148032.69999998808,148032.30000001192,147677.582,147679.59999999404,147693.766,148044.034,,39,you
screen,html.Screen,2_1_0_1_40,2022-02-15T15:55:58.187Z,,,,,,,,,,,,,,,,,53,,,,,,,,,,,,,,369.4659999999858,,response,,,,99,,,,,,,Space,keypress(Space),,,,,,,,---- -- ----- -- ------ - ------- --- ----------<br>------------- ------ ------ ---- ---- ------- ----- -- ----<br>-------- ------- -- ---------- --- - --- ----- ----- ----<br>---- --- --- ----- --- ---- ---- ------- ----- ---- -------<br>--- are -- ----- -- --- ---- -- --- ---- -- ------ ------<br>--- ----- -- ----,148414,148413.5,148027.45,148032.90000000596,148044.034,148426.729,,40,are
screen,html.Screen,2_1_0_1_41,2022-02-15T15:55:58.539Z,,,,,,,,,,,,,,,,,53,,,,,,,,,,,,,,338.7710000000079,,response,,,,99,,,,,,,Space,keypress(Space),,,,,,,,---- -- ----- -- ------ - ------- --- ----------<br>------------- ------ ------ ---- ---- ------- ----- -- ----<br>-------- ------- -- ---------- --- - --- ----- ----- ----<br>---- --- --- ----- --- ---- ---- ------- ----- ---- -------<br>--- --- as ----- -- --- ---- -- --- ---- -- ------ ------<br>--- ----- -- ----,148766,148765.5,148410.594,148414.09999999404,148426.729,148776.528,,41,as
screen,html.Screen,2_1_0_1_42,2022-02-15T15:55:58.852Z,,,,,,,,,,,,,,,,,53,,,,,,,,,,,,,,301.5719999940484,,response,,,,99,,,,,,,Space,keypress(Space),,,,,,,,---- -- ----- -- ------ - ------- --- ----------<br>------------- ------ ------ ---- ---- ------- ----- -- ----<br>-------- ------- -- ---------- --- - --- ----- ----- ----<br>---- --- --- ----- --- ---- ---- ------- ----- ---- -------<br>--- --- -- close -- --- ---- -- --- ---- -- ------ ------<br>--- ----- -- ----,149078.59999999404,149078.09999999404,148760.462,148766,148776.528,149093.321,,42,close
screen,html.Screen,2_1_0_1_43,2022-02-15T15:55:59.339Z,,,,,,,,,,,,,,,,,53,,,,,,,,,,,,,,471.5790000059642,,response,,,,99,,,,,,,Space,keypress(Space),,,,,,,,---- -- ----- -- ------ - ------- --- ----------<br>------------- ------ ------ ---- ---- ------- ----- -- ----<br>-------- ------- -- ---------- --- - --- ----- ----- ----<br>---- --- --- ----- --- ---- ---- ------- ----- ---- -------<br>--- --- -- ----- as --- ---- -- --- ---- -- ------ ------<br>--- ----- -- ----,149565.40000000596,149564.90000000596,149076.532,149078.59999999404,149093.321,149576.416,,43,as
screen,html.Screen,2_1_0_1_44,2022-02-15T15:55:59.673Z,,,,,,,,,,,,,,,,,53,,,,,,,,,,,,,,322.58400000000256,,response,,,,99,,,,,,,Space,keypress(Space),,,,,,,,---- -- ----- -- ------ - ------- --- ----------<br>------------- ------ ------ ---- ---- ------- ----- -- ----<br>-------- ------- -- ---------- --- - --- ----- ----- ----<br>---- --- --- ----- --- ---- ---- ------- ----- ---- -------<br>--- --- -- ----- -- you ---- -- --- ---- -- ------ ------<br>--- ----- -- ----,149899.40000000596,149899,149559.964,149565.5,149576.416,149909.522,,44,you
screen,html.Screen,2_1_0_1_45,2022-02-15T15:56:00.176Z,,,,,,,,,,,,,,,,,53,,,,,,,,,,,,,,492.57799999404233,,response,,,,99,,,,,,,Space,keypress(Space),,,,,,,,---- -- ----- -- ------ - ------- --- ----------<br>------------- ------ ------ ---- ---- ------- ----- -- ----<br>-------- ------- -- ---------- --- - --- ----- ----- ----<br>---- --- --- ----- --- ---- ---- ------- ----- ---- -------<br>--- --- -- ----- -- --- want -- --- ---- -- ------ ------<br>--- ----- -- ----,150402.59999999404,150402.09999999404,149892.808,149899.5,149909.522,150409.355,,45,want
screen,html.Screen,2_1_0_1_46,2022-02-15T15:56:00.540Z,,,,,,,,,,,,,,,,,53,,,,,,,,,,,,,,356.54500000595,,response,,,,99,,,,,,,Space,keypress(Space),,,,,,,,---- -- ----- -- ------ - ------- --- ----------<br>------------- ------ ------ ---- ---- ------- ----- -- ----<br>-------- ------- -- ---------- --- - --- ----- ----- ----<br>---- --- --- ----- --- ---- ---- ------- ----- ---- -------<br>--- --- -- ----- -- --- ---- to --- ---- -- ------ ------<br>--- ----- -- ----,150766.40000000596,150765.90000000596,150392.655,150402.69999998808,150409.355,150775.787,,46,to
screen,html.Screen,2_1_0_1_47,2022-02-15T15:56:00.949Z,,,,,,,,,,,,,,,,,53,,,,,,,,,,,,,,399.2129999999888,,response,,,,99,,,,,,,Space,keypress(Space),,,,,,,,"---- -- ----- -- ------ - ------- --- ----------<br>------------- ------ ------ ---- ---- ------- ----- -- ----<br>-------- ------- -- ---------- --- - --- ----- ----- ----<br>---- --- --- ----- --- ---- ---- ------- ----- ---- -------<br>--- --- -- ----- -- --- ---- -- be, ---- -- ------ ------<br>--- ----- -- ----",151175.59999999404,151175,150759.352,150766.5,150775.787,151192.46,,47,"be,"
screen,html.Screen,2_1_0_1_48,2022-02-15T15:56:01.539Z,,,,,,,,,,,,,,,,,53,,,,,,,,,,,,,,572.2399999880872,,response,,,,99,,,,,,,Space,keypress(Space),,,,,,,,---- -- ----- -- ------ - ------- --- ----------<br>------------- ------ ------ ---- ---- ------- ----- -- ----<br>-------- ------- -- ---------- --- - --- ----- ----- ----<br>---- --- --- ----- --- ---- ---- ------- ----- ---- -------<br>--- --- -- ----- -- --- ---- -- --- even -- ------ ------<br>--- ----- -- ----,151765.19999998808,151764.69999998808,151159.315,151175.59999999404,151192.46,151775.67,,48,even
screen,html.Screen,2_1_0_1_49,2022-02-15T15:56:01.883Z,,,,,,,,,,,,,,,,,53,,,,,,,,,,,,,,333.1300000119081,,response,,,,99,,,,,,,Space,keypress(Space),,,,,,,,---- -- ----- -- ------ - ------- --- ----------<br>------------- ------ ------ ---- ---- ------- ----- -- ----<br>-------- ------- -- ---------- --- - --- ----- ----- ----<br>---- --- --- ----- --- ---- ---- ------- ----- ---- -------<br>--- --- -- ----- -- --- ---- -- --- ---- if ------ ------<br>--- ----- -- ----,152109.30000001192,152108.80000001192,151759.132,151765.30000001192,151775.67,152125.641,,49,if
screen,html.Screen,2_1_0_1_50,2022-02-15T15:56:02.271Z,,,,,,,,,,,,,,,,,53,,,,,,,,,,,,,,371.7590000059572,,response,,,,99,,,,,,,Space,keypress(Space),,,,,,,,---- -- ----- -- ------ - ------- --- ----------<br>------------- ------ ------ ---- ---- ------- ----- -- ----<br>-------- ------- -- ---------- --- - --- ----- ----- ----<br>---- --- --- ----- --- ---- ---- ------- ----- ---- -------<br>--- --- -- ----- -- --- ---- -- --- ---- -- that's ------<br>--- ----- -- ----,152497.90000000596,152497.40000000596,152108.931,152109.5,152125.641,152508.472,,50,that's
screen,html.Screen,2_1_0_1_51,2022-02-15T15:56:02.713Z,,,,,,,,,,,,,,,,,53,,,,,,,,,,,,,,430.9280000059516,,response,,,,99,,,,,,,Space,keypress(Space),,,,,,,,---- -- ----- -- ------ - ------- --- ----------<br>------------- ------ ------ ---- ---- ------- ----- -- ----<br>-------- ------- -- ---------- --- - --- ----- ----- ----<br>---- --- --- ----- --- ---- ---- ------- ----- ---- -------<br>--- --- -- ----- -- --- ---- -- --- ---- -- ------ really<br>--- ----- -- ----,152939.90000000596,152939.40000000596,152491.647,152498,152508.472,152941.363,,51,really
screen,html.Screen,2_1_0_1_52,2022-02-15T15:56:03.483Z,,,,,,,,,,,,,,,,,53,,,,,,,,,,,,,,767.6369999999879,,response,,,,99,,,,,,,Space,keypress(Space),,,,,,,,---- -- ----- -- ------ - ------- --- ----------<br>------------- ------ ------ ---- ---- ------- ----- -- ----<br>-------- ------- -- ---------- --- - --- ----- ----- ----<br>---- --- --- ----- --- ---- ---- ------- ----- ---- -------<br>--- --- -- ----- -- --- ---- -- --- ---- -- ------ ------<br>not ----- -- ----,153709.40000000596,153709,152924.896,152940,152941.363,153724.485,,52,not
screen,html.Screen,2_1_0_1_53,2022-02-15T15:56:04.360Z,,,,,,,,,,,,,,,,,53,,,,,,,,,,,,,,861.1149999940535,,response,,,,99,,,,,,,Space,keypress(Space),,,,,,,,---- -- ----- -- ------ - ------- --- ----------<br>------------- ------ ------ ---- ---- ------- ----- -- ----<br>-------- ------- -- ---------- --- - --- ----- ----- ----<br>---- --- --- ----- --- ---- ---- ------- ----- ---- -------<br>--- --- -- ----- -- --- ---- -- --- ---- -- ------ ------<br>--- close -- ----,154586.09999999404,154585.59999999404,153708.207,153709.5,153724.485,154590.632,,53,close
screen,html.Screen,2_1_0_1_54,2022-02-15T15:56:04.864Z,,,,,,,,,,,,,,,,,53,,,,,,,,,,,,,,499.7680000059481,,response,,,,99,,,,,,,Space,keypress(Space),,,,,,,,---- -- ----- -- ------ - ------- --- ----------<br>------------- ------ ------ ---- ---- ------- ----- -- ----<br>-------- ------- -- ---------- --- - --- ----- ----- ----<br>---- --- --- ----- --- ---- ---- ------- ----- ---- -------<br>--- --- -- ----- -- --- ---- -- --- ---- -- ------ ------<br>--- ----- at ----,155090.90000000596,155090.40000000596,154574.432,154586.19999998808,154590.632,155107.219,,54,at
screen,html.Screen,2_1_0_1_55,2022-02-15T15:56:06.816Z,,,,,,,,,,,,,,,,,53,,,,,,,,,,,,,,1934.6810000059486,,response,,,,99,,,,,,,Space,keypress(Space),,,,,,,,---- -- ----- -- ------ - ------- --- ----------<br>------------- ------ ------ ---- ---- ------- ----- -- ----<br>-------- ------- -- ---------- --- - --- ----- ----- ----<br>---- --- --- ----- --- ---- ---- ------- ----- ---- -------<br>--- --- -- ----- -- --- ---- -- --- ---- -- ------ ------<br>--- ----- -- all.,157042.5,157041.90000000596,155090.404,155091,155107.219,157056.254,,55,all.
Item 99,flow.Loop,2_1_0_1,2022-02-15T15:56:06.816Z,,,,,,,,,,,,,,,,,,,,,,,,,,,,,,,24774.43100000595,,completion,,,,,A,,,,,,,,,,,silence,,,,,157042.80000001192,157041.90000000596,132250.932,132251.30000001192,132267.469,157056.254,,,
Question 1,html.Screen,2_1_0_2,2022-02-15T15:56:11.150Z,,,,,,,,,,,,,,,,,,,,,,,,,,,,true,FALSE,,4319.445999988093,,response,,,,99,A,,,,,,FALSE,click #choice-2,,,,silence,,,,,161376.30000001192,161375.69999998808,157039.617,157043,157056.254,161387.515,,,
Question 2,html.Screen,2_1_0_3,2022-02-15T15:56:16.129Z,,,,,,,,,,,,,,,,,,,,,,,,,,,,true,TRUE,,4967.684999988065,,response,,,,99,A,,,,,,TRUE,click #choice-1,,,,silence,,,,,166356,166355.19999998808,161371.328,161376.40000000596,161387.515,166368.598,,,
Item 99,flow.Sequence,2_1_0,2022-02-15T15:56:16.130Z,,,,,,,,,,,,,,,,,,,,,,,,,,,,,,,44083.32199998808,,completion,,,,,,,,,,,,,,,,,,,,,166356,166355.19999998808,122255.233,122265.19999998808,122271.878,166368.598,,,
Holding screen,html.Screen,2_1_1_0,2022-02-15T15:56:26.121Z,,,,,,,,,,,,,,,,,,,,,,,,,,,,,,,9995.989000000001,,timeout,,,,,,,,,,,,,,,,,,,,,176347.90000000596,176347.442,166352.094,166356.09999999404,166368.598,176364.587,,,
screen,html.Screen,2_1_1_1_0,2022-02-15T15:56:26.831Z,,,,,,,,,,,,,,,,,54,,,,,,,,,,,,,,692.1129999880795,,response,,,,100,,,,,,,Space,keypress(Space),,,,,,,,At --- ---- --- ------ ----- ------- ---- -- --- ------- --<br>------- ---------- ------ -- ----- -- ----- -- ---- ------<br>--- ----- --- --- ------ -------- ----- --- ------ ----- --<br>----- ----- ---------- --- --- ------ ------ ---- -- ------<br>------- --- ------ ----- --- ---- ------- -- ---- --- --<br>------- ------,177057.30000001192,177056.69999998808,176347.442,176348.09999999404,176364.587,177063.867,,0,At
screen,html.Screen,2_1_1_1_1,2022-02-15T15:56:27.149Z,,,,,,,,,,,,,,,,,54,,,,,,,,,,,,,,310.8329999880807,,response,,,,100,,,,,,,Space,keypress(Space),,,,,,,,-- the ---- --- ------ ----- ------- ---- -- --- ------- --<br>------- ---------- ------ -- ----- -- ----- -- ---- ------<br>--- ----- --- --- ------ -------- ----- --- ------ ----- --<br>----- ----- ---------- --- --- ------ ------ ---- -- ------<br>------- --- ------ ----- --- ---- ------- -- ---- --- --<br>------- ------,177375.19999998808,177374.69999998808,177047.69,177057.40000000596,177063.867,177380.767,,1,the
screen,html.Screen,2_1_1_1_2,2022-02-15T15:56:27.505Z,,,,,,,,,,,,,,,,,54,,,,,,,,,,,,,,350.1330000059679,,response,,,,100,,,,,,,Space,keypress(Space),,,,,,,,-- --- time --- ------ ----- ------- ---- -- --- ------- --<br>------- ---------- ------ -- ----- -- ----- -- ---- ------<br>--- ----- --- --- ------ -------- ----- --- ------ ----- --<br>----- ----- ---------- --- --- ------ ------ ---- -- ------<br>------- --- ------ ----- --- ---- ------- -- ---- --- --<br>------- ------,177731.30000001192,177730.90000000596,177364.274,177375.30000001192,177380.767,177747.272,,2,time
screen,html.Screen,2_1_1_1_3,2022-02-15T15:56:27.843Z,,,,,,,,,,,,,,,,,54,,,,,,,,,,,,,,321.5280000119237,,response,,,,100,,,,,,,Space,keypress(Space),,,,,,,,-- --- ---- the ------ ----- ------- ---- -- --- ------- --<br>------- ---------- ------ -- ----- -- ----- -- ---- ------<br>--- ----- --- --- ------ -------- ----- --- ------ ----- --<br>----- ----- ---------- --- --- ------ ------ ---- -- ------<br>------- --- ------ ----- --- ---- ------- -- ---- --- --<br>------- ------,178069.30000001192,178068.80000001192,177730.586,177731.40000000596,177747.272,178080.506,,3,the
screen,html.Screen,2_1_1_1_4,2022-02-15T15:56:28.254Z,,,,,,,,,,,,,,,,,54,,,,,,,,,,,,,,399.294000011927,,response,,,,100,,,,,,,Space,keypress(Space),,,,,,,,-- --- ---- --- French ----- ------- ---- -- --- ------- --<br>------- ---------- ------ -- ----- -- ----- -- ---- ------<br>--- ----- --- --- ------ -------- ----- --- ------ ----- --<br>----- ----- ---------- --- --- ------ ------ ---- -- ------<br>------- --- ------ ----- --- ---- ------- -- ---- --- --<br>------- ------,178480.30000001192,178479.80000001192,178063.877,178069.30000001192,178080.506,178496.851,,4,French
screen,html.Screen,2_1_1_1_5,2022-02-15T15:56:28.678Z,,,,,,,,,,,,,,,,,54,,,,,,,,,,,,,,406.9490000119258,,response,,,,100,,,,,,,Space,keypress(Space),,,,,,,,-- --- ---- --- ------ crown ------- ---- -- --- ------- --<br>------- ---------- ------ -- ----- -- ----- -- ---- ------<br>--- ----- --- --- ------ -------- ----- --- ------ ----- --<br>----- ----- ---------- --- --- ------ ------ ---- -- ------<br>------- --- ------ ----- --- ---- ------- -- ---- --- --<br>------- ------,178904.19999998808,178903.80000001192,178480.406,178480.40000000596,178496.851,178912.964,,5,crown
screen,html.Screen,2_1_1_1_6,2022-02-15T15:56:29.145Z,,,,,,,,,,,,,,,,,54,,,,,,,,,,,,,,457.8360000119137,,response,,,,100,,,,,,,Space,keypress(Space),,,,,,,,-- --- ---- --- ------ ----- secured ---- -- --- ------- --<br>------- ---------- ------ -- ----- -- ----- -- ---- ------<br>--- ----- --- --- ------ -------- ----- --- ------ ----- --<br>----- ----- ---------- --- --- ------ ------ ---- -- ------<br>------- --- ------ ----- --- ---- ------- -- ---- --- --<br>------- ------,179371.30000001192,179370.80000001192,178896.47,178904.30000001192,178912.964,179379.394,,6,secured
screen,html.Screen,2_1_1_1_7,2022-02-15T15:56:29.526Z,,,,,,,,,,,,,,,,,54,,,,,,,,,,,,,,372.60599999999977,,response,,,,100,,,,,,,Space,keypress(Space),,,,,,,,-- --- ---- --- ------ ----- ------- much -- --- ------- --<br>------- ---------- ------ -- ----- -- ----- -- ---- ------<br>--- ----- --- --- ------ -------- ----- --- ------ ----- --<br>----- ----- ---------- --- --- ------ ------ ---- -- ------<br>------- --- ------ ----- --- ---- ------- -- ---- --- --<br>------- ------,179752.40000000596,179752,179362.899,179371.40000000596,179379.394,179762.89,,7,much
screen,html.Screen,2_1_1_1_8,2022-02-15T15:56:29.852Z,,,,,,,,,,,,,,,,,54,,,,,,,,,,,,,,315.3099999880651,,response,,,,100,,,,,,,Space,keypress(Space),,,,,,,,-- --- ---- --- ------ ----- ------- ---- of --- ------- --<br>------- ---------- ------ -- ----- -- ----- -- ---- ------<br>--- ----- --- --- ------ -------- ----- --- ------ ----- --<br>----- ----- ---------- --- --- ------ ------ ---- -- ------<br>------- --- ------ ----- --- ---- ------- -- ---- --- --<br>------- ------,180078.59999999404,180078.19999998808,179746.029,179752.40000000596,179762.89,180109.044,,8,of
screen,html.Screen,2_1_1_1_9,2022-02-15T15:56:30.276Z,,,,,,,,,,,,,,,,,54,,,,,,,,,,,,,,393.15599998808466,,response,,,,100,,,,,,,Space,keypress(Space),,,,,,,,-- --- ---- --- ------ ----- ------- ---- -- its ------- --<br>------- ---------- ------ -- ----- -- ----- -- ---- ------<br>--- ----- --- --- ------ -------- ----- --- ------ ----- --<br>----- ----- ---------- --- --- ------ ------ ---- -- ------<br>------- --- ------ ----- --- ---- ------- -- ---- --- --<br>------- ------,180502.59999999404,180502.19999998808,180063.008,180078.69999998808,180109.044,180512.185,,9,its
screen,html.Screen,2_1_1_1_10,2022-02-15T15:56:30.645Z,,,,,,,,,,,,,,,,,54,,,,,,,,,,,,,,358.8150000000023,,response,,,,100,,,,,,,Space,keypress(Space),,,,,,,,-- --- ---- --- ------ ----- ------- ---- -- --- revenue --<br>------- ---------- ------ -- ----- -- ----- -- ---- ------<br>--- ----- --- --- ------ -------- ----- --- ------ ----- --<br>----- ----- ---------- --- --- ------ ------ ---- -- ------<br>------- --- ------ ----- --- ---- ------- -- ---- --- --<br>------- ------,180871.59999999404,180871,180495.809,180502.69999998808,180512.185,180878.685,,10,revenue
screen,html.Screen,2_1_1_1_11,2022-02-15T15:56:31.076Z,,,,,,,,,,,,,,,,,54,,,,,,,,,,,,,,423.2150000059628,,response,,,,100,,,,,,,Space,keypress(Space),,,,,,,,-- --- ---- --- ------ ----- ------- ---- -- --- ------- by<br>------- ---------- ------ -- ----- -- ----- -- ---- ------<br>--- ----- --- --- ------ -------- ----- --- ------ ----- --<br>----- ----- ---------- --- --- ------ ------ ---- -- ------<br>------- --- ------ ----- --- ---- ------- -- ---- --- --<br>------- ------,181302.40000000596,181301.90000000596,180862.529,180871.59999999404,180878.685,181311.846,,11,by
screen,html.Screen,2_1_1_1_12,2022-02-15T15:56:31.632Z,,,,,,,,,,,,,,,,,54,,,,,,,,,,,,,,546.3539999880886,,response,,,,100,,,,,,,Space,keypress(Space),,,,,,,,-- --- ---- --- ------ ----- ------- ---- -- --- ------- --<br>issuing ---------- ------ -- ----- -- ----- -- ---- ------<br>--- ----- --- --- ------ -------- ----- --- ------ ----- --<br>----- ----- ---------- --- --- ------ ------ ---- -- ------<br>------- --- ------ ----- --- ---- ------- -- ---- --- --<br>------- ------,181858.69999998808,181858.19999998808,181295.376,181302.5,181311.846,181861.569,,12,issuing
screen,html.Screen,2_1_1_1_13,2022-02-15T15:56:32.098Z,,,,,,,,,,,,,,,,,54,,,,,,,,,,,,,,463.03099999405094,,response,,,,100,,,,,,,Space,keypress(Space),,,,,,,,-- --- ---- --- ------ ----- ------- ---- -- --- ------- --<br>------- government ------ -- ----- -- ----- -- ---- ------<br>--- ----- --- --- ------ -------- ----- --- ------ ----- --<br>----- ----- ---------- --- --- ------ ------ ---- -- ------<br>------- --- ------ ----- --- ---- ------- -- ---- --- --<br>------- ------,182325.09999999404,182324.59999999404,181845.579,181858.90000000596,181861.569,182328.023,,13,government
screen,html.Screen,2_1_1_1_14,2022-02-15T15:56:33.465Z,,,,,,,,,,,,,,,,,54,,,,,,,,,,,,,,1362.877000005974,,response,,,,100,,,,,,,Space,keypress(Space),,,,,,,,-- --- ---- --- ------ ----- ------- ---- -- --- ------- --<br>------- ---------- bonds. -- ----- -- ----- -- ---- ------<br>--- ----- --- --- ------ -------- ----- --- ------ ----- --<br>----- ----- ---------- --- --- ------ ------ ---- -- ------<br>------- --- ------ ----- --- ---- ------- -- ---- --- --<br>------- ------,183691.40000000596,183690.90000000596,182311.505,182325.19999998808,182328.023,183694.073,,14,bonds.
screen,html.Screen,2_1_1_1_15,2022-02-15T15:56:33.863Z,,,,,,,,,,,,,,,,,54,,,,,,,,,,,,,,394.8270000059565,,response,,,,100,,,,,,,Space,keypress(Space),,,,,,,,-- --- ---- --- ------ ----- ------- ---- -- --- ------- --<br>------- ---------- ------ In ----- -- ----- -- ---- ------<br>--- ----- --- --- ------ -------- ----- --- ------ ----- --<br>----- ----- ---------- --- --- ------ ------ ---- -- ------<br>------- --- ------ ----- --- ---- ------- -- ---- --- --<br>------- ------,184089.40000000596,184088.90000000596,183678.042,183691.40000000596,183694.073,184093.908,,15,In
screen,html.Screen,2_1_1_1_16,2022-02-15T15:56:34.559Z,,,,,,,,,,,,,,,,,54,,,,,,,,,,,,,,691.4920000059647,,response,,,,100,,,,,,,Space,keypress(Space),,,,,,,,"-- --- ---- --- ------ ----- ------- ---- -- --- ------- --<br>------- ---------- ------ -- 1727, -- ----- -- ---- ------<br>--- ----- --- --- ------ -------- ----- --- ------ ----- --<br>----- ----- ---------- --- --- ------ ------ ---- -- ------<br>------- --- ------ ----- --- ---- ------- -- ---- --- --<br>------- ------",184785.69999998808,184785.40000000596,184077.746,184089.5,184093.908,184793.688,,16,"1727,"
screen,html.Screen,2_1_1_1_17,2022-02-15T15:56:35.035Z,,,,,,,,,,,,,,,,,54,,,,,,,,,,,,,,467.7120000059658,,response,,,,100,,,,,,,Space,keypress(Space),,,,,,,,-- --- ---- --- ------ ----- ------- ---- -- --- ------- --<br>------- ---------- ------ -- ----- in ----- -- ---- ------<br>--- ----- --- --- ------ -------- ----- --- ------ ----- --<br>----- ----- ---------- --- --- ------ ------ ---- -- ------<br>------- --- ------ ----- --- ---- ------- -- ---- --- --<br>------- ------,185261.80000001192,185261.40000000596,184777.318,184785.90000000596,184793.688,185276.701,,17,in
screen,html.Screen,2_1_1_1_18,2022-02-15T15:56:35.562Z,,,,,,,,,,,,,,,,,54,,,,,,,,,,,,,,511.79899999999907,,response,,,,100,,,,,,,Space,keypress(Space),,,,,,,,-- --- ---- --- ------ ----- ------- ---- -- --- ------- --<br>------- ---------- ------ -- ----- -- order -- ---- ------<br>--- ----- --- --- ------ -------- ----- --- ------ ----- --<br>----- ----- ---------- --- --- ------ ------ ---- -- ------<br>------- --- ------ ----- --- ---- ------- -- ---- --- --<br>------- ------,185788.90000000596,185788.5,185260.514,185261.90000000596,185276.701,185793.16,,18,order
screen,html.Screen,2_1_1_1_19,2022-02-15T15:56:36.070Z,,,,,,,,,,,,,,,,,54,,,,,,,,,,,,,,503.43999999403604,,response,,,,100,,,,,,,Space,keypress(Space),,,,,,,,-- --- ---- --- ------ ----- ------- ---- -- --- ------- --<br>------- ---------- ------ -- ----- -- ----- to ---- ------<br>--- ----- --- --- ------ -------- ----- --- ------ ----- --<br>----- ----- ---------- --- --- ------ ------ ---- -- ------<br>------- --- ------ ----- --- ---- ------- -- ---- --- --<br>------- ------,186297.09999999404,186296.59999999404,185776.677,185789,185793.16,186309.942,,19,to
screen,html.Screen,2_1_1_1_20,2022-02-15T15:56:36.446Z,,,,,,,,,,,,,,,,,54,,,,,,,,,,,,,,362.25799998806906,,response,,,,100,,,,,,,Space,keypress(Space),,,,,,,,-- --- ---- --- ------ ----- ------- ---- -- --- ------- --<br>------- ---------- ------ -- ----- -- ----- -- save ------<br>--- ----- --- --- ------ -------- ----- --- ------ ----- --<br>----- ----- ---------- --- --- ------ ------ ---- -- ------<br>------- --- ------ ----- --- ---- ------- -- ---- --- --<br>------- ------,186673.09999999404,186672.19999998808,186293.415,186297.19999998808,186309.942,186676.126,,20,save
screen,html.Screen,2_1_1_1_21,2022-02-15T15:56:36.905Z,,,,,,,,,,,,,,,,,54,,,,,,,,,,,,,,454.8740000000107,,response,,,,100,,,,,,,Space,keypress(Space),,,,,,,,"-- --- ---- --- ------ ----- ------- ---- -- --- ------- --<br>------- ---------- ------ -- ----- -- ----- -- ---- money,<br>--- ----- --- --- ------ -------- ----- --- ------ ----- --<br>----- ----- ---------- --- --- ------ ------ ---- -- ------<br>------- --- ------ ----- --- ---- ------- -- ---- --- --<br>------- ------",187131.40000000596,187131,186660.131,186673.19999998808,186676.126,187142.543,,21,"money,"
screen,html.Screen,2_1_1_1_22,2022-02-15T15:56:37.368Z,,,,,,,,,,,,,,,,,54,,,,,,,,,,,,,,451.35700000595534,,response,,,,100,,,,,,,Space,keypress(Space),,,,,,,,-- --- ---- --- ------ ----- ------- ---- -- --- ------- --<br>------- ---------- ------ -- ----- -- ----- -- ---- ------<br>the ----- --- --- ------ -------- ----- --- ------ ----- --<br>----- ----- ---------- --- --- ------ ------ ---- -- ------<br>------- --- ------ ----- --- ---- ------- -- ---- --- --<br>------- ------,187594.40000000596,187593.90000000596,187126.317,187131.5,187142.543,187608.98,,22,the
screen,html.Screen,2_1_1_1_23,2022-02-15T15:56:37.959Z,,,,,,,,,,,,,,,,,54,,,,,,,,,,,,,,576.6199999940291,,response,,,,100,,,,,,,Space,keypress(Space),,,,,,,,-- --- ---- --- ------ ----- ------- ---- -- --- ------- --<br>------- ---------- ------ -- ----- -- ----- -- ---- ------<br>--- state --- --- ------ -------- ----- --- ------ ----- --<br>----- ----- ---------- --- --- ------ ------ ---- -- ------<br>------- --- ------ ----- --- ---- ------- -- ---- --- --<br>------- ------,188186,188185.59999999404,187592.903,187594.5,187608.98,188192.076,,23,state
screen,html.Screen,2_1_1_1_24,2022-02-15T15:56:38.358Z,,,,,,,,,,,,,,,,,54,,,,,,,,,,,,,,392.0239999940386,,response,,,,100,,,,,,,Space,keypress(Space),,,,,,,,-- --- ---- --- ------ ----- ------- ---- -- --- ------- --<br>------- ---------- ------ -- ----- -- ----- -- ---- ------<br>--- ----- cut --- ------ -------- ----- --- ------ ----- --<br>----- ----- ---------- --- --- ------ ------ ---- -- ------<br>------- --- ------ ----- --- ---- ------- -- ---- --- --<br>------- ------,188584.5,188584.09999999404,188175.388,188186.09999999404,188192.076,188591.88,,24,cut
screen,html.Screen,2_1_1_1_25,2022-02-15T15:56:38.750Z,,,,,,,,,,,,,,,,,54,,,,,,,,,,,,,,384.5200000059558,,response,,,,100,,,,,,,Space,keypress(Space),,,,,,,,-- --- ---- --- ------ ----- ------- ---- -- --- ------- --<br>------- ---------- ------ -- ----- -- ----- -- ---- ------<br>--- ----- --- the ------ -------- ----- --- ------ ----- --<br>----- ----- ---------- --- --- ------ ------ ---- -- ------<br>------- --- ------ ----- --- ---- ------- -- ---- --- --<br>------- ------,188977,188976.40000000596,188575.287,188584.59999999404,188591.88,188991.685,,25,the
screen,html.Screen,2_1_1_1_26,2022-02-15T15:56:39.209Z,,,,,,,,,,,,,,,,,54,,,,,,,,,,,,,,443.2150000059628,,response,,,,100,,,,,,,Space,keypress(Space),,,,,,,,-- --- ---- --- ------ ----- ------- ---- -- --- ------- --<br>------- ---------- ------ -- ----- -- ----- -- ---- ------<br>--- ----- --- --- bonds' -------- ----- --- ------ ----- --<br>----- ----- ---------- --- --- ------ ------ ---- -- ------<br>------- --- ------ ----- --- ---- ------- -- ---- --- --<br>------- ------,189435.40000000596,189434.90000000596,188975.23,188977.09999999404,188991.685,189441.971,,26,bonds'
screen,html.Screen,2_1_1_1_27,2022-02-15T15:56:39.686Z,,,,,,,,,,,,,,,,,54,,,,,,,,,,,,,,470.42900000597,,response,,,,100,,,,,,,Space,keypress(Space),,,,,,,,-- --- ---- --- ------ ----- ------- ---- -- --- ------- --<br>------- ---------- ------ -- ----- -- ----- -- ---- ------<br>--- ----- --- --- ------ interest ----- --- ------ ----- --<br>----- ----- ---------- --- --- ------ ------ ---- -- ------<br>------- --- ------ ----- --- ---- ------- -- ---- --- --<br>------- ------,189912.90000000596,189912.40000000596,189424.902,189435.5,189441.971,189924.745,,27,interest
screen,html.Screen,2_1_1_1_28,2022-02-15T15:56:40.228Z,,,,,,,,,,,,,,,,,54,,,,,,,,,,,,,,529.4549999880837,,response,,,,100,,,,,,,Space,keypress(Space),,,,,,,,-- --- ---- --- ------ ----- ------- ---- -- --- ------- --<br>------- ---------- ------ -- ----- -- ----- -- ---- ------<br>--- ----- --- --- ------ -------- rate. --- ------ ----- --<br>----- ----- ---------- --- --- ------ ------ ---- -- ------<br>------- --- ------ ----- --- ---- ------- -- ---- --- --<br>------- ------,190454.59999999404,190454.19999998808,189908.496,189913,189924.745,190457.698,,28,rate.
screen,html.Screen,2_1_1_1_29,2022-02-15T15:56:40.674Z,,,,,,,,,,,,,,,,,54,,,,,,,,,,,,,,443.10200001191697,,response,,,,100,,,,,,,Space,keypress(Space),,,,,,,,-- --- ---- --- ------ ----- ------- ---- -- --- ------- --<br>------- ---------- ------ -- ----- -- ----- -- ---- ------<br>--- ----- --- --- ------ -------- ----- The ------ ----- --<br>----- ----- ---------- --- --- ------ ------ ---- -- ------<br>------- --- ------ ----- --- ---- ------- -- ---- --- --<br>------- ------,190901.19999998808,190900.80000001192,190441.547,190454.69999998808,190457.698,190908.051,,29,The
screen,html.Screen,2_1_1_1_30,2022-02-15T15:56:41.138Z,,,,,,,,,,,,,,,,,54,,,,,,,,,,,,,,456.1489999880723,,response,,,,100,,,,,,,Space,keypress(Space),,,,,,,,-- --- ---- --- ------ ----- ------- ---- -- --- ------- --<br>------- ---------- ------ -- ----- -- ----- -- ---- ------<br>--- ----- --- --- ------ -------- ----- --- market ----- --<br>----- ----- ---------- --- --- ------ ------ ---- -- ------<br>------- --- ------ ----- --- ---- ------- -- ---- --- --<br>------- ------,191364.69999998808,191364.19999998808,190891.363,190901.30000001192,190908.051,191373.935,,30,market
screen,html.Screen,2_1_1_1_31,2022-02-15T15:56:41.559Z,,,,,,,,,,,,,,,,,54,,,,,,,,,,,,,,410.9650000059628,,response,,,,100,,,,,,,Space,keypress(Space),,,,,,,,-- --- ---- --- ------ ----- ------- ---- -- --- ------- --<br>------- ---------- ------ -- ----- -- ----- -- ---- ------<br>--- ----- --- --- ------ -------- ----- --- ------ value --<br>----- ----- ---------- --- --- ------ ------ ---- -- ------<br>------- --- ------ ----- --- ---- ------- -- ---- --- --<br>------- ------,191785.40000000596,191784.90000000596,191357.381,191364.69999998808,191373.935,191790.941,,31,value
screen,html.Screen,2_1_1_1_32,2022-02-15T15:56:41.973Z,,,,,,,,,,,,,,,,,54,,,,,,,,,,,,,,408.0590000000084,,response,,,,100,,,,,,,Space,keypress(Space),,,,,,,,-- --- ---- --- ------ ----- ------- ---- -- --- ------- --<br>------- ---------- ------ -- ----- -- ----- -- ---- ------<br>--- ----- --- --- ------ -------- ----- --- ------ ----- of<br>----- ----- ---------- --- --- ------ ------ ---- -- ------<br>------- --- ------ ----- --- ---- ------- -- ---- --- --<br>------- ------,192199.40000000596,192199,191774.02,191785.5,191790.941,192207.186,,32,of
screen,html.Screen,2_1_1_1_33,2022-02-15T15:56:42.382Z,,,,,,,,,,,,,,,,,54,,,,,,,,,,,,,,401.4139999940526,,response,,,,100,,,,,,,Space,keypress(Space),,,,,,,,-- --- ---- --- ------ ----- ------- ---- -- --- ------- --<br>------- ---------- ------ -- ----- -- ----- -- ---- ------<br>--- ----- --- --- ------ -------- ----- --- ------ ----- --<br>these ----- ---------- --- --- ------ ------ ---- -- ------<br>------- --- ------ ----- --- ---- ------- -- ---- --- --<br>------- ------,192609,192608.59999999404,192190.661,192199.5,192207.186,192623.352,,33,these
screen,html.Screen,2_1_1_1_34,2022-02-15T15:56:42.784Z,,,,,,,,,,,,,,,,,54,,,,,,,,,,,,,,387.04800000594696,,response,,,,100,,,,,,,Space,keypress(Space),,,,,,,,-- --- ---- --- ------ ----- ------- ---- -- --- ------- --<br>------- ---------- ------ -- ----- -- ----- -- ---- ------<br>--- ----- --- --- ------ -------- ----- --- ------ ----- --<br>----- bonds ---------- --- --- ------ ------ ---- -- ------<br>------- --- ------ ----- --- ---- ------- -- ---- --- --<br>------- ------,193010.90000000596,193010.40000000596,192607.302,192609.09999999404,192623.352,193023.402,,34,bonds
screen,html.Screen,2_1_1_1_35,2022-02-15T15:56:43.319Z,,,,,,,,,,,,,,,,,54,,,,,,,,,,,,,,522.0979999999981,,response,,,,100,,,,,,,Space,keypress(Space),,,,,,,,"-- --- ---- --- ------ ----- ------- ---- -- --- ------- --<br>------- ---------- ------ -- ----- -- ----- -- ---- ------<br>--- ----- --- --- ------ -------- ----- --- ------ ----- --<br>----- ----- plummeted, --- --- ------ ------ ---- -- ------<br>------- --- ------ ----- --- ---- ------- -- ---- --- --<br>------- ------",193546.09999999404,193545.5,193006.653,193010.90000000596,193023.402,193556.455,,35,"plummeted,"
screen,html.Screen,2_1_1_1_36,2022-02-15T15:56:43.992Z,,,,,,,,,,,,,,,,,54,,,,,,,,,,,,,,661.3450000119337,,response,,,,100,,,,,,,Space,keypress(Space),,,,,,,,-- --- ---- --- ------ ----- ------- ---- -- --- ------- --<br>------- ---------- ------ -- ----- -- ----- -- ---- ------<br>--- ----- --- --- ------ -------- ----- --- ------ ----- --<br>----- ----- ---------- and --- ------ ------ ---- -- ------<br>------- --- ------ ----- --- ---- ------- -- ---- --- --<br>------- ------,194218.40000000596,194217.80000001192,193540.092,193546.09999999404,193556.455,194222.788,,36,and
screen,html.Screen,2_1_1_1_37,2022-02-15T15:56:44.337Z,,,,,,,,,,,,,,,,,54,,,,,,,,,,,,,,341.01200001192046,,response,,,,100,,,,,,,Space,keypress(Space),,,,,,,,-- --- ---- --- ------ ----- ------- ---- -- --- ------- --<br>------- ---------- ------ -- ----- -- ----- -- ---- ------<br>--- ----- --- --- ------ -------- ----- --- ------ ----- --<br>----- ----- ---------- --- the ------ ------ ---- -- ------<br>------- --- ------ ----- --- ---- ------- -- ---- --- --<br>------- ------,194564.09999999404,194563.80000001192,194206.072,194218.40000000596,194222.788,194573.065,,37,the
screen,html.Screen,2_1_1_1_38,2022-02-15T15:56:44.699Z,,,,,,,,,,,,,,,,,54,,,,,,,,,,,,,,352.33500000595814,,response,,,,100,,,,,,,Space,keypress(Space),,,,,,,,-- --- ---- --- ------ ----- ------- ---- -- --- ------- --<br>------- ---------- ------ -- ----- -- ----- -- ---- ------<br>--- ----- --- --- ------ -------- ----- --- ------ ----- --<br>----- ----- ---------- --- --- market ------ ---- -- ------<br>------- --- ------ ----- --- ---- ------- -- ---- --- --<br>------- ------,194925.90000000596,194925.40000000596,194555.913,194564.30000001192,194573.065,194938.991,,38,market
screen,html.Screen,2_1_1_1_39,2022-02-15T15:56:45.070Z,,,,,,,,,,,,,,,,,54,,,,,,,,,,,,,,357.60899999403046,,response,,,,100,,,,,,,Space,keypress(Space),,,,,,,,-- --- ---- --- ------ ----- ------- ---- -- --- ------- --<br>------- ---------- ------ -- ----- -- ----- -- ---- ------<br>--- ----- --- --- ------ -------- ----- --- ------ ----- --<br>----- ----- ---------- --- --- ------ became ---- -- ------<br>------- --- ------ ----- --- ---- ------- -- ---- --- --<br>------- ------,195297,195296.59999999404,194922.676,194926,194938.991,195305.976,,39,became
screen,html.Screen,2_1_1_1_40,2022-02-15T15:56:45.431Z,,,,,,,,,,,,,,,,,54,,,,,,,,,,,,,,351.6239999940444,,response,,,,100,,,,,,,Space,keypress(Space),,,,,,,,-- --- ---- --- ------ ----- ------- ---- -- --- ------- --<br>------- ---------- ------ -- ----- -- ----- -- ---- ------<br>--- ----- --- --- ------ -------- ----- --- ------ ----- --<br>----- ----- ---------- --- --- ------ ------ wary -- ------<br>------- --- ------ ----- --- ---- ------- -- ---- --- --<br>------- ------,195658.09999999404,195657.59999999404,195289.302,195297.09999999404,195305.976,195672.008,,40,wary
screen,html.Screen,2_1_1_1_41,2022-02-15T15:56:45.837Z,,,,,,,,,,,,,,,,,54,,,,,,,,,,,,,,391.0919999940379,,response,,,,100,,,,,,,Space,keypress(Space),,,,,,,,-- --- ---- --- ------ ----- ------- ---- -- --- ------- --<br>------- ---------- ------ -- ----- -- ----- -- ---- ------<br>--- ----- --- --- ------ -------- ----- --- ------ ----- --<br>----- ----- ---------- --- --- ------ ------ ---- of ------<br>------- --- ------ ----- --- ---- ------- -- ---- --- --<br>------- ------,196063.59999999404,196063.09999999404,195655.584,195658.19999998808,195672.008,196071.827,,41,of
screen,html.Screen,2_1_1_1_42,2022-02-15T15:56:46.216Z,,,,,,,,,,,,,,,,,54,,,,,,,,,,,,,,370.2729999940493,,response,,,,100,,,,,,,Space,keypress(Space),,,,,,,,-- --- ---- --- ------ ----- ------- ---- -- --- ------- --<br>------- ---------- ------ -- ----- -- ----- -- ---- ------<br>--- ----- --- --- ------ -------- ----- --- ------ ----- --<br>----- ----- ---------- --- --- ------ ------ ---- -- French<br>------- --- ------ ----- --- ---- ------- -- ---- --- --<br>------- ------,196442.5,196442.09999999404,196055.685,196063.69999998808,196071.827,196455.434,,42,French
screen,html.Screen,2_1_1_1_43,2022-02-15T15:56:46.622Z,,,,,,,,,,,,,,,,,54,,,,,,,,,,,,,,392.4660000059521,,response,,,,100,,,,,,,Space,keypress(Space),,,,,,,,-- --- ---- --- ------ ----- ------- ---- -- --- ------- --<br>------- ---------- ------ -- ----- -- ----- -- ---- ------<br>--- ----- --- --- ------ -------- ----- --- ------ ----- --<br>----- ----- ---------- --- --- ------ ------ ---- -- ------<br>credit. --- ------ ----- --- ---- ------- -- ---- --- --<br>------- ------,196848.30000001192,196847.90000000596,196438.8,196442.5,196455.434,196855.346,,43,credit.
screen,html.Screen,2_1_1_1_44,2022-02-15T15:56:47.054Z,,,,,,,,,,,,,,,,,54,,,,,,,,,,,,,,424.8539999880886,,response,,,,100,,,,,,,Space,keypress(Space),,,,,,,,-- --- ---- --- ------ ----- ------- ---- -- --- ------- --<br>------- ---------- ------ -- ----- -- ----- -- ---- ------<br>--- ----- --- --- ------ -------- ----- --- ------ ----- --<br>----- ----- ---------- --- --- ------ ------ ---- -- ------<br>------- The ------ ----- --- ---- ------- -- ---- --- --<br>------- ------,197280.80000001192,197280.19999998808,196838.69,196848.40000000596,196855.346,197287.983,,44,The
screen,html.Screen,2_1_1_1_45,2022-02-15T15:56:47.434Z,,,,,,,,,,,,,,,,,54,,,,,,,,,,,,,,372.2169999880716,,response,,,,100,,,,,,,Space,keypress(Space),,,,,,,,-- --- ---- --- ------ ----- ------- ---- -- --- ------- --<br>------- ---------- ------ -- ----- -- ----- -- ---- ------<br>--- ----- --- --- ------ -------- ----- --- ------ ----- --<br>----- ----- ---------- --- --- ------ ------ ---- -- ------<br>------- --- French ----- --- ---- ------- -- ---- --- --<br>------- ------,197660.59999999404,197660.19999998808,197271.383,197280.90000000596,197287.983,197671.54,,45,French
screen,html.Screen,2_1_1_1_46,2022-02-15T15:56:47.742Z,,,,,,,,,,,,,,,,,54,,,,,,,,,,,,,,297.1599999880709,,response,,,,100,,,,,,,Space,keypress(Space),,,,,,,,-- --- ---- --- ------ ----- ------- ---- -- --- ------- --<br>------- ---------- ------ -- ----- -- ----- -- ---- ------<br>--- ----- --- --- ------ -------- ----- --- ------ ----- --<br>----- ----- ---------- --- --- ------ ------ ---- -- ------<br>------- --- ------ state --- ---- ------- -- ---- --- --<br>------- ------,197969.19999998808,197968.69999998808,197654.743,197660.69999998808,197671.54,197970.954,,46,state
screen,html.Screen,2_1_1_1_47,2022-02-15T15:56:48.079Z,,,,,,,,,,,,,,,,,54,,,,,,,,,,,,,,334.74599998808117,,response,,,,100,,,,,,,Space,keypress(Space),,,,,,,,-- --- ---- --- ------ ----- ------- ---- -- --- ------- --<br>------- ---------- ------ -- ----- -- ----- -- ---- ------<br>--- ----- --- --- ------ -------- ----- --- ------ ----- --<br>----- ----- ---------- --- --- ------ ------ ---- -- ------<br>------- --- ------ ----- was ---- ------- -- ---- --- --<br>------- ------,198306.09999999404,198305.69999998808,197954.405,197969.19999998808,197970.954,198320.806,,47,was
screen,html.Screen,2_1_1_1_48,2022-02-15T15:56:48.487Z,,,,,,,,,,,,,,,,,54,,,,,,,,,,,,,,392.39399998806766,,response,,,,100,,,,,,,Space,keypress(Space),,,,,,,,-- --- ---- --- ------ ----- ------- ---- -- --- ------- --<br>------- ---------- ------ -- ----- -- ----- -- ---- ------<br>--- ----- --- --- ------ -------- ----- --- ------ ----- --<br>----- ----- ---------- --- --- ------ ------ ---- -- ------<br>------- --- ------ ----- --- left ------- -- ---- --- --<br>------- ------,198713.69999998808,198713.19999998808,198304.248,198306.19999998808,198320.806,198721.154,,48,left
screen,html.Screen,2_1_1_1_49,2022-02-15T15:56:48.809Z,,,,,,,,,,,,,,,,,54,,,,,,,,,,,,,,313.5459999880695,,response,,,,100,,,,,,,Space,keypress(Space),,,,,,,,-- --- ---- --- ------ ----- ------- ---- -- --- ------- --<br>------- ---------- ------ -- ----- -- ----- -- ---- ------<br>--- ----- --- --- ------ -------- ----- --- ------ ----- --<br>----- ----- ---------- --- --- ------ ------ ---- -- ------<br>------- --- ------ ----- --- ---- without -- ---- --- --<br>------- ------,199035.30000001192,199034.69999998808,198704.067,198713.69999998808,198721.154,199037.134,,49,without
screen,html.Screen,2_1_1_1_50,2022-02-15T15:56:49.171Z,,,,,,,,,,,,,,,,,54,,,,,,,,,,,,,,359.9659999940486,,response,,,,100,,,,,,,Space,keypress(Space),,,,,,,,-- --- ---- --- ------ ----- ------- ---- -- --- ------- --<br>------- ---------- ------ -- ----- -- ----- -- ---- ------<br>--- ----- --- --- ------ -------- ----- --- ------ ----- --<br>----- ----- ---------- --- --- ------ ------ ---- -- ------<br>------- --- ------ ----- --- ---- ------- an ---- --- --<br>------- ------,199397.59999999404,199397.09999999404,199020.529,199035.40000000596,199037.134,199403.907,,50,an
screen,html.Screen,2_1_1_1_51,2022-02-15T15:56:49.605Z,,,,,,,,,,,,,,,,,54,,,,,,,,,,,,,,426.99300000595395,,response,,,,100,,,,,,,Space,keypress(Space),,,,,,,,-- --- ---- --- ------ ----- ------- ---- -- --- ------- --<br>------- ---------- ------ -- ----- -- ----- -- ---- ------<br>--- ----- --- --- ------ -------- ----- --- ------ ----- --<br>----- ----- ---------- --- --- ------ ------ ---- -- ------<br>------- --- ------ ----- --- ---- ------- -- easy --- --<br>------- ------,199831.40000000596,199830.90000000596,199387.131,199397.69999998808,199403.907,199837.091,,51,easy
screen,html.Screen,2_1_1_1_52,2022-02-15T15:56:49.988Z,,,,,,,,,,,,,,,,,54,,,,,,,,,,,,,,376.9090000000142,,response,,,,100,,,,,,,Space,keypress(Space),,,,,,,,-- --- ---- --- ------ ----- ------- ---- -- --- ------- --<br>------- ---------- ------ -- ----- -- ----- -- ---- ------<br>--- ----- --- --- ------ -------- ----- --- ------ ----- --<br>----- ----- ---------- --- --- ------ ------ ---- -- ------<br>------- --- ------ ----- --- ---- ------- -- ---- way --<br>------- ------,200214.40000000596,200214,199820.644,199831.5,199837.091,200220.098,,52,way
screen,html.Screen,2_1_1_1_53,2022-02-15T15:56:50.361Z,,,,,,,,,,,,,,,,,54,,,,,,,,,,,,,,367.3020000059623,,response,,,,100,,,,,,,Space,keypress(Space),,,,,,,,-- --- ---- --- ------ ----- ------- ---- -- --- ------- --<br>------- ---------- ------ -- ----- -- ----- -- ---- ------<br>--- ----- --- --- ------ -------- ----- --- ------ ----- --<br>----- ----- ---------- --- --- ------ ------ ---- -- ------<br>------- --- ------ ----- --- ---- ------- -- ---- --- of<br>------- ------,200587.90000000596,200587.40000000596,200203.92,200214.5,200220.098,200603.101,,53,of
screen,html.Screen,2_1_1_1_54,2022-02-15T15:56:50.701Z,,,,,,,,,,,,,,,,,54,,,,,,,,,,,,,,323.79900000596535,,response,,,,100,,,,,,,Space,keypress(Space),,,,,,,,-- --- ---- --- ------ ----- ------- ---- -- --- ------- --<br>------- ---------- ------ -- ----- -- ----- -- ---- ------<br>--- ----- --- --- ------ -------- ----- --- ------ ----- --<br>----- ----- ---------- --- --- ------ ------ ---- -- ------<br>------- --- ------ ----- --- ---- ------- -- ---- --- --<br>raising ------,200927.40000000596,200926.90000000596,200586.661,200588,200603.101,200936.834,,54,raising
screen,html.Screen,2_1_1_1_55,2022-02-15T15:56:51.360Z,,,,,,,,,,,,,,,,,54,,,,,,,,,,,,,,649.3659999880765,,response,,,,100,,,,,,,Space,keypress(Space),,,,,,,,-- --- ---- --- ------ ----- ------- ---- -- --- ------- --<br>------- ---------- ------ -- ----- -- ----- -- ---- ------<br>--- ----- --- --- ------ -------- ----- --- ------ ----- --<br>----- ----- ---------- --- --- ------ ------ ---- -- ------<br>------- --- ------ ----- --- ---- ------- -- ---- --- --<br>------- money.,201586.80000001192,201586.19999998808,200920.121,200927.5,200936.834,201603.031,,55,money.
Item 100,flow.Loop,2_1_1_1,2022-02-15T15:56:51.360Z,,,,,,,,,,,,,,,,,,,,,,,,,,,,,,,25221.61299998808,,completion,,,,,A,,,,,,,,,,,silence,,,,,201586.90000000596,201586.19999998808,176347.442,176347.90000000596,176364.587,201603.031,,,
Question 1,html.Screen,2_1_1_2,2022-02-15T15:56:53.655Z,,,,,,,,,,,,,,,,,,,,,,,,,,,,true,TRUE,,2277.769000011933,,response,,,,100,A,,,,,,TRUE,click #choice-1,,,,silence,,,,,203881.5,203880.80000001192,201585.996,201587,201603.031,203884.922,,,
Question 2,html.Screen,2_1_1_3,2022-02-15T15:56:56.424Z,,,,,,,,,,,,,,,,,,,,,,,,,,,,false,FALSE,,2765.3780000119295,,response,,,,100,A,,,,,,TRUE,click #choice-1,,,,silence,,,,,206651.19999998808,206650.30000001192,203868.62,203881.59999999404,203884.922,206667.149,,,
Item 100,flow.Sequence,2_1_1,2022-02-15T15:56:56.425Z,,,,,,,,,,,,,,,,,,,,,,,,,,,,,,,40281.70200001192,,completion,,,,,,,,,,,,,,,,,,,,,206651.30000001192,206650.30000001192,166352.094,166356.09999999404,166368.598,206667.149,,,
End of Practice,html.Page,2_1_2,2022-02-15T15:57:00.428Z,,,,,,,,,,,,,,,,,,,,,,,,,,,,,,,3987.651000011916,,form submission,,,,,,,,,,,,,,,,,,,,,210655.09999999404,210654.80000001192,206650.796,206651.30000001192,206667.149,210665.694,,,
Practice,flow.Sequence,2_1,2022-02-15T15:57:00.428Z,,,,,,,,,,,,,,,,,,,,,,,,,,,,,,,88382.92200001192,,completion,,,,,,,,,,,,,,,,,,,,,210655.19999998808,210654.80000001192,122255.233,122265.19999998808,122271.878,210665.694,,,
Trap_instruction,html.Page,2_2_0,2022-02-15T15:57:04.415Z,,,,,,,,,,,,,,,,,,,,,,,,,,,,,,,3975.706000005972,,form submission,,,,,,,,,,,,,,,,,,,,,214641.59999999404,214641.40000000596,210648.966,210655.19999998808,210665.694,214663.344,,,
trap_trial,html.Screen,2_2_1,2022-02-15T15:57:07.568Z,,,,,,,,,,,,,,,,,,,,,,,,,,,,true,1,,3130.5560000059486,,response,,,,,,,,,,,1,click #choice-1,,,,,,,,,217794.69999998808,217793.90000000596,214630.137,214641.59999999404,214663.344,217822.916,,,
end of trap trial,html.Page,2_2_2,2022-02-15T15:57:09.181Z,,,,,,,,,,,,,,,,,,,,,,,,,,,,,,,1584.7839999880816,,form submission,,,,,,,,,,,,,,,,,,,,,219407.90000000596,219407.69999998808,217778.883,217794.80000001192,217822.916,219411.366,,,
Trap 1,flow.Sequence,2_2,2022-02-15T15:57:09.181Z,,,,,,,,,,,,,,,,,,,,,,,,,,,,,,,8742.00599998809,,completion,,,,,,,,,,,,,,,,,,,,,219407.90000000596,219407.69999998808,210648.966,210655.19999998808,210665.694,219411.366,,,
Standby,html.Page,2_3_0,2022-02-15T15:57:17.167Z,,,,,,,,,,,,,,,,,,,,,,,,,,,,,,,7996.481,,timeout,,,,,,,,,,,,,,,,,,,,,227393.69999998808,227391.446,219394.686,219408.09999999404,219411.366,227407.847,,,
Holding screen,html.Screen,2_3_1_0_0,2022-02-15T15:57:24.162Z,,,,,,,,,,,,,,,,,,,,,,,,,,,,,,,6996.902999999991,,timeout,,,,,,,,,,,,,,,,,,,,,234388.30000001192,234387.892,227391.446,227393.90000000596,227407.847,234404.75,,,
screen,html.Screen,2_3_1_0_1_0,2022-02-15T15:57:24.953Z,,,,,,,,,,,,,,,,,51,,,,,,,,,,,,,,774.0500000119209,,response,,,,13,A,,,,,,Space,keypress(Space),,,,silence,,,,American -------- --- --- ---- --- --- ------ -- --------<br>---- --------- --- ------- ------------ ---------- ---------<br>--- ---------- ------- ---------- ------- -- -------- ----<br>---- --- ------ ----- ------ -- ---- --- ----- -- - -------<br>-------- -- --- --- -- ----- ----------- ----- -----------<br>---- --- ---------- --- ---- --- -- ----------,235179.40000000596,235178.80000001192,234387.892,234388.69999998808,234404.75,235188,,0,American
screen,html.Screen,2_3_1_0_1_1,2022-02-15T15:57:25.392Z,,,,,,,,,,,,,,,,,51,,,,,,,,,,,,,,430.69999998807907,,response,,,,13,A,,,,,,Space,keypress(Space),,,,silence,,,,-------- industry --- --- ---- --- --- ------ -- --------<br>---- --------- --- ------- ------------ ---------- ---------<br>--- ---------- ------- ---------- ------- -- -------- ----<br>---- --- ------ ----- ------ -- ---- --- ----- -- - -------<br>-------- -- --- --- -- ----- ----------- ----- -----------<br>---- --- ---------- --- ---- --- -- ----------,235619.09999999404,235618.69999998808,235170.791,235179.5,235188,235647.057,,1,industry
screen,html.Screen,2_3_1_0_1_2,2022-02-15T15:57:25.870Z,,,,,,,,,,,,,,,,,51,,,,,,,,,,,,,,449.04299999403884,,response,,,,13,A,,,,,,Space,keypress(Space),,,,silence,,,,-------- -------- may --- ---- --- --- ------ -- --------<br>---- --------- --- ------- ------------ ---------- ---------<br>--- ---------- ------- ---------- ------- -- -------- ----<br>---- --- ------ ----- ------ -- ---- --- ----- -- - -------<br>-------- -- --- --- -- ----- ----------- ----- -----------<br>---- --- ---------- --- ---- --- -- ----------,236096.59999999404,236096.09999999404,235603.911,235619.30000001192,235647.057,236103.782,,2,may
screen,html.Screen,2_3_1_0_1_3,2022-02-15T15:57:26.259Z,,,,,,,,,,,,,,,,,51,,,,,,,,,,,,,,381.5180000119144,,response,,,,13,A,,,,,,Space,keypress(Space),,,,silence,,,,-------- -------- --- not ---- --- --- ------ -- --------<br>---- --------- --- ------- ------------ ---------- ---------<br>--- ---------- ------- ---------- ------- -- -------- ----<br>---- --- ------ ----- ------ -- ---- --- ----- -- - -------<br>-------- -- --- --- -- ----- ----------- ----- -----------<br>---- --- ---------- --- ---- --- -- ----------,236485.80000001192,236485.30000001192,236087.174,236096.59999999404,236103.782,236518.911,,3,not
screen,html.Screen,2_3_1_0_1_4,2022-02-15T15:57:26.683Z,,,,,,,,,,,,,,,,,51,,,,,,,,,,,,,,389.9890000059677,,response,,,,13,A,,,,,,Space,keypress(Space),,,,silence,,,,-------- -------- --- --- know --- --- ------ -- --------<br>---- --------- --- ------- ------------ ---------- ---------<br>--- ---------- ------- ---------- ------- -- -------- ----<br>---- --- ------ ----- ------ -- ---- --- ----- -- - -------<br>-------- -- --- --- -- ----- ----------- ----- -----------<br>---- --- ---------- --- ---- --- -- ----------,236909.30000001192,236908.90000000596,236470.315,236485.90000000596,236518.911,236919.973,,4,know
screen,html.Screen,2_3_1_0_1_5,2022-02-15T15:57:27.048Z,,,,,,,,,,,,,,,,,51,,,,,,,,,,,,,,354.3270000119228,,response,,,,13,A,,,,,,Space,keypress(Space),,,,silence,,,,"-------- -------- --- --- ---- it, --- ------ -- --------<br>---- --------- --- ------- ------------ ---------- ---------<br>--- ---------- ------- ---------- ------- -- -------- ----<br>---- --- ------ ----- ------ -- ---- --- ----- -- - -------<br>-------- -- --- --- -- ----- ----------- ----- -----------<br>---- --- ---------- --- ---- --- -- ----------",237274.59999999404,237274.30000001192,236903.292,236909.5,236919.973,237286.451,,5,"it,"
screen,html.Screen,2_3_1_0_1_6,2022-02-15T15:57:27.504Z,,,,,,,,,,,,,,,,,51,,,,,,,,,,,,,,444.04899999999907,,response,,,,13,A,,,,,,Space,keypress(Space),,,,silence,,,,-------- -------- --- --- ---- --- but ------ -- --------<br>---- --------- --- ------- ------------ ---------- ---------<br>--- ---------- ------- ---------- ------- -- -------- ----<br>---- --- ------ ----- ------ -- ---- --- ----- -- - -------<br>-------- -- --- --- -- ----- ----------- ----- -----------<br>---- --- ---------- --- ---- --- -- ----------,237730.90000000596,237730.5,237269.953,237274.69999998808,237286.451,237736.771,,6,but
screen,html.Screen,2_3_1_0_1_7,2022-02-15T15:57:28.053Z,,,,,,,,,,,,,,,,,51,,,,,,,,,,,,,,542.8289999940316,,response,,,,13,A,,,,,,Space,keypress(Space),,,,silence,,,,-------- -------- --- --- ---- --- --- debate -- --------<br>---- --------- --- ------- ------------ ---------- ---------<br>--- ---------- ------- ---------- ------- -- -------- ----<br>---- --- ------ ----- ------ -- ---- --- ----- -- - -------<br>-------- -- --- --- -- ----- ----------- ----- -----------<br>---- --- ---------- --- ---- --- -- ----------,238280,238279.59999999404,237720.114,237731.09999999404,237736.771,238286.478,,7,debate
screen,html.Screen,2_3_1_0_1_8,2022-02-15T15:57:28.412Z,,,,,,,,,,,,,,,,,51,,,,,,,,,,,,,,351.82200001191813,,response,,,,13,A,,,,,,Space,keypress(Space),,,,silence,,,,-------- -------- --- --- ---- --- --- ------ in --------<br>---- --------- --- ------- ------------ ---------- ---------<br>--- ---------- ------- ---------- ------- -- -------- ----<br>---- --- ------ ----- ------ -- ---- --- ----- -- - -------<br>-------- -- --- --- -- ----- ----------- ----- -----------<br>---- --- ---------- --- ---- --- -- ----------,238638.69999998808,238638.30000001192,238269.768,238280.09999999404,238286.478,238652.725,,8,in
screen,html.Screen,2_3_1_0_1_9,2022-02-15T15:57:28.819Z,,,,,,,,,,,,,,,,,51,,,,,,,,,,,,,,392.2749999999942,,response,,,,13,A,,,,,,Space,keypress(Space),,,,silence,,,,-------- -------- --- --- ---- --- --- ------ -- Congress<br>---- --------- --- ------- ------------ ---------- ---------<br>--- ---------- ------- ---------- ------- -- -------- ----<br>---- --- ------ ----- ------ -- ---- --- ----- -- - -------<br>-------- -- --- --- -- ----- ----------- ----- -----------<br>---- --- ---------- --- ---- --- -- ----------,239045.5,239045,238636.093,238638.80000001192,238652.725,239052.877,,9,Congress
screen,html.Screen,2_3_1_0_1_10,2022-02-15T15:57:29.174Z,,,,,,,,,,,,,,,,,51,,,,,,,,,,,,,,347.5230000059528,,response,,,,13,A,,,,,,Space,keypress(Space),,,,silence,,,,-------- -------- --- --- ---- --- --- ------ -- --------<br>over --------- --- ------- ------------ ---------- ---------<br>--- ---------- ------- ---------- ------- -- -------- ----<br>---- --- ------ ----- ------ -- ---- --- ----- -- - -------<br>-------- -- --- --- -- ----- ----------- ----- -----------<br>---- --- ---------- --- ---- --- -- ----------,239400.80000001192,239400.40000000596,239036.255,239045.5,239052.877,239421.823,,10,over
screen,html.Screen,2_3_1_0_1_11,2022-02-15T15:57:29.562Z,,,,,,,,,,,,,,,,,51,,,,,,,,,,,,,,366.3769999880751,,response,,,,13,A,,,,,,Space,keypress(Space),,,,silence,,,,-------- -------- --- --- ---- --- --- ------ -- --------<br>---- reforming --- ------- ------------ ---------- ---------<br>--- ---------- ------- ---------- ------- -- -------- ----<br>---- --- ------ ----- ------ -- ---- --- ----- -- - -------<br>-------- -- --- --- -- ----- ----------- ----- -----------<br>---- --- ---------- --- ---- --- -- ----------,239788.59999999404,239788.19999998808,239385.527,239401,239421.823,239802.203,,11,reforming
screen,html.Screen,2_3_1_0_1_12,2022-02-15T15:57:29.944Z,,,,,,,,,,,,,,,,,51,,,,,,,,,,,,,,367.3969999940309,,response,,,,13,A,,,,,,Space,keypress(Space),,,,silence,,,,-------- -------- --- --- ---- --- --- ------ -- --------<br>---- --------- the ------- ------------ ---------- ---------<br>--- ---------- ------- ---------- ------- -- -------- ----<br>---- --- ------ ----- ------ -- ---- --- ----- -- - -------<br>-------- -- --- --- -- ----- ----------- ----- -----------<br>---- --- ---------- --- ---- --- -- ----------,240170,240169.59999999404,239785.414,239788.69999998808,239802.203,240185.242,,12,the
screen,html.Screen,2_3_1_0_1_13,2022-02-15T15:57:30.341Z,,,,,,,,,,,,,,,,,51,,,,,,,,,,,,,,381.55800001192256,,response,,,,13,A,,,,,,Space,keypress(Space),,,,silence,,,,-------- -------- --- --- ---- --- --- ------ -- --------<br>---- --------- --- federal ------------ ---------- ---------<br>--- ---------- ------- ---------- ------- -- -------- ----<br>---- --- ------ ----- ------ -- ---- --- ----- -- - -------<br>-------- -- --- --- -- ----- ----------- ----- -----------<br>---- --- ---------- --- ---- --- -- ----------,240567.30000001192,240566.80000001192,240168.846,240170.09999999404,240185.242,240590.647,,13,federal
screen,html.Screen,2_3_1_0_1_14,2022-02-15T15:57:30.744Z,,,,,,,,,,,,,,,,,51,,,,,,,,,,,,,,378.75300000596326,,response,,,,13,A,,,,,,Space,keypress(Space),,,,silence,,,,-------- -------- --- --- ---- --- --- ------ -- --------<br>---- --------- --- ------- government's ---------- ---------<br>--- ---------- ------- ---------- ------- -- -------- ----<br>---- --- ------ ----- ------ -- ---- --- ----- -- - -------<br>-------- -- --- --- -- ----- ----------- ----- -----------<br>---- --- ---------- --- ---- --- -- ----------,240969.80000001192,240969.40000000596,240552.164,240567.40000000596,240590.647,240985.152,,14,government's
screen,html.Screen,2_3_1_0_1_15,2022-02-15T15:57:31.189Z,,,,,,,,,,,,,,,,,51,,,,,,,,,,,,,,429.2480000059586,,response,,,,13,A,,,,,,Space,keypress(Space),,,,silence,,,,-------- -------- --- --- ---- --- --- ------ -- --------<br>---- --------- --- ------- ------------ regulatory ---------<br>--- ---------- ------- ---------- ------- -- -------- ----<br>---- --- ------ ----- ------ -- ---- --- ----- -- - -------<br>-------- -- --- --- -- ----- ----------- ----- -----------<br>---- --- ---------- --- ---- --- -- ----------,241414.80000001192,241414.40000000596,240968.137,240969.90000000596,240985.152,241417.97,,15,regulatory
screen,html.Screen,2_3_1_0_1_16,2022-02-15T15:57:31.618Z,,,,,,,,,,,,,,,,,51,,,,,,,,,,,,,,425.62999999403837,,response,,,,13,A,,,,,,Space,keypress(Space),,,,silence,,,,-------- -------- --- --- ---- --- --- ------ -- --------<br>---- --------- --- ------- ------------ ---------- apparatus<br>--- ---------- ------- ---------- ------- -- -------- ----<br>---- --- ------ ----- ------ -- ---- --- ----- -- - -------<br>-------- -- --- --- -- ----- ----------- ----- -----------<br>---- --- ---------- --- ---- --- -- ----------,241844.19999998808,241843.59999999404,241401.299,241415,241417.97,241851.243,,16,apparatus
screen,html.Screen,2_3_1_0_1_17,2022-02-15T15:57:31.964Z,,,,,,,,,,,,,,,,,51,,,,,,,,,,,,,,337.9569999880914,,response,,,,13,A,,,,,,Space,keypress(Space),,,,silence,,,,-------- -------- --- --- ---- --- --- ------ -- --------<br>---- --------- --- ------- ------------ ---------- ---------<br>may ---------- ------- ---------- ------- -- -------- ----<br>---- --- ------ ----- ------ -- ---- --- ----- -- - -------<br>-------- -- --- --- -- ----- ----------- ----- -----------<br>---- --- ---------- --- ---- --- -- ----------,242189.69999998808,242189.19999998808,241834.478,241844.19999998808,241851.243,242201.405,,17,may
screen,html.Screen,2_3_1_0_1_18,2022-02-15T15:57:32.378Z,,,,,,,,,,,,,,,,,51,,,,,,,,,,,,,,402.29499998808024,,response,,,,13,A,,,,,,Space,keypress(Space),,,,silence,,,,-------- -------- --- --- ---- --- --- ------ -- --------<br>---- --------- --- ------- ------------ ---------- ---------<br>--- profoundly ------- ---------- ------- -- -------- ----<br>---- --- ------ ----- ------ -- ---- --- ----- -- - -------<br>-------- -- --- --- -- ----- ----------- ----- -----------<br>---- --- ---------- --- ---- --- -- ----------,242604.19999998808,242603.69999998808,242184.585,242189.80000001192,242201.405,242617.455,,18,profoundly
screen,html.Screen,2_3_1_0_1_19,2022-02-15T15:57:32.763Z,,,,,,,,,,,,,,,,,51,,,,,,,,,,,,,,371.14499999405234,,response,,,,13,A,,,,,,Space,keypress(Space),,,,silence,,,,-------- -------- --- --- ---- --- --- ------ -- --------<br>---- --------- --- ------- ------------ ---------- ---------<br>--- ---------- improve ---------- ------- -- -------- ----<br>---- --- ------ ----- ------ -- ---- --- ----- -- - -------<br>-------- -- --- --- -- ----- ----------- ----- -----------<br>---- --- ---------- --- ---- --- -- ----------,242989.30000001192,242988.59999999404,242601.328,242604.30000001192,242617.455,243001.164,,19,improve
screen,html.Screen,2_3_1_0_1_20,2022-02-15T15:57:33.173Z,,,,,,,,,,,,,,,,,51,,,,,,,,,,,,,,397.7360000059707,,response,,,,13,A,,,,,,Space,keypress(Space),,,,silence,,,,-------- -------- --- --- ---- --- --- ------ -- --------<br>---- --------- --- ------- ------------ ---------- ---------<br>--- ---------- ------- companies' ------- -- -------- ----<br>---- --- ------ ----- ------ -- ---- --- ----- -- - -------<br>-------- -- --- --- -- ----- ----------- ----- -----------<br>---- --- ---------- --- ---- --- -- ----------,243399.40000000596,243398.90000000596,242984.21,242989.5,243001.164,243417.502,,20,companies'
screen,html.Screen,2_3_1_0_1_21,2022-02-15T15:57:33.643Z,,,,,,,,,,,,,,,,,51,,,,,,,,,,,,,,450.79800001191325,,response,,,,13,A,,,,,,Space,keypress(Space),,,,silence,,,,-------- -------- --- --- ---- --- --- ------ -- --------<br>---- --------- --- ------- ------------ ---------- ---------<br>--- ---------- ------- ---------- ability -- -------- ----<br>---- --- ------ ----- ------ -- ---- --- ----- -- - -------<br>-------- -- --- --- -- ----- ----------- ----- -----------<br>---- --- ---------- --- ---- --- -- ----------,243868.80000001192,243868.30000001192,243383.725,243399.5,243417.502,243883.772,,21,ability
screen,html.Screen,2_3_1_0_1_22,2022-02-15T15:57:34.044Z,,,,,,,,,,,,,,,,,51,,,,,,,,,,,,,,385.92799998808187,,response,,,,13,A,,,,,,Space,keypress(Space),,,,silence,,,,-------- -------- --- --- ---- --- --- ------ -- --------<br>---- --------- --- ------- ------------ ---------- ---------<br>--- ---------- ------- ---------- ------- to -------- ----<br>---- --- ------ ----- ------ -- ---- --- ----- -- - -------<br>-------- -- --- --- -- ----- ----------- ----- -----------<br>---- --- ---------- --- ---- --- -- ----------,244270.19999998808,244269.69999998808,243867.026,243868.80000001192,243883.772,244283.482,,22,to
screen,html.Screen,2_3_1_0_1_23,2022-02-15T15:57:34.406Z,,,,,,,,,,,,,,,,,51,,,,,,,,,,,,,,348.4180000059714,,response,,,,13,A,,,,,,Space,keypress(Space),,,,silence,,,,-------- -------- --- --- ---- --- --- ------ -- --------<br>---- --------- --- ------- ------------ ---------- ---------<br>--- ---------- ------- ---------- ------- -- survive. ----<br>---- --- ------ ----- ------ -- ---- --- ----- -- - -------<br>-------- -- --- --- -- ----- ----------- ----- -----------<br>---- --- ---------- --- ---- --- -- ----------,244632.40000000596,244631.90000000596,244267.197,244270.19999998808,244283.482,244653.085,,23,survive.
screen,html.Screen,2_3_1_0_1_24,2022-02-15T15:57:35.008Z,,,,,,,,,,,,,,,,,51,,,,,,,,,,,,,,580.5149999940477,,response,,,,13,A,,,,,,Space,keypress(Space),,,,silence,,,,-------- -------- --- --- ---- --- --- ------ -- --------<br>---- --------- --- ------- ------------ ---------- ---------<br>--- ---------- ------- ---------- ------- -- -------- This<br>---- --- ------ ----- ------ -- ---- --- ----- -- - -------<br>-------- -- --- --- -- ----- ----------- ----- -----------<br>---- --- ---------- --- ---- --- -- ----------,245234.09999999404,245233.59999999404,244616.998,244632.5,244653.085,245250.009,,24,This
screen,html.Screen,2_3_1_0_1_25,2022-02-15T15:57:35.381Z,,,,,,,,,,,,,,,,,51,,,,,,,,,,,,,,356.39100000596954,,response,,,,13,A,,,,,,Space,keypress(Space),,,,silence,,,,-------- -------- --- --- ---- --- --- ------ -- --------<br>---- --------- --- ------- ------------ ---------- ---------<br>--- ---------- ------- ---------- ------- -- -------- ----<br>week --- ------ ----- ------ -- ---- --- ----- -- - -------<br>-------- -- --- --- -- ----- ----------- ----- -----------<br>---- --- ---------- --- ---- --- -- ----------,245606.90000000596,245606.40000000596,245233.334,245234.19999998808,245250.009,245616.008,,25,week
screen,html.Screen,2_3_1_0_1_26,2022-02-15T15:57:35.785Z,,,,,,,,,,,,,,,,,51,,,,,,,,,,,,,,395.19199998807744,,response,,,,13,A,,,,,,Space,keypress(Space),,,,silence,,,,-------- -------- --- --- ---- --- --- ------ -- --------<br>---- --------- --- ------- ------------ ---------- ---------<br>--- ---------- ------- ---------- ------- -- -------- ----<br>---- the ------ ----- ------ -- ---- --- ----- -- - -------<br>-------- -- --- --- -- ----- ----------- ----- -----------<br>---- --- ---------- --- ---- --- -- ----------,246011.69999998808,246011.19999998808,245599.462,245606.90000000596,245616.008,246016.059,,26,the
screen,html.Screen,2_3_1_0_1_27,2022-02-15T15:57:36.136Z,,,,,,,,,,,,,,,,,51,,,,,,,,,,,,,,345.74100001191255,,response,,,,13,A,,,,,,Space,keypress(Space),,,,silence,,,,-------- -------- --- --- ---- --- --- ------ -- --------<br>---- --------- --- ------- ------------ ---------- ---------<br>--- ---------- ------- ---------- ------- -- -------- ----<br>---- --- Senate ----- ------ -- ---- --- ----- -- - -------<br>-------- -- --- --- -- ----- ----------- ----- -----------<br>---- --- ---------- --- ---- --- -- ----------,246362.30000001192,246361.80000001192,245999.429,246011.69999998808,246016.059,246365.84,,27,Senate
screen,html.Screen,2_3_1_0_1_28,2022-02-15T15:57:36.560Z,,,,,,,,,,,,,,,,,51,,,,,,,,,,,,,,420.259999994043,,response,,,,13,A,,,,,,Space,keypress(Space),,,,silence,,,,-------- -------- --- --- ---- --- --- ------ -- --------<br>---- --------- --- ------- ------------ ---------- ---------<br>--- ---------- ------- ---------- ------- -- -------- ----<br>---- --- ------ seems ------ -- ---- --- ----- -- - -------<br>-------- -- --- --- -- ----- ----------- ----- -----------<br>---- --- ---------- --- ---- --- -- ----------,246786.5,246786.09999999404,246349.496,246362.30000001192,246365.84,246799.175,,28,seems
screen,html.Screen,2_3_1_0_1_29,2022-02-15T15:57:36.964Z,,,,,,,,,,,,,,,,,51,,,,,,,,,,,,,,390.4249999940512,,response,,,,13,A,,,,,,Space,keypress(Space),,,,silence,,,,-------- -------- --- --- ---- --- --- ------ -- --------<br>---- --------- --- ------- ------------ ---------- ---------<br>--- ---------- ------- ---------- ------- -- -------- ----<br>---- --- ------ ----- poised -- ---- --- ----- -- - -------<br>-------- -- --- --- -- ----- ----------- ----- -----------<br>---- --- ---------- --- ---- --- -- ----------,247190.09999999404,247189.59999999404,246782.64,246786.59999999404,246799.175,247199.025,,29,poised
screen,html.Screen,2_3_1_0_1_30,2022-02-15T15:57:37.338Z,,,,,,,,,,,,,,,,,51,,,,,,,,,,,,,,365.07499999404536,,response,,,,13,A,,,,,,Space,keypress(Space),,,,silence,,,,-------- -------- --- --- ---- --- --- ------ -- --------<br>---- --------- --- ------- ------------ ---------- ---------<br>--- ---------- ------- ---------- ------- -- -------- ----<br>---- --- ------ ----- ------ to ---- --- ----- -- - -------<br>-------- -- --- --- -- ----- ----------- ----- -----------<br>---- --- ---------- --- ---- --- -- ----------,247564.5,247564.09999999404,247182.475,247190.19999998808,247199.025,247593.425,,30,to
screen,html.Screen,2_3_1_0_1_31,2022-02-15T15:57:37.728Z,,,,,,,,,,,,,,,,,51,,,,,,,,,,,,,,360.6749999940512,,response,,,,13,A,,,,,,Space,keypress(Space),,,,silence,,,,-------- -------- --- --- ---- --- --- ------ -- --------<br>---- --------- --- ------- ------------ ---------- ---------<br>--- ---------- ------- ---------- ------- -- -------- ----<br>---- --- ------ ----- ------ -- join --- ----- -- - -------<br>-------- -- --- --- -- ----- ----------- ----- -----------<br>---- --- ---------- --- ---- --- -- ----------,247954.59999999404,247954.09999999404,247548.829,247564.69999998808,247593.425,247964.982,,31,join
screen,html.Screen,2_3_1_0_1_32,2022-02-15T15:57:38.100Z,,,,,,,,,,,,,,,,,51,,,,,,,,,,,,,,360.71799998809,,response,,,,13,A,,,,,,Space,keypress(Space),,,,silence,,,,-------- -------- --- --- ---- --- --- ------ -- --------<br>---- --------- --- ------- ------------ ---------- ---------<br>--- ---------- ------- ---------- ------- -- -------- ----<br>---- --- ------ ----- ------ -- ---- the ----- -- - -------<br>-------- -- --- --- -- ----- ----------- ----- -----------<br>---- --- ---------- --- ---- --- -- ----------,248326.19999998808,248325.69999998808,247948.301,247954.59999999404,247964.982,248331.927,,32,the
screen,html.Screen,2_3_1_0_1_33,2022-02-15T15:57:38.582Z,,,,,,,,,,,,,,,,,51,,,,,,,,,,,,,,475.57300000000396,,response,,,,13,A,,,,,,Space,keypress(Space),,,,silence,,,,-------- -------- --- --- ---- --- --- ------ -- --------<br>---- --------- --- ------- ------------ ---------- ---------<br>--- ---------- ------- ---------- ------- -- -------- ----<br>---- --- ------ ----- ------ -- ---- --- House -- - -------<br>-------- -- --- --- -- ----- ----------- ----- -----------<br>---- --- ---------- --- ---- --- -- ----------,248807.90000000596,248807.5,248315.502,248326.30000001192,248331.927,248814.589,,33,House
screen,html.Screen,2_3_1_0_1_34,2022-02-15T15:57:38.913Z,,,,,,,,,,,,,,,,,51,,,,,,,,,,,,,,324.2110000119137,,response,,,,13,A,,,,,,Space,keypress(Space),,,,silence,,,,-------- -------- --- --- ---- --- --- ------ -- --------<br>---- --------- --- ------- ------------ ---------- ---------<br>--- ---------- ------- ---------- ------- -- -------- ----<br>---- --- ------ ----- ------ -- ---- --- ----- in - -------<br>-------- -- --- --- -- ----- ----------- ----- -----------<br>---- --- ---------- --- ---- --- -- ----------,249139.30000001192,249138.80000001192,248798.47,248808,248814.589,249147.984,,34,in
screen,html.Screen,2_3_1_0_1_35,2022-02-15T15:57:39.285Z,,,,,,,,,,,,,,,,,51,,,,,,,,,,,,,,362.8160000119242,,response,,,,13,A,,,,,,Space,keypress(Space),,,,silence,,,,-------- -------- --- --- ---- --- --- ------ -- --------<br>---- --------- --- ------- ------------ ---------- ---------<br>--- ---------- ------- ---------- ------- -- -------- ----<br>---- --- ------ ----- ------ -- ---- --- ----- -- a -------<br>-------- -- --- --- -- ----- ----------- ----- -----------<br>---- --- ---------- --- ---- --- -- ----------,249511.30000001192,249510.80000001192,249131.723,249139.40000000596,249147.984,249514.242,,35,a
screen,html.Screen,2_3_1_0_1_36,2022-02-15T15:57:39.674Z,,,,,,,,,,,,,,,,,51,,,,,,,,,,,,,,385.1580000059621,,response,,,,13,A,,,,,,Space,keypress(Space),,,,silence,,,,-------- -------- --- --- ---- --- --- ------ -- --------<br>---- --------- --- ------- ------------ ---------- ---------<br>--- ---------- ------- ---------- ------- -- -------- ----<br>---- --- ------ ----- ------ -- ---- --- ----- -- - massive<br>-------- -- --- --- -- ----- ----------- ----- -----------<br>---- --- ---------- --- ---- --- -- ----------,249899.80000001192,249899.40000000596,249498.212,249511.5,249514.242,249914.382,,36,massive
screen,html.Screen,2_3_1_0_1_37,2022-02-15T15:57:40.047Z,,,,,,,,,,,,,,,,,51,,,,,,,,,,,,,,358.2179999940272,,response,,,,13,A,,,,,,Space,keypress(Space),,,,silence,,,,-------- -------- --- --- ---- --- --- ------ -- --------<br>---- --------- --- ------- ------------ ---------- ---------<br>--- ---------- ------- ---------- ------- -- -------- ----<br>---- --- ------ ----- ------ -- ---- --- ----- -- - -------<br>overhaul -- --- --- -- ----- ----------- ----- -----------<br>---- --- ---------- --- ---- --- -- ----------,250273.09999999404,250272.59999999404,249897.948,249899.80000001192,249914.382,250280.602,,37,overhaul
screen,html.Screen,2_3_1_0_1_38,2022-02-15T15:57:40.420Z,,,,,,,,,,,,,,,,,51,,,,,,,,,,,,,,365.6980000119074,,response,,,,13,A,,,,,,Space,keypress(Space),,,,silence,,,,-------- -------- --- --- ---- --- --- ------ -- --------<br>---- --------- --- ------- ------------ ---------- ---------<br>--- ---------- ------- ---------- ------- -- -------- ----<br>---- --- ------ ----- ------ -- ---- --- ----- -- - -------<br>-------- of --- --- -- ----- ----------- ----- -----------<br>---- --- ---------- --- ---- --- -- ----------,250646.69999998808,250646.30000001192,250264.391,250273.19999998808,250280.602,250664.342,,38,of
