sender,sender_type,sender_id,timestamp,meta,,Blues,Classical,Country,Dance,Electronic,Folk,Gospel,Hip-Hop,Jazz,Latin,Musical/Film,New-age,Pop,Prolific_id,Provo_ID,R&B,Rap,Reggae,Religious,Rock,Soul,Swing,Traditional,age,artist_name,correct,correctResponse,distraction,duration,education,ended_on,familiarity,gender,headphone_check_performance,item,list,music_frequency,offensiveness,pleasantness,position_correct,preference,response,response_action,snippet_file,song_name,song_rating,sound,stimulus_1,stimulus_2,stimulus_3,text,time_commit,time_end,time_render,time_run,time_show,time_switch,url,word,word_ID
Prolific ID,html.Form,0,2022-02-02T13:47:32.245Z,"{""labjs_version"":""20.2.2"",""labjs_build"":{""flavor"":""production"",""commit"":""a25486e0c714a0ae2ce03ff94b7bb6896854dcfa""},""location"":""https://run.pavlovia.org/mvasilev/prolific2_music_b/"",""userAgent"":""Mozilla/5.0 (Macintosh; Intel Mac OS X 10_15_7) AppleWebKit/605.1.15 (KHTML, like Gecko) Version/14.1.2 Safari/605.1.15"",""platform"":""MacIntel"",""language"":""en-gb"",""locale"":""en-GB"",""timeZone"":""Europe/London"",""timezoneOffset"":0,""screen_width"":1440,""screen_height"":900,""scroll_width"":1324,""scroll_height"":664,""window_innerWidth"":1324,""window_innerHeight"":712,""devicePixelRatio"":2}",,,,,,,,,,,,,,,61572bb9898b17bfd12fec8a,,,,,,,,,,,,,,,9735,,form submission,,,,,,,,,,,,,,,,,,,,,14434.000000000002,14433,4680,4656,4698,14452,{},,
Introduction,html.Screen,1_0,2022-02-02T13:47:39.804Z,,,,,,,,,,,,,,,,,,,,,,,,,,,,,,,7554,,response,,,,,,,,,,,continue,click button,,,,,,,,,21993.000000000004,21994,14440,14434.000000000002,14452,22014,,,
Volume calibration,html.Screen,1_1,2022-02-02T13:47:55.862Z,,,,,,,,,,,,,,,,,,,,,,,,,,,,,,,16055,,response,,,,,,,,,,,continue,click button,,,,,,,,,38052,38053,21998,21993.000000000004,22014,38072,,,
Task instructions,html.Screen,1_2,2022-02-02T13:48:04.324Z,,,,,,,,,,,,,,,,,,,,,,,,,,,,,,,8459,,response,,,,,,,,,,,continue,click button,,,,,,,,,46513,46515,38056,38052,38072,46535,,,
Sounds,html.Screen,1_3_0_0,2022-02-02T13:48:08.573Z,,,,,,,,,,,,,,,,,,,,,,,,,,,,,,,4242,,timeout,,,,,,,,,3,,,,,,,,O,I,S,,50763,50762,46518,46514,46535,50777,,,
Judgement,html.Screen,1_3_0_1,2022-02-02T13:48:10.477Z,,,,,,,,,,,,,,,,,,,,,,,,,,,,true,3,,1908,,response,,,,,,,,,3,,3,click #choice-3,,,,,O,I,S,,52667,52670,50762,50763,50777,52689,,,
Trial,flow.Sequence,1_3_0,2022-02-02T13:48:10.478Z,,,,,,,,,,,,,,,,,,,,,,,,,,,,,,,6135,,completion,,,,,,,,,3,,,,,,,,O,I,S,,52668,52670,46518,46514,46535,52689,,,
Sounds,html.Screen,1_3_1_0,2022-02-02T13:48:14.733Z,,,,,,,,,,,,,,,,,,,,,,,,,,,,,,,4250,,timeout,,,,,,,,,1,,,,,,,,S,I,O,,56923,56923,52673,52668,52689,56939,,,
Judgement,html.Screen,1_3_1_1,2022-02-02T13:48:15.174Z,,,,,,,,,,,,,,,,,,,,,,,,,,,,true,1,,443,,response,,,,,,,,,1,,1,click #choice-1,,,,,S,I,O,,57364.00000000001,57366,56923,56923,56939,57400,,,
Trial,flow.Sequence,1_3_1,2022-02-02T13:48:15.175Z,,,,,,,,,,,,,,,,,,,,,,,,,,,,,,,4677,,completion,,,,,,,,,1,,,,,,,,S,I,O,,57365,57366,52673,52668,52689,57400,,,
Sounds,html.Screen,1_3_2_0,2022-02-02T13:48:19.445Z,,,,,,,,,,,,,,,,,,,,,,,,,,,,,,,4256,,timeout,,,,,,,,,1,,,,,,,,S,O,I,,61635,61635,57382,57365,57400,61656,,,
Judgement,html.Screen,1_3_2_1,2022-02-02T13:48:20.121Z,,,,,,,,,,,,,,,,,,,,,,,,,,,,true,1,,679,,response,,,,,,,,,1,,1,click #choice-1,,,,,S,O,I,,62311,62314,61635,61635,61656,62343,,,
Trial,flow.Sequence,1_3_2,2022-02-02T13:48:20.122Z,,,,,,,,,,,,,,,,,,,,,,,,,,,,,,,4914,,completion,,,,,,,,,1,,,,,,,,S,O,I,,62312.00000000001,62314,57382,57365,57400,62343,,,
Sounds,html.Screen,1_3_3_0,2022-02-02T13:48:24.392Z,,,,,,,,,,,,,,,,,,,,,,,,,,,,,,,4255,,timeout,,,,,,,,,2,,,,,,,,O,S,I,,66582.00000000001,66581,62328,62313,62343,66598,,,
Judgement,html.Screen,1_3_3_1,2022-02-02T13:48:24.789Z,,,,,,,,,,,,,,,,,,,,,,,,,,,,true,2,,401,,response,,,,,,,,,2,,2,click #choice-2,,,,,O,S,I,,66979,66982,66581,66582.00000000001,66598,67005,,,
Trial,flow.Sequence,1_3_3,2022-02-02T13:48:24.789Z,,,,,,,,,,,,,,,,,,,,,,,,,,,,,,,4639,,completion,,,,,,,,,2,,,,,,,,O,S,I,,66979,66982,62328,62313,62343,67005,,,
Sounds,html.Screen,1_3_4_0,2022-02-02T13:48:29.055Z,,,,,,,,,,,,,,,,,,,,,,,,,,,,,,,4256,,timeout,,,,,,,,,3,,,,,,,,I,O,S,,71246,71245,66987,66980,67005,71261,,,
Judgement,html.Screen,1_3_4_1,2022-02-02T13:48:29.470Z,,,,,,,,,,,,,,,,,,,,,,,,,,,,true,3,,418,,response,,,,,,,,,3,,3,click #choice-3,,,,,I,O,S,,71660,71663,71245,71246,71261,71690,,,
Trial,flow.Sequence,1_3_4,2022-02-02T13:48:29.470Z,,,,,,,,,,,,,,,,,,,,,,,,,,,,,,,4658,,completion,,,,,,,,,3,,,,,,,,I,O,S,,71661,71663,66987,66980,67005,71690,,,
Sounds,html.Screen,1_3_5_0,2022-02-02T13:48:33.727Z,,,,,,,,,,,,,,,,,,,,,,,,,,,,,,,4244,,timeout,,,,,,,,,2,,,,,,,,I,S,O,,75917,75917,71674,71661,71690,75934,,,
Judgement,html.Screen,1_3_5_1,2022-02-02T13:48:34.178Z,,,,,,,,,,,,,,,,,,,,,,,,,,,,true,2,,455,,response,,,,,,,,,2,,2,click #choice-2,,,,,I,S,O,,76368,76372,75917,75918,75934,76405,,,
Trial,flow.Sequence,1_3_5,2022-02-02T13:48:34.178Z,,,,,,,,,,,,,,,,,,,,,,,,,,,,,,,4682,,completion,,,,,,,,,2,,,,,,,,I,S,O,,76369,76372,71674,71661,71690,76405,,,
Task,flow.Loop,1_3,2022-02-02T13:48:34.181Z,,,,,,,,,,,,,,,,,,,,,,,,,,,,,,,29837,,completion,,,1,,,,,,,,,,,,,,,,,,76371,76372,46518,46514,46535,76405,,,
Trap,html.Screen,1_4,2022-02-02T13:48:34.182Z,,,,,,,,,,,,,,,,,,,,,,,,,,,,,,,NaN,,skipped,,,,,,,,,,,,,,,,,,,,,76372,76372,,76372,,76405,,,
Thanks,html.Screen,1_5,2022-02-02T13:48:40.536Z,,,,,,,,,,,,,,,,,,,,,,,,,,,,,,,6339.000000000015,,response,,,,,,,,,,,continue,click button,,,,,,,,,82727,82728.00000000001,76389,76373,76405,85463,,,
Headphone screening,flow.Sequence,1,2022-02-02T13:48:40.536Z,,,,,,,,,,,,,,,,,,,,,,,,,,,,,,,68276.00000000001,,completion,,,,,,,,,,,,,,,,,,,,,82727,82728.00000000001,14440,14434.000000000002,14452,85463,,,
Instructions,html.Page,2_0,2022-02-02T13:48:58.075Z,,,,,,,,,,,,,,,,,,,,,,,,,,,,,,,14802,,form submission,,,,,,,,,,,,,,,,,,,,,100266,100265,85450,85434,85463,100292,,,
Holding screen,html.Screen,2_1_0_0,2022-02-02T13:49:08.086Z,,,,,,,,,,,,,,,,,,,,,,,,,,,,,,,10008,,timeout,,,,,,,,,,,,,,,,,,,,,110277,110277,100275,100266,100292,110300,,,
screen,html.Screen,2_1_0_1_0,2022-02-02T13:49:09.155Z,,,,,,,,,,,,,,,,,53,,,,,,,,,,,,,,1073.0000000000146,,response,,,,99,,,,,,,Space,keypress(Space),,,,,,,,When -- ----- -- ------ - ------- --- ----------<br>------------- ------ ------ ---- ---- ------- ----- -- ----<br>-------- ------- -- ---------- --- - --- ----- ----- ----<br>---- --- --- ----- --- ---- ---- ------- ----- ---- -------<br>--- --- -- ----- -- --- ---- -- --- ---- -- ------ ------<br>--- ----- -- ----,111347.00000000001,111350.00000000001,110277,110277,110300,111383,,0,When
screen,html.Screen,2_1_0_1_1,2022-02-02T13:49:09.925Z,,,,,,,,,,,,,,,,,53,,,,,,,,,,,,,,754,,response,,,,99,,,,,,,Space,keypress(Space),,,,,,,,---- it ----- -- ------ - ------- --- ----------<br>------------- ------ ------ ---- ---- ------- ----- -- ----<br>-------- ------- -- ---------- --- - --- ----- ----- ----<br>---- --- --- ----- --- ---- ---- ------- ----- ---- -------<br>--- --- -- ----- -- --- ---- -- --- ---- -- ------ ------<br>--- ----- -- ----,112116,112120,111366,111347.00000000001,111383,112154,,1,it
screen,html.Screen,2_1_0_1_2,2022-02-02T13:49:10.555Z,,,,,,,,,,,,,,,,,53,,,,,,,,,,,,,,612,,response,,,,99,,,,,,,Space,keypress(Space),,,,,,,,---- -- comes -- ------ - ------- --- ----------<br>------------- ------ ------ ---- ---- ------- ----- -- ----<br>-------- ------- -- ---------- --- - --- ----- ----- ----<br>---- --- --- ----- --- ---- ---- ------- ----- ---- -------<br>--- --- -- ----- -- --- ---- -- --- ---- -- ------ ------<br>--- ----- -- ----,112746.00000000001,112750,112138,112116,112154,112776,,2,comes
screen,html.Screen,2_1_0_1_3,2022-02-02T13:49:11.149Z,,,,,,,,,,,,,,,,,53,,,,,,,,,,,,,,585.0000000000146,,response,,,,99,,,,,,,Space,keypress(Space),,,,,,,,---- -- ----- to ------ - ------- --- ----------<br>------------- ------ ------ ---- ---- ------- ----- -- ----<br>-------- ------- -- ---------- --- - --- ----- ----- ----<br>---- --- --- ----- --- ---- ---- ------- ----- ---- -------<br>--- --- -- ----- -- --- ---- -- --- ---- -- ------ ------<br>--- ----- -- ----,113340,113344.00000000001,112759,112746.00000000001,112776,113381,,3,to
screen,html.Screen,2_1_0_1_4,2022-02-02T13:49:11.860Z,,,,,,,,,,,,,,,,,53,,,,,,,,,,,,,,690,,response,,,,99,,,,,,,Space,keypress(Space),,,,,,,,---- -- ----- -- having - ------- --- ----------<br>------------- ------ ------ ---- ---- ------- ----- -- ----<br>-------- ------- -- ---------- --- - --- ----- ----- ----<br>---- --- --- ----- --- ---- ---- ------- ----- ---- -------<br>--- --- -- ----- -- --- ---- -- --- ---- -- ------ ------<br>--- ----- -- ----,114051,114055,113365,113340,113381,114087,,4,having
screen,html.Screen,2_1_0_1_5,2022-02-02T13:49:12.481Z,,,,,,,,,,,,,,,,,53,,,,,,,,,,,,,,606,,response,,,,99,,,,,,,Space,keypress(Space),,,,,,,,---- -- ----- -- ------ a ------- --- ----------<br>------------- ------ ------ ---- ---- ------- ----- -- ----<br>-------- ------- -- ---------- --- - --- ----- ----- ----<br>---- --- --- ----- --- ---- ---- ------- ----- ---- -------<br>--- --- -- ----- -- --- ---- -- --- ---- -- ------ ------<br>--- ----- -- ----,114672,114676,114070,114051,114087,114708,,5,a
screen,html.Screen,2_1_0_1_6,2022-02-02T13:49:13.105Z,,,,,,,,,,,,,,,,,53,,,,,,,,,,,,,,608,,response,,,,99,,,,,,,Space,keypress(Space),,,,,,,,---- -- ----- -- ------ - lasting --- ----------<br>------------- ------ ------ ---- ---- ------- ----- -- ----<br>-------- ------- -- ---------- --- - --- ----- ----- ----<br>---- --- --- ----- --- ---- ---- ------- ----- ---- -------<br>--- --- -- ----- -- --- ---- -- --- ---- -- ------ ------<br>--- ----- -- ----,115297,115301,114693,114672,114708,115330,,6,lasting
screen,html.Screen,2_1_0_1_7,2022-02-02T13:49:13.638Z,,,,,,,,,,,,,,,,,53,,,,,,,,,,,,,,520,,response,,,,99,,,,,,,Space,keypress(Space),,,,,,,,---- -- ----- -- ------ - ------- and ----------<br>------------- ------ ------ ---- ---- ------- ----- -- ----<br>-------- ------- -- ---------- --- - --- ----- ----- ----<br>---- --- --- ----- --- ---- ---- ------- ----- ---- -------<br>--- --- -- ----- -- --- ---- -- --- ---- -- ------ ------<br>--- ----- -- ----,115829.00000000001,115833,115313,115297,115330,115868,,7,and
screen,html.Screen,2_1_0_1_8,2022-02-02T13:49:14.285Z,,,,,,,,,,,,,,,,,53,,,,,,,,,,,,,,629.0000000000146,,response,,,,99,,,,,,,Space,keypress(Space),,,,,,,,---- -- ----- -- ------ - ------- --- fulfilling<br>------------- ------ ------ ---- ---- ------- ----- -- ----<br>-------- ------- -- ---------- --- - --- ----- ----- ----<br>---- --- --- ----- --- ---- ---- ------- ----- ---- -------<br>--- --- -- ----- -- --- ---- -- --- ---- -- ------ ------<br>--- ----- -- ----,116476,116481.00000000001,115852,115829.00000000001,115868,116505,,8,fulfilling
screen,html.Screen,2_1_0_1_9,2022-02-02T13:49:14.886Z,,,,,,,,,,,,,,,,,53,,,,,,,,,,,,,,593.0000000000146,,response,,,,99,,,,,,,Space,keypress(Space),,,,,,,,"---- -- ----- -- ------ - ------- --- ----------<br>relationship, ------ ------ ---- ---- ------- ----- -- ----<br>-------- ------- -- ---------- --- - --- ----- ----- ----<br>---- --- --- ----- --- ---- ---- ------- ----- ---- -------<br>--- --- -- ----- -- --- ---- -- --- ---- -- ------ ------<br>--- ----- -- ----",117078,117082.00000000001,116489,116477,116505,117111,,9,"relationship,"
screen,html.Screen,2_1_0_1_10,2022-02-02T13:49:15.421Z,,,,,,,,,,,,,,,,,53,,,,,,,,,,,,,,522,,response,,,,99,,,,,,,Space,keypress(Space),,,,,,,,---- -- ----- -- ------ - ------- --- ----------<br>------------- common ------ ---- ---- ------- ----- -- ----<br>-------- ------- -- ---------- --- - --- ----- ----- ----<br>---- --- --- ----- --- ---- ---- ------- ----- ---- -------<br>--- --- -- ----- -- --- ---- -- --- ---- -- ------ ------<br>--- ----- -- ----,117613,117617,117095,117078,117111,117650,,10,common
screen,html.Screen,2_1_0_1_11,2022-02-02T13:49:15.997Z,,,,,,,,,,,,,,,,,53,,,,,,,,,,,,,,561,,response,,,,99,,,,,,,Space,keypress(Space),,,,,,,,---- -- ----- -- ------ - ------- --- ----------<br>------------- ------ wisdom ---- ---- ------- ----- -- ----<br>-------- ------- -- ---------- --- - --- ----- ----- ----<br>---- --- --- ----- --- ---- ---- ------- ----- ---- -------<br>--- --- -- ----- -- --- ---- -- --- ---- -- ------ ------<br>--- ----- -- ----,118189,118193,117632,117613,117650,118221,,11,wisdom
screen,html.Screen,2_1_0_1_12,2022-02-02T13:49:16.617Z,,,,,,,,,,,,,,,,,53,,,,,,,,,,,,,,609,,response,,,,99,,,,,,,Space,keypress(Space),,,,,,,,---- -- ----- -- ------ - ------- --- ----------<br>------------- ------ ------ says ---- ------- ----- -- ----<br>-------- ------- -- ---------- --- - --- ----- ----- ----<br>---- --- --- ----- --- ---- ---- ------- ----- ---- -------<br>--- --- -- ----- -- --- ---- -- --- ---- -- ------ ------<br>--- ----- -- ----,118808,118813,118204,118189,118221,118843,,12,says
screen,html.Screen,2_1_0_1_13,2022-02-02T13:49:17.206Z,,,,,,,,,,,,,,,,,53,,,,,,,,,,,,,,576,,response,,,,99,,,,,,,Space,keypress(Space),,,,,,,,---- -- ----- -- ------ - ------- --- ----------<br>------------- ------ ------ ---- that ------- ----- -- ----<br>-------- ------- -- ---------- --- - --- ----- ----- ----<br>---- --- --- ----- --- ---- ---- ------- ----- ---- -------<br>--- --- -- ----- -- --- ---- -- --- ---- -- ------ ------<br>--- ----- -- ----,119397,119402,118826,118809,118843,119431,,13,that
screen,html.Screen,2_1_0_1_14,2022-02-02T13:49:17.727Z,,,,,,,,,,,,,,,,,53,,,,,,,,,,,,,,509,,response,,,,99,,,,,,,Space,keypress(Space),,,,,,,,---- -- ----- -- ------ - ------- --- ----------<br>------------- ------ ------ ---- ---- feeling ----- -- ----<br>-------- ------- -- ---------- --- - --- ----- ----- ----<br>---- --- --- ----- --- ---- ---- ------- ----- ---- -------<br>--- --- -- ----- -- --- ---- -- --- ---- -- ------ ------<br>--- ----- -- ----,119918,119923,119414,119398,119431,119952,,14,feeling
screen,html.Screen,2_1_0_1_15,2022-02-02T13:49:18.277Z,,,,,,,,,,,,,,,,,53,,,,,,,,,,,,,,538,,response,,,,99,,,,,,,Space,keypress(Space),,,,,,,,---- -- ----- -- ------ - ------- --- ----------<br>------------- ------ ------ ---- ---- ------- close -- ----<br>-------- ------- -- ---------- --- - --- ----- ----- ----<br>---- --- --- ----- --- ---- ---- ------- ----- ---- -------<br>--- --- -- ----- -- --- ---- -- --- ---- -- ------ ------<br>--- ----- -- ----,120469.00000000001,120473,119935,119919,119952,120506,,15,close
screen,html.Screen,2_1_0_1_16,2022-02-02T13:49:18.761Z,,,,,,,,,,,,,,,,,53,,,,,,,,,,,,,,467.00000000001455,,response,,,,99,,,,,,,Space,keypress(Space),,,,,,,,---- -- ----- -- ------ - ------- --- ----------<br>------------- ------ ------ ---- ---- ------- ----- to ----<br>-------- ------- -- ---------- --- - --- ----- ----- ----<br>---- --- --- ----- --- ---- ---- ------- ----- ---- -------<br>--- --- -- ----- -- --- ---- -- --- ---- -- ------ ------<br>--- ----- -- ----,120953,120957.00000000001,120490,120469.00000000001,120506,120994,,16,to
screen,html.Screen,2_1_0_1_17,2022-02-02T13:49:19.208Z,,,,,,,,,,,,,,,,,53,,,,,,,,,,,,,,426,,response,,,,99,,,,,,,Space,keypress(Space),,,,,,,,---- -- ----- -- ------ - ------- --- ----------<br>------------- ------ ------ ---- ---- ------- ----- -- your<br>-------- ------- -- ---------- --- - --- ----- ----- ----<br>---- --- --- ----- --- ---- ---- ------- ----- ---- -------<br>--- --- -- ----- -- --- ---- -- --- ---- -- ------ ------<br>--- ----- -- ----,121400,121404,120978,120953,120994,121432,,17,your
screen,html.Screen,2_1_0_1_18,2022-02-02T13:49:19.783Z,,,,,,,,,,,,,,,,,53,,,,,,,,,,,,,,563,,response,,,,99,,,,,,,Space,keypress(Space),,,,,,,,---- -- ----- -- ------ - ------- --- ----------<br>------------- ------ ------ ---- ---- ------- ----- -- ----<br>romantic ------- -- ---------- --- - --- ----- ----- ----<br>---- --- --- ----- --- ---- ---- ------- ----- ---- -------<br>--- --- -- ----- -- --- ---- -- --- ---- -- ------ ------<br>--- ----- -- ----,121974,121979,121416,121400,121432,122003,,18,romantic
screen,html.Screen,2_1_0_1_19,2022-02-02T13:49:20.313Z,,,,,,,,,,,,,,,,,53,,,,,,,,,,,,,,522,,response,,,,99,,,,,,,Space,keypress(Space),,,,,,,,---- -- ----- -- ------ - ------- --- ----------<br>------------- ------ ------ ---- ---- ------- ----- -- ----<br>-------- partner -- ---------- --- - --- ----- ----- ----<br>---- --- --- ----- --- ---- ---- ------- ----- ---- -------<br>--- --- -- ----- -- --- ---- -- --- ---- -- ------ ------<br>--- ----- -- ----,122504,122509,121987,121975.00000000001,122003,122541,,19,partner
screen,html.Screen,2_1_0_1_20,2022-02-02T13:49:20.843Z,,,,,,,,,,,,,,,,,53,,,,,,,,,,,,,,514,,response,,,,99,,,,,,,Space,keypress(Space),,,,,,,,---- -- ----- -- ------ - ------- --- ----------<br>------------- ------ ------ ---- ---- ------- ----- -- ----<br>-------- ------- is ---------- --- - --- ----- ----- ----<br>---- --- --- ----- --- ---- ---- ------- ----- ---- -------<br>--- --- -- ----- -- --- ---- -- --- ---- -- ------ ------<br>--- ----- -- ----,123034,123039,122525,122505,122541,123062,,20,is
screen,html.Screen,2_1_0_1_21,2022-02-02T13:49:21.545Z,,,,,,,,,,,,,,,,,53,,,,,,,,,,,,,,696,,response,,,,99,,,,,,,Space,keypress(Space),,,,,,,,---- -- ----- -- ------ - ------- --- ----------<br>------------- ------ ------ ---- ---- ------- ----- -- ----<br>-------- ------- -- paramount. --- - --- ----- ----- ----<br>---- --- --- ----- --- ---- ---- ------- ----- ---- -------<br>--- --- -- ----- -- --- ---- -- --- ---- -- ------ ------<br>--- ----- -- ----,123737.00000000001,123741,123045,123035,123062,123767,,21,paramount.
screen,html.Screen,2_1_0_1_22,2022-02-02T13:49:22.003Z,,,,,,,,,,,,,,,,,53,,,,,,,,,,,,,,448,,response,,,,99,,,,,,,Space,keypress(Space),,,,,,,,---- -- ----- -- ------ - ------- --- ----------<br>------------- ------ ------ ---- ---- ------- ----- -- ----<br>-------- ------- -- ---------- But - --- ----- ----- ----<br>---- --- --- ----- --- ---- ---- ------- ----- ---- -------<br>--- --- -- ----- -- --- ---- -- --- ---- -- ------ ------<br>--- ----- -- ----,124194,124199,123751,123737.00000000001,123767,124221,,22,But
screen,html.Screen,2_1_0_1_23,2022-02-02T13:49:22.527Z,,,,,,,,,,,,,,,,,53,,,,,,,,,,,,,,517,,response,,,,99,,,,,,,Space,keypress(Space),,,,,,,,---- -- ----- -- ------ - ------- --- ----------<br>------------- ------ ------ ---- ---- ------- ----- -- ----<br>-------- ------- -- ---------- --- a --- ----- ----- ----<br>---- --- --- ----- --- ---- ---- ------- ----- ---- -------<br>--- --- -- ----- -- --- ---- -- --- ---- -- ------ ------<br>--- ----- -- ----,124719.00000000001,124723,124206,124195.00000000001,124221,124761,,23,a
screen,html.Screen,2_1_0_1_24,2022-02-02T13:49:23.070Z,,,,,,,,,,,,,,,,,53,,,,,,,,,,,,,,522,,response,,,,99,,,,,,,Space,keypress(Space),,,,,,,,---- -- ----- -- ------ - ------- --- ----------<br>------------- ------ ------ ---- ---- ------- ----- -- ----<br>-------- ------- -- ---------- --- - new ----- ----- ----<br>---- --- --- ----- --- ---- ---- ------- ----- ---- -------<br>--- --- -- ----- -- --- ---- -- --- ---- -- ------ ------<br>--- ----- -- ----,125261,125266,124744,124719.00000000001,124761,125297,,24,new
screen,html.Screen,2_1_0_1_25,2022-02-02T13:49:23.594Z,,,,,,,,,,,,,,,,,53,,,,,,,,,,,,,,508,,response,,,,99,,,,,,,Space,keypress(Space),,,,,,,,---- -- ----- -- ------ - ------- --- ----------<br>------------- ------ ------ ---- ---- ------- ----- -- ----<br>-------- ------- -- ---------- --- - --- study ----- ----<br>---- --- --- ----- --- ---- ---- ------- ----- ---- -------<br>--- --- -- ----- -- --- ---- -- --- ---- -- ------ ------<br>--- ----- -- ----,125785,125790,125282,125262,125297,125819,,25,study
screen,html.Screen,2_1_0_1_26,2022-02-02T13:49:24.084Z,,,,,,,,,,,,,,,,,53,,,,,,,,,,,,,,478,,response,,,,99,,,,,,,Space,keypress(Space),,,,,,,,---- -- ----- -- ------ - ------- --- ----------<br>------------- ------ ------ ---- ---- ------- ----- -- ----<br>-------- ------- -- ---------- --- - --- ----- finds ----<br>---- --- --- ----- --- ---- ---- ------- ----- ---- -------<br>--- --- -- ----- -- --- ---- -- --- ---- -- ------ ------<br>--- ----- -- ----,126275,126280,125802,125785,125819,126307,,26,finds
screen,html.Screen,2_1_0_1_27,2022-02-02T13:49:24.634Z,,,,,,,,,,,,,,,,,53,,,,,,,,,,,,,,539,,response,,,,99,,,,,,,Space,keypress(Space),,,,,,,,---- -- ----- -- ------ - ------- --- ----------<br>------------- ------ ------ ---- ---- ------- ----- -- ----<br>-------- ------- -- ---------- --- - --- ----- ----- that<br>---- --- --- ----- --- ---- ---- ------- ----- ---- -------<br>--- --- -- ----- -- --- ---- -- --- ---- -- ------ ------<br>--- ----- -- ----,126825,126830,126291,126275,126307,126862,,27,that
screen,html.Screen,2_1_0_1_28,2022-02-02T13:49:25.242Z,,,,,,,,,,,,,,,,,53,,,,,,,,,,,,,,593,,response,,,,99,,,,,,,Space,keypress(Space),,,,,,,,---- -- ----- -- ------ - ------- --- ----------<br>------------- ------ ------ ---- ---- ------- ----- -- ----<br>-------- ------- -- ---------- --- - --- ----- ----- ----<br>it's --- --- ----- --- ---- ---- ------- ----- ---- -------<br>--- --- -- ----- -- --- ---- -- --- ---- -- ------ ------<br>--- ----- -- ----,127433,127437,126844,126825,126862,127467,,28,it's
screen,html.Screen,2_1_0_1_29,2022-02-02T13:49:25.802Z,,,,,,,,,,,,,,,,,53,,,,,,,,,,,,,,548,,response,,,,99,,,,,,,Space,keypress(Space),,,,,,,,---- -- ----- -- ------ - ------- --- ----------<br>------------- ------ ------ ---- ---- ------- ----- -- ----<br>-------- ------- -- ---------- --- - --- ----- ----- ----<br>---- not --- ----- --- ---- ---- ------- ----- ---- -------<br>--- --- -- ----- -- --- ---- -- --- ---- -- ------ ------<br>--- ----- -- ----,127993.00000000001,127998,127450,127433,127467,128021,,29,not
screen,html.Screen,2_1_0_1_30,2022-02-02T13:49:26.285Z,,,,,,,,,,,,,,,,,53,,,,,,,,,,,,,,477,,response,,,,99,,,,,,,Space,keypress(Space),,,,,,,,---- -- ----- -- ------ - ------- --- ----------<br>------------- ------ ------ ---- ---- ------- ----- -- ----<br>-------- ------- -- ---------- --- - --- ----- ----- ----<br>---- --- how ----- --- ---- ---- ------- ----- ---- -------<br>--- --- -- ----- -- --- ---- -- --- ---- -- ------ ------<br>--- ----- -- ----,128477,128481,128004,127994,128021,128509,,30,how
screen,html.Screen,2_1_0_1_31,2022-02-02T13:49:26.798Z,,,,,,,,,,,,,,,,,53,,,,,,,,,,,,,,502,,response,,,,99,,,,,,,Space,keypress(Space),,,,,,,,---- -- ----- -- ------ - ------- --- ----------<br>------------- ------ ------ ---- ---- ------- ----- -- ----<br>-------- ------- -- ---------- --- - --- ----- ----- ----<br>---- --- --- close --- ---- ---- ------- ----- ---- -------<br>--- --- -- ----- -- --- ---- -- --- ---- -- ------ ------<br>--- ----- -- ----,128989,128994,128492,128477,128509,129031,,31,close
screen,html.Screen,2_1_0_1_32,2022-02-02T13:49:27.234Z,,,,,,,,,,,,,,,,,53,,,,,,,,,,,,,,414,,response,,,,99,,,,,,,Space,keypress(Space),,,,,,,,---- -- ----- -- ------ - ------- --- ----------<br>------------- ------ ------ ---- ---- ------- ----- -- ----<br>-------- ------- -- ---------- --- - --- ----- ----- ----<br>---- --- --- ----- you ---- ---- ------- ----- ---- -------<br>--- --- -- ----- -- --- ---- -- --- ---- -- ------ ------<br>--- ----- -- ----,129425.00000000001,129429,129015,128990.00000000001,129031,129452,,32,you
screen,html.Screen,2_1_0_1_33,2022-02-02T13:49:27.768Z,,,,,,,,,,,,,,,,,53,,,,,,,,,,,,,,529,,response,,,,99,,,,,,,Space,keypress(Space),,,,,,,,---- -- ----- -- ------ - ------- --- ----------<br>------------- ------ ------ ---- ---- ------- ----- -- ----<br>-------- ------- -- ---------- --- - --- ----- ----- ----<br>---- --- --- ----- --- feel ---- ------- ----- ---- -------<br>--- --- -- ----- -- --- ---- -- --- ---- -- ------ ------<br>--- ----- -- ----,129959,129964,129435,129425.00000000001,129452,129989,,33,feel
screen,html.Screen,2_1_0_1_34,2022-02-02T13:49:28.223Z,,,,,,,,,,,,,,,,,53,,,,,,,,,,,,,,446,,response,,,,99,,,,,,,Space,keypress(Space),,,,,,,,---- -- ----- -- ------ - ------- --- ----------<br>------------- ------ ------ ---- ---- ------- ----- -- ----<br>-------- ------- -- ---------- --- - --- ----- ----- ----<br>---- --- --- ----- --- ---- that ------- ----- ---- -------<br>--- --- -- ----- -- --- ---- -- --- ---- -- ------ ------<br>--- ----- -- ----,130414.00000000001,130418,129972,129959,129989,130444,,34,that
screen,html.Screen,2_1_0_1_35,2022-02-02T13:49:28.772Z,,,,,,,,,,,,,,,,,53,,,,,,,,,,,,,,541.9999999999854,,response,,,,99,,,,,,,Space,keypress(Space),,,,,,,,---- -- ----- -- ------ - ------- --- ----------<br>------------- ------ ------ ---- ---- ------- ----- -- ----<br>-------- ------- -- ---------- --- - --- ----- ----- ----<br>---- --- --- ----- --- ---- ---- matters ----- ---- -------<br>--- --- -- ----- -- --- ---- -- --- ---- -- ------ ------<br>--- ----- -- ----,130963,130967.99999999999,130426,130414.00000000001,130444,130999,,35,matters
screen,html.Screen,2_1_0_1_36,2022-02-02T13:49:29.272Z,,,,,,,,,,,,,,,,,53,,,,,,,,,,,,,,487,,response,,,,99,,,,,,,Space,keypress(Space),,,,,,,,"---- -- ----- -- ------ - ------- --- ----------<br>------------- ------ ------ ---- ---- ------- ----- -- ----<br>-------- ------- -- ---------- --- - --- ----- ----- ----<br>---- --- --- ----- --- ---- ---- ------- most, ---- -------<br>--- --- -- ----- -- --- ---- -- --- ---- -- ------ ------<br>--- ----- -- ----",131464,131468,130981,130964,130999,131503,,36,"most,"
screen,html.Screen,2_1_0_1_37,2022-02-02T13:49:29.733Z,,,,,,,,,,,,,,,,,53,,,,,,,,,,,,,,443,,response,,,,99,,,,,,,Space,keypress(Space),,,,,,,,---- -- ----- -- ------ - ------- --- ----------<br>------------- ------ ------ ---- ---- ------- ----- -- ----<br>-------- ------- -- ---------- --- - --- ----- ----- ----<br>---- --- --- ----- --- ---- ---- ------- ----- it's -------<br>--- --- -- ----- -- --- ---- -- --- ---- -- ------ ------<br>--- ----- -- ----,131924,131929,131486,131464,131503,131957,,37,it's
screen,html.Screen,2_1_0_1_38,2022-02-02T13:49:30.201Z,,,,,,,,,,,,,,,,,53,,,,,,,,,,,,,,456,,response,,,,99,,,,,,,Space,keypress(Space),,,,,,,,---- -- ----- -- ------ - ------- --- ----------<br>------------- ------ ------ ---- ---- ------- ----- -- ----<br>-------- ------- -- ---------- --- - --- ----- ----- ----<br>---- --- --- ----- --- ---- ---- ------- ----- ---- whether<br>--- --- -- ----- -- --- ---- -- --- ---- -- ------ ------<br>--- ----- -- ----,132392,132397,131941,131925,131957,132429,,38,whether
screen,html.Screen,2_1_0_1_39,2022-02-02T13:49:30.668Z,,,,,,,,,,,,,,,,,53,,,,,,,,,,,,,,451,,response,,,,99,,,,,,,Space,keypress(Space),,,,,,,,---- -- ----- -- ------ - ------- --- ----------<br>------------- ------ ------ ---- ---- ------- ----- -- ----<br>-------- ------- -- ---------- --- - --- ----- ----- ----<br>---- --- --- ----- --- ---- ---- ------- ----- ---- -------<br>you --- -- ----- -- --- ---- -- --- ---- -- ------ ------<br>--- ----- -- ----,132859,132863,132412,132392,132429,132900,,39,you
screen,html.Screen,2_1_0_1_40,2022-02-02T13:49:31.034Z,,,,,,,,,,,,,,,,,53,,,,,,,,,,,,,,347,,response,,,,99,,,,,,,Space,keypress(Space),,,,,,,,---- -- ----- -- ------ - ------- --- ----------<br>------------- ------ ------ ---- ---- ------- ----- -- ----<br>-------- ------- -- ---------- --- - --- ----- ----- ----<br>---- --- --- ----- --- ---- ---- ------- ----- ---- -------<br>--- are -- ----- -- --- ---- -- --- ---- -- ------ ------<br>--- ----- -- ----,133225,133230,132883,132859,132900,133255,,40,are
screen,html.Screen,2_1_0_1_41,2022-02-02T13:49:31.419Z,,,,,,,,,,,,,,,,,53,,,,,,,,,,,,,,378,,response,,,,99,,,,,,,Space,keypress(Space),,,,,,,,---- -- ----- -- ------ - ------- --- ----------<br>------------- ------ ------ ---- ---- ------- ----- -- ----<br>-------- ------- -- ---------- --- - --- ----- ----- ----<br>---- --- --- ----- --- ---- ---- ------- ----- ---- -------<br>--- --- as ----- -- --- ---- -- --- ---- -- ------ ------<br>--- ----- -- ----,133611,133615,133237,133225,133255,133642,,41,as
screen,html.Screen,2_1_0_1_42,2022-02-02T13:49:31.796Z,,,,,,,,,,,,,,,,,53,,,,,,,,,,,,,,368,,response,,,,99,,,,,,,Space,keypress(Space),,,,,,,,---- -- ----- -- ------ - ------- --- ----------<br>------------- ------ ------ ---- ---- ------- ----- -- ----<br>-------- ------- -- ---------- --- - --- ----- ----- ----<br>---- --- --- ----- --- ---- ---- ------- ----- ---- -------<br>--- --- -- close -- --- ---- -- --- ---- -- ------ ------<br>--- ----- -- ----,133988,133993,133625,133611,133642,134012,,42,close
screen,html.Screen,2_1_0_1_43,2022-02-02T13:49:32.158Z,,,,,,,,,,,,,,,,,53,,,,,,,,,,,,,,357,,response,,,,99,,,,,,,Space,keypress(Space),,,,,,,,---- -- ----- -- ------ - ------- --- ----------<br>------------- ------ ------ ---- ---- ------- ----- -- ----<br>-------- ------- -- ---------- --- - --- ----- ----- ----<br>---- --- --- ----- --- ---- ---- ------- ----- ---- -------<br>--- --- -- ----- as --- ---- -- --- ---- -- ------ ------<br>--- ----- -- ----,134349,134353,133996,133988,134012,134367,,43,as
screen,html.Screen,2_1_0_1_44,2022-02-02T13:49:32.658Z,,,,,,,,,,,,,,,,,53,,,,,,,,,,,,,,503,,response,,,,99,,,,,,,Space,keypress(Space),,,,,,,,---- -- ----- -- ------ - ------- --- ----------<br>------------- ------ ------ ---- ---- ------- ----- -- ----<br>-------- ------- -- ---------- --- - --- ----- ----- ----<br>---- --- --- ----- --- ---- ---- ------- ----- ---- -------<br>--- --- -- ----- -- you ---- -- --- ---- -- ------ ------<br>--- ----- -- ----,134850,134854,134351,134350,134367,134887,,44,you
screen,html.Screen,2_1_0_1_45,2022-02-02T13:49:32.990Z,,,,,,,,,,,,,,,,,53,,,,,,,,,,,,,,316,,response,,,,99,,,,,,,Space,keypress(Space),,,,,,,,---- -- ----- -- ------ - ------- --- ----------<br>------------- ------ ------ ---- ---- ------- ----- -- ----<br>-------- ------- -- ---------- --- - --- ----- ----- ----<br>---- --- --- ----- --- ---- ---- ------- ----- ---- -------<br>--- --- -- ----- -- --- want -- --- ---- -- ------ ------<br>--- ----- -- ----,135182.00000000003,135186,134870,134850,134887,135209,,45,want
screen,html.Screen,2_1_0_1_46,2022-02-02T13:49:33.400Z,,,,,,,,,,,,,,,,,53,,,,,,,,,,,,,,405,,response,,,,99,,,,,,,Space,keypress(Space),,,,,,,,---- -- ----- -- ------ - ------- --- ----------<br>------------- ------ ------ ---- ---- ------- ----- -- ----<br>-------- ------- -- ---------- --- - --- ----- ----- ----<br>---- --- --- ----- --- ---- ---- ------- ----- ---- -------<br>--- --- -- ----- -- --- ---- to --- ---- -- ------ ------<br>--- ----- -- ----,135592,135597,135192,135182.00000000003,135209,135630,,46,to
screen,html.Screen,2_1_0_1_47,2022-02-02T13:49:33.769Z,,,,,,,,,,,,,,,,,53,,,,,,,,,,,,,,353,,response,,,,99,,,,,,,Space,keypress(Space),,,,,,,,"---- -- ----- -- ------ - ------- --- ----------<br>------------- ------ ------ ---- ---- ------- ----- -- ----<br>-------- ------- -- ---------- --- - --- ----- ----- ----<br>---- --- --- ----- --- ---- ---- ------- ----- ---- -------<br>--- --- -- ----- -- --- ---- -- be, ---- -- ------ ------<br>--- ----- -- ----",135961,135966,135613,135592,135630,135984,,47,"be,"
screen,html.Screen,2_1_0_1_48,2022-02-02T13:49:34.151Z,,,,,,,,,,,,,,,,,53,,,,,,,,,,,,,,381,,response,,,,99,,,,,,,Space,keypress(Space),,,,,,,,---- -- ----- -- ------ - ------- --- ----------<br>------------- ------ ------ ---- ---- ------- ----- -- ----<br>-------- ------- -- ---------- --- - --- ----- ----- ----<br>---- --- --- ----- --- ---- ---- ------- ----- ---- -------<br>--- --- -- ----- -- --- ---- -- --- even -- ------ ------<br>--- ----- -- ----,136343,136348,135967,135961,135984,136372,,48,even
screen,html.Screen,2_1_0_1_49,2022-02-02T13:49:34.511Z,,,,,,,,,,,,,,,,,53,,,,,,,,,,,,,,353,,response,,,,99,,,,,,,Space,keypress(Space),,,,,,,,---- -- ----- -- ------ - ------- --- ----------<br>------------- ------ ------ ---- ---- ------- ----- -- ----<br>-------- ------- -- ---------- --- - --- ----- ----- ----<br>---- --- --- ----- --- ---- ---- ------- ----- ---- -------<br>--- --- -- ----- -- --- ---- -- --- ---- if ------ ------<br>--- ----- -- ----,136703,136708,136355,136343,136372,136726,,49,if
screen,html.Screen,2_1_0_1_50,2022-02-02T13:49:35.034Z,,,,,,,,,,,,,,,,,53,,,,,,,,,,,,,,520,,response,,,,99,,,,,,,Space,keypress(Space),,,,,,,,---- -- ----- -- ------ - ------- --- ----------<br>------------- ------ ------ ---- ---- ------- ----- -- ----<br>-------- ------- -- ---------- --- - --- ----- ----- ----<br>---- --- --- ----- --- ---- ---- ------- ----- ---- -------<br>--- --- -- ----- -- --- ---- -- --- ---- -- that's ------<br>--- ----- -- ----,137225,137230,136710,136703,136726,137264,,50,that's
screen,html.Screen,2_1_0_1_51,2022-02-02T13:49:35.417Z,,,,,,,,,,,,,,,,,53,,,,,,,,,,,,,,367,,response,,,,99,,,,,,,Space,keypress(Space),,,,,,,,---- -- ----- -- ------ - ------- --- ----------<br>------------- ------ ------ ---- ---- ------- ----- -- ----<br>-------- ------- -- ---------- --- - --- ----- ----- ----<br>---- --- --- ----- --- ---- ---- ------- ----- ---- -------<br>--- --- -- ----- -- --- ---- -- --- ---- -- ------ really<br>--- ----- -- ----,137609,137614,137247,137225,137264,137634,,51,really
screen,html.Screen,2_1_0_1_52,2022-02-02T13:49:35.837Z,,,,,,,,,,,,,,,,,53,,,,,,,,,,,,,,414.0000000000291,,response,,,,99,,,,,,,Space,keypress(Space),,,,,,,,---- -- ----- -- ------ - ------- --- ----------<br>------------- ------ ------ ---- ---- ------- ----- -- ----<br>-------- ------- -- ---------- --- - --- ----- ----- ----<br>---- --- --- ----- --- ---- ---- ------- ----- ---- -------<br>--- --- -- ----- -- --- ---- -- --- ---- -- ------ ------<br>not ----- -- ----,138029,138033.00000000003,137619,137609,137634,138055,,52,not
screen,html.Screen,2_1_0_1_53,2022-02-02T13:49:36.203Z,,,,,,,,,,,,,,,,,53,,,,,,,,,,,,,,361,,response,,,,99,,,,,,,Space,keypress(Space),,,,,,,,---- -- ----- -- ------ - ------- --- ----------<br>------------- ------ ------ ---- ---- ------- ----- -- ----<br>-------- ------- -- ---------- --- - --- ----- ----- ----<br>---- --- --- ----- --- ---- ---- ------- ----- ---- -------<br>--- --- -- ----- -- --- ---- -- --- ---- -- ------ ------<br>--- close -- ----,138395,138400,138039,138029,138055,138426,,53,close
screen,html.Screen,2_1_0_1_54,2022-02-02T13:49:36.597Z,,,,,,,,,,,,,,,,,53,,,,,,,,,,,,,,384,,response,,,,99,,,,,,,Space,keypress(Space),,,,,,,,---- -- ----- -- ------ - ------- --- ----------<br>------------- ------ ------ ---- ---- ------- ----- -- ----<br>-------- ------- -- ---------- --- - --- ----- ----- ----<br>---- --- --- ----- --- ---- ---- ------- ----- ---- -------<br>--- --- -- ----- -- --- ---- -- --- ---- -- ------ ------<br>--- ----- at ----,138789.00000000003,138793,138409,138395,138426,138814,,54,at
screen,html.Screen,2_1_0_1_55,2022-02-02T13:49:37.033Z,,,,,,,,,,,,,,,,,53,,,,,,,,,,,,,,433,,response,,,,99,,,,,,,Space,keypress(Space),,,,,,,,---- -- ----- -- ------ - ------- --- ----------<br>------------- ------ ------ ---- ---- ------- ----- -- ----<br>-------- ------- -- ---------- --- - --- ----- ----- ----<br>---- --- --- ----- --- ---- ---- ------- ----- ---- -------<br>--- --- -- ----- -- --- ---- -- --- ---- -- ------ ------<br>--- ----- -- all.,139225,139230,138797,138789.00000000003,138814,139267,,55,all.
Item 99,flow.Loop,2_1_0_1,2022-02-02T13:49:37.034Z,,,,,,,,,,,,,,,,,,,,,,,,,,,,,,,28930,,completion,,,,,B,,,,,,,,,,,silence,,,,,139226,139230,110277,110277,110300,139267,,,
Question 1,html.Screen,2_1_0_2,2022-02-02T13:49:40.180Z,,,,,,,,,,,,,,,,,,,,,,,,,,,,true,FALSE,,3126,,response,,,,99,B,,,,,,FALSE,click #choice-2,,,,silence,,,,,142372,142377,139251,139226,139267,142404,,,
Question 2,html.Screen,2_1_0_3,2022-02-02T13:49:47.350Z,,,,,,,,,,,,,,,,,,,,,,,,,,,,true,TRUE,,7159,,response,,,,99,B,,,,,,TRUE,click #choice-1,,,,silence,,,,,149542,149546,142387,142372,142404,149565,,,
Item 99,flow.Sequence,2_1_0,2022-02-02T13:49:47.350Z,,,,,,,,,,,,,,,,,,,,,,,,,,,,,,,49254,,completion,,,,,,,,,,,,,,,,,,,,,149542,149546,100275,100266,100292,149565,,,
Holding screen,html.Screen,2_1_1_0,2022-02-02T13:49:57.354Z,,,,,,,,,,,,,,,,,,,,,,,,,,,,,,,9997,,timeout,,,,,,,,,,,,,,,,,,,,,159546,159546,149546,149543,149565,159562,,,
screen,html.Screen,2_1_1_1_0,2022-02-02T13:49:58.399Z,,,,,,,,,,,,,,,,,54,,,,,,,,,,,,,,1050,,response,,,,100,,,,,,,Space,keypress(Space),,,,,,,,At --- ---- --- ------ ----- ------- ---- -- --- ------- --<br>------- ---------- ------ -- ----- -- ----- -- ---- ------<br>--- ----- --- --- ------ -------- ----- --- ------ ----- --<br>----- ----- ---------- --- --- ------ ------ ---- -- ------<br>------- --- ------ ----- --- ---- ------- -- ---- --- --<br>------- ------,160591,160596,159546,159546,159562,160634,,0,At
screen,html.Screen,2_1_1_1_1,2022-02-02T13:49:58.808Z,,,,,,,,,,,,,,,,,54,,,,,,,,,,,,,,388,,response,,,,100,,,,,,,Space,keypress(Space),,,,,,,,-- the ---- --- ------ ----- ------- ---- -- --- ------- --<br>------- ---------- ------ -- ----- -- ----- -- ---- ------<br>--- ----- --- --- ------ -------- ----- --- ------ ----- --<br>----- ----- ---------- --- --- ------ ------ ---- -- ------<br>------- --- ------ ----- --- ---- ------- -- ---- --- --<br>------- ------,161000,161005,160617,160592,160634,161022,,1,the
screen,html.Screen,2_1_1_1_2,2022-02-02T13:49:59.365Z,,,,,,,,,,,,,,,,,54,,,,,,,,,,,,,,557,,response,,,,100,,,,,,,Space,keypress(Space),,,,,,,,-- --- time --- ------ ----- ------- ---- -- --- ------- --<br>------- ---------- ------ -- ----- -- ----- -- ---- ------<br>--- ----- --- --- ------ -------- ----- --- ------ ----- --<br>----- ----- ---------- --- --- ------ ------ ---- -- ------<br>------- --- ------ ----- --- ---- ------- -- ---- --- --<br>------- ------,161557.00000000003,161562,161005,161000,161022,161594,,2,time
screen,html.Screen,2_1_1_1_3,2022-02-02T13:49:59.870Z,,,,,,,,,,,,,,,,,54,,,,,,,,,,,,,,490,,response,,,,100,,,,,,,Space,keypress(Space),,,,,,,,-- --- ---- the ------ ----- ------- ---- -- --- ------- --<br>------- ---------- ------ -- ----- -- ----- -- ---- ------<br>--- ----- --- --- ------ -------- ----- --- ------ ----- --<br>----- ----- ---------- --- --- ------ ------ ---- -- ------<br>------- --- ------ ----- --- ---- ------- -- ---- --- --<br>------- ------,162063.00000000003,162068,161578,161557.00000000003,161594,162099,,3,the
screen,html.Screen,2_1_1_1_4,2022-02-02T13:50:00.273Z,,,,,,,,,,,,,,,,,54,,,,,,,,,,,,,,389,,response,,,,100,,,,,,,Space,keypress(Space),,,,,,,,-- --- ---- --- French ----- ------- ---- -- --- ------- --<br>------- ---------- ------ -- ----- -- ----- -- ---- ------<br>--- ----- --- --- ------ -------- ----- --- ------ ----- --<br>----- ----- ---------- --- --- ------ ------ ---- -- ------<br>------- --- ------ ----- --- ---- ------- -- ---- --- --<br>------- ------,162466,162471,162082,162063.00000000003,162099,162486,,4,French
screen,html.Screen,2_1_1_1_5,2022-02-02T13:50:00.690Z,,,,,,,,,,,,,,,,,54,,,,,,,,,,,,,,417,,response,,,,100,,,,,,,Space,keypress(Space),,,,,,,,-- --- ---- --- ------ crown ------- ---- -- --- ------- --<br>------- ---------- ------ -- ----- -- ----- -- ---- ------<br>--- ----- --- --- ------ -------- ----- --- ------ ----- --<br>----- ----- ---------- --- --- ------ ------ ---- -- ------<br>------- --- ------ ----- --- ---- ------- -- ---- --- --<br>------- ------,162882,162887,162470,162466,162486,162924,,5,crown
screen,html.Screen,2_1_1_1_6,2022-02-02T13:50:01.164Z,,,,,,,,,,,,,,,,,54,,,,,,,,,,,,,,454,,response,,,,100,,,,,,,Space,keypress(Space),,,,,,,,-- --- ---- --- ------ ----- secured ---- -- --- ------- --<br>------- ---------- ------ -- ----- -- ----- -- ---- ------<br>--- ----- --- --- ------ -------- ----- --- ------ ----- --<br>----- ----- ---------- --- --- ------ ------ ---- -- ------<br>------- --- ------ ----- --- ---- ------- -- ---- --- --<br>------- ------,163357,163362,162908,162882,162924,163396,,6,secured
screen,html.Screen,2_1_1_1_7,2022-02-02T13:50:01.661Z,,,,,,,,,,,,,,,,,54,,,,,,,,,,,,,,481,,response,,,,100,,,,,,,Space,keypress(Space),,,,,,,,-- --- ---- --- ------ ----- ------- much -- --- ------- --<br>------- ---------- ------ -- ----- -- ----- -- ---- ------<br>--- ----- --- --- ------ -------- ----- --- ------ ----- --<br>----- ----- ---------- --- --- ------ ------ ---- -- ------<br>------- --- ------ ----- --- ---- ------- -- ---- --- --<br>------- ------,163854,163859,163378,163357,163396,163883,,7,much
screen,html.Screen,2_1_1_1_8,2022-02-02T13:50:02.025Z,,,,,,,,,,,,,,,,,54,,,,,,,,,,,,,,356,,response,,,,100,,,,,,,Space,keypress(Space),,,,,,,,-- --- ---- --- ------ ----- ------- ---- of --- ------- --<br>------- ---------- ------ -- ----- -- ----- -- ---- ------<br>--- ----- --- --- ------ -------- ----- --- ------ ----- --<br>----- ----- ---------- --- --- ------ ------ ---- -- ------<br>------- --- ------ ----- --- ---- ------- -- ---- --- --<br>------- ------,164218,164223,163867,163854,163883,164236,,8,of
screen,html.Screen,2_1_1_1_9,2022-02-02T13:50:02.390Z,,,,,,,,,,,,,,,,,54,,,,,,,,,,,,,,368,,response,,,,100,,,,,,,Space,keypress(Space),,,,,,,,-- --- ---- --- ------ ----- ------- ---- -- its ------- --<br>------- ---------- ------ -- ----- -- ----- -- ---- ------<br>--- ----- --- --- ------ -------- ----- --- ------ ----- --<br>----- ----- ---------- --- --- ------ ------ ---- -- ------<br>------- --- ------ ----- --- ---- ------- -- ---- --- --<br>------- ------,164583,164588,164220,164218,164236,164608,,9,its
screen,html.Screen,2_1_1_1_10,2022-02-02T13:50:02.924Z,,,,,,,,,,,,,,,,,54,,,,,,,,,,,,,,530,,response,,,,100,,,,,,,Space,keypress(Space),,,,,,,,-- --- ---- --- ------ ----- ------- ---- -- --- revenue --<br>------- ---------- ------ -- ----- -- ----- -- ---- ------<br>--- ----- --- --- ------ -------- ----- --- ------ ----- --<br>----- ----- ---------- --- --- ------ ------ ---- -- ------<br>------- --- ------ ----- --- ---- ------- -- ---- --- --<br>------- ------,165117,165122,164592,164583,164608,165145,,10,revenue
screen,html.Screen,2_1_1_1_11,2022-02-02T13:50:03.266Z,,,,,,,,,,,,,,,,,54,,,,,,,,,,,,,,336,,response,,,,100,,,,,,,Space,keypress(Space),,,,,,,,-- --- ---- --- ------ ----- ------- ---- -- --- ------- by<br>------- ---------- ------ -- ----- -- ----- -- ---- ------<br>--- ----- --- --- ------ -------- ----- --- ------ ----- --<br>----- ----- ---------- --- --- ------ ------ ---- -- ------<br>------- --- ------ ----- --- ---- ------- -- ---- --- --<br>------- ------,165459,165464,165128,165117,165145,165483,,11,by
screen,html.Screen,2_1_1_1_12,2022-02-02T13:50:03.792Z,,,,,,,,,,,,,,,,,54,,,,,,,,,,,,,,523,,response,,,,100,,,,,,,Space,keypress(Space),,,,,,,,-- --- ---- --- ------ ----- ------- ---- -- --- ------- --<br>issuing ---------- ------ -- ----- -- ----- -- ---- ------<br>--- ----- --- --- ------ -------- ----- --- ------ ----- --<br>----- ----- ---------- --- --- ------ ------ ---- -- ------<br>------- --- ------ ----- --- ---- ------- -- ---- --- --<br>------- ------,165985,165990,165467,165459,165483,166021,,12,issuing
screen,html.Screen,2_1_1_1_13,2022-02-02T13:50:04.276Z,,,,,,,,,,,,,,,,,54,,,,,,,,,,,,,,470,,response,,,,100,,,,,,,Space,keypress(Space),,,,,,,,-- --- ---- --- ------ ----- ------- ---- -- --- ------- --<br>------- government ------ -- ----- -- ----- -- ---- ------<br>--- ----- --- --- ------ -------- ----- --- ------ ----- --<br>----- ----- ---------- --- --- ------ ------ ---- -- ------<br>------- --- ------ ----- --- ---- ------- -- ---- --- --<br>------- ------,166469,166474,166004,165985,166021,166507,,13,government
screen,html.Screen,2_1_1_1_14,2022-02-02T13:50:04.835Z,,,,,,,,,,,,,,,,,54,,,,,,,,,,,,,,541,,response,,,,100,,,,,,,Space,keypress(Space),,,,,,,,-- --- ---- --- ------ ----- ------- ---- -- --- ------- --<br>------- ---------- bonds. -- ----- -- ----- -- ---- ------<br>--- ----- --- --- ------ -------- ----- --- ------ ----- --<br>----- ----- ---------- --- --- ------ ------ ---- -- ------<br>------- --- ------ ----- --- ---- ------- -- ---- --- --<br>------- ------,167027.00000000003,167032,166491,166469,166507,167062,,14,bonds.
screen,html.Screen,2_1_1_1_15,2022-02-02T13:50:05.206Z,,,,,,,,,,,,,,,,,54,,,,,,,,,,,,,,357,,response,,,,100,,,,,,,Space,keypress(Space),,,,,,,,-- --- ---- --- ------ ----- ------- ---- -- --- ------- --<br>------- ---------- ------ In ----- -- ----- -- ---- ------<br>--- ----- --- --- ------ -------- ----- --- ------ ----- --<br>----- ----- ---------- --- --- ------ ------ ---- -- ------<br>------- --- ------ ----- --- ---- ------- -- ---- --- --<br>------- ------,167399,167403,167046,167028,167062,167417,,15,In
screen,html.Screen,2_1_1_1_16,2022-02-02T13:50:05.536Z,,,,,,,,,,,,,,,,,54,,,,,,,,,,,,,,332,,response,,,,100,,,,,,,Space,keypress(Space),,,,,,,,"-- --- ---- --- ------ ----- ------- ---- -- --- ------- --<br>------- ---------- ------ -- 1727, -- ----- -- ---- ------<br>--- ----- --- --- ------ -------- ----- --- ------ ----- --<br>----- ----- ---------- --- --- ------ ------ ---- -- ------<br>------- --- ------ ----- --- ---- ------- -- ---- --- --<br>------- ------",167728,167733,167401,167399,167417,167757,,16,"1727,"
screen,html.Screen,2_1_1_1_17,2022-02-02T13:50:06.296Z,,,,,,,,,,,,,,,,,54,,,,,,,,,,,,,,754,,response,,,,100,,,,,,,Space,keypress(Space),,,,,,,,-- --- ---- --- ------ ----- ------- ---- -- --- ------- --<br>------- ---------- ------ -- ----- in ----- -- ---- ------<br>--- ----- --- --- ------ -------- ----- --- ------ ----- --<br>----- ----- ---------- --- --- ------ ------ ---- -- ------<br>------- --- ------ ----- --- ---- ------- -- ---- --- --<br>------- ------,168489,168494,167740,167729,167757,168527,,17,in
screen,html.Screen,2_1_1_1_18,2022-02-02T13:50:06.880Z,,,,,,,,,,,,,,,,,54,,,,,,,,,,,,,,567,,response,,,,100,,,,,,,Space,keypress(Space),,,,,,,,-- --- ---- --- ------ ----- ------- ---- -- --- ------- --<br>------- ---------- ------ -- ----- -- order -- ---- ------<br>--- ----- --- --- ------ -------- ----- --- ------ ----- --<br>----- ----- ---------- --- --- ------ ------ ---- -- ------<br>------- --- ------ ----- --- ---- ------- -- ---- --- --<br>------- ------,169073,169078,168511,168489,168527,169114,,18,order
screen,html.Screen,2_1_1_1_19,2022-02-02T13:50:07.242Z,,,,,,,,,,,,,,,,,54,,,,,,,,,,,,,,341,,response,,,,100,,,,,,,Space,keypress(Space),,,,,,,,-- --- ---- --- ------ ----- ------- ---- -- --- ------- --<br>------- ---------- ------ -- ----- -- ----- to ---- ------<br>--- ----- --- --- ------ -------- ----- --- ------ ----- --<br>----- ----- ---------- --- --- ------ ------ ---- -- ------<br>------- --- ------ ----- --- ---- ------- -- ---- --- --<br>------- ------,169435,169440,169099,169073,169114,169453,,19,to
screen,html.Screen,2_1_1_1_20,2022-02-02T13:50:07.590Z,,,,,,,,,,,,,,,,,54,,,,,,,,,,,,,,352,,response,,,,100,,,,,,,Space,keypress(Space),,,,,,,,-- --- ---- --- ------ ----- ------- ---- -- --- ------- --<br>------- ---------- ------ -- ----- -- ----- -- save ------<br>--- ----- --- --- ------ -------- ----- --- ------ ----- --<br>----- ----- ---------- --- --- ------ ------ ---- -- ------<br>------- --- ------ ----- --- ---- ------- -- ---- --- --<br>------- ------,169783.00000000003,169788,169436,169435,169453,169809,,20,save
screen,html.Screen,2_1_1_1_21,2022-02-02T13:50:07.947Z,,,,,,,,,,,,,,,,,54,,,,,,,,,,,,,,354,,response,,,,100,,,,,,,Space,keypress(Space),,,,,,,,"-- --- ---- --- ------ ----- ------- ---- -- --- ------- --<br>------- ---------- ------ -- ----- -- ----- -- ---- money,<br>--- ----- --- --- ------ -------- ----- --- ------ ----- --<br>----- ----- ---------- --- --- ------ ------ ---- -- ------<br>------- --- ------ ----- --- ---- ------- -- ---- --- --<br>------- ------",170140.00000000003,170145,169791,169783.00000000003,169809,170162,,21,"money,"
screen,html.Screen,2_1_1_1_22,2022-02-02T13:50:08.371Z,,,,,,,,,,,,,,,,,54,,,,,,,,,,,,,,423.0000000000291,,response,,,,100,,,,,,,Space,keypress(Space),,,,,,,,-- --- ---- --- ------ ----- ------- ---- -- --- ------- --<br>------- ---------- ------ -- ----- -- ----- -- ---- ------<br>the ----- --- --- ------ -------- ----- --- ------ ----- --<br>----- ----- ---------- --- --- ------ ------ ---- -- ------<br>------- --- ------ ----- --- ---- ------- -- ---- --- --<br>------- ------,170564,170569.00000000003,170146,170140.00000000003,170162,170600,,22,the
screen,html.Screen,2_1_1_1_23,2022-02-02T13:50:08.698Z,,,,,,,,,,,,,,,,,54,,,,,,,,,,,,,,313.0000000000291,,response,,,,100,,,,,,,Space,keypress(Space),,,,,,,,-- --- ---- --- ------ ----- ------- ---- -- --- ------- --<br>------- ---------- ------ -- ----- -- ----- -- ---- ------<br>--- state --- --- ------ -------- ----- --- ------ ----- --<br>----- ----- ---------- --- --- ------ ------ ---- -- ------<br>------- --- ------ ----- --- ---- ------- -- ---- --- --<br>------- ------,170891,170896.00000000003,170583,170564,170600,170921,,23,state
screen,html.Screen,2_1_1_1_24,2022-02-02T13:50:09.049Z,,,,,,,,,,,,,,,,,54,,,,,,,,,,,,,,344,,response,,,,100,,,,,,,Space,keypress(Space),,,,,,,,-- --- ---- --- ------ ----- ------- ---- -- --- ------- --<br>------- ---------- ------ -- ----- -- ----- -- ---- ------<br>--- ----- cut --- ------ -------- ----- --- ------ ----- --<br>----- ----- ---------- --- --- ------ ------ ---- -- ------<br>------- --- ------ ----- --- ---- ------- -- ---- --- --<br>------- ------,171242,171247,170903,170891,170921,171274,,24,cut
screen,html.Screen,2_1_1_1_25,2022-02-02T13:50:09.402Z,,,,,,,,,,,,,,,,,54,,,,,,,,,,,,,,342,,response,,,,100,,,,,,,Space,keypress(Space),,,,,,,,-- --- ---- --- ------ ----- ------- ---- -- --- ------- --<br>------- ---------- ------ -- ----- -- ----- -- ---- ------<br>--- ----- --- the ------ -------- ----- --- ------ ----- --<br>----- ----- ---------- --- --- ------ ------ ---- -- ------<br>------- --- ------ ----- --- ---- ------- -- ---- --- --<br>------- ------,171595,171600,171258,171242,171274,171628,,25,the
screen,html.Screen,2_1_1_1_26,2022-02-02T13:50:09.724Z,,,,,,,,,,,,,,,,,54,,,,,,,,,,,,,,310,,response,,,,100,,,,,,,Space,keypress(Space),,,,,,,,-- --- ---- --- ------ ----- ------- ---- -- --- ------- --<br>------- ---------- ------ -- ----- -- ----- -- ---- ------<br>--- ----- --- --- bonds' -------- ----- --- ------ ----- --<br>----- ----- ---------- --- --- ------ ------ ---- -- ------<br>------- --- ------ ----- --- ---- ------- -- ---- --- --<br>------- ------,171917,171922,171612,171595,171628,171950,,26,bonds'
screen,html.Screen,2_1_1_1_27,2022-02-02T13:50:10.158Z,,,,,,,,,,,,,,,,,54,,,,,,,,,,,,,,423,,response,,,,100,,,,,,,Space,keypress(Space),,,,,,,,-- --- ---- --- ------ ----- ------- ---- -- --- ------- --<br>------- ---------- ------ -- ----- -- ----- -- ---- ------<br>--- ----- --- --- ------ interest ----- --- ------ ----- --<br>----- ----- ---------- --- --- ------ ------ ---- -- ------<br>------- --- ------ ----- --- ---- ------- -- ---- --- --<br>------- ------,172351,172356,171933,171917,171950,172386,,27,interest
screen,html.Screen,2_1_1_1_28,2022-02-02T13:50:10.542Z,,,,,,,,,,,,,,,,,54,,,,,,,,,,,,,,370,,response,,,,100,,,,,,,Space,keypress(Space),,,,,,,,-- --- ---- --- ------ ----- ------- ---- -- --- ------- --<br>------- ---------- ------ -- ----- -- ----- -- ---- ------<br>--- ----- --- --- ------ -------- rate. --- ------ ----- --<br>----- ----- ---------- --- --- ------ ------ ---- -- ------<br>------- --- ------ ----- --- ---- ------- -- ---- --- --<br>------- ------,172735,172740,172370,172351,172386,172757,,28,rate.
screen,html.Screen,2_1_1_1_29,2022-02-02T13:50:10.890Z,,,,,,,,,,,,,,,,,54,,,,,,,,,,,,,,348,,response,,,,100,,,,,,,Space,keypress(Space),,,,,,,,-- --- ---- --- ------ ----- ------- ---- -- --- ------- --<br>------- ---------- ------ -- ----- -- ----- -- ---- ------<br>--- ----- --- --- ------ -------- ----- The ------ ----- --<br>----- ----- ---------- --- --- ------ ------ ---- -- ------<br>------- --- ------ ----- --- ---- ------- -- ---- --- --<br>------- ------,173083,173088,172740,172735,172757,173112,,29,The
screen,html.Screen,2_1_1_1_30,2022-02-02T13:50:11.376Z,,,,,,,,,,,,,,,,,54,,,,,,,,,,,,,,479,,response,,,,100,,,,,,,Space,keypress(Space),,,,,,,,-- --- ---- --- ------ ----- ------- ---- -- --- ------- --<br>------- ---------- ------ -- ----- -- ----- -- ---- ------<br>--- ----- --- --- ------ -------- ----- --- market ----- --<br>----- ----- ---------- --- --- ------ ------ ---- -- ------<br>------- --- ------ ----- --- ---- ------- -- ---- --- --<br>------- ------,173569.00000000003,173574,173095,173083,173112,173598,,30,market
screen,html.Screen,2_1_1_1_31,2022-02-02T13:50:11.684Z,,,,,,,,,,,,,,,,,54,,,,,,,,,,,,,,300,,response,,,,100,,,,,,,Space,keypress(Space),,,,,,,,-- --- ---- --- ------ ----- ------- ---- -- --- ------- --<br>------- ---------- ------ -- ----- -- ----- -- ---- ------<br>--- ----- --- --- ------ -------- ----- --- ------ value --<br>----- ----- ---------- --- --- ------ ------ ---- -- ------<br>------- --- ------ ----- --- ---- ------- -- ---- --- --<br>------- ------,173877,173882,173582,173569.00000000003,173598,173904,,31,value
screen,html.Screen,2_1_1_1_32,2022-02-02T13:50:12.020Z,,,,,,,,,,,,,,,,,54,,,,,,,,,,,,,,332.0000000000291,,response,,,,100,,,,,,,Space,keypress(Space),,,,,,,,-- --- ---- --- ------ ----- ------- ---- -- --- ------- --<br>------- ---------- ------ -- ----- -- ----- -- ---- ------<br>--- ----- --- --- ------ -------- ----- --- ------ ----- of<br>----- ----- ---------- --- --- ------ ------ ---- -- ------<br>------- --- ------ ----- --- ---- ------- -- ---- --- --<br>------- ------,174213,174218.00000000003,173886,173877,173904,174240,,32,of
screen,html.Screen,2_1_1_1_33,2022-02-02T13:50:12.343Z,,,,,,,,,,,,,,,,,54,,,,,,,,,,,,,,317,,response,,,,100,,,,,,,Space,keypress(Space),,,,,,,,-- --- ---- --- ------ ----- ------- ---- -- --- ------- --<br>------- ---------- ------ -- ----- -- ----- -- ---- ------<br>--- ----- --- --- ------ -------- ----- --- ------ ----- --<br>these ----- ---------- --- --- ------ ------ ---- -- ------<br>------- --- ------ ----- --- ---- ------- -- ---- --- --<br>------- ------,174536,174541,174224,174213,174240,174561,,33,these
screen,html.Screen,2_1_1_1_34,2022-02-02T13:50:12.626Z,,,,,,,,,,,,,,,,,54,,,,,,,,,,,,,,279,,response,,,,100,,,,,,,Space,keypress(Space),,,,,,,,-- --- ---- --- ------ ----- ------- ---- -- --- ------- --<br>------- ---------- ------ -- ----- -- ----- -- ---- ------<br>--- ----- --- --- ------ -------- ----- --- ------ ----- --<br>----- bonds ---------- --- --- ------ ------ ---- -- ------<br>------- --- ------ ----- --- ---- ------- -- ---- --- --<br>------- ------,174818,174824,174545,174536,174561,174849,,34,bonds
screen,html.Screen,2_1_1_1_35,2022-02-02T13:50:13.145Z,,,,,,,,,,,,,,,,,54,,,,,,,,,,,,,,510.0000000000291,,response,,,,100,,,,,,,Space,keypress(Space),,,,,,,,"-- --- ---- --- ------ ----- ------- ---- -- --- ------- --<br>------- ---------- ------ -- ----- -- ----- -- ---- ------<br>--- ----- --- --- ------ -------- ----- --- ------ ----- --<br>----- ----- plummeted, --- --- ------ ------ ---- -- ------<br>------- --- ------ ----- --- ---- ------- -- ---- --- --<br>------- ------",175338,175343.00000000003,174833,174819.00000000003,174849,175370,,35,"plummeted,"
screen,html.Screen,2_1_1_1_36,2022-02-02T13:50:13.450Z,,,,,,,,,,,,,,,,,54,,,,,,,,,,,,,,294,,response,,,,100,,,,,,,Space,keypress(Space),,,,,,,,-- --- ---- --- ------ ----- ------- ---- -- --- ------- --<br>------- ---------- ------ -- ----- -- ----- -- ---- ------<br>--- ----- --- --- ------ -------- ----- --- ------ ----- --<br>----- ----- ---------- and --- ------ ------ ---- -- ------<br>------- --- ------ ----- --- ---- ------- -- ---- --- --<br>------- ------,175642,175648,175354,175338,175370,175674,,36,and
screen,html.Screen,2_1_1_1_37,2022-02-02T13:50:13.779Z,,,,,,,,,,,,,,,,,54,,,,,,,,,,,,,,320,,response,,,,100,,,,,,,Space,keypress(Space),,,,,,,,-- --- ---- --- ------ ----- ------- ---- -- --- ------- --<br>------- ---------- ------ -- ----- -- ----- -- ---- ------<br>--- ----- --- --- ------ -------- ----- --- ------ ----- --<br>----- ----- ---------- --- the ------ ------ ---- -- ------<br>------- --- ------ ----- --- ---- ------- -- ---- --- --<br>------- ------,175972,175977,175657,175643,175674,175995,,37,the
screen,html.Screen,2_1_1_1_38,2022-02-02T13:50:14.205Z,,,,,,,,,,,,,,,,,54,,,,,,,,,,,,,,425,,response,,,,100,,,,,,,Space,keypress(Space),,,,,,,,-- --- ---- --- ------ ----- ------- ---- -- --- ------- --<br>------- ---------- ------ -- ----- -- ----- -- ---- ------<br>--- ----- --- --- ------ -------- ----- --- ------ ----- --<br>----- ----- ---------- --- --- market ------ ---- -- ------<br>------- --- ------ ----- --- ---- ------- -- ---- --- --<br>------- ------,176398,176403,175978,175972,175995,176433,,38,market
screen,html.Screen,2_1_1_1_39,2022-02-02T13:50:14.500Z,,,,,,,,,,,,,,,,,54,,,,,,,,,,,,,,281,,response,,,,100,,,,,,,Space,keypress(Space),,,,,,,,-- --- ---- --- ------ ----- ------- ---- -- --- ------- --<br>------- ---------- ------ -- ----- -- ----- -- ---- ------<br>--- ----- --- --- ------ -------- ----- --- ------ ----- --<br>----- ----- ---------- --- --- ------ became ---- -- ------<br>------- --- ------ ----- --- ---- ------- -- ---- --- --<br>------- ------,176692,176698,176417,176398,176433,176721,,39,became
screen,html.Screen,2_1_1_1_40,2022-02-02T13:50:14.879Z,,,,,,,,,,,,,,,,,54,,,,,,,,,,,,,,374,,response,,,,100,,,,,,,Space,keypress(Space),,,,,,,,-- --- ---- --- ------ ----- ------- ---- -- --- ------- --<br>------- ---------- ------ -- ----- -- ----- -- ---- ------<br>--- ----- --- --- ------ -------- ----- --- ------ ----- --<br>----- ----- ---------- --- --- ------ ------ wary -- ------<br>------- --- ------ ----- --- ---- ------- -- ---- --- --<br>------- ------,177072,177077,176703,176693,176721,177091,,40,wary
screen,html.Screen,2_1_1_1_41,2022-02-02T13:50:15.225Z,,,,,,,,,,,,,,,,,54,,,,,,,,,,,,,,349,,response,,,,100,,,,,,,Space,keypress(Space),,,,,,,,-- --- ---- --- ------ ----- ------- ---- -- --- ------- --<br>------- ---------- ------ -- ----- -- ----- -- ---- ------<br>--- ----- --- --- ------ -------- ----- --- ------ ----- --<br>----- ----- ---------- --- --- ------ ------ ---- of ------<br>------- --- ------ ----- --- ---- ------- -- ---- --- --<br>------- ------,177417,177423,177074,177072,177091,177446,,41,of
screen,html.Screen,2_1_1_1_42,2022-02-02T13:50:15.580Z,,,,,,,,,,,,,,,,,54,,,,,,,,,,,,,,349,,response,,,,100,,,,,,,Space,keypress(Space),,,,,,,,-- --- ---- --- ------ ----- ------- ---- -- --- ------- --<br>------- ---------- ------ -- ----- -- ----- -- ---- ------<br>--- ----- --- --- ------ -------- ----- --- ------ ----- --<br>----- ----- ---------- --- --- ------ ------ ---- -- French<br>------- --- ------ ----- --- ---- ------- -- ---- --- --<br>------- ------,177773,177778,177429,177418,177446,177800,,42,French
screen,html.Screen,2_1_1_1_43,2022-02-02T13:50:15.897Z,,,,,,,,,,,,,,,,,54,,,,,,,,,,,,,,312,,response,,,,100,,,,,,,Space,keypress(Space),,,,,,,,-- --- ---- --- ------ ----- ------- ---- -- --- ------- --<br>------- ---------- ------ -- ----- -- ----- -- ---- ------<br>--- ----- --- --- ------ -------- ----- --- ------ ----- --<br>----- ----- ---------- --- --- ------ ------ ---- -- ------<br>credit. --- ------ ----- --- ---- ------- -- ---- --- --<br>------- ------,178089,178095,177783,177773,177800,178120,,43,credit.
screen,html.Screen,2_1_1_1_44,2022-02-02T13:50:16.250Z,,,,,,,,,,,,,,,,,54,,,,,,,,,,,,,,345,,response,,,,100,,,,,,,Space,keypress(Space),,,,,,,,-- --- ---- --- ------ ----- ------- ---- -- --- ------- --<br>------- ---------- ------ -- ----- -- ----- -- ---- ------<br>--- ----- --- --- ------ -------- ----- --- ------ ----- --<br>----- ----- ---------- --- --- ------ ------ ---- -- ------<br>------- The ------ ----- --- ---- ------- -- ---- --- --<br>------- ------,178442,178448,178103,178090,178120,178475,,44,The
screen,html.Screen,2_1_1_1_45,2022-02-02T13:50:16.696Z,,,,,,,,,,,,,,,,,54,,,,,,,,,,,,,,436,,response,,,,100,,,,,,,Space,keypress(Space),,,,,,,,-- --- ---- --- ------ ----- ------- ---- -- --- ------- --<br>------- ---------- ------ -- ----- -- ----- -- ---- ------<br>--- ----- --- --- ------ -------- ----- --- ------ ----- --<br>----- ----- ---------- --- --- ------ ------ ---- -- ------<br>------- --- French ----- --- ---- ------- -- ---- --- --<br>------- ------,178889,178894,178458,178443,178475,178929,,45,French
screen,html.Screen,2_1_1_1_46,2022-02-02T13:50:16.976Z,,,,,,,,,,,,,,,,,54,,,,,,,,,,,,,,262,,response,,,,100,,,,,,,Space,keypress(Space),,,,,,,,-- --- ---- --- ------ ----- ------- ---- -- --- ------- --<br>------- ---------- ------ -- ----- -- ----- -- ---- ------<br>--- ----- --- --- ------ -------- ----- --- ------ ----- --<br>----- ----- ---------- --- --- ------ ------ ---- -- ------<br>------- --- ------ state --- ---- ------- -- ---- --- --<br>------- ------,179168,179174,178912,178889,178929,179200,,46,state
screen,html.Screen,2_1_1_1_47,2022-02-02T13:50:17.287Z,,,,,,,,,,,,,,,,,54,,,,,,,,,,,,,,302,,response,,,,100,,,,,,,Space,keypress(Space),,,,,,,,-- --- ---- --- ------ ----- ------- ---- -- --- ------- --<br>------- ---------- ------ -- ----- -- ----- -- ---- ------<br>--- ----- --- --- ------ -------- ----- --- ------ ----- --<br>----- ----- ---------- --- --- ------ ------ ---- -- ------<br>------- --- ------ ----- was ---- ------- -- ---- --- --<br>------- ------,179480,179485,179183,179169,179200,179505,,47,was
screen,html.Screen,2_1_1_1_48,2022-02-02T13:50:17.613Z,,,,,,,,,,,,,,,,,54,,,,,,,,,,,,,,323,,response,,,,100,,,,,,,Space,keypress(Space),,,,,,,,-- --- ---- --- ------ ----- ------- ---- -- --- ------- --<br>------- ---------- ------ -- ----- -- ----- -- ---- ------<br>--- ----- --- --- ------ -------- ----- --- ------ ----- --<br>----- ----- ---------- --- --- ------ ------ ---- -- ------<br>------- --- ------ ----- --- left ------- -- ---- --- --<br>------- ------,179806,179811,179488,179480,179505,179826,,48,left
screen,html.Screen,2_1_1_1_49,2022-02-02T13:50:18.003Z,,,,,,,,,,,,,,,,,54,,,,,,,,,,,,,,392,,response,,,,100,,,,,,,Space,keypress(Space),,,,,,,,-- --- ---- --- ------ ----- ------- ---- -- --- ------- --<br>------- ---------- ------ -- ----- -- ----- -- ---- ------<br>--- ----- --- --- ------ -------- ----- --- ------ ----- --<br>----- ----- ---------- --- --- ------ ------ ---- -- ------<br>------- --- ------ ----- --- ---- without -- ---- --- --<br>------- ------,180196,180201,179809,179806,179826,180230,,49,without
screen,html.Screen,2_1_1_1_50,2022-02-02T13:50:18.343Z,,,,,,,,,,,,,,,,,54,,,,,,,,,,,,,,329,,response,,,,100,,,,,,,Space,keypress(Space),,,,,,,,-- --- ---- --- ------ ----- ------- ---- -- --- ------- --<br>------- ---------- ------ -- ----- -- ----- -- ---- ------<br>--- ----- --- --- ------ -------- ----- --- ------ ----- --<br>----- ----- ---------- --- --- ------ ------ ---- -- ------<br>------- --- ------ ----- --- ---- ------- an ---- --- --<br>------- ------,180535,180541,180212,180196,180230,180568,,50,an
screen,html.Screen,2_1_1_1_51,2022-02-02T13:50:18.687Z,,,,,,,,,,,,,,,,,54,,,,,,,,,,,,,,334,,response,,,,100,,,,,,,Space,keypress(Space),,,,,,,,-- --- ---- --- ------ ----- ------- ---- -- --- ------- --<br>------- ---------- ------ -- ----- -- ----- -- ---- ------<br>--- ----- --- --- ------ -------- ----- --- ------ ----- --<br>----- ----- ---------- --- --- ------ ------ ---- -- ------<br>------- --- ------ ----- --- ---- ------- -- easy --- --<br>------- ------,180879,180885,180551,180536,180568,180905,,51,easy
screen,html.Screen,2_1_1_1_52,2022-02-02T13:50:19.029Z,,,,,,,,,,,,,,,,,54,,,,,,,,,,,,,,339,,response,,,,100,,,,,,,Space,keypress(Space),,,,,,,,-- --- ---- --- ------ ----- ------- ---- -- --- ------- --<br>------- ---------- ------ -- ----- -- ----- -- ---- ------<br>--- ----- --- --- ------ -------- ----- --- ------ ----- --<br>----- ----- ---------- --- --- ------ ------ ---- -- ------<br>------- --- ------ ----- --- ---- ------- -- ---- way --<br>------- ------,181221,181227,180888,180880,180905,181242,,52,way
screen,html.Screen,2_1_1_1_53,2022-02-02T13:50:19.457Z,,,,,,,,,,,,,,,,,54,,,,,,,,,,,,,,429,,response,,,,100,,,,,,,Space,keypress(Space),,,,,,,,-- --- ---- --- ------ ----- ------- ---- -- --- ------- --<br>------- ---------- ------ -- ----- -- ----- -- ---- ------<br>--- ----- --- --- ------ -------- ----- --- ------ ----- --<br>----- ----- ---------- --- --- ------ ------ ---- -- ------<br>------- --- ------ ----- --- ---- ------- -- ---- --- of<br>------- ------,181649,181655,181226,181222,181242,181679,,53,of
screen,html.Screen,2_1_1_1_54,2022-02-02T13:50:19.838Z,,,,,,,,,,,,,,,,,54,,,,,,,,,,,,,,374,,response,,,,100,,,,,,,Space,keypress(Space),,,,,,,,-- --- ---- --- ------ ----- ------- ---- -- --- ------- --<br>------- ---------- ------ -- ----- -- ----- -- ---- ------<br>--- ----- --- --- ------ -------- ----- --- ------ ----- --<br>----- ----- ---------- --- --- ------ ------ ---- -- ------<br>------- --- ------ ----- --- ---- ------- -- ---- --- --<br>raising ------,182031,182037,181663,181650,181679,182050,,54,raising
screen,html.Screen,2_1_1_1_55,2022-02-02T13:50:20.190Z,,,,,,,,,,,,,,,,,54,,,,,,,,,,,,,,354,,response,,,,100,,,,,,,Space,keypress(Space),,,,,,,,-- --- ---- --- ------ ----- ------- ---- -- --- ------- --<br>------- ---------- ------ -- ----- -- ----- -- ---- ------<br>--- ----- --- --- ------ -------- ----- --- ------ ----- --<br>----- ----- ---------- --- --- ------ ------ ---- -- ------<br>------- --- ------ ----- --- ---- ------- -- ---- --- --<br>------- money.,182383,182389,182035,182031,182050,182405,,55,money.
Item 100,flow.Loop,2_1_1_1,2022-02-02T13:50:20.191Z,,,,,,,,,,,,,,,,,,,,,,,,,,,,,,,22827,,completion,,,,,B,,,,,,,,,,,silence,,,,,182384,182389,159546,159546,159562,182405,,,
Question 1,html.Screen,2_1_1_2,2022-02-02T13:50:22.597Z,,,,,,,,,,,,,,,,,,,,,,,,,,,,true,TRUE,,2406,,response,,,,100,B,,,,,,TRUE,click #choice-1,,,,silence,,,,,184789.00000000003,184794,182388,182384,182405,184816,,,
Question 2,html.Screen,2_1_1_3,2022-02-02T13:50:24.456Z,,,,,,,,,,,,,,,,,,,,,,,,,,,,true,FALSE,,1854,,response,,,,100,B,,,,,,FALSE,click #choice-2,,,,silence,,,,,186649,186654,184800,184790,184816,186682,,,
Item 100,flow.Sequence,2_1_1,2022-02-02T13:50:24.456Z,,,,,,,,,,,,,,,,,,,,,,,,,,,,,,,37089,,completion,,,,,,,,,,,,,,,,,,,,,186649,186654,149546,149543,149565,186682,,,
End of Practice,html.Page,2_1_2,2022-02-02T13:50:27.699Z,,,,,,,,,,,,,,,,,,,,,,,,,,,,,,,3210,,form submission,,,,,,,,,,,,,,,,,,,,,189892,189892,186665,186649,186682,189913,,,
Practice,flow.Sequence,2_1,2022-02-02T13:50:27.699Z,,,,,,,,,,,,,,,,,,,,,,,,,,,,,,,89600,,completion,,,,,,,,,,,,,,,,,,,,,189892,189892,100275,100266,100292,189913,,,
Trap_instruction,html.Page,2_2_0,2022-02-02T13:50:31.187Z,,,,,,,,,,,,,,,,,,,,,,,,,,,,,,,3467,,form submission,,,,,,,,,,,,,,,,,,,,,193380,193380,189896,189893,189913,193403,,,
trap_trial,html.Screen,2_2_1,2022-02-02T13:50:37.181Z,,,,,,,,,,,,,,,,,,,,,,,,,,,,true,1,,5990,,response,,,,,,,,,,,1,click #choice-1,,,,,,,,,199374,199380,193390,193381,193403,199415,,,
end of trap trial,html.Page,2_2_2,2022-02-02T13:50:38.915Z,,,,,,,,,,,,,,,,,,,,,,,,,,,,,,,1693,,form submission,,,,,,,,,,,,,,,,,,,,,201108,201108,199412,199374,199415,201142,,,
Trap 1,flow.Sequence,2_2,2022-02-02T13:50:38.915Z,,,,,,,,,,,,,,,,,,,,,,,,,,,,,,,11195,,completion,,,,,,,,,,,,,,,,,,,,,201109,201108,189896,189893,189913,201142,,,
Standby,html.Page,2_3_0,2022-02-02T13:50:46.934Z,,,,,,,,,,,,,,,,,,,,,,,,,,,,,,,8000,,timeout,,,,,,,,,,,,,,,,,,,,,209127,209126,201126,201109,201142,209142,,,
Holding screen,html.Screen,2_3_1_0_0,2022-02-02T13:50:53.934Z,,,,,,,,,,,,,,,,,,,,,,,,,,,,,,,7003,,timeout,,,,,,,,,,,,,,,,,,,,,216127,216127,209126,209127,209142,216145,,,
screen,html.Screen,2_3_1_0_1_0,2022-02-02T13:50:55.122Z,,,,,,,,,,,,,,,,,48,,,,,,,,,,,,,,1194,,response,,,,10,B,,,,,,Space,keypress(Space),,,,lyrical,,,,As -- --- ------ ------- --------- ----------- --------<br>--------- -------- --- ------- -- ------- ---- -- ------<br>-- --- -------- -------- ---------- ---- ---- ---- ------<br>-- --------- -- ---- -- --- -- --- ------- -- - -----<br>---------- -- -- -- ---- ----- -- ------ -- --- ------<br>-------,217316,217321,216127,216127,216145,217348,,0,As
screen,html.Screen,2_3_1_0_1_1,2022-02-02T13:50:55.646Z,,,,,,,,,,,,,,,,,48,,,,,,,,,,,,,,515,,response,,,,10,B,,,,,,Space,keypress(Space),,,,lyrical,,,,-- in --- ------ ------- --------- ----------- --------<br>--------- -------- --- ------- -- ------- ---- -- ------<br>-- --- -------- -------- ---------- ---- ---- ---- ------<br>-- --------- -- ---- -- --- -- --- ------- -- - -----<br>---------- -- -- -- ---- ----- -- ------ -- --- ------<br>-------,217840,217846,217331,217316,217348,217870,,1,in
screen,html.Screen,2_3_1_0_1_2,2022-02-02T13:50:56.030Z,,,,,,,,,,,,,,,,,48,,,,,,,,,,,,,,376.0000000000291,,response,,,,10,B,,,,,,Space,keypress(Space),,,,lyrical,,,,-- -- the ------ ------- --------- ----------- --------<br>--------- -------- --- ------- -- ------- ---- -- ------<br>-- --- -------- -------- ---------- ---- ---- ---- ------<br>-- --------- -- ---- -- --- -- --- ------- -- - -----<br>---------- -- -- -- ---- ----- -- ------ -- --- ------<br>-------,218224.00000000003,218230.00000000003,217854,217840,217870,218258,,2,the
screen,html.Screen,2_3_1_0_1_3,2022-02-02T13:50:56.467Z,,,,,,,,,,,,,,,,,48,,,,,,,,,,,,,,426,,response,,,,10,B,,,,,,Space,keypress(Space),,,,lyrical,,,,-- -- --- United ------- --------- ----------- --------<br>--------- -------- --- ------- -- ------- ---- -- ------<br>-- --- -------- -------- ---------- ---- ---- ---- ------<br>-- --------- -- ---- -- --- -- --- ------- -- - -----<br>---------- -- -- -- ---- ----- -- ------ -- --- ------<br>-------,218661,218667,218241,218224.00000000003,218258,218696,,3,United
screen,html.Screen,2_3_1_0_1_4,2022-02-02T13:50:57.004Z,,,,,,,,,,,,,,,,,48,,,,,,,,,,,,,,525,,response,,,,10,B,,,,,,Space,keypress(Space),,,,lyrical,,,,"-- -- --- ------ States, --------- ----------- --------<br>--------- -------- --- ------- -- ------- ---- -- ------<br>-- --- -------- -------- ---------- ---- ---- ---- ------<br>-- --------- -- ---- -- --- -- --- ------- -- - -----<br>---------- -- -- -- ---- ----- -- ------ -- --- ------<br>-------",219198,219204,218679,218661,218696,219232,,4,"States,"
screen,html.Screen,2_3_1_0_1_5,2022-02-02T13:50:57.475Z,,,,,,,,,,,,,,,,,48,,,,,,,,,,,,,,458,,response,,,,10,B,,,,,,Space,keypress(Space),,,,lyrical,,,,-- -- --- ------ ------- Colombian ----------- --------<br>--------- -------- --- ------- -- ------- ---- -- ------<br>-- --- -------- -------- ---------- ---- ---- ---- ------<br>-- --------- -- ---- -- --- -- --- ------- -- - -----<br>---------- -- -- -- ---- ----- -- ------ -- --- ------<br>-------,219669,219675,219217,219198,219232,219703,,5,Colombian
screen,html.Screen,2_3_1_0_1_6,2022-02-02T13:50:57.945Z,,,,,,,,,,,,,,,,,48,,,,,,,,,,,,,,458,,response,,,,10,B,,,,,,Space,keypress(Space),,,,lyrical,,,,-- -- --- ------ ------- --------- legislation --------<br>--------- -------- --- ------- -- ------- ---- -- ------<br>-- --- -------- -------- ---------- ---- ---- ---- ------<br>-- --------- -- ---- -- --- -- --- ------- -- - -----<br>---------- -- -- -- ---- ----- -- ------ -- --- ------<br>-------,220139,220145,219687,219669,219703,220174,,6,legislation
screen,html.Screen,2_3_1_0_1_7,2022-02-02T13:50:58.453Z,,,,,,,,,,,,,,,,,48,,,,,,,,,,,,,,495,,response,,,,10,B,,,,,,Space,keypress(Space),,,,lyrical,,,,-- -- --- ------ ------- --------- ----------- requires<br>--------- -------- --- ------- -- ------- ---- -- ------<br>-- --- -------- -------- ---------- ---- ---- ---- ------<br>-- --------- -- ---- -- --- -- --- ------- -- - -----<br>---------- -- -- -- ---- ----- -- ------ -- --- ------<br>-------,220647,220653,220158,220139,220174,220678,,7,requires
screen,html.Screen,2_3_1_0_1_8,2022-02-02T13:50:58.942Z,,,,,,,,,,,,,,,,,48,,,,,,,,,,,,,,480,,response,,,,10,B,,,,,,Space,keypress(Space),,,,lyrical,,,,-- -- --- ------ ------- --------- ----------- --------<br>travelers -------- --- ------- -- ------- ---- -- ------<br>-- --- -------- -------- ---------- ---- ---- ---- ------<br>-- --------- -- ---- -- --- -- --- ------- -- - -----<br>---------- -- -- -- ---- ----- -- ------ -- --- ------<br>-------,221136,221142,220662,220647,220678,221167,,8,travelers
screen,html.Screen,2_3_1_0_1_9,2022-02-02T13:50:59.373Z,,,,,,,,,,,,,,,,,48,,,,,,,,,,,,,,424,,response,,,,10,B,,,,,,Space,keypress(Space),,,,lyrical,,,,-- -- --- ------ ------- --------- ----------- --------<br>--------- entering --- ------- -- ------- ---- -- ------<br>-- --- -------- -------- ---------- ---- ---- ---- ------<br>-- --------- -- ---- -- --- -- --- ------- -- - -----<br>---------- -- -- -- ---- ----- -- ------ -- --- ------<br>-------,221567,221573,221149,221136,221167,221603,,9,entering
screen,html.Screen,2_3_1_0_1_10,2022-02-02T13:50:59.823Z,,,,,,,,,,,,,,,,,48,,,,,,,,,,,,,,436,,response,,,,10,B,,,,,,Space,keypress(Space),,,,lyrical,,,,-- -- --- ------ ------- --------- ----------- --------<br>--------- -------- the ------- -- ------- ---- -- ------<br>-- --- -------- -------- ---------- ---- ---- ---- ------<br>-- --------- -- ---- -- --- -- --- ------- -- - -----<br>---------- -- -- -- ---- ----- -- ------ -- --- ------<br>-------,222017,222023,221587,221567,221603,222057,,10,the
screen,html.Screen,2_3_1_0_1_11,2022-02-02T13:51:00.320Z,,,,,,,,,,,,,,,,,48,,,,,,,,,,,,,,480,,response,,,,10,B,,,,,,Space,keypress(Space),,,,lyrical,,,,-- -- --- ------ ------- --------- ----------- --------<br>--------- -------- --- country -- ------- ---- -- ------<br>-- --- -------- -------- ---------- ---- ---- ---- ------<br>-- --------- -- ---- -- --- -- --- ------- -- - -----<br>---------- -- -- -- ---- ----- -- ------ -- --- ------<br>-------,222514,222520,222040,222017,222057,222545,,11,country
screen,html.Screen,2_3_1_0_1_12,2022-02-02T13:51:00.707Z,,,,,,,,,,,,,,,,,48,,,,,,,,,,,,,,378,,response,,,,10,B,,,,,,Space,keypress(Space),,,,lyrical,,,,-- -- --- ------ ------- --------- ----------- --------<br>--------- -------- --- ------- to ------- ---- -- ------<br>-- --- -------- -------- ---------- ---- ---- ---- ------<br>-- --------- -- ---- -- --- -- --- ------- -- - -----<br>---------- -- -- -- ---- ----- -- ------ -- --- ------<br>-------,222901,222907,222529,222514,222545,222932,,12,to
screen,html.Screen,2_3_1_0_1_13,2022-02-02T13:51:01.206Z,,,,,,,,,,,,,,,,,48,,,,,,,,,,,,,,489,,response,,,,10,B,,,,,,Space,keypress(Space),,,,lyrical,,,,-- -- --- ------ ------- --------- ----------- --------<br>--------- -------- --- ------- -- declare ---- -- ------<br>-- --- -------- -------- ---------- ---- ---- ---- ------<br>-- --------- -- ---- -- --- -- --- ------- -- - -----<br>---------- -- -- -- ---- ----- -- ------ -- --- ------<br>-------,223399,223405,222916,222901,222932,223436,,13,declare
screen,html.Screen,2_3_1_0_1_14,2022-02-02T13:51:01.599Z,,,,,,,,,,,,,,,,,48,,,,,,,,,,,,,,379,,response,,,,10,B,,,,,,Space,keypress(Space),,,,lyrical,,,,-- -- --- ------ ------- --------- ----------- --------<br>--------- -------- --- ------- -- ------- cash -- ------<br>-- --- -------- -------- ---------- ---- ---- ---- ------<br>-- --------- -- ---- -- --- -- --- ------- -- - -----<br>---------- -- -- -- ---- ----- -- ------ -- --- ------<br>-------,223793,223799,223420,223399,223436,223824,,14,cash
screen,html.Screen,2_3_1_0_1_15,2022-02-02T13:51:01.964Z,,,,,,,,,,,,,,,,,48,,,,,,,,,,,,,,357.0000000000291,,response,,,,10,B,,,,,,Space,keypress(Space),,,,lyrical,,,,-- -- --- ------ ------- --------- ----------- --------<br>--------- -------- --- ------- -- ------- ---- in ------<br>-- --- -------- -------- ---------- ---- ---- ---- ------<br>-- --------- -- ---- -- --- -- --- ------- -- - -----<br>---------- -- -- -- ---- ----- -- ------ -- --- ------<br>-------,224158.00000000003,224164.00000000003,223807,223793,223824,224179,,15,in
screen,html.Screen,2_3_1_0_1_16,2022-02-02T13:51:02.374Z,,,,,,,,,,,,,,,,,48,,,,,,,,,,,,,,412,,response,,,,10,B,,,,,,Space,keypress(Space),,,,lyrical,,,,-- -- --- ------ ------- --------- ----------- --------<br>--------- -------- --- ------- -- ------- ---- -- excess<br>-- --- -------- -------- ---------- ---- ---- ---- ------<br>-- --------- -- ---- -- --- -- --- ------- -- - -----<br>---------- -- -- -- ---- ----- -- ------ -- --- ------<br>-------,224568,224574,224162,224158.00000000003,224179,224600,,16,excess
screen,html.Screen,2_3_1_0_1_17,2022-02-02T13:51:02.735Z,,,,,,,,,,,,,,,,,48,,,,,,,,,,,,,,351,,response,,,,10,B,,,,,,Space,keypress(Space),,,,lyrical,,,,-- -- --- ------ ------- --------- ----------- --------<br>--------- -------- --- ------- -- ------- ---- -- ------<br>of --- -------- -------- ---------- ---- ---- ---- ------<br>-- --------- -- ---- -- --- -- --- ------- -- - -----<br>---------- -- -- -- ---- ----- -- ------ -- --- ------<br>-------,224929,224935,224584,224568,224600,224955,,17,of
screen,html.Screen,2_3_1_0_1_18,2022-02-02T13:51:03.163Z,,,,,,,,,,,,,,,,,48,,,,,,,,,,,,,,424,,response,,,,10,B,,,,,,Space,keypress(Space),,,,lyrical,,,,-- -- --- ------ ------- --------- ----------- --------<br>--------- -------- --- ------- -- ------- ---- -- ------<br>-- ten -------- -------- ---------- ---- ---- ---- ------<br>-- --------- -- ---- -- --- -- --- ------- -- - -----<br>---------- -- -- -- ---- ----- -- ------ -- --- ------<br>-------,225357,225363,224939,224929,224955,225393,,18,ten
screen,html.Screen,2_3_1_0_1_19,2022-02-02T13:51:03.553Z,,,,,,,,,,,,,,,,,48,,,,,,,,,,,,,,377,,response,,,,10,B,,,,,,Space,keypress(Space),,,,lyrical,,,,-- -- --- ------ ------- --------- ----------- --------<br>--------- -------- --- ------- -- ------- ---- -- ------<br>-- --- thousand -------- ---------- ---- ---- ---- ------<br>-- --------- -- ---- -- --- -- --- ------- -- - -----<br>---------- -- -- -- ---- ----- -- ------ -- --- ------<br>-------,225747,225753,225376,225357,225393,225780,,19,thousand
screen,html.Screen,2_3_1_0_1_20,2022-02-02T13:51:03.942Z,,,,,,,,,,,,,,,,,48,,,,,,,,,,,,,,378,,response,,,,10,B,,,,,,Space,keypress(Space),,,,lyrical,,,,-- -- --- ------ ------- --------- ----------- --------<br>--------- -------- --- ------- -- ------- ---- -- ------<br>-- --- -------- dollars. ---------- ---- ---- ---- ------<br>-- --------- -- ---- -- --- -- --- ------- -- - -----<br>---------- -- -- -- ---- ----- -- ------ -- --- ------<br>-------,226136,226142,225764,225747,225780,226168,,20,dollars.
screen,html.Screen,2_3_1_0_1_21,2022-02-02T13:51:04.490Z,,,,,,,,,,,,,,,,,48,,,,,,,,,,,,,,538,,response,,,,10,B,,,,,,Space,keypress(Space),,,,lyrical,,,,-- -- --- ------ ------- --------- ----------- --------<br>--------- -------- --- ------- -- ------- ---- -- ------<br>-- --- -------- -------- Concealing ---- ---- ---- ------<br>-- --------- -- ---- -- --- -- --- ------- -- - -----<br>---------- -- -- -- ---- ----- -- ------ -- --- ------<br>-------,226684,226690,226152,226136,226168,226723,,21,Concealing
screen,html.Screen,2_3_1_0_1_22,2022-02-02T13:51:04.849Z,,,,,,,,,,,,,,,,,48,,,,,,,,,,,,,,342,,response,,,,10,B,,,,,,Space,keypress(Space),,,,lyrical,,,,-- -- --- ------ ------- --------- ----------- --------<br>--------- -------- --- ------- -- ------- ---- -- ------<br>-- --- -------- -------- ---------- more ---- ---- ------<br>-- --------- -- ---- -- --- -- --- ------- -- - -----<br>---------- -- -- -- ---- ----- -- ------ -- --- ------<br>-------,227043,227049,226707,226684,226723,227062,,22,more
screen,html.Screen,2_3_1_0_1_23,2022-02-02T13:51:05.282Z,,,,,,,,,,,,,,,,,48,,,,,,,,,,,,,,438,,response,,,,10,B,,,,,,Space,keypress(Space),,,,lyrical,,,,-- -- --- ------ ------- --------- ----------- --------<br>--------- -------- --- ------- -- ------- ---- -- ------<br>-- --- -------- -------- ---------- ---- than ---- ------<br>-- --------- -- ---- -- --- -- --- ------- -- - -----<br>---------- -- -- -- ---- ----- -- ------ -- --- ------<br>-------,227476,227482,227044,227043,227062,227515,,23,than
screen,html.Screen,2_3_1_0_1_24,2022-02-02T13:51:05.657Z,,,,,,,,,,,,,,,,,48,,,,,,,,,,,,,,357,,response,,,,10,B,,,,,,Space,keypress(Space),,,,lyrical,,,,-- -- --- ------ ------- --------- ----------- --------<br>--------- -------- --- ------- -- ------- ---- -- ------<br>-- --- -------- -------- ---------- ---- ---- that ------<br>-- --------- -- ---- -- --- -- --- ------- -- - -----<br>---------- -- -- -- ---- ----- -- ------ -- --- ------<br>-------,227851,227857,227500,227476,227515,227871,,24,that
screen,html.Screen,2_3_1_0_1_25,2022-02-02T13:51:05.967Z,,,,,,,,,,,,,,,,,48,,,,,,,,,,,,,,314,,response,,,,10,B,,,,,,Space,keypress(Space),,,,lyrical,,,,-- -- --- ------ ------- --------- ----------- --------<br>--------- -------- --- ------- -- ------- ---- -- ------<br>-- --- -------- -------- ---------- ---- ---- ---- amount<br>-- --------- -- ---- -- --- -- --- ------- -- - -----<br>---------- -- -- -- ---- ----- -- ------ -- --- ------<br>-------,228161,228167,227853,227851,227871,228193,,25,amount
screen,html.Screen,2_3_1_0_1_26,2022-02-02T13:51:06.321Z,,,,,,,,,,,,,,,,,48,,,,,,,,,,,,,,345.0000000000291,,response,,,,10,B,,,,,,Space,keypress(Space),,,,lyrical,,,,-- -- --- ------ ------- --------- ----------- --------<br>--------- -------- --- ------- -- ------- ---- -- ------<br>-- --- -------- -------- ---------- ---- ---- ---- ------<br>to --------- -- ---- -- --- -- --- ------- -- - -----<br>---------- -- -- -- ---- ----- -- ------ -- --- ------<br>-------,228515.00000000003,228521.00000000003,228176,228161,228193,228545,,26,to
screen,html.Screen,2_3_1_0_1_27,2022-02-02T13:51:06.691Z,,,,,,,,,,,,,,,,,48,,,,,,,,,,,,,,362,,response,,,,10,B,,,,,,Space,keypress(Space),,,,lyrical,,,,-- -- --- ------ ------- --------- ----------- --------<br>--------- -------- --- ------- -- ------- ---- -- ------<br>-- --- -------- -------- ---------- ---- ---- ---- ------<br>-- transport -- ---- -- --- -- --- ------- -- - -----<br>---------- -- -- -- ---- ----- -- ------ -- --- ------<br>-------,228885,228891,228529,228515.00000000003,228545,228917,,27,transport
screen,html.Screen,2_3_1_0_1_28,2022-02-02T13:51:07.077Z,,,,,,,,,,,,,,,,,48,,,,,,,,,,,,,,376.0000000000291,,response,,,,10,B,,,,,,Space,keypress(Space),,,,lyrical,,,,-- -- --- ------ ------- --------- ----------- --------<br>--------- -------- --- ------- -- ------- ---- -- ------<br>-- --- -------- -------- ---------- ---- ---- ---- ------<br>-- --------- it ---- -- --- -- --- ------- -- - -----<br>---------- -- -- -- ---- ----- -- ------ -- --- ------<br>-------,229271.00000000003,229277.00000000003,228901,228885,228917,229304,,28,it
screen,html.Screen,2_3_1_0_1_29,2022-02-02T13:51:07.676Z,,,,,,,,,,,,,,,,,48,,,,,,,,,,,,,,589,,response,,,,10,B,,,,,,Space,keypress(Space),,,,lyrical,,,,-- -- --- ------ ------- --------- ----------- --------<br>--------- -------- --- ------- -- ------- ---- -- ------<br>-- --- -------- -------- ---------- ---- ---- ---- ------<br>-- --------- -- into -- --- -- --- ------- -- - -----<br>---------- -- -- -- ---- ----- -- ------ -- --- ------<br>-------,229870,229876,229287,229271.00000000003,229304,229909,,29,into
screen,html.Screen,2_3_1_0_1_30,2022-02-02T13:51:07.989Z,,,,,,,,,,,,,,,,,48,,,,,,,,,,,,,,297,,response,,,,10,B,,,,,,Space,keypress(Space),,,,lyrical,,,,-- -- --- ------ ------- --------- ----------- --------<br>--------- -------- --- ------- -- ------- ---- -- ------<br>-- --- -------- -------- ---------- ---- ---- ---- ------<br>-- --------- -- ---- or --- -- --- ------- -- - -----<br>---------- -- -- -- ---- ----- -- ------ -- --- ------<br>-------,230183,230189,229892,229870,229909,230213,,30,or
screen,html.Screen,2_3_1_0_1_31,2022-02-02T13:51:08.356Z,,,,,,,,,,,,,,,,,48,,,,,,,,,,,,,,359,,response,,,,10,B,,,,,,Space,keypress(Space),,,,lyrical,,,,-- -- --- ------ ------- --------- ----------- --------<br>--------- -------- --- ------- -- ------- ---- -- ------<br>-- --- -------- -------- ---------- ---- ---- ---- ------<br>-- --------- -- ---- -- out -- --- ------- -- - -----<br>---------- -- -- -- ---- ----- -- ------ -- --- ------<br>-------,230550,230556,230197,230183,230213,230568,,31,out
screen,html.Screen,2_3_1_0_1_32,2022-02-02T13:51:08.680Z,,,,,,,,,,,,,,,,,48,,,,,,,,,,,,,,329,,response,,,,10,B,,,,,,Space,keypress(Space),,,,lyrical,,,,-- -- --- ------ ------- --------- ----------- --------<br>--------- -------- --- ------- -- ------- ---- -- ------<br>-- --- -------- -------- ---------- ---- ---- ---- ------<br>-- --------- -- ---- -- --- of --- ------- -- - -----<br>---------- -- -- -- ---- ----- -- ------ -- --- ------<br>-------,230874,230880,230551,230550,230568,230905,,32,of
screen,html.Screen,2_3_1_0_1_33,2022-02-02T13:51:09.020Z,,,,,,,,,,,,,,,,,48,,,,,,,,,,,,,,333,,response,,,,10,B,,,,,,Space,keypress(Space),,,,lyrical,,,,-- -- --- ------ ------- --------- ----------- --------<br>--------- -------- --- ------- -- ------- ---- -- ------<br>-- --- -------- -------- ---------- ---- ---- ---- ------<br>-- --------- -- ---- -- --- -- the ------- -- - -----<br>---------- -- -- -- ---- ----- -- ------ -- --- ------<br>-------,231214,231220,230887,230874,230905,231242,,33,the
screen,html.Screen,2_3_1_0_1_34,2022-02-02T13:51:09.362Z,,,,,,,,,,,,,,,,,48,,,,,,,,,,,,,,337,,response,,,,10,B,,,,,,Space,keypress(Space),,,,lyrical,,,,-- -- --- ------ ------- --------- ----------- --------<br>--------- -------- --- ------- -- ------- ---- -- ------<br>-- --- -------- -------- ---------- ---- ---- ---- ------<br>-- --------- -- ---- -- --- -- --- country -- - -----<br>---------- -- -- -- ---- ----- -- ------ -- --- ------<br>-------,231556,231562,231225,231214,231242,231581,,34,country
screen,html.Screen,2_3_1_0_1_35,2022-02-02T13:51:09.684Z,,,,,,,,,,,,,,,,,48,,,,,,,,,,,,,,319,,response,,,,10,B,,,,,,Space,keypress(Space),,,,lyrical,,,,-- -- --- ------ ------- --------- ----------- --------<br>--------- -------- --- ------- -- ------- ---- -- ------<br>-- --- -------- -------- ---------- ---- ---- ---- ------<br>-- --------- -- ---- -- --- -- --- ------- is - -----<br>---------- -- -- -- ---- ----- -- ------ -- --- ------<br>-------,231878,231883,231564,231556,231581,231902,,35,is
screen,html.Screen,2_3_1_0_1_36,2022-02-02T13:51:10.040Z,,,,,,,,,,,,,,,,,48,,,,,,,,,,,,,,356,,response,,,,10,B,,,,,,Space,keypress(Space),,,,lyrical,,,,-- -- --- ------ ------- --------- ----------- --------<br>--------- -------- --- ------- -- ------- ---- -- ------<br>-- --- -------- -------- ---------- ---- ---- ---- ------<br>-- --------- -- ---- -- --- -- --- ------- -- a -----<br>---------- -- -- -- ---- ----- -- ------ -- --- ------<br>-------,232234,232240,231884,231878,231902,232256,,36,a
screen,html.Screen,2_3_1_0_1_37,2022-02-02T13:51:10.420Z,,,,,,,,,,,,,,,,,48,,,,,,,,,,,,,,381,,response,,,,10,B,,,,,,Space,keypress(Space),,,,lyrical,,,,-- -- --- ------ ------- --------- ----------- --------<br>--------- -------- --- ------- -- ------- ---- -- ------<br>-- --- -------- -------- ---------- ---- ---- ---- ------<br>-- --------- -- ---- -- --- -- --- ------- -- - crime<br>---------- -- -- -- ---- ----- -- ------ -- --- ------<br>-------,232614,232620,232239,232234,232256,232642,,37,crime
screen,html.Screen,2_3_1_0_1_38,2022-02-02T13:51:10.769Z,,,,,,,,,,,,,,,,,48,,,,,,,,,,,,,,344,,response,,,,10,B,,,,,,Space,keypress(Space),,,,lyrical,,,,-- -- --- ------ ------- --------- ----------- --------<br>--------- -------- --- ------- -- ------- ---- -- ------<br>-- --- -------- -------- ---------- ---- ---- ---- ------<br>-- --------- -- ---- -- --- -- --- ------- -- - -----<br>punishable -- -- -- ---- ----- -- ------ -- --- ------<br>-------,232963,232969,232625,232614,232642,232997,,38,punishable
screen,html.Screen,2_3_1_0_1_39,2022-02-02T13:51:11.097Z,,,,,,,,,,,,,,,,,48,,,,,,,,,,,,,,316,,response,,,,10,B,,,,,,Space,keypress(Space),,,,lyrical,,,,-- -- --- ------ ------- --------- ----------- --------<br>--------- -------- --- ------- -- ------- ---- -- ------<br>-- --- -------- -------- ---------- ---- ---- ---- ------<br>-- --------- -- ---- -- --- -- --- ------- -- - -----<br>---------- by -- -- ---- ----- -- ------ -- --- ------<br>-------,233291,233297,232981,232963,232997,233318,,39,by
screen,html.Screen,2_3_1_0_1_40,2022-02-02T13:51:11.496Z,,,,,,,,,,,,,,,,,48,,,,,,,,,,,,,,395,,response,,,,10,B,,,,,,Space,keypress(Space),,,,lyrical,,,,-- -- --- ------ ------- --------- ----------- --------<br>--------- -------- --- ------- -- ------- ---- -- ------<br>-- --- -------- -------- ---------- ---- ---- ---- ------<br>-- --------- -- ---- -- --- -- --- ------- -- - -----<br>---------- -- up -- ---- ----- -- ------ -- --- ------<br>-------,233690,233696,233301,233291,233318,233722,,40,up
screen,html.Screen,2_3_1_0_1_41,2022-02-02T13:51:11.832Z,,,,,,,,,,,,,,,,,48,,,,,,,,,,,,,,327,,response,,,,10,B,,,,,,Space,keypress(Space),,,,lyrical,,,,-- -- --- ------ ------- --------- ----------- --------<br>--------- -------- --- ------- -- ------- ---- -- ------<br>-- --- -------- -------- ---------- ---- ---- ---- ------<br>-- --------- -- ---- -- --- -- --- ------- -- - -----<br>---------- -- -- to ---- ----- -- ------ -- --- ------<br>-------,234026,234032,233705,233690,233722,234059,,41,to
screen,html.Screen,2_3_1_0_1_42,2022-02-02T13:51:12.208Z,,,,,,,,,,,,,,,,,48,,,,,,,,,,,,,,367,,response,,,,10,B,,,,,,Space,keypress(Space),,,,lyrical,,,,-- -- --- ------ ------- --------- ----------- --------<br>--------- -------- --- ------- -- ------- ---- -- ------<br>-- --- -------- -------- ---------- ---- ---- ---- ------<br>-- --------- -- ---- -- --- -- --- ------- -- - -----<br>---------- -- -- -- five ----- -- ------ -- --- ------<br>-------,234402.00000000003,234409,234042,234026,234059,234431,,42,five
screen,html.Screen,2_3_1_0_1_43,2022-02-02T13:51:12.584Z,,,,,,,,,,,,,,,,,48,,,,,,,,,,,,,,369,,response,,,,10,B,,,,,,Space,keypress(Space),,,,lyrical,,,,-- -- --- ------ ------- --------- ----------- --------<br>--------- -------- --- ------- -- ------- ---- -- ------<br>-- --- -------- -------- ---------- ---- ---- ---- ------<br>-- --------- -- ---- -- --- -- --- ------- -- - -----<br>---------- -- -- -- ---- years -- ------ -- --- ------<br>-------,234778,234784,234415,234403,234431,234802,,43,years
screen,html.Screen,2_3_1_0_1_44,2022-02-02T13:51:12.906Z,,,,,,,,,,,,,,,,,48,,,,,,,,,,,,,,323,,response,,,,10,B,,,,,,Space,keypress(Space),,,,lyrical,,,,-- -- --- ------ ------- --------- ----------- --------<br>--------- -------- --- ------- -- ------- ---- -- ------<br>-- --- -------- -------- ---------- ---- ---- ---- ------<br>-- --------- -- ---- -- --- -- --- ------- -- - -----<br>---------- -- -- -- ---- ----- in ------ -- --- ------<br>-------,235100,235107,234784,234778,234802,235123,,44,in
screen,html.Screen,2_3_1_0_1_45,2022-02-02T13:51:13.239Z,,,,,,,,,,,,,,,,,48,,,,,,,,,,,,,,335,,response,,,,10,B,,,,,,Space,keypress(Space),,,,lyrical,,,,-- -- --- ------ ------- --------- ----------- --------<br>--------- -------- --- ------- -- ------- ---- -- ------<br>-- --- -------- -------- ---------- ---- ---- ---- ------<br>-- --------- -- ---- -- --- -- --- ------- -- - -----<br>---------- -- -- -- ---- ----- -- prison -- --- ------<br>-------,235433,235440,235105,235101,235123,235459,,45,prison
screen,html.Screen,2_3_1_0_1_46,2022-02-02T13:51:13.539Z,,,,,,,,,,,,,,,,,48,,,,,,,,,,,,,,298,,response,,,,10,B,,,,,,Space,keypress(Space),,,,lyrical,,,,-- -- --- ------ ------- --------- ----------- --------<br>--------- -------- --- ------- -- ------- ---- -- ------<br>-- --- -------- -------- ---------- ---- ---- ---- ------<br>-- --------- -- ---- -- --- -- --- ------- -- - -----<br>---------- -- -- -- ---- ----- -- ------ in --- ------<br>-------,235733,235740,235442,235433,235459,235763,,46,in
screen,html.Screen,2_3_1_0_1_47,2022-02-02T13:51:13.909Z,,,,,,,,,,,,,,,,,48,,,,,,,,,,,,,,364,,response,,,,10,B,,,,,,Space,keypress(Space),,,,lyrical,,,,-- -- --- ------ ------- --------- ----------- --------<br>--------- -------- --- ------- -- ------- ---- -- ------<br>-- --- -------- -------- ---------- ---- ---- ---- ------<br>-- --------- -- ---- -- --- -- --- ------- -- - -----<br>---------- -- -- -- ---- ----- -- ------ -- the ------<br>-------,236103,236110,235746,235734,235763,236134,,47,the
screen,html.Screen,2_3_1_0_1_48,2022-02-02T13:51:14.329Z,,,,,,,,,,,,,,,,,48,,,,,,,,,,,,,,412,,response,,,,10,B,,,,,,Space,keypress(Space),,,,lyrical,,,,-- -- --- ------ ------- --------- ----------- --------<br>--------- -------- --- ------- -- ------- ---- -- ------<br>-- --- -------- -------- ---------- ---- ---- ---- ------<br>-- --------- -- ---- -- --- -- --- ------- -- - -----<br>---------- -- -- -- ---- ----- -- ------ -- --- United<br>-------,236523,236530,236118,236104,236134,236556,,48,United
screen,html.Screen,2_3_1_0_1_49,2022-02-02T13:51:14.732Z,,,,,,,,,,,,,,,,,48,,,,,,,,,,,,,,393,,response,,,,10,B,,,,,,Space,keypress(Space),,,,lyrical,,,,-- -- --- ------ ------- --------- ----------- --------<br>--------- -------- --- ------- -- ------- ---- -- ------<br>-- --- -------- -------- ---------- ---- ---- ---- ------<br>-- --------- -- ---- -- --- -- --- ------- -- - -----<br>---------- -- -- -- ---- ----- -- ------ -- --- ------<br>States.,236926.00000000003,236933,236540,236524,236556,236960,,49,States.
Item 10,flow.Loop,2_3_1_0_1,2022-02-02T13:51:14.733Z,,,,,,,,,,,,,,,,,,,,,,,,,,,,,,,20788,,completion,,,,,,,,,,,,,,,,,,,,,236927,236933,216127,216127,216145,236960,,,
Question 1,html.Screen,2_3_1_0_2,2022-02-02T13:51:18.283Z,,,,,,,,,,,,,,,,,,,,,,,,,,,,true,TRUE,,3540,,response,,,,10,B,,,,,,TRUE,click #choice-1,,,,lyrical,,,,,240477,240483,236943,236927,236960,240495,,,
Question 2,html.Screen,2_3_1_0_3,2022-02-02T13:51:21.491Z,,,,,,,,,,,,,,,,,,,,,,,,,,,,true,TRUE,,3212,,response,,,,10,B,,,,,,TRUE,click #choice-1,,,,lyrical,,,,,243686,243693,240481,240477,240495,243706,,,
Item 10,flow.Sequence,2_3_1_0,2022-02-02T13:51:21.492Z,,,,,,,,,,,,,,,,,,,,,,,,,,,,,,,34551,,completion,,,,,,,,,,,,,,,,,,,,,243686,243693,209126,209127,209142,243706,,,
Holding screen,html.Screen,2_3_1_1_0,2022-02-02T13:51:28.495Z,,,,,,,,,,,,,,,,,,,,,,,,,,,,,,,6999,,timeout,,,,,,,,,,,,,,,,,,,,,250690,250689,243690,243686,243706,250705,,,
screen,html.Screen,2_3_1_1_1_0,2022-02-02T13:51:29.471Z,,,,,,,,,,,,,,,,,11,,,,,,,,,,,,,,983,,response,,,,4,B,,,,,,Space,keypress(Space),,,,lyrical,,,,Known -- ---- --- -- --- -------- ------------ ---------- --<br>- ------- ------ --------- -- ------------ -- --- ---- -----<br>------ ---- ---- ------ ------ ------- --- ----- ---------<br>---- --- -------- -------- --- --- -- ------- --- --- -----<br>-- --- ------ ------- --- --- -------- ---- --------- --<br>---------- -- -------- ----------------,251665,251672,250689,250690,250705,251694,,0,Known
screen,html.Screen,2_3_1_1_1_1,2022-02-02T13:51:29.918Z,,,,,,,,,,,,,,,,,11,,,,,,,,,,,,,,441,,response,,,,4,B,,,,,,Space,keypress(Space),,,,lyrical,,,,----- as ---- --- -- --- -------- ------------ ---------- --<br>- ------- ------ --------- -- ------------ -- --- ---- -----<br>------ ---- ---- ------ ------ ------- --- ----- ---------<br>---- --- -------- -------- --- --- -- ------- --- --- -----<br>-- --- ------ ------- --- --- -------- ---- --------- --<br>---------- -- -------- ----------------,252112,252119,251678,251666,251694,252148,,1,as
screen,html.Screen,2_3_1_1_1_2,2022-02-02T13:51:30.442Z,,,,,,,,,,,,,,,,,11,,,,,,,,,,,,,,511,,response,,,,4,B,,,,,,Space,keypress(Space),,,,lyrical,,,,----- -- Rapa --- -- --- -------- ------------ ---------- --<br>- ------- ------ --------- -- ------------ -- --- ---- -----<br>------ ---- ---- ------ ------ ------- --- ----- ---------<br>---- --- -------- -------- --- --- -- ------- --- --- -----<br>-- --- ------ ------- --- --- -------- ---- --------- --<br>---------- -- -------- ----------------,252636,252643,252132,252112,252148,252671,,2,Rapa
screen,html.Screen,2_3_1_1_1_3,2022-02-02T13:51:30.830Z,,,,,,,,,,,,,,,,,11,,,,,,,,,,,,,,377,,response,,,,4,B,,,,,,Space,keypress(Space),,,,lyrical,,,,----- -- ---- Nui -- --- -------- ------------ ---------- --<br>- ------- ------ --------- -- ------------ -- --- ---- -----<br>------ ---- ---- ------ ------ ------- --- ----- ---------<br>---- --- -------- -------- --- --- -- ------- --- --- -----<br>-- --- ------ ------- --- --- -------- ---- --------- --<br>---------- -- -------- ----------------,253024,253031,252654,252636,252671,253058,,3,Nui
screen,html.Screen,2_3_1_1_1_4,2022-02-02T13:51:31.286Z,,,,,,,,,,,,,,,,,11,,,,,,,,,,,,,,446,,response,,,,4,B,,,,,,Space,keypress(Space),,,,lyrical,,,,----- -- ---- --- to --- -------- ------------ ---------- --<br>- ------- ------ --------- -- ------------ -- --- ---- -----<br>------ ---- ---- ------ ------ ------- --- ----- ---------<br>---- --- -------- -------- --- --- -- ------- --- --- -----<br>-- --- ------ ------- --- --- -------- ---- --------- --<br>---------- -- -------- ----------------,253480.00000000003,253487,253041,253024,253058,253512,,4,to
screen,html.Screen,2_3_1_1_1_5,2022-02-02T13:51:31.652Z,,,,,,,,,,,,,,,,,11,,,,,,,,,,,,,,358,,response,,,,4,B,,,,,,Space,keypress(Space),,,,lyrical,,,,----- -- ---- --- -- the -------- ------------ ---------- --<br>- ------- ------ --------- -- ------------ -- --- ---- -----<br>------ ---- ---- ------ ------ ------- --- ----- ---------<br>---- --- -------- -------- --- --- -- ------- --- --- -----<br>-- --- ------ ------- --- --- -------- ---- --------- --<br>---------- -- -------- ----------------,253846,253853,253495,253480.00000000003,253512,253867,,5,the
screen,html.Screen,2_3_1_1_1_6,2022-02-02T13:51:32.060Z,,,,,,,,,,,,,,,,,11,,,,,,,,,,,,,,411,,response,,,,4,B,,,,,,Space,keypress(Space),,,,lyrical,,,,----- -- ---- --- -- --- island's ------------ ---------- --<br>- ------- ------ --------- -- ------------ -- --- ---- -----<br>------ ---- ---- ------ ------ ------- --- ----- ---------<br>---- --- -------- -------- --- --- -- ------- --- --- -----<br>-- --- ------ ------- --- --- -------- ---- --------- --<br>---------- -- -------- ----------------,254254.00000000003,254261,253850,253846,253867,254288,,6,island's
screen,html.Screen,2_3_1_1_1_7,2022-02-02T13:51:32.516Z,,,,,,,,,,,,,,,,,11,,,,,,,,,,,,,,445,,response,,,,4,B,,,,,,Space,keypress(Space),,,,lyrical,,,,"----- -- ---- --- -- --- -------- inhabitants, ---------- --<br>- ------- ------ --------- -- ------------ -- --- ---- -----<br>------ ---- ---- ------ ------ ------- --- ----- ---------<br>---- --- -------- -------- --- --- -- ------- --- --- -----<br>-- --- ------ ------- --- --- -------- ---- --------- --<br>---------- -- -------- ----------------",254710,254717,254272,254254.00000000003,254288,254743,,7,"inhabitants,"
screen,html.Screen,2_3_1_1_1_8,2022-02-02T13:51:33.665Z,,,,,,,,,,,,,,,,,11,,,,,,,,,,,,,,1140,,response,,,,4,B,,,,,,Space,keypress(Space),,,,lyrical,,,,----- -- ---- --- -- --- -------- ------------ Rongorongo --<br>- ------- ------ --------- -- ------------ -- --- ---- -----<br>------ ---- ---- ------ ------ ------- --- ----- ---------<br>---- --- -------- -------- --- --- -- ------- --- --- -----<br>-- --- ------ ------- --- --- -------- ---- --------- --<br>---------- -- -------- ----------------,255859,255866,254726,254710,254743,255896,,8,Rongorongo
screen,html.Screen,2_3_1_1_1_9,2022-02-02T13:51:34.102Z,,,,,,,,,,,,,,,,,11,,,,,,,,,,,,,,423,,response,,,,4,B,,,,,,Space,keypress(Space),,,,lyrical,,,,----- -- ---- --- -- --- -------- ------------ ---------- is<br>- ------- ------ --------- -- ------------ -- --- ---- -----<br>------ ---- ---- ------ ------ ------- --- ----- ---------<br>---- --- -------- -------- --- --- -- ------- --- --- -----<br>-- --- ------ ------- --- --- -------- ---- --------- --<br>---------- -- -------- ----------------,256296,256303,255880,255859,255896,256335,,9,is
