sender,sender_type,sender_id,timestamp,meta,,Blues,Classical,Country,Dance,Electronic,Folk,Gospel,Hip-Hop,Jazz,Latin,Musical/Film,New-age,Pop,Prolific_id,Provo_ID,R&B,Rap,Reggae,Religious,Rock,Soul,Swing,Traditional,age,artist_name,correct,correctResponse,distraction,duration,education,ended_on,familiarity,gender,headphone_check_performance,item,list,music_frequency,offensiveness,pleasantness,position_correct,preference,response,response_action,snippet_file,song_name,song_rating,sound,stimulus_1,stimulus_2,stimulus_3,text,time_commit,time_end,time_render,time_run,time_show,time_switch,url,word,word_ID
Prolific ID,html.Form,0,2022-02-01T12:01:06.887Z,"{""labjs_version"":""20.2.2"",""labjs_build"":{""flavor"":""production"",""commit"":""a25486e0c714a0ae2ce03ff94b7bb6896854dcfa""},""location"":""https://run.pavlovia.org/mvasilev/prolific2_music_a/"",""userAgent"":""Mozilla/5.0 (Macintosh; Intel Mac OS X 10_11_6) AppleWebKit/537.36 (KHTML, like Gecko) Chrome/97.0.4692.71 Safari/537.36"",""platform"":""MacIntel"",""language"":""en-US"",""locale"":""en-US"",""timeZone"":""Europe/London"",""timezoneOffset"":0,""screen_width"":1280,""screen_height"":800,""scroll_width"":1280,""scroll_height"":641,""window_innerWidth"":1280,""window_innerHeight"":689,""devicePixelRatio"":2}",,,,,,,,,,,,,,,60dc72e0ecbf8af03b214ced,,,,,,,,,,,,,,,12121.00799999702,,form submission,,,,,,,,,,,,,,,,,,,,,21477.39999999851,21476.79999999702,9138.523,9339.10000000149,9355.792,21494.309,{},,
Introduction,html.Screen,1_0,2022-02-01T12:02:58.563Z,,,,,,,,,,,,,,,,,,,,,,,,,,,,,,,111658.0909999985,,response,,,,,,,,,,,continue,click button,,,,,,,,,133156.1000000015,133152.3999999985,21477.596,21477.89999999851,21494.309,133157.382,,,
Volume calibration,html.Screen,1_1,2022-02-01T12:06:49.438Z,,,,,,,,,,,,,,,,,,,,,,,,,,,,,,,230876.71800000148,,response,,,,,,,,,,,continue,click button,,,,,,,,,364038.8999999985,364034.1000000015,133140.669,133156.3999999985,133157.382,364037.707,,,
Task instructions,html.Screen,1_2,2022-02-01T12:06:50.495Z,,,,,,,,,,,,,,,,,,,,,,,,,,,,,,,1056.4929999955348,,response,,,,,,,,,,,continue,click button,,,,,,,,,365095.6000000015,365094.19999999553,364020.994,364039.1000000015,364037.707,365107.339,,,
Sounds,html.Screen,1_3_0_0,2022-02-01T12:06:54.748Z,,,,,,,,,,,,,,,,,,,,,,,,,,,,,,,4252.420000000042,,timeout,,,,,,,,,3,,,,,,,,I,O,S,,369349,369343.046,365090.626,365096,365107.339,369359.759,,,
Judgement,html.Screen,1_3_0_1,2022-02-01T12:06:57.617Z,,,,,,,,,,,,,,,,,,,,,,,,,,,,false,3,,2856.34100000147,,response,,,,,,,,,3,,1,click #choice-1,,,,,I,O,S,,372217.799999997,372216.1000000015,369343.046,369349.6000000015,369359.759,372217.682,,,
Trial,flow.Sequence,1_3_0,2022-02-01T12:06:57.619Z,,,,,,,,,,,,,,,,,,,,,,,,,,,,,,,7108.761000001512,,completion,,,,,,,,,3,,,,,,,,I,O,S,,372219.6000000015,372216.1000000015,365090.626,365095.8999999985,365107.339,372217.682,,,
Sounds,html.Screen,1_3_1_0,2022-02-01T12:07:01.847Z,,,,,,,,,,,,,,,,,,,,,,,,,,,,,,,4245.1020000000135,,timeout,,,,,,,,,2,,,,,,,,I,S,O,,376447.799999997,376446.071,372200.969,372219.8999999985,372217.682,376462.784,,,
Judgement,html.Screen,1_3_1_1,2022-02-01T12:07:03.726Z,,,,,,,,,,,,,,,,,,,,,,,,,,,,true,2,,1862.1159999985248,,response,,,,,,,,,2,,2,click #choice-2,,,,,I,S,O,,378326.8999999985,378324.8999999985,376446.071,376448,376462.784,378339.544,,,
Trial,flow.Sequence,1_3_1,2022-02-01T12:07:03.726Z,,,,,,,,,,,,,,,,,,,,,,,,,,,,,,,6107.217999998538,,completion,,,,,,,,,2,,,,,,,,I,S,O,,378327.19999999553,378324.8999999985,372200.969,372219.799999997,372217.682,378339.544,,,
Sounds,html.Screen,1_3_2_0,2022-02-01T12:07:07.970Z,,,,,,,,,,,,,,,,,,,,,,,,,,,,,,,4245.1020000000135,,timeout,,,,,,,,,1,,,,,,,,S,I,O,,382570.799999997,382567.933,378322.831,378327.3999999985,378339.544,382584.646,,,
Judgement,html.Screen,1_3_2_1,2022-02-01T12:07:09.853Z,,,,,,,,,,,,,,,,,,,,,,,,,,,,true,1,,1867.4540000014822,,response,,,,,,,,,1,,1,click #choice-1,,,,,S,I,O,,384453.8999999985,384452.1000000015,382567.933,382571,382584.646,384473.215,,,
Trial,flow.Sequence,1_3_2,2022-02-01T12:07:09.853Z,,,,,,,,,,,,,,,,,,,,,,,,,,,,,,,6112.556000001496,,completion,,,,,,,,,1,,,,,,,,S,I,O,,384454.19999999553,384452.1000000015,378322.831,378327.299999997,378339.544,384473.215,,,
Sounds,html.Screen,1_3_3_0,2022-02-01T12:07:14.102Z,,,,,,,,,,,,,,,,,,,,,,,,,,,,,,,4245.101999999955,,timeout,,,,,,,,,3,,,,,,,,O,I,S,,388703.5,388701.604,384456.502,384454.3999999985,384473.215,388718.317,,,
Judgement,html.Screen,1_3_3_1,2022-02-01T12:07:15.345Z,,,,,,,,,,,,,,,,,,,,,,,,,,,,true,3,,1225.7830000015092,,response,,,,,,,,,3,,3,click #choice-3,,,,,O,I,S,,389946,389944.1000000015,388701.604,388703.69999999553,388718.317,389959.956,,,
Trial,flow.Sequence,1_3_3,2022-02-01T12:07:15.345Z,,,,,,,,,,,,,,,,,,,,,,,,,,,,,,,5470.8850000014645,,completion,,,,,,,,,3,,,,,,,,O,I,S,,389946.299999997,389944.1000000015,384456.502,384454.299999997,384473.215,389959.956,,,
Sounds,html.Screen,1_3_4_0,2022-02-01T12:07:19.589Z,,,,,,,,,,,,,,,,,,,,,,,,,,,,,,,4245.1020000000135,,timeout,,,,,,,,,1,,,,,,,,S,O,I,,394190.19999999553,394188.345,389943.243,389946.5,389959.956,394205.058,,,
Judgement,html.Screen,1_3_4_1,2022-02-01T12:07:20.943Z,,,,,,,,,,,,,,,,,,,,,,,,,,,,true,1,,1338.2419999970007,,response,,,,,,,,,1,,1,click #choice-1,,,,,S,O,I,,395544.799999997,395543.299999997,394188.345,394190.3999999985,394205.058,395558.811,,,
Trial,flow.Sequence,1_3_4,2022-02-01T12:07:20.944Z,,,,,,,,,,,,,,,,,,,,,,,,,,,,,,,5583.343999997014,,completion,,,,,,,,,1,,,,,,,,S,O,I,,395545,395543.299999997,389943.243,389946.3999999985,389959.956,395558.811,,,
Sounds,html.Screen,1_3_5_0,2022-02-01T12:07:25.187Z,,,,,,,,,,,,,,,,,,,,,,,,,,,,,,,4245.1020000000135,,timeout,,,,,,,,,2,,,,,,,,O,S,I,,399789,399787.2,395542.098,395545.19999999553,395558.811,399803.913,,,
Judgement,html.Screen,1_3_5_1,2022-02-01T12:07:25.789Z,,,,,,,,,,,,,,,,,,,,,,,,,,,,true,2,,584.8869999970193,,response,,,,,,,,,2,,2,click #choice-2,,,,,O,S,I,,400390.6000000015,400388.799999997,399787.2,399789.1000000015,399803.913,400412.891,,,
Trial,flow.Sequence,1_3_5,2022-02-01T12:07:25.789Z,,,,,,,,,,,,,,,,,,,,,,,,,,,,,,,4829.988999997033,,completion,,,,,,,,,2,,,,,,,,O,S,I,,400390.799999997,400388.799999997,395542.098,395545.1000000015,395558.811,400412.891,,,
Task,flow.Loop,1_3,2022-02-01T12:07:25.794Z,,,,,,,,,,,,,,,,,,,,,,,,,,,,,,,35281.46099999704,,completion,,,0.8333333333333334,,,,,,,,,,,,,,,,,,400395.799999997,400388.799999997,365090.626,365095.8999999985,365107.339,400412.891,,,
Trap,html.Screen,1_4,2022-02-01T12:07:25.796Z,,,,,,,,,,,,,,,,,,,,,,,,,,,,,,,NaN,,skipped,,,,,,,,,,,,,,,,,,,,,400398.1000000015,400388.799999997,,400397.799999997,,400412.891,,,
Thanks,html.Screen,1_5,2022-02-01T12:07:29.898Z,,,,,,,,,,,,,,,,,,,,,,,,,,,,,,,4085.3089999955264,,response,,,,,,,,,,,continue,click button,,,,,,,,,404500,404498.19999999553,400396.178,400398.299999997,400412.891,407348.786,,,
Headphone screening,flow.Sequence,1,2022-02-01T12:07:29.898Z,,,,,,,,,,,,,,,,,,,,,,,,,,,,,,,383003.8909999955,,completion,,,,,,,,,,,,,,,,,,,,,404500.19999999553,404498.19999999553,21477.596,21477.79999999702,21494.309,407348.786,,,
Instructions,html.Page,2_0,2022-02-01T12:07:42.903Z,,,,,,,,,,,,,,,,,,,,,,,,,,,,,,,10155.814000001468,,form submission,,,,,,,,,,,,,,,,,,,,,417505,417504.6000000015,407332.073,407343.69999999553,407348.786,417510.29,,,
Holding screen,html.Screen,2_1_0_0,2022-02-01T12:07:52.895Z,,,,,,,,,,,,,,,,,,,,,,,,,,,,,,,10001.662000000011,,timeout,,,,,,,,,,,,,,,,,,,,,427497.799999997,427495.239,417493.577,417505.299999997,417510.29,427511.952,,,
screen,html.Screen,2_1_0_1_0,2022-02-01T12:07:53.878Z,,,,,,,,,,,,,,,,,53,,,,,,,,,,,,,,963.2479999955394,,response,,,,99,,,,,,,Space,keypress(Space),,,,,,,,When -- ----- -- ------ - ------- --- ----------<br>------------- ------ ------ ---- ---- ------- ----- -- ----<br>-------- ------- -- ---------- --- - --- ----- ----- ----<br>---- --- --- ----- --- ---- ---- ------- ----- ---- -------<br>--- --- -- ----- -- --- ---- -- --- ---- -- ------ ------<br>--- ----- -- ----,428480.299999997,428475.19999999553,427495.239,427498.19999999553,427511.952,428481.306,,0,When
screen,html.Screen,2_1_0_1_1,2022-02-01T12:07:54.307Z,,,,,,,,,,,,,,,,,53,,,,,,,,,,,,,,425.99399999703746,,response,,,,99,,,,,,,Space,keypress(Space),,,,,,,,---- it ----- -- ------ - ------- --- ----------<br>------------- ------ ------ ---- ---- ------- ----- -- ----<br>-------- ------- -- ---------- --- - --- ----- ----- ----<br>---- --- --- ----- --- ---- ---- ------- ----- ---- -------<br>--- --- -- ----- -- --- ---- -- --- ---- -- ------ ------<br>--- ----- -- ----,428909.799999997,428907.299999997,428464.593,428480.5,428481.306,428920.744,,1,it
screen,html.Screen,2_1_0_1_2,2022-02-01T12:07:54.811Z,,,,,,,,,,,,,,,,,53,,,,,,,,,,,,,,490.5559999970137,,response,,,,99,,,,,,,Space,keypress(Space),,,,,,,,---- -- comes -- ------ - ------- --- ----------<br>------------- ------ ------ ---- ---- ------- ----- -- ----<br>-------- ------- -- ---------- --- - --- ----- ----- ----<br>---- --- --- ----- --- ---- ---- ------- ----- ---- -------<br>--- --- -- ----- -- --- ---- -- --- ---- -- ------ ------<br>--- ----- -- ----,429413.69999999553,429411.299999997,428904.031,428910,428920.744,429422.134,,2,comes
screen,html.Screen,2_1_0_1_3,2022-02-01T12:07:55.283Z,,,,,,,,,,,,,,,,,53,,,,,,,,,,,,,,461.0659999955096,,response,,,,99,,,,,,,Space,keypress(Space),,,,,,,,---- -- ----- to ------ - ------- --- ----------<br>------------- ------ ------ ---- ---- ------- ----- -- ----<br>-------- ------- -- ---------- --- - --- ----- ----- ----<br>---- --- --- ----- --- ---- ---- ------- ----- ---- -------<br>--- --- -- ----- -- --- ---- -- --- ---- -- ------ ------<br>--- ----- -- ----,429885.8999999985,429883.19999999553,429405.421,429413.69999999553,429422.134,429890.098,,3,to
screen,html.Screen,2_1_0_1_4,2022-02-01T12:07:55.747Z,,,,,,,,,,,,,,,,,53,,,,,,,,,,,,,,457.1019999955315,,response,,,,99,,,,,,,Space,keypress(Space),,,,,,,,---- -- ----- -- having - ------- --- ----------<br>------------- ------ ------ ---- ---- ------- ----- -- ----<br>-------- ------- -- ---------- --- - --- ----- ----- ----<br>---- --- --- ----- --- ---- ---- ------- ----- ---- -------<br>--- --- -- ----- -- --- ---- -- --- ---- -- ------ ------<br>--- ----- -- ----,430349.19999999553,430347.19999999553,429873.385,429886,429890.098,430358.062,,4,having
screen,html.Screen,2_1_0_1_5,2022-02-01T12:07:56.219Z,,,,,,,,,,,,,,,,,53,,,,,,,,,,,,,,461.1379999955534,,response,,,,99,,,,,,,Space,keypress(Space),,,,,,,,---- -- ----- -- ------ a ------- --- ----------<br>------------- ------ ------ ---- ---- ------- ----- -- ----<br>-------- ------- -- ---------- --- - --- ----- ----- ----<br>---- --- --- ----- --- ---- ---- ------- ----- ---- -------<br>--- --- -- ----- -- --- ---- -- --- ---- -- ------ ------<br>--- ----- -- ----,430821.6000000015,430819.19999999553,430341.349,430349.3999999985,430358.062,430826.026,,5,a
screen,html.Screen,2_1_0_1_6,2022-02-01T12:07:56.651Z,,,,,,,,,,,,,,,,,53,,,,,,,,,,,,,,425.2739999970072,,response,,,,99,,,,,,,Space,keypress(Space),,,,,,,,---- -- ----- -- ------ - lasting --- ----------<br>------------- ------ ------ ---- ---- ------- ----- -- ----<br>-------- ------- -- ---------- --- - --- ----- ----- ----<br>---- --- --- ----- --- ---- ---- ------- ----- ---- -------<br>--- --- -- ----- -- --- ---- -- --- ---- -- ------ ------<br>--- ----- -- ----,431253.69999999553,431251.299999997,430809.313,430821.69999999553,430826.026,431260.564,,6,lasting
screen,html.Screen,2_1_0_1_7,2022-02-01T12:07:57.107Z,,,,,,,,,,,,,,,,,53,,,,,,,,,,,,,,446.73599999700673,,response,,,,99,,,,,,,Space,keypress(Space),,,,,,,,---- -- ----- -- ------ - ------- and ----------<br>------------- ------ ------ ---- ---- ------- ----- -- ----<br>-------- ------- -- ---------- --- - --- ----- ----- ----<br>---- --- --- ----- --- ---- ---- ------- ----- ---- -------<br>--- --- -- ----- -- --- ---- -- --- ---- -- ------ ------<br>--- ----- -- ----,431710,431707.299999997,431243.851,431253.8999999985,431260.564,431711.815,,7,and
screen,html.Screen,2_1_0_1_8,2022-02-01T12:07:57.507Z,,,,,,,,,,,,,,,,,53,,,,,,,,,,,,,,395.3849999955273,,response,,,,99,,,,,,,Space,keypress(Space),,,,,,,,---- -- ----- -- ------ - ------- --- fulfilling<br>------------- ------ ------ ---- ---- ------- ----- -- ----<br>-------- ------- -- ---------- --- - --- ----- ----- ----<br>---- --- --- ----- --- ---- ---- ------- ----- ---- -------<br>--- --- -- ----- -- --- ---- -- --- ---- -- ------ ------<br>--- ----- -- ----,432109.69999999553,432107.19999999553,431695.102,431710.19999999553,431711.815,432112.927,,8,fulfilling
screen,html.Screen,2_1_0_1_9,2022-02-01T12:07:57.907Z,,,,,,,,,,,,,,,,,53,,,,,,,,,,,,,,394.3729999969946,,response,,,,99,,,,,,,Space,keypress(Space),,,,,,,,"---- -- ----- -- ------ - ------- --- ----------<br>relationship, ------ ------ ---- ---- ------- ----- -- ----<br>-------- ------- -- ---------- --- - --- ----- ----- ----<br>---- --- --- ----- --- ---- ---- ------- ----- ---- -------<br>--- --- -- ----- -- --- ---- -- --- ---- -- ------ ------<br>--- ----- -- ----",432510.1000000015,432507.299999997,432096.214,432109.799999997,432112.927,432514.039,,9,"relationship,"
screen,html.Screen,2_1_0_1_10,2022-02-01T12:07:58.315Z,,,,,,,,,,,,,,,,,53,,,,,,,,,,,,,,401.26099999703,,response,,,,99,,,,,,,Space,keypress(Space),,,,,,,,---- -- ----- -- ------ - ------- --- ----------<br>------------- common ------ ---- ---- ------- ----- -- ----<br>-------- ------- -- ---------- --- - --- ----- ----- ----<br>---- --- --- ----- --- ---- ---- ------- ----- ---- -------<br>--- --- -- ----- -- --- ---- -- --- ---- -- ------ ------<br>--- ----- -- ----,432917.69999999553,432915.299999997,432497.326,432510.19999999553,432514.039,432931.864,,10,common
screen,html.Screen,2_1_0_1_11,2022-02-01T12:07:58.723Z,,,,,,,,,,,,,,,,,53,,,,,,,,,,,,,,391.43599999701837,,response,,,,99,,,,,,,Space,keypress(Space),,,,,,,,---- -- ----- -- ------ - ------- --- ----------<br>------------- ------ wisdom ---- ---- ------- ----- -- ----<br>-------- ------- -- ---------- --- - --- ----- ----- ----<br>---- --- --- ----- --- ---- ---- ------- ----- ---- -------<br>--- --- -- ----- -- --- ---- -- --- ---- -- ------ ------<br>--- ----- -- ----,433325.69999999553,433323.299999997,432915.151,432917.799999997,432931.864,433332.976,,11,wisdom
screen,html.Screen,2_1_0_1_12,2022-02-01T12:07:59.131Z,,,,,,,,,,,,,,,,,53,,,,,,,,,,,,,,398.22399999550544,,response,,,,99,,,,,,,Space,keypress(Space),,,,,,,,---- -- ----- -- ------ - ------- --- ----------<br>------------- ------ ------ says ---- ------- ----- -- ----<br>-------- ------- -- ---------- --- - --- ----- ----- ----<br>---- --- --- ----- --- ---- ---- ------- ----- ---- -------<br>--- --- -- ----- -- --- ---- -- --- ---- -- ------ ------<br>--- ----- -- ----,433733.69999999553,433731.19999999553,433316.263,433325.799999997,433332.976,433750.801,,12,says
screen,html.Screen,2_1_0_1_13,2022-02-01T12:07:59.555Z,,,,,,,,,,,,,,,,,53,,,,,,,,,,,,,,404.4989999970421,,response,,,,99,,,,,,,Space,keypress(Space),,,,,,,,---- -- ----- -- ------ - ------- --- ----------<br>------------- ------ ------ ---- that ------- ----- -- ----<br>-------- ------- -- ---------- --- - --- ----- ----- ----<br>---- --- --- ----- --- ---- ---- ------- ----- ---- -------<br>--- --- -- ----- -- --- ---- -- --- ---- -- ------ ------<br>--- ----- -- ----,434157.8999999985,434155.299999997,433734.088,433733.799999997,433750.801,434168.626,,13,that
screen,html.Screen,2_1_0_1_14,2022-02-01T12:07:59.987Z,,,,,,,,,,,,,,,,,53,,,,,,,,,,,,,,418.6739999970305,,response,,,,99,,,,,,,Space,keypress(Space),,,,,,,,---- -- ----- -- ------ - ------- --- ----------<br>------------- ------ ------ ---- ---- feeling ----- -- ----<br>-------- ------- -- ---------- --- - --- ----- ----- ----<br>---- --- --- ----- --- ---- ---- ------- ----- ---- -------<br>--- --- -- ----- -- --- ---- -- --- ---- -- ------ ------<br>--- ----- -- ----,434589.6000000015,434587.299999997,434151.913,434158.1000000015,434168.626,434603.164,,14,feeling
screen,html.Screen,2_1_0_1_15,2022-02-01T12:08:00.411Z,,,,,,,,,,,,,,,,,53,,,,,,,,,,,,,,408.13599999703,,response,,,,99,,,,,,,Space,keypress(Space),,,,,,,,---- -- ----- -- ------ - ------- --- ----------<br>------------- ------ ------ ---- ---- ------- close -- ----<br>-------- ------- -- ---------- --- - --- ----- ----- ----<br>---- --- --- ----- --- ---- ---- ------- ----- ---- -------<br>--- --- -- ----- -- --- ---- -- --- ---- -- ------ ------<br>--- ----- -- ----,435014.1000000015,435011.299999997,434586.451,434589.69999999553,434603.164,435020.989,,15,close
screen,html.Screen,2_1_0_1_16,2022-02-01T12:08:00.827Z,,,,,,,,,,,,,,,,,53,,,,,,,,,,,,,,406.21099999552825,,response,,,,99,,,,,,,Space,keypress(Space),,,,,,,,---- -- ----- -- ------ - ------- --- ----------<br>------------- ------ ------ ---- ---- ------- ----- to ----<br>-------- ------- -- ---------- --- - --- ----- ----- ----<br>---- --- --- ----- --- ---- ---- ------- ----- ---- -------<br>--- --- -- ----- -- --- ---- -- --- ---- -- ------ ------<br>--- ----- -- ----,435429.8999999985,435427.19999999553,435004.276,435014.19999999553,435020.989,435438.814,,16,to
screen,html.Screen,2_1_0_1_17,2022-02-01T12:08:01.211Z,,,,,,,,,,,,,,,,,53,,,,,,,,,,,,,,372.48599999700673,,response,,,,99,,,,,,,Space,keypress(Space),,,,,,,,---- -- ----- -- ------ - ------- --- ----------<br>------------- ------ ------ ---- ---- ------- ----- -- your<br>-------- ------- -- ---------- --- - --- ----- ----- ----<br>---- --- --- ----- --- ---- ---- ------- ----- ---- -------<br>--- --- -- ----- -- --- ---- -- --- ---- -- ------ ------<br>--- ----- -- ----,435814,435811.299999997,435422.101,435430,435438.814,435823.213,,17,your
screen,html.Screen,2_1_0_1_18,2022-02-01T12:08:01.611Z,,,,,,,,,,,,,,,,,53,,,,,,,,,,,,,,388.08699999703094,,response,,,,99,,,,,,,Space,keypress(Space),,,,,,,,---- -- ----- -- ------ - ------- --- ----------<br>------------- ------ ------ ---- ---- ------- ----- -- ----<br>romantic ------- -- ---------- --- - --- ----- ----- ----<br>---- --- --- ----- --- ---- ---- ------- ----- ---- -------<br>--- --- -- ----- -- --- ---- -- --- ---- -- ------ ------<br>--- ----- -- ----,436214,436211.299999997,435806.5,435814.1000000015,435823.213,436224.325,,18,romantic
screen,html.Screen,2_1_0_1_19,2022-02-01T12:08:02.043Z,,,,,,,,,,,,,,,,,53,,,,,,,,,,,,,,418.7750000014785,,response,,,,99,,,,,,,Space,keypress(Space),,,,,,,,---- -- ----- -- ------ - ------- --- ----------<br>------------- ------ ------ ---- ---- ------- ----- -- ----<br>-------- partner -- ---------- --- - --- ----- ----- ----<br>---- --- --- ----- --- ---- ---- ------- ----- ---- -------<br>--- --- -- ----- -- --- ---- -- --- ---- -- ------ ------<br>--- ----- -- ----,436645.5,436643.1000000015,436207.612,436214.19999999553,436224.325,436658.863,,19,partner
screen,html.Screen,2_1_0_1_20,2022-02-01T12:08:02.451Z,,,,,,,,,,,,,,,,,53,,,,,,,,,,,,,,392.33699999551754,,response,,,,99,,,,,,,Space,keypress(Space),,,,,,,,---- -- ----- -- ------ - ------- --- ----------<br>------------- ------ ------ ---- ---- ------- ----- -- ----<br>-------- ------- is ---------- --- - --- ----- ----- ----<br>---- --- --- ----- --- ---- ---- ------- ----- ---- -------<br>--- --- -- ----- -- --- ---- -- --- ---- -- ------ ------<br>--- ----- -- ----,437053.6000000015,437051.19999999553,436642.15,436645.6000000015,436658.863,437059.975,,20,is
screen,html.Screen,2_1_0_1_21,2022-02-01T12:08:02.899Z,,,,,,,,,,,,,,,,,53,,,,,,,,,,,,,,439.32499999704305,,response,,,,99,,,,,,,Space,keypress(Space),,,,,,,,---- -- ----- -- ------ - ------- --- ----------<br>------------- ------ ------ ---- ---- ------- ----- -- ----<br>-------- ------- -- paramount. --- - --- ----- ----- ----<br>---- --- --- ----- --- ---- ---- ------- ----- ---- -------<br>--- --- -- ----- -- --- ---- -- --- ---- -- ------ ------<br>--- ----- -- ----,437502,437499.299999997,437043.262,437053.799999997,437059.975,437511.226,,21,paramount.
screen,html.Screen,2_1_0_1_22,2022-02-01T12:08:03.323Z,,,,,,,,,,,,,,,,,53,,,,,,,,,,,,,,411.97399999550544,,response,,,,99,,,,,,,Space,keypress(Space),,,,,,,,---- -- ----- -- ------ - ------- --- ----------<br>------------- ------ ------ ---- ---- ------- ----- -- ----<br>-------- ------- -- ---------- But - --- ----- ----- ----<br>---- --- --- ----- --- ---- ---- ------- ----- ---- -------<br>--- --- -- ----- -- --- ---- -- --- ---- -- ------ ------<br>--- ----- -- ----,437925.5,437923.19999999553,437494.513,437502.1000000015,437511.226,437929.051,,22,But
screen,html.Screen,2_1_0_1_23,2022-02-01T12:08:03.803Z,,,,,,,,,,,,,,,,,53,,,,,,,,,,,,,,474.148999995552,,response,,,,99,,,,,,,Space,keypress(Space),,,,,,,,---- -- ----- -- ------ - ------- --- ----------<br>------------- ------ ------ ---- ---- ------- ----- -- ----<br>-------- ------- -- ---------- --- a --- ----- ----- ----<br>---- --- --- ----- --- ---- ---- ------- ----- ---- -------<br>--- --- -- ----- -- --- ---- -- --- ---- -- ------ ------<br>--- ----- -- ----,438405.69999999553,438403.19999999553,437912.338,437925.799999997,437929.051,438413.728,,23,a
screen,html.Screen,2_1_0_1_24,2022-02-01T12:08:04.651Z,,,,,,,,,,,,,,,,,53,,,,,,,,,,,,,,837.4719999955269,,response,,,,99,,,,,,,Space,keypress(Space),,,,,,,,---- -- ----- -- ------ - ------- --- ----------<br>------------- ------ ------ ---- ---- ------- ----- -- ----<br>-------- ------- -- ---------- --- - new ----- ----- ----<br>---- --- --- ----- --- ---- ---- ------- ----- ---- -------<br>--- --- -- ----- -- --- ---- -- --- ---- -- ------ ------<br>--- ----- -- ----,439253.799999997,439251.19999999553,438397.015,438405.8999999985,438413.728,439270.966,,24,new
screen,html.Screen,2_1_0_1_25,2022-02-01T12:08:05.067Z,,,,,,,,,,,,,,,,,53,,,,,,,,,,,,,,396.33399999700487,,response,,,,99,,,,,,,Space,keypress(Space),,,,,,,,---- -- ----- -- ------ - ------- --- ----------<br>------------- ------ ------ ---- ---- ------- ----- -- ----<br>-------- ------- -- ---------- --- - --- study ----- ----<br>---- --- --- ----- --- ---- ---- ------- ----- ---- -------<br>--- --- -- ----- -- --- ---- -- --- ---- -- ------ ------<br>--- ----- -- ----,439669.69999999553,439667.299999997,439254.253,439253.8999999985,439270.966,439672.078,,25,study
screen,html.Screen,2_1_0_1_26,2022-02-01T12:08:05.435Z,,,,,,,,,,,,,,,,,53,,,,,,,,,,,,,,363.22199999704026,,response,,,,99,,,,,,,Space,keypress(Space),,,,,,,,---- -- ----- -- ------ - ------- --- ----------<br>------------- ------ ------ ---- ---- ------- ----- -- ----<br>-------- ------- -- ---------- --- - --- ----- finds ----<br>---- --- --- ----- --- ---- ---- ------- ----- ---- -------<br>--- --- -- ----- -- --- ---- -- --- ---- -- ------ ------<br>--- ----- -- ----,440038,440035.299999997,439655.365,439669.799999997,439672.078,440039.764,,26,finds
screen,html.Screen,2_1_0_1_27,2022-02-01T12:08:05.867Z,,,,,,,,,,,,,,,,,53,,,,,,,,,,,,,,427.435999995505,,response,,,,99,,,,,,,Space,keypress(Space),,,,,,,,---- -- ----- -- ------ - ------- --- ----------<br>------------- ------ ------ ---- ---- ------- ----- -- ----<br>-------- ------- -- ---------- --- - --- ----- ----- that<br>---- --- --- ----- --- ---- ---- ------- ----- ---- -------<br>--- --- -- ----- -- --- ---- -- --- ---- -- ------ ------<br>--- ----- -- ----,440470.1000000015,440467.19999999553,440023.051,440038.1000000015,440039.764,440474.302,,27,that
screen,html.Screen,2_1_0_1_28,2022-02-01T12:08:06.323Z,,,,,,,,,,,,,,,,,53,,,,,,,,,,,,,,448.8979999955045,,response,,,,99,,,,,,,Space,keypress(Space),,,,,,,,---- -- ----- -- ------ - ------- --- ----------<br>------------- ------ ------ ---- ---- ------- ----- -- ----<br>-------- ------- -- ---------- --- - --- ----- ----- ----<br>it's --- --- ----- --- ---- ---- ------- ----- ---- -------<br>--- --- -- ----- -- --- ---- -- --- ---- -- ------ ------<br>--- ----- -- ----,440925.69999999553,440923.19999999553,440457.589,440470.19999999553,440474.302,440942.266,,28,it's
screen,html.Screen,2_1_0_1_29,2022-02-01T12:08:06.731Z,,,,,,,,,,,,,,,,,53,,,,,,,,,,,,,,388.9339999955264,,response,,,,99,,,,,,,Space,keypress(Space),,,,,,,,---- -- ----- -- ------ - ------- --- ----------<br>------------- ------ ------ ---- ---- ------- ----- -- ----<br>-------- ------- -- ---------- --- - --- ----- ----- ----<br>---- not --- ----- --- ---- ---- ------- ----- ---- -------<br>--- --- -- ----- -- --- ---- -- --- ---- -- ------ ------<br>--- ----- -- ----,441333.6000000015,441331.19999999553,440925.553,440925.69999999553,440942.266,441343.378,,29,not
screen,html.Screen,2_1_0_1_30,2022-02-01T12:08:07.147Z,,,,,,,,,,,,,,,,,53,,,,,,,,,,,,,,403.8219999955036,,response,,,,99,,,,,,,Space,keypress(Space),,,,,,,,---- -- ----- -- ------ - ------- --- ----------<br>------------- ------ ------ ---- ---- ------- ----- -- ----<br>-------- ------- -- ---------- --- - --- ----- ----- ----<br>---- --- how ----- --- ---- ---- ------- ----- ---- -------<br>--- --- -- ----- -- --- ---- -- --- ---- -- ------ ------<br>--- ----- -- ----,441749.6000000015,441747.19999999553,441326.665,441333.69999999553,441343.378,441761.203,,30,how
screen,html.Screen,2_1_0_1_31,2022-02-01T12:08:07.547Z,,,,,,,,,,,,,,,,,53,,,,,,,,,,,,,,386.09699999704026,,response,,,,99,,,,,,,Space,keypress(Space),,,,,,,,---- -- ----- -- ------ - ------- --- ----------<br>------------- ------ ------ ---- ---- ------- ----- -- ----<br>-------- ------- -- ---------- --- - --- ----- ----- ----<br>---- --- --- close --- ---- ---- ------- ----- ---- -------<br>--- --- -- ----- -- --- ---- -- --- ---- -- ------ ------<br>--- ----- -- ----,442149.799999997,442147.299999997,441744.49,441749.69999999553,441761.203,442162.315,,31,close
screen,html.Screen,2_1_0_1_32,2022-02-01T12:08:07.939Z,,,,,,,,,,,,,,,,,53,,,,,,,,,,,,,,376.98499999701744,,response,,,,99,,,,,,,Space,keypress(Space),,,,,,,,---- -- ----- -- ------ - ------- --- ----------<br>------------- ------ ------ ---- ---- ------- ----- -- ----<br>-------- ------- -- ---------- --- - --- ----- ----- ----<br>---- --- --- ----- you ---- ---- ------- ----- ---- -------<br>--- --- -- ----- -- --- ---- -- --- ---- -- ------ ------<br>--- ----- -- ----,442541.8999999985,442539.299999997,442145.602,442150,442162.315,442546.714,,32,you
screen,html.Screen,2_1_0_1_33,2022-02-01T12:08:08.355Z,,,,,,,,,,,,,,,,,53,,,,,,,,,,,,,,408.58599999704165,,response,,,,99,,,,,,,Space,keypress(Space),,,,,,,,---- -- ----- -- ------ - ------- --- ----------<br>------------- ------ ------ ---- ---- ------- ----- -- ----<br>-------- ------- -- ---------- --- - --- ----- ----- ----<br>---- --- --- ----- --- feel ---- ------- ----- ---- -------<br>--- --- -- ----- -- --- ---- -- --- ---- -- ------ ------<br>--- ----- -- ----,442957.8999999985,442955.299999997,442530.001,442542.1000000015,442546.714,442964.539,,33,feel
screen,html.Screen,2_1_0_1_34,2022-02-01T12:08:08.787Z,,,,,,,,,,,,,,,,,53,,,,,,,,,,,,,,422.76099999703,,response,,,,99,,,,,,,Space,keypress(Space),,,,,,,,---- -- ----- -- ------ - ------- --- ----------<br>------------- ------ ------ ---- ---- ------- ----- -- ----<br>-------- ------- -- ---------- --- - --- ----- ----- ----<br>---- --- --- ----- --- ---- that ------- ----- ---- -------<br>--- --- -- ----- -- --- ---- -- --- ---- -- ------ ------<br>--- ----- -- ----,443390,443387.299999997,442947.826,442958,442964.539,443399.077,,34,that
screen,html.Screen,2_1_0_1_35,2022-02-01T12:08:09.219Z,,,,,,,,,,,,,,,,,53,,,,,,,,,,,,,,420.12299999553943,,response,,,,99,,,,,,,Space,keypress(Space),,,,,,,,---- -- ----- -- ------ - ------- --- ----------<br>------------- ------ ------ ---- ---- ------- ----- -- ----<br>-------- ------- -- ---------- --- - --- ----- ----- ----<br>---- --- --- ----- --- ---- ---- matters ----- ---- -------<br>--- --- -- ----- -- --- ---- -- --- ---- -- ------ ------<br>--- ----- -- ----,443821.8999999985,443819.19999999553,443382.364,443390.19999999553,443399.077,443833.615,,35,matters
screen,html.Screen,2_1_0_1_36,2022-02-01T12:08:09.603Z,,,,,,,,,,,,,,,,,53,,,,,,,,,,,,,,369.58499999553896,,response,,,,99,,,,,,,Space,keypress(Space),,,,,,,,"---- -- ----- -- ------ - ------- --- ----------<br>------------- ------ ------ ---- ---- ------- ----- -- ----<br>-------- ------- -- ---------- --- - --- ----- ----- ----<br>---- --- --- ----- --- ---- ---- ------- most, ---- -------<br>--- --- -- ----- -- --- ---- -- --- ---- -- ------ ------<br>--- ----- -- ----",444205.6000000015,444203.19999999553,443816.902,443822.1000000015,443833.615,444218.014,,36,"most,"
screen,html.Screen,2_1_0_1_37,2022-02-01T12:08:10.019Z,,,,,,,,,,,,,,,,,53,,,,,,,,,,,,,,401.185999995505,,response,,,,99,,,,,,,Space,keypress(Space),,,,,,,,---- -- ----- -- ------ - ------- --- ----------<br>------------- ------ ------ ---- ---- ------- ----- -- ----<br>-------- ------- -- ---------- --- - --- ----- ----- ----<br>---- --- --- ----- --- ---- ---- ------- ----- it's -------<br>--- --- -- ----- -- --- ---- -- --- ---- -- ------ ------<br>--- ----- -- ----,444621.6000000015,444619.19999999553,444201.301,444205.799999997,444218.014,444635.839,,37,it's
screen,html.Screen,2_1_0_1_38,2022-02-01T12:08:10.435Z,,,,,,,,,,,,,,,,,53,,,,,,,,,,,,,,399.36099999555154,,response,,,,99,,,,,,,Space,keypress(Space),,,,,,,,---- -- ----- -- ------ - ------- --- ----------<br>------------- ------ ------ ---- ---- ------- ----- -- ----<br>-------- ------- -- ---------- --- - --- ----- ----- ----<br>---- --- --- ----- --- ---- ---- ------- ----- ---- whether<br>--- --- -- ----- -- --- ---- -- --- ---- -- ------ ------<br>--- ----- -- ----,445037.6000000015,445035.19999999553,444619.126,444621.69999999553,444635.839,445053.664,,38,whether
screen,html.Screen,2_1_0_1_39,2022-02-01T12:08:10.819Z,,,,,,,,,,,,,,,,,53,,,,,,,,,,,,,,365.5359999955399,,response,,,,99,,,,,,,Space,keypress(Space),,,,,,,,---- -- ----- -- ------ - ------- --- ----------<br>------------- ------ ------ ---- ---- ------- ----- -- ----<br>-------- ------- -- ---------- --- - --- ----- ----- ----<br>---- --- --- ----- --- ---- ---- ------- ----- ---- -------<br>you --- -- ----- -- --- ---- -- --- ---- -- ------ ------<br>--- ----- -- ----,445421.6000000015,445419.19999999553,445036.951,445037.69999999553,445053.664,445438.063,,39,you
screen,html.Screen,2_1_0_1_40,2022-02-01T12:08:11.155Z,,,,,,,,,,,,,,,,,53,,,,,,,,,,,,,,317.236999996996,,response,,,,99,,,,,,,Space,keypress(Space),,,,,,,,---- -- ----- -- ------ - ------- --- ----------<br>------------- ------ ------ ---- ---- ------- ----- -- ----<br>-------- ------- -- ---------- --- - --- ----- ----- ----<br>---- --- --- ----- --- ---- ---- ------- ----- ---- -------<br>--- are -- ----- -- --- ---- -- --- ---- -- ------ ------<br>--- ----- -- ----,445757.8999999985,445755.299999997,445421.35,445422.6000000015,445438.063,445772.323,,40,are
screen,html.Screen,2_1_0_1_41,2022-02-01T12:08:11.506Z,,,,,,,,,,,,,,,,,53,,,,,,,,,,,,,,334.8769999955548,,response,,,,99,,,,,,,Space,keypress(Space),,,,,,,,---- -- ----- -- ------ - ------- --- ----------<br>------------- ------ ------ ---- ---- ------- ----- -- ----<br>-------- ------- -- ---------- --- - --- ----- ----- ----<br>---- --- --- ----- --- ---- ---- ------- ----- ---- -------<br>--- --- as ----- -- --- ---- -- --- ---- -- ------ ------<br>--- ----- -- ----,446109.5,446107.19999999553,445755.61,445758,445772.323,446123.296,,41,as
screen,html.Screen,2_1_0_1_42,2022-02-01T12:08:11.858Z,,,,,,,,,,,,,,,,,53,,,,,,,,,,,,,,335.90399999555666,,response,,,,99,,,,,,,Space,keypress(Space),,,,,,,,---- -- ----- -- ------ - ------- --- ----------<br>------------- ------ ------ ---- ---- ------- ----- -- ----<br>-------- ------- -- ---------- --- - --- ----- ----- ----<br>---- --- --- ----- --- ---- ---- ------- ----- ---- -------<br>--- --- -- close -- --- ---- -- --- ---- -- ------ ------<br>--- ----- -- ----,446461.3999999985,446459.19999999553,446106.583,446109.6000000015,446123.296,446474.269,,42,close
screen,html.Screen,2_1_0_1_43,2022-02-01T12:08:12.155Z,,,,,,,,,,,,,,,,,53,,,,,,,,,,,,,,281.03099999704864,,response,,,,99,,,,,,,Space,keypress(Space),,,,,,,,---- -- ----- -- ------ - ------- --- ----------<br>------------- ------ ------ ---- ---- ------- ----- -- ----<br>-------- ------- -- ---------- --- - --- ----- ----- ----<br>---- --- --- ----- --- ---- ---- ------- ----- ---- -------<br>--- --- -- ----- as --- ---- -- --- ---- -- ------ ------<br>--- ----- -- ----,446757.8999999985,446755.299999997,446457.556,446461.6000000015,446474.269,446775.103,,43,as
screen,html.Screen,2_1_0_1_44,2022-02-01T12:08:12.466Z,,,,,,,,,,,,,,,,,53,,,,,,,,,,,,,,291.9970000014873,,response,,,,99,,,,,,,Space,keypress(Space),,,,,,,,---- -- ----- -- ------ - ------- --- ----------<br>------------- ------ ------ ---- ---- ------- ----- -- ----<br>-------- ------- -- ---------- --- - --- ----- ----- ----<br>---- --- --- ----- --- ---- ---- ------- ----- ---- -------<br>--- --- -- ----- -- you ---- -- --- ---- -- ------ ------<br>--- ----- -- ----,447069.19999999553,447067.1000000015,446758.39,446758.1000000015,446775.103,447075.937,,44,you
screen,html.Screen,2_1_0_1_45,2022-02-01T12:08:12.739Z,,,,,,,,,,,,,,,,,53,,,,,,,,,,,,,,263.2629999955534,,response,,,,99,,,,,,,Space,keypress(Space),,,,,,,,---- -- ----- -- ------ - ------- --- ----------<br>------------- ------ ------ ---- ---- ------- ----- -- ----<br>-------- ------- -- ---------- --- - --- ----- ----- ----<br>---- --- --- ----- --- ---- ---- ------- ----- ---- -------<br>--- --- -- ----- -- --- want -- --- ---- -- ------ ------<br>--- ----- -- ----,447341.69999999553,447339.19999999553,447059.224,447069.299999997,447075.937,447343.345,,45,want
screen,html.Screen,2_1_0_1_46,2022-02-01T12:08:13.019Z,,,,,,,,,,,,,,,,,53,,,,,,,,,,,,,,275.9549999970477,,response,,,,99,,,,,,,Space,keypress(Space),,,,,,,,---- -- ----- -- ------ - ------- --- ----------<br>------------- ------ ------ ---- ---- ------- ----- -- ----<br>-------- ------- -- ---------- --- - --- ----- ----- ----<br>---- --- --- ----- --- ---- ---- ------- ----- ---- -------<br>--- --- -- ----- -- --- ---- to --- ---- -- ------ ------<br>--- ----- -- ----,447622,447619.299999997,447326.632,447341.8999999985,447343.345,447627.466,,46,to
screen,html.Screen,2_1_0_1_47,2022-02-01T12:08:13.299Z,,,,,,,,,,,,,,,,,53,,,,,,,,,,,,,,271.83399999700487,,response,,,,99,,,,,,,Space,keypress(Space),,,,,,,,"---- -- ----- -- ------ - ------- --- ----------<br>------------- ------ ------ ---- ---- ------- ----- -- ----<br>-------- ------- -- ---------- --- - --- ----- ----- ----<br>---- --- --- ----- --- ---- ---- ------- ----- ---- -------<br>--- --- -- ----- -- --- ---- -- be, ---- -- ------ ------<br>--- ----- -- ----",447902,447899.299999997,447610.753,447622.1000000015,447627.466,447911.587,,47,"be,"
screen,html.Screen,2_1_0_1_48,2022-02-01T12:08:13.579Z,,,,,,,,,,,,,,,,,53,,,,,,,,,,,,,,267.6129999955301,,response,,,,99,,,,,,,Space,keypress(Space),,,,,,,,---- -- ----- -- ------ - ------- --- ----------<br>------------- ------ ------ ---- ---- ------- ----- -- ----<br>-------- ------- -- ---------- --- - --- ----- ----- ----<br>---- --- --- ----- --- ---- ---- ------- ----- ---- -------<br>--- --- -- ----- -- --- ---- -- --- even -- ------ ------<br>--- ----- -- ----,448181.6000000015,448179.19999999553,447894.874,447902.1000000015,447911.587,448195.708,,48,even
screen,html.Screen,2_1_0_1_49,2022-02-01T12:08:13.819Z,,,,,,,,,,,,,,,,,53,,,,,,,,,,,,,,223.49199999554548,,response,,,,99,,,,,,,Space,keypress(Space),,,,,,,,---- -- ----- -- ------ - ------- --- ----------<br>------------- ------ ------ ---- ---- ------- ----- -- ----<br>-------- ------- -- ---------- --- - --- ----- ----- ----<br>---- --- --- ----- --- ---- ---- ------- ----- ---- -------<br>--- --- -- ----- -- --- ---- -- --- ---- if ------ ------<br>--- ----- -- ----,448421.69999999553,448419.19999999553,448178.995,448181.69999999553,448195.708,448429.69,,49,if
screen,html.Screen,2_1_0_1_50,2022-02-01T12:08:14.035Z,,,,,,,,,,,,,,,,,53,,,,,,,,,,,,,,205.60999999701744,,response,,,,99,,,,,,,Space,keypress(Space),,,,,,,,---- -- ----- -- ------ - ------- --- ----------<br>------------- ------ ------ ---- ---- ------- ----- -- ----<br>-------- ------- -- ---------- --- - --- ----- ----- ----<br>---- --- --- ----- --- ---- ---- ------- ----- ---- -------<br>--- --- -- ----- -- --- ---- -- --- ---- -- that's ------<br>--- ----- -- ----,448637.8999999985,448635.299999997,448412.977,448421.8999999985,448429.69,448651.836,,50,that's
screen,html.Screen,2_1_0_1_51,2022-02-01T12:08:14.475Z,,,,,,,,,,,,,,,,,53,,,,,,,,,,,,,,423.3639999955194,,response,,,,99,,,,,,,Space,keypress(Space),,,,,,,,---- -- ----- -- ------ - ------- --- ----------<br>------------- ------ ------ ---- ---- ------- ----- -- ----<br>-------- ------- -- ---------- --- - --- ----- ----- ----<br>---- --- --- ----- --- ---- ---- ------- ----- ---- -------<br>--- --- -- ----- -- --- ---- -- --- ---- -- ------ really<br>--- ----- -- ----,449077.69999999553,449075.19999999553,448635.123,448638.1000000015,448651.836,449086.374,,51,really
screen,html.Screen,2_1_0_1_52,2022-02-01T12:08:14.859Z,,,,,,,,,,,,,,,,,53,,,,,,,,,,,,,,372.82599999551894,,response,,,,99,,,,,,,Space,keypress(Space),,,,,,,,---- -- ----- -- ------ - ------- --- ----------<br>------------- ------ ------ ---- ---- ------- ----- -- ----<br>-------- ------- -- ---------- --- - --- ----- ----- ----<br>---- --- --- ----- --- ---- ---- ------- ----- ---- -------<br>--- --- -- ----- -- --- ---- -- --- ---- -- ------ ------<br>not ----- -- ----,449462.19999999553,449459.19999999553,449069.661,449077.8999999985,449086.374,449470.773,,52,not
screen,html.Screen,2_1_0_1_53,2022-02-01T12:08:15.187Z,,,,,,,,,,,,,,,,,53,,,,,,,,,,,,,,316.5269999970333,,response,,,,99,,,,,,,Space,keypress(Space),,,,,,,,---- -- ----- -- ------ - ------- --- ----------<br>------------- ------ ------ ---- ---- ------- ----- -- ----<br>-------- ------- -- ---------- --- - --- ----- ----- ----<br>---- --- --- ----- --- ---- ---- ------- ----- ---- -------<br>--- --- -- ----- -- --- ---- -- --- ---- -- ------ ------<br>--- close -- ----,449789.8999999985,449787.299999997,449454.06,449462.299999997,449470.773,449805.033,,53,close
screen,html.Screen,2_1_0_1_54,2022-02-01T12:08:15.515Z,,,,,,,,,,,,,,,,,53,,,,,,,,,,,,,,310.26699999702396,,response,,,,99,,,,,,,Space,keypress(Space),,,,,,,,---- -- ----- -- ------ - ------- --- ----------<br>------------- ------ ------ ---- ---- ------- ----- -- ----<br>-------- ------- -- ---------- --- - --- ----- ----- ----<br>---- --- --- ----- --- ---- ---- ------- ----- ---- -------<br>--- --- -- ----- -- --- ---- -- --- ---- -- ------ ------<br>--- ----- at ----,450118,450115.299999997,449788.32,449790,449805.033,450122.58,,54,at
screen,html.Screen,2_1_0_1_55,2022-02-01T12:08:15.850Z,,,,,,,,,,,,,,,,,53,,,,,,,,,,,,,,328.61999999551335,,response,,,,99,,,,,,,Space,keypress(Space),,,,,,,,---- -- ----- -- ------ - ------- --- ----------<br>------------- ------ ------ ---- ---- ------- ----- -- ----<br>-------- ------- -- ---------- --- - --- ----- ----- ----<br>---- --- --- ----- --- ---- ---- ------- ----- ---- -------<br>--- --- -- ----- -- --- ---- -- --- ---- -- ------ ------<br>--- ----- -- all.,450453.6000000015,450451.19999999553,450105.867,450118.1000000015,450122.58,450456.84,,55,all.
Item 99,flow.Loop,2_1_0_1,2022-02-01T12:08:15.851Z,,,,,,,,,,,,,,,,,,,,,,,,,,,,,,,22939.24799999554,,completion,,,,,A,,,,,,,,,,,silence,,,,,450453.8999999985,450451.19999999553,427495.239,427498,427511.952,450456.84,,,
Question 1,html.Screen,2_1_0_2,2022-02-01T12:08:22.353Z,,,,,,,,,,,,,,,,,,,,,,,,,,,,true,FALSE,,6497.7600000014645,,response,,,,99,A,,,,,,FALSE,click #choice-2,,,,silence,,,,,456956.299999997,456954.6000000015,450440.127,450454,450456.84,456974.91,,,
Question 2,html.Screen,2_1_0_3,2022-02-01T12:08:27.128Z,,,,,,,,,,,,,,,,,,,,,,,,,,,,true,TRUE,,4755.690000001516,,response,,,,99,A,,,,,,TRUE,click #choice-1,,,,silence,,,,,461732,461730.6000000015,456958.197,456956.5,456974.91,461759.666,,,
Item 99,flow.Sequence,2_1_0,2022-02-01T12:08:27.129Z,,,,,,,,,,,,,,,,,,,,,,,,,,,,,,,44220.31000000151,,completion,,,,,,,,,,,,,,,,,,,,,461732.3999999985,461730.6000000015,417493.577,417505.299999997,417510.29,461759.666,,,
Holding screen,html.Screen,2_1_1_0,2022-02-01T12:08:37.143Z,,,,,,,,,,,,,,,,,,,,,,,,,,,,,,,10001.722999999998,,timeout,,,,,,,,,,,,,,,,,,,,,471746.799999997,471744.676,461742.953,461732.6000000015,461759.666,471761.389,,,
screen,html.Screen,2_1_1_1_0,2022-02-01T12:08:38.146Z,,,,,,,,,,,,,,,,,54,,,,,,,,,,,,,,985.810999995505,,response,,,,100,,,,,,,Space,keypress(Space),,,,,,,,At --- ---- --- ------ ----- ------- ---- -- --- ------- --<br>------- ---------- ------ -- ----- -- ----- -- ---- ------<br>--- ----- --- --- ------ -------- ----- --- ------ ----- --<br>----- ----- ---------- --- --- ------ ------ ---- -- ------<br>------- --- ------ ----- --- ---- ------- -- ---- --- --<br>------- ------,472749.69999999553,472747.19999999553,471744.676,471746.8999999985,471761.389,472764.169,,0,At
screen,html.Screen,2_1_1_1_1,2022-02-01T12:08:38.482Z,,,,,,,,,,,,,,,,,54,,,,,,,,,,,,,,319.13099999702536,,response,,,,100,,,,,,,Space,keypress(Space),,,,,,,,-- the ---- --- ------ ----- ------- ---- -- --- ------- --<br>------- ---------- ------ -- ----- -- ----- -- ---- ------<br>--- ----- --- --- ------ -------- ----- --- ------ ----- --<br>----- ----- ---------- --- --- ------ ------ ---- -- ------<br>------- --- ------ ----- --- ---- ------- -- ---- --- --<br>------- ------,473086.19999999553,473083.299999997,472747.456,472749.8999999985,472764.169,473098.429,,1,the
screen,html.Screen,2_1_1_1_2,2022-02-01T12:08:38.826Z,,,,,,,,,,,,,,,,,54,,,,,,,,,,,,,,328.87099999701604,,response,,,,100,,,,,,,Space,keypress(Space),,,,,,,,-- --- time --- ------ ----- ------- ---- -- --- ------- --<br>------- ---------- ------ -- ----- -- ----- -- ---- ------<br>--- ----- --- --- ------ -------- ----- --- ------ ----- --<br>----- ----- ---------- --- --- ------ ------ ---- -- ------<br>------- --- ------ ----- --- ---- ------- -- ---- --- --<br>------- ------,473429.8999999985,473427.299999997,473081.716,473086.299999997,473098.429,473432.689,,2,time
screen,html.Screen,2_1_1_1_3,2022-02-01T12:08:39.194Z,,,,,,,,,,,,,,,,,54,,,,,,,,,,,,,,362.5109999955166,,response,,,,100,,,,,,,Space,keypress(Space),,,,,,,,-- --- ---- the ------ ----- ------- ---- -- --- ------- --<br>------- ---------- ------ -- ----- -- ----- -- ---- ------<br>--- ----- --- --- ------ -------- ----- --- ------ ----- --<br>----- ----- ---------- --- --- ------ ------ ---- -- ------<br>------- --- ------ ----- --- ---- ------- -- ---- --- --<br>------- ------,473797.8999999985,473795.19999999553,473415.976,473430,473432.689,473800.375,,3,the
screen,html.Screen,2_1_1_1_4,2022-02-01T12:08:39.546Z,,,,,,,,,,,,,,,,,54,,,,,,,,,,,,,,346.92499999701977,,response,,,,100,,,,,,,Space,keypress(Space),,,,,,,,-- --- ---- --- French ----- ------- ---- -- --- ------- --<br>------- ---------- ------ -- ----- -- ----- -- ---- ------<br>--- ----- --- --- ------ -------- ----- --- ------ ----- --<br>----- ----- ---------- --- --- ------ ------ ---- -- ------<br>------- --- ------ ----- --- ---- ------- -- ---- --- --<br>------- ------,474150.19999999553,474147.299999997,473783.662,473798,473800.375,474151.348,,4,French
screen,html.Screen,2_1_1_1_5,2022-02-01T12:08:39.938Z,,,,,,,,,,,,,,,,,54,,,,,,,,,,,,,,387.8519999955315,,response,,,,100,,,,,,,Space,keypress(Space),,,,,,,,-- --- ---- --- ------ crown ------- ---- -- --- ------- --<br>------- ---------- ------ -- ----- -- ----- -- ---- ------<br>--- ----- --- --- ------ -------- ----- --- ------ ----- --<br>----- ----- ---------- --- --- ------ ------ ---- -- ------<br>------- --- ------ ----- --- ---- ------- -- ---- --- --<br>------- ------,474541.69999999553,474539.19999999553,474134.635,474150.19999999553,474151.348,474552.46,,5,crown
screen,html.Screen,2_1_1_1_6,2022-02-01T12:08:40.306Z,,,,,,,,,,,,,,,,,54,,,,,,,,,,,,,,354.7399999955087,,response,,,,100,,,,,,,Space,keypress(Space),,,,,,,,-- --- ---- --- ------ ----- secured ---- -- --- ------- --<br>------- ---------- ------ -- ----- -- ----- -- ---- ------<br>--- ----- --- --- ------ -------- ----- --- ------ ----- --<br>----- ----- ---------- --- --- ------ ------ ---- -- ------<br>------- --- ------ ----- --- ---- ------- -- ---- --- --<br>------- ------,474909.69999999553,474907.19999999553,474535.747,474541.69999999553,474552.46,474920.146,,6,secured
screen,html.Screen,2_1_1_1_7,2022-02-01T12:08:40.730Z,,,,,,,,,,,,,,,,,54,,,,,,,,,,,,,,411.05399999552174,,response,,,,100,,,,,,,Space,keypress(Space),,,,,,,,-- --- ---- --- ------ ----- ------- much -- --- ------- --<br>------- ---------- ------ -- ----- -- ----- -- ---- ------<br>--- ----- --- --- ------ -------- ----- --- ------ ----- --<br>----- ----- ---------- --- --- ------ ------ ---- -- ------<br>------- --- ------ ----- --- ---- ------- -- ---- --- --<br>------- ------,475333.799999997,475331.19999999553,474903.433,474909.799999997,474920.146,475337.971,,7,much
screen,html.Screen,2_1_1_1_8,2022-02-01T12:08:41.138Z,,,,,,,,,,,,,,,,,54,,,,,,,,,,,,,,401.2289999955101,,response,,,,100,,,,,,,Space,keypress(Space),,,,,,,,-- --- ---- --- ------ ----- ------- ---- of --- ------- --<br>------- ---------- ------ -- ----- -- ----- -- ---- ------<br>--- ----- --- --- ------ -------- ----- --- ------ ----- --<br>----- ----- ---------- --- --- ------ ------ ---- -- ------<br>------- --- ------ ----- --- ---- ------- -- ---- --- --<br>------- ------,475741.6000000015,475739.19999999553,475321.258,475333.8999999985,475337.971,475755.796,,8,of
screen,html.Screen,2_1_1_1_9,2022-02-01T12:08:41.858Z,,,,,,,,,,,,,,,,,54,,,,,,,,,,,,,,703.4039999955567,,response,,,,100,,,,,,,Space,keypress(Space),,,,,,,,-- --- ---- --- ------ ----- ------- ---- -- its ------- --<br>------- ---------- ------ -- ----- -- ----- -- ---- ------<br>--- ----- --- --- ------ -------- ----- --- ------ ----- --<br>----- ----- ---------- --- --- ------ ------ ---- -- ------<br>------- --- ------ ----- --- ---- ------- -- ---- --- --<br>------- ------,476461.69999999553,476459.19999999553,475739.083,475741.69999999553,475755.796,476474.455,,9,its
screen,html.Screen,2_1_1_1_10,2022-02-01T12:08:42.282Z,,,,,,,,,,,,,,,,,54,,,,,,,,,,,,,,408.74499999551335,,response,,,,100,,,,,,,Space,keypress(Space),,,,,,,,-- --- ---- --- ------ ----- ------- ---- -- --- revenue --<br>------- ---------- ------ -- ----- -- ----- -- ---- ------<br>--- ----- --- --- ------ -------- ----- --- ------ ----- --<br>----- ----- ---------- --- --- ------ ------ ---- -- ------<br>------- --- ------ ----- --- ---- ------- -- ---- --- --<br>------- ------,476885.8999999985,476883.19999999553,476457.742,476461.799999997,476474.455,476892.28,,10,revenue
screen,html.Screen,2_1_1_1_11,2022-02-01T12:08:42.810Z,,,,,,,,,,,,,,,,,54,,,,,,,,,,,,,,518.9199999955017,,response,,,,100,,,,,,,Space,keypress(Space),,,,,,,,-- --- ---- --- ------ ----- ------- ---- -- --- ------- by<br>------- ---------- ------ -- ----- -- ----- -- ---- ------<br>--- ----- --- --- ------ -------- ----- --- ------ ----- --<br>----- ----- ---------- --- --- ------ ------ ---- -- ------<br>------- --- ------ ----- --- ---- ------- -- ---- --- --<br>------- ------,477413.6000000015,477411.19999999553,476875.567,476886,476892.28,477427.096,,11,by
screen,html.Screen,2_1_1_1_12,2022-02-01T12:08:43.346Z,,,,,,,,,,,,,,,,,54,,,,,,,,,,,,,,520.2039999970002,,response,,,,100,,,,,,,Space,keypress(Space),,,,,,,,-- --- ---- --- ------ ----- ------- ---- -- --- ------- --<br>issuing ---------- ------ -- ----- -- ----- -- ---- ------<br>--- ----- --- --- ------ -------- ----- --- ------ ----- --<br>----- ----- ---------- --- --- ------ ------ ---- -- ------<br>------- --- ------ ----- --- ---- ------- -- ---- --- --<br>------- ------,477949.8999999985,477947.299999997,477410.383,477413.799999997,477427.096,477961.912,,12,issuing
screen,html.Screen,2_1_1_1_13,2022-02-01T12:08:43.826Z,,,,,,,,,,,,,,,,,54,,,,,,,,,,,,,,465.2879999955185,,response,,,,100,,,,,,,Space,keypress(Space),,,,,,,,-- --- ---- --- ------ ----- ------- ---- -- --- ------- --<br>------- government ------ -- ----- -- ----- -- ---- ------<br>--- ----- --- --- ------ -------- ----- --- ------ ----- --<br>----- ----- ---------- --- --- ------ ------ ---- -- ------<br>------- --- ------ ----- --- ---- ------- -- ---- --- --<br>------- ------,478429.6000000015,478427.19999999553,477945.199,477950,477961.912,478446.589,,13,government
screen,html.Screen,2_1_1_1_14,2022-02-01T12:08:44.258Z,,,,,,,,,,,,,,,,,54,,,,,,,,,,,,,,412.71099999704165,,response,,,,100,,,,,,,Space,keypress(Space),,,,,,,,-- --- ---- --- ------ ----- ------- ---- -- --- ------- --<br>------- ---------- bonds. -- ----- -- ----- -- ---- ------<br>--- ----- --- --- ------ -------- ----- --- ------ ----- --<br>----- ----- ---------- --- --- ------ ------ ---- -- ------<br>------- --- ------ ----- --- ---- ------- -- ---- --- --<br>------- ------,478861.69999999553,478859.299999997,478429.876,478429.69999999553,478446.589,478864.414,,14,bonds.
screen,html.Screen,2_1_1_1_15,2022-02-01T12:08:44.754Z,,,,,,,,,,,,,,,,,54,,,,,,,,,,,,,,490.88599999703,,response,,,,100,,,,,,,Space,keypress(Space),,,,,,,,-- --- ---- --- ------ ----- ------- ---- -- --- ------- --<br>------- ---------- ------ In ----- -- ----- -- ---- ------<br>--- ----- --- --- ------ -------- ----- --- ------ ----- --<br>----- ----- ---------- --- --- ------ ------ ---- -- ------<br>------- --- ------ ----- --- ---- ------- -- ---- --- --<br>------- ------,479357.8999999985,479355.299999997,478847.701,478861.8999999985,478864.414,479365.804,,15,In
screen,html.Screen,2_1_1_1_16,2022-02-01T12:08:45.306Z,,,,,,,,,,,,,,,,,54,,,,,,,,,,,,,,541.495999997016,,response,,,,100,,,,,,,Space,keypress(Space),,,,,,,,"-- --- ---- --- ------ ----- ------- ---- -- --- ------- --<br>------- ---------- ------ -- 1727, -- ----- -- ---- ------<br>--- ----- --- --- ------ -------- ----- --- ------ ----- --<br>----- ----- ---------- --- --- ------ ------ ---- -- ------<br>------- --- ------ ----- --- ---- ------- -- ---- --- --<br>------- ------",479909.8999999985,479907.299999997,479349.091,479358.799999997,479365.804,479917.333,,16,"1727,"
screen,html.Screen,2_1_1_1_17,2022-02-01T12:08:45.874Z,,,,,,,,,,,,,,,,,54,,,,,,,,,,,,,,557.9669999970356,,response,,,,100,,,,,,,Space,keypress(Space),,,,,,,,-- --- ---- --- ------ ----- ------- ---- -- --- ------- --<br>------- ---------- ------ -- ----- in ----- -- ---- ------<br>--- ----- --- --- ------ -------- ----- --- ------ ----- --<br>----- ----- ---------- --- --- ------ ------ ---- -- ------<br>------- --- ------ ----- --- ---- ------- -- ---- --- --<br>------- ------,480477.6000000015,480475.299999997,479900.62,479910,479917.333,480485.575,,17,in
screen,html.Screen,2_1_1_1_18,2022-02-01T12:08:46.402Z,,,,,,,,,,,,,,,,,54,,,,,,,,,,,,,,517.7249999970081,,response,,,,100,,,,,,,Space,keypress(Space),,,,,,,,-- --- ---- --- ------ ----- ------- ---- -- --- ------- --<br>------- ---------- ------ -- ----- -- order -- ---- ------<br>--- ----- --- --- ------ -------- ----- --- ------ ----- --<br>----- ----- ---------- --- --- ------ ------ ---- -- ------<br>------- --- ------ ----- --- ---- ------- -- ---- --- --<br>------- ------,481005.8999999985,481003.299999997,480468.862,480477.799999997,480485.575,481008.555,,18,order
screen,html.Screen,2_1_1_1_19,2022-02-01T12:08:46.730Z,,,,,,,,,,,,,,,,,54,,,,,,,,,,,,,,322.64499999553664,,response,,,,100,,,,,,,Space,keypress(Space),,,,,,,,-- --- ---- --- ------ ----- ------- ---- -- --- ------- --<br>------- ---------- ------ -- ----- -- ----- to ---- ------<br>--- ----- --- --- ------ -------- ----- --- ------ ----- --<br>----- ----- ---------- --- --- ------ ------ ---- -- ------<br>------- --- ------ ----- --- ---- ------- -- ---- --- --<br>------- ------,481333.6000000015,481331.19999999553,480991.842,481006.1000000015,481008.555,481342.815,,19,to
screen,html.Screen,2_1_1_1_20,2022-02-01T12:08:47.074Z,,,,,,,,,,,,,,,,,54,,,,,,,,,,,,,,332.48499999701744,,response,,,,100,,,,,,,Space,keypress(Space),,,,,,,,-- --- ---- --- ------ ----- ------- ---- -- --- ------- --<br>------- ---------- ------ -- ----- -- ----- -- save ------<br>--- ----- --- --- ------ -------- ----- --- ------ ----- --<br>----- ----- ---------- --- --- ------ ------ ---- -- ------<br>------- --- ------ ----- --- ---- ------- -- ---- --- --<br>------- ------,481677.8999999985,481675.299999997,481326.102,481333.799999997,481342.815,481693.788,,20,save
screen,html.Screen,2_1_1_1_21,2022-02-01T12:08:47.353Z,,,,,,,,,,,,,,,,,54,,,,,,,,,,,,,,261.31200000148965,,response,,,,100,,,,,,,Space,keypress(Space),,,,,,,,"-- --- ---- --- ------ ----- ------- ---- -- --- ------- --<br>------- ---------- ------ -- ----- -- ----- -- ---- money,<br>--- ----- --- --- ------ -------- ----- --- ------ ----- --<br>----- ----- ---------- --- --- ------ ------ ---- -- ------<br>------- --- ------ ----- --- ---- ------- -- ---- --- --<br>------- ------",481957.5,481955.1000000015,481677.075,481678,481693.788,481961.196,,21,"money,"
screen,html.Screen,2_1_1_1_22,2022-02-01T12:08:47.810Z,,,,,,,,,,,,,,,,,54,,,,,,,,,,,,,,450.1039999970235,,response,,,,100,,,,,,,Space,keypress(Space),,,,,,,,-- --- ---- --- ------ ----- ------- ---- -- --- ------- --<br>------- ---------- ------ -- ----- -- ----- -- ---- ------<br>the ----- --- --- ------ -------- ----- --- ------ ----- --<br>----- ----- ---------- --- --- ------ ------ ---- -- ------<br>------- --- ------ ----- --- ---- ------- -- ---- --- --<br>------- ------,482414,482411.299999997,481944.483,481957.69999999553,481961.196,482429.16,,22,the
screen,html.Screen,2_1_1_1_23,2022-02-01T12:08:48.234Z,,,,,,,,,,,,,,,,,54,,,,,,,,,,,,,,406.1399999970454,,response,,,,100,,,,,,,Space,keypress(Space),,,,,,,,-- --- ---- --- ------ ----- ------- ---- -- --- ------- --<br>------- ---------- ------ -- ----- -- ----- -- ---- ------<br>--- state --- --- ------ -------- ----- --- ------ ----- --<br>----- ----- ---------- --- --- ------ ------ ---- -- ------<br>------- --- ------ ----- --- ---- ------- -- ---- --- --<br>------- ------,482838.5,482835.299999997,482412.447,482414.1000000015,482429.16,482846.985,,23,state
screen,html.Screen,2_1_1_1_24,2022-02-01T12:08:48.657Z,,,,,,,,,,,,,,,,,54,,,,,,,,,,,,,,412.2149999955436,,response,,,,100,,,,,,,Space,keypress(Space),,,,,,,,-- --- ---- --- ------ ----- ------- ---- -- --- ------- --<br>------- ---------- ------ -- ----- -- ----- -- ---- ------<br>--- ----- cut --- ------ -------- ----- --- ------ ----- --<br>----- ----- ---------- --- --- ------ ------ ---- -- ------<br>------- --- ------ ----- --- ---- ------- -- ---- --- --<br>------- ------,483261.6000000015,483259.19999999553,482830.272,482838.69999999553,482846.985,483264.81,,24,cut
screen,html.Screen,2_1_1_1_25,2022-02-01T12:08:49.154Z,,,,,,,,,,,,,,,,,54,,,,,,,,,,,,,,490.5899999985122,,response,,,,100,,,,,,,Space,keypress(Space),,,,,,,,-- --- ---- --- ------ ----- ------- ---- -- --- ------- --<br>------- ---------- ------ -- ----- -- ----- -- ---- ------<br>--- ----- --- the ------ -------- ----- --- ------ ----- --<br>----- ----- ---------- --- --- ------ ------ ---- -- ------<br>------- --- ------ ----- --- ---- ------- -- ---- --- --<br>------- ------,483758,483755.3999999985,483248.097,483261.69999999553,483264.81,483766.2,,25,the
screen,html.Screen,2_1_1_1_26,2022-02-01T12:08:49.594Z,,,,,,,,,,,,,,,,,54,,,,,,,,,,,,,,428.999999995518,,response,,,,100,,,,,,,Space,keypress(Space),,,,,,,,-- --- ---- --- ------ ----- ------- ---- -- --- ------- --<br>------- ---------- ------ -- ----- -- ----- -- ---- ------<br>--- ----- --- --- bonds' -------- ----- --- ------ ----- --<br>----- ----- ---------- --- --- ------ ------ ---- -- ------<br>------- --- ------ ----- --- ---- ------- -- ---- --- --<br>------- ------,484197.799999997,484195.19999999553,483749.487,483758.1000000015,483766.2,484200.738,,26,bonds'
screen,html.Screen,2_1_1_1_27,2022-02-01T12:08:50.066Z,,,,,,,,,,,,,,,,,54,,,,,,,,,,,,,,466.56199999700766,,response,,,,100,,,,,,,Space,keypress(Space),,,,,,,,-- --- ---- --- ------ ----- ------- ---- -- --- ------- --<br>------- ---------- ------ -- ----- -- ----- -- ---- ------<br>--- ----- --- --- ------ interest ----- --- ------ ----- --<br>----- ----- ---------- --- --- ------ ------ ---- -- ------<br>------- --- ------ ----- --- ---- ------- -- ---- --- --<br>------- ------,484670,484667.299999997,484184.025,484198,484200.738,484685.415,,27,interest
screen,html.Screen,2_1_1_1_28,2022-02-01T12:08:50.538Z,,,,,,,,,,,,,,,,,54,,,,,,,,,,,,,,453.8849999970407,,response,,,,100,,,,,,,Space,keypress(Space),,,,,,,,-- --- ---- --- ------ ----- ------- ---- -- --- ------- --<br>------- ---------- ------ -- ----- -- ----- -- ---- ------<br>--- ----- --- --- ------ -------- rate. --- ------ ----- --<br>----- ----- ---------- --- --- ------ ------ ---- -- ------<br>------- --- ------ ----- --- ---- ------- -- ---- --- --<br>------- ------,485142.1000000015,485139.299999997,484668.702,484670.1000000015,484685.415,485153.379,,28,rate.
screen,html.Screen,2_1_1_1_29,2022-02-01T12:08:51.321Z,,,,,,,,,,,,,,,,,54,,,,,,,,,,,,,,769.8209999955143,,response,,,,100,,,,,,,Space,keypress(Space),,,,,,,,-- --- ---- --- ------ ----- ------- ---- -- --- ------- --<br>------- ---------- ------ -- ----- -- ----- -- ---- ------<br>--- ----- --- --- ------ -------- ----- The ------ ----- --<br>----- ----- ---------- --- --- ------ ------ ---- -- ------<br>------- --- ------ ----- --- ---- ------- -- ---- --- --<br>------- ------,485925.6000000015,485923.19999999553,485136.666,485142.19999999553,485153.379,485938.89,,29,The
screen,html.Screen,2_1_1_1_30,2022-02-01T12:08:51.714Z,,,,,,,,,,,,,,,,,54,,,,,,,,,,,,,,376.4099999970058,,response,,,,100,,,,,,,Space,keypress(Space),,,,,,,,-- --- ---- --- ------ ----- ------- ---- -- --- ------- --<br>------- ---------- ------ -- ----- -- ----- -- ---- ------<br>--- ----- --- --- ------ -------- ----- --- market ----- --<br>----- ----- ---------- --- --- ------ ------ ---- -- ------<br>------- --- ------ ----- --- ---- ------- -- ---- --- --<br>------- ------,486317.799999997,486315.299999997,485922.177,485925.799999997,485938.89,486323.289,,30,market
screen,html.Screen,2_1_1_1_31,2022-02-01T12:08:52.129Z,,,,,,,,,,,,,,,,,54,,,,,,,,,,,,,,407.81100000150036,,response,,,,100,,,,,,,Space,keypress(Space),,,,,,,,-- --- ---- --- ------ ----- ------- ---- -- --- ------- --<br>------- ---------- ------ -- ----- -- ----- -- ---- ------<br>--- ----- --- --- ------ -------- ----- --- ------ value --<br>----- ----- ---------- --- --- ------ ------ ---- -- ------<br>------- --- ------ ----- --- ---- ------- -- ---- --- --<br>------- ------,486733.5,486731.1000000015,486306.576,486318,486323.289,486741.114,,31,value
screen,html.Screen,2_1_1_1_32,2022-02-01T12:08:52.633Z,,,,,,,,,,,,,,,,,54,,,,,,,,,,,,,,494.08599999552825,,response,,,,100,,,,,,,Space,keypress(Space),,,,,,,,-- --- ---- --- ------ ----- ------- ---- -- --- ------- --<br>------- ---------- ------ -- ----- -- ----- -- ---- ------<br>--- ----- --- --- ------ -------- ----- --- ------ ----- of<br>----- ----- ---------- --- --- ------ ------ ---- -- ------<br>------- --- ------ ----- --- ---- ------- -- ---- --- --<br>------- ------,487237.799999997,487235.19999999553,486724.401,486733.69999999553,486741.114,487242.504,,32,of
screen,html.Screen,2_1_1_1_33,2022-02-01T12:08:53.145Z,,,,,,,,,,,,,,,,,54,,,,,,,,,,,,,,504.6959999955143,,response,,,,100,,,,,,,Space,keypress(Space),,,,,,,,-- --- ---- --- ------ ----- ------- ---- -- --- ------- --<br>------- ---------- ------ -- ----- -- ----- -- ---- ------<br>--- ----- --- --- ------ -------- ----- --- ------ ----- --<br>these ----- ---------- --- --- ------ ------ ---- -- ------<br>------- --- ------ ----- --- ---- ------- -- ---- --- --<br>------- ------,487749.799999997,487747.19999999553,487225.791,487237.8999999985,487242.504,487760.607,,33,these
screen,html.Screen,2_1_1_1_34,2022-02-01T12:08:53.522Z,,,,,,,,,,,,,,,,,54,,,,,,,,,,,,,,362.6929999970016,,response,,,,100,,,,,,,Space,keypress(Space),,,,,,,,-- --- ---- --- ------ ----- ------- ---- -- --- ------- --<br>------- ---------- ------ -- ----- -- ----- -- ---- ------<br>--- ----- --- --- ------ -------- ----- --- ------ ----- --<br>----- bonds ---------- --- --- ------ ------ ---- -- ------<br>------- --- ------ ----- --- ---- ------- -- ---- --- --<br>------- ------,488125.799999997,488123.299999997,487743.894,487749.8999999985,487760.607,488128.293,,34,bonds
screen,html.Screen,2_1_1_1_35,2022-02-01T12:08:54.218Z,,,,,,,,,,,,,,,,,54,,,,,,,,,,,,,,691.0069999970146,,response,,,,100,,,,,,,Space,keypress(Space),,,,,,,,"-- --- ---- --- ------ ----- ------- ---- -- --- ------- --<br>------- ---------- ------ -- ----- -- ----- -- ---- ------<br>--- ----- --- --- ------ -------- ----- --- ------ ----- --<br>----- ----- plummeted, --- --- ------ ------ ---- -- ------<br>------- --- ------ ----- --- ---- ------- -- ---- --- --<br>------- ------",488822,488819.299999997,488111.58,488125.8999999985,488128.293,488830.239,,35,"plummeted,"
screen,html.Screen,2_1_1_1_36,2022-02-01T12:08:54.674Z,,,,,,,,,,,,,,,,,54,,,,,,,,,,,,,,445.06099999701837,,response,,,,100,,,,,,,Space,keypress(Space),,,,,,,,-- --- ---- --- ------ ----- ------- ---- -- --- ------- --<br>------- ---------- ------ -- ----- -- ----- -- ---- ------<br>--- ----- --- --- ------ -------- ----- --- ------ ----- --<br>----- ----- ---------- and --- ------ ------ ---- -- ------<br>------- --- ------ ----- --- ---- ------- -- ---- --- --<br>------- ------,489278,489275.299999997,488813.526,488822.1000000015,488830.239,489281.49,,36,and
screen,html.Screen,2_1_1_1_37,2022-02-01T12:08:55.057Z,,,,,,,,,,,,,,,,,54,,,,,,,,,,,,,,377.70999999553896,,response,,,,100,,,,,,,Space,keypress(Space),,,,,,,,-- --- ---- --- ------ ----- ------- ---- -- --- ------- --<br>------- ---------- ------ -- ----- -- ----- -- ---- ------<br>--- ----- --- --- ------ -------- ----- --- ------ ----- --<br>----- ----- ---------- --- the ------ ------ ---- -- ------<br>------- --- ------ ----- --- ---- ------- -- ---- --- --<br>------- ------,489661.5,489659.19999999553,489264.777,489278.1000000015,489281.49,489665.889,,37,the
screen,html.Screen,2_1_1_1_38,2022-02-01T12:08:55.353Z,,,,,,,,,,,,,,,,,54,,,,,,,,,,,,,,289.310999995505,,response,,,,100,,,,,,,Space,keypress(Space),,,,,,,,-- --- ---- --- ------ ----- ------- ---- -- --- ------- --<br>------- ---------- ------ -- ----- -- ----- -- ---- ------<br>--- ----- --- --- ------ -------- ----- --- ------ ----- --<br>----- ----- ---------- --- --- market ------ ---- -- ------<br>------- --- ------ ----- --- ---- ------- -- ---- --- --<br>------- ------,489957.69999999553,489955.19999999553,489649.176,489661.6000000015,489665.889,489966.723,,38,market
screen,html.Screen,2_1_1_1_39,2022-02-01T12:08:55.673Z,,,,,,,,,,,,,,,,,54,,,,,,,,,,,,,,308.4769999955315,,response,,,,100,,,,,,,Space,keypress(Space),,,,,,,,-- --- ---- --- ------ ----- ------- ---- -- --- ------- --<br>------- ---------- ------ -- ----- -- ----- -- ---- ------<br>--- ----- --- --- ------ -------- ----- --- ------ ----- --<br>----- ----- ---------- --- --- ------ became ---- -- ------<br>------- --- ------ ----- --- ---- ------- -- ---- --- --<br>------- ------,490277.69999999553,490275.19999999553,489950.01,489957.799999997,489966.723,490284.27,,39,became
screen,html.Screen,2_1_1_1_40,2022-02-01T12:08:55.914Z,,,,,,,,,,,,,,,,,54,,,,,,,,,,,,,,231.02999999700114,,response,,,,100,,,,,,,Space,keypress(Space),,,,,,,,-- --- ---- --- ------ ----- ------- ---- -- --- ------- --<br>------- ---------- ------ -- ----- -- ----- -- ---- ------<br>--- ----- --- --- ------ -------- ----- --- ------ ----- --<br>----- ----- ---------- --- --- ------ ------ wary -- ------<br>------- --- ------ ----- --- ---- ------- -- ---- --- --<br>------- ------,490518,490515.299999997,490267.557,490277.8999999985,490284.27,490523.086,,40,wary
screen,html.Screen,2_1_1_1_41,2022-02-01T12:08:56.121Z,,,,,,,,,,,,,,,,,54,,,,,,,,,,,,,,200.1139999955194,,response,,,,100,,,,,,,Space,keypress(Space),,,,,,,,-- --- ---- --- ------ ----- ------- ---- -- --- ------- --<br>------- ---------- ------ -- ----- -- ----- -- ---- ------<br>--- ----- --- --- ------ -------- ----- --- ------ ----- --<br>----- ----- ---------- --- --- ------ ------ ---- of ------<br>------- --- ------ ----- --- ---- ------- -- ---- --- --<br>------- ------,490725.69999999553,490723.19999999553,490506.373,490518.19999999553,490523.086,490740.355,,41,of
screen,html.Screen,2_1_1_1_42,2022-02-01T12:08:56.418Z,,,,,,,,,,,,,,,,,54,,,,,,,,,,,,,,278.9449999970384,,response,,,,100,,,,,,,Space,keypress(Space),,,,,,,,-- --- ---- --- ------ ----- ------- ---- -- --- ------- --<br>------- ---------- ------ -- ----- -- ----- -- ---- ------<br>--- ----- --- --- ------ -------- ----- --- ------ ----- --<br>----- ----- ---------- --- --- ------ ------ ---- -- French<br>------- --- ------ ----- --- ---- ------- -- ---- --- --<br>------- ------,491021.8999999985,491019.299999997,490723.642,490725.8999999985,490740.355,491024.476,,42,French
screen,html.Screen,2_1_1_1_43,2022-02-01T12:08:56.833Z,,,,,,,,,,,,,,,,,54,,,,,,,,,,,,,,410.82399999699555,,response,,,,100,,,,,,,Space,keypress(Space),,,,,,,,-- --- ---- --- ------ ----- ------- ---- -- --- ------- --<br>------- ---------- ------ -- ----- -- ----- -- ---- ------<br>--- ----- --- --- ------ -------- ----- --- ------ ----- --<br>----- ----- ---------- --- --- ------ ------ ---- -- ------<br>credit. --- ------ ----- --- ---- ------- -- ---- --- --<br>------- ------,491437.69999999553,491435.299999997,491007.763,491022.1000000015,491024.476,491442.301,,43,credit.
screen,html.Screen,2_1_1_1_44,2022-02-01T12:08:57.145Z,,,,,,,,,,,,,,,,,54,,,,,,,,,,,,,,304.9989999970421,,response,,,,100,,,,,,,Space,keypress(Space),,,,,,,,-- --- ---- --- ------ ----- ------- ---- -- --- ------- --<br>------- ---------- ------ -- ----- -- ----- -- ---- ------<br>--- ----- --- --- ------ -------- ----- --- ------ ----- --<br>----- ----- ---------- --- --- ------ ------ ---- -- ------<br>------- The ------ ----- --- ---- ------- -- ---- --- --<br>------- ------,491749.799999997,491747.299999997,491425.588,491437.799999997,491442.301,491759.848,,44,The
screen,html.Screen,2_1_1_1_45,2022-02-01T12:08:57.482Z,,,,,,,,,,,,,,,,,54,,,,,,,,,,,,,,323.45199999702163,,response,,,,100,,,,,,,Space,keypress(Space),,,,,,,,-- --- ---- --- ------ ----- ------- ---- -- --- ------- --<br>------- ---------- ------ -- ----- -- ----- -- ---- ------<br>--- ----- --- --- ------ -------- ----- --- ------ ----- --<br>----- ----- ---------- --- --- ------ ------ ---- -- ------<br>------- --- French ----- --- ---- ------- -- ---- --- --<br>------- ------,492085.8999999985,492083.299999997,491743.135,491749.8999999985,491759.848,492094.108,,45,French
screen,html.Screen,2_1_1_1_46,2022-02-01T12:08:57.770Z,,,,,,,,,,,,,,,,,54,,,,,,,,,,,,,,277.1919999970123,,response,,,,100,,,,,,,Space,keypress(Space),,,,,,,,-- --- ---- --- ------ ----- ------- ---- -- --- ------- --<br>------- ---------- ------ -- ----- -- ----- -- ---- ------<br>--- ----- --- --- ------ -------- ----- --- ------ ----- --<br>----- ----- ---------- --- --- ------ ------ ---- -- ------<br>------- --- ------ state --- ---- ------- -- ---- --- --<br>------- ------,492373.8999999985,492371.299999997,492077.395,492086.1000000015,492094.108,492378.229,,46,state
screen,html.Screen,2_1_1_1_47,2022-02-01T12:08:58.105Z,,,,,,,,,,,,,,,,,54,,,,,,,,,,,,,,329.0709999970277,,response,,,,100,,,,,,,Space,keypress(Space),,,,,,,,-- --- ---- --- ------ ----- ------- ---- -- --- ------- --<br>------- ---------- ------ -- ----- -- ----- -- ---- ------<br>--- ----- --- --- ------ -------- ----- --- ------ ----- --<br>----- ----- ---------- --- --- ------ ------ ---- -- ------<br>------- --- ------ ----- was ---- ------- -- ---- --- --<br>------- ------,492709.69999999553,492707.299999997,492361.516,492374.1000000015,492378.229,492712.489,,47,was
screen,html.Screen,2_1_1_1_48,2022-02-01T12:08:58.378Z,,,,,,,,,,,,,,,,,54,,,,,,,,,,,,,,266.81099999701837,,response,,,,100,,,,,,,Space,keypress(Space),,,,,,,,-- --- ---- --- ------ ----- ------- ---- -- --- ------- --<br>------- ---------- ------ -- ----- -- ----- -- ---- ------<br>--- ----- --- --- ------ -------- ----- --- ------ ----- --<br>----- ----- ---------- --- --- ------ ------ ---- -- ------<br>------- --- ------ ----- --- left ------- -- ---- --- --<br>------- ------,492982.299999997,492979.299999997,492695.776,492709.799999997,492712.489,492996.61,,48,left
screen,html.Screen,2_1_1_1_49,2022-02-01T12:08:58.642Z,,,,,,,,,,,,,,,,,54,,,,,,,,,,,,,,246.68999999703374,,response,,,,100,,,,,,,Space,keypress(Space),,,,,,,,-- --- ---- --- ------ ----- ------- ---- -- --- ------- --<br>------- ---------- ------ -- ----- -- ----- -- ---- ------<br>--- ----- --- --- ------ -------- ----- --- ------ ----- --<br>----- ----- ---------- --- --- ------ ------ ---- -- ------<br>------- --- ------ ----- --- ---- without -- ---- --- --<br>------- ------,493246.1000000015,493243.299999997,492979.897,492982.5,492996.61,493247.305,,49,without
screen,html.Screen,2_1_1_1_50,2022-02-01T12:08:58.881Z,,,,,,,,,,,,,,,,,54,,,,,,,,,,,,,,235.99499999702675,,response,,,,100,,,,,,,Space,keypress(Space),,,,,,,,-- --- ---- --- ------ ----- ------- ---- -- --- ------- --<br>------- ---------- ------ -- ----- -- ----- -- ---- ------<br>--- ----- --- --- ------ -------- ----- --- ------ ----- --<br>----- ----- ---------- --- --- ------ ------ ---- -- ------<br>------- --- ------ ----- --- ---- ------- an ---- --- --<br>------- ------,493485.8999999985,493483.299999997,493230.592,493246.5,493247.305,493498,,50,an
screen,html.Screen,2_1_1_1_51,2022-02-01T12:08:59.201Z,,,,,,,,,,,,,,,,,54,,,,,,,,,,,,,,305.1000000014901,,response,,,,100,,,,,,,Space,keypress(Space),,,,,,,,-- --- ---- --- ------ ----- ------- ---- -- --- ------- --<br>------- ---------- ------ -- ----- -- ----- -- ---- ------<br>--- ----- --- --- ------ -------- ----- --- ------ ----- --<br>----- ----- ---------- --- --- ------ ------ ---- -- ------<br>------- --- ------ ----- --- ---- ------- -- easy --- --<br>------- ------,493805.6000000015,493803.1000000015,493481.287,493486,493498,493815.547,,51,easy
screen,html.Screen,2_1_1_1_52,2022-02-01T12:08:59.801Z,,,,,,,,,,,,,,,,,54,,,,,,,,,,,,,,587.7529999969993,,response,,,,100,,,,,,,Space,keypress(Space),,,,,,,,-- --- ---- --- ------ ----- ------- ---- -- --- ------- --<br>------- ---------- ------ -- ----- -- ----- -- ---- ------<br>--- ----- --- --- ------ -------- ----- --- ------ ----- --<br>----- ----- ---------- --- --- ------ ------ ---- -- ------<br>------- --- ------ ----- --- ---- ------- -- ---- way --<br>------- ------,494405.8999999985,494403.299999997,493798.834,493805.69999999553,493815.547,494417.215,,52,way
screen,html.Screen,2_1_1_1_53,2022-02-01T12:09:00.194Z,,,,,,,,,,,,,,,,,54,,,,,,,,,,,,,,377.98499999550404,,response,,,,100,,,,,,,Space,keypress(Space),,,,,,,,-- --- ---- --- ------ ----- ------- ---- -- --- ------- --<br>------- ---------- ------ -- ----- -- ----- -- ---- ------<br>--- ----- --- --- ------ -------- ----- --- ------ ----- --<br>----- ----- ---------- --- --- ------ ------ ---- -- ------<br>------- --- ------ ----- --- ---- ------- -- ---- --- of<br>------- ------,494798.5,494795.19999999553,494400.502,494406,494417.215,494801.614,,53,of
screen,html.Screen,2_1_1_1_54,2022-02-01T12:09:00.641Z,,,,,,,,,,,,,,,,,54,,,,,,,,,,,,,,441.58599999552825,,response,,,,100,,,,,,,Space,keypress(Space),,,,,,,,-- --- ---- --- ------ ----- ------- ---- -- --- ------- --<br>------- ---------- ------ -- ----- -- ----- -- ---- ------<br>--- ----- --- --- ------ -------- ----- --- ------ ----- --<br>----- ----- ---------- --- --- ------ ------ ---- -- ------<br>------- --- ------ ----- --- ---- ------- -- ---- --- --<br>raising ------,495245.6000000015,495243.19999999553,494784.901,494798.6000000015,494801.614,495252.865,,54,raising
screen,html.Screen,2_1_1_1_55,2022-02-01T12:09:01.041Z,,,,,,,,,,,,,,,,,54,,,,,,,,,,,,,,390.5349999985192,,response,,,,100,,,,,,,Space,keypress(Space),,,,,,,,-- --- ---- --- ------ ----- ------- ---- -- --- ------- --<br>------- ---------- ------ -- ----- -- ----- -- ---- ------<br>--- ----- --- --- ------ -------- ----- --- ------ ----- --<br>----- ----- ---------- --- --- ------ ------ ---- -- ------<br>------- --- ------ ----- --- ---- ------- -- ---- --- --<br>------- money.,495645.799999997,495643.3999999985,495236.152,495245.69999999553,495252.865,495653.977,,55,money.
Item 100,flow.Loop,2_1_1_1,2022-02-01T12:09:01.042Z,,,,,,,,,,,,,,,,,,,,,,,,,,,,,,,23882.010999998485,,completion,,,,,A,,,,,,,,,,,silence,,,,,495646.1000000015,495643.3999999985,471744.676,471746.8999999985,471761.389,495653.977,,,
Question 1,html.Screen,2_1_1_2,2022-02-01T12:09:02.911Z,,,,,,,,,,,,,,,,,,,,,,,,,,,,true,TRUE,,1860.3229999970063,,response,,,,100,A,,,,,,TRUE,click #choice-1,,,,silence,,,,,497516,497514.299999997,495637.264,495646.1000000015,495653.977,497525.833,,,
Question 2,html.Screen,2_1_1_3,2022-02-01T12:09:04.535Z,,,,,,,,,,,,,,,,,,,,,,,,,,,,true,FALSE,,1612.3669999955455,,response,,,,100,A,,,,,,FALSE,click #choice-2,,,,silence,,,,,499139.69999999553,499138.19999999553,497509.12,497516.19999999553,497525.833,499146.994,,,
Item 100,flow.Sequence,2_1_1,2022-02-01T12:09:04.535Z,,,,,,,,,,,,,,,,,,,,,,,,,,,,,,,37378.5339999955,,completion,,,,,,,,,,,,,,,,,,,,,499140,499138.19999999553,461742.953,461732.6000000015,461759.666,499146.994,,,
End of Practice,html.Page,2_1_2,2022-02-01T12:09:07.092Z,,,,,,,,,,,,,,,,,,,,,,,,,,,,,,,2549.3059999970137,,form submission,,,,,,,,,,,,,,,,,,,,,501696.69999999553,501696.299999997,499130.281,499140,499146.994,501708.999,,,
Practice,flow.Sequence,2_1,2022-02-01T12:09:07.092Z,,,,,,,,,,,,,,,,,,,,,,,,,,,,,,,84186.00999999704,,completion,,,,,,,,,,,,,,,,,,,,,501696.8999999985,501696.299999997,417493.577,417505.19999999553,417510.29,501708.999,,,
Trap_instruction,html.Page,2_2_0,2022-02-01T12:09:11.207Z,,,,,,,,,,,,,,,,,,,,,,,,,,,,,,,4102.700999995519,,form submission,,,,,,,,,,,,,,,,,,,,,505812.19999999553,505811.69999999553,501692.286,501697.1000000015,501708.999,505837.11,,,
trap_trial,html.Screen,2_2_1,2022-02-01T12:09:14.624Z,,,,,,,,,,,,,,,,,,,,,,,,,,,,true,1,,3390.6899999970337,,response,,,,,,,,,,,1,click #choice-1,,,,,,,,,509229.3999999985,509227.799999997,505820.397,505812.299999997,505837.11,509246.562,,,
end of trap trial,html.Page,2_2_2,2022-02-01T12:09:16.266Z,,,,,,,,,,,,,,,,,,,,,,,,,,,,,,,1624.1379999955534,,form submission,,,,,,,,,,,,,,,,,,,,,510871.1000000015,510870.69999999553,509229.849,509229.5,509246.562,510884.436,,,
Trap 1,flow.Sequence,2_2,2022-02-01T12:09:16.266Z,,,,,,,,,,,,,,,,,,,,,,,,,,,,,,,9161.700999995519,,completion,,,,,,,,,,,,,,,,,,,,,510871.299999997,510870.69999999553,501692.286,501697,501708.999,510884.436,,,
Standby,html.Page,2_3_0,2022-02-01T12:09:24.269Z,,,,,,,,,,,,,,,,,,,,,,,,,,,,,,,8005.527000000002,,timeout,,,,,,,,,,,,,,,,,,,,,518874.19999999553,518873.25,510867.723,510871.3999999985,510884.436,518889.963,,,
Holding screen,html.Screen,2_3_1_0_0,2022-02-01T12:09:31.265Z,,,,,,,,,,,,,,,,,,,,,,,,,,,,,,,6995.795000000042,,timeout,,,,,,,,,,,,,,,,,,,,,525870.8999999985,525869.045,518873.25,518874.5,518889.963,525885.758,,,
screen,html.Screen,2_3_1_0_1_0,2022-02-01T12:09:32.704Z,,,,,,,,,,,,,,,,,11,,,,,,,,,,,,,,1421.3420000014594,,response,,,,4,A,,,,,,Space,keypress(Space),,,,silence,,,,Known -- ---- --- -- --- -------- ------------ ---------- --<br>- ------- ------ --------- -- ------------ -- --- ---- -----<br>------ ---- ---- ------ ------ ------- --- ----- ---------<br>---- --- -------- -------- --- --- -- ------- --- --- -----<br>-- --- ------ ------- --- --- -------- ---- --------- --<br>---------- -- -------- ----------------,527309.6999999955,527307.1000000015,525869.045,525871.3999999985,525885.758,527323.076,,0,Known
screen,html.Screen,2_3_1_0_1_1,2022-02-01T12:09:33.168Z,,,,,,,,,,,,,,,,,11,,,,,,,,,,,,,,448.1239999955287,,response,,,,4,A,,,,,,Space,keypress(Space),,,,silence,,,,----- as ---- --- -- --- -------- ------------ ---------- --<br>- ------- ------ --------- -- ------------ -- --- ---- -----<br>------ ---- ---- ------ ------ ------- --- ----- ---------<br>---- --- -------- -------- --- --- -- ------- --- --- -----<br>-- --- ------ ------- --- --- -------- ---- --------- --<br>---------- -- -------- ----------------,527773.799999997,527771.1999999955,527306.363,527309.799999997,527323.076,527791.04,,1,as
screen,html.Screen,2_3_1_0_1_2,2022-02-01T12:09:33.600Z,,,,,,,,,,,,,,,,,11,,,,,,,,,,,,,,412.2599999969825,,response,,,,4,A,,,,,,Space,keypress(Space),,,,silence,,,,----- -- Rapa --- -- --- -------- ------------ ---------- --<br>- ------- ------ --------- -- ------------ -- --- ---- -----<br>------ ---- ---- ------ ------ ------- --- ----- ---------<br>---- --- -------- -------- --- --- -- ------- --- --- -----<br>-- --- ------ ------- --- --- -------- ---- --------- --<br>---------- -- -------- ----------------,528205.8999999985,528203.299999997,527774.327,527774,527791.04,528208.865,,2,Rapa
screen,html.Screen,2_3_1_0_1_3,2022-02-01T12:09:34.008Z,,,,,,,,,,,,,,,,,11,,,,,,,,,,,,,,402.4349999970291,,response,,,,4,A,,,,,,Space,keypress(Space),,,,silence,,,,----- -- ---- Nui -- --- -------- ------------ ---------- --<br>- ------- ------ --------- -- ------------ -- --- ---- -----<br>------ ---- ---- ------ ------ ------- --- ----- ---------<br>---- --- -------- -------- --- --- -- ------- --- --- -----<br>-- --- ------ ------- --- --- -------- ---- --------- --<br>---------- -- -------- ----------------,528613.8999999985,528611.299999997,528192.152,528206.1000000015,528208.865,528626.69,,3,Nui
screen,html.Screen,2_3_1_0_1_4,2022-02-01T12:09:34.392Z,,,,,,,,,,,,,,,,,11,,,,,,,,,,,,,,368.60999999707565,,response,,,,4,A,,,,,,Space,keypress(Space),,,,silence,,,,----- -- ---- --- to --- -------- ------------ ---------- --<br>- ------- ------ --------- -- ------------ -- --- ---- -----<br>------ ---- ---- ------ ------ ------- --- ----- ---------<br>---- --- -------- -------- --- --- -- ------- --- --- -----<br>-- --- ------ ------- --- --- -------- ---- --------- --<br>---------- -- -------- ----------------,528997.799999997,528995.299999997,528609.977,528614.1000000015,528626.69,529011.089,,4,to
screen,html.Screen,2_3_1_0_1_5,2022-02-01T12:09:34.712Z,,,,,,,,,,,,,,,,,11,,,,,,,,,,,,,,304.21099999698345,,response,,,,4,A,,,,,,Space,keypress(Space),,,,silence,,,,----- -- ---- --- -- the -------- ------------ ---------- --<br>- ------- ------ --------- -- ------------ -- --- ---- -----<br>------ ---- ---- ------ ------ ------- --- ----- ---------<br>---- --- -------- -------- --- --- -- ------- --- --- -----<br>-- --- ------ ------- --- --- -------- ---- --------- --<br>---------- -- -------- ----------------,529317.8999999985,529315.299999997,528994.376,528998,529011.089,529328.636,,5,the
screen,html.Screen,2_3_1_0_1_6,2022-02-01T12:09:35.000Z,,,,,,,,,,,,,,,,,11,,,,,,,,,,,,,,274.66399999696296,,response,,,,4,A,,,,,,Space,keypress(Space),,,,silence,,,,----- -- ---- --- -- --- island's ------------ ---------- --<br>- ------- ------ --------- -- ------------ -- --- ---- -----<br>------ ---- ---- ------ ------ ------- --- ----- ---------<br>---- --- -------- -------- --- --- -- ------- --- --- -----<br>-- --- ------ ------- --- --- -------- ---- --------- --<br>---------- -- -------- ----------------,529606,529603.299999997,529311.923,529318,529328.636,529612.757,,6,island's
screen,html.Screen,2_3_1_0_1_7,2022-02-01T12:09:35.400Z,,,,,,,,,,,,,,,,,11,,,,,,,,,,,,,,390.4429999955464,,response,,,,4,A,,,,,,Space,keypress(Space),,,,silence,,,,"----- -- ---- --- -- --- -------- inhabitants, ---------- --<br>- ------- ------ --------- -- ------------ -- --- ---- -----<br>------ ---- ---- ------ ------ ------- --- ----- ---------<br>---- --- -------- -------- --- --- -- ------- --- --- -----<br>-- --- ------ ------- --- --- -------- ---- --------- --<br>---------- -- -------- ----------------",530006,530003.1999999955,529596.044,529606.1000000015,529612.757,530013.869,,7,"inhabitants,"
screen,html.Screen,2_3_1_0_1_8,2022-02-01T12:09:35.824Z,,,,,,,,,,,,,,,,,11,,,,,,,,,,,,,,413.3309999955818,,response,,,,4,A,,,,,,Space,keypress(Space),,,,silence,,,,----- -- ---- --- -- --- -------- ------------ Rongorongo --<br>- ------- ------ --------- -- ------------ -- --- ---- -----<br>------ ---- ---- ------ ------ ------- --- ----- ---------<br>---- --- -------- -------- --- --- -- ------- --- --- -----<br>-- --- ------ ------- --- --- -------- ---- --------- --<br>---------- -- -------- ----------------,530429.6000000015,530427.1999999955,529997.156,530006.1999999955,530013.869,530431.694,,8,Rongorongo
screen,html.Screen,2_3_1_0_1_9,2022-02-01T12:09:36.424Z,,,,,,,,,,,,,,,,,11,,,,,,,,,,,,,,595.6059999970021,,response,,,,4,A,,,,,,Space,keypress(Space),,,,silence,,,,----- -- ---- --- -- --- -------- ------------ ---------- is<br>- ------- ------ --------- -- ------------ -- --- ---- -----<br>------ ---- ---- ------ ------ ------- --- ----- ---------<br>---- --- -------- -------- --- --- -- ------- --- --- -----<br>-- --- ------ ------- --- --- -------- ---- --------- --<br>---------- -- -------- ----------------,531029.799999997,531027.299999997,530414.981,530429.6999999955,530431.694,531033.362,,9,is
screen,html.Screen,2_3_1_0_1_10,2022-02-01T12:09:36.880Z,,,,,,,,,,,,,,,,,11,,,,,,,,,,,,,,449.93799999705516,,response,,,,4,A,,,,,,Space,keypress(Space),,,,silence,,,,----- -- ---- --- -- --- -------- ------------ ---------- --<br>a ------- ------ --------- -- ------------ -- --- ---- -----<br>------ ---- ---- ------ ------ ------- --- ----- ---------<br>---- --- -------- -------- --- --- -- ------- --- --- -----<br>-- --- ------ ------- --- --- -------- ---- --------- --<br>---------- -- -------- ----------------,531485.8999999985,531483.299999997,531016.649,531029.8999999985,531033.362,531501.326,,10,a
screen,html.Screen,2_3_1_0_1_11,2022-02-01T12:09:37.248Z,,,,,,,,,,,,,,,,,11,,,,,,,,,,,,,,349.97399999701884,,response,,,,4,A,,,,,,Space,keypress(Space),,,,silence,,,,----- -- ---- --- -- --- -------- ------------ ---------- --<br>- writing ------ --------- -- ------------ -- --- ---- -----<br>------ ---- ---- ------ ------ ------- --- ----- ---------<br>---- --- -------- -------- --- --- -- ------- --- --- -----<br>-- --- ------ ------- --- --- -------- ---- --------- --<br>---------- -- -------- ----------------,531853.6999999955,531851.299999997,531484.613,531485.8999999985,531501.326,531869.012,,11,writing
screen,html.Screen,2_3_1_0_1_12,2022-02-01T12:09:37.648Z,,,,,,,,,,,,,,,,,11,,,,,,,,,,,,,,382.2879999970319,,response,,,,4,A,,,,,,Space,keypress(Space),,,,silence,,,,----- -- ---- --- -- --- -------- ------------ ---------- --<br>- ------- system --------- -- ------------ -- --- ---- -----<br>------ ---- ---- ------ ------ ------- --- ----- ---------<br>---- --- -------- -------- --- --- -- ------- --- --- -----<br>-- --- ------ ------- --- --- -------- ---- --------- --<br>---------- -- -------- ----------------,532253.8999999985,532251.299999997,531852.299,531853.8999999985,531869.012,532270.124,,12,system
screen,html.Screen,2_3_1_0_1_13,2022-02-01T12:09:38.056Z,,,,,,,,,,,,,,,,,11,,,,,,,,,,,,,,389.17599999706727,,response,,,,4,A,,,,,,Space,keypress(Space),,,,silence,,,,----- -- ---- --- -- --- -------- ------------ ---------- --<br>- ------- ------ comprised -- ------------ -- --- ---- -----<br>------ ---- ---- ------ ------ ------- --- ----- ---------<br>---- --- -------- -------- --- --- -- ------- --- --- -----<br>-- --- ------ ------- --- --- -------- ---- --------- --<br>---------- -- -------- ----------------,532661.6000000015,532659.299999997,532253.411,532254,532270.124,532671.236,,13,comprised
screen,html.Screen,2_3_1_0_1_14,2022-02-01T12:09:38.536Z,,,,,,,,,,,,,,,,,11,,,,,,,,,,,,,,468.06399999698624,,response,,,,4,A,,,,,,Space,keypress(Space),,,,silence,,,,----- -- ---- --- -- --- -------- ------------ ---------- --<br>- ------- ------ --------- of ------------ -- --- ---- -----<br>------ ---- ---- ------ ------ ------- --- ----- ---------<br>---- --- -------- -------- --- --- -- ------- --- --- -----<br>-- --- ------ ------- --- --- -------- ---- --------- --<br>---------- -- -------- ----------------,533141.6999999955,533139.299999997,532654.523,532661.6000000015,532671.236,533144.069,,14,of
screen,html.Screen,2_3_1_0_1_15,2022-02-01T12:09:38.968Z,,,,,,,,,,,,,,,,,11,,,,,,,,,,,,,,427.2309999970021,,response,,,,4,A,,,,,,Space,keypress(Space),,,,silence,,,,----- -- ---- --- -- --- -------- ------------ ---------- --<br>- ------- ------ --------- -- pictographs. -- --- ---- -----<br>------ ---- ---- ------ ------ ------- --- ----- ---------<br>---- --- -------- -------- --- --- -- ------- --- --- -----<br>-- --- ------ ------- --- --- -------- ---- --------- --<br>---------- -- -------- ----------------,533573.799999997,533571.299999997,533127.356,533141.8999999985,533144.069,533578.607,,15,pictographs.
screen,html.Screen,2_3_1_0_1_16,2022-02-01T12:09:39.408Z,,,,,,,,,,,,,,,,,11,,,,,,,,,,,,,,432.5929999955697,,response,,,,4,A,,,,,,Space,keypress(Space),,,,silence,,,,----- -- ---- --- -- --- -------- ------------ ---------- --<br>- ------- ------ --------- -- ------------ It --- ---- -----<br>------ ---- ---- ------ ------ ------- --- ----- ---------<br>---- --- -------- -------- --- --- -- ------- --- --- -----<br>-- --- ------ ------- --- --- -------- ---- --------- --<br>---------- -- -------- ----------------,534013.6999999955,534011.1999999955,533561.894,533573.8999999985,533578.607,534029.858,,16,It
screen,html.Screen,2_3_1_0_1_17,2022-02-01T12:09:39.768Z,,,,,,,,,,,,,,,,,11,,,,,,,,,,,,,,341.4419999970123,,response,,,,4,A,,,,,,Space,keypress(Space),,,,silence,,,,----- -- ---- --- -- --- -------- ------------ ---------- --<br>- ------- ------ --------- -- ------------ -- has ---- -----<br>------ ---- ---- ------ ------ ------- --- ----- ---------<br>---- --- -------- -------- --- --- -- ------- --- --- -----<br>-- --- ------ ------- --- --- -------- ---- --------- --<br>---------- -- -------- ----------------,534374.1000000015,534371.299999997,534013.145,534013.799999997,534029.858,534380.831,,17,has
screen,html.Screen,2_3_1_0_1_18,2022-02-01T12:09:40.144Z,,,,,,,,,,,,,,,,,11,,,,,,,,,,,,,,366.36899999552406,,response,,,,4,A,,,,,,Space,keypress(Space),,,,silence,,,,----- -- ---- --- -- --- -------- ------------ ---------- --<br>- ------- ------ --------- -- ------------ -- --- been -----<br>------ ---- ---- ------ ------ ------- --- ----- ---------<br>---- --- -------- -------- --- --- -- ------- --- --- -----<br>-- --- ------ ------- --- --- -------- ---- --------- --<br>---------- -- -------- ----------------,534749.5,534747.1999999955,534364.118,534374.1999999955,534380.831,534765.23,,18,been
screen,html.Screen,2_3_1_0_1_19,2022-02-01T12:09:40.632Z,,,,,,,,,,,,,,,,,11,,,,,,,,,,,,,,469.9699999955483,,response,,,,4,A,,,,,,Space,keypress(Space),,,,silence,,,,----- -- ---- --- -- --- -------- ------------ ---------- --<br>- ------- ------ --------- -- ------------ -- --- ---- found<br>------ ---- ---- ------ ------ ------- --- ----- ---------<br>---- --- -------- -------- --- --- -- ------- --- --- -----<br>-- --- ------ ------- --- --- -------- ---- --------- --<br>---------- -- -------- ----------------,535237.6999999955,535235.1999999955,534748.517,534749.6000000015,534765.23,535249.907,,19,found
screen,html.Screen,2_3_1_0_1_20,2022-02-01T12:09:41.040Z,,,,,,,,,,,,,,,,,11,,,,,,,,,,,,,,393.39299999701325,,response,,,,4,A,,,,,,Space,keypress(Space),,,,silence,,,,----- -- ---- --- -- --- -------- ------------ ---------- --<br>- ------- ------ --------- -- ------------ -- --- ---- -----<br>carved ---- ---- ------ ------ ------- --- ----- ---------<br>---- --- -------- -------- --- --- -- ------- --- --- -----<br>-- --- ------ ------- --- --- -------- ---- --------- --<br>---------- -- -------- ----------------,535646.1000000015,535643.299999997,535233.194,535237.6999999955,535249.907,535651.019,,20,carved
screen,html.Screen,2_3_1_0_1_21,2022-02-01T12:09:41.392Z,,,,,,,,,,,,,,,,,11,,,,,,,,,,,,,,344.28099999704864,,response,,,,4,A,,,,,,Space,keypress(Space),,,,silence,,,,----- -- ---- --- -- --- -------- ------------ ---------- --<br>- ------- ------ --------- -- ------------ -- --- ---- -----<br>------ into ---- ------ ------ ------- --- ----- ---------<br>---- --- -------- -------- --- --- -- ------- --- --- -----<br>-- --- ------ ------- --- --- -------- ---- --------- --<br>---------- -- -------- ----------------,535998,535995.299999997,535634.306,535646.5,535651.019,536001.992,,21,into
screen,html.Screen,2_3_1_0_1_22,2022-02-01T12:09:41.680Z,,,,,,,,,,,,,,,,,11,,,,,,,,,,,,,,281.2079999955604,,response,,,,4,A,,,,,,Space,keypress(Space),,,,silence,,,,----- -- ---- --- -- --- -------- ------------ ---------- --<br>- ------- ------ --------- -- ------------ -- --- ---- -----<br>------ ---- many ------ ------ ------- --- ----- ---------<br>---- --- -------- -------- --- --- -- ------- --- --- -----<br>-- --- ------ ------- --- --- -------- ---- --------- --<br>---------- -- -------- ----------------,536285.299999997,536283.1999999955,535985.279,535998.1999999955,536001.992,536286.113,,22,many
screen,html.Screen,2_3_1_0_1_23,2022-02-01T12:09:41.960Z,,,,,,,,,,,,,,,,,11,,,,,,,,,,,,,,277.18699999700766,,response,,,,4,A,,,,,,Space,keypress(Space),,,,silence,,,,----- -- ---- --- -- --- -------- ------------ ---------- --<br>- ------- ------ --------- -- ------------ -- --- ---- -----<br>------ ---- ---- oblong ------ ------- --- ----- ---------<br>---- --- -------- -------- --- --- -- ------- --- --- -----<br>-- --- ------ ------- --- --- -------- ---- --------- --<br>---------- -- -------- ----------------,536566.1000000015,536563.299999997,536269.4,536285.5,536286.113,536570.234,,23,oblong
screen,html.Screen,2_3_1_0_1_24,2022-02-01T12:09:42.280Z,,,,,,,,,,,,,,,,,11,,,,,,,,,,,,,,313.0659999969648,,response,,,,4,A,,,,,,Space,keypress(Space),,,,silence,,,,----- -- ---- --- -- --- -------- ------------ ---------- --<br>- ------- ------ --------- -- ------------ -- --- ---- -----<br>------ ---- ---- ------ wooden ------- --- ----- ---------<br>---- --- -------- -------- --- --- -- ------- --- --- -----<br>-- --- ------ ------- --- --- -------- ---- --------- --<br>---------- -- -------- ----------------,536886,536883.299999997,536553.521,536566.1999999955,536570.234,536887.781,,24,wooden
screen,html.Screen,2_3_1_0_1_25,2022-02-01T12:09:42.608Z,,,,,,,,,,,,,,,,,11,,,,,,,,,,,,,,323.41899999557063,,response,,,,4,A,,,,,,Space,keypress(Space),,,,silence,,,,----- -- ---- --- -- --- -------- ------------ ---------- --<br>- ------- ------ --------- -- ------------ -- --- ---- -----<br>------ ---- ---- ------ ------ tablets --- ----- ---------<br>---- --- -------- -------- --- --- -- ------- --- --- -----<br>-- --- ------ ------- --- --- -------- ---- --------- --<br>---------- -- -------- ----------------,537214.1999999955,537211.1999999955,536871.068,536886.1000000015,536887.781,537222.041,,25,tablets
screen,html.Screen,2_3_1_0_1_26,2022-02-01T12:09:42.913Z,,,,,,,,,,,,,,,,,11,,,,,,,,,,,,,,293.25899999705143,,response,,,,4,A,,,,,,Space,keypress(Space),,,,silence,,,,----- -- ---- --- -- --- -------- ------------ ---------- --<br>- ------- ------ --------- -- ------------ -- --- ---- -----<br>------ ---- ---- ------ ------ ------- and ----- ---------<br>---- --- -------- -------- --- --- -- ------- --- --- -----<br>-- --- ------ ------- --- --- -------- ---- --------- --<br>---------- -- -------- ----------------,537518.6000000015,537515.299999997,537205.328,537214.3999999985,537222.041,537522.875,,26,and
screen,html.Screen,2_3_1_0_1_27,2022-02-01T12:09:43.272Z,,,,,,,,,,,,,,,,,11,,,,,,,,,,,,,,352.42499999701977,,response,,,,4,A,,,,,,Space,keypress(Space),,,,silence,,,,----- -- ---- --- -- --- -------- ------------ ---------- --<br>- ------- ------ --------- -- ------------ -- --- ---- -----<br>------ ---- ---- ------ ------ ------- --- other ---------<br>---- --- -------- -------- --- --- -- ------- --- --- -----<br>-- --- ------ ------- --- --- -------- ---- --------- --<br>---------- -- -------- ----------------,537878,537875.299999997,537506.162,537518.6000000015,537522.875,537890.561,,27,other
screen,html.Screen,2_3_1_0_1_28,2022-02-01T12:09:43.640Z,,,,,,,,,,,,,,,,,11,,,,,,,,,,,,,,352.6389999955427,,response,,,,4,A,,,,,,Space,keypress(Space),,,,silence,,,,----- -- ---- --- -- --- -------- ------------ ---------- --<br>- ------- ------ --------- -- ------------ -- --- ---- -----<br>------ ---- ---- ------ ------ ------- --- ----- artifacts<br>---- --- -------- -------- --- --- -- ------- --- --- -----<br>-- --- ------ ------- --- --- -------- ---- --------- --<br>---------- -- -------- ----------------,538245.6999999955,538243.1999999955,537873.848,537878.1000000015,537890.561,538258.247,,28,artifacts
screen,html.Screen,2_3_1_0_1_29,2022-02-01T12:09:44.000Z,,,,,,,,,,,,,,,,,11,,,,,,,,,,,,,,345.05299999704584,,response,,,,4,A,,,,,,Space,keypress(Space),,,,silence,,,,----- -- ---- --- -- --- -------- ------------ ---------- --<br>- ------- ------ --------- -- ------------ -- --- ---- -----<br>------ ---- ---- ------ ------ ------- --- ----- ---------<br>from --- -------- -------- --- --- -- ------- --- --- -----<br>-- --- ------ ------- --- --- -------- ---- --------- --<br>---------- -- -------- ----------------,538606,538603.299999997,538241.534,538245.799999997,538258.247,538609.22,,29,from
screen,html.Screen,2_3_1_0_1_30,2022-02-01T12:09:44.304Z,,,,,,,,,,,,,,,,,11,,,,,,,,,,,,,,298.0799999970477,,response,,,,4,A,,,,,,Space,keypress(Space),,,,silence,,,,----- -- ---- --- -- --- -------- ------------ ---------- --<br>- ------- ------ --------- -- ------------ -- --- ---- -----<br>------ ---- ---- ------ ------ ------- --- ----- ---------<br>---- the -------- -------- --- --- -- ------- --- --- -----<br>-- --- ------ ------- --- --- -------- ---- --------- --<br>---------- -- -------- ----------------,538909.799999997,538907.299999997,538592.507,538606.1999999955,538609.22,538926.767,,30,the
screen,html.Screen,2_3_1_0_1_31,2022-02-01T12:09:44.640Z,,,,,,,,,,,,,,,,,11,,,,,,,,,,,,,,316.5329999970272,,response,,,,4,A,,,,,,Space,keypress(Space),,,,silence,,,,----- -- ---- --- -- --- -------- ------------ ---------- --<br>- ------- ------ --------- -- ------------ -- --- ---- -----<br>------ ---- ---- ------ ------ ------- --- ----- ---------<br>---- --- island's -------- --- --- -- ------- --- --- -----<br>-- --- ------ ------- --- --- -------- ---- --------- --<br>---------- -- -------- ----------------,539245.799999997,539243.299999997,538910.054,538910,538926.767,539261.027,,31,island's
screen,html.Screen,2_3_1_0_1_32,2022-02-01T12:09:44.992Z,,,,,,,,,,,,,,,,,11,,,,,,,,,,,,,,334.2729999970179,,response,,,,4,A,,,,,,Space,keypress(Space),,,,silence,,,,----- -- ---- --- -- --- -------- ------------ ---------- --<br>- ------- ------ --------- -- ------------ -- --- ---- -----<br>------ ---- ---- ------ ------ ------- --- ----- ---------<br>---- --- -------- history. --- --- -- ------- --- --- -----<br>-- --- ------ ------- --- --- -------- ---- --------- --<br>---------- -- -------- ----------------,539598.1000000015,539595.299999997,539244.314,539245.8999999985,539261.027,539612,,32,history.
screen,html.Screen,2_3_1_0_1_33,2022-02-01T12:09:45.568Z,,,,,,,,,,,,,,,,,11,,,,,,,,,,,,,,559.2999999970198,,response,,,,4,A,,,,,,Space,keypress(Space),,,,silence,,,,----- -- ---- --- -- --- -------- ------------ ---------- --<br>- ------- ------ --------- -- ------------ -- --- ---- -----<br>------ ---- ---- ------ ------ ------- --- ----- ---------<br>---- --- -------- -------- The --- -- ------- --- --- -----<br>-- --- ------ ------- --- --- -------- ---- --------- --<br>---------- -- -------- ----------------,540173.5,540171.299999997,539595.287,539598.1999999955,539612,540180.242,,33,The
screen,html.Screen,2_3_1_0_1_34,2022-02-01T12:09:45.912Z,,,,,,,,,,,,,,,,,11,,,,,,,,,,,,,,334.9579999955604,,response,,,,4,A,,,,,,Space,keypress(Space),,,,silence,,,,----- -- ---- --- -- --- -------- ------------ ---------- --<br>- ------- ------ --------- -- ------------ -- --- ---- -----<br>------ ---- ---- ------ ------ ------- --- ----- ---------<br>---- --- -------- -------- --- art -- ------- --- --- -----<br>-- --- ------ ------- --- --- -------- ---- --------- --<br>---------- -- -------- ----------------,540517.8999999985,540515.1999999955,540163.529,540173.6999999955,540180.242,540531.215,,34,art
screen,html.Screen,2_3_1_0_1_35,2022-02-01T12:09:46.232Z,,,,,,,,,,,,,,,,,11,,,,,,,,,,,,,,304.08499999705236,,response,,,,4,A,,,,,,Space,keypress(Space),,,,silence,,,,----- -- ---- --- -- --- -------- ------------ ---------- --<br>- ------- ------ --------- -- ------------ -- --- ---- -----<br>------ ---- ---- ------ ------ ------- --- ----- ---------<br>---- --- -------- -------- --- --- of ------- --- --- -----<br>-- --- ------ ------- --- --- -------- ---- --------- --<br>---------- -- -------- ----------------,540837.8999999985,540835.299999997,540514.502,540518,540531.215,540848.762,,35,of
screen,html.Screen,2_3_1_0_1_36,2022-02-01T12:09:46.584Z,,,,,,,,,,,,,,,,,11,,,,,,,,,,,,,,338.5379999970319,,response,,,,4,A,,,,,,Space,keypress(Space),,,,silence,,,,----- -- ---- --- -- --- -------- ------------ ---------- --<br>- ------- ------ --------- -- ------------ -- --- ---- -----<br>------ ---- ---- ------ ------ ------- --- ----- ---------<br>---- --- -------- -------- --- --- -- writing --- --- -----<br>-- --- ------ ------- --- --- -------- ---- --------- --<br>---------- -- -------- ----------------,541190,541187.299999997,540832.049,540838.1000000015,540848.762,541199.735,,36,writing
screen,html.Screen,2_3_1_0_1_37,2022-02-01T12:09:47.352Z,,,,,,,,,,,,,,,,,11,,,,,,,,,,,,,,755.5649999970337,,response,,,,4,A,,,,,,Space,keypress(Space),,,,silence,,,,----- -- ---- --- -- --- -------- ------------ ---------- --<br>- ------- ------ --------- -- ------------ -- --- ---- -----<br>------ ---- ---- ------ ------ ------- --- ----- ---------<br>---- --- -------- -------- --- --- -- ------- was --- -----<br>-- --- ------ ------- --- --- -------- ---- --------- --<br>---------- -- -------- ----------------,541957.8999999985,541955.299999997,541183.022,541190.1000000015,541199.735,541968.533,,37,was
screen,html.Screen,2_3_1_0_1_38,2022-02-01T12:09:47.648Z,,,,,,,,,,,,,,,,,11,,,,,,,,,,,,,,282.66699999547563,,response,,,,4,A,,,,,,Space,keypress(Space),,,,silence,,,,----- -- ---- --- -- --- -------- ------------ ---------- --<br>- ------- ------ --------- -- ------------ -- --- ---- -----<br>------ ---- ---- ------ ------ ------- --- ----- ---------<br>---- --- -------- -------- --- --- -- ------- --- not -----<br>-- --- ------ ------- --- --- -------- ---- --------- --<br>---------- -- -------- ----------------,542253.5,542251.1999999955,541951.82,541958,541968.533,542269.367,,38,not
screen,html.Screen,2_3_1_0_1_39,2022-02-01T12:09:47.872Z,,,,,,,,,,,,,,,,,11,,,,,,,,,,,,,,205.9329999970505,,response,,,,4,A,,,,,,Space,keypress(Space),,,,silence,,,,----- -- ---- --- -- --- -------- ------------ ---------- --<br>- ------- ------ --------- -- ------------ -- --- ---- -----<br>------ ---- ---- ------ ------ ------- --- ----- ---------<br>---- --- -------- -------- --- --- -- ------- --- --- known<br>-- --- ------ ------- --- --- -------- ---- --------- --<br>---------- -- -------- ----------------,542477.799999997,542475.299999997,542252.654,542253.6000000015,542269.367,542486.636,,39,known
