sender,sender_type,sender_id,timestamp,meta,,Blues,Classical,Country,Dance,Electronic,Folk,Gospel,Hip-Hop,Jazz,Latin,Musical/Film,New-age,Pop,Prolific_id,Provo_ID,R&B,Rap,Reggae,Religious,Rock,Soul,Swing,Traditional,age,artist_name,correct,correctResponse,distraction,duration,education,ended_on,familiarity,gender,headphone_check_performance,item,list,music_frequency,offensiveness,pleasantness,position_correct,preference,response,response_action,snippet_file,song_name,song_rating,sound,stimulus_1,stimulus_2,stimulus_3,text,time_commit,time_end,time_render,time_run,time_show,time_switch,url,word,word_ID
Prolific ID,html.Form,0,2022-02-01T15:06:14.020Z,"{""labjs_version"":""20.2.2"",""labjs_build"":{""flavor"":""production"",""commit"":""a25486e0c714a0ae2ce03ff94b7bb6896854dcfa""},""location"":""https://run.pavlovia.org/mvasilev/prolific2_music_a/"",""userAgent"":""Mozilla/5.0 (Windows NT 10.0; Win64; x64) AppleWebKit/537.36 (KHTML, like Gecko) Chrome/97.0.4692.99 Safari/537.36"",""platform"":""Win32"",""language"":""en-US"",""locale"":""en-US"",""timeZone"":""Europe/London"",""timezoneOffset"":0,""screen_width"":1536,""screen_height"":864,""scroll_width"":1536,""scroll_height"":706,""window_innerWidth"":1536,""window_innerHeight"":754,""devicePixelRatio"":1.25}",,,,,,,,,,,,,,,5c4266e71fad93000122d5cf,,,,,,,,,,,,,,,4316.616,,form submission,,,,,,,,,,,,,,,,,,,,,13428.899999976158,13428.5,9078.12,9082.5,9111.884,13428.739,{},,
Introduction,html.Screen,1_0,2022-02-01T15:06:20.785Z,,,,,,,,,,,,,,,,,,,,,,,,,,,,,,,6761.361000023842,,response,,,,,,,,,,,continue,click button,,,,,,,,,20193.700000047684,20190.100000023842,13412.047,13429.300000071526,13428.739,20212.397,,,
Volume calibration,html.Screen,1_1,2022-02-01T15:07:00.795Z,,,,,,,,,,,,,,,,,,,,,,,,,,,,,,,39988.00299997616,,response,,,,,,,,,,,continue,click button,,,,,,,,,60204.700000047684,60200.39999997616,20179.049,20194,20212.397,60214.085,,,
Task instructions,html.Screen,1_2,2022-02-01T15:07:15.129Z,,,,,,,,,,,,,,,,,,,,,,,,,,,,,,,14323.814999976159,,response,,,,,,,,,,,continue,click button,,,,,,,,,74539,74537.89999997616,60197.487,60204.89999997616,60214.085,74548.144,,,
Sounds,html.Screen,1_3_0_0,2022-02-01T15:07:19.384Z,,,,,,,,,,,,,,,,,,,,,,,,,,,,,,,4250.150999999998,,timeout,,,,,,,,,1,,,,,,,,S,I,O,,78793.70000004768,78782.313,74531.608,74539.30000007153,74548.144,78798.295,,,
Judgement,html.Screen,1_3_0_1,2022-02-01T15:07:20.862Z,,,,,,,,,,,,,,,,,,,,,,,,,,,,true,1,,1472.4050000476855,,response,,,,,,,,,1,,1,click #choice-1,,,,,S,I,O,,80272,80270.70000004768,78782.313,78794,78798.295,80281.645,,,
Trial,flow.Sequence,1_3_0,2022-02-01T15:07:20.862Z,,,,,,,,,,,,,,,,,,,,,,,,,,,,,,,5722.5560000476835,,completion,,,,,,,,,1,,,,,,,,S,I,O,,80272.30000007153,80270.70000004768,74531.608,74539.30000007153,74548.144,80281.645,,,
Sounds,html.Screen,1_3_1_0,2022-02-01T15:07:25.106Z,,,,,,,,,,,,,,,,,,,,,,,,,,,,,,,4250.171999999991,,timeout,,,,,,,,,1,,,,,,,,S,O,I,,84515.89999997616,84515.193,80265.022,80272.39999997616,80281.645,84531.817,,,
Judgement,html.Screen,1_3_1_1,2022-02-01T15:07:26.132Z,,,,,,,,,,,,,,,,,,,,,,,,,,,,true,1,,1008.4830000715301,,response,,,,,,,,,1,,1,click #choice-1,,,,,S,O,I,,85542,85540.30000007153,84515.193,84516,84531.817,85548.612,,,
Trial,flow.Sequence,1_3_1,2022-02-01T15:07:26.132Z,,,,,,,,,,,,,,,,,,,,,,,,,,,,,,,5258.6550000715215,,completion,,,,,,,,,1,,,,,,,,S,O,I,,85542.20000004768,85540.30000007153,80265.022,80272.30000007153,80281.645,85548.612,,,
Sounds,html.Screen,1_3_2_0,2022-02-01T15:07:30.373Z,,,,,,,,,,,,,,,,,,,,,,,,,,,,,,,4250.126000000004,,timeout,,,,,,,,,3,,,,,,,,I,O,S,,89783,89782.095,85531.921,85542.5,85548.612,89798.738,,,
Judgement,html.Screen,1_3_2_1,2022-02-01T15:07:31.198Z,,,,,,,,,,,,,,,,,,,,,,,,,,,,true,3,,807.9620000476862,,response,,,,,,,,,3,,3,click #choice-3,,,,,I,O,S,,90608.30000007153,90606.70000004768,89782.095,89783.20000004768,89798.738,90615.449,,,
Trial,flow.Sequence,1_3_2,2022-02-01T15:07:31.199Z,,,,,,,,,,,,,,,,,,,,,,,,,,,,,,,5058.08800004769,,completion,,,,,,,,,3,,,,,,,,I,O,S,,90608.60000002384,90606.70000004768,85531.921,85542.39999997616,85548.612,90615.449,,,
Sounds,html.Screen,1_3_3_0,2022-02-01T15:07:35.439Z,,,,,,,,,,,,,,,,,,,,,,,,,,,,,,,4250.162000000011,,timeout,,,,,,,,,3,,,,,,,,O,I,S,,94849.5,94848.956,90598.795,90608.80000007153,90615.449,94865.611,,,
Judgement,html.Screen,1_3_3_1,2022-02-01T15:07:36.084Z,,,,,,,,,,,,,,,,,,,,,,,,,,,,true,3,,626.5890000476793,,response,,,,,,,,,3,,3,click #choice-3,,,,,O,I,S,,95494.10000002384,95492.20000004768,94848.956,94849.5,94865.611,95499.081,,,
Trial,flow.Sequence,1_3_3,2022-02-01T15:07:36.084Z,,,,,,,,,,,,,,,,,,,,,,,,,,,,,,,4876.7510000476905,,completion,,,,,,,,,3,,,,,,,,O,I,S,,95494.5,95492.20000004768,90598.795,90608.70000004768,90615.449,95499.081,,,
Sounds,html.Screen,1_3_4_0,2022-02-01T15:07:40.323Z,,,,,,,,,,,,,,,,,,,,,,,,,,,,,,,4250.07699999999,,timeout,,,,,,,,,2,,,,,,,,I,S,O,,99733.39999997616,99732.633,95482.301,95494.70000004768,95499.081,99749.158,,,
Judgement,html.Screen,1_3_4_1,2022-02-01T15:07:41.034Z,,,,,,,,,,,,,,,,,,,,,,,,,,,,true,2,,692.942000023846,,response,,,,,,,,,2,,2,click #choice-2,,,,,I,S,O,,100443.60000002384,100442.10000002384,99732.633,99733.60000002384,99749.158,100449.248,,,
Trial,flow.Sequence,1_3_4,2022-02-01T15:07:41.034Z,,,,,,,,,,,,,,,,,,,,,,,,,,,,,,,4943.019000023836,,completion,,,,,,,,,2,,,,,,,,I,S,O,,100443.89999997616,100442.10000002384,95482.301,95494.70000004768,95499.081,100449.248,,,
Sounds,html.Screen,1_3_5_0,2022-02-01T15:07:45.274Z,,,,,,,,,,,,,,,,,,,,,,,,,,,,,,,4250.155999999988,,timeout,,,,,,,,,2,,,,,,,,O,S,I,,104683.70000004768,104682.754,100432.568,100444,100449.248,104699.404,,,
Judgement,html.Screen,1_3_5_1,2022-02-01T15:07:45.929Z,,,,,,,,,,,,,,,,,,,,,,,,,,,,true,2,,638.7960000476887,,response,,,,,,,,,2,,2,click #choice-2,,,,,O,S,I,,105339.39999997616,105338.20000004768,104682.754,104683.89999997616,104699.404,105349.521,,,
Trial,flow.Sequence,1_3_5,2022-02-01T15:07:45.930Z,,,,,,,,,,,,,,,,,,,,,,,,,,,,,,,4888.952000047677,,completion,,,,,,,,,2,,,,,,,,O,S,I,,105339.70000004768,105338.20000004768,100432.568,100444,100449.248,105349.521,,,
Task,flow.Loop,1_3,2022-02-01T15:07:45.936Z,,,,,,,,,,,,,,,,,,,,,,,,,,,,,,,30790.056000047683,,completion,,,1,,,,,,,,,,,,,,,,,,105346.20000004768,105338.20000004768,74531.608,74539.20000004768,74548.144,105349.521,,,
Trap,html.Screen,1_4,2022-02-01T15:07:45.938Z,,,,,,,,,,,,,,,,,,,,,,,,,,,,,,,NaN,,skipped,,,,,,,,,,,,,,,,,,,,,105347.89999997616,105338.20000004768,,105347.80000007153,,105349.521,,,
Thanks,html.Screen,1_5,2022-02-01T15:11:39.262Z,,,,,,,,,,,,,,,,,,,,,,,,,,,,,,,233320.57900002383,,response,,,,,,,,,,,continue,click button,,,,,,,,,338671.3000000715,338670.10000002384,105332.757,105348.10000002384,105349.521,370661.226,,,
Headphone screening,flow.Sequence,1,2022-02-01T15:11:39.262Z,,,,,,,,,,,,,,,,,,,,,,,,,,,,,,,325241.36100002384,,completion,,,,,,,,,,,,,,,,,,,,,338671.60000002384,338670.10000002384,13412.047,13429.200000047684,13428.739,370661.226,,,
Instructions,html.Page,2_0,2022-02-01T15:12:53.114Z,,,,,,,,,,,,,,,,,,,,,,,,,,,,,,,41862.173999976134,,form submission,,,,,,,,,,,,,,,,,,,,,412523.60000002384,412523.39999997616,370644.504,370656.89999997616,370661.226,412529.736,,,
Holding screen,html.Screen,2_1_0_0,2022-02-01T15:13:03.105Z,,,,,,,,,,,,,,,,,,,,,,,,,,,,,,,10000.439000000013,,timeout,,,,,,,,,,,,,,,,,,,,,422514.2000000477,422513.507,412463.385,412523.89999997616,412529.736,422530.175,,,
screen,html.Screen,2_1_0_1_0,2022-02-01T15:13:04.062Z,,,,,,,,,,,,,,,,,53,,,,,,,,,,,,,,937.9250000238535,,response,,,,99,,,,,,,Space,keypress(Space),,,,,,,,When -- ----- -- ------ - ------- --- ----------<br>------------- ------ ------ ---- ---- ------- ----- -- ----<br>-------- ------- -- ---------- --- - --- ----- ----- ----<br>---- --- --- ----- --- ---- ---- ------- ----- ---- -------<br>--- --- -- ----- -- --- ---- -- --- ---- -- ------ ------<br>--- ----- -- ----,423471.39999997616,423468.10000002384,422513.507,422514.5,422530.175,423480.193,,0,When
screen,html.Screen,2_1_0_1_1,2022-02-01T15:13:04.598Z,,,,,,,,,,,,,,,,,53,,,,,,,,,,,,,,527.0070000476553,,response,,,,99,,,,,,,Space,keypress(Space),,,,,,,,---- it ----- -- ------ - ------- --- ----------<br>------------- ------ ------ ---- ---- ------- ----- -- ----<br>-------- ------- -- ---------- --- - --- ----- ----- ----<br>---- --- --- ----- --- ---- ---- ------- ----- ---- -------<br>--- --- -- ----- -- --- ---- -- --- ---- -- ------ ------<br>--- ----- -- ----,424008,424007.2000000477,423463.444,423471.60000002384,423480.193,424013.594,,1,it
screen,html.Screen,2_1_0_1_2,2022-02-01T15:13:05.039Z,,,,,,,,,,,,,,,,,53,,,,,,,,,,,,,,433.90600000001723,,response,,,,99,,,,,,,Space,keypress(Space),,,,,,,,---- -- comes -- ------ - ------- --- ----------<br>------------- ------ ------ ---- ---- ------- ----- -- ----<br>-------- ------- -- ---------- --- - --- ----- ----- ----<br>---- --- --- ----- --- ---- ---- ------- ----- ---- -------<br>--- --- -- ----- -- --- ---- -- --- ---- -- ------ ------<br>--- ----- -- ----,424448.2000000477,424447.5,423997.375,424008.2000000477,424013.594,424464.008,,2,comes
screen,html.Screen,2_1_0_1_3,2022-02-01T15:13:05.501Z,,,,,,,,,,,,,,,,,53,,,,,,,,,,,,,,445.8919999761856,,response,,,,99,,,,,,,Space,keypress(Space),,,,,,,,---- -- ----- to ------ - ------- --- ----------<br>------------- ------ ------ ---- ---- ------- ----- -- ----<br>-------- ------- -- ---------- --- - --- ----- ----- ----<br>---- --- --- ----- --- ---- ---- ------- ----- ---- -------<br>--- --- -- ----- -- --- ---- -- --- ---- -- ------ ------<br>--- ----- -- ----,424910.7000000477,424909.89999997616,424447.296,424448.39999997616,424464.008,424913.612,,3,to
screen,html.Screen,2_1_0_1_4,2022-02-01T15:13:05.949Z,,,,,,,,,,,,,,,,,53,,,,,,,,,,,,,,444.3879999999772,,response,,,,99,,,,,,,Space,keypress(Space),,,,,,,,---- -- ----- -- having - ------- --- ----------<br>------------- ------ ------ ---- ---- ------- ----- -- ----<br>-------- ------- -- ---------- --- - --- ----- ----- ----<br>---- --- --- ----- --- ---- ---- ------- ----- ---- -------<br>--- --- -- ----- -- --- ---- -- --- ---- -- ------ ------<br>--- ----- -- ----,425358.7000000477,425358,424896.905,424910.89999997616,424913.612,425363.629,,4,having
screen,html.Screen,2_1_0_1_5,2022-02-01T15:13:06.356Z,,,,,,,,,,,,,,,,,53,,,,,,,,,,,,,,401.37099999998463,,response,,,,99,,,,,,,Space,keypress(Space),,,,,,,,---- -- ----- -- ------ a ------- --- ----------<br>------------- ------ ------ ---- ---- ------- ----- -- ----<br>-------- ------- -- ---------- --- - --- ----- ----- ----<br>---- --- --- ----- --- ---- ---- ------- ----- ---- -------<br>--- --- -- ----- -- --- ---- -- --- ---- -- ------ ------<br>--- ----- -- ----,425765.89999997616,425765,425346.988,425361.89999997616,425363.629,425780.666,,5,a
screen,html.Screen,2_1_0_1_6,2022-02-01T15:13:06.796Z,,,,,,,,,,,,,,,,,53,,,,,,,,,,,,,,424.7339999761316,,response,,,,99,,,,,,,Space,keypress(Space),,,,,,,,---- -- ----- -- ------ - lasting --- ----------<br>------------- ------ ------ ---- ---- ------- ----- -- ----<br>-------- ------- -- ---------- --- - --- ----- ----- ----<br>---- --- --- ----- --- ---- ---- ------- ----- ---- -------<br>--- --- -- ----- -- --- ---- -- --- ---- -- ------ ------<br>--- ----- -- ----,426206,426205.39999997616,425763.549,425766,425780.666,426213.627,,6,lasting
screen,html.Screen,2_1_0_1_7,2022-02-01T15:13:07.697Z,,,,,,,,,,,,,,,,,53,,,,,,,,,,,,,,891.9730000238633,,response,,,,99,,,,,,,Space,keypress(Space),,,,,,,,---- -- ----- -- ------ - ------- and ----------<br>------------- ------ ------ ---- ---- ------- ----- -- ----<br>-------- ------- -- ---------- --- - --- ----- ----- ----<br>---- --- --- ----- --- ---- ---- ------- ----- ---- -------<br>--- --- -- ----- -- --- ---- -- --- ---- -- ------ ------<br>--- ----- -- ----,427106.3000000715,427105.60000002384,426197.445,426206.2000000477,426213.627,427113.731,,7,and
screen,html.Screen,2_1_0_1_8,2022-02-01T15:13:08.780Z,,,,,,,,,,,,,,,,,53,,,,,,,,,,,,,,1075.369000023813,,response,,,,99,,,,,,,Space,keypress(Space),,,,,,,,---- -- ----- -- ------ - ------- --- fulfilling<br>------------- ------ ------ ---- ---- ------- ----- -- ----<br>-------- ------- -- ---------- --- - --- ----- ----- ----<br>---- --- --- ----- --- ---- ---- ------- ----- ---- -------<br>--- --- -- ----- -- --- ---- -- --- ---- -- ------ ------<br>--- ----- -- ----,428189.8000000715,428189.10000002384,427097.053,427106.39999997616,427113.731,428197.075,,8,fulfilling
screen,html.Screen,2_1_0_1_9,2022-02-01T15:13:09.377Z,,,,,,,,,,,,,,,,,53,,,,,,,,,,,,,,589.0250000238302,,response,,,,99,,,,,,,Space,keypress(Space),,,,,,,,"---- -- ----- -- ------ - ------- --- ----------<br>relationship, ------ ------ ---- ---- ------- ----- -- ----<br>-------- ------- -- ---------- --- - --- ----- ----- ----<br>---- --- --- ----- --- ---- ---- ------- ----- ---- -------<br>--- --- -- ----- -- --- ---- -- --- ---- -- ------ ------<br>--- ----- -- ----",428786.8000000715,428786.10000002384,428180.346,428190,428197.075,428797.06,,9,"relationship,"
screen,html.Screen,2_1_0_1_10,2022-02-01T15:13:10.268Z,,,,,,,,,,,,,,,,,53,,,,,,,,,,,,,,879.9400000000023,,response,,,,99,,,,,,,Space,keypress(Space),,,,,,,,---- -- ----- -- ------ - ------- --- ----------<br>------------- common ------ ---- ---- ------- ----- -- ----<br>-------- ------- -- ---------- --- - --- ----- ----- ----<br>---- --- --- ----- --- ---- ---- ------- ----- ---- -------<br>--- --- -- ----- -- --- ---- -- --- ---- -- ------ ------<br>--- ----- -- ----,429677.89999997616,429677,428780.46,428786.89999997616,428797.06,429680.511,,10,common
screen,html.Screen,2_1_0_1_11,2022-02-01T15:13:11.229Z,,,,,,,,,,,,,,,,,53,,,,,,,,,,,,,,957.1890000476851,,response,,,,99,,,,,,,Space,keypress(Space),,,,,,,,---- -- ----- -- ------ - ------- --- ----------<br>------------- ------ wisdom ---- ---- ------- ----- -- ----<br>-------- ------- -- ---------- --- - --- ----- ----- ----<br>---- --- --- ----- --- ---- ---- ------- ----- ---- -------<br>--- --- -- ----- -- --- ---- -- --- ---- -- ------ ------<br>--- ----- -- ----,430638.5,430637.7000000477,429664.278,429678,429680.511,430647.122,,11,wisdom
screen,html.Screen,2_1_0_1_12,2022-02-01T15:13:11.744Z,,,,,,,,,,,,,,,,,53,,,,,,,,,,,,,,506.2779999761842,,response,,,,99,,,,,,,Space,keypress(Space),,,,,,,,---- -- ----- -- ------ - ------- --- ----------<br>------------- ------ ------ says ---- ------- ----- -- ----<br>-------- ------- -- ---------- --- - --- ----- ----- ----<br>---- --- --- ----- --- ---- ---- ------- ----- ---- -------<br>--- --- -- ----- -- --- ---- -- --- ---- -- ------ ------<br>--- ----- -- ----,431154,431153.39999997616,430630.443,430638.7000000477,430647.122,431163.893,,12,says
screen,html.Screen,2_1_0_1_13,2022-02-01T15:13:12.239Z,,,,,,,,,,,,,,,,,53,,,,,,,,,,,,,,483.90700007154373,,response,,,,99,,,,,,,Space,keypress(Space),,,,,,,,---- -- ----- -- ------ - ------- --- ----------<br>------------- ------ ------ ---- that ------- ----- -- ----<br>-------- ------- -- ---------- --- - --- ----- ----- ----<br>---- --- --- ----- --- ---- ---- ------- ----- ---- -------<br>--- --- -- ----- -- --- ---- -- --- ---- -- ------ ------<br>--- ----- -- ----,431648.39999997616,431647.8000000715,431147.118,431154.2000000477,431163.893,431664.321,,13,that
screen,html.Screen,2_1_0_1_14,2022-02-01T15:13:12.656Z,,,,,,,,,,,,,,,,,53,,,,,,,,,,,,,,400.6790000000037,,response,,,,99,,,,,,,Space,keypress(Space),,,,,,,,---- -- ----- -- ------ - ------- --- ----------<br>------------- ------ ------ ---- ---- feeling ----- -- ----<br>-------- ------- -- ---------- --- - --- ----- ----- ----<br>---- --- --- ----- --- ---- ---- ------- ----- ---- -------<br>--- --- -- ----- -- --- ---- -- --- ---- -- ------ ------<br>--- ----- -- ----,432065.7000000477,432065,431647.182,431648.60000002384,431664.321,432080.573,,14,feeling
screen,html.Screen,2_1_0_1_15,2022-02-01T15:13:13.130Z,,,,,,,,,,,,,,,,,53,,,,,,,,,,,,,,458.7270000715507,,response,,,,99,,,,,,,Space,keypress(Space),,,,,,,,---- -- ----- -- ------ - ------- --- ----------<br>------------- ------ ------ ---- ---- ------- close -- ----<br>-------- ------- -- ---------- --- - --- ----- ----- ----<br>---- --- --- ----- --- ---- ---- ------- ----- ---- -------<br>--- --- -- ----- -- --- ---- -- --- ---- -- ------ ------<br>--- ----- -- ----,432540,432539.3000000715,432063.96,432065.89999997616,432080.573,432547.217,,15,close
screen,html.Screen,2_1_0_1_16,2022-02-01T15:13:13.567Z,,,,,,,,,,,,,,,,,53,,,,,,,,,,,,,,429.18299997615395,,response,,,,99,,,,,,,Space,keypress(Space),,,,,,,,---- -- ----- -- ------ - ------- --- ----------<br>------------- ------ ------ ---- ---- ------- ----- to ----<br>-------- ------- -- ---------- --- - --- ----- ----- ----<br>---- --- --- ----- --- ---- ---- ------- ----- ---- -------<br>--- --- -- ----- -- --- ---- -- --- ---- -- ------ ------<br>--- ----- -- ----,432977,432976.39999997616,432531.079,432540.10000002384,432547.217,432980.607,,16,to
screen,html.Screen,2_1_0_1_17,2022-02-01T15:13:14.074Z,,,,,,,,,,,,,,,,,53,,,,,,,,,,,,,,502.6930000715074,,response,,,,99,,,,,,,Space,keypress(Space),,,,,,,,---- -- ----- -- ------ - ------- --- ----------<br>------------- ------ ------ ---- ---- ------- ----- -- your<br>-------- ------- -- ---------- --- - --- ----- ----- ----<br>---- --- --- ----- --- ---- ---- ------- ----- ---- -------<br>--- --- -- ----- -- --- ---- -- --- ---- -- ------ ------<br>--- ----- -- ----,433484.10000002384,433483.3000000715,432964.434,432977.2000000477,432980.607,433497.314,,17,your
screen,html.Screen,2_1_0_1_18,2022-02-01T15:13:14.454Z,,,,,,,,,,,,,,,,,53,,,,,,,,,,,,,,365.18599999998696,,response,,,,99,,,,,,,Space,keypress(Space),,,,,,,,---- -- ----- -- ------ - ------- --- ----------<br>------------- ------ ------ ---- ---- ------- ----- -- ----<br>romantic ------- -- ---------- --- - --- ----- ----- ----<br>---- --- --- ----- --- ---- ---- ------- ----- ---- -------<br>--- --- -- ----- -- --- ---- -- --- ---- -- ------ ------<br>--- ----- -- ----,433863.3000000715,433862.5,433481.011,433484.2000000477,433497.314,433881.244,,18,romantic
screen,html.Screen,2_1_0_1_19,2022-02-01T15:13:14.838Z,,,,,,,,,,,,,,,,,53,,,,,,,,,,,,,,365.25599999999395,,response,,,,99,,,,,,,Space,keypress(Space),,,,,,,,---- -- ----- -- ------ - ------- --- ----------<br>------------- ------ ------ ---- ---- ------- ----- -- ----<br>-------- partner -- ---------- --- - --- ----- ----- ----<br>---- --- --- ----- --- ---- ---- ------- ----- ---- -------<br>--- --- -- ----- -- --- ---- -- --- ---- -- ------ ------<br>--- ----- -- ----,434247.2000000477,434246.5,433847.838,433863.5,433881.244,434264.423,,19,partner
screen,html.Screen,2_1_0_1_20,2022-02-01T15:13:15.235Z,,,,,,,,,,,,,,,,,53,,,,,,,,,,,,,,378.97699997614836,,response,,,,99,,,,,,,Space,keypress(Space),,,,,,,,---- -- ----- -- ------ - ------- --- ----------<br>------------- ------ ------ ---- ---- ------- ----- -- ----<br>-------- ------- is ---------- --- - --- ----- ----- ----<br>---- --- --- ----- --- ---- ---- ------- ----- ---- -------<br>--- --- -- ----- -- --- ---- -- --- ---- -- ------ ------<br>--- ----- -- ----,434644.10000002384,434643.39999997616,434247.733,434247.39999997616,434264.423,434647.38,,20,is
screen,html.Screen,2_1_0_1_21,2022-02-01T15:13:15.920Z,,,,,,,,,,,,,,,,,53,,,,,,,,,,,,,,681.3200000476791,,response,,,,99,,,,,,,Space,keypress(Space),,,,,,,,---- -- ----- -- ------ - ------- --- ----------<br>------------- ------ ------ ---- ---- ------- ----- -- ----<br>-------- ------- -- paramount. --- - --- ----- ----- ----<br>---- --- --- ----- --- ---- ---- ------- ----- ---- -------<br>--- --- -- ----- -- --- ---- -- --- ---- -- ------ ------<br>--- ----- -- ----,435329.5,435328.7000000477,434630.656,434644.39999997616,434647.38,435350.538,,21,paramount.
screen,html.Screen,2_1_0_1_22,2022-02-01T15:13:16.641Z,,,,,,,,,,,,,,,,,53,,,,,,,,,,,,,,699.5620000238414,,response,,,,99,,,,,,,Space,keypress(Space),,,,,,,,---- -- ----- -- ------ - ------- --- ----------<br>------------- ------ ------ ---- ---- ------- ----- -- ----<br>-------- ------- -- ---------- But - --- ----- ----- ----<br>---- --- --- ----- --- ---- ---- ------- ----- ---- -------<br>--- --- -- ----- -- --- ---- -- --- ---- -- ------ ------<br>--- ----- -- ----,436050.8000000715,436050.10000002384,435314.401,435329.7000000477,435350.538,436064.47,,22,But
screen,html.Screen,2_1_0_1_23,2022-02-01T15:13:17.175Z,,,,,,,,,,,,,,,,,53,,,,,,,,,,,,,,519.7300000477117,,response,,,,99,,,,,,,Space,keypress(Space),,,,,,,,---- -- ----- -- ------ - ------- --- ----------<br>------------- ------ ------ ---- ---- ------- ----- -- ----<br>-------- ------- -- ---------- --- a --- ----- ----- ----<br>---- --- --- ----- --- ---- ---- ------- ----- ---- -------<br>--- --- -- ----- -- --- ---- -- --- ---- -- ------ ------<br>--- ----- -- ----,436585,436584.2000000477,436047.352,436050.89999997616,436064.47,436598.018,,23,a
screen,html.Screen,2_1_0_1_24,2022-02-01T15:13:17.629Z,,,,,,,,,,,,,,,,,53,,,,,,,,,,,,,,440.1820000477019,,response,,,,99,,,,,,,Space,keypress(Space),,,,,,,,---- -- ----- -- ------ - ------- --- ----------<br>------------- ------ ------ ---- ---- ------- ----- -- ----<br>-------- ------- -- ---------- --- - new ----- ----- ----<br>---- --- --- ----- --- ---- ---- ------- ----- ---- -------<br>--- --- -- ----- -- --- ---- -- --- ---- -- ------ ------<br>--- ----- -- ----,437038.89999997616,437038.2000000477,436581.288,436585.2000000477,436598.018,437047.475,,24,new
screen,html.Screen,2_1_0_1_25,2022-02-01T15:13:18.072Z,,,,,,,,,,,,,,,,,53,,,,,,,,,,,,,,432.9249999761814,,response,,,,99,,,,,,,Space,keypress(Space),,,,,,,,---- -- ----- -- ------ - ------- --- ----------<br>------------- ------ ------ ---- ---- ------- ----- -- ----<br>-------- ------- -- ---------- --- - --- study ----- ----<br>---- --- --- ----- --- ---- ---- ------- ----- ---- -------<br>--- --- -- ----- -- --- ---- -- --- ---- -- ------ ------<br>--- ----- -- ----,437481.10000002384,437480.39999997616,437031.344,437039,437047.475,437497.902,,25,study
screen,html.Screen,2_1_0_1_26,2022-02-01T15:13:18.526Z,,,,,,,,,,,,,,,,,53,,,,,,,,,,,,,,436.9979999761563,,response,,,,99,,,,,,,Space,keypress(Space),,,,,,,,---- -- ----- -- ------ - ------- --- ----------<br>------------- ------ ------ ---- ---- ------- ----- -- ----<br>-------- ------- -- ---------- --- - --- ----- finds ----<br>---- --- --- ----- --- ---- ---- ------- ----- ---- -------<br>--- --- -- ----- -- --- ---- -- --- ---- -- ------ ------<br>--- ----- -- ----,437935.8000000715,437934.89999997616,437481.303,437481.39999997616,437497.902,437947.52,,26,finds
screen,html.Screen,2_1_0_1_27,2022-02-01T15:13:18.976Z,,,,,,,,,,,,,,,,,53,,,,,,,,,,,,,,437.6800000476651,,response,,,,99,,,,,,,Space,keypress(Space),,,,,,,,---- -- ----- -- ------ - ------- --- ----------<br>------------- ------ ------ ---- ---- ------- ----- -- ----<br>-------- ------- -- ---------- --- - --- ----- ----- that<br>---- --- --- ----- --- ---- ---- ------- ----- ---- -------<br>--- --- -- ----- -- --- ---- -- --- ---- -- ------ ------<br>--- ----- -- ----,438386,438385.2000000477,437931.336,437936.10000002384,437947.52,438397.525,,27,that
screen,html.Screen,2_1_0_1_28,2022-02-01T15:13:19.502Z,,,,,,,,,,,,,,,,,53,,,,,,,,,,,,,,513.4749999999767,,response,,,,99,,,,,,,Space,keypress(Space),,,,,,,,---- -- ----- -- ------ - ------- --- ----------<br>------------- ------ ------ ---- ---- ------- ----- -- ----<br>-------- ------- -- ---------- --- - --- ----- ----- ----<br>it's --- --- ----- --- ---- ---- ------- ----- ---- -------<br>--- --- -- ----- -- --- ---- -- --- ---- -- ------ ------<br>--- ----- -- ----,438911.60000002384,438911,438380.809,438386.10000002384,438397.525,438914.253,,28,it's
screen,html.Screen,2_1_0_1_29,2022-02-01T15:13:19.937Z,,,,,,,,,,,,,,,,,53,,,,,,,,,,,,,,431.2469999999739,,response,,,,99,,,,,,,Space,keypress(Space),,,,,,,,---- -- ----- -- ------ - ------- --- ----------<br>------------- ------ ------ ---- ---- ------- ----- -- ----<br>-------- ------- -- ---------- --- - --- ----- ----- ----<br>---- not --- ----- --- ---- ---- ------- ----- ---- -------<br>--- --- -- ----- -- --- ---- -- --- ---- -- ------ ------<br>--- ----- -- ----,439346.3000000715,439345.5,438898.188,438911.8000000715,438914.253,439377.024,,29,not
screen,html.Screen,2_1_0_1_30,2022-02-01T15:13:20.412Z,,,,,,,,,,,,,,,,,53,,,,,,,,,,,,,,443.5760000238661,,response,,,,99,,,,,,,Space,keypress(Space),,,,,,,,---- -- ----- -- ------ - ------- --- ----------<br>------------- ------ ------ ---- ---- ------- ----- -- ----<br>-------- ------- -- ---------- --- - --- ----- ----- ----<br>---- --- how ----- --- ---- ---- ------- ----- ---- -------<br>--- --- -- ----- -- --- ---- -- --- ---- -- ------ ------<br>--- ----- -- ----,439821.5,439820.60000002384,439331.344,439346.39999997616,439377.024,439830.898,,30,how
screen,html.Screen,2_1_0_1_31,2022-02-01T15:13:20.799Z,,,,,,,,,,,,,,,,,53,,,,,,,,,,,,,,376.50199997617165,,response,,,,99,,,,,,,Space,keypress(Space),,,,,,,,---- -- ----- -- ------ - ------- --- ----------<br>------------- ------ ------ ---- ---- ------- ----- -- ----<br>-------- ------- -- ---------- --- - --- ----- ----- ----<br>---- --- --- close --- ---- ---- ------- ----- ---- -------<br>--- --- -- ----- -- --- ---- -- --- ---- -- ------ ------<br>--- ----- -- ----,440208.2000000477,440207.39999997616,439814.542,439821.60000002384,439830.898,440214.282,,31,close
screen,html.Screen,2_1_0_1_32,2022-02-01T15:13:21.165Z,,,,,,,,,,,,,,,,,53,,,,,,,,,,,,,,359.2179999999935,,response,,,,99,,,,,,,Space,keypress(Space),,,,,,,,---- -- ----- -- ------ - ------- --- ----------<br>------------- ------ ------ ---- ---- ------- ----- -- ----<br>-------- ------- -- ---------- --- - --- ----- ----- ----<br>---- --- --- ----- you ---- ---- ------- ----- ---- -------<br>--- --- -- ----- -- --- ---- -- --- ---- -- ------ ------<br>--- ----- -- ----,440574.2000000477,440573.5,440197.545,440208.5,440214.282,440581.389,,32,you
screen,html.Screen,2_1_0_1_33,2022-02-01T15:13:21.514Z,,,,,,,,,,,,,,,,,53,,,,,,,,,,,,,,341.51099997613346,,response,,,,99,,,,,,,Space,keypress(Space),,,,,,,,---- -- ----- -- ------ - ------- --- ----------<br>------------- ------ ------ ---- ---- ------- ----- -- ----<br>-------- ------- -- ---------- --- - --- ----- ----- ----<br>---- --- --- ----- --- feel ---- ------- ----- ---- -------<br>--- --- -- ----- -- --- ---- -- --- ---- -- ------ ------<br>--- ----- -- ----,440923.7000000477,440922.89999997616,440564.811,440574.39999997616,440581.389,440930.963,,33,feel
screen,html.Screen,2_1_0_1_34,2022-02-01T15:13:21.866Z,,,,,,,,,,,,,,,,,53,,,,,,,,,,,,,,343.83700007153675,,response,,,,99,,,,,,,Space,keypress(Space),,,,,,,,---- -- ----- -- ------ - ------- --- ----------<br>------------- ------ ------ ---- ---- ------- ----- -- ----<br>-------- ------- -- ---------- --- - --- ----- ----- ----<br>---- --- --- ----- --- ---- that ------- ----- ---- -------<br>--- --- -- ----- -- --- ---- -- --- ---- -- ------ ------<br>--- ----- -- ----,441275.60000002384,441274.8000000715,440914.363,440923.89999997616,440930.963,441280.942,,34,that
screen,html.Screen,2_1_0_1_35,2022-02-01T15:13:22.293Z,,,,,,,,,,,,,,,,,53,,,,,,,,,,,,,,420.7580000477028,,response,,,,99,,,,,,,Space,keypress(Space),,,,,,,,---- -- ----- -- ------ - ------- --- ----------<br>------------- ------ ------ ---- ---- ------- ----- -- ----<br>-------- ------- -- ---------- --- - --- ----- ----- ----<br>---- --- --- ----- --- ---- ---- matters ----- ---- -------<br>--- --- -- ----- -- --- ---- -- --- ---- -- ------ ------<br>--- ----- -- ----,441702.39999997616,441701.7000000477,441264.848,441275.8000000715,441280.942,441714.52,,35,matters
screen,html.Screen,2_1_0_1_36,2022-02-01T15:13:22.616Z,,,,,,,,,,,,,,,,,53,,,,,,,,,,,,,,310.3799999761395,,response,,,,99,,,,,,,Space,keypress(Space),,,,,,,,"---- -- ----- -- ------ - ------- --- ----------<br>------------- ------ ------ ---- ---- ------- ----- -- ----<br>-------- ------- -- ---------- --- - --- ----- ----- ----<br>---- --- --- ----- --- ---- ---- ------- most, ---- -------<br>--- --- -- ----- -- --- ---- -- --- ---- -- ------ ------<br>--- ----- -- ----",442025.60000002384,442024.89999997616,441697.682,441702.7000000477,441714.52,442031.001,,36,"most,"
screen,html.Screen,2_1_0_1_37,2022-02-01T15:13:23.142Z,,,,,,,,,,,,,,,,,53,,,,,,,,,,,,,,519.6990000476944,,response,,,,99,,,,,,,Space,keypress(Space),,,,,,,,---- -- ----- -- ------ - ------- --- ----------<br>------------- ------ ------ ---- ---- ------- ----- -- ----<br>-------- ------- -- ---------- --- - --- ----- ----- ----<br>---- --- --- ----- --- ---- ---- ------- ----- it's -------<br>--- --- -- ----- -- --- ---- -- --- ---- -- ------ ------<br>--- ----- -- ----,442551.5,442550.7000000477,442014.294,442026.60000002384,442031.001,442564.558,,37,it's
screen,html.Screen,2_1_0_1_38,2022-02-01T15:13:23.776Z,,,,,,,,,,,,,,,,,53,,,,,,,,,,,,,,620.0420000238228,,response,,,,99,,,,,,,Space,keypress(Space),,,,,,,,---- -- ----- -- ------ - ------- --- ----------<br>------------- ------ ------ ---- ---- ------- ----- -- ----<br>-------- ------- -- ---------- --- - --- ----- ----- ----<br>---- --- --- ----- --- ---- ---- ------- ----- ---- whether<br>--- --- -- ----- -- --- ---- -- --- ---- -- ------ ------<br>--- ----- -- ----,443185.2000000477,443184.60000002384,442547.716,442551.60000002384,442564.558,443197.654,,38,whether
screen,html.Screen,2_1_0_1_39,2022-02-01T15:13:24.123Z,,,,,,,,,,,,,,,,,53,,,,,,,,,,,,,,334.4460000238614,,response,,,,99,,,,,,,Space,keypress(Space),,,,,,,,---- -- ----- -- ------ - ------- --- ----------<br>------------- ------ ------ ---- ---- ------- ----- -- ----<br>-------- ------- -- ---------- --- - --- ----- ----- ----<br>---- --- --- ----- --- ---- ---- ------- ----- ---- -------<br>you --- -- ----- -- --- ---- -- --- ---- -- ------ ------<br>--- ----- -- ----,443532.89999997616,443532.10000002384,443181.249,443185.39999997616,443197.654,443547.749,,39,you
screen,html.Screen,2_1_0_1_40,2022-02-01T15:13:24.525Z,,,,,,,,,,,,,,,,,53,,,,,,,,,,,,,,386.15099997614743,,response,,,,99,,,,,,,Space,keypress(Space),,,,,,,,---- -- ----- -- ------ - ------- --- ----------<br>------------- ------ ------ ---- ---- ------- ----- -- ----<br>-------- ------- -- ---------- --- - --- ----- ----- ----<br>---- --- --- ----- --- ---- ---- ------- ----- ---- -------<br>--- are -- ----- -- --- ---- -- --- ---- -- ------ ------<br>--- ----- -- ----,443934.60000002384,443933.89999997616,443531.072,443533.10000002384,443547.749,443948.181,,40,are
screen,html.Screen,2_1_0_1_41,2022-02-01T15:13:24.896Z,,,,,,,,,,,,,,,,,53,,,,,,,,,,,,,,356.21899997617584,,response,,,,99,,,,,,,Space,keypress(Space),,,,,,,,---- -- ----- -- ------ - ------- --- ----------<br>------------- ------ ------ ---- ---- ------- ----- -- ----<br>-------- ------- -- ---------- --- - --- ----- ----- ----<br>---- --- --- ----- --- ---- ---- ------- ----- ---- -------<br>--- --- as ----- -- --- ---- -- --- ---- -- ------ ------<br>--- ----- -- ----,444305.10000002384,444304.39999997616,443931.024,443934.89999997616,443948.181,444314.41,,41,as
screen,html.Screen,2_1_0_1_42,2022-02-01T15:13:25.260Z,,,,,,,,,,,,,,,,,53,,,,,,,,,,,,,,354.5900000000256,,response,,,,99,,,,,,,Space,keypress(Space),,,,,,,,---- -- ----- -- ------ - ------- --- ----------<br>------------- ------ ------ ---- ---- ------- ----- -- ----<br>-------- ------- -- ---------- --- - --- ----- ----- ----<br>---- --- --- ----- --- ---- ---- ------- ----- ---- -------<br>--- --- -- close -- --- ---- -- --- ---- -- ------ ------<br>--- ----- -- ----,444669.8000000715,444669,444297.938,444305.3000000715,444314.41,444681.518,,42,close
screen,html.Screen,2_1_0_1_43,2022-02-01T15:13:25.609Z,,,,,,,,,,,,,,,,,53,,,,,,,,,,,,,,336.78200007154373,,response,,,,99,,,,,,,Space,keypress(Space),,,,,,,,---- -- ----- -- ------ - ------- --- ----------<br>------------- ------ ------ ---- ---- ------- ----- -- ----<br>-------- ------- -- ---------- --- - --- ----- ----- ----<br>---- --- --- ----- --- ---- ---- ------- ----- ---- -------<br>--- --- -- ----- as --- ---- -- --- ---- -- ------ ------<br>--- ----- -- ----,445018.89999997616,445018.3000000715,444665.396,444670,444681.518,445031.167,,43,as
screen,html.Screen,2_1_0_1_44,2022-02-01T15:13:26.009Z,,,,,,,,,,,,,,,,,53,,,,,,,,,,,,,,386.83299999998417,,response,,,,99,,,,,,,Space,keypress(Space),,,,,,,,---- -- ----- -- ------ - ------- --- ----------<br>------------- ------ ------ ---- ---- ------- ----- -- ----<br>-------- ------- -- ---------- --- - --- ----- ----- ----<br>---- --- --- ----- --- ---- ---- ------- ----- ---- -------<br>--- --- -- ----- -- you ---- -- --- ---- -- ------ ------<br>--- ----- -- ----,445418.7000000477,445418,445014.462,445019.10000002384,445031.167,445431.197,,44,you
screen,html.Screen,2_1_0_1_45,2022-02-01T15:13:26.412Z,,,,,,,,,,,,,,,,,53,,,,,,,,,,,,,,389.4030000238563,,response,,,,99,,,,,,,Space,keypress(Space),,,,,,,,---- -- ----- -- ------ - ------- --- ----------<br>------------- ------ ------ ---- ---- ------- ----- -- ----<br>-------- ------- -- ---------- --- - --- ----- ----- ----<br>---- --- --- ----- --- ---- ---- ------- ----- ---- -------<br>--- --- -- ----- -- --- want -- --- ---- -- ------ ------<br>--- ----- -- ----,445821.3000000715,445820.60000002384,445414.792,445418.89999997616,445431.197,445831.143,,45,want
screen,html.Screen,2_1_0_1_46,2022-02-01T15:13:26.892Z,,,,,,,,,,,,,,,,,53,,,,,,,,,,,,,,469.65700007154373,,response,,,,99,,,,,,,Space,keypress(Space),,,,,,,,---- -- ----- -- ------ - ------- --- ----------<br>------------- ------ ------ ---- ---- ------- ----- -- ----<br>-------- ------- -- ---------- --- - --- ----- ----- ----<br>---- --- --- ----- --- ---- ---- ------- ----- ---- -------<br>--- --- -- ----- -- --- ---- to --- ---- -- ------ ------<br>--- ----- -- ----,446301.60000002384,446300.8000000715,445814.989,445821.39999997616,445831.143,446314.971,,46,to
screen,html.Screen,2_1_0_1_47,2022-02-01T15:13:27.400Z,,,,,,,,,,,,,,,,,53,,,,,,,,,,,,,,493.72900004766416,,response,,,,99,,,,,,,Space,keypress(Space),,,,,,,,"---- -- ----- -- ------ - ------- --- ----------<br>------------- ------ ------ ---- ---- ------- ----- -- ----<br>-------- ------- -- ---------- --- - --- ----- ----- ----<br>---- --- --- ----- --- ---- ---- ------- ----- ---- -------<br>--- --- -- ----- -- --- ---- -- be, ---- -- ------ ------<br>--- ----- -- ----",446809.5,446808.7000000477,446298.36,446301.8000000715,446314.971,446814.538,,47,"be,"
screen,html.Screen,2_1_0_1_48,2022-02-01T15:13:27.990Z,,,,,,,,,,,,,,,,,53,,,,,,,,,,,,,,584.1620000476833,,response,,,,99,,,,,,,Space,keypress(Space),,,,,,,,---- -- ----- -- ------ - ------- --- ----------<br>------------- ------ ------ ---- ---- ------- ----- -- ----<br>-------- ------- -- ---------- --- - --- ----- ----- ----<br>---- --- --- ----- --- ---- ---- ------- ----- ---- -------<br>--- --- -- ----- -- --- ---- -- --- even -- ------ ------<br>--- ----- -- ----,447399.5,447398.7000000477,446797.92,446809.7000000477,446814.538,447414.984,,48,even
screen,html.Screen,2_1_0_1_49,2022-02-01T15:13:28.427Z,,,,,,,,,,,,,,,,,53,,,,,,,,,,,,,,420.9159999761614,,response,,,,99,,,,,,,Space,keypress(Space),,,,,,,,---- -- ----- -- ------ - ------- --- ----------<br>------------- ------ ------ ---- ---- ------- ----- -- ----<br>-------- ------- -- ---------- --- - --- ----- ----- ----<br>---- --- --- ----- --- ---- ---- ------- ----- ---- -------<br>--- --- -- ----- -- --- ---- -- --- ---- if ------ ------<br>--- ----- -- ----,447836.39999997616,447835.89999997616,447398.257,447399.7000000477,447414.984,447848.178,,49,if
screen,html.Screen,2_1_0_1_50,2022-02-01T15:13:29.131Z,,,,,,,,,,,,,,,,,53,,,,,,,,,,,,,,691.3219999999856,,response,,,,99,,,,,,,Space,keypress(Space),,,,,,,,---- -- ----- -- ------ - ------- --- ----------<br>------------- ------ ------ ---- ---- ------- ----- -- ----<br>-------- ------- -- ---------- --- - --- ----- ----- ----<br>---- --- --- ----- --- ---- ---- ------- ----- ---- -------<br>--- --- -- ----- -- --- ---- -- --- ---- -- that's ------<br>--- ----- -- ----,448540.39999997616,448539.5,447831.726,447836.5,447848.178,448547.909,,50,that's
screen,html.Screen,2_1_0_1_51,2022-02-01T15:13:29.743Z,,,,,,,,,,,,,,,,,53,,,,,,,,,,,,,,603.990999976173,,response,,,,99,,,,,,,Space,keypress(Space),,,,,,,,---- -- ----- -- ------ - ------- --- ----------<br>------------- ------ ------ ---- ---- ------- ----- -- ----<br>-------- ------- -- ---------- --- - --- ----- ----- ----<br>---- --- --- ----- --- ---- ---- ------- ----- ---- -------<br>--- --- -- ----- -- --- ---- -- --- ---- -- ------ really<br>--- ----- -- ----,449152.60000002384,449151.89999997616,448531.552,448540.60000002384,448547.909,449165.045,,51,really
screen,html.Screen,2_1_0_1_52,2022-02-01T15:13:30.208Z,,,,,,,,,,,,,,,,,53,,,,,,,,,,,,,,452.1550000477,,response,,,,99,,,,,,,Space,keypress(Space),,,,,,,,---- -- ----- -- ------ - ------- --- ----------<br>------------- ------ ------ ---- ---- ------- ----- -- ----<br>-------- ------- -- ---------- --- - --- ----- ----- ----<br>---- --- --- ----- --- ---- ---- ------- ----- ---- -------<br>--- --- -- ----- -- --- ---- -- --- ---- -- ------ ------<br>not ----- -- ----,449617.89999997616,449617.2000000477,449148.276,449152.89999997616,449165.045,449631.392,,52,not
screen,html.Screen,2_1_0_1_53,2022-02-01T15:13:30.652Z,,,,,,,,,,,,,,,,,53,,,,,,,,,,,,,,429.2080000238493,,response,,,,99,,,,,,,Space,keypress(Space),,,,,,,,---- -- ----- -- ------ - ------- --- ----------<br>------------- ------ ------ ---- ---- ------- ----- -- ----<br>-------- ------- -- ---------- --- - --- ----- ----- ----<br>---- --- --- ----- --- ---- ---- ------- ----- ---- -------<br>--- --- -- ----- -- --- ---- -- --- ---- -- ------ ------<br>--- close -- ----,450061.3000000715,450060.60000002384,449615.176,449618,449631.392,450064.692,,53,close
screen,html.Screen,2_1_0_1_54,2022-02-01T15:13:31.062Z,,,,,,,,,,,,,,,,,53,,,,,,,,,,,,,,406.40800002386095,,response,,,,99,,,,,,,Space,keypress(Space),,,,,,,,---- -- ----- -- ------ - ------- --- ----------<br>------------- ------ ------ ---- ---- ------- ----- -- ----<br>-------- ------- -- ---------- --- - --- ----- ----- ----<br>---- --- --- ----- --- ---- ---- ------- ----- ---- -------<br>--- --- -- ----- -- --- ---- -- --- ---- -- ------ ------<br>--- ----- at ----,450471.8000000715,450471.10000002384,450048.647,450061.60000002384,450064.692,450481.386,,54,at
screen,html.Screen,2_1_0_1_55,2022-02-01T15:13:31.472Z,,,,,,,,,,,,,,,,,53,,,,,,,,,,,,,,399.01399997615954,,response,,,,99,,,,,,,Space,keypress(Space),,,,,,,,---- -- ----- -- ------ - ------- --- ----------<br>------------- ------ ------ ---- ---- ------- ----- -- ----<br>-------- ------- -- ---------- --- - --- ----- ----- ----<br>---- --- --- ----- --- ---- ---- ------- ----- ---- -------<br>--- --- -- ----- -- --- ---- -- --- ---- -- ------ ------<br>--- ----- -- all.,450881.2000000477,450880.39999997616,450464.682,450472,450481.386,450898.053,,55,all.
Item 99,flow.Loop,2_1_0_1,2022-02-01T15:13:31.472Z,,,,,,,,,,,,,,,,,,,,,,,,,,,,,,,28350.22499997617,,completion,,,,,A,,,,,,,,,,,silence,,,,,450881.60000002384,450880.39999997616,422513.507,422514.39999997616,422530.175,450898.053,,,
Question 1,html.Screen,2_1_0_2,2022-02-01T15:13:36.687Z,,,,,,,,,,,,,,,,,,,,,,,,,,,,true,FALSE,,5197.346999976144,,response,,,,99,A,,,,,,FALSE,click #choice-2,,,,silence,,,,,456096.7000000477,456095.39999997616,450881.891,450881.8000000715,450898.053,456098.345,,,
Question 2,html.Screen,2_1_0_3,2022-02-01T15:13:52.183Z,,,,,,,,,,,,,,,,,,,,,,,,,,,,false,TRUE,,15493.054999976186,,response,,,,99,A,,,,,,FALSE,click #choice-2,,,,silence,,,,,471592.3000000715,471591.39999997616,456081.621,456096.89999997616,456098.345,471598.973,,,
Item 99,flow.Sequence,2_1_0,2022-02-01T15:13:52.183Z,,,,,,,,,,,,,,,,,,,,,,,,,,,,,,,59061.66399997618,,completion,,,,,,,,,,,,,,,,,,,,,471592.7000000477,471591.39999997616,412463.385,412523.89999997616,412529.736,471598.973,,,
Holding screen,html.Screen,2_1_1_0,2022-02-01T15:14:02.174Z,,,,,,,,,,,,,,,,,,,,,,,,,,,,,,,10000.45299999998,,timeout,,,,,,,,,,,,,,,,,,,,,481583.5,481582.826,471582.252,471592.8000000715,471598.973,481599.426,,,
screen,html.Screen,2_1_1_1_0,2022-02-01T15:14:03.277Z,,,,,,,,,,,,,,,,,54,,,,,,,,,,,,,,1085.874000071548,,response,,,,100,,,,,,,Space,keypress(Space),,,,,,,,At --- ---- --- ------ ----- ------- ---- -- --- ------- --<br>------- ---------- ------ -- ----- -- ----- -- ---- ------<br>--- ----- --- --- ------ -------- ----- --- ------ ----- --<br>----- ----- ---------- --- --- ------ ------ ---- -- ------<br>------- --- ------ ----- --- ---- ------- -- ---- --- --<br>------- ------,482686,482685.3000000715,481582.826,481583.7000000477,481599.426,482699.67,,0,At
screen,html.Screen,2_1_1_1_1,2022-02-01T15:14:03.658Z,,,,,,,,,,,,,,,,,54,,,,,,,,,,,,,,367.1300000715419,,response,,,,100,,,,,,,Space,keypress(Space),,,,,,,,-- the ---- --- ------ ----- ------- ---- -- --- ------- --<br>------- ---------- ------ -- ----- -- ----- -- ---- ------<br>--- ----- --- --- ------ -------- ----- --- ------ ----- --<br>----- ----- ---------- --- --- ------ ------ ---- -- ------<br>------- --- ------ ----- --- ---- ------- -- ---- --- --<br>------- ------,483067.5,483066.8000000715,482682.711,482686.2000000477,482699.67,483082.882,,1,the
screen,html.Screen,2_1_1_1_2,2022-02-01T15:14:04.076Z,,,,,,,,,,,,,,,,,54,,,,,,,,,,,,,,401.3180000477005,,response,,,,100,,,,,,,Space,keypress(Space),,,,,,,,-- --- time --- ------ ----- ------- ---- -- --- ------- --<br>------- ---------- ------ -- ----- -- ----- -- ---- ------<br>--- ----- --- --- ------ -------- ----- --- ------ ----- --<br>----- ----- ---------- --- --- ------ ------ ---- -- ------<br>------- --- ------ ----- --- ---- ------- -- ---- --- --<br>------- ------,483484.89999997616,483484.2000000477,483066.624,483067.7000000477,483082.882,483499.712,,2,time
screen,html.Screen,2_1_1_1_3,2022-02-01T15:14:04.615Z,,,,,,,,,,,,,,,,,54,,,,,,,,,,,,,,523.7880000000005,,response,,,,100,,,,,,,Space,keypress(Space),,,,,,,,-- --- ---- the ------ ----- ------- ---- -- --- ------- --<br>------- ---------- ------ -- ----- -- ----- -- ---- ------<br>--- ----- --- --- ------ -------- ----- --- ------ ----- --<br>----- ----- ---------- --- --- ------ ------ ---- -- ------<br>------- --- ------ ----- --- ---- ------- -- ---- --- --<br>------- ------,484024.2000000477,484023.5,483482.852,483485.10000002384,483499.712,484032.799,,3,the
screen,html.Screen,2_1_1_1_4,2022-02-01T15:14:05.223Z,,,,,,,,,,,,,,,,,54,,,,,,,,,,,,,,598.4010000476846,,response,,,,100,,,,,,,Space,keypress(Space),,,,,,,,-- --- ---- --- French ----- ------- ---- -- --- ------- --<br>------- ---------- ------ -- ----- -- ----- -- ---- ------<br>--- ----- --- --- ------ -------- ----- --- ------ ----- --<br>----- ----- ---------- --- --- ------ ------ ---- -- ------<br>------- --- ------ ----- --- ---- ------- -- ---- --- --<br>------- ------,484631.89999997616,484631.2000000477,484016.272,484024.39999997616,484032.799,484665.325,,4,French
screen,html.Screen,2_1_1_1_5,2022-02-01T15:14:05.583Z,,,,,,,,,,,,,,,,,54,,,,,,,,,,,,,,326.47500007151393,,response,,,,100,,,,,,,Space,keypress(Space),,,,,,,,-- --- ---- --- ------ crown ------- ---- -- --- ------- --<br>------- ---------- ------ -- ----- -- ----- -- ---- ------<br>--- ----- --- --- ------ -------- ----- --- ------ ----- --<br>----- ----- ---------- --- --- ------ ------ ---- -- ------<br>------- --- ------ ----- --- ---- ------- -- ---- --- --<br>------- ------,484992.60000002384,484991.8000000715,484616.203,484632.10000002384,484665.325,484999.509,,5,crown
screen,html.Screen,2_1_1_1_6,2022-02-01T15:14:06.024Z,,,,,,,,,,,,,,,,,54,,,,,,,,,,,,,,432.99099999998,,response,,,,100,,,,,,,Space,keypress(Space),,,,,,,,-- --- ---- --- ------ ----- secured ---- -- --- ------- --<br>------- ---------- ------ -- ----- -- ----- -- ---- ------<br>--- ----- --- --- ------ -------- ----- --- ------ ----- --<br>----- ----- ---------- --- --- ------ ------ ---- -- ------<br>------- --- ------ ----- --- ---- ------- -- ---- --- --<br>------- ------,485433.2000000477,485432.5,484982.867,484992.8000000715,484999.509,485450.002,,6,secured
screen,html.Screen,2_1_1_1_7,2022-02-01T15:14:06.754Z,,,,,,,,,,,,,,,,,54,,,,,,,,,,,,,,712.5980000238633,,response,,,,100,,,,,,,Space,keypress(Space),,,,,,,,-- --- ---- --- ------ ----- ------- much -- --- ------- --<br>------- ---------- ------ -- ----- -- ----- -- ---- ------<br>--- ----- --- --- ------ -------- ----- --- ------ ----- --<br>----- ----- ---------- --- --- ------ ------ ---- -- ------<br>------- --- ------ ----- --- ---- ------- -- ---- --- --<br>------- ------,486163.3000000715,486162.60000002384,485433.432,485433.39999997616,485450.002,486166.299,,7,much
screen,html.Screen,2_1_1_1_8,2022-02-01T15:14:07.208Z,,,,,,,,,,,,,,,,,54,,,,,,,,,,,,,,449.8010000238428,,response,,,,100,,,,,,,Space,keypress(Space),,,,,,,,-- --- ---- --- ------ ----- ------- ---- of --- ------- --<br>------- ---------- ------ -- ----- -- ----- -- ---- ------<br>--- ----- --- --- ------ -------- ----- --- ------ ----- --<br>----- ----- ---------- --- --- ------ ------ ---- -- ------<br>------- --- ------ ----- --- ---- ------- -- ---- --- --<br>------- ------,486617,486616.10000002384,486150.148,486163.60000002384,486166.299,486632.897,,8,of
screen,html.Screen,2_1_1_1_9,2022-02-01T15:14:07.639Z,,,,,,,,,,,,,,,,,54,,,,,,,,,,,,,,414.3030000476865,,response,,,,100,,,,,,,Space,keypress(Space),,,,,,,,-- --- ---- --- ------ ----- ------- ---- -- its ------- --<br>------- ---------- ------ -- ----- -- ----- -- ---- ------<br>--- ----- --- --- ------ -------- ----- --- ------ ----- --<br>----- ----- ---------- --- --- ------ ------ ---- -- ------<br>------- --- ------ ----- --- ---- ------- -- ---- --- --<br>------- ------,487047.89999997616,487047.2000000477,486616.287,486617.10000002384,486632.897,487070.51,,9,its
screen,html.Screen,2_1_1_1_10,2022-02-01T15:14:08.249Z,,,,,,,,,,,,,,,,,54,,,,,,,,,,,,,,586.6900000476744,,response,,,,100,,,,,,,Space,keypress(Space),,,,,,,,-- --- ---- --- ------ ----- ------- ---- -- --- revenue --<br>------- ---------- ------ -- ----- -- ----- -- ---- ------<br>--- ----- --- --- ------ -------- ----- --- ------ ----- --<br>----- ----- ---------- --- --- ------ ------ ---- -- ------<br>------- --- ------ ----- --- ---- ------- -- ---- --- --<br>------- ------,487657.89999997616,487657.2000000477,487032.959,487048.10000002384,487070.51,487666.314,,10,revenue
screen,html.Screen,2_1_1_1_11,2022-02-01T15:14:08.743Z,,,,,,,,,,,,,,,,,54,,,,,,,,,,,,,,485.2860000238288,,response,,,,100,,,,,,,Space,keypress(Space),,,,,,,,-- --- ---- --- ------ ----- ------- ---- -- --- ------- by<br>------- ---------- ------ -- ----- -- ----- -- ---- ------<br>--- ----- --- --- ------ -------- ----- --- ------ ----- --<br>----- ----- ---------- --- --- ------ ------ ---- -- ------<br>------- --- ------ ----- --- ---- ------- -- ---- --- --<br>------- ------,488152.39999997616,488151.60000002384,487649.681,487658,487666.314,488166.483,,11,by
screen,html.Screen,2_1_1_1_12,2022-02-01T15:14:09.361Z,,,,,,,,,,,,,,,,,54,,,,,,,,,,,,,,602.5169999999925,,response,,,,100,,,,,,,Space,keypress(Space),,,,,,,,-- --- ---- --- ------ ----- ------- ---- -- --- ------- --<br>issuing ---------- ------ -- ----- -- ----- -- ---- ------<br>--- ----- --- --- ------ -------- ----- --- ------ ----- --<br>----- ----- ---------- --- --- ------ ------ ---- -- ------<br>------- --- ------ ----- --- ---- ------- -- ---- --- --<br>------- ------,488769.7000000477,488769,488150.289,488152.5,488166.483,488783.457,,12,issuing
screen,html.Screen,2_1_1_1_13,2022-02-01T15:14:09.943Z,,,,,,,,,,,,,,,,,54,,,,,,,,,,,,,,567.643000023847,,response,,,,100,,,,,,,Space,keypress(Space),,,,,,,,-- --- ---- --- ------ ----- ------- ---- -- --- ------- --<br>------- government ------ -- ----- -- ----- -- ---- ------<br>--- ----- --- --- ------ -------- ----- --- ------ ----- --<br>----- ----- ---------- --- --- ------ ------ ---- -- ------<br>------- --- ------ ----- --- ---- ------- -- ---- --- --<br>------- ------,489351.89999997616,489351.10000002384,488766.444,488769.89999997616,488783.457,489366.534,,13,government
screen,html.Screen,2_1_1_1_14,2022-02-01T15:14:11.026Z,,,,,,,,,,,,,,,,,54,,,,,,,,,,,,,,1067.5660000238568,,response,,,,100,,,,,,,Space,keypress(Space),,,,,,,,-- --- ---- --- ------ ----- ------- ---- -- --- ------- --<br>------- ---------- bonds. -- ----- -- ----- -- ---- ------<br>--- ----- --- --- ------ -------- ----- --- ------ ----- --<br>----- ----- ---------- --- --- ------ ------ ---- -- ------<br>------- --- ------ ----- --- ---- ------- -- ---- --- --<br>------- ------,490434.8000000715,490434.10000002384,489349.752,489352,489366.534,490449.826,,14,bonds.
screen,html.Screen,2_1_1_1_15,2022-02-01T15:14:11.615Z,,,,,,,,,,,,,,,,,54,,,,,,,,,,,,,,573.2740000238409,,response,,,,100,,,,,,,Space,keypress(Space),,,,,,,,-- --- ---- --- ------ ----- ------- ---- -- --- ------- --<br>------- ---------- ------ In ----- -- ----- -- ---- ------<br>--- ----- --- --- ------ -------- ----- --- ------ ----- --<br>----- ----- ---------- --- --- ------ ------ ---- -- ------<br>------- --- ------ ----- --- ---- ------- -- ---- --- --<br>------- ------,491023.89999997616,491023.10000002384,490433.18,490435,490449.826,491033.117,,15,In
screen,html.Screen,2_1_1_1_16,2022-02-01T15:14:13.545Z,,,,,,,,,,,,,,,,,54,,,,,,,,,,,,,,1919.9830000238144,,response,,,,100,,,,,,,Space,keypress(Space),,,,,,,,"-- --- ---- --- ------ ----- ------- ---- -- --- ------- --<br>------- ---------- ------ -- 1727, -- ----- -- ---- ------<br>--- ----- --- --- ------ -------- ----- --- ------ ----- --<br>----- ----- ---------- --- --- ------ ------ ---- -- ------<br>------- --- ------ ----- --- ---- ------- -- ---- --- --<br>------- ------",492953.89999997616,492953.10000002384,491016.493,491024,491033.117,492966.529,,16,"1727,"
screen,html.Screen,2_1_1_1_17,2022-02-01T15:14:14.111Z,,,,,,,,,,,,,,,,,54,,,,,,,,,,,,,,553.1710000477033,,response,,,,100,,,,,,,Space,keypress(Space),,,,,,,,-- --- ---- --- ------ ----- ------- ---- -- --- ------- --<br>------- ---------- ------ -- ----- in ----- -- ---- ------<br>--- ----- --- --- ------ -------- ----- --- ------ ----- --<br>----- ----- ---------- --- --- ------ ------ ---- -- ------<br>------- --- ------ ----- --- ---- ------- -- ---- --- --<br>------- ------,493520.5,493519.7000000477,492950.35,492954,492966.529,493533.238,,17,in
screen,html.Screen,2_1_1_1_18,2022-02-01T15:14:14.559Z,,,,,,,,,,,,,,,,,54,,,,,,,,,,,,,,434.4620000476716,,response,,,,100,,,,,,,Space,keypress(Space),,,,,,,,-- --- ---- --- ------ ----- ------- ---- -- --- ------- --<br>------- ---------- ------ -- ----- -- order -- ---- ------<br>--- ----- --- --- ------ -------- ----- --- ------ ----- --<br>----- ----- ---------- --- --- ------ ------ ---- -- ------<br>------- --- ------ ----- --- ---- ------- -- ---- --- --<br>------- ------,493968.39999997616,493967.7000000477,493516.842,493520.8000000715,493533.238,493983.621,,18,order
screen,html.Screen,2_1_1_1_19,2022-02-01T15:14:15.215Z,,,,,,,,,,,,,,,,,54,,,,,,,,,,,,,,640.0790000476991,,response,,,,100,,,,,,,Space,keypress(Space),,,,,,,,-- --- ---- --- ------ ----- ------- ---- -- --- ------- --<br>------- ---------- ------ -- ----- -- ----- to ---- ------<br>--- ----- --- --- ------ -------- ----- --- ------ ----- --<br>----- ----- ---------- --- --- ------ ------ ---- -- ------<br>------- --- ------ ----- --- ---- ------- -- ---- --- --<br>------- ------,494624.3000000715,494623.7000000477,493967.148,493968.60000002384,493983.621,494633.368,,19,to
screen,html.Screen,2_1_1_1_20,2022-02-01T15:14:16.065Z,,,,,,,,,,,,,,,,,54,,,,,,,,,,,,,,840.1319999999832,,response,,,,100,,,,,,,Space,keypress(Space),,,,,,,,-- --- ---- --- ------ ----- ------- ---- -- --- ------- --<br>------- ---------- ------ -- ----- -- ----- -- save ------<br>--- ----- --- --- ------ -------- ----- --- ------ ----- --<br>----- ----- ---------- --- --- ------ ------ ---- -- ------<br>------- --- ------ ----- --- ---- ------- -- ---- --- --<br>------- ------,495474.3000000715,495473.5,494617.172,494624.5,494633.368,495483.34,,20,save
screen,html.Screen,2_1_1_1_21,2022-02-01T15:14:17.034Z,,,,,,,,,,,,,,,,,54,,,,,,,,,,,,,,958.7600000238162,,response,,,,100,,,,,,,Space,keypress(Space),,,,,,,,"-- --- ---- --- ------ ----- ------- ---- -- --- ------- --<br>------- ---------- ------ -- ----- -- ----- -- ---- money,<br>--- ----- --- --- ------ -------- ----- --- ------ ----- --<br>----- ----- ---------- --- --- ------ ------ ---- -- ------<br>------- --- ------ ----- --- ---- ------- -- ---- --- --<br>------- ------",496442.8000000715,496442.10000002384,495467.176,495474.39999997616,495483.34,496450.09,,21,"money,"
screen,html.Screen,2_1_1_1_22,2022-02-01T15:14:17.533Z,,,,,,,,,,,,,,,,,54,,,,,,,,,,,,,,491.4099999999744,,response,,,,100,,,,,,,Space,keypress(Space),,,,,,,,-- --- ---- --- ------ ----- ------- ---- -- --- ------- --<br>------- ---------- ------ -- ----- -- ----- -- ---- ------<br>the ----- --- --- ------ -------- ----- --- ------ ----- --<br>----- ----- ---------- --- --- ------ ------ ---- -- ------<br>------- --- ------ ----- --- ---- ------- -- ---- --- --<br>------- ------,496942.3000000715,496941.5,496433.305,496442.89999997616,496450.09,496950.077,,22,the
screen,html.Screen,2_1_1_1_23,2022-02-01T15:14:18.008Z,,,,,,,,,,,,,,,,,54,,,,,,,,,,,,,,466.6230000476935,,response,,,,100,,,,,,,Space,keypress(Space),,,,,,,,-- --- ---- --- ------ ----- ------- ---- -- --- ------- --<br>------- ---------- ------ -- ----- -- ----- -- ---- ------<br>--- state --- --- ------ -------- ----- --- ------ ----- --<br>----- ----- ---------- --- --- ------ ------ ---- -- ------<br>------- --- ------ ----- --- ---- ------- -- ---- --- --<br>------- ------,497417.39999997616,497416.7000000477,496933.415,496942.39999997616,496950.077,497433.671,,23,state
screen,html.Screen,2_1_1_1_24,2022-02-01T15:14:18.576Z,,,,,,,,,,,,,,,,,54,,,,,,,,,,,,,,551.0290000477107,,response,,,,100,,,,,,,Space,keypress(Space),,,,,,,,-- --- ---- --- ------ ----- ------- ---- -- --- ------- --<br>------- ---------- ------ -- ----- -- ----- -- ---- ------<br>--- ----- cut --- ------ -------- ----- --- ------ ----- --<br>----- ----- ---------- --- --- ------ ------ ---- -- ------<br>------- --- ------ ----- --- ---- ------- -- ---- --- --<br>------- ------,497985.39999997616,497984.7000000477,497416.723,497417.5,497433.671,498000.565,,24,cut
screen,html.Screen,2_1_1_1_25,2022-02-01T15:14:19.021Z,,,,,,,,,,,,,,,,,54,,,,,,,,,,,,,,428.6350000476814,,response,,,,100,,,,,,,Space,keypress(Space),,,,,,,,-- --- ---- --- ------ ----- ------- ---- -- --- ------- --<br>------- ---------- ------ -- ----- -- ----- -- ---- ------<br>--- ----- --- the ------ -------- ----- --- ------ ----- --<br>----- ----- ---------- --- --- ------ ------ ---- -- ------<br>------- --- ------ ----- --- ---- ------- -- ---- --- --<br>------- ------,498429.89999997616,498429.2000000477,497983.471,497985.60000002384,498000.565,498433.465,,25,the
screen,html.Screen,2_1_1_1_26,2022-02-01T15:14:19.396Z,,,,,,,,,,,,,,,,,54,,,,,,,,,,,,,,371.0349999999744,,response,,,,100,,,,,,,Space,keypress(Space),,,,,,,,-- --- ---- --- ------ ----- ------- ---- -- --- ------- --<br>------- ---------- ------ -- ----- -- ----- -- ---- ------<br>--- ----- --- --- bonds' -------- ----- --- ------ ----- --<br>----- ----- ---------- --- --- ------ ------ ---- -- ------<br>------- --- ------ ----- --- ---- ------- -- ---- --- --<br>------- ------,498805.2000000477,498804.5,498416.886,498430.10000002384,498433.465,498817.292,,26,bonds'
screen,html.Screen,2_1_1_1_27,2022-02-01T15:14:20.663Z,,,,,,,,,,,,,,,,,54,,,,,,,,,,,,,,1253.7079999999842,,response,,,,100,,,,,,,Space,keypress(Space),,,,,,,,-- --- ---- --- ------ ----- ------- ---- -- --- ------- --<br>------- ---------- ------ -- ----- -- ----- -- ---- ------<br>--- ----- --- --- ------ interest ----- --- ------ ----- --<br>----- ----- ---------- --- --- ------ ------ ---- -- ------<br>------- --- ------ ----- --- ---- ------- -- ---- --- --<br>------- ------,500071.8000000715,500071,498800.596,498805.3000000715,498817.292,500083.98,,27,interest
screen,html.Screen,2_1_1_1_28,2022-02-01T15:14:21.219Z,,,,,,,,,,,,,,,,,54,,,,,,,,,,,,,,543.7200000477023,,response,,,,100,,,,,,,Space,keypress(Space),,,,,,,,-- --- ---- --- ------ ----- ------- ---- -- --- ------- --<br>------- ---------- ------ -- ----- -- ----- -- ---- ------<br>--- ----- --- --- ------ -------- rate. --- ------ ----- --<br>----- ----- ---------- --- --- ------ ------ ---- -- ------<br>------- --- ------ ----- --- ---- ------- -- ---- --- --<br>------- ------,500628.3000000715,500627.7000000477,500067.486,500072,500083.98,500633.588,,28,rate.
screen,html.Screen,2_1_1_1_29,2022-02-01T15:14:21.744Z,,,,,,,,,,,,,,,,,54,,,,,,,,,,,,,,519.2120000715367,,response,,,,100,,,,,,,Space,keypress(Space),,,,,,,,-- --- ---- --- ------ ----- ------- ---- -- --- ------- --<br>------- ---------- ------ -- ----- -- ----- -- ---- ------<br>--- ----- --- --- ------ -------- ----- The ------ ----- --<br>----- ----- ---------- --- --- ------ ------ ---- -- ------<br>------- --- ------ ----- --- ---- ------- -- ---- --- --<br>------- ------,501153.5,501152.8000000715,500617.438,500628.5,500633.588,501167.354,,29,The
screen,html.Screen,2_1_1_1_30,2022-02-01T15:14:22.371Z,,,,,,,,,,,,,,,,,54,,,,,,,,,,,,,,612.5459999761661,,response,,,,100,,,,,,,Space,keypress(Space),,,,,,,,-- --- ---- --- ------ ----- ------- ---- -- --- ------- --<br>------- ---------- ------ -- ----- -- ----- -- ---- ------<br>--- ----- --- --- ------ -------- ----- --- market ----- --<br>----- ----- ---------- --- --- ------ ------ ---- -- ------<br>------- --- ------ ----- --- ---- ------- -- ---- --- --<br>------- ------,501780.60000002384,501779.89999997616,501150.636,501153.7000000477,501167.354,501783.648,,30,market
screen,html.Screen,2_1_1_1_31,2022-02-01T15:14:22.844Z,,,,,,,,,,,,,,,,,54,,,,,,,,,,,,,,468.5520000476972,,response,,,,100,,,,,,,Space,keypress(Space),,,,,,,,-- --- ---- --- ------ ----- ------- ---- -- --- ------- --<br>------- ---------- ------ -- ----- -- ----- -- ---- ------<br>--- ----- --- --- ------ -------- ----- --- ------ value --<br>----- ----- ---------- --- --- ------ ------ ---- -- ------<br>------- --- ------ ----- --- ---- ------- -- ---- --- --<br>------- ------,502252.89999997616,502252.2000000477,501766.995,501780.8000000715,501783.648,502267.028,,31,value
screen,html.Screen,2_1_1_1_32,2022-02-01T15:14:23.225Z,,,,,,,,,,,,,,,,,54,,,,,,,,,,,,,,366.2720000715344,,response,,,,100,,,,,,,Space,keypress(Space),,,,,,,,-- --- ---- --- ------ ----- ------- ---- -- --- ------- --<br>------- ---------- ------ -- ----- -- ----- -- ---- ------<br>--- ----- --- --- ------ -------- ----- --- ------ ----- of<br>----- ----- ---------- --- --- ------ ------ ---- -- ------<br>------- --- ------ ----- --- ---- ------- -- ---- --- --<br>------- ------,502634,502633.3000000715,502250.684,502253.10000002384,502267.028,502650.373,,32,of
screen,html.Screen,2_1_1_1_33,2022-02-01T15:14:23.649Z,,,,,,,,,,,,,,,,,54,,,,,,,,,,,,,,406.5269999761367,,response,,,,100,,,,,,,Space,keypress(Space),,,,,,,,-- --- ---- --- ------ ----- ------- ---- -- --- ------- --<br>------- ---------- ------ -- ----- -- ----- -- ---- ------<br>--- ----- --- --- ------ -------- ----- --- ------ ----- --<br>these ----- ---------- --- --- ------ ------ ---- -- ------<br>------- --- ------ ----- --- ---- ------- -- ---- --- --<br>------- ------,503057.89999997616,503056.89999997616,502633.686,502634.10000002384,502650.373,503066.993,,33,these
screen,html.Screen,2_1_1_1_34,2022-02-01T15:14:24.095Z,,,,,,,,,,,,,,,,,54,,,,,,,,,,,,,,436.6070000238251,,response,,,,100,,,,,,,Space,keypress(Space),,,,,,,,-- --- ---- --- ------ ----- ------- ---- -- --- ------- --<br>------- ---------- ------ -- ----- -- ----- -- ---- ------<br>--- ----- --- --- ------ -------- ----- --- ------ ----- --<br>----- bonds ---------- --- --- ------ ------ ---- -- ------<br>------- --- ------ ----- --- ---- ------- -- ---- --- --<br>------- ------,503504.3000000715,503503.60000002384,503050.36,503058,503066.993,503517.108,,34,bonds
screen,html.Screen,2_1_1_1_35,2022-02-01T15:14:24.823Z,,,,,,,,,,,,,,,,,54,,,,,,,,,,,,,,714.0920000476763,,response,,,,100,,,,,,,Space,keypress(Space),,,,,,,,"-- --- ---- --- ------ ----- ------- ---- -- --- ------- --<br>------- ---------- ------ -- ----- -- ----- -- ---- ------<br>--- ----- --- --- ------ -------- ----- --- ------ ----- --<br>----- ----- plummeted, --- --- ------ ------ ---- -- ------<br>------- --- ------ ----- --- ---- ------- -- ---- --- --<br>------- ------",504232,504231.2000000477,503500.397,503504.5,503517.108,504233.771,,35,"plummeted,"
screen,html.Screen,2_1_1_1_36,2022-02-01T15:14:26.462Z,,,,,,,,,,,,,,,,,54,,,,,,,,,,,,,,1636.9290000476758,,response,,,,100,,,,,,,Space,keypress(Space),,,,,,,,-- --- ---- --- ------ ----- ------- ---- -- --- ------- --<br>------- ---------- ------ -- ----- -- ----- -- ---- ------<br>--- ----- --- --- ------ -------- ----- --- ------ ----- --<br>----- ----- ---------- and --- ------ ------ ---- -- ------<br>------- --- ------ ----- --- ---- ------- -- ---- --- --<br>------- ------,505871.5,505870.7000000477,504217.611,504232.10000002384,504233.771,505883.795,,36,and
screen,html.Screen,2_1_1_1_37,2022-02-01T15:14:26.781Z,,,,,,,,,,,,,,,,,54,,,,,,,,,,,,,,305.7050000000163,,response,,,,100,,,,,,,Space,keypress(Space),,,,,,,,-- --- ---- --- ------ ----- ------- ---- -- --- ------- --<br>------- ---------- ------ -- ----- -- ----- -- ---- ------<br>--- ----- --- --- ------ -------- ----- --- ------ ----- --<br>----- ----- ---------- --- the ------ ------ ---- -- ------<br>------- --- ------ ----- --- ---- ------- -- ---- --- --<br>------- ------,506190.2000000477,506189.5,505867.452,505871.7000000477,505883.795,506200.813,,37,the
screen,html.Screen,2_1_1_1_38,2022-02-01T15:14:27.185Z,,,,,,,,,,,,,,,,,54,,,,,,,,,,,,,,392.9870000715018,,response,,,,100,,,,,,,Space,keypress(Space),,,,,,,,-- --- ---- --- ------ ----- ------- ---- -- --- ------- --<br>------- ---------- ------ -- ----- -- ----- -- ---- ------<br>--- ----- --- --- ------ -------- ----- --- ------ ----- --<br>----- ----- ---------- --- --- market ------ ---- -- ------<br>------- --- ------ ----- --- ---- ------- -- ---- --- --<br>------- ------,506594.39999997616,506593.8000000715,506184.144,506190.39999997616,506200.813,506600.581,,38,market
screen,html.Screen,2_1_1_1_39,2022-02-01T15:14:27.592Z,,,,,,,,,,,,,,,,,54,,,,,,,,,,,,,,399.4189999999944,,response,,,,100,,,,,,,Space,keypress(Space),,,,,,,,-- --- ---- --- ------ ----- ------- ---- -- --- ------- --<br>------- ---------- ------ -- ----- -- ----- -- ---- ------<br>--- ----- --- --- ------ -------- ----- --- ------ ----- --<br>----- ----- ---------- --- --- ------ became ---- -- ------<br>------- --- ------ ----- --- ---- ------- -- ---- --- --<br>------- ------,507000.8000000715,507000,506584.43,506594.60000002384,506600.581,507017.305,,39,became
screen,html.Screen,2_1_1_1_40,2022-02-01T15:14:27.988Z,,,,,,,,,,,,,,,,,54,,,,,,,,,,,,,,378.8950000476907,,response,,,,100,,,,,,,Space,keypress(Space),,,,,,,,-- --- ---- --- ------ ----- ------- ---- -- --- ------- --<br>------- ---------- ------ -- ----- -- ----- -- ---- ------<br>--- ----- --- --- ------ -------- ----- --- ------ ----- --<br>----- ----- ---------- --- --- ------ ------ wary -- ------<br>------- --- ------ ----- --- ---- ------- -- ---- --- --<br>------- ------,507396.89999997616,507396.2000000477,507000.565,507000.89999997616,507017.305,507400.551,,40,wary
screen,html.Screen,2_1_1_1_41,2022-02-01T15:14:28.635Z,,,,,,,,,,,,,,,,,54,,,,,,,,,,,,,,642.6490000477061,,response,,,,100,,,,,,,Space,keypress(Space),,,,,,,,-- --- ---- --- ------ ----- ------- ---- -- --- ------- --<br>------- ---------- ------ -- ----- -- ----- -- ---- ------<br>--- ----- --- --- ------ -------- ----- --- ------ ----- --<br>----- ----- ---------- --- --- ------ ------ ---- of ------<br>------- --- ------ ----- --- ---- ------- -- ---- --- --<br>------- ------,508043.8000000715,508043.2000000477,507384.366,507397.10000002384,507400.551,508050.643,,41,of
screen,html.Screen,2_1_1_1_42,2022-02-01T15:14:29.155Z,,,,,,,,,,,,,,,,,54,,,,,,,,,,,,,,513.0570000477019,,response,,,,100,,,,,,,Space,keypress(Space),,,,,,,,-- --- ---- --- ------ ----- ------- ---- -- --- ------- --<br>------- ---------- ------ -- ----- -- ----- -- ---- ------<br>--- ----- --- --- ------ -------- ----- --- ------ ----- --<br>----- ----- ---------- --- --- ------ ------ ---- -- French<br>------- --- ------ ----- --- ---- ------- -- ---- --- --<br>------- ------,508564.39999997616,508563.7000000477,508034.266,508044,508050.643,508567.303,,42,French
screen,html.Screen,2_1_1_1_43,2022-02-01T15:14:29.785Z,,,,,,,,,,,,,,,,,54,,,,,,,,,,,,,,626.2970000238274,,response,,,,100,,,,,,,Space,keypress(Space),,,,,,,,-- --- ---- --- ------ ----- ------- ---- -- --- ------- --<br>------- ---------- ------ -- ----- -- ----- -- ---- ------<br>--- ----- --- --- ------ -------- ----- --- ------ ----- --<br>----- ----- ---------- --- --- ------ ------ ---- -- ------<br>credit. --- ------ ----- --- ---- ------- -- ---- --- --<br>------- ------,509194.3000000715,509193.60000002384,508551.078,508564.5,508567.303,509200.691,,43,credit.
screen,html.Screen,2_1_1_1_44,2022-02-01T15:14:32.212Z,,,,,,,,,,,,,,,,,54,,,,,,,,,,,,,,2419.2089999761665,,response,,,,100,,,,,,,Space,keypress(Space),,,,,,,,-- --- ---- --- ------ ----- ------- ---- -- --- ------- --<br>------- ---------- ------ -- ----- -- ----- -- ---- ------<br>--- ----- --- --- ------ -------- ----- --- ------ ----- --<br>----- ----- ---------- --- --- ------ ------ ---- -- ------<br>------- The ------ ----- --- ---- ------- -- ---- --- --<br>------- ------,511620.8000000715,511619.89999997616,509184.535,509194.5,509200.691,511634.087,,44,The
screen,html.Screen,2_1_1_1_45,2022-02-01T15:14:32.885Z,,,,,,,,,,,,,,,,,54,,,,,,,,,,,,,,659.4130000000005,,response,,,,100,,,,,,,Space,keypress(Space),,,,,,,,-- --- ---- --- ------ ----- ------- ---- -- --- ------- --<br>------- ---------- ------ -- ----- -- ----- -- ---- ------<br>--- ----- --- --- ------ -------- ----- --- ------ ----- --<br>----- ----- ---------- --- --- ------ ------ ---- -- ------<br>------- --- French ----- --- ---- ------- -- ---- --- --<br>------- ------,512294.39999997616,512293.5,511617.286,511620.89999997616,511634.087,512300.809,,45,French
screen,html.Screen,2_1_1_1_46,2022-02-01T15:14:33.351Z,,,,,,,,,,,,,,,,,54,,,,,,,,,,,,,,458.9910000715172,,response,,,,100,,,,,,,Space,keypress(Space),,,,,,,,-- --- ---- --- ------ ----- ------- ---- -- --- ------- --<br>------- ---------- ------ -- ----- -- ----- -- ---- ------<br>--- ----- --- --- ------ -------- ----- --- ------ ----- --<br>----- ----- ---------- --- --- ------ ------ ---- -- ------<br>------- --- ------ state --- ---- ------- -- ---- --- --<br>------- ------,512760.5,512759.8000000715,512284.441,512294.5,512300.809,512767.398,,46,state
screen,html.Screen,2_1_1_1_47,2022-02-01T15:14:33.805Z,,,,,,,,,,,,,,,,,54,,,,,,,,,,,,,,446.3020000476972,,response,,,,100,,,,,,,Space,keypress(Space),,,,,,,,-- --- ---- --- ------ ----- ------- ---- -- --- ------- --<br>------- ---------- ------ -- ----- -- ----- -- ---- ------<br>--- ----- --- --- ------ -------- ----- --- ------ ----- --<br>----- ----- ---------- --- --- ------ ------ ---- -- ------<br>------- --- ------ ----- was ---- ------- -- ---- --- --<br>------- ------,513214.5,513213.7000000477,512751.887,512760.7000000477,512767.398,513217.478,,47,was
screen,html.Screen,2_1_1_1_48,2022-02-01T15:14:34.218Z,,,,,,,,,,,,,,,,,54,,,,,,,,,,,,,,408.7220000476809,,response,,,,100,,,,,,,Space,keypress(Space),,,,,,,,-- --- ---- --- ------ ----- ------- ---- -- --- ------- --<br>------- ---------- ------ -- ----- -- ----- -- ---- ------<br>--- ----- --- --- ------ -------- ----- --- ------ ----- --<br>----- ----- ---------- --- --- ------ ------ ---- -- ------<br>------- --- ------ ----- --- left ------- -- ---- --- --<br>------- ------,513627,513626.2000000477,513200.782,513214.7000000477,513217.478,513634.62,,48,left
screen,html.Screen,2_1_1_1_49,2022-02-01T15:14:34.757Z,,,,,,,,,,,,,,,,,54,,,,,,,,,,,,,,530.5800000476884,,response,,,,100,,,,,,,Space,keypress(Space),,,,,,,,-- --- ---- --- ------ ----- ------- ---- -- --- ------- --<br>------- ---------- ------ -- ----- -- ----- -- ---- ------<br>--- ----- --- --- ------ -------- ----- --- ------ ----- --<br>----- ----- ---------- --- --- ------ ------ ---- -- ------<br>------- --- ------ ----- --- ---- without -- ---- --- --<br>------- ------,514166,514165.2000000477,513617.533,513627.2000000477,513634.62,514187.244,,49,without
screen,html.Screen,2_1_1_1_50,2022-02-01T15:14:35.226Z,,,,,,,,,,,,,,,,,54,,,,,,,,,,,,,,447.0560000715195,,response,,,,100,,,,,,,Space,keypress(Space),,,,,,,,-- --- ---- --- ------ ----- ------- ---- -- --- ------- --<br>------- ---------- ------ -- ----- -- ----- -- ---- ------<br>--- ----- --- --- ------ -------- ----- --- ------ ----- --<br>----- ----- ---------- --- --- ------ ------ ---- -- ------<br>------- --- ------ ----- --- ---- ------- an ---- --- --<br>------- ------,514635.10000002384,514634.3000000715,514151.698,514166.2000000477,514187.244,514651.367,,50,an
screen,html.Screen,2_1_1_1_51,2022-02-01T15:14:35.687Z,,,,,,,,,,,,,,,,,54,,,,,,,,,,,,,,443.6329999999725,,response,,,,100,,,,,,,Space,keypress(Space),,,,,,,,-- --- ---- --- ------ ----- ------- ---- -- --- ------- --<br>------- ---------- ------ -- ----- -- ----- -- ---- ------<br>--- ----- --- --- ------ -------- ----- --- ------ ----- --<br>----- ----- ---------- --- --- ------ ------ ---- -- ------<br>------- --- ------ ----- --- ---- ------- -- easy --- --<br>------- ------,515095.7000000477,515095,514634.568,514635.2000000477,514651.367,515100.868,,51,easy
screen,html.Screen,2_1_1_1_52,2022-02-01T15:14:36.076Z,,,,,,,,,,,,,,,,,54,,,,,,,,,,,,,,383.5319999761414,,response,,,,100,,,,,,,Space,keypress(Space),,,,,,,,-- --- ---- --- ------ ----- ------- ---- -- --- ------- --<br>------- ---------- ------ -- ----- -- ----- -- ---- ------<br>--- ----- --- --- ------ -------- ----- --- ------ ----- --<br>----- ----- ---------- --- --- ------ ------ ---- -- ------<br>------- --- ------ ----- --- ---- ------- -- ---- way --<br>------- ------,515484.89999997616,515484.39999997616,515084.29,515095.89999997616,515100.868,515501.169,,52,way
screen,html.Screen,2_1_1_1_53,2022-02-01T15:14:36.441Z,,,,,,,,,,,,,,,,,54,,,,,,,,,,,,,,348.23099997616373,,response,,,,100,,,,,,,Space,keypress(Space),,,,,,,,-- --- ---- --- ------ ----- ------- ---- -- --- ------- --<br>------- ---------- ------ -- ----- -- ----- -- ---- ------<br>--- ----- --- --- ------ -------- ----- --- ------ ----- --<br>----- ----- ---------- --- --- ------ ------ ---- -- ------<br>------- --- ------ ----- --- ---- ------- -- ---- --- of<br>------- ------,515850.3000000715,515849.39999997616,515484.464,515485.10000002384,515501.169,515867.863,,53,of
screen,html.Screen,2_1_1_1_54,2022-02-01T15:14:36.812Z,,,,,,,,,,,,,,,,,54,,,,,,,,,,,,,,352.43700007151347,,response,,,,100,,,,,,,Space,keypress(Space),,,,,,,,-- --- ---- --- ------ ----- ------- ---- -- --- ------- --<br>------- ---------- ------ -- ----- -- ----- -- ---- ------<br>--- ----- --- --- ------ -------- ----- --- ------ ----- --<br>----- ----- ---------- --- --- ------ ------ ---- -- ------<br>------- --- ------ ----- --- ---- ------- -- ---- --- --<br>raising ------,516221.10000002384,516220.3000000715,515834.498,515850.39999997616,515867.863,516234.683,,54,raising
screen,html.Screen,2_1_1_1_55,2022-02-01T15:14:37.213Z,,,,,,,,,,,,,,,,,54,,,,,,,,,,,,,,386.71699997613905,,response,,,,100,,,,,,,Space,keypress(Space),,,,,,,,-- --- ---- --- ------ ----- ------- ---- -- --- ------- --<br>------- ---------- ------ -- ----- -- ----- -- ---- ------<br>--- ----- --- --- ------ -------- ----- --- ------ ----- --<br>----- ----- ---------- --- --- ------ ------ ---- -- ------<br>------- --- ------ ----- --- ---- ------- -- ---- --- --<br>------- money.,516622.2000000477,516621.39999997616,516217.668,516221.2000000477,516234.683,516634.222,,55,money.
Item 100,flow.Loop,2_1_1_1,2022-02-01T15:14:37.213Z,,,,,,,,,,,,,,,,,,,,,,,,,,,,,,,35021.97399997618,,completion,,,,,A,,,,,,,,,,,silence,,,,,516622.5,516621.39999997616,481582.826,481583.7000000477,481599.426,516634.222,,,
Question 1,html.Screen,2_1_1_2,2022-02-01T15:14:42.163Z,,,,,,,,,,,,,,,,,,,,,,,,,,,,true,TRUE,,4936.578000071517,,response,,,,100,A,,,,,,TRUE,click #choice-1,,,,silence,,,,,521571.89999997616,521570.8000000715,516618.127,516622.60000002384,516634.222,521584.502,,,
Question 2,html.Screen,2_1_1_3,2022-02-01T15:14:44.949Z,,,,,,,,,,,,,,,,,,,,,,,,,,,,true,FALSE,,2772.3979999761796,,response,,,,100,A,,,,,,FALSE,click #choice-2,,,,silence,,,,,524358.1000000238,524356.8999999762,521568.054,521572.10000002384,521584.502,524367.932,,,
Item 100,flow.Sequence,2_1_1,2022-02-01T15:14:44.949Z,,,,,,,,,,,,,,,,,,,,,,,,,,,,,,,52757.92699997616,,completion,,,,,,,,,,,,,,,,,,,,,524358.3000000715,524356.8999999762,471582.252,471592.7000000477,471598.973,524367.932,,,
End of Practice,html.Page,2_1_2,2022-02-01T15:14:50.567Z,,,,,,,,,,,,,,,,,,,,,,,,,,,,,,,5607.467999976128,,form submission,,,,,,,,,,,,,,,,,,,,,529975.7000000477,529975.3999999762,524351.204,524358.3999999762,524367.932,529984.863,,,
Practice,flow.Sequence,2_1,2022-02-01T15:14:50.567Z,,,,,,,,,,,,,,,,,,,,,,,,,,,,,,,117445.66399997618,,completion,,,,,,,,,,,,,,,,,,,,,529976,529975.3999999762,412463.385,412523.8000000715,412529.736,529984.863,,,
Trap_instruction,html.Page,2_2_0,2022-02-01T15:14:57.049Z,,,,,,,,,,,,,,,,,,,,,,,,,,,,,,,6473.837000047672,,form submission,,,,,,,,,,,,,,,,,,,,,536459.1000000238,536458.7000000477,529968.154,529976.1000000238,529984.863,536485.178,,,
trap_trial,html.Screen,2_2_1,2022-02-01T15:15:01.650Z,,,,,,,,,,,,,,,,,,,,,,,,,,,,true,1,,4573.922000023886,,response,,,,,,,,,,,1,click #choice-1,,,,,,,,,541060.1000000238,541059.1000000238,536451.918,536459.2000000477,536485.178,541068.624,,,
end of trap trial,html.Page,2_2_2,2022-02-01T15:15:04.418Z,,,,,,,,,,,,,,,,,,,,,,,,,,,,,,,2758.7759999762056,,form submission,,,,,,,,,,,,,,,,,,,,,543827.6000000238,543827.3999999762,541051.972,541060.3999999762,541068.624,543835.436,,,
Trap 1,flow.Sequence,2_2,2022-02-01T15:15:04.418Z,,,,,,,,,,,,,,,,,,,,,,,,,,,,,,,13842.536999976146,,completion,,,,,,,,,,,,,,,,,,,,,543828,543827.3999999762,529968.154,529976.1000000238,529984.863,543835.436,,,
Standby,html.Page,2_3_0,2022-02-01T15:15:12.411Z,,,,,,,,,,,,,,,,,,,,,,,,,,,,,,,8000.383999999962,,timeout,,,,,,,,,,,,,,,,,,,,,551820.8999999762,551819.11,543818.815,543828.1000000238,543835.436,551835.82,,,
Holding screen,html.Screen,2_3_1_0_0,2022-02-01T15:15:19.411Z,,,,,,,,,,,,,,,,,,,,,,,,,,,,,,,7000.740000000107,,timeout,,,,,,,,,,,,,,,,,,,,,558820.8000000715,558820.075,551819.11,551821.1000000238,551835.82,558836.56,,,
screen,html.Screen,2_3_1_0_1_0,2022-02-01T15:15:22.536Z,,,,,,,,,,,,,,,,,51,,,,,,,,,,,,,,3109.140000047628,,response,,,,13,A,,,,,,Space,keypress(Space),,,,silence,,,,American -------- --- --- ---- --- --- ------ -- --------<br>---- --------- --- ------- ------------ ---------- ---------<br>--- ---------- ------- ---------- ------- -- -------- ----<br>---- --- ------ ----- ------ -- ---- --- ----- -- - -------<br>-------- -- --- --- -- ----- ----------- ----- -----------<br>---- --- ---------- --- ---- --- -- ----------,561946.3000000715,561945.7000000477,558820.075,558821.1000000238,558836.56,561952.879,,0,American
screen,html.Screen,2_3_1_0_1_1,2022-02-01T15:15:23.076Z,,,,,,,,,,,,,,,,,51,,,,,,,,,,,,,,531.9210000715684,,response,,,,13,A,,,,,,Space,keypress(Space),,,,silence,,,,-------- industry --- --- ---- --- --- ------ -- --------<br>---- --------- --- ------- ------------ ---------- ---------<br>--- ---------- ------- ---------- ------- -- -------- ----<br>---- --- ------ ----- ------ -- ---- --- ----- -- - -------<br>-------- -- --- --- -- ----- ----------- ----- -----------<br>---- --- ---------- --- ---- --- -- ----------,562485.5,562484.8000000715,561936.603,561946.5,561952.879,562503.093,,1,industry
screen,html.Screen,2_3_1_0_1_2,2022-02-01T15:15:23.435Z,,,,,,,,,,,,,,,,,51,,,,,,,,,,,,,,340.80699997616466,,response,,,,13,A,,,,,,Space,keypress(Space),,,,silence,,,,-------- -------- may --- ---- --- --- ------ -- --------<br>---- --------- --- ------- ------------ ---------- ---------<br>--- ---------- ------- ---------- ------- -- -------- ----<br>---- --- ------ ----- ------ -- ---- --- ----- -- - -------<br>-------- -- --- --- -- ----- ----------- ----- -----------<br>---- --- ---------- --- ---- --- -- ----------,562844.5,562843.8999999762,562470.06,562485.7000000477,562503.093,562852.981,,2,may
screen,html.Screen,2_3_1_0_1_3,2022-02-01T15:15:23.742Z,,,,,,,,,,,,,,,,,51,,,,,,,,,,,,,,298.01899999997113,,response,,,,13,A,,,,,,Space,keypress(Space),,,,silence,,,,-------- -------- --- not ---- --- --- ------ -- --------<br>---- --------- --- ------- ------------ ---------- ---------<br>--- ---------- ------- ---------- ------- -- -------- ----<br>---- --- ------ ----- ------ -- ---- --- ----- -- - -------<br>-------- -- --- --- -- ----- ----------- ----- -----------<br>---- --- ---------- --- ---- --- -- ----------,563151.8999999762,563151,562836.403,562844.7000000477,562852.981,563173.414,,3,not
screen,html.Screen,2_3_1_0_1_4,2022-02-01T15:15:24.086Z,,,,,,,,,,,,,,,,,51,,,,,,,,,,,,,,321.3860000715358,,response,,,,13,A,,,,,,Space,keypress(Space),,,,silence,,,,-------- -------- --- --- know --- --- ------ -- --------<br>---- --------- --- ------- ------------ ---------- ---------<br>--- ---------- ------- ---------- ------- -- -------- ----<br>---- --- ------ ----- ------ -- ---- --- ----- -- - -------<br>-------- -- --- --- -- ----- ----------- ----- -----------<br>---- --- ---------- --- ---- --- -- ----------,563495.6000000238,563494.8000000715,563136.329,563152.1000000238,563173.414,563502.976,,4,know
screen,html.Screen,2_3_1_0_1_5,2022-02-01T15:15:24.530Z,,,,,,,,,,,,,,,,,51,,,,,,,,,,,,,,436.12400002381764,,response,,,,13,A,,,,,,Space,keypress(Space),,,,silence,,,,"-------- -------- --- --- ---- it, --- ------ -- --------<br>---- --------- --- ------- ------------ ---------- ---------<br>--- ---------- ------- ---------- ------- -- -------- ----<br>---- --- ------ ----- ------ -- ---- --- ----- -- - -------<br>-------- -- --- --- -- ----- ----------- ----- -----------<br>---- --- ---------- --- ---- --- -- ----------",563939.8999999762,563939.1000000238,563486.773,563495.8000000715,563502.976,563953.077,,5,"it,"
screen,html.Screen,2_3_1_0_1_6,2022-02-01T15:15:25.025Z,,,,,,,,,,,,,,,,,51,,,,,,,,,,,,,,480.6230000476353,,response,,,,13,A,,,,,,Space,keypress(Space),,,,silence,,,,-------- -------- --- --- ---- --- but ------ -- --------<br>---- --------- --- ------- ------------ ---------- ---------<br>--- ---------- ------- ---------- ------- -- -------- ----<br>---- --- ------ ----- ------ -- ---- --- ----- -- - -------<br>-------- -- --- --- -- ----- ----------- ----- -----------<br>---- --- ---------- --- ---- --- -- ----------,564434.6000000238,564433.7000000477,563936.387,563940.1000000238,563953.077,564436.409,,6,but
screen,html.Screen,2_3_1_0_1_7,2022-02-01T15:15:25.633Z,,,,,,,,,,,,,,,,,51,,,,,,,,,,,,,,605.5910000000149,,response,,,,13,A,,,,,,Space,keypress(Space),,,,silence,,,,-------- -------- --- --- ---- --- --- debate -- --------<br>---- --------- --- ------- ------------ ---------- ---------<br>--- ---------- ------- ---------- ------- -- -------- ----<br>---- --- ------ ----- ------ -- ---- --- ----- -- - -------<br>-------- -- --- --- -- ----- ----------- ----- -----------<br>---- --- ---------- --- ---- --- -- ----------,565042.7000000477,565042,564419.796,564434.7000000477,564436.409,565053.085,,7,debate
screen,html.Screen,2_3_1_0_1_8,2022-02-01T15:15:26.014Z,,,,,,,,,,,,,,,,,51,,,,,,,,,,,,,,369.61500004772097,,response,,,,13,A,,,,,,Space,keypress(Space),,,,silence,,,,-------- -------- --- --- ---- --- --- ------ in --------<br>---- --------- --- ------- ------------ ---------- ---------<br>--- ---------- ------- ---------- ------- -- -------- ----<br>---- --- ------ ----- ------ -- ---- --- ----- -- - -------<br>-------- -- --- --- -- ----- ----------- ----- -----------<br>---- --- ---------- --- ---- --- -- ----------,565423.3999999762,565422.7000000477,565036.422,565042.8999999762,565053.085,565436.479,,8,in
screen,html.Screen,2_3_1_0_1_9,2022-02-01T15:15:26.587Z,,,,,,,,,,,,,,,,,51,,,,,,,,,,,,,,559.7210000476334,,response,,,,13,A,,,,,,Space,keypress(Space),,,,silence,,,,-------- -------- --- --- ---- --- --- ------ -- Congress<br>---- --------- --- ------- ------------ ---------- ---------<br>--- ---------- ------- ---------- ------- -- -------- ----<br>---- --- ------ ----- ------ -- ---- --- ----- -- - -------<br>-------- -- --- --- -- ----- ----------- ----- -----------<br>---- --- ---------- --- ---- --- -- ----------,565997,565996.2000000477,565419.895,565423.6000000238,565436.479,566003.198,,9,Congress
screen,html.Screen,2_3_1_0_1_10,2022-02-01T15:15:26.997Z,,,,,,,,,,,,,,,,,51,,,,,,,,,,,,,,403.1020000715507,,response,,,,13,A,,,,,,Space,keypress(Space),,,,silence,,,,-------- -------- --- --- ---- --- --- ------ -- --------<br>over --------- --- ------- ------------ ---------- ---------<br>--- ---------- ------- ---------- ------- -- -------- ----<br>---- --- ------ ----- ------ -- ---- --- ----- -- - -------<br>-------- -- --- --- -- ----- ----------- ----- -----------<br>---- --- ---------- --- ---- --- -- ----------,566407,566406.3000000715,565986.922,565997.2000000477,566003.198,566419.852,,10,over
screen,html.Screen,2_3_1_0_1_11,2022-02-01T15:15:27.528Z,,,,,,,,,,,,,,,,,51,,,,,,,,,,,,,,516.7480000238866,,response,,,,13,A,,,,,,Space,keypress(Space),,,,silence,,,,-------- -------- --- --- ---- --- --- ------ -- --------<br>---- reforming --- ------- ------------ ---------- ---------<br>--- ---------- ------- ---------- ------- -- -------- ----<br>---- --- ------ ----- ------ -- ---- --- ----- -- - -------<br>-------- -- --- --- -- ----- ----------- ----- -----------<br>---- --- ---------- --- ---- --- -- ----------,566937.5,566936.6000000238,566403.733,566409.6000000238,566419.852,566953.61,,11,reforming
screen,html.Screen,2_3_1_0_1_12,2022-02-01T15:15:27.880Z,,,,,,,,,,,,,,,,,51,,,,,,,,,,,,,,335.4900000238558,,response,,,,13,A,,,,,,Space,keypress(Space),,,,silence,,,,-------- -------- --- --- ---- --- --- ------ -- --------<br>---- --------- the ------- ------------ ---------- ---------<br>--- ---------- ------- ---------- ------- -- -------- ----<br>---- --- ------ ----- ------ -- ---- --- ----- -- - -------<br>-------- -- --- --- -- ----- ----------- ----- -----------<br>---- --- ---------- --- ---- --- -- ----------,567289.8999999762,567289.1000000238,566937.026,566937.7000000477,566953.61,567303.33,,12,the
screen,html.Screen,2_3_1_0_1_13,2022-02-01T15:15:28.385Z,,,,,,,,,,,,,,,,,51,,,,,,,,,,,,,,490.8700000477256,,response,,,,13,A,,,,,,Space,keypress(Space),,,,silence,,,,-------- -------- --- --- ---- --- --- ------ -- --------<br>---- --------- --- federal ------------ ---------- ---------<br>--- ---------- ------- ---------- ------- -- -------- ----<br>---- --- ------ ----- ------ -- ---- --- ----- -- - -------<br>-------- -- --- --- -- ----- ----------- ----- -----------<br>---- --- ---------- --- ---- --- -- ----------,567794.8999999762,567794.2000000477,567287.298,567290.2000000477,567303.33,567803.196,,13,federal
screen,html.Screen,2_3_1_0_1_14,2022-02-01T15:15:28.872Z,,,,,,,,,,,,,,,,,51,,,,,,,,,,,,,,478.20399997616187,,response,,,,13,A,,,,,,Space,keypress(Space),,,,silence,,,,-------- -------- --- --- ---- --- --- ------ -- --------<br>---- --------- --- ------- government's ---------- ---------<br>--- ---------- ------- ---------- ------- -- -------- ----<br>---- --- ------ ----- ------ -- ---- --- ----- -- - -------<br>-------- -- --- --- -- ----- ----------- ----- -----------<br>---- --- ---------- --- ---- --- -- ----------,568282.2000000477,568281.3999999762,567786.619,567795.1000000238,567803.196,568286.641,,14,government's
screen,html.Screen,2_3_1_0_1_15,2022-02-01T15:15:29.376Z,,,,,,,,,,,,,,,,,51,,,,,,,,,,,,,,498.6590000715805,,response,,,,13,A,,,,,,Space,keypress(Space),,,,silence,,,,-------- -------- --- --- ---- --- --- ------ -- --------<br>---- --------- --- ------- ------------ regulatory ---------<br>--- ---------- ------- ---------- ------- -- -------- ----<br>---- --- ------ ----- ------ -- ---- --- ----- -- - -------<br>-------- -- --- --- -- ----- ----------- ----- -----------<br>---- --- ---------- --- ---- --- -- ----------,568786,568785.3000000715,568269.913,568282.3999999762,568286.641,568803.268,,15,regulatory
screen,html.Screen,2_3_1_0_1_16,2022-02-01T15:15:30.451Z,,,,,,,,,,,,,,,,,51,,,,,,,,,,,,,,1057.131999976118,,response,,,,13,A,,,,,,Space,keypress(Space),,,,silence,,,,-------- -------- --- --- ---- --- --- ------ -- --------<br>---- --------- --- ------- ------------ ---------- apparatus<br>--- ---------- ------- ---------- ------- -- -------- ----<br>---- --- ------ ----- ------ -- ---- --- ----- -- - -------<br>-------- -- --- --- -- ----- ----------- ----- -----------<br>---- --- ---------- --- ---- --- -- ----------,569861.2000000477,569860.3999999762,568770.232,568786.2000000477,568803.268,569870.009,,16,apparatus
screen,html.Screen,2_3_1_0_1_17,2022-02-01T15:15:30.944Z,,,,,,,,,,,,,,,,,51,,,,,,,,,,,,,,483.4910000000382,,response,,,,13,A,,,,,,Space,keypress(Space),,,,silence,,,,-------- -------- --- --- ---- --- --- ------ -- --------<br>---- --------- --- ------- ------------ ---------- ---------<br>may ---------- ------- ---------- ------- -- -------- ----<br>---- --- ------ ----- ------ -- ---- --- ----- -- - -------<br>-------- -- --- --- -- ----- ----------- ----- -----------<br>---- --- ---------- --- ---- --- -- ----------,570354.3000000715,570353.5,569853.253,569861.3999999762,569870.009,570370.439,,17,may
screen,html.Screen,2_3_1_0_1_18,2022-02-01T15:15:31.755Z,,,,,,,,,,,,,,,,,51,,,,,,,,,,,,,,793.1610000238288,,response,,,,13,A,,,,,,Space,keypress(Space),,,,silence,,,,-------- -------- --- --- ---- --- --- ------ -- --------<br>---- --------- --- ------- ------------ ---------- ---------<br>--- profoundly ------- ---------- ------- -- -------- ----<br>---- --- ------ ----- ------ -- ---- --- ----- -- - -------<br>-------- -- --- --- -- ----- ----------- ----- -----------<br>---- --- ---------- --- ---- --- -- ----------,571164.3999999762,571163.6000000238,570353.841,570354.3999999762,570370.439,571170.02,,18,profoundly
screen,html.Screen,2_3_1_0_1_19,2022-02-01T15:15:32.260Z,,,,,,,,,,,,,,,,,51,,,,,,,,,,,,,,498.8799999761395,,response,,,,13,A,,,,,,Space,keypress(Space),,,,silence,,,,-------- -------- --- --- ---- --- --- ------ -- --------<br>---- --------- --- ------- ------------ ---------- ---------<br>--- ---------- improve ---------- ------- -- -------- ----<br>---- --- ------ ----- ------ -- ---- --- ----- -- - -------<br>-------- -- --- --- -- ----- ----------- ----- -----------<br>---- --- ---------- --- ---- --- -- ----------,571669.7000000477,571668.8999999762,571153.465,571164.5,571170.02,571686.831,,19,improve
screen,html.Screen,2_3_1_0_1_20,2022-02-01T15:15:32.683Z,,,,,,,,,,,,,,,,,51,,,,,,,,,,,,,,404.96900007152,,response,,,,13,A,,,,,,Space,keypress(Space),,,,silence,,,,-------- -------- --- --- ---- --- --- ------ -- --------<br>---- --------- --- ------- ------------ ---------- ---------<br>--- ---------- ------- companies' ------- -- -------- ----<br>---- --- ------ ----- ------ -- ---- --- ----- -- - -------<br>-------- -- --- --- -- ----- ----------- ----- -----------<br>---- --- ---------- --- ---- --- -- ----------,572092.7000000477,572091.8000000715,571669.979,571669.8000000715,571686.831,572103.394,,20,companies'
screen,html.Screen,2_3_1_0_1_21,2022-02-01T15:15:33.407Z,,,,,,,,,,,,,,,,,51,,,,,,,,,,,,,,712.6060000000289,,response,,,,13,A,,,,,,Space,keypress(Space),,,,silence,,,,-------- -------- --- --- ---- --- --- ------ -- --------<br>---- --------- --- ------- ------------ ---------- ---------<br>--- ---------- ------- ---------- ability -- -------- ----<br>---- --- ------ ----- ------ -- ---- --- ----- -- - -------<br>-------- -- --- --- -- ----- ----------- ----- -----------<br>---- --- ---------- --- ---- --- -- ----------,572816.6000000238,572816,572086.839,572092.8999999762,572103.394,572820.076,,21,ability
screen,html.Screen,2_3_1_0_1_22,2022-02-01T15:15:33.729Z,,,,,,,,,,,,,,,,,51,,,,,,,,,,,,,,318.22400007152464,,response,,,,13,A,,,,,,Space,keypress(Space),,,,silence,,,,-------- -------- --- --- ---- --- --- ------ -- --------<br>---- --------- --- ------- ------------ ---------- ---------<br>--- ---------- ------- ---------- ------- to -------- ----<br>---- --- ------ ----- ------ -- ---- --- ----- -- - -------<br>-------- -- --- --- -- ----- ----------- ----- -----------<br>---- --- ---------- --- ---- --- -- ----------,573139.1000000238,573138.3000000715,572803.849,572816.7000000477,572820.076,573153.729,,22,to
screen,html.Screen,2_3_1_0_1_23,2022-02-01T15:15:34.095Z,,,,,,,,,,,,,,,,,51,,,,,,,,,,,,,,350.4710000476334,,response,,,,13,A,,,,,,Space,keypress(Space),,,,silence,,,,-------- -------- --- --- ---- --- --- ------ -- --------<br>---- --------- --- ------- ------------ ---------- ---------<br>--- ---------- ------- ---------- ------- -- survive. ----<br>---- --- ------ ----- ------ -- ---- --- ----- -- - -------<br>-------- -- --- --- -- ----- ----------- ----- -----------<br>---- --- ---------- --- ---- --- -- ----------,573504.8000000715,573504.2000000477,573137.18,573139.3000000715,573153.729,573520.215,,23,survive.
screen,html.Screen,2_3_1_0_1_24,2022-02-01T15:15:34.633Z,,,,,,,,,,,,,,,,,51,,,,,,,,,,,,,,522.1849999761907,,response,,,,13,A,,,,,,Space,keypress(Space),,,,silence,,,,-------- -------- --- --- ---- --- --- ------ -- --------<br>---- --------- --- ------- ------------ ---------- ---------<br>--- ---------- ------- ---------- ------- -- -------- This<br>---- --- ------ ----- ------ -- ---- --- ----- -- - -------<br>-------- -- --- --- -- ----- ----------- ----- -----------<br>---- --- ---------- --- ---- --- -- ----------,574043.1000000238,574042.3999999762,573503.428,573505,573520.215,574053.868,,24,This
screen,html.Screen,2_3_1_0_1_25,2022-02-01T15:15:35.739Z,,,,,,,,,,,,,,,,,51,,,,,,,,,,,,,,1094.332000047667,,response,,,,13,A,,,,,,Space,keypress(Space),,,,silence,,,,-------- -------- --- --- ---- --- --- ------ -- --------<br>---- --------- --- ------- ------------ ---------- ---------<br>--- ---------- ------- ---------- ------- -- -------- ----<br>week --- ------ ----- ------ -- ---- --- ----- -- - -------<br>-------- -- --- --- -- ----- ----------- ----- -----------<br>---- --- ---------- --- ---- --- -- ----------,575149,575148.2000000477,574036.89,574043.3000000715,574053.868,575153.57,,25,week
screen,html.Screen,2_3_1_0_1_26,2022-02-01T15:15:36.250Z,,,,,,,,,,,,,,,,,51,,,,,,,,,,,,,,506.0300000238931,,response,,,,13,A,,,,,,Space,keypress(Space),,,,silence,,,,-------- -------- --- --- ---- --- --- ------ -- --------<br>---- --------- --- ------- ------------ ---------- ---------<br>--- ---------- ------- ---------- ------- -- -------- ----<br>---- the ------ ----- ------ -- ---- --- ----- -- - -------<br>-------- -- --- --- -- ----- ----------- ----- -----------<br>---- --- ---------- --- ---- --- -- ----------,575660.1000000238,575659.6000000238,575136.9,575149.2000000477,575153.57,575670.689,,26,the
screen,html.Screen,2_3_1_0_1_27,2022-02-01T15:15:36.644Z,,,,,,,,,,,,,,,,,51,,,,,,,,,,,,,,382.9110000238288,,response,,,,13,A,,,,,,Space,keypress(Space),,,,silence,,,,-------- -------- --- --- ---- --- --- ------ -- --------<br>---- --------- --- ------- ------------ ---------- ---------<br>--- ---------- ------- ---------- ------- -- -------- ----<br>---- --- Senate ----- ------ -- ---- --- ----- -- - -------<br>-------- -- --- --- -- ----- ----------- ----- -----------<br>---- --- ---------- --- ---- --- -- ----------,576054.3000000715,576053.6000000238,575653.613,575660.2000000477,575670.689,576070.257,,27,Senate
screen,html.Screen,2_3_1_0_1_28,2022-02-01T15:15:37.057Z,,,,,,,,,,,,,,,,,51,,,,,,,,,,,,,,395.9430000477005,,response,,,,13,A,,,,,,Space,keypress(Space),,,,silence,,,,-------- -------- --- --- ---- --- --- ------ -- --------<br>---- --------- --- ------- ------------ ---------- ---------<br>--- ---------- ------- ---------- ------- -- -------- ----<br>---- --- ------ seems ------ -- ---- --- ----- -- - -------<br>-------- -- --- --- -- ----- ----------- ----- -----------<br>---- --- ---------- --- ---- --- -- ----------,576466.8999999762,576466.2000000477,576053.551,576054.3999999762,576070.257,576470.277,,28,seems
screen,html.Screen,2_3_1_0_1_29,2022-02-01T15:15:37.474Z,,,,,,,,,,,,,,,,,51,,,,,,,,,,,,,,413.32300002384,,response,,,,13,A,,,,,,Space,keypress(Space),,,,silence,,,,-------- -------- --- --- ---- --- --- ------ -- --------<br>---- --------- --- ------- ------------ ---------- ---------<br>--- ---------- ------- ---------- ------- -- -------- ----<br>---- --- ------ ----- poised -- ---- --- ----- -- - -------<br>-------- -- --- --- -- ----- ----------- ----- -----------<br>---- --- ---------- --- ---- --- -- ----------,576884.2000000477,576883.6000000238,576453.571,576467.1000000238,576470.277,576886.94,,29,poised
screen,html.Screen,2_3_1_0_1_30,2022-02-01T15:15:38.545Z,,,,,,,,,,,,,,,,,51,,,,,,,,,,,,,,1066.6600000238977,,response,,,,13,A,,,,,,Space,keypress(Space),,,,silence,,,,-------- -------- --- --- ---- --- --- ------ -- --------<br>---- --------- --- ------- ------------ ---------- ---------<br>--- ---------- ------- ---------- ------- -- -------- ----<br>---- --- ------ ----- ------ to ---- --- ----- -- - -------<br>-------- -- --- --- -- ----- ----------- ----- -----------<br>---- --- ---------- --- ---- --- -- ----------,577954.3999999762,577953.6000000238,576870.537,576884.3999999762,576886.94,577970.401,,30,to
screen,html.Screen,2_3_1_0_1_31,2022-02-01T15:15:38.945Z,,,,,,,,,,,,,,,,,51,,,,,,,,,,,,,,383.6990000238875,,response,,,,13,A,,,,,,Space,keypress(Space),,,,silence,,,,-------- -------- --- --- ---- --- --- ------ -- --------<br>---- --------- --- ------- ------------ ---------- ---------<br>--- ---------- ------- ---------- ------- -- -------- ----<br>---- --- ------ ----- ------ -- join --- ----- -- - -------<br>-------- -- --- --- -- ----- ----------- ----- -----------<br>---- --- ---------- --- ---- --- -- ----------,578354.8000000715,578354.1000000238,577954.01,577954.6000000238,577970.401,578370.494,,31,join
screen,html.Screen,2_3_1_0_1_32,2022-02-01T15:15:39.340Z,,,,,,,,,,,,,,,,,51,,,,,,,,,,,,,,378.4059999762103,,response,,,,13,A,,,,,,Space,keypress(Space),,,,silence,,,,-------- -------- --- --- ---- --- --- ------ -- --------<br>---- --------- --- ------- ------------ ---------- ---------<br>--- ---------- ------- ---------- ------- -- -------- ----<br>---- --- ------ ----- ------ -- ---- the ----- -- - -------<br>-------- -- --- --- -- ----- ----------- ----- -----------<br>---- --- ---------- --- ---- --- -- ----------,578749.7000000477,578748.8999999762,578354.21,578355,578370.494,578753.724,,32,the
screen,html.Screen,2_3_1_0_1_33,2022-02-01T15:15:39.899Z,,,,,,,,,,,,,,,,,51,,,,,,,,,,,,,,554.4760000476381,,response,,,,13,A,,,,,,Space,keypress(Space),,,,silence,,,,-------- -------- --- --- ---- --- --- ------ -- --------<br>---- --------- --- ------- ------------ ---------- ---------<br>--- ---------- ------- ---------- ------- -- -------- ----<br>---- --- ------ ----- ------ -- ---- --- House -- - -------<br>-------- -- --- --- -- ----- ----------- ----- -----------<br>---- --- ---------- --- ---- --- -- ----------,579309,579308.2000000477,578737.569,578749.8000000715,578753.724,579320.783,,33,House
screen,html.Screen,2_3_1_0_1_34,2022-02-01T15:15:40.254Z,,,,,,,,,,,,,,,,,51,,,,,,,,,,,,,,342.6169999761041,,response,,,,13,A,,,,,,Space,keypress(Space),,,,silence,,,,-------- -------- --- --- ---- --- --- ------ -- --------<br>---- --------- --- ------- ------------ ---------- ---------<br>--- ---------- ------- ---------- ------- -- -------- ----<br>---- --- ------ ----- ------ -- ---- --- ----- in - -------<br>-------- -- --- --- -- ----- ----------- ----- -----------<br>---- --- ---------- --- ---- --- -- ----------,579664.2000000477,579663.3999999762,579303.973,579309.1000000238,579320.783,579671.002,,34,in
screen,html.Screen,2_3_1_0_1_35,2022-02-01T15:15:40.639Z,,,,,,,,,,,,,,,,,51,,,,,,,,,,,,,,376.9980000000214,,response,,,,13,A,,,,,,Space,keypress(Space),,,,silence,,,,-------- -------- --- --- ---- --- --- ------ -- --------<br>---- --------- --- ------- ------------ ---------- ---------<br>--- ---------- ------- ---------- ------- -- -------- ----<br>---- --- ------ ----- ------ -- ---- --- ----- -- a -------<br>-------- -- --- --- -- ----- ----------- ----- -----------<br>---- --- ---------- --- ---- --- -- ----------,580048.8999999762,580048,579654.289,579664.3999999762,579671.002,580053.714,,35,a
screen,html.Screen,2_3_1_0_1_36,2022-02-01T15:15:41.082Z,,,,,,,,,,,,,,,,,51,,,,,,,,,,,,,,437.6859999761218,,response,,,,13,A,,,,,,Space,keypress(Space),,,,silence,,,,-------- -------- --- --- ---- --- --- ------ -- --------<br>---- --------- --- ------- ------------ ---------- ---------<br>--- ---------- ------- ---------- ------- -- -------- ----<br>---- --- ------ ----- ------ -- ---- --- ----- -- - massive<br>-------- -- --- --- -- ----- ----------- ----- -----------<br>---- --- ---------- --- ---- --- -- ----------,580492.2000000477,580491.3999999762,580037.634,580049,580053.714,580503.774,,36,massive
screen,html.Screen,2_3_1_0_1_37,2022-02-01T15:15:42.528Z,,,,,,,,,,,,,,,,,51,,,,,,,,,,,,,,1433.426000047708,,response,,,,13,A,,,,,,Space,keypress(Space),,,,silence,,,,-------- -------- --- --- ---- --- --- ------ -- --------<br>---- --------- --- ------- ------------ ---------- ---------<br>--- ---------- ------- ---------- ------- -- -------- ----<br>---- --- ------ ----- ------ -- ---- --- ----- -- - -------<br>overhaul -- --- --- -- ----- ----------- ----- -----------<br>---- --- ---------- --- ---- --- -- ----------,581937.8999999762,581937.2000000477,580487.078,580492.3000000715,580503.774,581954.251,,37,overhaul
screen,html.Screen,2_3_1_0_1_38,2022-02-01T15:15:43.049Z,,,,,,,,,,,,,,,,,51,,,,,,,,,,,,,,504.14899997611064,,response,,,,13,A,,,,,,Space,keypress(Space),,,,silence,,,,-------- -------- --- --- ---- --- --- ------ -- --------<br>---- --------- --- ------- ------------ ---------- ---------<br>--- ---------- ------- ---------- ------- -- -------- ----<br>---- --- ------ ----- ------ -- ---- --- ----- -- - -------<br>-------- of --- --- -- ----- ----------- ----- -----------<br>---- --- ---------- --- ---- --- -- ----------,582459.1000000238,582458.3999999762,581936.993,581938.1000000238,581954.251,582470.561,,38,of
screen,html.Screen,2_3_1_0_1_39,2022-02-01T15:15:43.444Z,,,,,,,,,,,,,,,,,51,,,,,,,,,,,,,,382.5390000238549,,response,,,,13,A,,,,,,Space,keypress(Space),,,,silence,,,,-------- -------- --- --- ---- --- --- ------ -- --------<br>---- --------- --- ------- ------------ ---------- ---------<br>--- ---------- ------- ---------- ------- -- -------- ----<br>---- --- ------ ----- ------ -- ---- --- ----- -- - -------<br>-------- -- the --- -- ----- ----------- ----- -----------<br>---- --- ---------- --- ---- --- -- ----------,582854,582853.1000000238,582453.789,582459.3000000715,582470.561,582870.974,,39,the
