sender,sender_type,sender_id,timestamp,meta,,Blues,Classical,Country,Dance,Electronic,Folk,Gospel,Hip-Hop,Jazz,Latin,Musical/Film,New-age,Pop,Prolific_id,Provo_ID,R&B,Rap,Reggae,Religious,Rock,Soul,Swing,Traditional,age,artist_name,correct,correctResponse,distraction,duration,education,ended_on,familiarity,gender,headphone_check_performance,item,list,music_frequency,offensiveness,pleasantness,position_correct,preference,response,response_action,snippet_file,song_name,song_rating,sound,stimulus_1,stimulus_2,stimulus_3,text,time_commit,time_end,time_render,time_run,time_show,time_switch,url,word,word_ID
Prolific ID,html.Form,0,2022-02-15T12:20:13.148Z,"{""labjs_version"":""20.2.2"",""labjs_build"":{""flavor"":""production"",""commit"":""a25486e0c714a0ae2ce03ff94b7bb6896854dcfa""},""location"":""https://run.pavlovia.org/mvasilev/prolific2_music_d/"",""userAgent"":""Mozilla/5.0 (Windows NT 10.0; Win64; x64) AppleWebKit/537.36 (KHTML, like Gecko) Chrome/98.0.4758.80 Safari/537.36 Edg/98.0.1108.50"",""platform"":""Win32"",""language"":""en-GB"",""locale"":""en-GB"",""timeZone"":""Europe/London"",""timezoneOffset"":0,""screen_width"":1280,""screen_height"":720,""scroll_width"":1280,""scroll_height"":561,""window_innerWidth"":1280,""window_innerHeight"":609,""devicePixelRatio"":3}",,,,,,,,,,,,,,,5c18d3e3c14ec10001c37204,,,,,,,,,,,,,,,4533.553,,form submission,,,,,,,,,,,,,,,,,,,,,17412,17411.5,12844.577,12856.300000011921,12877.947,17444.591,{},,
Introduction,html.Screen,1_0,2022-02-15T12:20:19.374Z,,,,,,,,,,,,,,,,,,,,,,,,,,,,,,,6192.709000011921,,response,,,,,,,,,,,continue,click button,,,,,,,,,23639.100000023842,23637.30000001192,17411.177,17412.19999998808,17444.591,23677.831,,,
Volume calibration,html.Screen,1_1,2022-02-15T12:20:39.995Z,,,,,,,,,,,,,,,,,,,,,,,,,,,,,,,20579.86899998808,,response,,,,,,,,,,,continue,click button,,,,,,,,,44259.69999998808,44257.69999998808,23644.534,23639.19999998808,23677.831,44311.016,,,
Task instructions,html.Screen,1_2,2022-02-15T12:20:49.089Z,,,,,,,,,,,,,,,,,,,,,,,,,,,,,,,9042.183999988076,,response,,,,,,,,,,,continue,click button,,,,,,,,,53353.80000001192,53353.19999998808,44277.628,44259.69999998808,44311.016,53377.516,,,
Sounds,html.Screen,1_3_0_0,2022-02-15T12:20:53.352Z,,,,,,,,,,,,,,,,,,,,,,,,,,,,,,,4266.606999999996,,timeout,,,,,,,,,3,,,,,,,,O,I,S,,57616.69999998808,57610.819,53344.176,53354,53377.516,57644.123,,,
Judgement,html.Screen,1_3_0_1,2022-02-15T12:20:55.065Z,,,,,,,,,,,,,,,,,,,,,,,,,,,,true,3,,1685.0769999880795,,response,,,,,,,,,3,,3,click #choice-3,,,,,O,I,S,,59329.80000001192,59329.19999998808,57610.819,57617.10000002384,57644.123,59377.428,,,
Trial,flow.Sequence,1_3_0,2022-02-15T12:20:55.065Z,,,,,,,,,,,,,,,,,,,,,,,,,,,,,,,5951.683999988076,,completion,,,,,,,,,3,,,,,,,,O,I,S,,59330.10000002384,59329.19999998808,53344.176,53353.90000003576,53377.516,59377.428,,,
Sounds,html.Screen,1_3_1_0,2022-02-15T12:20:59.347Z,,,,,,,,,,,,,,,,,,,,,,,,,,,,,,,4266.608,,timeout,,,,,,,,,3,,,,,,,,I,O,S,,63612,63610.741,59344.093,59330.10000002384,59377.428,63644.036,,,
Judgement,html.Screen,1_3_1_1,2022-02-15T12:21:00.233Z,,,,,,,,,,,,,,,,,,,,,,,,,,,,true,3,,853.163999988079,,response,,,,,,,,,3,,3,click #choice-3,,,,,I,O,S,,64497.80000001192,64497.19999998808,63610.741,63612.30000001192,63644.036,64510.681,,,
Trial,flow.Sequence,1_3_1,2022-02-15T12:21:00.233Z,,,,,,,,,,,,,,,,,,,,,,,,,,,,,,,5119.771999988079,,completion,,,,,,,,,3,,,,,,,,I,O,S,,64497.90000003576,64497.19999998808,59344.093,59330.10000002384,59377.428,64510.681,,,
Sounds,html.Screen,1_3_2_0,2022-02-15T12:21:04.481Z,,,,,,,,,,,,,,,,,,,,,,,,,,,,,,,4266.623999999996,,timeout,,,,,,,,,1,,,,,,,,S,O,I,,68745.40000003576,68744.021,64477.397,64498.10000002384,64510.681,68777.305,,,
Judgement,html.Screen,1_3_2_1,2022-02-15T12:21:05.225Z,,,,,,,,,,,,,,,,,,,,,,,,,,,,false,1,,711.9950000119279,,response,,,,,,,,,1,,3,click #choice-3,,,,,S,O,I,,69489.69999998808,69489.30000001192,68744.021,68745.69999998808,68777.305,69510.62,,,
Trial,flow.Sequence,1_3_2,2022-02-15T12:21:05.225Z,,,,,,,,,,,,,,,,,,,,,,,,,,,,,,,4978.619000011924,,completion,,,,,,,,,1,,,,,,,,S,O,I,,69489.90000003576,69489.30000001192,64477.397,64498.10000002384,64510.681,69510.62,,,
Sounds,html.Screen,1_3_3_0,2022-02-15T12:21:09.447Z,,,,,,,,,,,,,,,,,,,,,,,,,,,,,,,4233.338000000003,,timeout,,,,,,,,,2,,,,,,,,O,S,I,,73711.80000001192,73710.611,69477.325,69490.10000002384,69510.62,73743.958,,,
Judgement,html.Screen,1_3_3_1,2022-02-15T12:21:10.569Z,,,,,,,,,,,,,,,,,,,,,,,,,,,,true,2,,1089.2419999880804,,response,,,,,,,,,2,,2,click #choice-2,,,,,O,S,I,,74833.80000001192,74833.19999998808,73710.611,73712.10000002384,73743.958,74877.211,,,
Trial,flow.Sequence,1_3_3,2022-02-15T12:21:10.569Z,,,,,,,,,,,,,,,,,,,,,,,,,,,,,,,5322.579999988084,,completion,,,,,,,,,2,,,,,,,,O,S,I,,74833.90000003576,74833.19999998808,69477.325,69490.10000002384,69510.62,74877.211,,,
Sounds,html.Screen,1_3_4_0,2022-02-15T12:21:14.847Z,,,,,,,,,,,,,,,,,,,,,,,,,,,,,,,4266.668000000005,,timeout,,,,,,,,,1,,,,,,,,S,I,O,,79111.80000001192,79110.537,74843.878,74834,74877.211,79143.879,,,
Judgement,html.Screen,1_3_4_1,2022-02-15T12:21:15.953Z,,,,,,,,,,,,,,,,,,,,,,,,,,,,true,1,,1073.3209999880783,,response,,,,,,,,,1,,1,click #choice-1,,,,,S,I,O,,80217.69999998808,80217.19999998808,79110.537,79112,79143.879,80277.166,,,
Trial,flow.Sequence,1_3_4,2022-02-15T12:21:15.953Z,,,,,,,,,,,,,,,,,,,,,,,,,,,,,,,5339.988999988083,,completion,,,,,,,,,1,,,,,,,,S,I,O,,80217.90000003576,80217.19999998808,74843.878,74834,74877.211,80277.166,,,
Sounds,html.Screen,1_3_5_0,2022-02-15T12:21:20.248Z,,,,,,,,,,,,,,,,,,,,,,,,,,,,,,,4266.638000000006,,timeout,,,,,,,,,2,,,,,,,,I,S,O,,84511.60000002384,84510.462,80243.827,80218,80277.166,84543.804,,,
Judgement,html.Screen,1_3_5_1,2022-02-15T12:21:21.090Z,,,,,,,,,,,,,,,,,,,,,,,,,,,,true,2,,809.4960000119172,,response,,,,,,,,,2,,2,click #choice-2,,,,,I,S,O,,85353.90000003576,85353.30000001192,84510.462,84511.80000001192,84543.804,85376.933,,,
Trial,flow.Sequence,1_3_5,2022-02-15T12:21:21.090Z,,,,,,,,,,,,,,,,,,,,,,,,,,,,,,,5076.1340000119235,,completion,,,,,,,,,2,,,,,,,,I,S,O,,85354.10000002384,85353.30000001192,80243.827,80217.90000003576,80277.166,85376.933,,,
Task,flow.Loop,1_3,2022-02-15T12:21:21.094Z,,,,,,,,,,,,,,,,,,,,,,,,,,,,,,,31975.784000011918,,completion,,,0.8333333333333334,,,,,,,,,,,,,,,,,,85357.40000003576,85353.30000001192,53344.176,53353.90000003576,53377.516,85376.933,,,
Trap,html.Screen,1_4,2022-02-15T12:21:21.098Z,,,,,,,,,,,,,,,,,,,,,,,,,,,,,,,NaN,,skipped,,,,,,,,,,,,,,,,,,,,,85361.80000001192,85353.30000001192,,85361.60000002384,,85376.933,,,
Thanks,html.Screen,1_5,2022-02-15T12:21:25.346Z,,,,,,,,,,,,,,,,,,,,,,,,,,,,,,,4232.2669999880745,,response,,,,,,,,,,,continue,click button,,,,,,,,,89609.80000001192,89609.19999998808,85343.67,85361.90000003576,85376.933,94043.55,,,
Headphone screening,flow.Sequence,1,2022-02-15T12:21:25.346Z,,,,,,,,,,,,,,,,,,,,,,,,,,,,,,,72164.60899998808,,completion,,,,,,,,,,,,,,,,,,,,,89609.90000003576,89609.19999998808,17411.177,17412.19999998808,17444.591,94043.55,,,
Instructions,html.Page,2_0,2022-02-15T12:21:40.306Z,,,,,,,,,,,,,,,,,,,,,,,,,,,,,,,10526.250000011918,,form submission,,,,,,,,,,,,,,,,,,,,,104570.10000002384,104569.80000001192,94010.174,94022.80000001192,94043.55,104610.026,,,
Holding screen,html.Screen,2_1_0_0,2022-02-15T12:21:50.320Z,,,,,,,,,,,,,,,,,,,,,,,,,,,,,,,9999.945999999996,,timeout,,,,,,,,,,,,,,,,,,,,,114584,114576.623,104576.725,104570.10000002384,104610.026,114609.972,,,
screen,html.Screen,2_1_0_1_0,2022-02-15T12:21:52.969Z,,,,,,,,,,,,,,,,,53,,,,,,,,,,,,,,2618.227999988085,,response,,,,99,,,,,,,Space,keypress(Space),,,,,,,,When -- ----- -- ------ - ------- --- ----------<br>------------- ------ ------ ---- ---- ------- ----- -- ----<br>-------- ------- -- ---------- --- - --- ----- ----- ----<br>---- --- --- ----- --- ---- ---- ------- ----- ---- -------<br>--- --- -- ----- -- --- ---- -- --- ---- -- ------ ------<br>--- ----- -- ----,117233.60000002384,117228.19999998808,114576.623,114584.10000002384,114609.972,117243.196,,0,When
screen,html.Screen,2_1_0_1_1,2022-02-15T12:21:53.571Z,,,,,,,,,,,,,,,,,53,,,,,,,,,,,,,,591.9040000238456,,response,,,,99,,,,,,,Space,keypress(Space),,,,,,,,---- it ----- -- ------ - ------- --- ----------<br>------------- ------ ------ ---- ---- ------- ----- -- ----<br>-------- ------- -- ---------- --- - --- ----- ----- ----<br>---- --- --- ----- --- ---- ---- ------- ----- ---- -------<br>--- --- -- ----- -- --- ---- -- --- ---- -- ------ ------<br>--- ----- -- ----,117836.10000002384,117835.10000002384,117209.93,117233.60000002384,117243.196,117843.259,,1,it
screen,html.Screen,2_1_0_1_2,2022-02-15T12:21:54.115Z,,,,,,,,,,,,,,,,,53,,,,,,,,,,,,,,535.5410000119155,,response,,,,99,,,,,,,Space,keypress(Space),,,,,,,,---- -- comes -- ------ - ------- --- ----------<br>------------- ------ ------ ---- ---- ------- ----- -- ----<br>-------- ------- -- ---------- --- - --- ----- ----- ----<br>---- --- --- ----- --- ---- ---- ------- ----- ---- -------<br>--- --- -- ----- -- --- ---- -- --- ---- -- ------ ------<br>--- ----- -- ----,118379.60000002384,118378.80000001192,117809.898,117836.30000001192,117843.259,118409.944,,2,comes
screen,html.Screen,2_1_0_1_3,2022-02-15T12:21:54.574Z,,,,,,,,,,,,,,,,,53,,,,,,,,,,,,,,424.55599999999686,,response,,,,99,,,,,,,Space,keypress(Space),,,,,,,,---- -- ----- to ------ - ------- --- ----------<br>------------- ------ ------ ---- ---- ------- ----- -- ----<br>-------- ------- -- ---------- --- - --- ----- ----- ----<br>---- --- --- ----- --- ---- ---- ------- ----- ---- -------<br>--- --- -- ----- -- --- ---- -- --- ---- -- ------ ------<br>--- ----- -- ----,118838.90000003576,118834.5,118376.561,118379.90000003576,118409.944,118843.25,,3,to
screen,html.Screen,2_1_0_1_4,2022-02-15T12:21:55.155Z,,,,,,,,,,,,,,,,,53,,,,,,,,,,,,,,575.4499999880791,,response,,,,99,,,,,,,Space,keypress(Space),,,,,,,,---- -- ----- -- having - ------- --- ----------<br>------------- ------ ------ ---- ---- ------- ----- -- ----<br>-------- ------- -- ---------- --- - --- ----- ----- ----<br>---- --- --- ----- --- ---- ---- ------- ----- ---- -------<br>--- --- -- ----- -- --- ---- -- --- ---- -- ------ ------<br>--- ----- -- ----,119419.69999998808,119418.69999998808,118809.886,118839.10000002384,118843.25,119443.266,,4,having
screen,html.Screen,2_1_0_1_5,2022-02-15T12:21:55.643Z,,,,,,,,,,,,,,,,,53,,,,,,,,,,,,,,463.73399999999674,,response,,,,99,,,,,,,Space,keypress(Space),,,,,,,,---- -- ----- -- ------ a ------- --- ----------<br>------------- ------ ------ ---- ---- ------- ----- -- ----<br>-------- ------- -- ---------- --- - --- ----- ----- ----<br>---- --- --- ----- --- ---- ---- ------- ----- ---- -------<br>--- --- -- ----- -- --- ---- -- --- ---- -- ------ ------<br>--- ----- -- ----,119908,119907,119409.876,119419.90000003576,119443.266,119952.985,,5,a
screen,html.Screen,2_1_0_1_6,2022-02-15T12:21:56.379Z,,,,,,,,,,,,,,,,,53,,,,,,,,,,,,,,689.6150000238413,,response,,,,99,,,,,,,Space,keypress(Space),,,,,,,,---- -- ----- -- ------ - lasting --- ----------<br>------------- ------ ------ ---- ---- ------- ----- -- ----<br>-------- ------- -- ---------- --- - --- ----- ----- ----<br>---- --- --- ----- --- ---- ---- ------- ----- ---- -------<br>--- --- -- ----- -- --- ---- -- --- ---- -- ------ ------<br>--- ----- -- ----,120643.60000002384,120642.60000002384,119876.538,119908.30000001192,119952.985,120676.579,,6,lasting
screen,html.Screen,2_1_0_1_7,2022-02-15T12:21:56.875Z,,,,,,,,,,,,,,,,,53,,,,,,,,,,,,,,462.02100002384395,,response,,,,99,,,,,,,Space,keypress(Space),,,,,,,,---- -- ----- -- ------ - ------- and ----------<br>------------- ------ ------ ---- ---- ------- ----- -- ----<br>-------- ------- -- ---------- --- - --- ----- ----- ----<br>---- --- --- ----- --- ---- ---- ------- ----- ---- -------<br>--- --- -- ----- -- --- ---- -- --- ---- -- ------ ------<br>--- ----- -- ----,121139.60000002384,121138.60000002384,120643.182,120643.80000001192,120676.579,121143.213,,7,and
screen,html.Screen,2_1_0_1_8,2022-02-15T12:21:57.723Z,,,,,,,,,,,,,,,,,53,,,,,,,,,,,,,,843.6870000357594,,response,,,,99,,,,,,,Space,keypress(Space),,,,,,,,---- -- ----- -- ------ - ------- --- fulfilling<br>------------- ------ ------ ---- ---- ------- ----- -- ----<br>-------- ------- -- ---------- --- - --- ----- ----- ----<br>---- --- --- ----- --- ---- ---- ------- ----- ---- -------<br>--- --- -- ----- -- --- ---- -- --- ---- -- ------ ------<br>--- ----- -- ----,121987.80000001192,121986.90000003576,121109.872,121139.90000003576,121143.213,122009.901,,8,fulfilling
screen,html.Screen,2_1_0_1_9,2022-02-15T12:21:59.539Z,,,,,,,,,,,,,,,,,53,,,,,,,,,,,,,,1792.6990000238438,,response,,,,99,,,,,,,Space,keypress(Space),,,,,,,,"---- -- ----- -- ------ - ------- --- ----------<br>relationship, ------ ------ ---- ---- ------- ----- -- ----<br>-------- ------- -- ---------- --- - --- ----- ----- ----<br>---- --- --- ----- --- ---- ---- ------- ----- ---- -------<br>--- --- -- ----- -- --- ---- -- --- ---- -- ------ ------<br>--- ----- -- ----",123803.5,123802.60000002384,121976.488,121988,122009.901,123809.85,,9,"relationship,"
screen,html.Screen,2_1_0_1_10,2022-02-15T12:22:00.179Z,,,,,,,,,,,,,,,,,53,,,,,,,,,,,,,,633.250000023836,,response,,,,99,,,,,,,Space,keypress(Space),,,,,,,,---- -- ----- -- ------ - ------- --- ----------<br>------------- common ------ ---- ---- ------- ----- -- ----<br>-------- ------- -- ---------- --- - --- ----- ----- ----<br>---- --- --- ----- --- ---- ---- ------- ----- ---- -------<br>--- --- -- ----- -- --- ---- -- --- ---- -- ------ ------<br>--- ----- -- ----,124444.10000002384,124443.10000002384,123776.486,123803.80000001192,123809.85,124476.545,,10,common
screen,html.Screen,2_1_0_1_11,2022-02-15T12:22:02.419Z,,,,,,,,,,,,,,,,,53,,,,,,,,,,,,,,2206.5550000238436,,response,,,,99,,,,,,,Space,keypress(Space),,,,,,,,---- -- ----- -- ------ - ------- --- ----------<br>------------- ------ wisdom ---- ---- ------- ----- -- ----<br>-------- ------- -- ---------- --- - --- ----- ----- ----<br>---- --- --- ----- --- ---- ---- ------- ----- ---- -------<br>--- --- -- ----- -- --- ---- -- --- ---- -- ------ ------<br>--- ----- -- ----,126684,126683.10000002384,124443.142,124444.30000001192,124476.545,126709.77,,11,wisdom
screen,html.Screen,2_1_0_1_12,2022-02-15T12:22:03.028Z,,,,,,,,,,,,,,,,,53,,,,,,,,,,,,,,582.3300000238378,,response,,,,99,,,,,,,Space,keypress(Space),,,,,,,,---- -- ----- -- ------ - ------- --- ----------<br>------------- ------ ------ says ---- ------- ----- -- ----<br>-------- ------- -- ---------- --- - --- ----- ----- ----<br>---- --- --- ----- --- ---- ---- ------- ----- ---- -------<br>--- --- -- ----- -- --- ---- -- --- ---- -- ------ ------<br>--- ----- -- ----,127293.10000002384,127292.10000002384,126676.484,126684.30000001192,126709.77,127309.82,,12,says
screen,html.Screen,2_1_0_1_13,2022-02-15T12:22:03.483Z,,,,,,,,,,,,,,,,,53,,,,,,,,,,,,,,436.8799999880721,,response,,,,99,,,,,,,Space,keypress(Space),,,,,,,,---- -- ----- -- ------ - ------- --- ----------<br>------------- ------ ------ ---- that ------- ----- -- ----<br>-------- ------- -- ---------- --- - --- ----- ----- ----<br>---- --- --- ----- --- ---- ---- ------- ----- ---- -------<br>--- --- -- ----- -- --- ---- -- --- ---- -- ------ ------<br>--- ----- -- ----,127747.5,127746.69999998808,127276.438,127293.30000001192,127309.82,127776.478,,13,that
screen,html.Screen,2_1_0_1_14,2022-02-15T12:22:04.011Z,,,,,,,,,,,,,,,,,53,,,,,,,,,,,,,,498.32200001191813,,response,,,,99,,,,,,,Space,keypress(Space),,,,,,,,---- -- ----- -- ------ - ------- --- ----------<br>------------- ------ ------ ---- ---- feeling ----- -- ----<br>-------- ------- -- ---------- --- - --- ----- ----- ----<br>---- --- --- ----- --- ---- ---- ------- ----- ---- -------<br>--- --- -- ----- -- --- ---- -- --- ---- -- ------ ------<br>--- ----- -- ----,128275.69999998808,128274.80000001192,127743.092,127747.69999998808,127776.478,128309.811,,14,feeling
screen,html.Screen,2_1_0_1_15,2022-02-15T12:22:04.611Z,,,,,,,,,,,,,,,,,53,,,,,,,,,,,,,,564.8889999880776,,response,,,,99,,,,,,,Space,keypress(Space),,,,,,,,---- -- ----- -- ------ - ------- --- ----------<br>------------- ------ ------ ---- ---- ------- close -- ----<br>-------- ------- -- ---------- --- - --- ----- ----- ----<br>---- --- --- ----- --- ---- ---- ------- ----- ---- -------<br>--- --- -- ----- -- --- ---- -- --- ---- -- ------ ------<br>--- ----- -- ----,128875.60000002384,128874.69999998808,128276.421,128275.90000003576,128309.811,128909.804,,15,close
screen,html.Screen,2_1_0_1_16,2022-02-15T12:22:05.043Z,,,,,,,,,,,,,,,,,53,,,,,,,,,,,,,,396.89599998807535,,response,,,,99,,,,,,,Space,keypress(Space),,,,,,,,---- -- ----- -- ------ - ------- --- ----------<br>------------- ------ ------ ---- ---- ------- ----- to ----<br>-------- ------- -- ---------- --- - --- ----- ----- ----<br>---- --- --- ----- --- ---- ---- ------- ----- ---- -------<br>--- --- -- ----- -- --- ---- -- --- ---- -- ------ ------<br>--- ----- -- ----,129307.60000002384,129306.69999998808,128876.414,128875.80000001192,128909.804,129349.59,,16,to
screen,html.Screen,2_1_0_1_17,2022-02-15T12:22:05.699Z,,,,,,,,,,,,,,,,,53,,,,,,,,,,,,,,613.1099999880826,,response,,,,99,,,,,,,Space,keypress(Space),,,,,,,,---- -- ----- -- ------ - ------- --- ----------<br>------------- ------ ------ ---- ---- ------- ----- -- your<br>-------- ------- -- ---------- --- - --- ----- ----- ----<br>---- --- --- ----- --- ---- ---- ------- ----- ---- -------<br>--- --- -- ----- -- --- ---- -- --- ---- -- ------ ------<br>--- ----- -- ----,129963.60000002384,129962.69999998808,129276.412,129307.80000001192,129349.59,129976.444,,17,your
screen,html.Screen,2_1_0_1_18,2022-02-15T12:22:06.380Z,,,,,,,,,,,,,,,,,53,,,,,,,,,,,,,,666.7559999880759,,response,,,,99,,,,,,,Space,keypress(Space),,,,,,,,---- -- ----- -- ------ - ------- --- ----------<br>------------- ------ ------ ---- ---- ------- ----- -- ----<br>romantic ------- -- ---------- --- - --- ----- ----- ----<br>---- --- --- ----- --- ---- ---- ------- ----- ---- -------<br>--- --- -- ----- -- --- ---- -- --- ---- -- ------ ------<br>--- ----- -- ----,130644.10000002384,130643.19999998808,129943.054,129963.90000003576,129976.444,130676.443,,18,romantic
screen,html.Screen,2_1_0_1_19,2022-02-15T12:22:06.891Z,,,,,,,,,,,,,,,,,53,,,,,,,,,,,,,,478.15700002384256,,response,,,,99,,,,,,,Space,keypress(Space),,,,,,,,---- -- ----- -- ------ - ------- --- ----------<br>------------- ------ ------ ---- ---- ------- ----- -- ----<br>-------- partner -- ---------- --- - --- ----- ----- ----<br>---- --- --- ----- --- ---- ---- ------- ----- ---- -------<br>--- --- -- ----- -- --- ---- -- --- ---- -- ------ ------<br>--- ----- -- ----,131155.5,131154.60000002384,130643.059,130644.40000003576,130676.443,131176.448,,19,partner
screen,html.Screen,2_1_0_1_20,2022-02-15T12:22:07.939Z,,,,,,,,,,,,,,,,,53,,,,,,,,,,,,,,1026.551999999996,,response,,,,99,,,,,,,Space,keypress(Space),,,,,,,,---- -- ----- -- ------ - ------- --- ----------<br>------------- ------ ------ ---- ---- ------- ----- -- ----<br>-------- ------- is ---------- --- - --- ----- ----- ----<br>---- --- --- ----- --- ---- ---- ------- ----- ---- -------<br>--- --- -- ----- -- --- ---- -- --- ---- -- ------ ------<br>--- ----- -- ----,132203.90000003576,132203,131143.061,131155.69999998808,131176.448,132209.718,,20,is
screen,html.Screen,2_1_0_1_21,2022-02-15T12:22:09.507Z,,,,,,,,,,,,,,,,,53,,,,,,,,,,,,,,1560.9819999880856,,response,,,,99,,,,,,,Space,keypress(Space),,,,,,,,---- -- ----- -- ------ - ------- --- ----------<br>------------- ------ ------ ---- ---- ------- ----- -- ----<br>-------- ------- -- paramount. --- - --- ----- ----- ----<br>---- --- --- ----- --- ---- ---- ------- ----- ---- -------<br>--- --- -- ----- -- --- ---- -- --- ---- -- ------ ------<br>--- ----- -- ----,133772.10000002384,133770.69999998808,132176.381,132204.40000003576,132209.718,133776.264,,21,paramount.
screen,html.Screen,2_1_0_1_22,2022-02-15T12:22:10.019Z,,,,,,,,,,,,,,,,,53,,,,,,,,,,,,,,506.4359999880835,,response,,,,99,,,,,,,Space,keypress(Space),,,,,,,,---- -- ----- -- ------ - ------- --- ----------<br>------------- ------ ------ ---- ---- ------- ----- -- ----<br>-------- ------- -- ---------- But - --- ----- ----- ----<br>---- --- --- ----- --- ---- ---- ------- ----- ---- -------<br>--- --- -- ----- -- --- ---- -- --- ---- -- ------ ------<br>--- ----- -- ----,134283.60000002384,134282.69999998808,133743.001,133772.30000001192,133776.264,134309.736,,22,But
screen,html.Screen,2_1_0_1_23,2022-02-15T12:22:10.563Z,,,,,,,,,,,,,,,,,53,,,,,,,,,,,,,,516.9639999880746,,response,,,,99,,,,,,,Space,keypress(Space),,,,,,,,---- -- ----- -- ------ - ------- --- ----------<br>------------- ------ ------ ---- ---- ------- ----- -- ----<br>-------- ------- -- ---------- --- a --- ----- ----- ----<br>---- --- --- ----- --- ---- ---- ------- ----- ---- -------<br>--- --- -- ----- -- --- ---- -- --- ---- -- ------ ------<br>--- ----- -- ----,134827.5,134826.69999998808,134276.349,134283.80000001192,134309.736,134843.061,,23,a
screen,html.Screen,2_1_0_1_24,2022-02-15T12:22:11.059Z,,,,,,,,,,,,,,,,,53,,,,,,,,,,,,,,479.43900000001304,,response,,,,99,,,,,,,Space,keypress(Space),,,,,,,,---- -- ----- -- ------ - ------- --- ----------<br>------------- ------ ------ ---- ---- ------- ----- -- ----<br>-------- ------- -- ---------- --- - new ----- ----- ----<br>---- --- --- ----- --- ---- ---- ------- ----- ---- -------<br>--- --- -- ----- -- --- ---- -- --- ---- -- ------ ------<br>--- ----- -- ----,135323.40000003576,135322.5,134809.641,134827.69999998808,134843.061,135376.261,,24,new
screen,html.Screen,2_1_0_1_25,2022-02-15T12:22:11.538Z,,,,,,,,,,,,,,,,,53,,,,,,,,,,,,,,425.5390000119223,,response,,,,99,,,,,,,Space,keypress(Space),,,,,,,,---- -- ----- -- ------ - ------- --- ----------<br>------------- ------ ------ ---- ---- ------- ----- -- ----<br>-------- ------- -- ---------- --- - --- study ----- ----<br>---- --- --- ----- --- ---- ---- ------- ----- ---- -------<br>--- --- -- ----- -- --- ---- -- --- ---- -- ------ ------<br>--- ----- -- ----,135802.19999998808,135801.80000001192,135343.007,135323.60000002384,135376.261,135809.649,,25,study
screen,html.Screen,2_1_0_1_26,2022-02-15T12:22:12.099Z,,,,,,,,,,,,,,,,,53,,,,,,,,,,,,,,553.0509999880742,,response,,,,99,,,,,,,Space,keypress(Space),,,,,,,,---- -- ----- -- ------ - ------- --- ----------<br>------------- ------ ------ ---- ---- ------- ----- -- ----<br>-------- ------- -- ---------- --- - --- ----- finds ----<br>---- --- --- ----- --- ---- ---- ------- ----- ---- -------<br>--- --- -- ----- -- --- ---- -- --- ---- -- ------ ------<br>--- ----- -- ----,136363.80000001192,136362.69999998808,135776.394,135802.40000003576,135809.649,136376.377,,26,finds
screen,html.Screen,2_1_0_1_27,2022-02-15T12:22:12.659Z,,,,,,,,,,,,,,,,,53,,,,,,,,,,,,,,546.3229999880714,,response,,,,99,,,,,,,Space,keypress(Space),,,,,,,,---- -- ----- -- ------ - ------- --- ----------<br>------------- ------ ------ ---- ---- ------- ----- -- ----<br>-------- ------- -- ---------- --- - --- ----- ----- that<br>---- --- --- ----- --- ---- ---- ------- ----- ---- -------<br>--- --- -- ----- -- --- ---- -- --- ---- -- ------ ------<br>--- ----- -- ----,136923.60000002384,136922.69999998808,136343.078,136364,136376.377,136943.137,,27,that
screen,html.Screen,2_1_0_1_28,2022-02-15T12:22:13.268Z,,,,,,,,,,,,,,,,,53,,,,,,,,,,,,,,588.663000011933,,response,,,,99,,,,,,,Space,keypress(Space),,,,,,,,---- -- ----- -- ------ - ------- --- ----------<br>------------- ------ ------ ---- ---- ------- ----- -- ----<br>-------- ------- -- ---------- --- - --- ----- ----- ----<br>it's --- --- ----- --- ---- ---- ------- ----- ---- -------<br>--- --- -- ----- -- --- ---- -- --- ---- -- ------ ------<br>--- ----- -- ----,137532.80000001192,137531.80000001192,136909.78,136923.90000003576,136943.137,137543.169,,28,it's
screen,html.Screen,2_1_0_1_29,2022-02-15T12:22:13.779Z,,,,,,,,,,,,,,,,,53,,,,,,,,,,,,,,499.93100002384745,,response,,,,99,,,,,,,Space,keypress(Space),,,,,,,,---- -- ----- -- ------ - ------- --- ----------<br>------------- ------ ------ ---- ---- ------- ----- -- ----<br>-------- ------- -- ---------- --- - --- ----- ----- ----<br>---- not --- ----- --- ---- ---- ------- ----- ---- -------<br>--- --- -- ----- -- --- ---- -- --- ---- -- ------ ------<br>--- ----- -- ----,138044.10000002384,138043.10000002384,137509.744,137533.10000002384,137543.169,138076.444,,29,not
screen,html.Screen,2_1_0_1_30,2022-02-15T12:22:14.251Z,,,,,,,,,,,,,,,,,53,,,,,,,,,,,,,,437.9560000357742,,response,,,,99,,,,,,,Space,keypress(Space),,,,,,,,---- -- ----- -- ------ - ------- --- ----------<br>------------- ------ ------ ---- ---- ------- ----- -- ----<br>-------- ------- -- ---------- --- - --- ----- ----- ----<br>---- --- how ----- --- ---- ---- ------- ----- ---- -------<br>--- --- -- ----- -- --- ---- -- --- ---- -- ------ ------<br>--- ----- -- ----,138515.19999998808,138514.40000003576,138043.097,138044.40000003576,138076.444,138543.109,,30,how
screen,html.Screen,2_1_0_1_31,2022-02-15T12:22:14.771Z,,,,,,,,,,,,,,,,,53,,,,,,,,,,,,,,491.4910000238451,,response,,,,99,,,,,,,Space,keypress(Space),,,,,,,,---- -- ----- -- ------ - ------- --- ----------<br>------------- ------ ------ ---- ---- ------- ----- -- ----<br>-------- ------- -- ---------- --- - --- ----- ----- ----<br>---- --- --- close --- ---- ---- ------- ----- ---- -------<br>--- --- -- ----- -- --- ---- -- --- ---- -- ------ ------<br>--- ----- -- ----,139035.40000003576,139034.60000002384,138509.724,138515.5,138543.109,139042.954,,31,close
screen,html.Screen,2_1_0_1_32,2022-02-15T12:22:15.235Z,,,,,,,,,,,,,,,,,53,,,,,,,,,,,,,,455.74599998808117,,response,,,,99,,,,,,,Space,keypress(Space),,,,,,,,---- -- ----- -- ------ - ------- --- ----------<br>------------- ------ ------ ---- ---- ------- ----- -- ----<br>-------- ------- -- ---------- --- - --- ----- ----- ----<br>---- --- --- ----- you ---- ---- ------- ----- ---- -------<br>--- --- -- ----- -- --- ---- -- --- ---- -- ------ ------<br>--- ----- -- ----,139499.5,139498.69999998808,139009.754,139035.69999998808,139042.954,139509.633,,32,you
screen,html.Screen,2_1_0_1_33,2022-02-15T12:22:15.651Z,,,,,,,,,,,,,,,,,53,,,,,,,,,,,,,,404.86699999999837,,response,,,,99,,,,,,,Space,keypress(Space),,,,,,,,---- -- ----- -- ------ - ------- --- ----------<br>------------- ------ ------ ---- ---- ------- ----- -- ----<br>-------- ------- -- ---------- --- - --- ----- ----- ----<br>---- --- --- ----- --- feel ---- ------- ----- ---- -------<br>--- --- -- ----- -- --- ---- -- --- ---- -- ------ ------<br>--- ----- -- ----,139915.40000003576,139914.5,139476.38,139499.80000001192,139509.633,139943.022,,33,feel
screen,html.Screen,2_1_0_1_34,2022-02-15T12:22:16.115Z,,,,,,,,,,,,,,,,,53,,,,,,,,,,,,,,436.17799998808187,,response,,,,99,,,,,,,Space,keypress(Space),,,,,,,,---- -- ----- -- ------ - ------- --- ----------<br>------------- ------ ------ ---- ---- ------- ----- -- ----<br>-------- ------- -- ---------- --- - --- ----- ----- ----<br>---- --- --- ----- --- ---- that ------- ----- ---- -------<br>--- --- -- ----- -- --- ---- -- --- ---- -- ------ ------<br>--- ----- -- ----,140380.10000002384,140379.19999998808,139909.706,139915.60000002384,139943.022,140409.794,,34,that
screen,html.Screen,2_1_0_1_35,2022-02-15T12:22:16.755Z,,,,,,,,,,,,,,,,,53,,,,,,,,,,,,,,608.6060000357684,,response,,,,99,,,,,,,Space,keypress(Space),,,,,,,,---- -- ----- -- ------ - ------- --- ----------<br>------------- ------ ------ ---- ---- ------- ----- -- ----<br>-------- ------- -- ---------- --- - --- ----- ----- ----<br>---- --- --- ----- --- ---- ---- matters ----- ---- -------<br>--- --- -- ----- -- --- ---- -- --- ---- -- ------ ------<br>--- ----- -- ----,141019.40000003576,141018.40000003576,140376.375,140380.40000003576,140409.794,141043.008,,35,matters
screen,html.Screen,2_1_0_1_36,2022-02-15T12:22:17.483Z,,,,,,,,,,,,,,,,,53,,,,,,,,,,,,,,703.6919999880774,,response,,,,99,,,,,,,Space,keypress(Space),,,,,,,,"---- -- ----- -- ------ - ------- --- ----------<br>------------- ------ ------ ---- ---- ------- ----- -- ----<br>-------- ------- -- ---------- --- - --- ----- ----- ----<br>---- --- --- ----- --- ---- ---- ------- most, ---- -------<br>--- --- -- ----- -- --- ---- -- --- ---- -- ------ ------<br>--- ----- -- ----",141747.80000001192,141746.69999998808,141009.696,141019.80000001192,141043.008,141776.405,,36,"most,"
screen,html.Screen,2_1_0_1_37,2022-02-15T12:22:18.043Z,,,,,,,,,,,,,,,,,53,,,,,,,,,,,,,,530.2949999880802,,response,,,,99,,,,,,,Space,keypress(Space),,,,,,,,---- -- ----- -- ------ - ------- --- ----------<br>------------- ------ ------ ---- ---- ------- ----- -- ----<br>-------- ------- -- ---------- --- - --- ----- ----- ----<br>---- --- --- ----- --- ---- ---- ------- ----- it's -------<br>--- --- -- ----- -- --- ---- -- --- ---- -- ------ ------<br>--- ----- -- ----,142307.60000002384,142306.69999998808,141743.037,141747.90000003576,141776.405,142346.123,,37,it's
screen,html.Screen,2_1_0_1_38,2022-02-15T12:22:18.467Z,,,,,,,,,,,,,,,,,53,,,,,,,,,,,,,,384.47700002384954,,response,,,,99,,,,,,,Space,keypress(Space),,,,,,,,---- -- ----- -- ------ - ------- --- ----------<br>------------- ------ ------ ---- ---- ------- ----- -- ----<br>-------- ------- -- ---------- --- - --- ----- ----- ----<br>---- --- --- ----- --- ---- ---- ------- ----- ---- whether<br>--- --- -- ----- -- --- ---- -- --- ---- -- ------ ------<br>--- ----- -- ----,142731.5,142730.60000002384,142276.342,142307.80000001192,142346.123,142742.945,,38,whether
screen,html.Screen,2_1_0_1_39,2022-02-15T12:22:18.995Z,,,,,,,,,,,,,,,,,53,,,,,,,,,,,,,,515.6550000238349,,response,,,,99,,,,,,,Space,keypress(Space),,,,,,,,---- -- ----- -- ------ - ------- --- ----------<br>------------- ------ ------ ---- ---- ------- ----- -- ----<br>-------- ------- -- ---------- --- - --- ----- ----- ----<br>---- --- --- ----- --- ---- ---- ------- ----- ---- -------<br>you --- -- ----- -- --- ---- -- --- ---- -- ------ ------<br>--- ----- -- ----,143259.5,143258.60000002384,142709.681,142731.80000001192,142742.945,143276.375,,39,you
screen,html.Screen,2_1_0_1_40,2022-02-15T12:22:19.379Z,,,,,,,,,,,,,,,,,53,,,,,,,,,,,,,,366.22500002384186,,response,,,,99,,,,,,,Space,keypress(Space),,,,,,,,---- -- ----- -- ------ - ------- --- ----------<br>------------- ------ ------ ---- ---- ------- ----- -- ----<br>-------- ------- -- ---------- --- - --- ----- ----- ----<br>---- --- --- ----- --- ---- ---- ------- ----- ---- -------<br>--- are -- ----- -- --- ---- -- --- ---- -- ------ ------<br>--- ----- -- ----,143643.40000003576,143642.60000002384,143242.993,143259.69999998808,143276.375,143676.375,,40,are
screen,html.Screen,2_1_0_1_41,2022-02-15T12:22:19.731Z,,,,,,,,,,,,,,,,,53,,,,,,,,,,,,,,318.625,,response,,,,99,,,,,,,Space,keypress(Space),,,,,,,,---- -- ----- -- ------ - ------- --- ----------<br>------------- ------ ------ ---- ---- ------- ----- -- ----<br>-------- ------- -- ---------- --- - --- ----- ----- ----<br>---- --- --- ----- --- ---- ---- ------- ----- ---- -------<br>--- --- as ----- -- --- ---- -- --- ---- -- ------ ------<br>--- ----- -- ----,143995.90000003576,143995,143643.035,143643.60000002384,143676.375,144009.6,,41,as
screen,html.Screen,2_1_0_1_42,2022-02-15T12:22:20.083Z,,,,,,,,,,,,,,,,,53,,,,,,,,,,,,,,336.80000003575697,,response,,,,99,,,,,,,Space,keypress(Space),,,,,,,,---- -- ----- -- ------ - ------- --- ----------<br>------------- ------ ------ ---- ---- ------- ----- -- ----<br>-------- ------- -- ---------- --- - --- ----- ----- ----<br>---- --- --- ----- --- ---- ---- ------- ----- ---- -------<br>--- --- -- close -- --- ---- -- --- ---- -- ------ ------<br>--- ----- -- ----,144347.19999998808,144346.40000003576,143976.345,143996,144009.6,144376.291,,42,close
screen,html.Screen,2_1_0_1_43,2022-02-15T12:22:20.852Z,,,,,,,,,,,,,,,,,53,,,,,,,,,,,,,,739.6090000357653,,response,,,,99,,,,,,,Space,keypress(Space),,,,,,,,---- -- ----- -- ------ - ------- --- ----------<br>------------- ------ ------ ---- ---- ------- ----- -- ----<br>-------- ------- -- ---------- --- - --- ----- ----- ----<br>---- --- --- ----- --- ---- ---- ------- ----- ---- -------<br>--- --- -- ----- as --- ---- -- --- ---- -- ------ ------<br>--- ----- -- ----,145116.80000001192,145115.90000003576,144342.985,144347.5,144376.291,145143.018,,43,as
screen,html.Screen,2_1_0_1_44,2022-02-15T12:22:21.395Z,,,,,,,,,,,,,,,,,53,,,,,,,,,,,,,,516.1819999880681,,response,,,,99,,,,,,,Space,keypress(Space),,,,,,,,---- -- ----- -- ------ - ------- --- ----------<br>------------- ------ ------ ---- ---- ------- ----- -- ----<br>-------- ------- -- ---------- --- - --- ----- ----- ----<br>---- --- --- ----- --- ---- ---- ------- ----- ---- -------<br>--- --- -- ----- -- you ---- -- --- ---- -- ------ ------<br>--- ----- -- ----,145660.10000002384,145659.19999998808,145109.637,145117,145143.018,145676.339,,44,you
screen,html.Screen,2_1_0_1_45,2022-02-15T12:22:21.795Z,,,,,,,,,,,,,,,,,53,,,,,,,,,,,,,,382.6609999999928,,response,,,,99,,,,,,,Space,keypress(Space),,,,,,,,---- -- ----- -- ------ - ------- --- ----------<br>------------- ------ ------ ---- ---- ------- ----- -- ----<br>-------- ------- -- ---------- --- - --- ----- ----- ----<br>---- --- --- ----- --- ---- ---- ------- ----- ---- -------<br>--- --- -- ----- -- --- want -- --- ---- -- ------ ------<br>--- ----- -- ----,146059.90000003576,146059,145642.958,145660.40000003576,145676.339,146076.263,,45,want
screen,html.Screen,2_1_0_1_46,2022-02-15T12:22:22.299Z,,,,,,,,,,,,,,,,,53,,,,,,,,,,,,,,486.9369999880728,,response,,,,99,,,,,,,Space,keypress(Space),,,,,,,,---- -- ----- -- ------ - ------- --- ----------<br>------------- ------ ------ ---- ---- ------- ----- -- ----<br>-------- ------- -- ---------- --- - --- ----- ----- ----<br>---- --- --- ----- --- ---- ---- ------- ----- ---- -------<br>--- --- -- ----- -- --- ---- to --- ---- -- ------ ------<br>--- ----- -- ----,146564,146563.19999998808,146042.962,146060.19999998808,146076.263,146576.218,,46,to
screen,html.Screen,2_1_0_1_47,2022-02-15T12:22:22.995Z,,,,,,,,,,,,,,,,,53,,,,,,,,,,,,,,682.7820000000065,,response,,,,99,,,,,,,Space,keypress(Space),,,,,,,,"---- -- ----- -- ------ - ------- --- ----------<br>------------- ------ ------ ---- ---- ------- ----- -- ----<br>-------- ------- -- ---------- --- - --- ----- ----- ----<br>---- --- --- ----- --- ---- ---- ------- ----- ---- -------<br>--- --- -- ----- -- --- ---- -- be, ---- -- ------ ------<br>--- ----- -- ----",147260.10000002384,147259,146542.959,146564.19999998808,146576.218,147276.222,,47,"be,"
screen,html.Screen,2_1_0_1_48,2022-02-15T12:22:23.572Z,,,,,,,,,,,,,,,,,53,,,,,,,,,,,,,,559.4779999880702,,response,,,,99,,,,,,,Space,keypress(Space),,,,,,,,---- -- ----- -- ------ - ------- --- ----------<br>------------- ------ ------ ---- ---- ------- ----- -- ----<br>-------- ------- -- ---------- --- - --- ----- ----- ----<br>---- --- --- ----- --- ---- ---- ------- ----- ---- -------<br>--- --- -- ----- -- --- ---- -- --- even -- ------ ------<br>--- ----- -- ----,147836.60000002384,147835.69999998808,147242.946,147260.30000001192,147276.222,147842.959,,48,even
screen,html.Screen,2_1_0_1_49,2022-02-15T12:22:24.091Z,,,,,,,,,,,,,,,,,53,,,,,,,,,,,,,,511.6410000238393,,response,,,,99,,,,,,,Space,keypress(Space),,,,,,,,---- -- ----- -- ------ - ------- --- ----------<br>------------- ------ ------ ---- ---- ------- ----- -- ----<br>-------- ------- -- ---------- --- - --- ----- ----- ----<br>---- --- --- ----- --- ---- ---- ------- ----- ---- -------<br>--- --- -- ----- -- --- ---- -- --- ---- if ------ ------<br>--- ----- -- ----,148355.5,148354.60000002384,147809.63,147836.90000003576,147842.959,148376.304,,49,if
screen,html.Screen,2_1_0_1_50,2022-02-15T12:22:24.683Z,,,,,,,,,,,,,,,,,53,,,,,,,,,,,,,,570.5960000357591,,response,,,,99,,,,,,,Space,keypress(Space),,,,,,,,---- -- ----- -- ------ - ------- --- ----------<br>------------- ------ ------ ---- ---- ------- ----- -- ----<br>-------- ------- -- ---------- --- - --- ----- ----- ----<br>---- --- --- ----- --- ---- ---- ------- ----- ---- -------<br>--- --- -- ----- -- --- ---- -- --- ---- -- that's ------<br>--- ----- -- ----,148947.80000001192,148946.90000003576,148342.965,148355.69999998808,148376.304,148976.291,,50,that's
screen,html.Screen,2_1_0_1_51,2022-02-15T12:22:25.146Z,,,,,,,,,,,,,,,,,53,,,,,,,,,,,,,,433.70900000000256,,response,,,,99,,,,,,,Space,keypress(Space),,,,,,,,---- -- ----- -- ------ - ------- --- ----------<br>------------- ------ ------ ---- ---- ------- ----- -- ----<br>-------- ------- -- ---------- --- - --- ----- ----- ----<br>---- --- --- ----- --- ---- ---- ------- ----- ---- -------<br>--- --- -- ----- -- --- ---- -- --- ---- -- ------ really<br>--- ----- -- ----,149410.60000002384,149410,148942.924,148948.10000002384,148976.291,149442.973,,51,really
screen,html.Screen,2_1_0_1_52,2022-02-15T12:22:25.763Z,,,,,,,,,,,,,,,,,53,,,,,,,,,,,,,,583.6270000238437,,response,,,,99,,,,,,,Space,keypress(Space),,,,,,,,---- -- ----- -- ------ - ------- --- ----------<br>------------- ------ ------ ---- ---- ------- ----- -- ----<br>-------- ------- -- ---------- --- - --- ----- ----- ----<br>---- --- --- ----- --- ---- ---- ------- ----- ---- -------<br>--- --- -- ----- -- --- ---- -- --- ---- -- ------ ------<br>not ----- -- ----,150027.5,150026.60000002384,149409.587,149410.60000002384,149442.973,150042.861,,52,not
screen,html.Screen,2_1_0_1_53,2022-02-15T12:22:26.275Z,,,,,,,,,,,,,,,,,53,,,,,,,,,,,,,,495.73900002383743,,response,,,,99,,,,,,,Space,keypress(Space),,,,,,,,---- -- ----- -- ------ - ------- --- ----------<br>------------- ------ ------ ---- ---- ------- ----- -- ----<br>-------- ------- -- ---------- --- - --- ----- ----- ----<br>---- --- --- ----- --- ---- ---- ------- ----- ---- -------<br>--- --- -- ----- -- --- ---- -- --- ---- -- ------ ------<br>--- close -- ----,150539.5,150538.60000002384,150009.573,150027.80000001192,150042.861,150542.931,,53,close
screen,html.Screen,2_1_0_1_54,2022-02-15T12:22:26.787Z,,,,,,,,,,,,,,,,,53,,,,,,,,,,,,,,507.66900002383045,,response,,,,99,,,,,,,Space,keypress(Space),,,,,,,,---- -- ----- -- ------ - ------- --- ----------<br>------------- ------ ------ ---- ---- ------- ----- -- ----<br>-------- ------- -- ---------- --- - --- ----- ----- ----<br>---- --- --- ----- --- ---- ---- ------- ----- ---- -------<br>--- --- -- ----- -- --- ---- -- --- ---- -- ------ ------<br>--- ----- at ----,151051.5,151050.60000002384,150509.562,150539.69999998808,150542.931,151076.268,,54,at
screen,html.Screen,2_1_0_1_55,2022-02-15T12:22:27.363Z,,,,,,,,,,,,,,,,,53,,,,,,,,,,,,,,550.4319999880681,,response,,,,99,,,,,,,Space,keypress(Space),,,,,,,,---- -- ----- -- ------ - ------- --- ----------<br>------------- ------ ------ ---- ---- ------- ----- -- ----<br>-------- ------- -- ---------- --- - --- ----- ----- ----<br>---- --- --- ----- --- ---- ---- ------- ----- ---- -------<br>--- --- -- ----- -- --- ---- -- --- ---- -- ------ ------<br>--- ----- -- all.,151627.5,151626.69999998808,151042.916,151051.69999998808,151076.268,151642.818,,55,all.
Item 99,flow.Loop,2_1_0_1,2022-02-15T12:22:27.363Z,,,,,,,,,,,,,,,,,,,,,,,,,,,,,,,37016.727999988085,,completion,,,,,D,,,,,,,,,,,silence,,,,,151628,151626.69999998808,114576.623,114584.10000002384,114609.972,151642.818,,,
Question 1,html.Screen,2_1_0_2,2022-02-15T12:22:33.817Z,,,,,,,,,,,,,,,,,,,,,,,,,,,,true,FALSE,,6438.782000023843,,response,,,,99,D,,,,,,FALSE,click #choice-2,,,,silence,,,,,158082.10000002384,158081.60000002384,151609.555,151628.30000001192,151642.818,158142.794,,,
Question 2,html.Screen,2_1_0_3,2022-02-15T12:22:40.041Z,,,,,,,,,,,,,,,,,,,,,,,,,,,,true,TRUE,,6162.5060000119265,,response,,,,99,D,,,,,,TRUE,click #choice-1,,,,silence,,,,,164305.69999998808,164305.30000001192,158109.424,158082.19999998808,158142.794,164342.703,,,
Item 99,flow.Sequence,2_1_0,2022-02-15T12:22:40.041Z,,,,,,,,,,,,,,,,,,,,,,,,,,,,,,,59695.27400001192,,completion,,,,,,,,,,,,,,,,,,,,,164305.90000003576,164305.30000001192,104576.725,104570.10000002384,104610.026,164342.703,,,
Holding screen,html.Screen,2_1_1_0,2022-02-15T12:22:50.051Z,,,,,,,,,,,,,,,,,,,,,,,,,,,,,,,9999.853999999992,,timeout,,,,,,,,,,,,,,,,,,,,,174315.90000003576,174309.243,164309.346,164306,164342.703,174342.557,,,
screen,html.Screen,2_1_1_1_0,2022-02-15T12:22:51.133Z,,,,,,,,,,,,,,,,,54,,,,,,,,,,,,,,1053.1429999880784,,response,,,,100,,,,,,,Space,keypress(Space),,,,,,,,At --- ---- --- ------ ----- ------- ---- -- --- ------- --<br>------- ---------- ------ -- ----- -- ----- -- ---- ------<br>--- ----- --- --- ------ -------- ----- --- ------ ----- --<br>----- ----- ---------- --- --- ------ ------ ---- -- ------<br>------- --- ------ ----- --- ---- ------- -- ---- --- --<br>------- ------,175396.69999998808,175395.69999998808,174309.243,174315.90000003576,174342.557,175409.145,,0,At
screen,html.Screen,2_1_1_1_1,2022-02-15T12:22:51.548Z,,,,,,,,,,,,,,,,,54,,,,,,,,,,,,,,401.45500002385234,,response,,,,100,,,,,,,Space,keypress(Space),,,,,,,,-- the ---- --- ------ ----- ------- ---- -- --- ------- --<br>------- ---------- ------ -- ----- -- ----- -- ---- ------<br>--- ----- --- --- ------ -------- ----- --- ------ ----- --<br>----- ----- ---------- --- --- ------ ------ ---- -- ------<br>------- --- ------ ----- --- ---- ------- -- ---- --- --<br>------- ------,175811.40000003576,175810.60000002384,175375.901,175397.10000002384,175409.145,175842.617,,1,the
screen,html.Screen,2_1_1_1_2,2022-02-15T12:22:52.028Z,,,,,,,,,,,,,,,,,54,,,,,,,,,,,,,,447.9830000238435,,response,,,,100,,,,,,,Space,keypress(Space),,,,,,,,-- --- time --- ------ ----- ------- ---- -- --- ------- --<br>------- ---------- ------ -- ----- -- ----- -- ---- ------<br>--- ----- --- --- ------ -------- ----- --- ------ ----- --<br>----- ----- ---------- --- --- ------ ------ ---- -- ------<br>------- --- ------ ----- --- ---- ------- -- ---- --- --<br>------- ------,176291.5,176290.60000002384,175809.231,175811.69999998808,175842.617,176309.274,,2,time
screen,html.Screen,2_1_1_1_3,2022-02-15T12:22:52.444Z,,,,,,,,,,,,,,,,,54,,,,,,,,,,,,,,397.4259999880742,,response,,,,100,,,,,,,Space,keypress(Space),,,,,,,,-- --- ---- the ------ ----- ------- ---- -- --- ------- --<br>------- ---------- ------ -- ----- -- ----- -- ---- ------<br>--- ----- --- --- ------ -------- ----- --- ------ ----- --<br>----- ----- ---------- --- --- ------ ------ ---- -- ------<br>------- --- ------ ----- --- ---- ------- -- ---- --- --<br>------- ------,176707.5,176706.69999998808,176275.882,176291.69999998808,176309.274,176742.567,,3,the
screen,html.Screen,2_1_1_1_4,2022-02-15T12:22:53.068Z,,,,,,,,,,,,,,,,,54,,,,,,,,,,,,,,588.3330000357528,,response,,,,100,,,,,,,Space,keypress(Space),,,,,,,,-- --- ---- --- French ----- ------- ---- -- --- ------- --<br>------- ---------- ------ -- ----- -- ----- -- ---- ------<br>--- ----- --- --- ------ -------- ----- --- ------ ----- --<br>----- ----- ---------- --- --- ------ ------ ---- -- ------<br>------- --- ------ ----- --- ---- ------- -- ---- --- --<br>------- ------,177331.80000001192,177330.90000003576,176675.889,176707.69999998808,176742.567,177342.473,,4,French
screen,html.Screen,2_1_1_1_5,2022-02-15T12:22:53.524Z,,,,,,,,,,,,,,,,,54,,,,,,,,,,,,,,444.1270000238437,,response,,,,100,,,,,,,Space,keypress(Space),,,,,,,,-- --- ---- --- ------ crown ------- ---- -- --- ------- --<br>------- ---------- ------ -- ----- -- ----- -- ---- ------<br>--- ----- --- --- ------ -------- ----- --- ------ ----- --<br>----- ----- ---------- --- --- ------ ------ ---- -- ------<br>------- --- ------ ----- --- ---- ------- -- ---- --- --<br>------- ------,177787.40000003576,177786.60000002384,177309.203,177332,177342.473,177809.256,,5,crown
screen,html.Screen,2_1_1_1_6,2022-02-15T12:22:54.604Z,,,,,,,,,,,,,,,,,54,,,,,,,,,,,,,,1057.4439999880851,,response,,,,100,,,,,,,Space,keypress(Space),,,,,,,,-- --- ---- --- ------ ----- secured ---- -- --- ------- --<br>------- ---------- ------ -- ----- -- ----- -- ---- ------<br>--- ----- --- --- ------ -------- ----- --- ------ ----- --<br>----- ----- ---------- --- --- ------ ------ ---- -- ------<br>------- --- ------ ----- --- ---- ------- -- ---- --- --<br>------- ------,178867.5,178866.69999998808,177775.89,177787.69999998808,177809.256,178909.239,,6,secured
screen,html.Screen,2_1_1_1_7,2022-02-15T12:22:55.130Z,,,,,,,,,,,,,,,,,54,,,,,,,,,,,,,,484.4609999880777,,response,,,,100,,,,,,,Space,keypress(Space),,,,,,,,-- --- ---- --- ------ ----- ------- much -- --- ------- --<br>------- ---------- ------ -- ----- -- ----- -- ---- ------<br>--- ----- --- --- ------ -------- ----- --- ------ ----- --<br>----- ----- ---------- --- --- ------ ------ ---- -- ------<br>------- --- ------ ----- --- ---- ------- -- ---- --- --<br>------- ------,179394,179393.69999998808,178875.867,178867.69999998808,178909.239,179409.175,,7,much
screen,html.Screen,2_1_1_1_8,2022-02-15T12:22:55.588Z,,,,,,,,,,,,,,,,,54,,,,,,,,,,,,,,441.4250000238535,,response,,,,100,,,,,,,Space,keypress(Space),,,,,,,,-- --- ---- --- ------ ----- ------- ---- of --- ------- --<br>------- ---------- ------ -- ----- -- ----- -- ---- ------<br>--- ----- --- --- ------ -------- ----- --- ------ ----- --<br>----- ----- ---------- --- --- ------ ------ ---- -- ------<br>------- --- ------ ----- --- ---- ------- -- ---- --- --<br>------- ------,179851.40000003576,179850.60000002384,179375.834,179394.10000002384,179409.175,179875.879,,8,of
screen,html.Screen,2_1_1_1_9,2022-02-15T12:22:56.092Z,,,,,,,,,,,,,,,,,54,,,,,,,,,,,,,,478.7210000238556,,response,,,,100,,,,,,,Space,keypress(Space),,,,,,,,-- --- ---- --- ------ ----- ------- ---- -- its ------- --<br>------- ---------- ------ -- ----- -- ----- -- ---- ------<br>--- ----- --- --- ------ -------- ----- --- ------ ----- --<br>----- ----- ---------- --- --- ------ ------ ---- -- ------<br>------- --- ------ ----- --- ---- ------- -- ---- --- --<br>------- ------,180355.5,180354.60000002384,179842.456,179851.60000002384,179875.879,180375.865,,9,its
screen,html.Screen,2_1_1_1_10,2022-02-15T12:22:57.716Z,,,,,,,,,,,,,,,,,54,,,,,,,,,,,,,,1603.2350000238512,,response,,,,100,,,,,,,Space,keypress(Space),,,,,,,,-- --- ---- --- ------ ----- ------- ---- -- --- revenue --<br>------- ---------- ------ -- ----- -- ----- -- ---- ------<br>--- ----- --- --- ------ -------- ----- --- ------ ----- --<br>----- ----- ---------- --- --- ------ ------ ---- -- ------<br>------- --- ------ ----- --- ---- ------- -- ---- --- --<br>------- ------,181980,181979.10000002384,180342.502,180355.69999998808,180375.865,182009.193,,10,revenue
screen,html.Screen,2_1_1_1_11,2022-02-15T12:22:58.252Z,,,,,,,,,,,,,,,,,54,,,,,,,,,,,,,,505.8070000000007,,response,,,,100,,,,,,,Space,keypress(Space),,,,,,,,-- --- ---- --- ------ ----- ------- ---- -- --- ------- by<br>------- ---------- ------ -- ----- -- ----- -- ---- ------<br>--- ----- --- --- ------ -------- ----- --- ------ ----- --<br>----- ----- ---------- --- --- ------ ------ ---- -- ------<br>------- --- ------ ----- --- ---- ------- -- ---- --- --<br>------- ------,182515.80000001192,182515,181975.799,181980.19999998808,182009.193,182542.515,,11,by
screen,html.Screen,2_1_1_1_12,2022-02-15T12:22:59.356Z,,,,,,,,,,,,,,,,,54,,,,,,,,,,,,,,1076.684999988065,,response,,,,100,,,,,,,Space,keypress(Space),,,,,,,,-- --- ---- --- ------ ----- ------- ---- -- --- ------- --<br>issuing ---------- ------ -- ----- -- ----- -- ---- ------<br>--- ----- --- --- ------ -------- ----- --- ------ ----- --<br>----- ----- ---------- --- --- ------ ------ ---- -- ------<br>------- --- ------ ----- --- ---- ------- -- ---- --- --<br>------- ------,183620,183619.19999998808,182509.133,182516,182542.515,183642.504,,12,issuing
screen,html.Screen,2_1_1_1_13,2022-02-15T12:23:00.220Z,,,,,,,,,,,,,,,,,54,,,,,,,,,,,,,,840.1959999880928,,response,,,,100,,,,,,,Space,keypress(Space),,,,,,,,-- --- ---- --- ------ ----- ------- ---- -- --- ------- --<br>------- government ------ -- ----- -- ----- -- ---- ------<br>--- ----- --- --- ------ -------- ----- --- ------ ----- --<br>----- ----- ---------- --- --- ------ ------ ---- -- ------<br>------- --- ------ ----- --- ---- ------- -- ---- --- --<br>------- ------,184483.60000002384,184482.69999998808,183609.011,183620.40000003576,183642.504,184509.152,,13,government
screen,html.Screen,2_1_1_1_14,2022-02-15T12:23:02.253Z,,,,,,,,,,,,,,,,,54,,,,,,,,,,,,,,2006.748000035761,,response,,,,100,,,,,,,Space,keypress(Space),,,,,,,,-- --- ---- --- ------ ----- ------- ---- -- --- ------- --<br>------- ---------- bonds. -- ----- -- ----- -- ---- ------<br>--- ----- --- --- ------ -------- ----- --- ------ ----- --<br>----- ----- ---------- --- --- ------ ------ ---- -- ------<br>------- --- ------ ----- --- ---- ------- -- ---- --- --<br>------- ------,186516.80000001192,186515.90000003576,184475.771,184483.80000001192,184509.152,186542.47,,14,bonds.
screen,html.Screen,2_1_1_1_15,2022-02-15T12:23:02.756Z,,,,,,,,,,,,,,,,,54,,,,,,,,,,,,,,476.1300000238407,,response,,,,100,,,,,,,Space,keypress(Space),,,,,,,,-- --- ---- --- ------ ----- ------- ---- -- --- ------- --<br>------- ---------- ------ In ----- -- ----- -- ---- ------<br>--- ----- --- --- ------ -------- ----- --- ------ ----- --<br>----- ----- ---------- --- --- ------ ------ ---- -- ------<br>------- --- ------ ----- --- ---- ------- -- ---- --- --<br>------- ------,187019.5,187018.60000002384,186509.08,186517.40000003576,186542.47,187042.443,,15,In
screen,html.Screen,2_1_1_1_16,2022-02-15T12:23:04.436Z,,,,,,,,,,,,,,,,,54,,,,,,,,,,,,,,1656.1570000238426,,response,,,,100,,,,,,,Space,keypress(Space),,,,,,,,"-- --- ---- --- ------ ----- ------- ---- -- --- ------- --<br>------- ---------- ------ -- 1727, -- ----- -- ---- ------<br>--- ----- --- --- ------ -------- ----- --- ------ ----- --<br>----- ----- ---------- --- --- ------ ------ ---- -- ------<br>------- --- ------ ----- --- ---- ------- -- ---- --- --<br>------- ------",188699.5,188698.60000002384,187009.07,187019.69999998808,187042.443,188708.94,,16,"1727,"
screen,html.Screen,2_1_1_1_17,2022-02-15T12:23:05.068Z,,,,,,,,,,,,,,,,,54,,,,,,,,,,,,,,622.1600000238395,,response,,,,100,,,,,,,Space,keypress(Space),,,,,,,,-- --- ---- --- ------ ----- ------- ---- -- --- ------- --<br>------- ---------- ------ -- ----- in ----- -- ---- ------<br>--- ----- --- --- ------ -------- ----- --- ------ ----- --<br>----- ----- ---------- --- --- ------ ------ ---- -- ------<br>------- --- ------ ----- --- ---- ------- -- ---- --- --<br>------- ------,189331.90000003576,189331.10000002384,188675.728,188699.69999998808,188708.94,189342.304,,17,in
screen,html.Screen,2_1_1_1_18,2022-02-15T12:23:05.636Z,,,,,,,,,,,,,,,,,54,,,,,,,,,,,,,,556.2960000238381,,response,,,,100,,,,,,,Space,keypress(Space),,,,,,,,-- --- ---- --- ------ ----- ------- ---- -- --- ------- --<br>------- ---------- ------ -- ----- -- order -- ---- ------<br>--- ----- --- --- ------ -------- ----- --- ------ ----- --<br>----- ----- ---------- --- --- ------ ------ ---- -- ------<br>------- --- ------ ----- --- ---- ------- -- ---- --- --<br>------- ------,189899.40000003576,189898.60000002384,189309.045,189332.10000002384,189342.304,189909.005,,18,order
screen,html.Screen,2_1_1_1_19,2022-02-15T12:23:06.108Z,,,,,,,,,,,,,,,,,54,,,,,,,,,,,,,,461.5950000238372,,response,,,,100,,,,,,,Space,keypress(Space),,,,,,,,-- --- ---- --- ------ ----- ------- ---- -- --- ------- --<br>------- ---------- ------ -- ----- -- ----- to ---- ------<br>--- ----- --- --- ------ -------- ----- --- ------ ----- --<br>----- ----- ---------- --- --- ------ ------ ---- -- ------<br>------- --- ------ ----- --- ---- ------- -- ---- --- --<br>------- ------,190371.5,190370.60000002384,189875.721,189899.60000002384,189909.005,190409.081,,19,to
screen,html.Screen,2_1_1_1_20,2022-02-15T12:23:06.660Z,,,,,,,,,,,,,,,,,54,,,,,,,,,,,,,,513.5190000238363,,response,,,,100,,,,,,,Space,keypress(Space),,,,,,,,-- --- ---- --- ------ ----- ------- ---- -- --- ------- --<br>------- ---------- ------ -- ----- -- ----- -- save ------<br>--- ----- --- --- ------ -------- ----- --- ------ ----- --<br>----- ----- ---------- --- --- ------ ------ ---- -- ------<br>------- --- ------ ----- --- ---- ------- -- ---- --- --<br>------- ------,190923.40000003576,190922.60000002384,190342.355,190371.60000002384,190409.081,190942.326,,20,save
screen,html.Screen,2_1_1_1_21,2022-02-15T12:23:07.188Z,,,,,,,,,,,,,,,,,54,,,,,,,,,,,,,,508.7740000238409,,response,,,,100,,,,,,,Space,keypress(Space),,,,,,,,"-- --- ---- --- ------ ----- ------- ---- -- --- ------- --<br>------- ---------- ------ -- ----- -- ----- -- ---- money,<br>--- ----- --- --- ------ -------- ----- --- ------ ----- --<br>----- ----- ---------- --- --- ------ ------ ---- -- ------<br>------- --- ------ ----- --- ---- ------- -- ---- --- --<br>------- ------",191452,191451.10000002384,190909.013,190923.60000002384,190942.326,191475.734,,21,"money,"
screen,html.Screen,2_1_1_1_22,2022-02-15T12:23:08.236Z,,,,,,,,,,,,,,,,,54,,,,,,,,,,,,,,1022.9659999880823,,response,,,,100,,,,,,,Space,keypress(Space),,,,,,,,-- --- ---- --- ------ ----- ------- ---- -- --- ------- --<br>------- ---------- ------ -- ----- -- ----- -- ---- ------<br>the ----- --- --- ------ -------- ----- --- ------ ----- --<br>----- ----- ---------- --- --- ------ ------ ---- -- ------<br>------- --- ------ ----- --- ---- ------- -- ---- --- --<br>------- ------,192499.60000002384,192498.69999998808,191442.346,191452.30000001192,191475.734,192508.906,,22,the
screen,html.Screen,2_1_1_1_23,2022-02-15T12:23:08.740Z,,,,,,,,,,,,,,,,,54,,,,,,,,,,,,,,493.79399998809095,,response,,,,100,,,,,,,Space,keypress(Space),,,,,,,,-- --- ---- --- ------ ----- ------- ---- -- --- ------- --<br>------- ---------- ------ -- ----- -- ----- -- ---- ------<br>--- state --- --- ------ -------- ----- --- ------ ----- --<br>----- ----- ---------- --- --- ------ ------ ---- -- ------<br>------- --- ------ ----- --- ---- ------- -- ---- --- --<br>------- ------,193003.69999998808,193002.69999998808,192475.664,192499.80000001192,192508.906,193009.005,,23,state
screen,html.Screen,2_1_1_1_24,2022-02-15T12:23:10.444Z,,,,,,,,,,,,,,,,,54,,,,,,,,,,,,,,1697.5950000238372,,response,,,,100,,,,,,,Space,keypress(Space),,,,,,,,-- --- ---- --- ------ ----- ------- ---- -- --- ------- --<br>------- ---------- ------ -- ----- -- ----- -- ---- ------<br>--- ----- cut --- ------ -------- ----- --- ------ ----- --<br>----- ----- ---------- --- --- ------ ------ ---- -- ------<br>------- --- ------ ----- --- ---- ------- -- ---- --- --<br>------- ------,194707.5,194706.60000002384,192975.652,193004,193009.005,194742.312,,24,cut
screen,html.Screen,2_1_1_1_25,2022-02-15T12:23:10.972Z,,,,,,,,,,,,,,,,,54,,,,,,,,,,,,,,492.3879999880737,,response,,,,100,,,,,,,Space,keypress(Space),,,,,,,,-- --- ---- --- ------ ----- ------- ---- -- --- ------- --<br>------- ---------- ------ -- ----- -- ----- -- ---- ------<br>--- ----- --- the ------ -------- ----- --- ------ ----- --<br>----- ----- ---------- --- --- ------ ------ ---- -- ------<br>------- --- ------ ----- --- ---- ------- -- ---- --- --<br>------- ------,195235.60000002384,195234.69999998808,194675.636,194707.80000001192,194742.312,195242.205,,25,the
screen,html.Screen,2_1_1_1_26,2022-02-15T12:23:11.988Z,,,,,,,,,,,,,,,,,54,,,,,,,,,,,,,,1008.4949999880919,,response,,,,100,,,,,,,Space,keypress(Space),,,,,,,,-- --- ---- --- ------ ----- ------- ---- -- --- ------- --<br>------- ---------- ------ -- ----- -- ----- -- ---- ------<br>--- ----- --- --- bonds' -------- ----- --- ------ ----- --<br>----- ----- ---------- --- --- ------ ------ ---- -- ------<br>------- --- ------ ----- --- ---- ------- -- ---- --- --<br>------- ------,196251.60000002384,196250.69999998808,195208.962,195235.80000001192,195242.205,196275.66,,26,bonds'
screen,html.Screen,2_1_1_1_27,2022-02-15T12:23:13.389Z,,,,,,,,,,,,,,,,,54,,,,,,,,,,,,,,1376.1400000119174,,response,,,,100,,,,,,,Space,keypress(Space),,,,,,,,-- --- ---- --- ------ ----- ------- ---- -- --- ------- --<br>------- ---------- ------ -- ----- -- ----- -- ---- ------<br>--- ----- --- --- ------ interest ----- --- ------ ----- --<br>----- ----- ---------- --- --- ------ ------ ---- -- ------<br>------- --- ------ ----- --- ---- ------- -- ---- --- --<br>------- ------,197652.69999998808,197651.80000001192,196242.279,196251.69999998808,196275.66,197675.646,,27,interest
screen,html.Screen,2_1_1_1_28,2022-02-15T12:23:14.532Z,,,,,,,,,,,,,,,,,54,,,,,,,,,,,,,,1118.853999999992,,response,,,,100,,,,,,,Space,keypress(Space),,,,,,,,-- --- ---- --- ------ ----- ------- ---- -- --- ------- --<br>------- ---------- ------ -- ----- -- ----- -- ---- ------<br>--- ----- --- --- ------ -------- rate. --- ------ ----- --<br>----- ----- ---------- --- --- ------ ------ ---- -- ------<br>------- --- ------ ----- --- ---- ------- -- ---- --- --<br>------- ------,198795.40000003576,198794.5,197642.277,197652.90000003576,197675.646,198808.856,,28,rate.
screen,html.Screen,2_1_1_1_29,2022-02-15T12:23:15.084Z,,,,,,,,,,,,,,,,,54,,,,,,,,,,,,,,538.3439999880793,,response,,,,100,,,,,,,Space,keypress(Space),,,,,,,,-- --- ---- --- ------ ----- ------- ---- -- --- ------- --<br>------- ---------- ------ -- ----- -- ----- -- ---- ------<br>--- ----- --- --- ------ -------- ----- The ------ ----- --<br>----- ----- ---------- --- --- ------ ------ ---- -- ------<br>------- --- ------ ----- --- ---- ------- -- ---- --- --<br>------- ------,199348,199347.19999998808,198775.584,198795.69999998808,198808.856,199375.613,,29,The
screen,html.Screen,2_1_1_1_30,2022-02-15T12:23:15.708Z,,,,,,,,,,,,,,,,,54,,,,,,,,,,,,,,595.086999988067,,response,,,,100,,,,,,,Space,keypress(Space),,,,,,,,-- --- ---- --- ------ ----- ------- ---- -- --- ------- --<br>------- ---------- ------ -- ----- -- ----- -- ---- ------<br>--- ----- --- --- ------ -------- ----- --- market ----- --<br>----- ----- ---------- --- --- ------ ------ ---- -- ------<br>------- --- ------ ----- --- ---- ------- -- ---- --- --<br>------- ------,199971.5,199970.69999998808,199342.23,199348.30000001192,199375.613,199975.584,,30,market
screen,html.Screen,2_1_1_1_31,2022-02-15T12:23:16.291Z,,,,,,,,,,,,,,,,,54,,,,,,,,,,,,,,578.9159999999974,,response,,,,100,,,,,,,Space,keypress(Space),,,,,,,,-- --- ---- --- ------ ----- ------- ---- -- --- ------- --<br>------- ---------- ------ -- ----- -- ----- -- ---- ------<br>--- ----- --- --- ------ -------- ----- --- ------ value --<br>----- ----- ---------- --- --- ------ ------ ---- -- ------<br>------- --- ------ ----- --- ---- ------- -- ---- --- --<br>------- ------,200555.19999998808,200554.5,199942.236,199971.80000001192,199975.584,200575.597,,31,value
screen,html.Screen,2_1_1_1_32,2022-02-15T12:23:16.740Z,,,,,,,,,,,,,,,,,54,,,,,,,,,,,,,,426.90299999999115,,response,,,,100,,,,,,,Space,keypress(Space),,,,,,,,-- --- ---- --- ------ ----- ------- ---- -- --- ------- --<br>------- ---------- ------ -- ----- -- ----- -- ---- ------<br>--- ----- --- --- ------ -------- ----- --- ------ ----- of<br>----- ----- ---------- --- --- ------ ------ ---- -- ------<br>------- --- ------ ----- --- ---- ------- -- ---- --- --<br>------- ------,201003.30000001192,201002.5,200542.217,200555.60000002384,200575.597,201008.922,,32,of
screen,html.Screen,2_1_1_1_33,2022-02-15T12:23:17.308Z,,,,,,,,,,,,,,,,,54,,,,,,,,,,,,,,562.1780000238505,,response,,,,100,,,,,,,Space,keypress(Space),,,,,,,,-- --- ---- --- ------ ----- ------- ---- -- --- ------- --<br>------- ---------- ------ -- ----- -- ----- -- ---- ------<br>--- ----- --- --- ------ -------- ----- --- ------ ----- --<br>these ----- ---------- --- --- ------ ------ ---- -- ------<br>------- --- ------ ----- --- ---- ------- -- ---- --- --<br>------- ------,201571.90000003576,201571.10000002384,200975.497,201003.60000002384,201008.922,201575.555,,33,these
screen,html.Screen,2_1_1_1_34,2022-02-15T12:23:17.820Z,,,,,,,,,,,,,,,,,54,,,,,,,,,,,,,,507.14499998808606,,response,,,,100,,,,,,,Space,keypress(Space),,,,,,,,-- --- ---- --- ------ ----- ------- ---- -- --- ------- --<br>------- ---------- ------ -- ----- -- ----- -- ---- ------<br>--- ----- --- --- ------ -------- ----- --- ------ ----- --<br>----- bonds ---------- --- --- ------ ------ ---- -- ------<br>------- --- ------ ----- --- ---- ------- -- ---- --- --<br>------- ------,202083.90000003576,202082.69999998808,201542.208,201572.19999998808,201575.555,202108.916,,34,bonds
screen,html.Screen,2_1_1_1_35,2022-02-15T12:23:18.836Z,,,,,,,,,,,,,,,,,54,,,,,,,,,,,,,,989.7839999880816,,response,,,,100,,,,,,,Space,keypress(Space),,,,,,,,"-- --- ---- --- ------ ----- ------- ---- -- --- ------- --<br>------- ---------- ------ -- ----- -- ----- -- ---- ------<br>--- ----- --- --- ------ -------- ----- --- ------ ----- --<br>----- ----- plummeted, --- --- ------ ------ ---- -- ------<br>------- --- ------ ----- --- ---- ------- -- ---- --- --<br>------- ------",203099.60000002384,203098.69999998808,202075.538,202084.19999998808,202108.916,203108.774,,35,"plummeted,"
screen,html.Screen,2_1_1_1_36,2022-02-15T12:23:19.388Z,,,,,,,,,,,,,,,,,54,,,,,,,,,,,,,,541.7259999999951,,response,,,,100,,,,,,,Space,keypress(Space),,,,,,,,-- --- ---- --- ------ ----- ------- ---- -- --- ------- --<br>------- ---------- ------ -- ----- -- ----- -- ---- ------<br>--- ----- --- --- ------ -------- ----- --- ------ ----- --<br>----- ----- ---------- and --- ------ ------ ---- -- ------<br>------- --- ------ ----- --- ---- ------- -- ---- --- --<br>------- ------,203651.30000001192,203650.5,203075.554,203099.80000001192,203108.774,203675.56,,36,and
screen,html.Screen,2_1_1_1_37,2022-02-15T12:23:20.764Z,,,,,,,,,,,,,,,,,54,,,,,,,,,,,,,,1350.8400000357651,,response,,,,100,,,,,,,Space,keypress(Space),,,,,,,,-- --- ---- --- ------ ----- ------- ---- -- --- ------- --<br>------- ---------- ------ -- ----- -- ----- -- ---- ------<br>--- ----- --- --- ------ -------- ----- --- ------ ----- --<br>----- ----- ---------- --- the ------ ------ ---- -- ------<br>------- --- ------ ----- --- ---- ------- -- ---- --- --<br>------- ------,205027.40000003576,205026.40000003576,203642.209,203651.5,203675.56,205042.115,,37,the
screen,html.Screen,2_1_1_1_38,2022-02-15T12:23:21.276Z,,,,,,,,,,,,,,,,,54,,,,,,,,,,,,,,496.5849999880884,,response,,,,100,,,,,,,Space,keypress(Space),,,,,,,,-- --- ---- --- ------ ----- ------- ---- -- --- ------- --<br>------- ---------- ------ -- ----- -- ----- -- ---- ------<br>--- ----- --- --- ------ -------- ----- --- ------ ----- --<br>----- ----- ---------- --- --- market ------ ---- -- ------<br>------- --- ------ ----- --- ---- ------- -- ---- --- --<br>------- ------,205539.60000002384,205538.69999998808,205008.85,205027.60000002384,205042.115,205542.048,,38,market
screen,html.Screen,2_1_1_1_39,2022-02-15T12:23:21.796Z,,,,,,,,,,,,,,,,,54,,,,,,,,,,,,,,517.2520000119112,,response,,,,100,,,,,,,Space,keypress(Space),,,,,,,,-- --- ---- --- ------ ----- ------- ---- -- --- ------- --<br>------- ---------- ------ -- ----- -- ----- -- ---- ------<br>--- ----- --- --- ------ -------- ----- --- ------ ----- --<br>----- ----- ---------- --- --- ------ became ---- -- ------<br>------- --- ------ ----- --- ---- ------- -- ---- --- --<br>------- ------,206060.10000002384,206059.30000001192,205508.82,205539.69999998808,205542.048,206075.353,,39,became
screen,html.Screen,2_1_1_1_40,2022-02-15T12:23:22.508Z,,,,,,,,,,,,,,,,,54,,,,,,,,,,,,,,695.3469999880763,,response,,,,100,,,,,,,Space,keypress(Space),,,,,,,,-- --- ---- --- ------ ----- ------- ---- -- --- ------- --<br>------- ---------- ------ -- ----- -- ----- -- ---- ------<br>--- ----- --- --- ------ -------- ----- --- ------ ----- --<br>----- ----- ---------- --- --- ------ ------ wary -- ------<br>------- --- ------ ----- --- ---- ------- -- ---- --- --<br>------- ------,206771.40000003576,206770.69999998808,206042.138,206060.40000003576,206075.353,206775.346,,40,wary
screen,html.Screen,2_1_1_1_41,2022-02-15T12:23:23.068Z,,,,,,,,,,,,,,,,,54,,,,,,,,,,,,,,555.7540000238514,,response,,,,100,,,,,,,Space,keypress(Space),,,,,,,,-- --- ---- --- ------ ----- ------- ---- -- --- ------- --<br>------- ---------- ------ -- ----- -- ----- -- ---- ------<br>--- ----- --- --- ------ -------- ----- --- ------ ----- --<br>----- ----- ---------- --- --- ------ ------ ---- of ------<br>------- --- ------ ----- --- ---- ------- -- ---- --- --<br>------- ------,207331.90000003576,207331.10000002384,206742.16,206771.69999998808,206775.346,207342.072,,41,of
screen,html.Screen,2_1_1_1_42,2022-02-15T12:23:24.062Z,,,,,,,,,,,,,,,,,54,,,,,,,,,,,,,,982.6279999880935,,response,,,,100,,,,,,,Space,keypress(Space),,,,,,,,-- --- ---- --- ------ ----- ------- ---- -- --- ------- --<br>------- ---------- ------ -- ----- -- ----- -- ---- ------<br>--- ----- --- --- ------ -------- ----- --- ------ ----- --<br>----- ----- ---------- --- --- ------ ------ ---- -- French<br>------- --- ------ ----- --- ---- ------- -- ---- --- --<br>------- ------,208325.5,208324.69999998808,207308.8,207332.10000002384,207342.072,208342.162,,42,French
screen,html.Screen,2_1_1_1_43,2022-02-15T12:23:24.772Z,,,,,,,,,,,,,,,,,54,,,,,,,,,,,,,,693.0379999880679,,response,,,,100,,,,,,,Space,keypress(Space),,,,,,,,-- --- ---- --- ------ ----- ------- ---- -- --- ------- --<br>------- ---------- ------ -- ----- -- ----- -- ---- ------<br>--- ----- --- --- ------ -------- ----- --- ------ ----- --<br>----- ----- ---------- --- --- ------ ------ ---- -- ------<br>credit. --- ------ ----- --- ---- ------- -- ---- --- --<br>------- ------,209035.90000003576,209035.19999998808,208308.777,208325.69999998808,208342.162,209042.129,,43,credit.
screen,html.Screen,2_1_1_1_44,2022-02-15T12:23:25.740Z,,,,,,,,,,,,,,,,,54,,,,,,,,,,,,,,960.4710000238556,,response,,,,100,,,,,,,Space,keypress(Space),,,,,,,,-- --- ---- --- ------ ----- ------- ---- -- --- ------- --<br>------- ---------- ------ -- ----- -- ----- -- ---- ------<br>--- ----- --- --- ------ -------- ----- --- ------ ----- --<br>----- ----- ---------- --- --- ------ ------ ---- -- ------<br>------- The ------ ----- --- ---- ------- -- ---- --- --<br>------- ------,210003.5,210002.60000002384,209008.808,209036.19999998808,209042.129,210008.764,,44,The
screen,html.Screen,2_1_1_1_45,2022-02-15T12:23:26.171Z,,,,,,,,,,,,,,,,,54,,,,,,,,,,,,,,425.7360000000044,,response,,,,100,,,,,,,Space,keypress(Space),,,,,,,,-- --- ---- --- ------ ----- ------- ---- -- --- ------- --<br>------- ---------- ------ -- ----- -- ----- -- ---- ------<br>--- ----- --- --- ------ -------- ----- --- ------ ----- --<br>----- ----- ---------- --- --- ------ ------ ---- -- ------<br>------- --- French ----- --- ---- ------- -- ---- --- --<br>------- ------,210435.30000001192,210434.5,209975.454,210003.80000001192,210008.764,210442.009,,45,French
screen,html.Screen,2_1_1_1_46,2022-02-15T12:23:26.588Z,,,,,,,,,,,,,,,,,54,,,,,,,,,,,,,,408.69099998808815,,response,,,,100,,,,,,,Space,keypress(Space),,,,,,,,-- --- ---- --- ------ ----- ------- ---- -- --- ------- --<br>------- ---------- ------ -- ----- -- ----- -- ---- ------<br>--- ----- --- --- ------ -------- ----- --- ------ ----- --<br>----- ----- ---------- --- --- ------ ------ ---- -- ------<br>------- --- ------ state --- ---- ------- -- ---- --- --<br>------- ------,210851.5,210850.69999998808,210408.759,210435.60000002384,210442.009,210875.464,,46,state
screen,html.Screen,2_1_1_1_47,2022-02-15T12:23:28.165Z,,,,,,,,,,,,,,,,,54,,,,,,,,,,,,,,1552.7359999880719,,response,,,,100,,,,,,,Space,keypress(Space),,,,,,,,-- --- ---- --- ------ ----- ------- ---- -- --- ------- --<br>------- ---------- ------ -- ----- -- ----- -- ---- ------<br>--- ----- --- --- ------ -------- ----- --- ------ ----- --<br>----- ----- ---------- --- --- ------ ------ ---- -- ------<br>------- --- ------ ----- was ---- ------- -- ---- --- --<br>------- ------,212429.19999998808,212428.19999998808,210842.07,210851.69999998808,210875.464,212475.446,,47,was
screen,html.Screen,2_1_1_1_48,2022-02-15T12:23:28.636Z,,,,,,,,,,,,,,,,,54,,,,,,,,,,,,,,423.2539999880828,,response,,,,100,,,,,,,Space,keypress(Space),,,,,,,,-- --- ---- --- ------ ----- ------- ---- -- --- ------- --<br>------- ---------- ------ -- ----- -- ----- -- ---- ------<br>--- ----- --- --- ------ -------- ----- --- ------ ----- --<br>----- ----- ---------- --- --- ------ ------ ---- -- ------<br>------- --- ------ ----- --- left ------- -- ---- --- --<br>------- ------,212899.60000002384,212898.69999998808,212442.067,212429.40000003576,212475.446,212942.112,,48,left
screen,html.Screen,2_1_1_1_49,2022-02-15T12:23:29.172Z,,,,,,,,,,,,,,,,,54,,,,,,,,,,,,,,492.58799998808536,,response,,,,100,,,,,,,Space,keypress(Space),,,,,,,,-- --- ---- --- ------ ----- ------- ---- -- --- ------- --<br>------- ---------- ------ -- ----- -- ----- -- ---- ------<br>--- ----- --- --- ------ -------- ----- --- ------ ----- --<br>----- ----- ---------- --- --- ------ ------ ---- -- ------<br>------- --- ------ ----- --- ---- without -- ---- --- --<br>------- ------,213435.5,213434.69999998808,212908.732,212899.80000001192,212942.112,213442.071,,49,without
screen,html.Screen,2_1_1_1_50,2022-02-15T12:23:29.628Z,,,,,,,,,,,,,,,,,54,,,,,,,,,,,,,,449.0290000238456,,response,,,,100,,,,,,,Space,keypress(Space),,,,,,,,-- --- ---- --- ------ ----- ------- ---- -- --- ------- --<br>------- ---------- ------ -- ----- -- ----- -- ---- ------<br>--- ----- --- --- ------ -------- ----- --- ------ ----- --<br>----- ----- ---------- --- --- ------ ------ ---- -- ------<br>------- --- ------ ----- --- ---- ------- an ---- --- --<br>------- ------,213891.90000003576,213891.10000002384,213408.703,213435.69999998808,213442.071,213908.758,,50,an
screen,html.Screen,2_1_1_1_51,2022-02-15T12:23:30.124Z,,,,,,,,,,,,,,,,,54,,,,,,,,,,,,,,477.8420000238402,,response,,,,100,,,,,,,Space,keypress(Space),,,,,,,,-- --- ---- --- ------ ----- ------- ---- -- --- ------- --<br>------- ---------- ------ -- ----- -- ----- -- ---- ------<br>--- ----- --- --- ------ -------- ----- --- ------ ----- --<br>----- ----- ---------- --- --- ------ ------ ---- -- ------<br>------- --- ------ ----- --- ---- ------- -- easy --- --<br>------- ------,214387.5,214386.60000002384,213875.365,213892.10000002384,213908.758,214408.753,,51,easy
screen,html.Screen,2_1_1_1_52,2022-02-15T12:23:30.531Z,,,,,,,,,,,,,,,,,54,,,,,,,,,,,,,,385.6470000357658,,response,,,,100,,,,,,,Space,keypress(Space),,,,,,,,-- --- ---- --- ------ ----- ------- ---- -- --- ------- --<br>------- ---------- ------ -- ----- -- ----- -- ---- ------<br>--- ----- --- --- ------ -------- ----- --- ------ ----- --<br>----- ----- ---------- --- --- ------ ------ ---- -- ------<br>------- --- ------ ----- --- ---- ------- -- ---- way --<br>------- ------,214795.30000001192,214794.40000003576,214375.365,214387.69999998808,214408.753,214808.646,,52,way
screen,html.Screen,2_1_1_1_53,2022-02-15T12:23:30.948Z,,,,,,,,,,,,,,,,,54,,,,,,,,,,,,,,401.8539999999921,,response,,,,100,,,,,,,Space,keypress(Space),,,,,,,,-- --- ---- --- ------ ----- ------- ---- -- --- ------- --<br>------- ---------- ------ -- ----- -- ----- -- ---- ------<br>--- ----- --- --- ------ -------- ----- --- ------ ----- --<br>----- ----- ---------- --- --- ------ ------ ---- -- ------<br>------- --- ------ ----- --- ---- ------- -- ---- --- of<br>------- ------,215211.5,215210.5,214775.354,214795.5,214808.646,215242.066,,53,of
screen,html.Screen,2_1_1_1_54,2022-02-15T12:23:31.452Z,,,,,,,,,,,,,,,,,54,,,,,,,,,,,,,,472.53400002385024,,response,,,,100,,,,,,,Space,keypress(Space),,,,,,,,-- --- ---- --- ------ ----- ------- ---- -- --- ------- --<br>------- ---------- ------ -- ----- -- ----- -- ---- ------<br>--- ----- --- --- ------ -------- ----- --- ------ ----- --<br>----- ----- ---------- --- --- ------ ------ ---- -- ------<br>------- --- ------ ----- --- ---- ------- -- ---- --- --<br>raising ------,215715.5,215714.60000002384,215208.689,215211.69999998808,215242.066,215741.956,,54,raising
screen,html.Screen,2_1_1_1_55,2022-02-15T12:23:31.908Z,,,,,,,,,,,,,,,,,54,,,,,,,,,,,,,,428.5439999999944,,response,,,,100,,,,,,,Space,keypress(Space),,,,,,,,-- --- ---- --- ------ ----- ------- ---- -- --- ------- --<br>------- ---------- ------ -- ----- -- ----- -- ---- ------<br>--- ----- --- --- ------ -------- ----- --- ------ ----- --<br>----- ----- ---------- --- --- ------ ------ ---- -- ------<br>------- --- ------ ----- --- ---- ------- -- ---- --- --<br>------- money.,216171.30000001192,216170.5,215708.567,215715.69999998808,215741.956,216208.662,,55,money.
Item 100,flow.Loop,2_1_1_1,2022-02-15T12:23:31.908Z,,,,,,,,,,,,,,,,,,,,,,,,,,,,,,,41827.943,,completion,,,,,D,,,,,,,,,,,silence,,,,,216171.80000001192,216170.5,174309.243,174315.90000003576,174342.557,216208.662,,,
Question 1,html.Screen,2_1_1_2,2022-02-15T12:23:35.330Z,,,,,,,,,,,,,,,,,,,,,,,,,,,,true,TRUE,,3384.537999988068,,response,,,,100,D,,,,,,TRUE,click #choice-1,,,,silence,,,,,219593.60000002384,219593.19999998808,216175.352,216172,216208.662,219608.581,,,
Question 2,html.Screen,2_1_1_3,2022-02-15T12:23:37.266Z,,,,,,,,,,,,,,,,,,,,,,,,,,,,true,FALSE,,1920.6189999880735,,response,,,,100,D,,,,,,FALSE,click #choice-2,,,,silence,,,,,221529.69999998808,221529.19999998808,219575.26,219593.80000001192,219608.581,221541.84,,,
Item 100,flow.Sequence,2_1_1,2022-02-15T12:23:37.266Z,,,,,,,,,,,,,,,,,,,,,,,,,,,,,,,57186.49699998807,,completion,,,,,,,,,,,,,,,,,,,,,221529.80000001192,221529.19999998808,164309.346,164306,164342.703,221541.84,,,
End of Practice,html.Page,2_1_2,2022-02-15T12:23:41.935Z,,,,,,,,,,,,,,,,,,,,,,,,,,,,,,,4656.460000011924,,form submission,,,,,,,,,,,,,,,,,,,,,226198.40000003576,226198.30000001192,221508.596,221529.90000003576,221541.84,226208.451,,,
Practice,flow.Sequence,2_1,2022-02-15T12:23:41.935Z,,,,,,,,,,,,,,,,,,,,,,,,,,,,,,,121588.27400001192,,completion,,,,,,,,,,,,,,,,,,,,,226198.60000002384,226198.30000001192,104576.725,104570.10000002384,104610.026,226208.451,,,
Trap_instruction,html.Page,2_2_0,2022-02-15T12:23:46.706Z,,,,,,,,,,,,,,,,,,,,,,,,,,,,,,,4761.34900001192,,form submission,,,,,,,,,,,,,,,,,,,,,230970,230969.80000001192,226175.209,226198.60000002384,226208.451,230975.096,,,
trap_trial,html.Screen,2_2_1,2022-02-15T12:23:50.266Z,,,,,,,,,,,,,,,,,,,,,,,,,,,,true,1,,3554.1039999880886,,response,,,,,,,,,,,1,click #choice-1,,,,,,,,,234529.69999998808,234529.19999998808,230941.813,230970,230975.096,234575.073,,,
end of trap trial,html.Page,2_2_2,2022-02-15T12:23:52.446Z,,,,,,,,,,,,,,,,,,,,,,,,,,,,,,,2134.827000035759,,form submission,,,,,,,,,,,,,,,,,,,,,236710,236709.90000003576,234541.719,234529.80000001192,234575.073,236741.737,,,
Trap 1,flow.Sequence,2_2,2022-02-15T12:23:52.446Z,,,,,,,,,,,,,,,,,,,,,,,,,,,,,,,10501.449000035762,,completion,,,,,,,,,,,,,,,,,,,,,236710.10000002384,236709.90000003576,226175.209,226198.60000002384,226208.451,236741.737,,,
Standby,html.Page,2_3_0,2022-02-15T12:24:00.446Z,,,,,,,,,,,,,,,,,,,,,,,,,,,,,,,7999.861999999994,,timeout,,,,,,,,,,,,,,,,,,,,,244709.40000003576,244708.288,236708.396,236710.19999998808,236741.737,244741.599,,,
Holding screen,html.Screen,2_3_1_0_0,2022-02-15T12:24:07.445Z,,,,,,,,,,,,,,,,,,,,,,,,,,,,,,,6999.9740000000165,,timeout,,,,,,,,,,,,,,,,,,,,,251709.10000002384,251708.177,244708.288,244709.69999998808,244741.599,251741.573,,,
screen,html.Screen,2_3_1_0_1_0,2022-02-15T12:24:08.853Z,,,,,,,,,,,,,,,,,15,,,,,,,,,,,,,,1374.727000011917,,response,,,,7,D,,,,,,Space,keypress(Space),,,,silence,,,,Greg --------- ---------- - --- ------- -- --- ------------<br>----- -- -------- ------- ---- ------ - -------- ---- -----<br>--- ------- ---- -- --- -------- --- - ----- ------ ---- --<br>-------- --- -------- -------- --- -------- ---- -- ----- -<br>-------- ---- --- ---------- --------- -- ------- ------ -<br>--------- ----- -----,253117.10000002384,253116.30000001192,251708.177,251709.5,251741.573,253141.489,,0,Greg
screen,html.Screen,2_3_1_0_1_1,2022-02-15T12:24:09.388Z,,,,,,,,,,,,,,,,,15,,,,,,,,,,,,,,509.5109999999986,,response,,,,7,D,,,,,,Space,keypress(Space),,,,silence,,,,"---- Anderson, ---------- - --- ------- -- --- ------------<br>----- -- -------- ------- ---- ------ - -------- ---- -----<br>--- ------- ---- -- --- -------- --- - ----- ------ ---- --<br>-------- --- -------- -------- --- -------- ---- -- ----- -<br>-------- ---- --- ---------- --------- -- ------- ------ -<br>--------- ----- -----",253651.90000003576,253651,253108.135,253117.40000003576,253141.489,253674.874,,1,"Anderson,"
screen,html.Screen,2_3_1_0_1_2,2022-02-15T12:24:10.564Z,,,,,,,,,,,,,,,,,15,,,,,,,,,,,,,,1151.7260000238311,,response,,,,7,D,,,,,,Space,keypress(Space),,,,silence,,,,---- --------- considered - --- ------- -- --- ------------<br>----- -- -------- ------- ---- ------ - -------- ---- -----<br>--- ------- ---- -- --- -------- --- - ----- ------ ---- --<br>-------- --- -------- -------- --- -------- ---- -- ----- -<br>-------- ---- --- ---------- --------- -- ------- ------ -<br>--------- ----- -----,254827.5,254826.60000002384,253641.526,253652.10000002384,253674.874,254841.428,,2,considered
screen,html.Screen,2_3_1_0_1_3,2022-02-15T12:24:10.996Z,,,,,,,,,,,,,,,,,15,,,,,,,,,,,,,,417.57199999998556,,response,,,,7,D,,,,,,Space,keypress(Space),,,,silence,,,,---- --------- ---------- a --- ------- -- --- ------------<br>----- -- -------- ------- ---- ------ - -------- ---- -----<br>--- ------- ---- -- --- -------- --- - ----- ------ ---- --<br>-------- --- -------- -------- --- -------- ---- -- ----- -<br>-------- ---- --- ---------- --------- -- ------- ------ -<br>--------- ----- -----,255259.80000001192,255259,254808.154,254827.69999998808,254841.428,255274.751,,3,a
screen,html.Screen,2_3_1_0_1_4,2022-02-15T12:24:11.692Z,,,,,,,,,,,,,,,,,15,,,,,,,,,,,,,,679.7490000000107,,response,,,,7,D,,,,,,Space,keypress(Space),,,,silence,,,,---- --------- ---------- - key ------- -- --- ------------<br>----- -- -------- ------- ---- ------ - -------- ---- -----<br>--- ------- ---- -- --- -------- --- - ----- ------ ---- --<br>-------- --- -------- -------- --- -------- ---- -- ----- -<br>-------- ---- --- ---------- --------- -- ------- ------ -<br>--------- ----- -----,255955.40000003576,255954.5,255241.477,255260.10000002384,255274.751,255974.864,,4,key
screen,html.Screen,2_3_1_0_1_5,2022-02-15T12:24:12.919Z,,,,,,,,,,,,,,,,,15,,,,,,,,,,,,,,1204.2360000238405,,response,,,,7,D,,,,,,Space,keypress(Space),,,,silence,,,,---- --------- ---------- - --- witness -- --- ------------<br>----- -- -------- ------- ---- ------ - -------- ---- -----<br>--- ------- ---- -- --- -------- --- - ----- ------ ---- --<br>-------- --- -------- -------- --- -------- ---- -- ----- -<br>-------- ---- --- ---------- --------- -- ------- ------ -<br>--------- ----- -----,257182.69999998808,257179.10000002384,255941.47,255955.60000002384,255974.864,257208.094,,5,witness
screen,html.Screen,2_3_1_0_1_6,2022-02-15T12:24:13.428Z,,,,,,,,,,,,,,,,,15,,,,,,,,,,,,,,482.6059999880672,,response,,,,7,D,,,,,,Space,keypress(Space),,,,silence,,,,---- --------- ---------- - --- ------- by --- ------------<br>----- -- -------- ------- ---- ------ - -------- ---- -----<br>--- ------- ---- -- --- -------- --- - ----- ------ ---- --<br>-------- --- -------- -------- --- -------- ---- -- ----- -<br>-------- ---- --- ---------- --------- -- ------- ------ -<br>--------- ----- -----,257691.60000002384,257690.69999998808,257174.78,257182.90000003576,257208.094,257708.154,,6,by
screen,html.Screen,2_3_1_0_1_7,2022-02-15T12:24:13.844Z,,,,,,,,,,,,,,,,,15,,,,,,,,,,,,,,398.34599999999045,,response,,,,7,D,,,,,,Space,keypress(Space),,,,silence,,,,---- --------- ---------- - --- ------- -- the ------------<br>----- -- -------- ------- ---- ------ - -------- ---- -----<br>--- ------- ---- -- --- -------- --- - ----- ------ ---- --<br>-------- --- -------- -------- --- -------- ---- -- ----- -<br>-------- ---- --- ---------- --------- -- ------- ------ -<br>--------- ----- -----,258107.40000003576,258106.5,257674.789,257691.80000001192,257708.154,258141.483,,7,the
screen,html.Screen,2_3_1_0_1_8,2022-02-15T12:24:15.916Z,,,,,,,,,,,,,,,,,15,,,,,,,,,,,,,,2037.1170000238344,,response,,,,7,D,,,,,,Space,keypress(Space),,,,silence,,,,"---- --------- ---------- - --- ------- -- --- prosecution,<br>----- -- -------- ------- ---- ------ - -------- ---- -----<br>--- ------- ---- -- --- -------- --- - ----- ------ ---- --<br>-------- --- -------- -------- --- -------- ---- -- ----- -<br>-------- ---- --- ---------- --------- -- ------- ------ -<br>--------- ----- -----",260179.5,260178.60000002384,258108.104,258107.60000002384,258141.483,260208.131,,8,"prosecution,"
screen,html.Screen,2_3_1_0_1_9,2022-02-15T12:24:17.484Z,,,,,,,,,,,,,,,,,15,,,,,,,,,,,,,,1538.5689999880851,,response,,,,7,D,,,,,,Space,keypress(Space),,,,silence,,,,---- --------- ---------- - --- ------- -- --- ------------<br>vowed -- -------- ------- ---- ------ - -------- ---- -----<br>--- ------- ---- -- --- -------- --- - ----- ------ ---- --<br>-------- --- -------- -------- --- -------- ---- -- ----- -<br>-------- ---- --- ---------- --------- -- ------- ------ -<br>--------- ----- -----,261747.60000002384,261746.69999998808,260174.741,260179.80000001192,260208.131,261774.688,,9,vowed
screen,html.Screen,2_3_1_0_1_10,2022-02-15T12:24:18.180Z,,,,,,,,,,,,,,,,,15,,,,,,,,,,,,,,667.9120000238472,,response,,,,7,D,,,,,,Space,keypress(Space),,,,silence,,,,---- --------- ---------- - --- ------- -- --- ------------<br>----- he -------- ------- ---- ------ - -------- ---- -----<br>--- ------- ---- -- --- -------- --- - ----- ------ ---- --<br>-------- --- -------- -------- --- -------- ---- -- ----- -<br>-------- ---- --- ---------- --------- -- ------- ------ -<br>--------- ----- -----,262443.5,262442.60000002384,261741.337,261748.10000002384,261774.688,262474.768,,10,he
screen,html.Screen,2_3_1_0_1_11,2022-02-15T12:24:19.093Z,,,,,,,,,,,,,,,,,15,,,,,,,,,,,,,,881.2320000000182,,response,,,,7,D,,,,,,Space,keypress(Space),,,,silence,,,,---- --------- ---------- - --- ------- -- --- ------------<br>----- -- wouldn't ------- ---- ------ - -------- ---- -----<br>--- ------- ---- -- --- -------- --- - ----- ------ ---- --<br>-------- --- -------- -------- --- -------- ---- -- ----- -<br>-------- ---- --- ---------- --------- -- ------- ------ -<br>--------- ----- -----,263356.90000003576,263356,262441.378,262443.8000000119,262474.768,263374.741,,11,wouldn't
screen,html.Screen,2_3_1_0_1_12,2022-02-15T12:24:20.492Z,,,,,,,,,,,,,,,,,15,,,,,,,,,,,,,,1379.8590000238619,,response,,,,7,D,,,,,,Space,keypress(Space),,,,silence,,,,---- --------- ---------- - --- ------- -- --- ------------<br>----- -- -------- testify ---- ------ - -------- ---- -----<br>--- ------- ---- -- --- -------- --- - ----- ------ ---- --<br>-------- --- -------- -------- --- -------- ---- -- ----- -<br>-------- ---- --- ---------- --------- -- ------- ------ -<br>--------- ----- -----,264755.60000002384,264754.60000002384,263341.261,263357.10000002384,263374.741,264774.729,,12,testify
screen,html.Screen,2_3_1_0_1_13,2022-02-15T12:24:20.956Z,,,,,,,,,,,,,,,,,15,,,,,,,,,,,,,,444.2710000000079,,response,,,,7,D,,,,,,Space,keypress(Space),,,,silence,,,,---- --------- ---------- - --- ------- -- --- ------------<br>----- -- -------- ------- when ------ - -------- ---- -----<br>--- ------- ---- -- --- -------- --- - ----- ------ ---- --<br>-------- --- -------- -------- --- -------- ---- -- ----- -<br>-------- ---- --- ---------- --------- -- ------- ------ -<br>--------- ----- -----,265219.8000000119,265219,264741.344,264755.8000000119,264774.729,265241.395,,13,when
screen,html.Screen,2_3_1_0_1_14,2022-02-15T12:24:21.612Z,,,,,,,,,,,,,,,,,15,,,,,,,,,,,,,,633.2050000238232,,response,,,,7,D,,,,,,Space,keypress(Space),,,,silence,,,,---- --------- ---------- - --- ------- -- --- ------------<br>----- -- -------- ------- ---- served - -------- ---- -----<br>--- ------- ---- -- --- -------- --- - ----- ------ ---- --<br>-------- --- -------- -------- --- -------- ---- -- ----- -<br>-------- ---- --- ---------- --------- -- ------- ------ -<br>--------- ----- -----,265875.40000003576,265874.60000002384,265208.003,265220,265241.395,265907.948,,14,served
screen,html.Screen,2_3_1_0_1_15,2022-02-15T12:24:22.028Z,,,,,,,,,,,,,,,,,15,,,,,,,,,,,,,,382.652000023867,,response,,,,7,D,,,,,,Space,keypress(Space),,,,silence,,,,---- --------- ---------- - --- ------- -- --- ------------<br>----- -- -------- ------- ---- ------ a -------- ---- -----<br>--- ------- ---- -- --- -------- --- - ----- ------ ---- --<br>-------- --- -------- -------- --- -------- ---- -- ----- -<br>-------- ---- --- ---------- --------- -- ------- ------ -<br>--------- ----- -----,266291.5,266290.60000002384,265874.694,265875.8000000119,265907.948,266308.051,,15,a
screen,html.Screen,2_3_1_0_1_16,2022-02-15T12:24:23.674Z,,,,,,,,,,,,,,,,,15,,,,,,,,,,,,,,1629.4490000000224,,response,,,,7,D,,,,,,Space,keypress(Space),,,,silence,,,,---- --------- ---------- - --- ------- -- --- ------------<br>----- -- -------- ------- ---- ------ - subpoena ---- -----<br>--- ------- ---- -- --- -------- --- - ----- ------ ---- --<br>-------- --- -------- -------- --- -------- ---- -- ----- -<br>-------- ---- --- ---------- --------- -- ------- ------ -<br>--------- ----- -----,267938,267937.5,266274.652,266291.6999999881,266308.051,267941.132,,16,subpoena
screen,html.Screen,2_3_1_0_1_17,2022-02-15T12:24:24.292Z,,,,,,,,,,,,,,,,,15,,,,,,,,,,,,,,613.4680000238586,,response,,,,7,D,,,,,,Space,keypress(Space),,,,silence,,,,---- --------- ---------- - --- ------- -- --- ------------<br>----- -- -------- ------- ---- ------ - -------- last -----<br>--- ------- ---- -- --- -------- --- - ----- ------ ---- --<br>-------- --- -------- -------- --- -------- ---- -- ----- -<br>-------- ---- --- ---------- --------- -- ------- ------ -<br>--------- ----- -----,268555.40000003576,268554.60000002384,267908.032,267938,267941.132,268574.688,,17,last
screen,html.Screen,2_3_1_0_1_18,2022-02-15T12:24:26.940Z,,,,,,,,,,,,,,,,,15,,,,,,,,,,,,,,2628.0119999880553,,response,,,,7,D,,,,,,Space,keypress(Space),,,,silence,,,,---- --------- ---------- - --- ------- -- --- ------------<br>----- -- -------- ------- ---- ------ - -------- ---- week.<br>--- ------- ---- -- --- -------- --- - ----- ------ ---- --<br>-------- --- -------- -------- --- -------- ---- -- ----- -<br>-------- ---- --- ---------- --------- -- ------- ------ -<br>--------- ----- -----,271203.60000002384,271202.6999999881,268541.256,268555.6999999881,268574.688,271207.962,,18,week.
screen,html.Screen,2_3_1_0_1_19,2022-02-15T12:24:27.516Z,,,,,,,,,,,,,,,,,15,,,,,,,,,,,,,,571.1380000238423,,response,,,,7,D,,,,,,Space,keypress(Space),,,,silence,,,,---- --------- ---------- - --- ------- -- --- ------------<br>----- -- -------- ------- ---- ------ - -------- ---- -----<br>His ------- ---- -- --- -------- --- - ----- ------ ---- --<br>-------- --- -------- -------- --- -------- ---- -- ----- -<br>-------- ---- --- ---------- --------- -- ------- ------ -<br>--------- ----- -----,271780.10000002384,271779.10000002384,271174.592,271203.90000003576,271207.962,271807.959,,19,His
screen,html.Screen,2_3_1_0_1_20,2022-02-15T12:24:27.972Z,,,,,,,,,,,,,,,,,15,,,,,,,,,,,,,,426.6410000238684,,response,,,,7,D,,,,,,Space,keypress(Space),,,,silence,,,,---- --------- ---------- - --- ------- -- --- ------------<br>----- -- -------- ------- ---- ------ - -------- ---- -----<br>--- lawyers ---- -- --- -------- --- - ----- ------ ---- --<br>-------- --- -------- -------- --- -------- ---- -- ----- -<br>-------- ---- --- ---------- --------- -- ------- ------ -<br>--------- ----- -----,272235.40000003576,272234.60000002384,271774.589,271780.3000000119,271807.959,272241.243,,20,lawyers
screen,html.Screen,2_3_1_0_1_21,2022-02-15T12:24:28.476Z,,,,,,,,,,,,,,,,,15,,,,,,,,,,,,,,497.25699999998324,,response,,,,7,D,,,,,,Space,keypress(Space),,,,silence,,,,---- --------- ---------- - --- ------- -- --- ------------<br>----- -- -------- ------- ---- ------ - -------- ---- -----<br>--- ------- said -- --- -------- --- - ----- ------ ---- --<br>-------- --- -------- -------- --- -------- ---- -- ----- -<br>-------- ---- --- ---------- --------- -- ------- ------ -<br>--------- ----- -----,272739.40000003576,272738.5,272207.925,272235.6999999881,272241.243,272787.168,,21,said
screen,html.Screen,2_3_1_0_1_22,2022-02-15T12:24:28.980Z,,,,,,,,,,,,,,,,,15,,,,,,,,,,,,,,455.6320000119158,,response,,,,7,D,,,,,,Space,keypress(Space),,,,silence,,,,---- --------- ---------- - --- ------- -- --- ------------<br>----- -- -------- ------- ---- ------ - -------- ---- -----<br>--- ------- ---- he --- -------- --- - ----- ------ ---- --<br>-------- --- -------- -------- --- -------- ---- -- ----- -<br>-------- ---- --- ---------- --------- -- ------- ------ -<br>--------- ----- -----,273243.60000002384,273242.8000000119,272707.926,272739.60000002384,272787.168,273274.612,,22,he
screen,html.Screen,2_3_1_0_1_23,2022-02-15T12:24:29.429Z,,,,,,,,,,,,,,,,,15,,,,,,,,,,,,,,417.08799998805625,,response,,,,7,D,,,,,,Space,keypress(Space),,,,silence,,,,---- --------- ---------- - --- ------- -- --- ------------<br>----- -- -------- ------- ---- ------ - -------- ---- -----<br>--- ------- ---- -- was -------- --- - ----- ------ ---- --<br>-------- --- -------- -------- --- -------- ---- -- ----- -<br>-------- ---- --- ---------- --------- -- ------- ------ -<br>--------- ----- -----,273692.5,273691.6999999881,273241.216,273243.8000000119,273274.612,273707.842,,23,was
screen,html.Screen,2_3_1_0_1_24,2022-02-15T12:24:30.028Z,,,,,,,,,,,,,,,,,15,,,,,,,,,,,,,,582.7580000238377,,response,,,,7,D,,,,,,Space,keypress(Space),,,,silence,,,,---- --------- ---------- - --- ------- -- --- ------------<br>----- -- -------- ------- ---- ------ - -------- ---- -----<br>--- ------- ---- -- --- prepared --- - ----- ------ ---- --<br>-------- --- -------- -------- --- -------- ---- -- ----- -<br>-------- ---- --- ---------- --------- -- ------- ------ -<br>--------- ----- -----,274291.5,274290.60000002384,273674.563,273692.90000003576,273707.842,274307.827,,24,prepared
screen,html.Screen,2_3_1_0_1_25,2022-02-15T12:24:30.450Z,,,,,,,,,,,,,,,,,15,,,,,,,,,,,,,,405.6730000000098,,response,,,,7,D,,,,,,Space,keypress(Space),,,,silence,,,,---- --------- ---------- - --- ------- -- --- ------------<br>----- -- -------- ------- ---- ------ - -------- ---- -----<br>--- ------- ---- -- --- -------- for - ----- ------ ---- --<br>-------- --- -------- -------- --- -------- ---- -- ----- -<br>-------- ---- --- ---------- --------- -- ------- ------ -<br>--------- ----- -----,274713.8000000119,274713.5,274274.567,274291.6999999881,274307.827,274741.197,,25,for
screen,html.Screen,2_3_1_0_1_26,2022-02-15T12:24:30.836Z,,,,,,,,,,,,,,,,,15,,,,,,,,,,,,,,357.9030000238563,,response,,,,7,D,,,,,,Space,keypress(Space),,,,silence,,,,---- --------- ---------- - --- ------- -- --- ------------<br>----- -- -------- ------- ---- ------ - -------- ---- -----<br>--- ------- ---- -- --- -------- --- a ----- ------ ---- --<br>-------- --- -------- -------- --- -------- ---- -- ----- -<br>-------- ---- --- ---------- --------- -- ------- ------ -<br>--------- ----- -----,275099.90000003576,275099.10000002384,274707.866,274713.90000003576,274741.197,275107.796,,26,a
screen,html.Screen,2_3_1_0_1_27,2022-02-15T12:24:31.428Z,,,,,,,,,,,,,,,,,15,,,,,,,,,,,,,,582.8040000238689,,response,,,,7,D,,,,,,Space,keypress(Space),,,,silence,,,,---- --------- ---------- - --- ------- -- --- ------------<br>----- -- -------- ------- ---- ------ - -------- ---- -----<br>--- ------- ---- -- --- -------- --- - third ------ ---- --<br>-------- --- -------- -------- --- -------- ---- -- ----- -<br>-------- ---- --- ---------- --------- -- ------- ------ -<br>--------- ----- -----,275691.5,275690.60000002384,275074.542,275100.1999999881,275107.796,275707.919,,27,third
screen,html.Screen,2_3_1_0_1_28,2022-02-15T12:24:31.812Z,,,,,,,,,,,,,,,,,15,,,,,,,,,,,,,,366.9810000357684,,response,,,,7,D,,,,,,Space,keypress(Space),,,,silence,,,,---- --------- ---------- - --- ------- -- --- ------------<br>----- -- -------- ------- ---- ------ - -------- ---- -----<br>--- ------- ---- -- --- -------- --- - ----- prison ---- --<br>-------- --- -------- -------- --- -------- ---- -- ----- -<br>-------- ---- --- ---------- --------- -- ------- ------ -<br>--------- ----- -----,276075.6999999881,276074.90000003576,275674.529,275691.6999999881,275707.919,276107.911,,28,prison
screen,html.Screen,2_3_1_0_1_29,2022-02-15T12:24:32.284Z,,,,,,,,,,,,,,,,,15,,,,,,,,,,,,,,438.88900001189904,,response,,,,7,D,,,,,,Space,keypress(Space),,,,silence,,,,---- --------- ---------- - --- ------- -- --- ------------<br>----- -- -------- ------- ---- ------ - -------- ---- -----<br>--- ------- ---- -- --- -------- --- - ----- ------ stay --<br>-------- --- -------- -------- --- -------- ---- -- ----- -<br>-------- ---- --- ---------- --------- -- ------- ------ -<br>--------- ----- -----,276547.60000002384,276546.8000000119,276074.526,276076.10000002384,276107.911,276574.567,,29,stay
screen,html.Screen,2_3_1_0_1_30,2022-02-15T12:24:32.756Z,,,,,,,,,,,,,,,,,15,,,,,,,,,,,,,,444.13299998809816,,response,,,,7,D,,,,,,Space,keypress(Space),,,,silence,,,,---- --------- ---------- - --- ------- -- --- ------------<br>----- -- -------- ------- ---- ------ - -------- ---- -----<br>--- ------- ---- -- --- -------- --- - ----- ------ ---- to<br>-------- --- -------- -------- --- -------- ---- -- ----- -<br>-------- ---- --- ---------- --------- -- ------- ------ -<br>--------- ----- -----,277019.60000002384,277018.6999999881,276541.208,276547.8000000119,276574.567,277041.228,,30,to
screen,html.Screen,2_3_1_0_1_31,2022-02-15T12:24:33.580Z,,,,,,,,,,,,,,,,,15,,,,,,,,,,,,,,801.4719999880763,,response,,,,7,D,,,,,,Space,keypress(Space),,,,silence,,,,---- --------- ---------- - --- ------- -- --- ------------<br>----- -- -------- ------- ---- ------ - -------- ---- -----<br>--- ------- ---- -- --- -------- --- - ----- ------ ---- --<br>maintain --- -------- -------- --- -------- ---- -- ----- -<br>-------- ---- --- ---------- --------- -- ------- ------ -<br>--------- ----- -----,277843.5,277842.6999999881,277007.876,277019.8000000119,277041.228,277874.553,,31,maintain
screen,html.Screen,2_3_1_0_1_32,2022-02-15T12:24:33.996Z,,,,,,,,,,,,,,,,,15,,,,,,,,,,,,,,384.2470000119065,,response,,,,7,D,,,,,,Space,keypress(Space),,,,silence,,,,---- --------- ---------- - --- ------- -- --- ------------<br>----- -- -------- ------- ---- ------ - -------- ---- -----<br>--- ------- ---- -- --- -------- --- - ----- ------ ---- --<br>-------- his -------- -------- --- -------- ---- -- ----- -<br>-------- ---- --- ---------- --------- -- ------- ------ -<br>--------- ----- -----,278259.6999999881,278258.8000000119,277841.158,277843.8000000119,277874.553,278274.437,,32,his
screen,html.Screen,2_3_1_0_1_33,2022-02-15T12:24:34.364Z,,,,,,,,,,,,,,,,,15,,,,,,,,,,,,,,352.06300000002375,,response,,,,7,D,,,,,,Space,keypress(Space),,,,silence,,,,---- --------- ---------- - --- ------- -- --- ------------<br>----- -- -------- ------- ---- ------ - -------- ---- -----<br>--- ------- ---- -- --- -------- --- - ----- ------ ---- --<br>-------- --- silence. -------- --- -------- ---- -- ----- -<br>-------- ---- --- ---------- --------- -- ------- ------ -<br>--------- ----- -----,278627.3000000119,278626.5,278241.161,278259.90000003576,278274.437,278641.103,,33,silence.
screen,html.Screen,2_3_1_0_1_34,2022-02-15T12:24:36.252Z,,,,,,,,,,,,,,,,,15,,,,,,,,,,,,,,1873.997000023839,,response,,,,7,D,,,,,,Space,keypress(Space),,,,silence,,,,---- --------- ---------- - --- ------- -- --- ------------<br>----- -- -------- ------- ---- ------ - -------- ---- -----<br>--- ------- ---- -- --- -------- --- - ----- ------ ---- --<br>-------- --- -------- Anderson --- -------- ---- -- ----- -<br>-------- ---- --- ---------- --------- -- ------- ------ -<br>--------- ----- -----,280516.1999999881,280515.10000002384,278607.823,278627.5,278641.103,280541.192,,34,Anderson
screen,html.Screen,2_3_1_0_1_35,2022-02-15T12:24:36.524Z,,,,,,,,,,,,,,,,,15,,,,,,,,,,,,,,245.50799998809816,,response,,,,7,D,,,,,,Space,keypress(Space),,,,silence,,,,---- --------- ---------- - --- ------- -- --- ------------<br>----- -- -------- ------- ---- ------ - -------- ---- -----<br>--- ------- ---- -- --- -------- --- - ----- ------ ---- --<br>-------- --- -------- -------- was -------- ---- -- ----- -<br>-------- ---- --- ---------- --------- -- ------- ------ -<br>--------- ----- -----,280787.5,280786.6999999881,280507.804,280516.40000003576,280541.192,280807.844,,35,was
screen,html.Screen,2_3_1_0_1_36,2022-02-15T12:24:37.052Z,,,,,,,,,,,,,,,,,15,,,,,,,,,,,,,,506.7560000238591,,response,,,,7,D,,,,,,Space,keypress(Space),,,,silence,,,,---- --------- ---------- - --- ------- -- --- ------------<br>----- -- -------- ------- ---- ------ - -------- ---- -----<br>--- ------- ---- -- --- -------- --- - ----- ------ ---- --<br>-------- --- -------- -------- --- released ---- -- ----- -<br>-------- ---- --- ---------- --------- -- ------- ------ -<br>--------- ----- -----,281315.40000003576,281314.60000002384,280774.46,280787.6999999881,280807.844,281341.161,,36,released
screen,html.Screen,2_3_1_0_1_37,2022-02-15T12:24:37.644Z,,,,,,,,,,,,,,,,,15,,,,,,,,,,,,,,566.139000011899,,response,,,,7,D,,,,,,Space,keypress(Space),,,,silence,,,,---- --------- ---------- - --- ------- -- --- ------------<br>----- -- -------- ------- ---- ------ - -------- ---- -----<br>--- ------- ---- -- --- -------- --- - ----- ------ ---- --<br>-------- --- -------- -------- --- -------- July -- ----- -<br>-------- ---- --- ---------- --------- -- ------- ------ -<br>--------- ----- -----,281908.1999999881,281907.3000000119,281307.78,281315.6999999881,281341.161,281941.17,,37,July
screen,html.Screen,2_3_1_0_1_38,2022-02-15T12:24:38.220Z,,,,,,,,,,,,,,,,,15,,,,,,,,,,,,,,541.7300000357791,,response,,,,7,D,,,,,,Space,keypress(Space),,,,silence,,,,---- --------- ---------- - --- ------- -- --- ------------<br>----- -- -------- ------- ---- ------ - -------- ---- -----<br>--- ------- ---- -- --- -------- --- - ----- ------ ---- --<br>-------- --- -------- -------- --- -------- ---- 20 ----- -<br>-------- ---- --- ---------- --------- -- ------- ------ -<br>--------- ----- -----,282483.6999999881,282482.90000003576,281907.773,281908.5,281941.17,282507.823,,38,20
screen,html.Screen,2_3_1_0_1_39,2022-02-15T12:24:38.852Z,,,,,,,,,,,,,,,,,15,,,,,,,,,,,,,,606.777000023867,,response,,,,7,D,,,,,,Space,keypress(Space),,,,silence,,,,---- --------- ---------- - --- ------- -- --- ------------<br>----- -- -------- ------- ---- ------ - -------- ---- -----<br>--- ------- ---- -- --- -------- --- - ----- ------ ---- --<br>-------- --- -------- -------- --- -------- ---- -- after -<br>-------- ---- --- ---------- --------- -- ------- ------ -<br>--------- ----- -----,283115.5,283114.60000002384,282474.434,282484,282507.823,283141.187,,39,after
screen,html.Screen,2_3_1_0_1_40,2022-02-15T12:24:39.533Z,,,,,,,,,,,,,,,,,15,,,,,,,,,,,,,,654.4130000238656,,response,,,,7,D,,,,,,Space,keypress(Space),,,,silence,,,,---- --------- ---------- - --- ------- -- --- ------------<br>----- -- -------- ------- ---- ------ - -------- ---- -----<br>--- ------- ---- -- --- -------- --- - ----- ------ ---- --<br>-------- --- -------- -------- --- -------- ---- -- ----- a<br>-------- ---- --- ---------- --------- -- ------- ------ -<br>--------- ----- -----,283796.5,283795.60000002384,283107.782,283115.8000000119,283141.187,283807.689,,40,a
