sender,sender_type,sender_id,timestamp,meta,,Blues,Classical,Country,Dance,Electronic,Folk,Gospel,Hip-Hop,Jazz,Latin,Musical/Film,New-age,Pop,Prolific_id,Provo_ID,R&B,Rap,Reggae,Religious,Rock,Soul,Swing,Traditional,age,artist_name,correct,correctResponse,distraction,duration,education,ended_on,familiarity,gender,headphone_check_performance,item,list,music_frequency,offensiveness,pleasantness,position_correct,preference,response,response_action,snippet_file,song_name,song_rating,sound,stimulus_1,stimulus_2,stimulus_3,text,time_commit,time_end,time_render,time_run,time_show,time_switch,url,word,word_ID
Prolific ID,html.Form,0,2022-02-01T13:04:56.929Z,"{""labjs_version"":""20.2.2"",""labjs_build"":{""flavor"":""production"",""commit"":""a25486e0c714a0ae2ce03ff94b7bb6896854dcfa""},""location"":""https://run.pavlovia.org/mvasilev/prolific2_music_c/"",""userAgent"":""Mozilla/5.0 (Windows NT 10.0; Win64; x64) AppleWebKit/537.36 (KHTML, like Gecko) Chrome/97.0.4692.99 Safari/537.36"",""platform"":""Win32"",""language"":""en-GB"",""locale"":""en-GB"",""timeZone"":""Europe/London"",""timezoneOffset"":0,""screen_width"":1280,""screen_height"":720,""scroll_width"":1280,""scroll_height"":553,""window_innerWidth"":1280,""window_innerHeight"":601,""devicePixelRatio"":1.5}",,,,,,,,,,,,,,,609ac2fa3340da7e2c5557ee,,,,,,,,,,,,,,,16820.43399998808,,form submission,,,,,,,,,,,,,,,,,,,,,26289.40000000596,26288.69999998808,9449.526,9455.5,9468.266,26303.336,{},,
Introduction,html.Screen,1_0,2022-02-01T13:05:02.471Z,,,,,,,,,,,,,,,,,,,,,,,,,,,,,,,5523.664000000001,,response,,,,,,,,,,,continue,click button,,,,,,,,,31830.79999998212,31827,26286.604,26289.59999999404,26303.336,31842.742,,,
Volume calibration,html.Screen,1_1,2022-02-01T13:05:39.551Z,,,,,,,,,,,,,,,,,,,,,,,,,,,,,,,37064.05799998212,,response,,,,,,,,,,,continue,click button,,,,,,,,,68911.40000000596,68906.79999998212,31825.985,31831.09999999404,31842.742,68916.594,,,
Task instructions,html.Screen,1_2,2022-02-01T13:05:59.823Z,,,,,,,,,,,,,,,,,,,,,,,,,,,,,,,20265.505999994042,,response,,,,,,,,,,,continue,click button,,,,,,,,,89183.19999998808,89182.09999999404,68899.852,68911.59999999404,68916.594,89188.807,,,
Sounds,html.Screen,1_3_0_0,2022-02-01T13:06:04.070Z,,,,,,,,,,,,,,,,,,,,,,,,,,,,,,,4254.573000000004,,timeout,,,,,,,,,2,,,,,,,,I,S,O,,93430.09999999404,93426.995,89172.142,89183.5,89188.807,93443.38,,,
Judgement,html.Screen,1_3_0_1,2022-02-01T13:06:05.096Z,,,,,,,,,,,,,,,,,,,,,,,,,,,,true,2,,1012.1199999999953,,response,,,,,,,,,2,,2,click #choice-2,,,,,I,S,O,,94456.69999998808,94455.5,93426.995,93430.19999998808,93443.38,94461.188,,,
Trial,flow.Sequence,1_3_0,2022-02-01T13:06:05.097Z,,,,,,,,,,,,,,,,,,,,,,,,,,,,,,,5266.692999999999,,completion,,,,,,,,,2,,,,,,,,I,S,O,,94457,94455.5,89172.142,89183.5,89188.807,94461.188,,,
Sounds,html.Screen,1_3_1_0,2022-02-01T13:06:09.340Z,,,,,,,,,,,,,,,,,,,,,,,,,,,,,,,4254.56700000001,,timeout,,,,,,,,,2,,,,,,,,O,S,I,,98700.09999999404,98699.105,94444.435,94457.19999998808,94461.188,98715.755,,,
Judgement,html.Screen,1_3_1_1,2022-02-01T13:06:10.010Z,,,,,,,,,,,,,,,,,,,,,,,,,,,,true,2,,653.044999982114,,response,,,,,,,,,2,,2,click #choice-2,,,,,O,S,I,,99370.09999999404,99368.79999998212,98699.105,98700.40000000596,98715.755,99383.253,,,
Trial,flow.Sequence,1_3_1,2022-02-01T13:06:10.010Z,,,,,,,,,,,,,,,,,,,,,,,,,,,,,,,4907.611999982124,,completion,,,,,,,,,2,,,,,,,,O,S,I,,99370.40000000596,99368.79999998212,94444.435,94457.09999999404,94461.188,99383.253,,,
Sounds,html.Screen,1_3_2_0,2022-02-01T13:06:14.261Z,,,,,,,,,,,,,,,,,,,,,,,,,,,,,,,4254.5610000000015,,timeout,,,,,,,,,3,,,,,,,,O,I,S,,103621.79999998212,103621.171,99366.729,99370.69999998808,99383.253,103637.814,,,
Judgement,html.Screen,1_3_2_1,2022-02-01T13:06:14.858Z,,,,,,,,,,,,,,,,,,,,,,,,,,,,true,3,,578.9859999821201,,response,,,,,,,,,3,,3,click #choice-3,,,,,O,I,S,,104218,104216.79999998212,103621.171,103622,103637.814,104221.865,,,
Trial,flow.Sequence,1_3_2,2022-02-01T13:06:14.858Z,,,,,,,,,,,,,,,,,,,,,,,,,,,,,,,4833.546999982122,,completion,,,,,,,,,3,,,,,,,,O,I,S,,104218.29999998212,104216.79999998212,99366.729,99370.59999999404,99383.253,104221.865,,,
Sounds,html.Screen,1_3_3_0,2022-02-01T13:06:19.100Z,,,,,,,,,,,,,,,,,,,,,,,,,,,,,,,4254.572,,timeout,,,,,,,,,1,,,,,,,,S,I,O,,108460.40000000596,108459.767,104205.006,104218.59999999404,104221.865,108476.437,,,
Judgement,html.Screen,1_3_3_1,2022-02-01T13:06:20.193Z,,,,,,,,,,,,,,,,,,,,,,,,,,,,true,1,,1075.2629999880737,,response,,,,,,,,,1,,1,click #choice-1,,,,,S,I,O,,109553.19999998808,109551.69999998808,108459.767,108460.59999999404,108476.437,109561.003,,,
Trial,flow.Sequence,1_3_3,2022-02-01T13:06:20.193Z,,,,,,,,,,,,,,,,,,,,,,,,,,,,,,,5329.834999988074,,completion,,,,,,,,,1,,,,,,,,S,I,O,,109553.5,109551.69999998808,104205.006,104218.5,104221.865,109561.003,,,
Sounds,html.Screen,1_3_4_0,2022-02-01T13:06:24.439Z,,,,,,,,,,,,,,,,,,,,,,,,,,,,,,,4254.610000000001,,timeout,,,,,,,,,1,,,,,,,,S,O,I,,113799.79999998212,113799.024,109535.743,109553.59999999404,109561.003,113815.613,,,
Judgement,html.Screen,1_3_4_1,2022-02-01T13:06:26.805Z,,,,,,,,,,,,,,,,,,,,,,,,,,,,false,1,,2349.0869999880815,,response,,,,,,,,,1,,2,click #choice-2,,,,,S,O,I,,116165.69999998808,116164.69999998808,113799.024,113799.90000000596,113815.613,116168.206,,,
Trial,flow.Sequence,1_3_4,2022-02-01T13:06:26.805Z,,,,,,,,,,,,,,,,,,,,,,,,,,,,,,,6603.696999988082,,completion,,,,,,,,,1,,,,,,,,S,O,I,,116165.90000000596,116164.69999998808,109535.743,109553.5,109561.003,116168.206,,,
Sounds,html.Screen,1_3_5_0,2022-02-01T13:06:31.047Z,,,,,,,,,,,,,,,,,,,,,,,,,,,,,,,4254.614000000001,,timeout,,,,,,,,,3,,,,,,,,I,O,S,,120407.90000000596,120406.151,116151.484,116166,116168.206,120422.82,,,
Judgement,html.Screen,1_3_5_1,2022-02-01T13:06:31.747Z,,,,,,,,,,,,,,,,,,,,,,,,,,,,true,3,,682.679999999993,,response,,,,,,,,,3,,3,click #choice-3,,,,,I,O,S,,121107,121105.5,120406.151,120407.90000000596,120422.82,121107.033,,,
Trial,flow.Sequence,1_3_5,2022-02-01T13:06:31.747Z,,,,,,,,,,,,,,,,,,,,,,,,,,,,,,,4937.293999999994,,completion,,,,,,,,,3,,,,,,,,I,O,S,,121107.19999998808,121105.5,116151.484,116166,116168.206,121107.033,,,
Task,flow.Loop,1_3,2022-02-01T13:06:31.753Z,,,,,,,,,,,,,,,,,,,,,,,,,,,,,,,31916.693,,completion,,,0.8333333333333334,,,,,,,,,,,,,,,,,,121113.79999998212,121105.5,89172.142,89183.40000000596,89188.807,121107.033,,,
Trap,html.Screen,1_4,2022-02-01T13:06:31.755Z,,,,,,,,,,,,,,,,,,,,,,,,,,,,,,,NaN,,skipped,,,,,,,,,,,,,,,,,,,,,121115.29999998212,121105.5,,121115.29999998212,,121107.033,,,
Thanks,html.Screen,1_5,2022-02-01T13:06:35.215Z,,,,,,,,,,,,,,,,,,,,,,,,,,,,,,,3467.3670000059647,,response,,,,,,,,,,,continue,click button,,,,,,,,,124575.29999998212,124574.40000000596,121090.28,121115.59999999404,121107.033,126596.299,,,
Headphone screening,flow.Sequence,1,2022-02-01T13:06:35.215Z,,,,,,,,,,,,,,,,,,,,,,,,,,,,,,,98271.06400000596,,completion,,,,,,,,,,,,,,,,,,,,,124575.5,124574.40000000596,26286.604,26289.59999999404,26303.336,126596.299,,,
Instructions,html.Page,2_0,2022-02-01T13:06:57.055Z,,,,,,,,,,,,,,,,,,,,,,,,,,,,,,,19818.701,,form submission,,,,,,,,,,,,,,,,,,,,,146415.5,146415,126579.603,126592.29999998212,126596.299,146417.951,,,
Holding screen,html.Screen,2_1_0_0,2022-02-01T13:07:07.036Z,,,,,,,,,,,,,,,,,,,,,,,,,,,,,,,9994.261999999988,,timeout,,,,,,,,,,,,,,,,,,,,,156396.79999998212,156396.071,146401.252,146415.90000000596,146417.951,156412.213,,,
screen,html.Screen,2_1_0_1_0,2022-02-01T13:07:07.836Z,,,,,,,,,,,,,,,,,53,,,,,,,,,,,,,,782.0869999821298,,response,,,,99,,,,,,,Space,keypress(Space),,,,,,,,When -- ----- -- ------ - ------- --- ----------<br>------------- ------ ------ ---- ---- ------- ----- -- ----<br>-------- ------- -- ---------- --- - --- ----- ----- ----<br>---- --- --- ----- --- ---- ---- ------- ----- ---- -------<br>--- --- -- ----- -- --- ---- -- --- ---- -- ------ ------<br>--- ----- -- ----,157196,157194.29999998212,156396.071,156397,156412.213,157213.08,,0,When
screen,html.Screen,2_1_0_1_1,2022-02-01T13:07:08.147Z,,,,,,,,,,,,,,,,,53,,,,,,,,,,,,,,293.9200000000128,,response,,,,99,,,,,,,Space,keypress(Space),,,,,,,,---- it ----- -- ------ - ------- --- ----------<br>------------- ------ ------ ---- ---- ------- ----- -- ----<br>-------- ------- -- ---------- --- - --- ----- ----- ----<br>---- --- --- ----- --- ---- ---- ------- ----- ---- -------<br>--- --- -- ----- -- --- ---- -- --- ---- -- ------ ------<br>--- ----- -- ----,157507.40000000596,157507,157196.135,157196.09999999404,157213.08,157513.382,,1,it
screen,html.Screen,2_1_0_1_2,2022-02-01T13:07:08.567Z,,,,,,,,,,,,,,,,,53,,,,,,,,,,,,,,412.91799998210627,,response,,,,99,,,,,,,Space,keypress(Space),,,,,,,,---- -- comes -- ------ - ------- --- ----------<br>------------- ------ ------ ---- ---- ------- ----- -- ----<br>-------- ------- -- ---------- --- - --- ----- ----- ----<br>---- --- --- ----- --- ---- ---- ------- ----- ---- -------<br>--- --- -- ----- -- --- ---- -- --- ---- -- ------ ------<br>--- ----- -- ----,157927.09999999404,157926.29999998212,157496.691,157507.5,157513.382,157930.545,,2,comes
screen,html.Screen,2_1_0_1_3,2022-02-01T13:07:08.951Z,,,,,,,,,,,,,,,,,53,,,,,,,,,,,,,,380.15499998806627,,response,,,,99,,,,,,,Space,keypress(Space),,,,,,,,---- -- ----- to ------ - ------- --- ----------<br>------------- ------ ------ ---- ---- ------- ----- -- ----<br>-------- ------- -- ---------- --- - --- ----- ----- ----<br>---- --- --- ----- --- ---- ---- ------- ----- ---- -------<br>--- --- -- ----- -- --- ---- -- --- ---- -- ------ ------<br>--- ----- -- ----,158311.5,158310.69999998808,157914.358,157927.19999998808,157930.545,158314.347,,3,to
screen,html.Screen,2_1_0_1_4,2022-02-01T13:07:09.417Z,,,,,,,,,,,,,,,,,53,,,,,,,,,,,,,,461.8529999880702,,response,,,,99,,,,,,,Space,keypress(Space),,,,,,,,---- -- ----- -- having - ------- --- ----------<br>------------- ------ ------ ---- ---- ------- ----- -- ----<br>-------- ------- -- ---------- --- - --- ----- ----- ----<br>---- --- --- ----- --- ---- ---- ------- ----- ---- -------<br>--- --- -- ----- -- --- ---- -- --- ---- -- ------ ------<br>--- ----- -- ----,158776.90000000596,158776.19999998808,158297.497,158311.69999998808,158314.347,158781.541,,4,having
screen,html.Screen,2_1_0_1_5,2022-02-01T13:07:09.756Z,,,,,,,,,,,,,,,,,53,,,,,,,,,,,,,,333.95900000000256,,response,,,,99,,,,,,,Space,keypress(Space),,,,,,,,---- -- ----- -- ------ a ------- --- ----------<br>------------- ------ ------ ---- ---- ------- ----- -- ----<br>-------- ------- -- ---------- --- - --- ----- ----- ----<br>---- --- --- ----- --- ---- ---- ------- ----- ---- -------<br>--- --- -- ----- -- --- ---- -- --- ---- -- ------ ------<br>--- ----- -- ----,159116.09999999404,159115.5,158765.01,158777.09999999404,158781.541,159131.806,,5,a
screen,html.Screen,2_1_0_1_6,2022-02-01T13:07:10.155Z,,,,,,,,,,,,,,,,,53,,,,,,,,,,,,,,382.39399998806766,,response,,,,99,,,,,,,Space,keypress(Space),,,,,,,,---- -- ----- -- ------ - lasting --- ----------<br>------------- ------ ------ ---- ---- ------- ----- -- ----<br>-------- ------- -- ---------- --- - --- ----- ----- ----<br>---- --- --- ----- --- ---- ---- ------- ----- ---- -------<br>--- --- -- ----- -- --- ---- -- --- ---- -- ------ ------<br>--- ----- -- ----,159514.90000000596,159514.19999998808,159115.085,159116.19999998808,159131.806,159548.991,,6,lasting
screen,html.Screen,2_1_0_1_7,2022-02-01T13:07:10.614Z,,,,,,,,,,,,,,,,,53,,,,,,,,,,,,,,424.9090000059514,,response,,,,99,,,,,,,Space,keypress(Space),,,,,,,,---- -- ----- -- ------ - ------- and ----------<br>------------- ------ ------ ---- ---- ------- ----- -- ----<br>-------- ------- -- ---------- --- - --- ----- ----- ----<br>---- --- --- ----- --- ---- ---- ------- ----- ---- -------<br>--- --- -- ----- -- --- ---- -- --- ---- -- ------ ------<br>--- ----- -- ----,159974.40000000596,159973.90000000596,159532.352,159515.09999999404,159548.991,159982.733,,7,and
screen,html.Screen,2_1_0_1_8,2022-02-01T13:07:11.096Z,,,,,,,,,,,,,,,,,53,,,,,,,,,,,,,,472.667000005953,,response,,,,99,,,,,,,Space,keypress(Space),,,,,,,,---- -- ----- -- ------ - ------- --- fulfilling<br>------------- ------ ------ ---- ---- ------- ----- -- ----<br>-------- ------- -- ---------- --- - --- ----- ----- ----<br>---- --- --- ----- --- ---- ---- ------- ----- ---- -------<br>--- --- -- ----- -- --- ---- -- --- ---- -- ------ ------<br>--- ----- -- ----,160456.09999999404,160455.40000000596,159965.961,159974.59999999404,159982.733,160466.611,,8,fulfilling
screen,html.Screen,2_1_0_1_9,2022-02-01T13:07:11.541Z,,,,,,,,,,,,,,,,,53,,,,,,,,,,,,,,433.78900000595604,,response,,,,99,,,,,,,Space,keypress(Space),,,,,,,,"---- -- ----- -- ------ - ------- --- ----------<br>relationship, ------ ------ ---- ---- ------- ----- -- ----<br>-------- ------- -- ---------- --- - --- ----- ----- ----<br>---- --- --- ----- --- ---- ---- ------- ----- ---- -------<br>--- --- -- ----- -- --- ---- -- --- ---- -- ------ ------<br>--- ----- -- ----",160901.09999999404,160900.40000000596,160449.807,160456.19999998808,160466.611,160917.192,,9,"relationship,"
screen,html.Screen,2_1_0_1_10,2022-02-01T13:07:11.936Z,,,,,,,,,,,,,,,,,53,,,,,,,,,,,,,,378.50799998806906,,response,,,,99,,,,,,,Space,keypress(Space),,,,,,,,---- -- ----- -- ------ - ------- --- ----------<br>------------- common ------ ---- ---- ------- ----- -- ----<br>-------- ------- -- ---------- --- - --- ----- ----- ----<br>---- --- --- ----- --- ---- ---- ------- ----- ---- -------<br>--- --- -- ----- -- --- ---- -- --- ---- -- ------ ------<br>--- ----- -- ----,161296.40000000596,161295.69999998808,160900.317,160901.29999998212,160917.192,161300.942,,10,common
screen,html.Screen,2_1_0_1_11,2022-02-01T13:07:12.381Z,,,,,,,,,,,,,,,,,53,,,,,,,,,,,,,,439.95800000595045,,response,,,,99,,,,,,,Space,keypress(Space),,,,,,,,---- -- ----- -- ------ - ------- --- ----------<br>------------- ------ wisdom ---- ---- ------- ----- -- ----<br>-------- ------- -- ---------- --- - --- ----- ----- ----<br>---- --- --- ----- --- ---- ---- ------- ----- ---- -------<br>--- --- -- ----- -- --- ---- -- --- ---- -- ------ ------<br>--- ----- -- ----,161741.69999998808,161740.90000000596,161284.194,161296.59999999404,161300.942,161751.395,,11,wisdom
screen,html.Screen,2_1_0_1_12,2022-02-01T13:07:12.750Z,,,,,,,,,,,,,,,,,53,,,,,,,,,,,,,,358.30499998808955,,response,,,,99,,,,,,,Space,keypress(Space),,,,,,,,---- -- ----- -- ------ - ------- --- ----------<br>------------- ------ ------ says ---- ------- ----- -- ----<br>-------- ------- -- ---------- --- - --- ----- ----- ----<br>---- --- --- ----- --- ---- ---- ------- ----- ---- -------<br>--- --- -- ----- -- --- ---- -- --- ---- -- ------ ------<br>--- ----- -- ----,162110.09999999404,162109.69999998808,161734.584,161741.90000000596,161751.395,162118.444,,12,says
screen,html.Screen,2_1_0_1_13,2022-02-01T13:07:13.160Z,,,,,,,,,,,,,,,,,53,,,,,,,,,,,,,,401.0560000000114,,response,,,,99,,,,,,,Space,keypress(Space),,,,,,,,---- -- ----- -- ------ - ------- --- ----------<br>------------- ------ ------ ---- that ------- ----- -- ----<br>-------- ------- -- ---------- --- - --- ----- ----- ----<br>---- --- --- ----- --- ---- ---- ------- ----- ---- -------<br>--- --- -- ----- -- --- ---- -- --- ---- -- ------ ------<br>--- ----- -- ----,162520.09999999404,162519.5,162101.921,162110.40000000596,162118.444,162535.766,,13,that
screen,html.Screen,2_1_0_1_14,2022-02-01T13:07:13.588Z,,,,,,,,,,,,,,,,,53,,,,,,,,,,,,,,412.03399998211535,,response,,,,99,,,,,,,Space,keypress(Space),,,,,,,,---- -- ----- -- ------ - ------- --- ----------<br>------------- ------ ------ ---- ---- feeling ----- -- ----<br>-------- ------- -- ---------- --- - --- ----- ----- ----<br>---- --- --- ----- --- ---- ---- ------- ----- ---- -------<br>--- --- -- ----- -- --- ---- -- --- ---- -- ------ ------<br>--- ----- -- ----,162948.29999998212,162947.79999998212,162518.855,162520.29999998212,162535.766,162952.701,,14,feeling
screen,html.Screen,2_1_0_1_15,2022-02-01T13:07:14.013Z,,,,,,,,,,,,,,,,,53,,,,,,,,,,,,,,420.0989999821177,,response,,,,99,,,,,,,Space,keypress(Space),,,,,,,,---- -- ----- -- ------ - ------- --- ----------<br>------------- ------ ------ ---- ---- ------- close -- ----<br>-------- ------- -- ---------- --- - --- ----- ----- ----<br>---- --- --- ----- --- ---- ---- ------- ----- ---- -------<br>--- --- -- ----- -- --- ---- -- --- ---- -- ------ ------<br>--- ----- -- ----,163373.5,163372.79999998212,162935.966,162948.5,162952.701,163386.538,,15,close
screen,html.Screen,2_1_0_1_16,2022-02-01T13:07:14.453Z,,,,,,,,,,,,,,,,,53,,,,,,,,,,,,,,426.56199999403907,,response,,,,99,,,,,,,Space,keypress(Space),,,,,,,,---- -- ----- -- ------ - ------- --- ----------<br>------------- ------ ------ ---- ---- ------- ----- to ----<br>-------- ------- -- ---------- --- - --- ----- ----- ----<br>---- --- --- ----- --- ---- ---- ------- ----- ---- -------<br>--- --- -- ----- -- --- ---- -- --- ---- -- ------ ------<br>--- ----- -- ----,163813.79999998212,163813.09999999404,163370.093,163373.69999998808,163386.538,163820.338,,16,to
screen,html.Screen,2_1_0_1_17,2022-02-01T13:07:14.884Z,,,,,,,,,,,,,,,,,53,,,,,,,,,,,,,,423.06200000597164,,response,,,,99,,,,,,,Space,keypress(Space),,,,,,,,---- -- ----- -- ------ - ------- --- ----------<br>------------- ------ ------ ---- ---- ------- ----- -- your<br>-------- ------- -- ---------- --- - --- ----- ----- ----<br>---- --- --- ----- --- ---- ---- ------- ----- ---- -------<br>--- --- -- ----- -- --- ---- -- --- ---- -- ------ ------<br>--- ----- -- ----,164244.09999999404,164243.40000000596,163803.856,163814.09999999404,163820.338,164254.644,,17,your
screen,html.Screen,2_1_0_1_18,2022-02-01T13:07:15.287Z,,,,,,,,,,,,,,,,,53,,,,,,,,,,,,,,392.35599999999977,,response,,,,99,,,,,,,Space,keypress(Space),,,,,,,,---- -- ----- -- ------ - ------- --- ----------<br>------------- ------ ------ ---- ---- ------- ----- -- ----<br>romantic ------- -- ---------- --- - --- ----- ----- ----<br>---- --- --- ----- --- ---- ---- ------- ----- ---- -------<br>--- --- -- ----- -- --- ---- -- --- ---- -- ------ ------<br>--- ----- -- ----,164647.79999998212,164647,164238.104,164244.29999998212,164254.644,164654.591,,18,romantic
screen,html.Screen,2_1_0_1_19,2022-02-01T13:07:15.659Z,,,,,,,,,,,,,,,,,53,,,,,,,,,,,,,,364.30900000597467,,response,,,,99,,,,,,,Space,keypress(Space),,,,,,,,---- -- ----- -- ------ - ------- --- ----------<br>------------- ------ ------ ---- ---- ------- ----- -- ----<br>-------- partner -- ---------- --- - --- ----- ----- ----<br>---- --- --- ----- --- ---- ---- ------- ----- ---- -------<br>--- --- -- ----- -- --- ---- -- --- ---- -- ------ ------<br>--- ----- -- ----,165019.59999999404,165018.90000000596,164638.118,164648.09999999404,164654.591,165021.666,,19,partner
screen,html.Screen,2_1_0_1_20,2022-02-01T13:07:16.048Z,,,,,,,,,,,,,,,,,53,,,,,,,,,,,,,,386.4339999940421,,response,,,,99,,,,,,,Space,keypress(Space),,,,,,,,---- -- ----- -- ------ - ------- --- ----------<br>------------- ------ ------ ---- ---- ------- ----- -- ----<br>-------- ------- is ---------- --- - --- ----- ----- ----<br>---- --- --- ----- --- ---- ---- ------- ----- ---- -------<br>--- --- -- ----- -- --- ---- -- --- ---- -- ------ ------<br>--- ----- -- ----,165408.79999998212,165408.09999999404,165005.41,165019.69999998808,165021.666,165422.069,,20,is
screen,html.Screen,2_1_0_1_21,2022-02-01T13:07:16.413Z,,,,,,,,,,,,,,,,,53,,,,,,,,,,,,,,350.9310000000114,,response,,,,99,,,,,,,Space,keypress(Space),,,,,,,,---- -- ----- -- ------ - ------- --- ----------<br>------------- ------ ------ ---- ---- ------- ----- -- ----<br>-------- ------- -- paramount. --- - --- ----- ----- ----<br>---- --- --- ----- --- ---- ---- ------- ----- ---- -------<br>--- --- -- ----- -- --- ---- -- --- ---- -- ------ ------<br>--- ----- -- ----,165773.5,165773,165405.289,165409,165422.069,165789.148,,21,paramount.
screen,html.Screen,2_1_0_1_22,2022-02-01T13:07:16.848Z,,,,,,,,,,,,,,,,,53,,,,,,,,,,,,,,418.5519999880926,,response,,,,99,,,,,,,Space,keypress(Space),,,,,,,,---- -- ----- -- ------ - ------- --- ----------<br>------------- ------ ------ ---- ---- ------- ----- -- ----<br>-------- ------- -- ---------- But - --- ----- ----- ----<br>---- --- --- ----- --- ---- ---- ------- ----- ---- -------<br>--- --- -- ----- -- --- ---- -- --- ---- -- ------ ------<br>--- ----- -- ----,166208.5,166207.69999998808,165772.359,165773.59999999404,165789.148,166222.924,,22,But
screen,html.Screen,2_1_0_1_23,2022-02-01T13:07:17.187Z,,,,,,,,,,,,,,,,,53,,,,,,,,,,,,,,323.57600000000093,,response,,,,99,,,,,,,Space,keypress(Space),,,,,,,,---- -- ----- -- ------ - ------- --- ----------<br>------------- ------ ------ ---- ---- ------- ----- -- ----<br>-------- ------- -- ---------- --- a --- ----- ----- ----<br>---- --- --- ----- --- ---- ---- ------- ----- ---- -------<br>--- --- -- ----- -- --- ---- -- --- ---- -- ------ ------<br>--- ----- -- ----,166547.29999998212,166546.5,166206.134,166208.79999998212,166222.924,166556.613,,23,a
screen,html.Screen,2_1_0_1_24,2022-02-01T13:07:17.499Z,,,,,,,,,,,,,,,,,53,,,,,,,,,,,,,,302.6869999821065,,response,,,,99,,,,,,,Space,keypress(Space),,,,,,,,---- -- ----- -- ------ - ------- --- ----------<br>------------- ------ ------ ---- ---- ------- ----- -- ----<br>-------- ------- -- ---------- --- - new ----- ----- ----<br>---- --- --- ----- --- ---- ---- ------- ----- ---- -------<br>--- --- -- ----- -- --- ---- -- --- ---- -- ------ ------<br>--- ----- -- ----,166859.79999998212,166859.29999998212,166539.944,166547.40000000596,166556.613,166873.666,,24,new
screen,html.Screen,2_1_0_1_25,2022-02-01T13:07:17.925Z,,,,,,,,,,,,,,,,,53,,,,,,,,,,,,,,410.63399998212117,,response,,,,99,,,,,,,Space,keypress(Space),,,,,,,,---- -- ----- -- ------ - ------- --- ----------<br>------------- ------ ------ ---- ---- ------- ----- -- ----<br>-------- ------- -- ---------- --- - --- study ----- ----<br>---- --- --- ----- --- ---- ---- ------- ----- ---- -------<br>--- --- -- ----- -- --- ---- -- --- ---- -- ------ ------<br>--- ----- -- ----,167285,167284.29999998212,166856.852,166859.79999998212,166873.666,167290.738,,25,study
screen,html.Screen,2_1_0_1_26,2022-02-01T13:07:18.340Z,,,,,,,,,,,,,,,,,53,,,,,,,,,,,,,,408.3619999940274,,response,,,,99,,,,,,,Space,keypress(Space),,,,,,,,---- -- ----- -- ------ - ------- --- ----------<br>------------- ------ ------ ---- ---- ------- ----- -- ----<br>-------- ------- -- ---------- --- - --- ----- finds ----<br>---- --- --- ----- --- ---- ---- ------- ----- ---- -------<br>--- --- -- ----- -- --- ---- -- --- ---- -- ------ ------<br>--- ----- -- ----,167699.90000000596,167699.09999999404,167274.025,167285.09999999404,167290.738,167707.867,,26,finds
screen,html.Screen,2_1_0_1_27,2022-02-01T13:07:18.830Z,,,,,,,,,,,,,,,,,53,,,,,,,,,,,,,,481.23299999404117,,response,,,,99,,,,,,,Space,keypress(Space),,,,,,,,---- -- ----- -- ------ - ------- --- ----------<br>------------- ------ ------ ---- ---- ------- ----- -- ----<br>-------- ------- -- ---------- --- - --- ----- ----- that<br>---- --- --- ----- --- ---- ---- ------- ----- ---- -------<br>--- --- -- ----- -- --- ---- -- --- ---- -- ------ ------<br>--- ----- -- ----,168190.09999999404,168189.09999999404,167691.126,167700.29999998212,167707.867,168191.82,,27,that
screen,html.Screen,2_1_0_1_28,2022-02-01T13:07:19.240Z,,,,,,,,,,,,,,,,,53,,,,,,,,,,,,,,407.77999999403255,,response,,,,99,,,,,,,Space,keypress(Space),,,,,,,,---- -- ----- -- ------ - ------- --- ----------<br>------------- ------ ------ ---- ---- ------- ----- -- ----<br>-------- ------- -- ---------- --- - --- ----- ----- ----<br>it's --- --- ----- --- ---- ---- ------- ----- ---- -------<br>--- --- -- ----- -- --- ---- -- --- ---- -- ------ ------<br>--- ----- -- ----,168599.90000000596,168599.59999999404,168174.975,168190.29999998212,168191.82,168609.519,,28,it's
screen,html.Screen,2_1_0_1_29,2022-02-01T13:07:19.633Z,,,,,,,,,,,,,,,,,53,,,,,,,,,,,,,,383.0809999940393,,response,,,,99,,,,,,,Space,keypress(Space),,,,,,,,---- -- ----- -- ------ - ------- --- ----------<br>------------- ------ ------ ---- ---- ------- ----- -- ----<br>-------- ------- -- ---------- --- - --- ----- ----- ----<br>---- not --- ----- --- ---- ---- ------- ----- ---- -------<br>--- --- -- ----- -- --- ---- -- --- ---- -- ------ ------<br>--- ----- -- ----,168993.40000000596,168992.59999999404,168592.305,168600,168609.519,169009.397,,29,not
screen,html.Screen,2_1_0_1_30,2022-02-01T13:07:19.997Z,,,,,,,,,,,,,,,,,53,,,,,,,,,,,,,,347.00300000596326,,response,,,,99,,,,,,,Space,keypress(Space),,,,,,,,---- -- ----- -- ------ - ------- --- ----------<br>------------- ------ ------ ---- ---- ------- ----- -- ----<br>-------- ------- -- ---------- --- - --- ----- ----- ----<br>---- --- how ----- --- ---- ---- ------- ----- ---- -------<br>--- --- -- ----- -- --- ---- -- --- ---- -- ------ ------<br>--- ----- -- ----,169357.09999999404,169356.40000000596,168992.522,168993.59999999404,169009.397,169359.669,,30,how
screen,html.Screen,2_1_0_1_31,2022-02-01T13:07:20.441Z,,,,,,,,,,,,,,,,,53,,,,,,,,,,,,,,441.23100000596605,,response,,,,99,,,,,,,Space,keypress(Space),,,,,,,,---- -- ----- -- ------ - ------- --- ----------<br>------------- ------ ------ ---- ---- ------- ----- -- ----<br>-------- ------- -- ---------- --- - --- ----- ----- ----<br>---- --- --- close --- ---- ---- ------- ----- ---- -------<br>--- --- -- ----- -- --- ---- -- --- ---- -- ------ ------<br>--- ----- -- ----,169801.5,169800.90000000596,169342.97,169357.19999998808,169359.669,169810.166,,31,close
screen,html.Screen,2_1_0_1_32,2022-02-01T13:07:20.850Z,,,,,,,,,,,,,,,,,53,,,,,,,,,,,,,,399.9339999940421,,response,,,,99,,,,,,,Space,keypress(Space),,,,,,,,---- -- ----- -- ------ - ------- --- ----------<br>------------- ------ ------ ---- ---- ------- ----- -- ----<br>-------- ------- -- ---------- --- - --- ----- ----- ----<br>---- --- --- ----- you ---- ---- ------- ----- ---- -------<br>--- --- -- ----- -- --- ---- -- --- ---- -- ------ ------<br>--- ----- -- ----,170210.59999999404,170210.09999999404,169793.479,169801.59999999404,169810.166,170227.52,,32,you
screen,html.Screen,2_1_0_1_33,2022-02-01T13:07:21.330Z,,,,,,,,,,,,,,,,,53,,,,,,,,,,,,,,462.57999999405,,response,,,,99,,,,,,,Space,keypress(Space),,,,,,,,---- -- ----- -- ------ - ------- --- ----------<br>------------- ------ ------ ---- ---- ------- ----- -- ----<br>-------- ------- -- ---------- --- - --- ----- ----- ----<br>---- --- --- ----- --- feel ---- ------- ----- ---- -------<br>--- --- -- ----- -- --- ---- -- --- ---- -- ------ ------<br>--- ----- -- ----,170690.79999998212,170690.09999999404,170210.496,170210.69999998808,170227.52,170694.478,,33,feel
screen,html.Screen,2_1_0_1_34,2022-02-01T13:07:21.664Z,,,,,,,,,,,,,,,,,53,,,,,,,,,,,,,,329.5219999999972,,response,,,,99,,,,,,,Space,keypress(Space),,,,,,,,---- -- ----- -- ------ - ------- --- ----------<br>------------- ------ ------ ---- ---- ------- ----- -- ----<br>-------- ------- -- ---------- --- - --- ----- ----- ----<br>---- --- --- ----- --- ---- that ------- ----- ---- -------<br>--- --- -- ----- -- --- ---- -- --- ---- -- ------ ------<br>--- ----- -- ----,171024.5,171024,170677.754,170690.90000000596,170694.478,171028.164,,34,that
screen,html.Screen,2_1_0_1_35,2022-02-01T13:07:22.018Z,,,,,,,,,,,,,,,,,53,,,,,,,,,,,,,,349.7360000059707,,response,,,,99,,,,,,,Space,keypress(Space),,,,,,,,---- -- ----- -- ------ - ------- --- ----------<br>------------- ------ ------ ---- ---- ------- ----- -- ----<br>-------- ------- -- ---------- --- - --- ----- ----- ----<br>---- --- --- ----- --- ---- ---- matters ----- ---- -------<br>--- --- -- ----- -- --- ---- -- --- ---- -- ------ ------<br>--- ----- -- ----,171378.69999998808,171377.90000000596,171012.416,171024.69999998808,171028.164,171395.242,,35,matters
screen,html.Screen,2_1_0_1_36,2022-02-01T13:07:22.404Z,,,,,,,,,,,,,,,,,53,,,,,,,,,,,,,,367.9579999880807,,response,,,,99,,,,,,,Space,keypress(Space),,,,,,,,"---- -- ----- -- ------ - ------- --- ----------<br>------------- ------ ------ ---- ---- ------- ----- -- ----<br>-------- ------- -- ---------- --- - --- ----- ----- ----<br>---- --- --- ----- --- ---- ---- ------- most, ---- -------<br>--- --- -- ----- -- --- ---- -- --- ---- -- ------ ------<br>--- ----- -- ----",171763.90000000596,171763.19999998808,171378.467,171379,171395.242,171778.997,,36,"most,"
screen,html.Screen,2_1_0_1_37,2022-02-01T13:07:22.842Z,,,,,,,,,,,,,,,,,53,,,,,,,,,,,,,,422.6029999940365,,response,,,,99,,,,,,,Space,keypress(Space),,,,,,,,---- -- ----- -- ------ - ------- --- ----------<br>------------- ------ ------ ---- ---- ------- ----- -- ----<br>-------- ------- -- ---------- --- - --- ----- ----- ----<br>---- --- --- ----- --- ---- ---- ------- ----- it's -------<br>--- --- -- ----- -- --- ---- -- --- ---- -- ------ ------<br>--- ----- -- ----,172202.5,172201.59999999404,171762.257,171764,171778.997,172212.767,,37,it's
screen,html.Screen,2_1_0_1_38,2022-02-01T13:07:23.237Z,,,,,,,,,,,,,,,,,53,,,,,,,,,,,,,,383.73300000000745,,response,,,,99,,,,,,,Space,keypress(Space),,,,,,,,---- -- ----- -- ------ - ------- --- ----------<br>------------- ------ ------ ---- ---- ------- ----- -- ----<br>-------- ------- -- ---------- --- - --- ----- ----- ----<br>---- --- --- ----- --- ---- ---- ------- ----- ---- whether<br>--- --- -- ----- -- --- ---- -- --- ---- -- ------ ------<br>--- ----- -- ----,172597.19999998808,172596.5,172196.06,172202.69999998808,172212.767,172613.715,,38,whether
screen,html.Screen,2_1_0_1_39,2022-02-01T13:07:23.611Z,,,,,,,,,,,,,,,,,53,,,,,,,,,,,,,,357.18500000596396,,response,,,,99,,,,,,,Space,keypress(Space),,,,,,,,---- -- ----- -- ------ - ------- --- ----------<br>------------- ------ ------ ---- ---- ------- ----- -- ----<br>-------- ------- -- ---------- --- - --- ----- ----- ----<br>---- --- --- ----- --- ---- ---- ------- ----- ---- -------<br>you --- -- ----- -- --- ---- -- --- ---- -- ------ ------<br>--- ----- -- ----,172971.5,172970.90000000596,172596.437,172597.40000000596,172613.715,172980.324,,39,you
screen,html.Screen,2_1_0_1_40,2022-02-01T13:07:24.006Z,,,,,,,,,,,,,,,,,53,,,,,,,,,,,,,,385.3759999880858,,response,,,,99,,,,,,,Space,keypress(Space),,,,,,,,---- -- ----- -- ------ - ------- --- ----------<br>------------- ------ ------ ---- ---- ------- ----- -- ----<br>-------- ------- -- ---------- --- - --- ----- ----- ----<br>---- --- --- ----- --- ---- ---- ------- ----- ---- -------<br>--- are -- ----- -- --- ---- -- --- ---- -- ------ ------<br>--- ----- -- ----,173366.40000000596,173365.69999998808,172963.667,172971.69999998808,172980.324,173380.773,,40,are
screen,html.Screen,2_1_0_1_41,2022-02-01T13:07:24.531Z,,,,,,,,,,,,,,,,,53,,,,,,,,,,,,,,509.5269999821321,,response,,,,99,,,,,,,Space,keypress(Space),,,,,,,,---- -- ----- -- ------ - ------- --- ----------<br>------------- ------ ------ ---- ---- ------- ----- -- ----<br>-------- ------- -- ---------- --- - --- ----- ----- ----<br>---- --- --- ----- --- ---- ---- ------- ----- ---- -------<br>--- --- as ----- -- --- ---- -- --- ---- -- ------ ------<br>--- ----- -- ----,173890.90000000596,173890.29999998212,173363.999,173366.5,173380.773,173897.95,,41,as
screen,html.Screen,2_1_0_1_42,2022-02-01T13:07:24.985Z,,,,,,,,,,,,,,,,,53,,,,,,,,,,,,,,446.6499999940279,,response,,,,99,,,,,,,Space,keypress(Space),,,,,,,,---- -- ----- -- ------ - ------- --- ----------<br>------------- ------ ------ ---- ---- ------- ----- -- ----<br>-------- ------- -- ---------- --- - --- ----- ----- ----<br>---- --- --- ----- --- ---- ---- ------- ----- ---- -------<br>--- --- -- close -- --- ---- -- --- ---- -- ------ ------<br>--- ----- -- ----,174345.19999998808,174344.59999999404,173881.153,173891.09999999404,173897.95,174348.53,,42,close
screen,html.Screen,2_1_0_1_43,2022-02-01T13:07:25.378Z,,,,,,,,,,,,,,,,,53,,,,,,,,,,,,,,389.66999998808024,,response,,,,99,,,,,,,Space,keypress(Space),,,,,,,,---- -- ----- -- ------ - ------- --- ----------<br>------------- ------ ------ ---- ---- ------- ----- -- ----<br>-------- ------- -- ---------- --- - --- ----- ----- ----<br>---- --- --- ----- --- ---- ---- ------- ----- ---- -------<br>--- --- -- ----- as --- ---- -- --- ---- -- ------ ------<br>--- ----- -- ----,174738.69999998808,174738.19999998808,174331.721,174345.29999998212,174348.53,174748.895,,43,as
screen,html.Screen,2_1_0_1_44,2022-02-01T13:07:25.727Z,,,,,,,,,,,,,,,,,53,,,,,,,,,,,,,,338.30499998808955,,response,,,,99,,,,,,,Space,keypress(Space),,,,,,,,---- -- ----- -- ------ - ------- --- ----------<br>------------- ------ ------ ---- ---- ------- ----- -- ----<br>-------- ------- -- ---------- --- - --- ----- ----- ----<br>---- --- --- ----- --- ---- ---- ------- ----- ---- -------<br>--- --- -- ----- -- you ---- -- --- ---- -- ------ ------<br>--- ----- -- ----,175087.69999998808,175087.19999998808,174732.202,174738.79999998212,174748.895,175099.799,,44,you
screen,html.Screen,2_1_0_1_45,2022-02-01T13:07:26.163Z,,,,,,,,,,,,,,,,,53,,,,,,,,,,,,,,422.90099998808,,response,,,,99,,,,,,,Space,keypress(Space),,,,,,,,---- -- ----- -- ------ - ------- --- ----------<br>------------- ------ ------ ---- ---- ------- ----- -- ----<br>-------- ------- -- ---------- --- - --- ----- ----- ----<br>---- --- --- ----- --- ---- ---- ------- ----- ---- -------<br>--- --- -- ----- -- --- want -- --- ---- -- ------ ------<br>--- ----- -- ----,175523.19999998808,175522.69999998808,175082.561,175087.69999998808,175099.799,175533.065,,45,want
screen,html.Screen,2_1_0_1_46,2022-02-01T13:07:26.547Z,,,,,,,,,,,,,,,,,53,,,,,,,,,,,,,,373.5349999940372,,response,,,,99,,,,,,,Space,keypress(Space),,,,,,,,---- -- ----- -- ------ - ------- --- ----------<br>------------- ------ ------ ---- ---- ------- ----- -- ----<br>-------- ------- -- ---------- --- - --- ----- ----- ----<br>---- --- --- ----- --- ---- ---- ------- ----- ---- -------<br>--- --- -- ----- -- --- ---- to --- ---- -- ------ ------<br>--- ----- -- ----,175907.5,175906.59999999404,175516.324,175523.29999998212,175533.065,175916.843,,46,to
screen,html.Screen,2_1_0_1_47,2022-02-01T13:07:26.961Z,,,,,,,,,,,,,,,,,53,,,,,,,,,,,,,,404.25699999404605,,response,,,,99,,,,,,,Space,keypress(Space),,,,,,,,"---- -- ----- -- ------ - ------- --- ----------<br>------------- ------ ------ ---- ---- ------- ----- -- ----<br>-------- ------- -- ---------- --- - --- ----- ----- ----<br>---- --- --- ----- --- ---- ---- ------- ----- ---- -------<br>--- --- -- ----- -- --- ---- -- be, ---- -- ------ ------<br>--- ----- -- ----",176321.59999999404,176321.09999999404,175900.397,175907.69999998808,175916.843,176334.014,,47,"be,"
screen,html.Screen,2_1_0_1_48,2022-02-01T13:07:27.367Z,,,,,,,,,,,,,,,,,53,,,,,,,,,,,,,,392.28599998212303,,response,,,,99,,,,,,,Space,keypress(Space),,,,,,,,---- -- ----- -- ------ - ------- --- ----------<br>------------- ------ ------ ---- ---- ------- ----- -- ----<br>-------- ------- -- ---------- --- - --- ----- ----- ----<br>---- --- --- ----- --- ---- ---- ------- ----- ---- -------<br>--- --- -- ----- -- --- ---- -- --- even -- ------ ------<br>--- ----- -- ----,176727,176726.29999998212,176317.195,176321.79999998212,176334.014,176734.438,,48,even
screen,html.Screen,2_1_0_1_49,2022-02-01T13:07:27.757Z,,,,,,,,,,,,,,,,,53,,,,,,,,,,,,,,381.6619999940449,,response,,,,99,,,,,,,Space,keypress(Space),,,,,,,,---- -- ----- -- ------ - ------- --- ----------<br>------------- ------ ------ ---- ---- ------- ----- -- ----<br>-------- ------- -- ---------- --- - --- ----- ----- ----<br>---- --- --- ----- --- ---- ---- ------- ----- ---- -------<br>--- --- -- ----- -- --- ---- -- --- ---- if ------ ------<br>--- ----- -- ----,177116.90000000596,177116.09999999404,176717.63,176727.29999998212,176734.438,177118.189,,49,if
screen,html.Screen,2_1_0_1_50,2022-02-01T13:07:28.237Z,,,,,,,,,,,,,,,,,53,,,,,,,,,,,,,,478.01099998806603,,response,,,,99,,,,,,,Space,keypress(Space),,,,,,,,---- -- ----- -- ------ - ------- --- ----------<br>------------- ------ ------ ---- ---- ------- ----- -- ----<br>-------- ------- -- ---------- --- - --- ----- ----- ----<br>---- --- --- ----- --- ---- ---- ------- ----- ---- -------<br>--- --- -- ----- -- --- ---- -- --- ---- -- that's ------<br>--- ----- -- ----,177596.90000000596,177596.19999998808,177101.458,177117,177118.189,177601.991,,50,that's
screen,html.Screen,2_1_0_1_51,2022-02-01T13:07:28.681Z,,,,,,,,,,,,,,,,,53,,,,,,,,,,,,,,438.4090000059514,,response,,,,99,,,,,,,Space,keypress(Space),,,,,,,,---- -- ----- -- ------ - ------- --- ----------<br>------------- ------ ------ ---- ---- ------- ----- -- ----<br>-------- ------- -- ---------- --- - --- ----- ----- ----<br>---- --- --- ----- --- ---- ---- ------- ----- ---- -------<br>--- --- -- ----- -- --- ---- -- --- ---- -- ------ really<br>--- ----- -- ----,178041.19999998808,178040.40000000596,177585.275,177597,177601.991,178052.561,,51,really
screen,html.Screen,2_1_0_1_52,2022-02-01T13:07:29.101Z,,,,,,,,,,,,,,,,,53,,,,,,,,,,,,,,407.73899998213165,,response,,,,99,,,,,,,Space,keypress(Space),,,,,,,,---- -- ----- -- ------ - ------- --- ----------<br>------------- ------ ------ ---- ---- ------- ----- -- ----<br>-------- ------- -- ---------- --- - --- ----- ----- ----<br>---- --- --- ----- --- ---- ---- ------- ----- ---- -------<br>--- --- -- ----- -- --- ---- -- --- ---- -- ------ ------<br>not ----- -- ----,178460.79999998212,178460.29999998212,178035.72,178041.40000000596,178052.561,178469.631,,52,not
screen,html.Screen,2_1_0_1_53,2022-02-01T13:07:29.479Z,,,,,,,,,,,,,,,,,53,,,,,,,,,,,,,,369.16899998212466,,response,,,,99,,,,,,,Space,keypress(Space),,,,,,,,---- -- ----- -- ------ - ------- --- ----------<br>------------- ------ ------ ---- ---- ------- ----- -- ----<br>-------- ------- -- ---------- --- - --- ----- ----- ----<br>---- --- --- ----- --- ---- ---- ------- ----- ---- -------<br>--- --- -- ----- -- --- ---- -- --- ---- -- ------ ------<br>--- close -- ----,178839.5,178838.79999998212,178452.914,178461.09999999404,178469.631,178853.702,,53,close
screen,html.Screen,2_1_0_1_54,2022-02-01T13:07:29.813Z,,,,,,,,,,,,,,,,,53,,,,,,,,,,,,,,319.0979999821284,,response,,,,99,,,,,,,Space,keypress(Space),,,,,,,,---- -- ----- -- ------ - ------- --- ----------<br>------------- ------ ------ ---- ---- ------- ----- -- ----<br>-------- ------- -- ---------- --- - --- ----- ----- ----<br>---- --- --- ----- --- ---- ---- ------- ----- ---- -------<br>--- --- -- ----- -- --- ---- -- --- ---- -- ------ ------<br>--- ----- at ----,179173.40000000596,179172.79999998212,178836.61,178839.69999998808,178853.702,179187.642,,54,at
screen,html.Screen,2_1_0_1_55,2022-02-01T13:07:30.151Z,,,,,,,,,,,,,,,,,53,,,,,,,,,,,,,,322.65799998212606,,response,,,,99,,,,,,,Space,keypress(Space),,,,,,,,---- -- ----- -- ------ - ------- --- ----------<br>------------- ------ ------ ---- ---- ------- ----- -- ----<br>-------- ------- -- ---------- --- - --- ----- ----- ----<br>---- --- --- ----- --- ---- ---- ------- ----- ---- -------<br>--- --- -- ----- -- --- ---- -- --- ---- -- ------ ------<br>--- ----- -- all.,179511,179510.29999998212,179170.889,179173.5,179187.642,179520.88,,55,all.
Item 99,flow.Loop,2_1_0_1,2022-02-01T13:07:30.151Z,,,,,,,,,,,,,,,,,,,,,,,,,,,,,,,23098.08699998213,,completion,,,,,C,,,,,,,,,,,silence,,,,,179511.40000000596,179510.29999998212,156396.071,156396.90000000596,156412.213,179520.88,,,
Question 1,html.Screen,2_1_0_2,2022-02-01T13:07:34.379Z,,,,,,,,,,,,,,,,,,,,,,,,,,,,true,FALSE,,4216.919999982114,,response,,,,99,C,,,,,,FALSE,click #choice-2,,,,silence,,,,,183738.90000000596,183737.79999998212,179504.075,179511.5,179520.88,183742.155,,,
Question 2,html.Screen,2_1_0_3,2022-02-01T13:07:39.164Z,,,,,,,,,,,,,,,,,,,,,,,,,,,,true,TRUE,,4781.04499998808,,response,,,,99,C,,,,,,TRUE,click #choice-1,,,,silence,,,,,188524.09999999404,188523.19999998808,183725.386,183739.09999999404,183742.155,188530.661,,,
Item 99,flow.Sequence,2_1_0,2022-02-01T13:07:39.164Z,,,,,,,,,,,,,,,,,,,,,,,,,,,,,,,42105.24899998808,,completion,,,,,,,,,,,,,,,,,,,,,188524.29999998212,188523.19999998808,146401.252,146415.79999998212,146417.951,188530.661,,,
Holding screen,html.Screen,2_1_1_0,2022-02-01T13:07:49.150Z,,,,,,,,,,,,,,,,,,,,,,,,,,,,,,,9994.205000000016,,timeout,,,,,,,,,,,,,,,,,,,,,198509.5,198508.792,188513.924,188524.5,188530.661,198524.866,,,
screen,html.Screen,2_1_1_1_0,2022-02-01T13:07:49.732Z,,,,,,,,,,,,,,,,,54,,,,,,,,,,,,,,566.5340000059514,,response,,,,100,,,,,,,Space,keypress(Space),,,,,,,,At --- ---- --- ------ ----- ------- ---- -- --- ------- --<br>------- ---------- ------ -- ----- -- ----- -- ---- ------<br>--- ----- --- --- ------ -------- ----- --- ------ ----- --<br>----- ----- ---------- --- --- ------ ------ ---- -- ------<br>------- --- ------ ----- --- ---- ------- -- ---- --- --<br>------- ------,199092.09999999404,199091.40000000596,198508.792,198509.79999998212,198524.866,199092.237,,0,At
screen,html.Screen,2_1_1_1_1,2022-02-01T13:07:50.120Z,,,,,,,,,,,,,,,,,54,,,,,,,,,,,,,,387.46299998808536,,response,,,,100,,,,,,,Space,keypress(Space),,,,,,,,-- the ---- --- ------ ----- ------- ---- -- --- ------- --<br>------- ---------- ------ -- ----- -- ----- -- ---- ------<br>--- ----- --- --- ------ -------- ----- --- ------ ----- --<br>----- ----- ---------- --- --- ------ ------ ---- -- ------<br>------- --- ------ ----- --- ---- ------- -- ---- --- --<br>------- ------,199480.09999999404,199479.69999998808,199075.343,199092.29999998212,199092.237,199492.906,,1,the
screen,html.Screen,2_1_1_1_2,2022-02-01T13:07:50.408Z,,,,,,,,,,,,,,,,,54,,,,,,,,,,,,,,274.49400000597234,,response,,,,100,,,,,,,Space,keypress(Space),,,,,,,,-- --- time --- ------ ----- ------- ---- -- --- ------- --<br>------- ---------- ------ -- ----- -- ----- -- ---- ------<br>--- ----- --- --- ------ -------- ----- --- ------ ----- --<br>----- ----- ---------- --- --- ------ ------ ---- -- ------<br>------- --- ------ ----- --- ---- ------- -- ---- --- --<br>------- ------,199767.90000000596,199767.40000000596,199475.877,199480.29999998212,199492.906,199776.218,,2,time
screen,html.Screen,2_1_1_1_3,2022-02-01T13:07:50.742Z,,,,,,,,,,,,,,,,,54,,,,,,,,,,,,,,325.2820000000065,,response,,,,100,,,,,,,Space,keypress(Space),,,,,,,,-- --- ---- the ------ ----- ------- ---- -- --- ------- --<br>------- ---------- ------ -- ----- -- ----- -- ---- ------<br>--- ----- --- --- ------ -------- ----- --- ------ ----- --<br>----- ----- ---------- --- --- ------ ------ ---- -- ------<br>------- --- ------ ----- --- ---- ------- -- ---- --- --<br>------- ------,200102.09999999404,200101.5,199759.572,199767.90000000596,199776.218,200110.529,,3,the
screen,html.Screen,2_1_1_1_4,2022-02-01T13:07:51.165Z,,,,,,,,,,,,,,,,,54,,,,,,,,,,,,,,414.07099999403,,response,,,,100,,,,,,,Space,keypress(Space),,,,,,,,-- --- ---- --- French ----- ------- ---- -- --- ------- --<br>------- ---------- ------ -- ----- -- ----- -- ---- ------<br>--- ----- --- --- ------ -------- ----- --- ------ ----- --<br>----- ----- ---------- --- --- ------ ------ ---- -- ------<br>------- --- ------ ----- --- ---- ------- -- ---- --- --<br>------- ------,200525.19999998808,200524.59999999404,200093.228,200102.29999998212,200110.529,200527.091,,4,French
screen,html.Screen,2_1_1_1_5,2022-02-01T13:07:51.540Z,,,,,,,,,,,,,,,,,54,,,,,,,,,,,,,,372.50899999405374,,response,,,,100,,,,,,,Space,keypress(Space),,,,,,,,-- --- ---- --- ------ crown ------- ---- -- --- ------- --<br>------- ---------- ------ -- ----- -- ----- -- ---- ------<br>--- ----- --- --- ------ -------- ----- --- ------ ----- --<br>----- ----- ---------- --- --- ------ ------ ---- -- ------<br>------- --- ------ ----- --- ---- ------- -- ---- --- --<br>------- ------,200900.19999998808,200899.59999999404,200510.896,200525.29999998212,200527.091,200910.818,,5,crown
screen,html.Screen,2_1_1_1_6,2022-02-01T13:07:51.929Z,,,,,,,,,,,,,,,,,54,,,,,,,,,,,,,,377.4819999821193,,response,,,,100,,,,,,,Space,keypress(Space),,,,,,,,-- --- ---- --- ------ ----- secured ---- -- --- ------- --<br>------- ---------- ------ -- ----- -- ----- -- ---- ------<br>--- ----- --- --- ------ -------- ----- --- ------ ----- --<br>----- ----- ---------- --- --- ------ ------ ---- -- ------<br>------- --- ------ ----- --- ---- ------- -- ---- --- --<br>------- ------,201289.09999999404,201288.29999998212,200894.114,200900.29999998212,200910.818,201294.633,,6,secured
screen,html.Screen,2_1_1_1_7,2022-02-01T13:07:52.339Z,,,,,,,,,,,,,,,,,54,,,,,,,,,,,,,,403.26700000595883,,response,,,,100,,,,,,,Space,keypress(Space),,,,,,,,-- --- ---- --- ------ ----- ------- much -- --- ------- --<br>------- ---------- ------ -- ----- -- ----- -- ---- ------<br>--- ----- --- --- ------ -------- ----- --- ------ ----- --<br>----- ----- ---------- --- --- ------ ------ ---- -- ------<br>------- --- ------ ----- --- ---- ------- -- ---- --- --<br>------- ------,201698.5,201697.90000000596,201277.846,201289.19999998808,201294.633,201711.746,,7,much
screen,html.Screen,2_1_1_1_8,2022-02-01T13:07:52.883Z,,,,,,,,,,,,,,,,,54,,,,,,,,,,,,,,531.0539999821049,,response,,,,100,,,,,,,Space,keypress(Space),,,,,,,,-- --- ---- --- ------ ----- ------- ---- of --- ------- --<br>------- ---------- ------ -- ----- -- ----- -- ---- ------<br>--- ----- --- --- ------ -------- ----- --- ------ ----- --<br>----- ----- ---------- --- --- ------ ------ ---- -- ------<br>------- --- ------ ----- --- ---- ------- -- ---- --- --<br>------- ------,202243.40000000596,202242.79999998212,201694.966,201698.59999999404,201711.746,202245.702,,8,of
screen,html.Screen,2_1_1_1_9,2022-02-01T13:07:53.309Z,,,,,,,,,,,,,,,,,54,,,,,,,,,,,,,,422.19800000597024,,response,,,,100,,,,,,,Space,keypress(Space),,,,,,,,-- --- ---- --- ------ ----- ------- ---- -- its ------- --<br>------- ---------- ------ -- ----- -- ----- -- ---- ------<br>--- ----- --- --- ------ -------- ----- --- ------ ----- --<br>----- ----- ---------- --- --- ------ ------ ---- -- ------<br>------- --- ------ ----- --- ---- ------- -- ---- --- --<br>------- ------,202668.5,202667.90000000596,202228.895,202243.59999999404,202245.702,202679.419,,9,its
screen,html.Screen,2_1_1_1_10,2022-02-01T13:07:53.663Z,,,,,,,,,,,,,,,,,54,,,,,,,,,,,,,,342.5810000000056,,response,,,,100,,,,,,,Space,keypress(Space),,,,,,,,-- --- ---- --- ------ ----- ------- ---- -- --- revenue --<br>------- ---------- ------ -- ----- -- ----- -- ---- ------<br>--- ----- --- --- ------ -------- ----- --- ------ ----- --<br>----- ----- ---------- --- --- ------ ------ ---- -- ------<br>------- --- ------ ----- --- ---- ------- -- ---- --- --<br>------- ------,203022.59999999404,203022,202662.946,202668.69999998808,202679.419,203029.999,,10,revenue
screen,html.Screen,2_1_1_1_11,2022-02-01T13:07:54.048Z,,,,,,,,,,,,,,,,,54,,,,,,,,,,,,,,377.40100000594975,,response,,,,100,,,,,,,Space,keypress(Space),,,,,,,,-- --- ---- --- ------ ----- ------- ---- -- --- ------- by<br>------- ---------- ------ -- ----- -- ----- -- ---- ------<br>--- ----- --- --- ------ -------- ----- --- ------ ----- --<br>----- ----- ---------- --- --- ------ ------ ---- -- ------<br>------- --- ------ ----- --- ---- ------- -- ---- --- --<br>------- ------,203408,203407.40000000596,203013.14,203022.59999999404,203029.999,203413.536,,11,by
screen,html.Screen,2_1_1_1_12,2022-02-01T13:07:54.492Z,,,,,,,,,,,,,,,,,54,,,,,,,,,,,,,,438.2639999821258,,response,,,,100,,,,,,,Space,keypress(Space),,,,,,,,-- --- ---- --- ------ ----- ------- ---- -- --- ------- --<br>issuing ---------- ------ -- ----- -- ----- -- ---- ------<br>--- ----- --- --- ------ -------- ----- --- ------ ----- --<br>----- ----- ---------- --- --- ------ ------ ---- -- ------<br>------- --- ------ ----- --- ---- ------- -- ---- --- --<br>------- ------,203852.29999998212,203851.79999998212,203396.807,203408.19999998808,203413.536,203864.089,,12,issuing
screen,html.Screen,2_1_1_1_13,2022-02-01T13:07:55.216Z,,,,,,,,,,,,,,,,,54,,,,,,,,,,,,,,711.0109999940323,,response,,,,100,,,,,,,Space,keypress(Space),,,,,,,,-- --- ---- --- ------ ----- ------- ---- -- --- ------- --<br>------- government ------ -- ----- -- ----- -- ---- ------<br>--- ----- --- --- ------ -------- ----- --- ------ ----- --<br>----- ----- ---------- --- --- ------ ------ ---- -- ------<br>------- --- ------ ----- --- ---- ------- -- ---- --- --<br>------- ------,204575.69999998808,204575.09999999404,203847.231,203852.29999998212,203864.089,204581.476,,13,government
screen,html.Screen,2_1_1_1_14,2022-02-01T13:07:55.564Z,,,,,,,,,,,,,,,,,54,,,,,,,,,,,,,,342.22399998808396,,response,,,,100,,,,,,,Space,keypress(Space),,,,,,,,-- --- ---- --- ------ ----- ------- ---- -- --- ------- --<br>------- ---------- bonds. -- ----- -- ----- -- ---- ------<br>--- ----- --- --- ------ -------- ----- --- ------ ----- --<br>----- ----- ---------- --- --- ------ ------ ---- -- ------<br>------- --- ------ ----- --- ---- ------- -- ---- --- --<br>------- ------,204924.29999998212,204923.69999998808,204564.707,204575.79999998212,204581.476,204931.887,,14,bonds.
screen,html.Screen,2_1_1_1_15,2022-02-01T13:07:55.914Z,,,,,,,,,,,,,,,,,54,,,,,,,,,,,,,,341.21299999405164,,response,,,,100,,,,,,,Space,keypress(Space),,,,,,,,-- --- ---- --- ------ ----- ------- ---- -- --- ------- --<br>------- ---------- ------ In ----- -- ----- -- ---- ------<br>--- ----- --- --- ------ -------- ----- --- ------ ----- --<br>----- ----- ---------- --- --- ------ ------ ---- -- ------<br>------- --- ------ ----- --- ---- ------- -- ---- --- --<br>------- ------,205273.59999999404,205273.09999999404,204915.44,204924.5,204931.887,205282.327,,15,In
screen,html.Screen,2_1_1_1_16,2022-02-01T13:07:56.166Z,,,,,,,,,,,,,,,,,54,,,,,,,,,,,,,,243.57300000597024,,response,,,,100,,,,,,,Space,keypress(Space),,,,,,,,"-- --- ---- --- ------ ----- ------- ---- -- --- ------- --<br>------- ---------- ------ -- 1727, -- ----- -- ---- ------<br>--- ----- --- --- ------ -------- ----- --- ------ ----- --<br>----- ----- ---------- --- --- ------ ------ ---- -- ------<br>------- --- ------ ----- --- ---- ------- -- ---- --- --<br>------- ------",205526.5,205525.90000000596,205265.519,205273.59999999404,205282.327,205532.542,,16,"1727,"
screen,html.Screen,2_1_1_1_17,2022-02-01T13:07:57.474Z,,,,,,,,,,,,,,,,,54,,,,,,,,,,,,,,1301.0579999940528,,response,,,,100,,,,,,,Space,keypress(Space),,,,,,,,-- --- ---- --- ------ ----- ------- ---- -- --- ------- --<br>------- ---------- ------ -- ----- in ----- -- ---- ------<br>--- ----- --- --- ------ -------- ----- --- ------ ----- --<br>----- ----- ---------- --- --- ------ ------ ---- -- ------<br>------- --- ------ ----- --- ---- ------- -- ---- --- --<br>------- ------,206834.40000000596,206833.59999999404,205515.919,205526.59999999404,205532.542,206850.718,,17,in
screen,html.Screen,2_1_1_1_18,2022-02-01T13:07:57.930Z,,,,,,,,,,,,,,,,,54,,,,,,,,,,,,,,438.38199999404605,,response,,,,100,,,,,,,Space,keypress(Space),,,,,,,,-- --- ---- --- ------ ----- ------- ---- -- --- ------- --<br>------- ---------- ------ -- ----- -- order -- ---- ------<br>--- ----- --- --- ------ -------- ----- --- ------ ----- --<br>----- ----- ---------- --- --- ------ ------ ---- -- ------<br>------- --- ------ ----- --- ---- ------- -- ---- --- --<br>------- ------,207289.90000000596,207289.09999999404,206833.642,206834.5,206850.718,207301.194,,18,order
screen,html.Screen,2_1_1_1_19,2022-02-01T13:07:58.233Z,,,,,,,,,,,,,,,,,54,,,,,,,,,,,,,,291.8060000000114,,response,,,,100,,,,,,,Space,keypress(Space),,,,,,,,-- --- ---- --- ------ ----- ------- ---- -- --- ------- --<br>------- ---------- ------ -- ----- -- ----- to ---- ------<br>--- ----- --- --- ------ -------- ----- --- ------ ----- --<br>----- ----- ---------- --- --- ------ ------ ---- -- ------<br>------- --- ------ ----- --- ---- ------- -- ---- --- --<br>------- ------,207593.40000000596,207593,207284.667,207290.09999999404,207301.194,207601.444,,19,to
screen,html.Screen,2_1_1_1_20,2022-02-01T13:07:58.486Z,,,,,,,,,,,,,,,,,54,,,,,,,,,,,,,,244.0560000000114,,response,,,,100,,,,,,,Space,keypress(Space),,,,,,,,-- --- ---- --- ------ ----- ------- ---- -- --- ------- --<br>------- ---------- ------ -- ----- -- ----- -- save ------<br>--- ----- --- --- ------ -------- ----- --- ------ ----- --<br>----- ----- ---------- --- --- ------ ------ ---- -- ------<br>------- --- ------ ----- --- ---- ------- -- ---- --- --<br>------- ------,207846,207845.5,207584.732,207593.59999999404,207601.444,207851.739,,20,save
screen,html.Screen,2_1_1_1_21,2022-02-01T13:07:58.830Z,,,,,,,,,,,,,,,,,54,,,,,,,,,,,,,,337.86099999403814,,response,,,,100,,,,,,,Space,keypress(Space),,,,,,,,"-- --- ---- --- ------ ----- ------- ---- -- --- ------- --<br>------- ---------- ------ -- ----- -- ----- -- ---- money,<br>--- ----- --- --- ------ -------- ----- --- ------ ----- --<br>----- ----- ---------- --- --- ------ ------ ---- -- ------<br>------- --- ------ ----- --- ---- ------- -- ---- --- --<br>------- ------",208190.29999998212,208189.59999999404,207835.047,207846.09999999404,207851.739,208202.164,,21,"money,"
screen,html.Screen,2_1_1_1_22,2022-02-01T13:07:59.228Z,,,,,,,,,,,,,,,,,54,,,,,,,,,,,,,,385.4359999940498,,response,,,,100,,,,,,,Space,keypress(Space),,,,,,,,-- --- ---- --- ------ ----- ------- ---- -- --- ------- --<br>------- ---------- ------ -- ----- -- ----- -- ---- ------<br>the ----- --- --- ------ -------- ----- --- ------ ----- --<br>----- ----- ---------- --- --- ------ ------ ---- -- ------<br>------- --- ------ ----- --- ---- ------- -- ---- --- --<br>------- ------,208588.29999998212,208587.59999999404,208185.369,208190.5,208202.164,208602.836,,22,the
screen,html.Screen,2_1_1_1_23,2022-02-01T13:07:59.537Z,,,,,,,,,,,,,,,,,54,,,,,,,,,,,,,,293.2639999940293,,response,,,,100,,,,,,,Space,keypress(Space),,,,,,,,-- --- ---- --- ------ ----- ------- ---- -- --- ------- --<br>------- ---------- ------ -- ----- -- ----- -- ---- ------<br>--- state --- --- ------ -------- ----- --- ------ ----- --<br>----- ----- ---------- --- --- ------ ------ ---- -- ------<br>------- --- ------ ----- --- ---- ------- -- ---- --- --<br>------- ------,208896.79999998212,208896.09999999404,208585.845,208588.5,208602.836,208902.867,,23,state
screen,html.Screen,2_1_1_1_24,2022-02-01T13:07:59.862Z,,,,,,,,,,,,,,,,,54,,,,,,,,,,,,,,318.5330000059621,,response,,,,100,,,,,,,Space,keypress(Space),,,,,,,,-- --- ---- --- ------ ----- ------- ---- -- --- ------- --<br>------- ---------- ------ -- ----- -- ----- -- ---- ------<br>--- ----- cut --- ------ -------- ----- --- ------ ----- --<br>----- ----- ---------- --- --- ------ ------ ---- -- ------<br>------- --- ------ ----- --- ---- ------- -- ---- --- --<br>------- ------,209222.09999999404,209221.40000000596,208886.783,208897,208902.867,209236.963,,24,cut
screen,html.Screen,2_1_1_1_25,2022-02-01T13:08:00.225Z,,,,,,,,,,,,,,,,,54,,,,,,,,,,,,,,347.1369999940507,,response,,,,100,,,,,,,Space,keypress(Space),,,,,,,,-- --- ---- --- ------ ----- ------- ---- -- --- ------- --<br>------- ---------- ------ -- ----- -- ----- -- ---- ------<br>--- ----- --- the ------ -------- ----- --- ------ ----- --<br>----- ----- ---------- --- --- ------ ------ ---- -- ------<br>------- --- ------ ----- --- ---- ------- -- ---- --- --<br>------- ------,209584.79999998212,209584.09999999404,209220.025,209222.29999998212,209236.963,209587.035,,25,the
screen,html.Screen,2_1_1_1_26,2022-02-01T13:08:00.664Z,,,,,,,,,,,,,,,,,54,,,,,,,,,,,,,,436.2649999821151,,response,,,,100,,,,,,,Space,keypress(Space),,,,,,,,-- --- ---- --- ------ ----- ------- ---- -- --- ------- --<br>------- ---------- ------ -- ----- -- ----- -- ---- ------<br>--- ----- --- --- bonds' -------- ----- --- ------ ----- --<br>----- ----- ---------- --- --- ------ ------ ---- -- ------<br>------- --- ------ ----- --- ---- ------- -- ---- --- --<br>------- ------,210023.90000000596,210023.29999998212,209570.324,209585,209587.035,210037.848,,26,bonds'
screen,html.Screen,2_1_1_1_27,2022-02-01T13:08:01.103Z,,,,,,,,,,,,,,,,,54,,,,,,,,,,,,,,424.7519999940414,,response,,,,100,,,,,,,Space,keypress(Space),,,,,,,,-- --- ---- --- ------ ----- ------- ---- -- --- ------- --<br>------- ---------- ------ -- ----- -- ----- -- ---- ------<br>--- ----- --- --- ------ interest ----- --- ------ ----- --<br>----- ----- ---------- --- --- ------ ------ ---- -- ------<br>------- --- ------ ----- --- ---- ------- -- ---- --- --<br>------- ------,210463.29999998212,210462.59999999404,210020.715,210024.09999999404,210037.848,210471.28,,27,interest
screen,html.Screen,2_1_1_1_28,2022-02-01T13:08:01.453Z,,,,,,,,,,,,,,,,,54,,,,,,,,,,,,,,340.72000000000116,,response,,,,100,,,,,,,Space,keypress(Space),,,,,,,,-- --- ---- --- ------ ----- ------- ---- -- --- ------- --<br>------- ---------- ------ -- ----- -- ----- -- ---- ------<br>--- ----- --- --- ------ -------- rate. --- ------ ----- --<br>----- ----- ---------- --- --- ------ ------ ---- -- ------<br>------- --- ------ ----- --- ---- ------- -- ---- --- --<br>------- ------,210812.59999999404,210812,210454.587,210463.40000000596,210471.28,210821.69,,28,rate.
screen,html.Screen,2_1_1_1_29,2022-02-01T13:08:01.847Z,,,,,,,,,,,,,,,,,54,,,,,,,,,,,,,,384.6099999821163,,response,,,,100,,,,,,,Space,keypress(Space),,,,,,,,-- --- ---- --- ------ ----- ------- ---- -- --- ------- --<br>------- ---------- ------ -- ----- -- ----- -- ---- ------<br>--- ----- --- --- ------ -------- ----- The ------ ----- --<br>----- ----- ---------- --- --- ------ ------ ---- -- ------<br>------- --- ------ ----- --- ---- ------- -- ---- --- --<br>------- ------,211207,211206.29999998212,210804.942,210812.69999998808,210821.69,211222.173,,29,The
screen,html.Screen,2_1_1_1_30,2022-02-01T13:08:02.060Z,,,,,,,,,,,,,,,,,54,,,,,,,,,,,,,,197.72700000595069,,response,,,,100,,,,,,,Space,keypress(Space),,,,,,,,-- --- ---- --- ------ ----- ------- ---- -- --- ------- --<br>------- ---------- ------ -- ----- -- ----- -- ---- ------<br>--- ----- --- --- ------ -------- ----- --- market ----- --<br>----- ----- ---------- --- --- ------ ------ ---- -- ------<br>------- --- ------ ----- --- ---- ------- -- ---- --- --<br>------- ------,211420.5,211419.90000000596,211205.9,211207.09999999404,211222.173,211422.351,,30,market
screen,html.Screen,2_1_1_1_31,2022-02-01T13:08:02.465Z,,,,,,,,,,,,,,,,,54,,,,,,,,,,,,,,401.6490000000049,,response,,,,100,,,,,,,Space,keypress(Space),,,,,,,,-- --- ---- --- ------ ----- ------- ---- -- --- ------- --<br>------- ---------- ------ -- ----- -- ----- -- ---- ------<br>--- ----- --- --- ------ -------- ----- --- ------ value --<br>----- ----- ---------- --- --- ------ ------ ---- -- ------<br>------- --- ------ ----- --- ---- ------- -- ---- --- --<br>------- ------,211824.59999999404,211824,211405.616,211420.59999999404,211422.351,211839.502,,31,value
screen,html.Screen,2_1_1_1_32,2022-02-01T13:08:02.864Z,,,,,,,,,,,,,,,,,54,,,,,,,,,,,,,,384.1979999880714,,response,,,,100,,,,,,,Space,keypress(Space),,,,,,,,-- --- ---- --- ------ ----- ------- ---- -- --- ------- --<br>------- ---------- ------ -- ----- -- ----- -- ---- ------<br>--- ----- --- --- ------ -------- ----- --- ------ ----- of<br>----- ----- ---------- --- --- ------ ------ ---- -- ------<br>------- --- ------ ----- --- ---- ------- -- ---- --- --<br>------- ------,212224.19999998808,212223.69999998808,211822.656,211824.59999999404,211839.502,212239.874,,32,of
screen,html.Screen,2_1_1_1_33,2022-02-01T13:08:03.229Z,,,,,,,,,,,,,,,,,54,,,,,,,,,,,,,,348.52600000594975,,response,,,,100,,,,,,,Space,keypress(Space),,,,,,,,-- --- ---- --- ------ ----- ------- ---- -- --- ------- --<br>------- ---------- ------ -- ----- -- ----- -- ---- ------<br>--- ----- --- --- ------ -------- ----- --- ------ ----- --<br>these ----- ---------- --- --- ------ ------ ---- -- ------<br>------- --- ------ ----- --- ---- ------- -- ---- --- --<br>------- ------,212589.29999998212,212588.40000000596,212223.141,212224.40000000596,212239.874,212590.3,,33,these
screen,html.Screen,2_1_1_1_34,2022-02-01T13:08:03.567Z,,,,,,,,,,,,,,,,,54,,,,,,,,,,,,,,336.1000000059721,,response,,,,100,,,,,,,Space,keypress(Space),,,,,,,,-- --- ---- --- ------ ----- ------- ---- -- --- ------- --<br>------- ---------- ------ -- ----- -- ----- -- ---- ------<br>--- ----- --- --- ------ -------- ----- --- ------ ----- --<br>----- bonds ---------- --- --- ------ ------ ---- -- ------<br>------- --- ------ ----- --- ---- ------- -- ---- --- --<br>------- ------,212927,212926.40000000596,212573.802,212589.5,212590.3,212940.705,,34,bonds
screen,html.Screen,2_1_1_1_35,2022-02-01T13:08:03.976Z,,,,,,,,,,,,,,,,,54,,,,,,,,,,,,,,394.9949999880919,,response,,,,100,,,,,,,Space,keypress(Space),,,,,,,,"-- --- ---- --- ------ ----- ------- ---- -- --- ------- --<br>------- ---------- ------ -- ----- -- ----- -- ---- ------<br>--- ----- --- --- ------ -------- ----- --- ------ ----- --<br>----- ----- plummeted, --- --- ------ ------ ---- -- ------<br>------- --- ------ ----- --- ---- ------- -- ---- --- --<br>------- ------",213336.40000000596,213335.69999998808,212923.883,212927.09999999404,212940.705,213341.104,,35,"plummeted,"
screen,html.Screen,2_1_1_1_36,2022-02-01T13:08:04.364Z,,,,,,,,,,,,,,,,,54,,,,,,,,,,,,,,382.595999988087,,response,,,,100,,,,,,,Space,keypress(Space),,,,,,,,-- --- ---- --- ------ ----- ------- ---- -- --- ------- --<br>------- ---------- ------ -- ----- -- ----- -- ---- ------<br>--- ----- --- --- ------ -------- ----- --- ------ ----- --<br>----- ----- ---------- and --- ------ ------ ---- -- ------<br>------- --- ------ ----- --- ---- ------- -- ---- --- --<br>------- ------,213724.40000000596,213723.69999998808,213324.606,213336.59999999404,213341.104,213741.552,,36,and
screen,html.Screen,2_1_1_1_37,2022-02-01T13:08:04.734Z,,,,,,,,,,,,,,,,,54,,,,,,,,,,,,,,351.5479999940435,,response,,,,100,,,,,,,Space,keypress(Space),,,,,,,,-- --- ---- --- ------ ----- ------- ---- -- --- ------- --<br>------- ---------- ------ -- ----- -- ----- -- ---- ------<br>--- ----- --- --- ------ -------- ----- --- ------ ----- --<br>----- ----- ---------- --- the ------ ------ ---- -- ------<br>------- --- ------ ----- --- ---- ------- -- ---- --- --<br>------- ------,214093.69999998808,214093.09999999404,213724.749,213724.59999999404,213741.552,214109.17,,37,the
screen,html.Screen,2_1_1_1_38,2022-02-01T13:08:05.123Z,,,,,,,,,,,,,,,,,54,,,,,,,,,,,,,,373.6299999821058,,response,,,,100,,,,,,,Space,keypress(Space),,,,,,,,-- --- ---- --- ------ ----- ------- ---- -- --- ------- --<br>------- ---------- ------ -- ----- -- ----- -- ---- ------<br>--- ----- --- --- ------ -------- ----- --- ------ ----- --<br>----- ----- ---------- --- --- market ------ ---- -- ------<br>------- --- ------ ----- --- ---- ------- -- ---- --- --<br>------- ------,214483.5,214482.79999998212,214091.846,214093.79999998212,214109.17,214492.342,,38,market
screen,html.Screen,2_1_1_1_39,2022-02-01T13:08:05.589Z,,,,,,,,,,,,,,,,,54,,,,,,,,,,,,,,455.4579999821144,,response,,,,100,,,,,,,Space,keypress(Space),,,,,,,,-- --- ---- --- ------ ----- ------- ---- -- --- ------- --<br>------- ---------- ------ -- ----- -- ----- -- ---- ------<br>--- ----- --- --- ------ -------- ----- --- ------ ----- --<br>----- ----- ---------- --- --- ------ became ---- -- ------<br>------- --- ------ ----- --- ---- ------- -- ---- --- --<br>------- ------,214948.59999999404,214947.79999998212,214475.814,214483.59999999404,214492.342,214959.609,,39,became
screen,html.Screen,2_1_1_1_40,2022-02-01T13:08:05.983Z,,,,,,,,,,,,,,,,,54,,,,,,,,,,,,,,382.4909999940428,,response,,,,100,,,,,,,Space,keypress(Space),,,,,,,,-- --- ---- --- ------ ----- ------- ---- -- --- ------- --<br>------- ---------- ------ -- ----- -- ----- -- ---- ------<br>--- ----- --- --- ------ -------- ----- --- ------ ----- --<br>----- ----- ---------- --- --- ------ ------ wary -- ------<br>------- --- ------ ----- --- ---- ------- -- ---- --- --<br>------- ------,215342.69999998808,215342.09999999404,214942.771,214948.90000000596,214959.609,215343.282,,40,wary
screen,html.Screen,2_1_1_1_41,2022-02-01T13:08:06.362Z,,,,,,,,,,,,,,,,,54,,,,,,,,,,,,,,378.11800000595395,,response,,,,100,,,,,,,Space,keypress(Space),,,,,,,,-- --- ---- --- ------ ----- ------- ---- -- --- ------- --<br>------- ---------- ------ -- ----- -- ----- -- ---- ------<br>--- ----- --- --- ------ -------- ----- --- ------ ----- --<br>----- ----- ---------- --- --- ------ ------ ---- of ------<br>------- --- ------ ----- --- ---- ------- -- ---- --- --<br>------- ------,215721.79999998212,215721.40000000596,215326.528,215342.79999998212,215343.282,215727.047,,41,of
screen,html.Screen,2_1_1_1_42,2022-02-01T13:08:06.727Z,,,,,,,,,,,,,,,,,54,,,,,,,,,,,,,,359.2529999821272,,response,,,,100,,,,,,,Space,keypress(Space),,,,,,,,-- --- ---- --- ------ ----- ------- ---- -- --- ------- --<br>------- ---------- ------ -- ----- -- ----- -- ---- ------<br>--- ----- --- --- ------ -------- ----- --- ------ ----- --<br>----- ----- ---------- --- --- ------ ------ ---- -- French<br>------- --- ------ ----- --- ---- ------- -- ---- --- --<br>------- ------,216086.79999998212,216086.29999998212,215710.275,215721.90000000596,215727.047,216094.116,,42,French
screen,html.Screen,2_1_1_1_43,2022-02-01T13:08:07.111Z,,,,,,,,,,,,,,,,,54,,,,,,,,,,,,,,376.48399999403046,,response,,,,100,,,,,,,Space,keypress(Space),,,,,,,,-- --- ---- --- ------ ----- ------- ---- -- --- ------- --<br>------- ---------- ------ -- ----- -- ----- -- ---- ------<br>--- ----- --- --- ------ -------- ----- --- ------ ----- --<br>----- ----- ---------- --- --- ------ ------ ---- -- ------<br>credit. --- ------ ----- --- ---- ------- -- ---- --- --<br>------- ------,216471.09999999404,216470.59999999404,216077.407,216087,216094.116,216477.875,,43,credit.
screen,html.Screen,2_1_1_1_44,2022-02-01T13:08:07.511Z,,,,,,,,,,,,,,,,,54,,,,,,,,,,,,,,392.22499999403954,,response,,,,100,,,,,,,Space,keypress(Space),,,,,,,,-- --- ---- --- ------ ----- ------- ---- -- --- ------- --<br>------- ---------- ------ -- ----- -- ----- -- ---- ------<br>--- ----- --- --- ------ -------- ----- --- ------ ----- --<br>----- ----- ---------- --- --- ------ ------ ---- -- ------<br>------- The ------ ----- --- ---- ------- -- ---- --- --<br>------- ------,216870.69999998808,216870.09999999404,216461.634,216471.29999998212,216477.875,216878.309,,44,The
screen,html.Screen,2_1_1_1_45,2022-02-01T13:08:07.861Z,,,,,,,,,,,,,,,,,54,,,,,,,,,,,,,,341.6909999999916,,response,,,,100,,,,,,,Space,keypress(Space),,,,,,,,-- --- ---- --- ------ ----- ------- ---- -- --- ------- --<br>------- ---------- ------ -- ----- -- ----- -- ---- ------<br>--- ----- --- --- ------ -------- ----- --- ------ ----- --<br>----- ----- ---------- --- --- ------ ------ ---- -- ------<br>------- --- French ----- --- ---- ------- -- ---- --- --<br>------- ------,217220.69999998808,217220,216861.522,216870.79999998212,216878.309,217228.666,,45,French
screen,html.Screen,2_1_1_1_46,2022-02-01T13:08:08.172Z,,,,,,,,,,,,,,,,,54,,,,,,,,,,,,,,303.234000005963,,response,,,,100,,,,,,,Space,keypress(Space),,,,,,,,-- --- ---- --- ------ ----- ------- ---- -- --- ------- --<br>------- ---------- ------ -- ----- -- ----- -- ---- ------<br>--- ----- --- --- ------ -------- ----- --- ------ ----- --<br>----- ----- ---------- --- --- ------ ------ ---- -- ------<br>------- --- ------ state --- ---- ------- -- ---- --- --<br>------- ------,217532.5,217531.90000000596,217211.9,217220.79999998212,217228.666,217546.161,,46,state
screen,html.Screen,2_1_1_1_47,2022-02-01T13:08:08.537Z,,,,,,,,,,,,,,,,,54,,,,,,,,,,,,,,349.93899999404675,,response,,,,100,,,,,,,Space,keypress(Space),,,,,,,,-- --- ---- --- ------ ----- ------- ---- -- --- ------- --<br>------- ---------- ------ -- ----- -- ----- -- ---- ------<br>--- ----- --- --- ------ -------- ----- --- ------ ----- --<br>----- ----- ---------- --- --- ------ ------ ---- -- ------<br>------- --- ------ ----- was ---- ------- -- ---- --- --<br>------- ------,217897,217896.09999999404,217528.893,217532.59999999404,217546.161,217912.781,,47,was
screen,html.Screen,2_1_1_1_48,2022-02-01T13:08:09.137Z,,,,,,,,,,,,,,,,,54,,,,,,,,,,,,,,583.7190000000119,,response,,,,100,,,,,,,Space,keypress(Space),,,,,,,,-- --- ---- --- ------ ----- ------- ---- -- --- ------- --<br>------- ---------- ------ -- ----- -- ----- -- ---- ------<br>--- ----- --- --- ------ -------- ----- --- ------ ----- --<br>----- ----- ---------- --- --- ------ ------ ---- -- ------<br>------- --- ------ ----- --- left ------- -- ---- --- --<br>------- ------,218497.29999998212,218496.5,217896.558,217897.19999998808,217912.781,218513.594,,48,left
screen,html.Screen,2_1_1_1_49,2022-02-01T13:08:09.506Z,,,,,,,,,,,,,,,,,54,,,,,,,,,,,,,,351.8060000059486,,response,,,,100,,,,,,,Space,keypress(Space),,,,,,,,-- --- ---- --- ------ ----- ------- ---- -- --- ------- --<br>------- ---------- ------ -- ----- -- ----- -- ---- ------<br>--- ----- --- --- ------ -------- ----- --- ------ ----- --<br>----- ----- ---------- --- --- ------ ------ ---- -- ------<br>------- --- ------ ----- --- ---- without -- ---- --- --<br>------- ------,218866.19999998808,218865.40000000596,218496.561,218497.5,218513.594,218880.55,,49,without
screen,html.Screen,2_1_1_1_50,2022-02-01T13:08:09.840Z,,,,,,,,,,,,,,,,,54,,,,,,,,,,,,,,318.74999998213025,,response,,,,100,,,,,,,Space,keypress(Space),,,,,,,,-- --- ---- --- ------ ----- ------- ---- -- --- ------- --<br>------- ---------- ------ -- ----- -- ----- -- ---- ------<br>--- ----- --- --- ------ -------- ----- --- ------ ----- --<br>----- ----- ---------- --- --- ------ ------ ---- -- ------<br>------- --- ------ ----- --- ---- ------- an ---- --- --<br>------- ------,219200.09999999404,219199.29999998212,218863.979,218866.29999998212,218880.55,219214.47,,50,an
screen,html.Screen,2_1_1_1_51,2022-02-01T13:08:10.204Z,,,,,,,,,,,,,,,,,54,,,,,,,,,,,,,,348.9300000059593,,response,,,,100,,,,,,,Space,keypress(Space),,,,,,,,-- --- ---- --- ------ ----- ------- ---- -- --- ------- --<br>------- ---------- ------ -- ----- -- ----- -- ---- ------<br>--- ----- --- --- ------ -------- ----- --- ------ ----- --<br>----- ----- ---------- --- --- ------ ------ ---- -- ------<br>------- --- ------ ----- --- ---- ------- -- easy --- --<br>------- ------,219564.09999999404,219563.40000000596,219197.428,219200.19999998808,219214.47,219564.571,,51,easy
screen,html.Screen,2_1_1_1_52,2022-02-01T13:08:10.548Z,,,,,,,,,,,,,,,,,54,,,,,,,,,,,,,,342.4290000000037,,response,,,,100,,,,,,,Space,keypress(Space),,,,,,,,-- --- ---- --- ------ ----- ------- ---- -- --- ------- --<br>------- ---------- ------ -- ----- -- ----- -- ---- ------<br>--- ----- --- --- ------ -------- ----- --- ------ ----- --<br>----- ----- ---------- --- --- ------ ------ ---- -- ------<br>------- --- ------ ----- --- ---- ------- -- ---- way --<br>------- ------,219907.79999998212,219907,219548.17,219564.19999998808,219564.571,219914.902,,52,way
screen,html.Screen,2_1_1_1_53,2022-02-01T13:08:10.925Z,,,,,,,,,,,,,,,,,54,,,,,,,,,,,,,,369.6979999940377,,response,,,,100,,,,,,,Space,keypress(Space),,,,,,,,-- --- ---- --- ------ ----- ------- ---- -- --- ------- --<br>------- ---------- ------ -- ----- -- ----- -- ---- ------<br>--- ----- --- --- ------ -------- ----- --- ------ ----- --<br>----- ----- ---------- --- --- ------ ------ ---- -- ------<br>------- --- ------ ----- --- ---- ------- -- ---- --- of<br>------- ------,220285,220284.59999999404,219898.202,219908,219914.902,220298.686,,53,of
screen,html.Screen,2_1_1_1_54,2022-02-01T13:08:11.315Z,,,,,,,,,,,,,,,,,54,,,,,,,,,,,,,,376.0139999880921,,response,,,,100,,,,,,,Space,keypress(Space),,,,,,,,-- --- ---- --- ------ ----- ------- ---- -- --- ------- --<br>------- ---------- ------ -- ----- -- ----- -- ---- ------<br>--- ----- --- --- ------ -------- ----- --- ------ ----- --<br>----- ----- ---------- --- --- ------ ------ ---- -- ------<br>------- --- ------ ----- --- ---- ------- -- ---- --- --<br>raising ------,220675.40000000596,220674.69999998808,220281.95,220285.09999999404,220298.686,220682.509,,54,raising
screen,html.Screen,2_1_1_1_55,2022-02-01T13:08:11.932Z,,,,,,,,,,,,,,,,,54,,,,,,,,,,,,,,608.7909999821277,,response,,,,100,,,,,,,Space,keypress(Space),,,,,,,,-- --- ---- --- ------ ----- ------- ---- -- --- ------- --<br>------- ---------- ------ -- ----- -- ----- -- ---- ------<br>--- ----- --- --- ------ -------- ----- --- ------ ----- --<br>----- ----- ---------- --- --- ------ ------ ---- -- ------<br>------- --- ------ ----- --- ---- ------- -- ---- --- --<br>------- money.,221292.19999998808,221291.29999998212,220665.658,220675.59999999404,220682.509,221299.844,,55,money.
Item 100,flow.Loop,2_1_1_1,2022-02-01T13:08:11.933Z,,,,,,,,,,,,,,,,,,,,,,,,,,,,,,,22766.43399998211,,completion,,,,,C,,,,,,,,,,,silence,,,,,221292.59999999404,221291.29999998212,198508.792,198509.79999998212,198524.866,221299.844,,,
Question 1,html.Screen,2_1_1_2,2022-02-01T13:08:15.118Z,,,,,,,,,,,,,,,,,,,,,,,,,,,,true,TRUE,,3176.855999988067,,response,,,,100,C,,,,,,TRUE,click #choice-1,,,,silence,,,,,224477.59999999404,224476.69999998808,221282.967,221292.59999999404,221299.844,224486.619,,,
Question 2,html.Screen,2_1_1_3,2022-02-01T13:08:17.664Z,,,,,,,,,,,,,,,,,,,,,,,,,,,,true,FALSE,,2536.580999988073,,response,,,,100,C,,,,,,FALSE,click #choice-2,,,,silence,,,,,227024,227023.19999998808,224470.106,224477.79999998212,224486.619,227039.414,,,
Item 100,flow.Sequence,2_1_1,2022-02-01T13:08:17.664Z,,,,,,,,,,,,,,,,,,,,,,,,,,,,,,,38492.538999988086,,completion,,,,,,,,,,,,,,,,,,,,,227024.29999998212,227023.19999998808,188513.924,188524.40000000596,188530.661,227039.414,,,
End of Practice,html.Page,2_1_2,2022-02-01T13:08:20.863Z,,,,,,,,,,,,,,,,,,,,,,,,,,,,,,,3183.2859999880893,,form submission,,,,,,,,,,,,,,,,,,,,,230223.09999999404,230222.69999998808,227022.721,227024.40000000596,227039.414,230226.272,,,
Practice,flow.Sequence,2_1,2022-02-01T13:08:20.863Z,,,,,,,,,,,,,,,,,,,,,,,,,,,,,,,83804.74899998808,,completion,,,,,,,,,,,,,,,,,,,,,230223.29999998212,230222.69999998808,146401.252,146415.69999998808,146417.951,230226.272,,,
Trap_instruction,html.Page,2_2_0,2022-02-01T13:08:25.540Z,,,,,,,,,,,,,,,,,,,,,,,,,,,,,,,4673.128000005963,,form submission,,,,,,,,,,,,,,,,,,,,,234899.59999999404,234899.40000000596,230209.576,230223.40000000596,230226.272,234914.916,,,
trap_trial,html.Screen,2_2_1,2022-02-01T13:08:29.120Z,,,,,,,,,,,,,,,,,,,,,,,,,,,,true,1,,3564.484000005963,,response,,,,,,,,,,,1,click #choice-1,,,,,,,,,238480.40000000596,238479.40000000596,234897.933,234899.79999998212,234914.916,238485.296,,,
end of trap trial,html.Page,2_2_2,2022-02-01T13:08:30.907Z,,,,,,,,,,,,,,,,,,,,,,,,,,,,,,,1780.903999988077,,form submission,,,,,,,,,,,,,,,,,,,,,240266.5,240266.19999998808,238468.489,238480.59999999404,238485.296,240270.557,,,
Trap 1,flow.Sequence,2_2,2022-02-01T13:08:30.907Z,,,,,,,,,,,,,,,,,,,,,,,,,,,,,,,10039.927999988082,,completion,,,,,,,,,,,,,,,,,,,,,240266.69999998808,240266.19999998808,230209.576,230223.40000000596,230226.272,240270.557,,,
Standby,html.Page,2_3_0,2022-02-01T13:08:38.887Z,,,,,,,,,,,,,,,,,,,,,,,,,,,,,,,7992.010000000009,,timeout,,,,,,,,,,,,,,,,,,,,,248247,248246.361,240253.901,240266.90000000596,240270.557,248262.567,,,
Holding screen,html.Screen,2_3_1_0_0,2022-02-01T13:08:45.895Z,,,,,,,,,,,,,,,,,,,,,,,,,,,,,,,7007.718999999983,,timeout,,,,,,,,,,,,,,,,,,,,,255255,255253.617,248246.361,248247.19999998808,248262.567,255270.286,,,
screen,html.Screen,2_3_1_0_1_0,2022-02-01T13:08:46.779Z,,,,,,,,,,,,,,,,,48,,,,,,,,,,,,,,868.4139999880863,,response,,,,10,C,,,,,,Space,keypress(Space),,,,instrumental,,,,As -- --- ------ ------- --------- ----------- --------<br>--------- -------- --- ------- -- ------- ---- -- ------<br>-- --- -------- -------- ---------- ---- ---- ---- ------<br>-- --------- -- ---- -- --- -- --- ------- -- - -----<br>---------- -- -- -- ---- ----- -- ------ -- --- ------<br>-------,256139.40000000596,256138.69999998808,255253.617,255255.09999999404,255270.286,256154.57,,0,As
screen,html.Screen,2_3_1_0_1_1,2022-02-01T13:08:47.126Z,,,,,,,,,,,,,,,,,48,,,,,,,,,,,,,,331.1299999880721,,response,,,,10,C,,,,,,Space,keypress(Space),,,,instrumental,,,,-- in --- ------ ------- --------- ----------- --------<br>--------- -------- --- ------- -- ------- ---- -- ------<br>-- --- -------- -------- ---------- ---- ---- ---- ------<br>-- --------- -- ---- -- --- -- --- ------- -- - -----<br>---------- -- -- -- ---- ----- -- ------ -- --- ------<br>-------,256486.29999998212,256485.69999998808,256137.651,256139.5,256154.57,256488.265,,1,in
screen,html.Screen,2_3_1_0_1_2,2022-02-01T13:08:47.454Z,,,,,,,,,,,,,,,,,48,,,,,,,,,,,,,,325.33499999402557,,response,,,,10,C,,,,,,Space,keypress(Space),,,,instrumental,,,,-- -- the ------ ------- --------- ----------- --------<br>--------- -------- --- ------- -- ------- ---- -- ------<br>-- --- -------- -------- ---------- ---- ---- ---- ------<br>-- --------- -- ---- -- --- -- --- ------- -- - -----<br>---------- -- -- -- ---- ----- -- ------ -- --- ------<br>-------,256814.19999998808,256813.59999999404,256471.832,256486.5,256488.265,256821.93,,2,the
screen,html.Screen,2_3_1_0_1_3,2022-02-01T13:08:47.847Z,,,,,,,,,,,,,,,,,48,,,,,,,,,,,,,,385.26999998808606,,response,,,,10,C,,,,,,Space,keypress(Space),,,,instrumental,,,,-- -- --- United ------- --------- ----------- --------<br>--------- -------- --- ------- -- ------- ---- -- ------<br>-- --- -------- -------- ---------- ---- ---- ---- ------<br>-- --------- -- ---- -- --- -- --- ------- -- - -----<br>---------- -- -- -- ---- ----- -- ------ -- --- ------<br>-------,257207.69999998808,257207.19999998808,256805.192,256814.29999998212,256821.93,257222.41,,3,United
screen,html.Screen,2_3_1_0_1_4,2022-02-01T13:08:48.197Z,,,,,,,,,,,,,,,,,48,,,,,,,,,,,,,,334.490000005957,,response,,,,10,C,,,,,,Space,keypress(Space),,,,instrumental,,,,"-- -- --- ------ States, --------- ----------- --------<br>--------- -------- --- ------- -- ------- ---- -- ------<br>-- --- -------- -------- ---------- ---- ---- ---- ------<br>-- --------- -- ---- -- --- -- --- ------- -- - -----<br>---------- -- -- -- ---- ----- -- ------ -- --- ------<br>-------",257557.5,257556.90000000596,257205.841,257207.90000000596,257222.41,257572.818,,4,"States,"
screen,html.Screen,2_3_1_0_1_5,2022-02-01T13:08:48.646Z,,,,,,,,,,,,,,,,,48,,,,,,,,,,,,,,433.1820000000007,,response,,,,10,C,,,,,,Space,keypress(Space),,,,instrumental,,,,-- -- --- ------ ------- Colombian ----------- --------<br>--------- -------- --- ------- -- ------- ---- -- ------<br>-- --- -------- -------- ---------- ---- ---- ---- ------<br>-- --------- -- ---- -- --- -- --- ------- -- - -----<br>---------- -- -- -- ---- ----- -- ------ -- --- ------<br>-------,258006.79999998212,258006,257556.002,257557.69999998808,257572.818,258023.302,,5,Colombian
screen,html.Screen,2_3_1_0_1_6,2022-02-01T13:08:49.116Z,,,,,,,,,,,,,,,,,48,,,,,,,,,,,,,,452.89799998808303,,response,,,,10,C,,,,,,Space,keypress(Space),,,,instrumental,,,,-- -- --- ------ ------- --------- legislation --------<br>--------- -------- --- ------- -- ------- ---- -- ------<br>-- --- -------- -------- ---------- ---- ---- ---- ------<br>-- --------- -- ---- -- --- -- --- ------- -- - -----<br>---------- -- -- -- ---- ----- -- ------ -- --- ------<br>-------,258476.59999999404,258476.19999998808,258006.548,258007,258023.302,258490.426,,6,legislation
screen,html.Screen,2_3_1_0_1_7,2022-02-01T13:08:49.546Z,,,,,,,,,,,,,,,,,48,,,,,,,,,,,,,,414.9740000059537,,response,,,,10,C,,,,,,Space,keypress(Space),,,,instrumental,,,,-- -- --- ------ ------- --------- ----------- requires<br>--------- -------- --- ------- -- ------- ---- -- ------<br>-- --- -------- -------- ---------- ---- ---- ---- ------<br>-- --------- -- ---- -- --- -- --- ------- -- - -----<br>---------- -- -- -- ---- ----- -- ------ -- --- ------<br>-------,258906.09999999404,258905.40000000596,258474.18,258476.69999998808,258490.426,258907.629,,7,requires
screen,html.Screen,2_3_1_0_1_8,2022-02-01T13:08:49.905Z,,,,,,,,,,,,,,,,,48,,,,,,,,,,,,,,357.17099998213234,,response,,,,10,C,,,,,,Space,keypress(Space),,,,instrumental,,,,-- -- --- ------ ------- --------- ----------- --------<br>travelers -------- --- ------- -- ------- ---- -- ------<br>-- --- -------- -------- ---------- ---- ---- ---- ------<br>-- --------- -- ---- -- --- -- --- ------- -- - -----<br>---------- -- -- -- ---- ----- -- ------ -- --- ------<br>-------,259265.40000000596,259264.79999998212,258890.777,258906.19999998808,258907.629,259274.666,,8,travelers
screen,html.Screen,2_3_1_0_1_9,2022-02-01T13:08:50.364Z,,,,,,,,,,,,,,,,,48,,,,,,,,,,,,,,449.13399998212117,,response,,,,10,C,,,,,,Space,keypress(Space),,,,instrumental,,,,-- -- --- ------ ------- --------- ----------- --------<br>--------- entering --- ------- -- ------- ---- -- ------<br>-- --- -------- -------- ---------- ---- ---- ---- ------<br>-- --------- -- ---- -- --- -- --- ------- -- - -----<br>---------- -- -- -- ---- ----- -- ------ -- --- ------<br>-------,259724.29999998212,259723.79999998212,259258.221,259265.59999999404,259274.666,259725.138,,9,entering
screen,html.Screen,2_3_1_0_1_10,2022-02-01T13:08:50.678Z,,,,,,,,,,,,,,,,,48,,,,,,,,,,,,,,311.96199999403325,,response,,,,10,C,,,,,,Space,keypress(Space),,,,instrumental,,,,-- -- --- ------ ------- --------- ----------- --------<br>--------- -------- the ------- -- ------- ---- -- ------<br>-- --- -------- -------- ---------- ---- ---- ---- ------<br>-- --------- -- ---- -- --- -- --- ------- -- - -----<br>---------- -- -- -- ---- ----- -- ------ -- --- ------<br>-------,260037.90000000596,260037.09999999404,259708.362,259724.40000000596,259725.138,260042.179,,10,the
screen,html.Screen,2_3_1_0_1_11,2022-02-01T13:08:51.017Z,,,,,,,,,,,,,,,,,48,,,,,,,,,,,,,,334.22100000595674,,response,,,,10,C,,,,,,Space,keypress(Space),,,,instrumental,,,,-- -- --- ------ ------- --------- ----------- --------<br>--------- -------- --- country -- ------- ---- -- ------<br>-- --- -------- -------- ---------- ---- ---- ---- ------<br>-- --------- -- ---- -- --- -- --- ------- -- - -----<br>---------- -- -- -- ---- ----- -- ------ -- --- ------<br>-------,260377.09999999404,260376.40000000596,260025.68,260038.09999999404,260042.179,260392.582,,11,country
screen,html.Screen,2_3_1_0_1_12,2022-02-01T13:08:51.346Z,,,,,,,,,,,,,,,,,48,,,,,,,,,,,,,,312.9180000000051,,response,,,,10,C,,,,,,Space,keypress(Space),,,,instrumental,,,,-- -- --- ------ ------- --------- ----------- --------<br>--------- -------- --- ------- to ------- ---- -- ------<br>-- --- -------- -------- ---------- ---- ---- ---- ------<br>-- --------- -- ---- -- --- -- --- ------- -- - -----<br>---------- -- -- -- ---- ----- -- ------ -- --- ------<br>-------,260706.19999998808,260705.5,260376.539,260377.29999998212,260392.582,260709.579,,12,to
screen,html.Screen,2_3_1_0_1_13,2022-02-01T13:08:51.706Z,,,,,,,,,,,,,,,,,48,,,,,,,,,,,,,,356.32100000596256,,response,,,,10,C,,,,,,Space,keypress(Space),,,,instrumental,,,,-- -- --- ------ ------- --------- ----------- --------<br>--------- -------- --- ------- -- declare ---- -- ------<br>-- --- -------- -------- ---------- ---- ---- ---- ------<br>-- --------- -- ---- -- --- -- --- ------- -- - -----<br>---------- -- -- -- ---- ----- -- ------ -- --- ------<br>-------,261066.59999999404,261065.90000000596,260692.977,260706.19999998808,260709.579,261076.673,,13,declare
screen,html.Screen,2_3_1_0_1_14,2022-02-01T13:08:52.071Z,,,,,,,,,,,,,,,,,48,,,,,,,,,,,,,,354.3269999999902,,response,,,,10,C,,,,,,Space,keypress(Space),,,,instrumental,,,,-- -- --- ------ ------- --------- ----------- --------<br>--------- -------- --- ------- -- ------- cash -- ------<br>-- --- -------- -------- ---------- ---- ---- ---- ------<br>-- --------- -- ---- -- --- -- --- ------- -- - -----<br>---------- -- -- -- ---- ----- -- ------ -- --- ------<br>-------,261431.5,261431,261059.813,261066.79999998212,261076.673,261443.711,,14,cash
screen,html.Screen,2_3_1_0_1_15,2022-02-01T13:08:52.426Z,,,,,,,,,,,,,,,,,48,,,,,,,,,,,,,,341.6890000059502,,response,,,,10,C,,,,,,Space,keypress(Space),,,,instrumental,,,,-- -- --- ------ ------- --------- ----------- --------<br>--------- -------- --- ------- -- ------- ---- in ------<br>-- --- -------- -------- ---------- ---- ---- ---- ------<br>-- --------- -- ---- -- --- -- --- ------- -- - -----<br>---------- -- -- -- ---- ----- -- ------ -- --- ------<br>-------,261786.19999998808,261785.40000000596,261426.939,261431.59999999404,261443.711,261794.028,,15,in
screen,html.Screen,2_3_1_0_1_16,2022-02-01T13:08:52.780Z,,,,,,,,,,,,,,,,,48,,,,,,,,,,,,,,345.8720000059693,,response,,,,10,C,,,,,,Space,keypress(Space),,,,instrumental,,,,-- -- --- ------ ------- --------- ----------- --------<br>--------- -------- --- ------- -- ------- ---- -- excess<br>-- --- -------- -------- ---------- ---- ---- ---- ------<br>-- --------- -- ---- -- --- -- --- ------- -- - -----<br>---------- -- -- -- ---- ----- -- ------ -- --- ------<br>-------,262140.59999999404,262139.90000000596,261777.32,261786.40000000596,261794.028,262144.505,,16,excess
screen,html.Screen,2_3_1_0_1_17,2022-02-01T13:08:53.129Z,,,,,,,,,,,,,,,,,48,,,,,,,,,,,,,,344.5949999940349,,response,,,,10,C,,,,,,Space,keypress(Space),,,,instrumental,,,,-- -- --- ------ ------- --------- ----------- --------<br>--------- -------- --- ------- -- ------- ---- -- ------<br>of --- -------- -------- ---------- ---- ---- ---- ------<br>-- --------- -- ---- -- --- -- --- ------- -- - -----<br>---------- -- -- -- ---- ----- -- ------ -- --- ------<br>-------,262489.7999999821,262489.09999999404,262127.995,262140.79999998212,262144.505,262494.882,,17,of
screen,html.Screen,2_3_1_0_1_18,2022-02-01T13:08:53.497Z,,,,,,,,,,,,,,,,,48,,,,,,,,,,,,,,361.91799998213537,,response,,,,10,C,,,,,,Space,keypress(Space),,,,instrumental,,,,-- -- --- ------ ------- --------- ----------- --------<br>--------- -------- --- ------- -- ------- ---- -- ------<br>-- ten -------- -------- ---------- ---- ---- ---- ------<br>-- --------- -- ---- -- --- -- --- ------- -- - -----<br>---------- -- -- -- ---- ----- -- ------ -- --- ------<br>-------,262857.40000000596,262856.7999999821,262478.115,262490,262494.882,262861.874,,18,ten
screen,html.Screen,2_3_1_0_1_19,2022-02-01T13:08:53.865Z,,,,,,,,,,,,,,,,,48,,,,,,,,,,,,,,363.02600000594975,,response,,,,10,C,,,,,,Space,keypress(Space),,,,instrumental,,,,-- -- --- ------ ------- --------- ----------- --------<br>--------- -------- --- ------- -- ------- ---- -- ------<br>-- --- thousand -------- ---------- ---- ---- ---- ------<br>-- --------- -- ---- -- --- -- --- ------- -- - -----<br>---------- -- -- -- ---- ----- -- ------ -- --- ------<br>-------,263225.40000000596,263224.90000000596,262845.382,262857.59999999404,262861.874,263228.999,,19,thousand
screen,html.Screen,2_3_1_0_1_20,2022-02-01T13:08:54.204Z,,,,,,,,,,,,,,,,,48,,,,,,,,,,,,,,335.3009999821079,,response,,,,10,C,,,,,,Space,keypress(Space),,,,instrumental,,,,-- -- --- ------ ------- --------- ----------- --------<br>--------- -------- --- ------- -- ------- ---- -- ------<br>-- --- -------- dollars. ---------- ---- ---- ---- ------<br>-- --------- -- ---- -- --- -- --- ------- -- - -----<br>---------- -- -- -- ---- ----- -- ------ -- --- ------<br>-------,263564.7999999821,263564.2999999821,263212.183,263225.5,263228.999,263579.348,,20,dollars.
screen,html.Screen,2_3_1_0_1_21,2022-02-01T13:08:54.614Z,,,,,,,,,,,,,,,,,48,,,,,,,,,,,,,,394.35199998808093,,response,,,,10,C,,,,,,Space,keypress(Space),,,,instrumental,,,,-- -- --- ------ ------- --------- ----------- --------<br>--------- -------- --- ------- -- ------- ---- -- ------<br>-- --- -------- -------- Concealing ---- ---- ---- ------<br>-- --------- -- ---- -- --- -- --- ------- -- - -----<br>---------- -- -- -- ---- ----- -- ------ -- --- ------<br>-------,263974.1999999881,263973.6999999881,263562.813,263564.90000000596,263579.348,263980.057,,21,Concealing
screen,html.Screen,2_3_1_0_1_22,2022-02-01T13:08:55.087Z,,,,,,,,,,,,,,,,,48,,,,,,,,,,,,,,466.54299999406794,,response,,,,10,C,,,,,,Space,keypress(Space),,,,instrumental,,,,-- -- --- ------ ------- --------- ----------- --------<br>--------- -------- --- ------- -- ------- ---- -- ------<br>-- --- -------- -------- ---------- more ---- ---- ------<br>-- --------- -- ---- -- --- -- --- ------- -- - -----<br>---------- -- -- -- ---- ----- -- ------ -- --- ------<br>-------,264447,264446.59999999404,263962.992,263974.1999999881,263980.057,264463.659,,22,more
screen,html.Screen,2_3_1_0_1_23,2022-02-01T13:08:55.405Z,,,,,,,,,,,,,,,,,48,,,,,,,,,,,,,,301.3410000000149,,response,,,,10,C,,,,,,Space,keypress(Space),,,,instrumental,,,,-- -- --- ------ ------- --------- ----------- --------<br>--------- -------- --- ------- -- ------- ---- -- ------<br>-- --- -------- -------- ---------- ---- than ---- ------<br>-- --------- -- ---- -- --- -- --- ------- -- - -----<br>---------- -- -- -- ---- ----- -- ------ -- --- ------<br>-------,264765.6999999881,264765,264446.848,264447.09999999404,264463.659,264780.698,,23,than
screen,html.Screen,2_3_1_0_1_24,2022-02-01T13:08:55.734Z,,,,,,,,,,,,,,,,,48,,,,,,,,,,,,,,313.10199998214375,,response,,,,10,C,,,,,,Space,keypress(Space),,,,instrumental,,,,-- -- --- ------ ------- --------- ----------- --------<br>--------- -------- --- ------- -- ------- ---- -- ------<br>-- --- -------- -------- ---------- ---- ---- that ------<br>-- --------- -- ---- -- --- -- --- ------- -- - -----<br>---------- -- -- -- ---- ----- -- ------ -- --- ------<br>-------,265094.5,265093.7999999821,264764.009,264765.7999999821,264780.698,265097.71,,24,that
screen,html.Screen,2_3_1_0_1_25,2022-02-01T13:08:56.064Z,,,,,,,,,,,,,,,,,48,,,,,,,,,,,,,,326.3899999940186,,response,,,,10,C,,,,,,Space,keypress(Space),,,,instrumental,,,,-- -- --- ------ ------- --------- ----------- --------<br>--------- -------- --- ------- -- ------- ---- -- ------<br>-- --- -------- -------- ---------- ---- ---- ---- amount<br>-- --------- -- ---- -- --- -- --- ------- -- - -----<br>---------- -- -- -- ---- ----- -- ------ -- --- ------<br>-------,265424.59999999404,265424.09999999404,265080.871,265094.5,265097.71,265431.338,,25,amount
screen,html.Screen,2_3_1_0_1_26,2022-02-01T13:08:56.399Z,,,,,,,,,,,,,,,,,48,,,,,,,,,,,,,,326.9619999821298,,response,,,,10,C,,,,,,Space,keypress(Space),,,,instrumental,,,,-- -- --- ------ ------- --------- ----------- --------<br>--------- -------- --- ------- -- ------- ---- -- ------<br>-- --- -------- -------- ---------- ---- ---- ---- ------<br>to --------- -- ---- -- --- -- --- ------- -- - -----<br>---------- -- -- -- ---- ----- -- ------ -- --- ------<br>-------,265759,265758.2999999821,265414.601,265424.59999999404,265431.338,265765.106,,26,to
screen,html.Screen,2_3_1_0_1_27,2022-02-01T13:08:56.783Z,,,,,,,,,,,,,,,,,48,,,,,,,,,,,,,,377.89399999997113,,response,,,,10,C,,,,,,Space,keypress(Space),,,,instrumental,,,,-- -- --- ------ ------- --------- ----------- --------<br>--------- -------- --- ------- -- ------- ---- -- ------<br>-- --- -------- -------- ---------- ---- ---- ---- ------<br>-- transport -- ---- -- --- -- --- ------- -- - -----<br>---------- -- -- -- ---- ----- -- ------ -- --- ------<br>-------,266143.7999999821,266143,265748.494,265759.1999999881,265765.106,266148.907,,27,transport
screen,html.Screen,2_3_1_0_1_28,2022-02-01T13:08:57.228Z,,,,,,,,,,,,,,,,,48,,,,,,,,,,,,,,439.0929999999935,,response,,,,10,C,,,,,,Space,keypress(Space),,,,instrumental,,,,-- -- --- ------ ------- --------- ----------- --------<br>--------- -------- --- ------- -- ------- ---- -- ------<br>-- --- -------- -------- ---------- ---- ---- ---- ------<br>-- --------- it ---- -- --- -- --- ------- -- - -----<br>---------- -- -- -- ---- ----- -- ------ -- --- ------<br>-------,266588.6999999881,266588,266132.036,266144.09999999404,266148.907,266599.352,,28,it
screen,html.Screen,2_3_1_0_1_29,2022-02-01T13:08:57.677Z,,,,,,,,,,,,,,,,,48,,,,,,,,,,,,,,437.74799999402603,,response,,,,10,C,,,,,,Space,keypress(Space),,,,instrumental,,,,-- -- --- ------ ------- --------- ----------- --------<br>--------- -------- --- ------- -- ------- ---- -- ------<br>-- --- -------- -------- ---------- ---- ---- ---- ------<br>-- --------- -- into -- --- -- --- ------- -- - -----<br>---------- -- -- -- ---- ----- -- ------ -- --- ------<br>-------,267037.6999999881,267037.09999999404,266582.528,266588.7999999821,266599.352,267049.981,,29,into
screen,html.Screen,2_3_1_0_1_30,2022-02-01T13:08:58.181Z,,,,,,,,,,,,,,,,,48,,,,,,,,,,,,,,490.9190000059316,,response,,,,10,C,,,,,,Space,keypress(Space),,,,instrumental,,,,-- -- --- ------ ------- --------- ----------- --------<br>--------- -------- --- ------- -- ------- ---- -- ------<br>-- --- -------- -------- ---------- ---- ---- ---- ------<br>-- --------- -- ---- or --- -- --- ------- -- - -----<br>---------- -- -- -- ---- ----- -- ------ -- --- ------<br>-------,267541.2999999821,267540.90000000596,267033.044,267037.90000000596,267049.981,267550.344,,30,or
screen,html.Screen,2_3_1_0_1_31,2022-02-01T13:08:58.543Z,,,,,,,,,,,,,,,,,48,,,,,,,,,,,,,,352.5560000059777,,response,,,,10,C,,,,,,Space,keypress(Space),,,,instrumental,,,,-- -- --- ------ ------- --------- ----------- --------<br>--------- -------- --- ------- -- ------- ---- -- ------<br>-- --- -------- -------- ---------- ---- ---- ---- ------<br>-- --------- -- ---- -- out -- --- ------- -- - -----<br>---------- -- -- -- ---- ----- -- ------ -- --- ------<br>-------,267903.59999999404,267902.90000000596,267533.579,267541.5,267550.344,267917.393,,31,out
screen,html.Screen,2_3_1_0_1_32,2022-02-01T13:08:58.862Z,,,,,,,,,,,,,,,,,48,,,,,,,,,,,,,,304.80699998809723,,response,,,,10,C,,,,,,Space,keypress(Space),,,,instrumental,,,,-- -- --- ------ ------- --------- ----------- --------<br>--------- -------- --- ------- -- ------- ---- -- ------<br>-- --- -------- -------- ---------- ---- ---- ---- ------<br>-- --------- -- ---- -- --- of --- ------- -- - -----<br>---------- -- -- -- ---- ----- -- ------ -- --- ------<br>-------,268222.6999999881,268222.1999999881,267900.639,267903.7999999821,267917.393,268234.449,,32,of
screen,html.Screen,2_3_1_0_1_33,2022-02-01T13:08:59.191Z,,,,,,,,,,,,,,,,,48,,,,,,,,,,,,,,316.6509999940172,,response,,,,10,C,,,,,,Space,keypress(Space),,,,instrumental,,,,-- -- --- ------ ------- --------- ----------- --------<br>--------- -------- --- ------- -- ------- ---- -- ------<br>-- --- -------- -------- ---------- ---- ---- ---- ------<br>-- --------- -- ---- -- --- -- the ------- -- - -----<br>---------- -- -- -- ---- ----- -- ------ -- --- ------<br>-------,268551.7999999821,268551.09999999404,268217.716,268222.7999999821,268234.449,268568.16,,33,the
screen,html.Screen,2_3_1_0_1_34,2022-02-01T13:08:59.541Z,,,,,,,,,,,,,,,,,48,,,,,,,,,,,,,,332.1399999821442,,response,,,,10,C,,,,,,Space,keypress(Space),,,,instrumental,,,,-- -- --- ------ ------- --------- ----------- --------<br>--------- -------- --- ------- -- ------- ---- -- ------<br>-- --- -------- -------- ---------- ---- ---- ---- ------<br>-- --------- -- ---- -- --- -- --- country -- - -----<br>---------- -- -- -- ---- ----- -- ------ -- --- ------<br>-------,268901.1999999881,268900.2999999821,268551.401,268552,268568.16,268918.882,,34,country
screen,html.Screen,2_3_1_0_1_35,2022-02-01T13:08:59.874Z,,,,,,,,,,,,,,,,,48,,,,,,,,,,,,,,314.81799998809583,,response,,,,10,C,,,,,,Space,keypress(Space),,,,instrumental,,,,-- -- --- ------ ------- --------- ----------- --------<br>--------- -------- --- ------- -- ------- ---- -- ------<br>-- --- -------- -------- ---------- ---- ---- ---- ------<br>-- --------- -- ---- -- --- -- --- ------- is - -----<br>---------- -- -- -- ---- ----- -- ------ -- --- ------<br>-------,269234.1999999881,269233.6999999881,268901.784,268901.40000000596,268918.882,269235.592,,35,is
screen,html.Screen,2_3_1_0_1_36,2022-02-01T13:09:00.183Z,,,,,,,,,,,,,,,,,48,,,,,,,,,,,,,,307.00799999403534,,response,,,,10,C,,,,,,Space,keypress(Space),,,,instrumental,,,,-- -- --- ------ ------- --------- ----------- --------<br>--------- -------- --- ------- -- ------- ---- -- ------<br>-- --- -------- -------- ---------- ---- ---- ---- ------<br>-- --------- -- ---- -- --- -- --- ------- -- a -----<br>---------- -- -- -- ---- ----- -- ------ -- --- ------<br>-------,269543.40000000596,269542.59999999404,269218.838,269234.2999999821,269235.592,269552.506,,36,a
screen,html.Screen,2_3_1_0_1_37,2022-02-01T13:09:00.526Z,,,,,,,,,,,,,,,,,48,,,,,,,,,,,,,,332.8940000059665,,response,,,,10,C,,,,,,Space,keypress(Space),,,,instrumental,,,,-- -- --- ------ ------- --------- ----------- --------<br>--------- -------- --- ------- -- ------- ---- -- ------<br>-- --- -------- -------- ---------- ---- ---- ---- ------<br>-- --------- -- ---- -- --- -- --- ------- -- - crime<br>---------- -- -- -- ---- ----- -- ------ -- --- ------<br>-------,269886,269885.40000000596,269535.824,269543.6999999881,269552.506,269902.972,,37,crime
screen,html.Screen,2_3_1_0_1_38,2022-02-01T13:09:00.956Z,,,,,,,,,,,,,,,,,48,,,,,,,,,,,,,,412.82799998210976,,response,,,,10,C,,,,,,Space,keypress(Space),,,,instrumental,,,,-- -- --- ------ ------- --------- ----------- --------<br>--------- -------- --- ------- -- ------- ---- -- ------<br>-- --- -------- -------- ---------- ---- ---- ---- ------<br>-- --------- -- ---- -- --- -- --- ------- -- - -----<br>punishable -- -- -- ---- ----- -- ------ -- --- ------<br>-------,270316.5,270315.7999999821,269886.158,269886.1999999881,269902.972,270320.101,,38,punishable
screen,html.Screen,2_3_1_0_1_39,2022-02-01T13:09:01.324Z,,,,,,,,,,,,,,,,,48,,,,,,,,,,,,,,363.9989999940153,,response,,,,10,C,,,,,,Space,keypress(Space),,,,instrumental,,,,-- -- --- ------ ------- --------- ----------- --------<br>--------- -------- --- ------- -- ------- ---- -- ------<br>-- --- -------- -------- ---------- ---- ---- ---- ------<br>-- --------- -- ---- -- --- -- --- ------- -- - -----<br>---------- by -- -- ---- ----- -- ------ -- --- ------<br>-------,270684.6999999881,270684.09999999404,270303.252,270316.6999999881,270320.101,270687.165,,39,by
screen,html.Screen,2_3_1_0_1_40,2022-02-01T13:09:01.693Z,,,,,,,,,,,,,,,,,48,,,,,,,,,,,,,,365.4349999940605,,response,,,,10,C,,,,,,Space,keypress(Space),,,,instrumental,,,,-- -- --- ------ ------- --------- ----------- --------<br>--------- -------- --- ------- -- ------- ---- -- ------<br>-- --- -------- -------- ---------- ---- ---- ---- ------<br>-- --------- -- ---- -- --- -- --- ------- -- - -----<br>---------- -- up -- ---- ----- -- ------ -- --- ------<br>-------,271053.40000000596,271052.59999999404,270670.352,270684.90000000596,270687.165,271054.22,,40,up
screen,html.Screen,2_3_1_0_1_41,2022-02-01T13:09:02.005Z,,,,,,,,,,,,,,,,,48,,,,,,,,,,,,,,311.07999998214655,,response,,,,10,C,,,,,,Space,keypress(Space),,,,instrumental,,,,-- -- --- ------ ------- --------- ----------- --------<br>--------- -------- --- ------- -- ------- ---- -- ------<br>-- --- -------- -------- ---------- ---- ---- ---- ------<br>-- --------- -- ---- -- --- -- --- ------- -- - -----<br>---------- -- -- to ---- ----- -- ------ -- --- ------<br>-------,271365.6999999881,271365.2999999821,271037.728,271053.6999999881,271054.22,271371.214,,41,to
screen,html.Screen,2_3_1_0_1_42,2022-02-01T13:09:02.345Z,,,,,,,,,,,,,,,,,48,,,,,,,,,,,,,,333.0859999821405,,response,,,,10,C,,,,,,Space,keypress(Space),,,,instrumental,,,,-- -- --- ------ ------- --------- ----------- --------<br>--------- -------- --- ------- -- ------- ---- -- ------<br>-- --- -------- -------- ---------- ---- ---- ---- ------<br>-- --------- -- ---- -- --- -- --- ------- -- - -----<br>---------- -- -- -- five ----- -- ------ -- --- ------<br>-------,271704.90000000596,271704.2999999821,271354.491,271365.7999999821,271371.214,271721.627,,42,five
