sender,sender_type,sender_id,timestamp,meta,,Blues,Classical,Country,Dance,Electronic,Folk,Gospel,Hip-Hop,Jazz,Latin,Musical/Film,New-age,Pop,Prolific_id,Provo_ID,R&B,Rap,Reggae,Religious,Rock,Soul,Swing,Traditional,age,artist_name,correct,correctResponse,distraction,duration,education,ended_on,familiarity,gender,headphone_check_performance,item,list,music_frequency,offensiveness,pleasantness,position_correct,preference,response,response_action,snippet_file,song_name,song_rating,sound,stimulus_1,stimulus_2,stimulus_3,text,time_commit,time_end,time_render,time_run,time_show,time_switch,url,word,word_ID
Prolific ID,html.Form,0,2022-02-02T21:37:14.817Z,"{""labjs_version"":""20.2.2"",""labjs_build"":{""flavor"":""production"",""commit"":""a25486e0c714a0ae2ce03ff94b7bb6896854dcfa""},""location"":""https://run.pavlovia.org/mvasilev/prolific2_music_e/"",""userAgent"":""Mozilla/5.0 (Windows NT 10.0; Win64; x64) AppleWebKit/537.36 (KHTML, like Gecko) Chrome/97.0.4692.99 Safari/537.36"",""platform"":""Win32"",""language"":""en-US"",""locale"":""en-US"",""timeZone"":""Europe/London"",""timezoneOffset"":0,""screen_width"":1360,""screen_height"":768,""scroll_width"":1360,""scroll_height"":647,""window_innerWidth"":1360,""window_innerHeight"":695,""devicePixelRatio"":1}",,,,,,,,,,,,,,,5e7d790c0d34ae3fef75c74e,,,,,,,,,,,,,,,18705.40099997616,,form submission,,,,,,,,,,,,,,,,,,,,,35911.89999997616,35911.39999997616,17172.667,17186.79999998212,17205.999,35922.797,{},,
Introduction,html.Screen,1_0,2022-02-02T21:37:18.332Z,,,,,,,,,,,,,,,,,,,,,,,,,,,,,,,3503.4029999880804,,response,,,,,,,,,,,continue,click button,,,,,,,,,39427,39426.19999998808,35906.131,35912.19999998808,35922.797,39439.453,,,
Volume calibration,html.Screen,1_1,2022-02-02T21:37:28.092Z,,,,,,,,,,,,,,,,,,,,,,,,,,,,,,,9744.646999994038,,response,,,,,,,,,,,continue,click button,,,,,,,,,49186.59999999404,49184.09999999404,39422.787,39427.19999998808,39439.453,49189.545,,,
Task instructions,html.Screen,1_2,2022-02-02T21:37:51.425Z,,,,,,,,,,,,,,,,,,,,,,,,,,,,,,,23330.455,,response,,,,,,,,,,,continue,click button,,,,,,,,,72520.69999998808,72520,49172.879,49186.79999998212,49189.545,72522.969,,,
Sounds,html.Screen,1_3_0_0,2022-02-02T21:37:55.672Z,,,,,,,,,,,,,,,,,,,,,,,,,,,,,,,4249.835999999996,,timeout,,,,,,,,,1,,,,,,,,S,O,I,,76767.29999998212,76756.139,72506.303,72520.79999998212,72522.969,76772.805,,,
Judgement,html.Screen,1_3_0_1,2022-02-02T21:38:05.932Z,,,,,,,,,,,,,,,,,,,,,,,,,,,,true,1,,10253.195000000007,,response,,,,,,,,,1,,1,click #choice-1,,,,,S,O,I,,87026.69999998808,87026,76756.139,76767.69999998808,76772.805,87039.635,,,
Trial,flow.Sequence,1_3_0,2022-02-02T21:38:05.933Z,,,,,,,,,,,,,,,,,,,,,,,,,,,,,,,14503.031000000003,,completion,,,,,,,,,1,,,,,,,,S,O,I,,87028.5,87026,72506.303,72520.79999998212,72522.969,87039.635,,,
Sounds,html.Screen,1_3_1_0,2022-02-02T21:38:10.187Z,,,,,,,,,,,,,,,,,,,,,,,,,,,,,,,4249.92300000001,,timeout,,,,,,,,,2,,,,,,,,O,S,I,,91282.29999998212,91272.892,87022.969,87028.79999998212,87039.635,91289.558,,,
Judgement,html.Screen,1_3_1_1,2022-02-02T21:38:10.690Z,,,,,,,,,,,,,,,,,,,,,,,,,,,,true,2,,494.44199999999546,,response,,,,,,,,,2,,2,click #choice-2,,,,,O,S,I,,91784.89999997616,91784,91272.892,91282.79999998212,91289.558,91806.378,,,
Trial,flow.Sequence,1_3_1,2022-02-02T21:38:10.690Z,,,,,,,,,,,,,,,,,,,,,,,,,,,,,,,4744.365000000005,,completion,,,,,,,,,2,,,,,,,,O,S,I,,91785.09999999404,91784,87022.969,87028.59999999404,87039.635,91806.378,,,
Sounds,html.Screen,1_3_2_0,2022-02-02T21:38:14.957Z,,,,,,,,,,,,,,,,,,,,,,,,,,,,,,,4249.8840000000055,,timeout,,,,,,,,,3,,,,,,,,O,I,S,,96052.59999999404,96039.596,91789.712,91785.19999998808,91806.378,96056.262,,,
Judgement,html.Screen,1_3_2_1,2022-02-02T21:38:15.320Z,,,,,,,,,,,,,,,,,,,,,,,,,,,,true,3,,357.9379999880766,,response,,,,,,,,,3,,3,click #choice-3,,,,,O,I,S,,96414.89999997616,96414.19999998808,96039.596,96052.79999998212,96056.262,96439.736,,,
Trial,flow.Sequence,1_3_2,2022-02-02T21:38:15.320Z,,,,,,,,,,,,,,,,,,,,,,,,,,,,,,,4607.821999988082,,completion,,,,,,,,,3,,,,,,,,O,I,S,,96415.09999999404,96414.19999998808,91789.712,91785.19999998808,91806.378,96439.736,,,
Sounds,html.Screen,1_3_3_0,2022-02-02T21:38:19.587Z,,,,,,,,,,,,,,,,,,,,,,,,,,,,,,,4249.856999999989,,timeout,,,,,,,,,1,,,,,,,,S,I,O,,100682.5,100672.927,96423.07,96415.19999998808,96439.736,100689.593,,,
Judgement,html.Screen,1_3_3_1,2022-02-02T21:38:20.070Z,,,,,,,,,,,,,,,,,,,,,,,,,,,,true,1,,474.4070000000065,,response,,,,,,,,,1,,1,click #choice-1,,,,,S,I,O,,101164.89999997616,101164,100672.927,100682.89999997616,100689.593,101173.301,,,
Trial,flow.Sequence,1_3_3,2022-02-02T21:38:20.070Z,,,,,,,,,,,,,,,,,,,,,,,,,,,,,,,4724.263999999996,,completion,,,,,,,,,1,,,,,,,,S,I,O,,101165,101164,96423.07,96415.19999998808,96439.736,101173.301,,,
Sounds,html.Screen,1_3_4_0,2022-02-02T21:38:24.317Z,,,,,,,,,,,,,,,,,,,,,,,,,,,,,,,4249.541999999987,,timeout,,,,,,,,,3,,,,,,,,I,O,S,,105412.59999999404,105406.177,101156.635,101165.09999999404,101173.301,105422.843,,,
Judgement,html.Screen,1_3_4_1,2022-02-02T21:38:24.876Z,,,,,,,,,,,,,,,,,,,,,,,,,,,,true,3,,547.1570000000065,,response,,,,,,,,,3,,3,click #choice-3,,,,,I,O,S,,105970.89999997616,105970,105406.177,105412.89999997616,105422.843,105973.061,,,
Trial,flow.Sequence,1_3_4,2022-02-02T21:38:24.876Z,,,,,,,,,,,,,,,,,,,,,,,,,,,,,,,4796.698999999993,,completion,,,,,,,,,3,,,,,,,,I,O,S,,105971,105970,101156.635,101165.09999999404,101173.301,105973.061,,,
Sounds,html.Screen,1_3_5_0,2022-02-02T21:38:29.116Z,,,,,,,,,,,,,,,,,,,,,,,,,,,,,,,4249.944999999992,,timeout,,,,,,,,,2,,,,,,,,I,S,O,,110211.59999999404,110206.34,105956.395,105971.19999998808,105973.061,110223.006,,,
Judgement,html.Screen,1_3_5_1,2022-02-02T21:38:29.524Z,,,,,,,,,,,,,,,,,,,,,,,,,,,,true,2,,394.8939999761642,,response,,,,,,,,,2,,2,click #choice-2,,,,,I,S,O,,110618.79999998212,110617.89999997616,110206.34,110211.89999997616,110223.006,110623.266,,,
Trial,flow.Sequence,1_3_5,2022-02-02T21:38:29.524Z,,,,,,,,,,,,,,,,,,,,,,,,,,,,,,,4644.838999976157,,completion,,,,,,,,,2,,,,,,,,I,S,O,,110619,110617.89999997616,105956.395,105971.09999999404,105973.061,110623.266,,,
Task,flow.Loop,1_3,2022-02-02T21:38:29.528Z,,,,,,,,,,,,,,,,,,,,,,,,,,,,,,,38094.93099997616,,completion,,,1,,,,,,,,,,,,,,,,,,110623.29999998212,110617.89999997616,72506.303,72520.79999998212,72522.969,110623.266,,,
Trap,html.Screen,1_4,2022-02-02T21:38:29.529Z,,,,,,,,,,,,,,,,,,,,,,,,,,,,,,,NaN,,skipped,,,,,,,,,,,,,,,,,,,,,110624.59999999404,110617.89999997616,,110624.5,,110623.266,,,
Thanks,html.Screen,1_5,2022-02-02T21:38:33.416Z,,,,,,,,,,,,,,,,,,,,,,,,,,,,,,,3886.7339999999967,,response,,,,,,,,,,,continue,click button,,,,,,,,,114510.69999998808,114510,110606.6,110624.69999998808,110623.266,116523.158,,,
Headphone screening,flow.Sequence,1,2022-02-02T21:38:33.416Z,,,,,,,,,,,,,,,,,,,,,,,,,,,,,,,78587.20300000001,,completion,,,,,,,,,,,,,,,,,,,,,114510.89999997616,114510,35906.131,35912.09999999404,35922.797,116523.158,,,
Instructions,html.Page,2_0,2022-02-02T21:39:19.533Z,,,,,,,,,,,,,,,,,,,,,,,,,,,,,,,44103.74199997616,,form submission,,,,,,,,,,,,,,,,,,,,,160627.39999997616,160626.89999997616,116506.492,116534.19999998808,116523.158,160639.919,,,
Holding screen,html.Screen,2_1_0_0,2022-02-02T21:39:29.543Z,,,,,,,,,,,,,,,,,,,,,,,,,,,,,,,10000.087,,timeout,,,,,,,,,,,,,,,,,,,,,170638.09999999404,170623.34,160623.253,160627.5,160639.919,170640.006,,,
screen,html.Screen,2_1_0_1_0,2022-02-02T21:39:32.772Z,,,,,,,,,,,,,,,,,53,,,,,,,,,,,,,,3221.494000000006,,response,,,,99,,,,,,,Space,keypress(Space),,,,,,,,When -- ----- -- ------ - ------- --- ----------<br>------------- ------ ------ ---- ---- ------- ----- -- ----<br>-------- ------- -- ---------- --- - --- ----- ----- ----<br>---- --- --- ----- --- ---- ---- ------- ----- ---- -------<br>--- --- -- ----- -- --- ---- -- --- ---- -- ------ ------<br>--- ----- -- ----,173866.79999998212,173861.5,170623.34,170638.19999998808,170640.006,173873.234,,0,When
screen,html.Screen,2_1_0_1_1,2022-02-02T21:39:33.249Z,,,,,,,,,,,,,,,,,53,,,,,,,,,,,,,,469.26600000000326,,response,,,,99,,,,,,,Space,keypress(Space),,,,,,,,---- it ----- -- ------ - ------- --- ----------<br>------------- ------ ------ ---- ---- ------- ----- -- ----<br>-------- ------- -- ---------- --- - --- ----- ----- ----<br>---- --- --- ----- --- ---- ---- ------- ----- ---- -------<br>--- --- -- ----- -- --- ---- -- --- ---- -- ------ ------<br>--- ----- -- ----,174343.5,174342.5,173856.568,173867.09999999404,173873.234,174356.603,,1,it
screen,html.Screen,2_1_0_1_2,2022-02-02T21:39:33.725Z,,,,,,,,,,,,,,,,,53,,,,,,,,,,,,,,461.79699997615535,,response,,,,99,,,,,,,Space,keypress(Space),,,,,,,,---- -- comes -- ------ - ------- --- ----------<br>------------- ------ ------ ---- ---- ------- ----- -- ----<br>-------- ------- -- ---------- --- - --- ----- ----- ----<br>---- --- --- ----- --- ---- ---- ------- ----- ---- -------<br>--- --- -- ----- -- --- ---- -- --- ---- -- ------ ------<br>--- ----- -- ----,174819.29999998212,174818.39999997616,174339.937,174343.79999998212,174356.603,174823.356,,2,comes
screen,html.Screen,2_1_0_1_3,2022-02-02T21:39:34.125Z,,,,,,,,,,,,,,,,,53,,,,,,,,,,,,,,395.24399999403977,,response,,,,99,,,,,,,Space,keypress(Space),,,,,,,,---- -- ----- to ------ - ------- --- ----------<br>------------- ------ ------ ---- ---- ------- ----- -- ----<br>-------- ------- -- ---------- --- - --- ----- ----- ----<br>---- --- --- ----- --- ---- ---- ------- ----- ---- -------<br>--- --- -- ----- -- --- ---- -- --- ---- -- ------ ------<br>--- ----- -- ----,175219.59999999404,175218.59999999404,174806.69,174819.59999999404,174823.356,175223.347,,3,to
screen,html.Screen,2_1_0_1_4,2022-02-02T21:39:34.582Z,,,,,,,,,,,,,,,,,53,,,,,,,,,,,,,,452.7529999940307,,response,,,,99,,,,,,,Space,keypress(Space),,,,,,,,---- -- ----- -- having - ------- --- ----------<br>------------- ------ ------ ---- ---- ------- ----- -- ----<br>-------- ------- -- ---------- --- - --- ----- ----- ----<br>---- --- --- ----- --- ---- ---- ------- ----- ---- -------<br>--- --- -- ----- -- --- ---- -- --- ---- -- ------ ------<br>--- ----- -- ----,175677,175676.09999999404,175206.681,175219.79999998212,175223.347,175690.109,,4,having
screen,html.Screen,2_1_0_1_5,2022-02-02T21:39:35.178Z,,,,,,,,,,,,,,,,,53,,,,,,,,,,,,,,581.3910000000033,,response,,,,99,,,,,,,Space,keypress(Space),,,,,,,,---- -- ----- -- ------ a ------- --- ----------<br>------------- ------ ------ ---- ---- ------- ----- -- ----<br>-------- ------- -- ---------- --- - --- ----- ----- ----<br>---- --- --- ----- --- ---- ---- ------- ----- ---- -------<br>--- --- -- ----- -- --- ---- -- --- ---- -- ------ ------<br>--- ----- -- ----,176272.59999999404,176271.5,175673.443,175677.19999998808,175690.109,176290.01,,5,a
screen,html.Screen,2_1_0_1_6,2022-02-02T21:39:35.813Z,,,,,,,,,,,,,,,,,53,,,,,,,,,,,,,,616.9899999999907,,response,,,,99,,,,,,,Space,keypress(Space),,,,,,,,---- -- ----- -- ------ - lasting --- ----------<br>------------- ------ ------ ---- ---- ------- ----- -- ----<br>-------- ------- -- ---------- --- - --- ----- ----- ----<br>---- --- --- ----- --- ---- ---- ------- ----- ---- -------<br>--- --- -- ----- -- --- ---- -- --- ---- -- ------ ------<br>--- ----- -- ----,176908.09999999404,176907,176273.344,176272.79999998212,176290.01,176923.335,,6,lasting
screen,html.Screen,2_1_0_1_7,2022-02-02T21:39:36.350Z,,,,,,,,,,,,,,,,,53,,,,,,,,,,,,,,520.1650000000081,,response,,,,99,,,,,,,Space,keypress(Space),,,,,,,,---- -- ----- -- ------ - ------- and ----------<br>------------- ------ ------ ---- ---- ------- ----- -- ----<br>-------- ------- -- ---------- --- - --- ----- ----- ----<br>---- --- --- ----- --- ---- ---- ------- ----- ---- -------<br>--- --- -- ----- -- --- ---- -- --- ---- -- ------ ------<br>--- ----- -- ----,177444.59999999404,177443.5,176906.669,176908.39999997616,176923.335,177456.66,,7,and
screen,html.Screen,2_1_0_1_8,2022-02-02T21:39:36.909Z,,,,,,,,,,,,,,,,,53,,,,,,,,,,,,,,545.7399999761546,,response,,,,99,,,,,,,Space,keypress(Space),,,,,,,,---- -- ----- -- ------ - ------- --- fulfilling<br>------------- ------ ------ ---- ---- ------- ----- -- ----<br>-------- ------- -- ---------- --- - --- ----- ----- ----<br>---- --- --- ----- --- ---- ---- ------- ----- ---- -------<br>--- --- -- ----- -- --- ---- -- --- ---- -- ------ ------<br>--- ----- -- ----,178003.59999999404,178002.39999997616,177439.994,177444.79999998212,177456.66,178006.683,,8,fulfilling
screen,html.Screen,2_1_0_1_9,2022-02-02T21:39:37.939Z,,,,,,,,,,,,,,,,,53,,,,,,,,,,,,,,1025.516999988089,,response,,,,99,,,,,,,Space,keypress(Space),,,,,,,,"---- -- ----- -- ------ - ------- --- ----------<br>relationship, ------ ------ ---- ---- ------- ----- -- ----<br>-------- ------- -- ---------- --- - --- ----- ----- ----<br>---- --- --- ----- --- ---- ---- ------- ----- ---- -------<br>--- --- -- ----- -- --- ---- -- --- ---- -- ------ ------<br>--- ----- -- ----",179033.39999997616,179032.19999998808,177990.017,178003.79999998212,178006.683,179039.996,,9,"relationship,"
screen,html.Screen,2_1_0_1_10,2022-02-02T21:39:38.711Z,,,,,,,,,,,,,,,,,53,,,,,,,,,,,,,,764.8039999821049,,response,,,,99,,,,,,,Space,keypress(Space),,,,,,,,---- -- ----- -- ------ - ------- --- ----------<br>------------- common ------ ---- ---- ------- ----- -- ----<br>-------- ------- -- ---------- --- - --- ----- ----- ----<br>---- --- --- ----- --- ---- ---- ------- ----- ---- -------<br>--- --- -- ----- -- --- ---- -- --- ---- -- ------ ------<br>--- ----- -- ----,179806.09999999404,179804.79999998212,179023.33,179033.59999999404,179039.996,179823.314,,10,common
screen,html.Screen,2_1_0_1_11,2022-02-02T21:39:39.353Z,,,,,,,,,,,,,,,,,53,,,,,,,,,,,,,,623.4859999821056,,response,,,,99,,,,,,,Space,keypress(Space),,,,,,,,---- -- ----- -- ------ - ------- --- ----------<br>------------- ------ wisdom ---- ---- ------- ----- -- ----<br>-------- ------- -- ---------- --- - --- ----- ----- ----<br>---- --- --- ----- --- ---- ---- ------- ----- ---- -------<br>--- --- -- ----- -- --- ---- -- --- ---- -- ------ ------<br>--- ----- -- ----,180447.89999997616,180446.79999998212,179806.648,179806.19999998808,179823.314,180456.673,,11,wisdom
screen,html.Screen,2_1_0_1_12,2022-02-02T21:39:40.099Z,,,,,,,,,,,,,,,,,53,,,,,,,,,,,,,,735.5269999880693,,response,,,,99,,,,,,,Space,keypress(Space),,,,,,,,---- -- ----- -- ------ - ------- --- ----------<br>------------- ------ ------ says ---- ------- ----- -- ----<br>-------- ------- -- ---------- --- - --- ----- ----- ----<br>---- --- --- ----- --- ---- ---- ------- ----- ---- -------<br>--- --- -- ----- -- --- ---- -- --- ---- -- ------ ------<br>--- ----- -- ----,181193.39999997616,181192.19999998808,180440.007,180448.09999999404,180456.673,181206.678,,12,says
screen,html.Screen,2_1_0_1_13,2022-02-02T21:39:40.603Z,,,,,,,,,,,,,,,,,53,,,,,,,,,,,,,,489.62199998210417,,response,,,,99,,,,,,,Space,keypress(Space),,,,,,,,---- -- ----- -- ------ - ------- --- ----------<br>------------- ------ ------ ---- that ------- ----- -- ----<br>-------- ------- -- ---------- --- - --- ----- ----- ----<br>---- --- --- ----- --- ---- ---- ------- ----- ---- -------<br>--- --- -- ----- -- --- ---- -- --- ---- -- ------ ------<br>--- ----- -- ----,181697.59999999404,181696.29999998212,181190.012,181193.59999999404,181206.678,181706.689,,13,that
screen,html.Screen,2_1_0_1_14,2022-02-02T21:39:41.336Z,,,,,,,,,,,,,,,,,53,,,,,,,,,,,,,,722.9109999940265,,response,,,,99,,,,,,,Space,keypress(Space),,,,,,,,---- -- ----- -- ------ - ------- --- ----------<br>------------- ------ ------ ---- ---- feeling ----- -- ----<br>-------- ------- -- ---------- --- - --- ----- ----- ----<br>---- --- --- ----- --- ---- ---- ------- ----- ---- -------<br>--- --- -- ----- -- --- ---- -- --- ---- -- ------ ------<br>--- ----- -- ----,182430.69999998808,182429.59999999404,181690.023,181697.79999998212,181706.689,182440.071,,14,feeling
screen,html.Screen,2_1_0_1_15,2022-02-02T21:39:41.699Z,,,,,,,,,,,,,,,,,53,,,,,,,,,,,,,,352.6289999880828,,response,,,,99,,,,,,,Space,keypress(Space),,,,,,,,---- -- ----- -- ------ - ------- --- ----------<br>------------- ------ ------ ---- ---- ------- close -- ----<br>-------- ------- -- ---------- --- - --- ----- ----- ----<br>---- --- --- ----- --- ---- ---- ------- ----- ---- -------<br>--- --- -- ----- -- --- ---- -- --- ---- -- ------ ------<br>--- ----- -- ----,182793.89999997616,182792.69999998808,182423.405,182431,182440.071,182806.698,,15,close
screen,html.Screen,2_1_0_1_16,2022-02-02T21:39:42.130Z,,,,,,,,,,,,,,,,,53,,,,,,,,,,,,,,417.0019999880751,,response,,,,99,,,,,,,Space,keypress(Space),,,,,,,,---- -- ----- -- ------ - ------- --- ----------<br>------------- ------ ------ ---- ---- ------- ----- to ----<br>-------- ------- -- ---------- --- - --- ----- ----- ----<br>---- --- --- ----- --- ---- ---- ------- ----- ---- -------<br>--- --- -- ----- -- --- ---- -- --- ---- -- ------ ------<br>--- ----- -- ----,183224.79999998212,183223.69999998808,182790.032,182794.19999998808,182806.698,183240.086,,16,to
screen,html.Screen,2_1_0_1_17,2022-02-02T21:39:42.606Z,,,,,,,,,,,,,,,,,53,,,,,,,,,,,,,,458.91399999998976,,response,,,,99,,,,,,,Space,keypress(Space),,,,,,,,---- -- ----- -- ------ - ------- --- ----------<br>------------- ------ ------ ---- ---- ------- ----- -- your<br>-------- ------- -- ---------- --- - --- ----- ----- ----<br>---- --- --- ----- --- ---- ---- ------- ----- ---- -------<br>--- --- -- ----- -- --- ---- -- --- ---- -- ------ ------<br>--- ----- -- ----,183700.09999999404,183699,183223.42,183225.09999999404,183240.086,183706.708,,17,your
screen,html.Screen,2_1_0_1_18,2022-02-02T21:39:42.943Z,,,,,,,,,,,,,,,,,53,,,,,,,,,,,,,,329.89199999402626,,response,,,,99,,,,,,,Space,keypress(Space),,,,,,,,---- -- ----- -- ------ - ------- --- ----------<br>------------- ------ ------ ---- ---- ------- ----- -- ----<br>romantic ------- -- ---------- --- - --- ----- ----- ----<br>---- --- --- ----- --- ---- ---- ------- ----- ---- -------<br>--- --- -- ----- -- --- ---- -- --- ---- -- ------ ------<br>--- ----- -- ----,184037.59999999404,184036.59999999404,183690.042,183700.39999997616,183706.708,184040.053,,18,romantic
screen,html.Screen,2_1_0_1_19,2022-02-02T21:39:43.323Z,,,,,,,,,,,,,,,,,53,,,,,,,,,,,,,,376.44699999998556,,response,,,,99,,,,,,,Space,keypress(Space),,,,,,,,---- -- ----- -- ------ - ------- --- ----------<br>------------- ------ ------ ---- ---- ------- ----- -- ----<br>-------- partner -- ---------- --- - --- ----- ----- ----<br>---- --- --- ----- --- ---- ---- ------- ----- ---- -------<br>--- --- -- ----- -- --- ---- -- --- ---- -- ------ ------<br>--- ----- -- ----,184417.89999997616,184416.5,184023.387,184037.89999997616,184040.053,184423.391,,19,partner
screen,html.Screen,2_1_0_1_20,2022-02-02T21:39:43.581Z,,,,,,,,,,,,,,,,,53,,,,,,,,,,,,,,251.50899997615488,,response,,,,99,,,,,,,Space,keypress(Space),,,,,,,,---- -- ----- -- ------ - ------- --- ----------<br>------------- ------ ------ ---- ---- ------- ----- -- ----<br>-------- ------- is ---------- --- - --- ----- ----- ----<br>---- --- --- ----- --- ---- ---- ------- ----- ---- -------<br>--- --- -- ----- -- --- ---- -- --- ---- -- ------ ------<br>--- ----- -- ----,184676.09999999404,184674.89999997616,184406.725,184418.09999999404,184423.391,184690.138,,20,is
screen,html.Screen,2_1_0_1_21,2022-02-02T21:39:45.121Z,,,,,,,,,,,,,,,,,53,,,,,,,,,,,,,,1525.2619999761519,,response,,,,99,,,,,,,Space,keypress(Space),,,,,,,,---- -- ----- -- ------ - ------- --- ----------<br>------------- ------ ------ ---- ---- ------- ----- -- ----<br>-------- ------- -- paramount. --- - --- ----- ----- ----<br>---- --- --- ----- --- ---- ---- ------- ----- ---- -------<br>--- --- -- ----- -- --- ---- -- --- ---- -- ------ ------<br>--- ----- -- ----,186216.09999999404,186215.39999997616,184673.472,184676.29999998212,184690.138,186223.349,,21,paramount.
screen,html.Screen,2_1_0_1_22,2022-02-02T21:39:45.809Z,,,,,,,,,,,,,,,,,53,,,,,,,,,,,,,,679.4509999821312,,response,,,,99,,,,,,,Space,keypress(Space),,,,,,,,---- -- ----- -- ------ - ------- --- ----------<br>------------- ------ ------ ---- ---- ------- ----- -- ----<br>-------- ------- -- ---------- But - --- ----- ----- ----<br>---- --- --- ----- --- ---- ---- ------- ----- ---- -------<br>--- --- -- ----- -- --- ---- -- --- ---- -- ------ ------<br>--- ----- -- ----,186903.79999998212,186902.79999998212,186206.683,186216.19999998808,186223.349,186906.665,,22,But
screen,html.Screen,2_1_0_1_23,2022-02-02T21:39:46.252Z,,,,,,,,,,,,,,,,,53,,,,,,,,,,,,,,439.0349999880709,,response,,,,99,,,,,,,Space,keypress(Space),,,,,,,,---- -- ----- -- ------ - ------- --- ----------<br>------------- ------ ------ ---- ---- ------- ----- -- ----<br>-------- ------- -- ---------- --- a --- ----- ----- ----<br>---- --- --- ----- --- ---- ---- ------- ----- ---- -------<br>--- --- -- ----- -- --- ---- -- --- ---- -- ------ ------<br>--- ----- -- ----,187346.5,187345.69999998808,186889.999,186903.89999997616,186906.665,187356.645,,23,a
screen,html.Screen,2_1_0_1_24,2022-02-02T21:39:46.835Z,,,,,,,,,,,,,,,,,53,,,,,,,,,,,,,,571.5549999880895,,response,,,,99,,,,,,,Space,keypress(Space),,,,,,,,---- -- ----- -- ------ - ------- --- ----------<br>------------- ------ ------ ---- ---- ------- ----- -- ----<br>-------- ------- -- ---------- --- - new ----- ----- ----<br>---- --- --- ----- --- ---- ---- ------- ----- ---- -------<br>--- --- -- ----- -- --- ---- -- --- ---- -- ------ ------<br>--- ----- -- ----,187929.19999998808,187928.19999998808,187339.979,187346.69999998808,187356.645,187939.994,,24,new
screen,html.Screen,2_1_0_1_25,2022-02-02T21:39:47.285Z,,,,,,,,,,,,,,,,,53,,,,,,,,,,,,,,438.30599998211255,,response,,,,99,,,,,,,Space,keypress(Space),,,,,,,,---- -- ----- -- ------ - ------- --- ----------<br>------------- ------ ------ ---- ---- ------- ----- -- ----<br>-------- ------- -- ---------- --- - --- study ----- ----<br>---- --- --- ----- --- ---- ---- ------- ----- ---- -------<br>--- --- -- ----- -- --- ---- -- --- ---- -- ------ ------<br>--- ----- -- ----,188379.39999997616,188378.29999998212,187923.328,187929.5,187939.994,188390.01,,25,study
screen,html.Screen,2_1_0_1_26,2022-02-02T21:39:47.542Z,,,,,,,,,,,,,,,,,53,,,,,,,,,,,,,,245.18999998806976,,response,,,,99,,,,,,,Space,keypress(Space),,,,,,,,---- -- ----- -- ------ - ------- --- ----------<br>------------- ------ ------ ---- ---- ------- ----- -- ----<br>-------- ------- -- ---------- --- - --- ----- finds ----<br>---- --- --- ----- --- ---- ---- ------- ----- ---- -------<br>--- --- -- ----- -- --- ---- -- --- ---- -- ------ ------<br>--- ----- -- ----,188636.39999997616,188635.19999998808,188373.344,188379.69999998808,188390.01,188640.067,,26,finds
screen,html.Screen,2_1_0_1_27,2022-02-02T21:39:48.168Z,,,,,,,,,,,,,,,,,53,,,,,,,,,,,,,,621.3329999761481,,response,,,,99,,,,,,,Space,keypress(Space),,,,,,,,---- -- ----- -- ------ - ------- --- ----------<br>------------- ------ ------ ---- ---- ------- ----- -- ----<br>-------- ------- -- ---------- --- - --- ----- ----- that<br>---- --- --- ----- --- ---- ---- ------- ----- ---- -------<br>--- --- -- ----- -- --- ---- -- --- ---- -- ------ ------<br>--- ----- -- ----,189263,189261.39999997616,188623.401,188636.79999998212,188640.067,189273.403,,27,that
screen,html.Screen,2_1_0_1_28,2022-02-02T21:39:48.716Z,,,,,,,,,,,,,,,,,53,,,,,,,,,,,,,,536.0970000000088,,response,,,,99,,,,,,,Space,keypress(Space),,,,,,,,---- -- ----- -- ------ - ------- --- ----------<br>------------- ------ ------ ---- ---- ------- ----- -- ----<br>-------- ------- -- ---------- --- - --- ----- ----- ----<br>it's --- --- ----- --- ---- ---- ------- ----- ---- -------<br>--- --- -- ----- -- --- ---- -- --- ---- -- ------ ------<br>--- ----- -- ----,189810.79999998212,189809.5,189256.737,189263.29999998212,189273.403,189823.436,,28,it's
screen,html.Screen,2_1_0_1_29,2022-02-02T21:39:49.210Z,,,,,,,,,,,,,,,,,53,,,,,,,,,,,,,,480.06400000001304,,response,,,,99,,,,,,,Space,keypress(Space),,,,,,,,---- -- ----- -- ------ - ------- --- ----------<br>------------- ------ ------ ---- ---- ------- ----- -- ----<br>-------- ------- -- ---------- --- - --- ----- ----- ----<br>---- not --- ----- --- ---- ---- ------- ----- ---- -------<br>--- --- -- ----- -- --- ---- -- --- ---- -- ------ ------<br>--- ----- -- ----,190304.39999997616,190303.5,189806.77,189811.09999999404,189823.436,190306.728,,29,not
screen,html.Screen,2_1_0_1_30,2022-02-02T21:39:49.717Z,,,,,,,,,,,,,,,,,53,,,,,,,,,,,,,,503.7719999999972,,response,,,,99,,,,,,,Space,keypress(Space),,,,,,,,---- -- ----- -- ------ - ------- --- ----------<br>------------- ------ ------ ---- ---- ------- ----- -- ----<br>-------- ------- -- ---------- --- - --- ----- ----- ----<br>---- --- how ----- --- ---- ---- ------- ----- ---- -------<br>--- --- -- ----- -- --- ---- -- --- ---- -- ------ ------<br>--- ----- -- ----,190811.69999998808,190810.5,190290.062,190304.5,190306.728,190823.454,,30,how
screen,html.Screen,2_1_0_1_31,2022-02-02T21:39:50.105Z,,,,,,,,,,,,,,,,,53,,,,,,,,,,,,,,374.94599997616024,,response,,,,99,,,,,,,Space,keypress(Space),,,,,,,,---- -- ----- -- ------ - ------- --- ----------<br>------------- ------ ------ ---- ---- ------- ----- -- ----<br>-------- ------- -- ---------- --- - --- ----- ----- ----<br>---- --- --- close --- ---- ---- ------- ----- ---- -------<br>--- --- -- ----- -- --- ---- -- --- ---- -- ------ ------<br>--- ----- -- ----,191199.5,191198.39999997616,190806.788,190811.89999997616,190823.454,191206.74,,31,close
screen,html.Screen,2_1_0_1_32,2022-02-02T21:39:50.533Z,,,,,,,,,,,,,,,,,53,,,,,,,,,,,,,,420.0599999821279,,response,,,,99,,,,,,,Space,keypress(Space),,,,,,,,---- -- ----- -- ------ - ------- --- ----------<br>------------- ------ ------ ---- ---- ------- ----- -- ----<br>-------- ------- -- ---------- --- - --- ----- ----- ----<br>---- --- --- ----- you ---- ---- ------- ----- ---- -------<br>--- --- -- ----- -- --- ---- -- --- ---- -- ------ ------<br>--- ----- -- ----,191628,191626.79999998212,191190.074,191199.79999998212,191206.74,191640.12,,32,you
screen,html.Screen,2_1_0_1_33,2022-02-02T21:39:50.878Z,,,,,,,,,,,,,,,,,53,,,,,,,,,,,,,,330.88000000000466,,response,,,,99,,,,,,,Space,keypress(Space),,,,,,,,---- -- ----- -- ------ - ------- --- ----------<br>------------- ------ ------ ---- ---- ------- ----- -- ----<br>-------- ------- -- ---------- --- - --- ----- ----- ----<br>---- --- --- ----- --- feel ---- ------- ----- ---- -------<br>--- --- -- ----- -- --- ---- -- --- ---- -- ------ ------<br>--- ----- -- ----,191972.29999998212,191971,191623.454,191628.29999998212,191640.12,191973.405,,33,feel
screen,html.Screen,2_1_0_1_34,2022-02-02T21:39:51.617Z,,,,,,,,,,,,,,,,,53,,,,,,,,,,,,,,737.3949999821198,,response,,,,99,,,,,,,Space,keypress(Space),,,,,,,,---- -- ----- -- ------ - ------- --- ----------<br>------------- ------ ------ ---- ---- ------- ----- -- ----<br>-------- ------- -- ---------- --- - --- ----- ----- ----<br>---- --- --- ----- --- ---- that ------- ----- ---- -------<br>--- --- -- ----- -- --- ---- -- --- ---- -- ------ ------<br>--- ----- -- ----,192712,192710.79999998212,191956.739,191972.5,191973.405,192723.41,,34,that
screen,html.Screen,2_1_0_1_35,2022-02-02T21:39:51.989Z,,,,,,,,,,,,,,,,,53,,,,,,,,,,,,,,359.3899999821151,,response,,,,99,,,,,,,Space,keypress(Space),,,,,,,,---- -- ----- -- ------ - ------- --- ----------<br>------------- ------ ------ ---- ---- ------- ----- -- ----<br>-------- ------- -- ---------- --- - --- ----- ----- ----<br>---- --- --- ----- --- ---- ---- matters ----- ---- -------<br>--- --- -- ----- -- --- ---- -- --- ---- -- ------ ------<br>--- ----- -- ----,193084,193082.79999998212,192706.744,192712.19999998808,192723.41,193090.079,,35,matters
screen,html.Screen,2_1_0_1_36,2022-02-02T21:39:52.435Z,,,,,,,,,,,,,,,,,53,,,,,,,,,,,,,,438.62099998808117,,response,,,,99,,,,,,,Space,keypress(Space),,,,,,,,"---- -- ----- -- ------ - ------- --- ----------<br>------------- ------ ------ ---- ---- ------- ----- -- ----<br>-------- ------- -- ---------- --- - --- ----- ----- ----<br>---- --- --- ----- --- ---- ---- ------- most, ---- -------<br>--- --- -- ----- -- --- ---- -- --- ---- -- ------ ------<br>--- ----- -- ----",193530,193528.69999998808,193073.413,193084.39999997616,193090.079,193540.158,,36,"most,"
screen,html.Screen,2_1_0_1_37,2022-02-02T21:39:53.123Z,,,,,,,,,,,,,,,,,53,,,,,,,,,,,,,,676.0419999880833,,response,,,,99,,,,,,,Space,keypress(Space),,,,,,,,---- -- ----- -- ------ - ------- --- ----------<br>------------- ------ ------ ---- ---- ------- ----- -- ----<br>-------- ------- -- ---------- --- - --- ----- ----- ----<br>---- --- --- ----- --- ---- ---- ------- ----- it's -------<br>--- --- -- ----- -- --- ---- -- --- ---- -- ------ ------<br>--- ----- -- ----,194217.39999997616,194216.19999998808,193523.492,193530.19999998808,193540.158,194223.416,,37,it's
screen,html.Screen,2_1_0_1_38,2022-02-02T21:39:53.770Z,,,,,,,,,,,,,,,,,53,,,,,,,,,,,,,,640.1839999940421,,response,,,,99,,,,,,,Space,keypress(Space),,,,,,,,---- -- ----- -- ------ - ------- --- ----------<br>------------- ------ ------ ---- ---- ------- ----- -- ----<br>-------- ------- -- ---------- --- - --- ----- ----- ----<br>---- --- --- ----- --- ---- ---- ------- ----- ---- whether<br>--- --- -- ----- -- --- ---- -- --- ---- -- ------ ------<br>--- ----- -- ----,194864.89999997616,194863.59999999404,194206.75,194217.59999999404,194223.416,194873.347,,38,whether
screen,html.Screen,2_1_0_1_39,2022-02-02T21:39:54.257Z,,,,,,,,,,,,,,,,,53,,,,,,,,,,,,,,477.65299999999115,,response,,,,99,,,,,,,Space,keypress(Space),,,,,,,,---- -- ----- -- ------ - ------- --- ----------<br>------------- ------ ------ ---- ---- ------- ----- -- ----<br>-------- ------- -- ---------- --- - --- ----- ----- ----<br>---- --- --- ----- --- ---- ---- ------- ----- ---- -------<br>you --- -- ----- -- --- ---- -- --- ---- -- ------ ------<br>--- ----- -- ----,195352.19999998808,195351,194856.681,194865.09999999404,194873.347,195356.751,,39,you
screen,html.Screen,2_1_0_1_40,2022-02-02T21:39:54.766Z,,,,,,,,,,,,,,,,,53,,,,,,,,,,,,,,502.64899997616885,,response,,,,99,,,,,,,Space,keypress(Space),,,,,,,,---- -- ----- -- ------ - ------- --- ----------<br>------------- ------ ------ ---- ---- ------- ----- -- ----<br>-------- ------- -- ---------- --- - --- ----- ----- ----<br>---- --- --- ----- --- ---- ---- ------- ----- ---- -------<br>--- are -- ----- -- --- ---- -- --- ---- -- ------ ------<br>--- ----- -- ----,195860.5,195859.39999997616,195340.085,195352.39999997616,195356.751,195873.411,,40,are
screen,html.Screen,2_1_0_1_41,2022-02-02T21:39:55.200Z,,,,,,,,,,,,,,,,,53,,,,,,,,,,,,,,420.18899999404675,,response,,,,99,,,,,,,Space,keypress(Space),,,,,,,,---- -- ----- -- ------ - ------- --- ----------<br>------------- ------ ------ ---- ---- ------- ----- -- ----<br>-------- ------- -- ---------- --- - --- ----- ----- ----<br>---- --- --- ----- --- ---- ---- ------- ----- ---- -------<br>--- --- as ----- -- --- ---- -- --- ---- -- ------ ------<br>--- ----- -- ----,196295,196293.59999999404,195856.745,195860.69999998808,195873.411,196306.755,,41,as
screen,html.Screen,2_1_0_1_42,2022-02-02T21:39:55.654Z,,,,,,,,,,,,,,,,,53,,,,,,,,,,,,,,441.1449999761535,,response,,,,99,,,,,,,Space,keypress(Space),,,,,,,,---- -- ----- -- ------ - ------- --- ----------<br>------------- ------ ------ ---- ---- ------- ----- -- ----<br>-------- ------- -- ---------- --- - --- ----- ----- ----<br>---- --- --- ----- --- ---- ---- ------- ----- ---- -------<br>--- --- -- close -- --- ---- -- --- ---- -- ------ ------<br>--- ----- -- ----,196749,196747.89999997616,196290.089,196295.29999998212,196306.755,196756.736,,42,close
screen,html.Screen,2_1_0_1_43,2022-02-02T21:39:56.111Z,,,,,,,,,,,,,,,,,53,,,,,,,,,,,,,,447.96399998807465,,response,,,,99,,,,,,,Space,keypress(Space),,,,,,,,---- -- ----- -- ------ - ------- --- ----------<br>------------- ------ ------ ---- ---- ------- ----- -- ----<br>-------- ------- -- ---------- --- - --- ----- ----- ----<br>---- --- --- ----- --- ---- ---- ------- ----- ---- -------<br>--- --- -- ----- as --- ---- -- --- ---- -- ------ ------<br>--- ----- -- ----,197205.79999998212,197204.69999998808,196740.07,196749.29999998212,196756.736,197223.394,,43,as
screen,html.Screen,2_1_0_1_44,2022-02-02T21:39:56.516Z,,,,,,,,,,,,,,,,,53,,,,,,,,,,,,,,386.2059999940393,,response,,,,99,,,,,,,Space,keypress(Space),,,,,,,,---- -- ----- -- ------ - ------- --- ----------<br>------------- ------ ------ ---- ---- ------- ----- -- ----<br>-------- ------- -- ---------- --- - --- ----- ----- ----<br>---- --- --- ----- --- ---- ---- ------- ----- ---- -------<br>--- --- -- ----- -- you ---- -- --- ---- -- ------ ------<br>--- ----- -- ----,197610.79999998212,197609.59999999404,197206.728,197206.19999998808,197223.394,197623.485,,44,you
screen,html.Screen,2_1_0_1_45,2022-02-02T21:39:56.938Z,,,,,,,,,,,,,,,,,53,,,,,,,,,,,,,,407.8149999821326,,response,,,,99,,,,,,,Space,keypress(Space),,,,,,,,---- -- ----- -- ------ - ------- --- ----------<br>------------- ------ ------ ---- ---- ------- ----- -- ----<br>-------- ------- -- ---------- --- - --- ----- ----- ----<br>---- --- --- ----- --- ---- ---- ------- ----- ---- -------<br>--- --- -- ----- -- --- want -- --- ---- -- ------ ------<br>--- ----- -- ----,198032.39999997616,198031.29999998212,197606.819,197611.09999999404,197623.485,198040.114,,45,want
screen,html.Screen,2_1_0_1_46,2022-02-02T21:39:57.418Z,,,,,,,,,,,,,,,,,53,,,,,,,,,,,,,,471.1859999821172,,response,,,,99,,,,,,,Space,keypress(Space),,,,,,,,---- -- ----- -- ------ - ------- --- ----------<br>------------- ------ ------ ---- ---- ------- ----- -- ----<br>-------- ------- -- ---------- --- - --- ----- ----- ----<br>---- --- --- ----- --- ---- ---- ------- ----- ---- -------<br>--- --- -- ----- -- --- ---- to --- ---- -- ------ ------<br>--- ----- -- ----,198512.5,198511.29999998212,198023.448,198032.79999998212,198040.114,198523.452,,46,to
screen,html.Screen,2_1_0_1_47,2022-02-02T21:39:58.113Z,,,,,,,,,,,,,,,,,53,,,,,,,,,,,,,,682.6479999940493,,response,,,,99,,,,,,,Space,keypress(Space),,,,,,,,"---- -- ----- -- ------ - ------- --- ----------<br>------------- ------ ------ ---- ---- ------- ----- -- ----<br>-------- ------- -- ---------- --- - --- ----- ----- ----<br>---- --- --- ----- --- ---- ---- ------- ----- ---- -------<br>--- --- -- ----- -- --- ---- -- be, ---- -- ------ ------<br>--- ----- -- ----",199207.39999997616,199206.09999999404,198506.786,198512.69999998808,198523.452,199223.421,,47,"be,"
screen,html.Screen,2_1_0_1_48,2022-02-02T21:39:58.770Z,,,,,,,,,,,,,,,,,53,,,,,,,,,,,,,,639.778999988077,,response,,,,99,,,,,,,Space,keypress(Space),,,,,,,,---- -- ----- -- ------ - ------- --- ----------<br>------------- ------ ------ ---- ---- ------- ----- -- ----<br>-------- ------- -- ---------- --- - --- ----- ----- ----<br>---- --- --- ----- --- ---- ---- ------- ----- ---- -------<br>--- --- -- ----- -- --- ---- -- --- even -- ------ ------<br>--- ----- -- ----,199864.29999998212,199863.19999998808,199206.755,199207.59999999404,199223.421,199873.453,,48,even
screen,html.Screen,2_1_0_1_49,2022-02-02T21:39:59.202Z,,,,,,,,,,,,,,,,,53,,,,,,,,,,,,,,421.74699998807046,,response,,,,99,,,,,,,Space,keypress(Space),,,,,,,,---- -- ----- -- ------ - ------- --- ----------<br>------------- ------ ------ ---- ---- ------- ----- -- ----<br>-------- ------- -- ---------- --- - --- ----- ----- ----<br>---- --- --- ----- --- ---- ---- ------- ----- ---- -------<br>--- --- -- ----- -- --- ---- -- --- ---- if ------ ------<br>--- ----- -- ----,200296.5,200295.19999998808,199856.787,199864.59999999404,199873.453,200306.761,,49,if
screen,html.Screen,2_1_0_1_50,2022-02-02T21:39:59.635Z,,,,,,,,,,,,,,,,,53,,,,,,,,,,,,,,422.13899997615954,,response,,,,99,,,,,,,Space,keypress(Space),,,,,,,,---- -- ----- -- ------ - ------- --- ----------<br>------------- ------ ------ ---- ---- ------- ----- -- ----<br>-------- ------- -- ---------- --- - --- ----- ----- ----<br>---- --- --- ----- --- ---- ---- ------- ----- ---- -------<br>--- --- -- ----- -- --- ---- -- --- ---- -- that's ------<br>--- ----- -- ----,200729.89999997616,200728.89999997616,200290.095,200296.79999998212,200306.761,200740.119,,50,that's
screen,html.Screen,2_1_0_1_51,2022-02-02T21:40:00.187Z,,,,,,,,,,,,,,,,,53,,,,,,,,,,,,,,540.580999988073,,response,,,,99,,,,,,,Space,keypress(Space),,,,,,,,---- -- ----- -- ------ - ------- --- ----------<br>------------- ------ ------ ---- ---- ------- ----- -- ----<br>-------- ------- -- ---------- --- - --- ----- ----- ----<br>---- --- --- ----- --- ---- ---- ------- ----- ---- -------<br>--- --- -- ----- -- --- ---- -- --- ---- -- ------ really<br>--- ----- -- ----,201281.89999997616,201280.69999998808,200723.453,200730,200740.119,201290.116,,51,really
screen,html.Screen,2_1_0_1_52,2022-02-02T21:40:00.644Z,,,,,,,,,,,,,,,,,53,,,,,,,,,,,,,,447.8839999999909,,response,,,,99,,,,,,,Space,keypress(Space),,,,,,,,---- -- ----- -- ------ - ------- --- ----------<br>------------- ------ ------ ---- ---- ------- ----- -- ----<br>-------- ------- -- ---------- --- - --- ----- ----- ----<br>---- --- --- ----- --- ---- ---- ------- ----- ---- -------<br>--- --- -- ----- -- --- ---- -- --- ---- -- ------ ------<br>not ----- -- ----,201739.19999998808,201738,201273.45,201282.09999999404,201290.116,201740.147,,52,not
screen,html.Screen,2_1_0_1_53,2022-02-02T21:40:01.146Z,,,,,,,,,,,,,,,,,53,,,,,,,,,,,,,,499.05299998808187,,response,,,,99,,,,,,,Space,keypress(Space),,,,,,,,---- -- ----- -- ------ - ------- --- ----------<br>------------- ------ ------ ---- ---- ------- ----- -- ----<br>-------- ------- -- ---------- --- - --- ----- ----- ----<br>---- --- --- ----- --- ---- ---- ------- ----- ---- -------<br>--- --- -- ----- -- --- ---- -- --- ---- -- ------ ------<br>--- close -- ----,202240.5,202239.19999998808,201723.481,201739.29999998212,201740.147,202256.777,,53,close
screen,html.Screen,2_1_0_1_54,2022-02-02T21:40:01.628Z,,,,,,,,,,,,,,,,,53,,,,,,,,,,,,,,464.72299999999814,,response,,,,99,,,,,,,Space,keypress(Space),,,,,,,,---- -- ----- -- ------ - ------- --- ----------<br>------------- ------ ------ ---- ---- ------- ----- -- ----<br>-------- ------- -- ---------- --- - --- ----- ----- ----<br>---- --- --- ----- --- ---- ---- ------- ----- ---- -------<br>--- --- -- ----- -- --- ---- -- --- ---- -- ------ ------<br>--- ----- at ----,202722.19999998808,202721.5,202240.111,202240.79999998212,202256.777,202723.453,,54,at
screen,html.Screen,2_1_0_1_55,2022-02-02T21:40:02.024Z,,,,,,,,,,,,,,,,,53,,,,,,,,,,,,,,394.1469999940309,,response,,,,99,,,,,,,Space,keypress(Space),,,,,,,,---- -- ----- -- ------ - ------- --- ----------<br>------------- ------ ------ ---- ---- ------- ----- -- ----<br>-------- ------- -- ---------- --- - --- ----- ----- ----<br>---- --- --- ----- --- ---- ---- ------- ----- ---- -------<br>--- --- -- ----- -- --- ---- -- --- ---- -- ------ ------<br>--- ----- -- all.,203118.79999998212,203117.59999999404,202706.787,202722.39999997616,202723.453,203140.117,,55,all.
Item 99,flow.Loop,2_1_0_1,2022-02-02T21:40:02.025Z,,,,,,,,,,,,,,,,,,,,,,,,,,,,,,,32477.593999994046,,completion,,,,,E,,,,,,,,,,,silence,,,,,203119.29999998212,203117.59999999404,170623.34,170638.19999998808,170640.006,203140.117,,,
Question 1,html.Screen,2_1_0_2,2022-02-02T21:40:06.652Z,,,,,,,,,,,,,,,,,,,,,,,,,,,,false,FALSE,,4605.78299997616,,response,,,,99,E,,,,,,TRUE,click #choice-1,,,,silence,,,,,207746.59999999404,207745.89999997616,203106.785,203119.5,203140.117,207756.759,,,
Question 2,html.Screen,2_1_0_3,2022-02-02T21:40:14.870Z,,,,,,,,,,,,,,,,,,,,,,,,,,,,true,TRUE,,8207.140999976167,,response,,,,99,E,,,,,,TRUE,click #choice-1,,,,silence,,,,,215964.59999999404,215963.89999997616,207740.093,207746.59999999404,207756.759,215990.171,,,
Item 99,flow.Sequence,2_1_0,2022-02-02T21:40:14.870Z,,,,,,,,,,,,,,,,,,,,,,,,,,,,,,,55323.980999976164,,completion,,,,,,,,,,,,,,,,,,,,,215964.79999998212,215963.89999997616,160623.253,160627.5,160639.919,215990.171,,,
Holding screen,html.Screen,2_1_1_0,2022-02-02T21:40:24.887Z,,,,,,,,,,,,,,,,,,,,,,,,,,,,,,,10000.002000000008,,timeout,,,,,,,,,,,,,,,,,,,,,225981.39999997616,225973.507,215973.505,215964.89999997616,215990.171,225990.173,,,
screen,html.Screen,2_1_1_1_0,2022-02-02T21:40:26.444Z,,,,,,,,,,,,,,,,,54,,,,,,,,,,,,,,1546.5269999880693,,response,,,,100,,,,,,,Space,keypress(Space),,,,,,,,At --- ---- --- ------ ----- ------- ---- -- --- ------- --<br>------- ---------- ------ -- ----- -- ----- -- ---- ------<br>--- ----- --- --- ------ -------- ----- --- ------ ----- --<br>----- ----- ---------- --- --- ------ ------ ---- -- ------<br>------- --- ------ ----- --- ---- ------- -- ---- --- --<br>------- ------,227538.39999997616,227536.69999998808,225973.507,225981.59999999404,225990.173,227540.138,,0,At
screen,html.Screen,2_1_1_1_1,2022-02-02T21:40:26.987Z,,,,,,,,,,,,,,,,,54,,,,,,,,,,,,,,539.8619999999937,,response,,,,100,,,,,,,Space,keypress(Space),,,,,,,,-- the ---- --- ------ ----- ------- ---- -- --- ------- --<br>------- ---------- ------ -- ----- -- ----- -- ---- ------<br>--- ----- --- --- ------ -------- ----- --- ------ ----- --<br>----- ----- ---------- --- --- ------ ------ ---- -- ------<br>------- --- ------ ----- --- ---- ------- -- ---- --- --<br>------- ------,228081.19999998808,228080,227523.472,227538.59999999404,227540.138,228090.16,,1,the
screen,html.Screen,2_1_1_1_2,2022-02-02T21:40:27.382Z,,,,,,,,,,,,,,,,,54,,,,,,,,,,,,,,385.3399999999965,,response,,,,100,,,,,,,Space,keypress(Space),,,,,,,,-- --- time --- ------ ----- ------- ---- -- --- ------- --<br>------- ---------- ------ -- ----- -- ----- -- ---- ------<br>--- ----- --- --- ------ -------- ----- --- ------ ----- --<br>----- ----- ---------- --- --- ------ ------ ---- -- ------<br>------- --- ------ ----- --- ---- ------- -- ---- --- --<br>------- ------,228476.5,228475.5,228073.494,228081.39999997616,228090.16,228490.211,,2,time
screen,html.Screen,2_1_1_1_3,2022-02-02T21:40:27.684Z,,,,,,,,,,,,,,,,,54,,,,,,,,,,,,,,286.78899999998976,,response,,,,100,,,,,,,Space,keypress(Space),,,,,,,,-- --- ---- the ------ ----- ------- ---- -- --- ------- --<br>------- ---------- ------ -- ----- -- ----- -- ---- ------<br>--- ----- --- --- ------ -------- ----- --- ------ ----- --<br>----- ----- ---------- --- --- ------ ------ ---- -- ------<br>------- --- ------ ----- --- ---- ------- -- ---- --- --<br>------- ------,228778.09999999404,228777,228473.545,228476.79999998212,228490.211,228790.22,,3,the
screen,html.Screen,2_1_1_1_4,2022-02-02T21:40:27.915Z,,,,,,,,,,,,,,,,,54,,,,,,,,,,,,,,218.57999998211744,,response,,,,100,,,,,,,Space,keypress(Space),,,,,,,,-- --- ---- --- French ----- ------- ---- -- --- ------- --<br>------- ---------- ------ -- ----- -- ----- -- ---- ------<br>--- ----- --- --- ------ -------- ----- --- ------ ----- --<br>----- ----- ---------- --- --- ------ ------ ---- -- ------<br>------- --- ------ ----- --- ---- ------- -- ---- --- --<br>------- ------,229009.69999998808,229008.79999998212,228773.554,228778.39999997616,228790.22,229023.552,,4,French
screen,html.Screen,2_1_1_1_5,2022-02-02T21:40:28.200Z,,,,,,,,,,,,,,,,,54,,,,,,,,,,,,,,269.64799998808303,,response,,,,100,,,,,,,Space,keypress(Space),,,,,,,,-- --- ---- --- ------ crown ------- ---- -- --- ------- --<br>------- ---------- ------ -- ----- -- ----- -- ---- ------<br>--- ----- --- --- ------ -------- ----- --- ------ ----- --<br>----- ----- ---------- --- --- ------ ------ ---- -- ------<br>------- --- ------ ----- --- ---- ------- -- ---- --- --<br>------- ------,229294.19999998808,229293.19999998808,229006.886,229010,229023.552,229306.898,,5,crown
screen,html.Screen,2_1_1_1_6,2022-02-02T21:40:28.438Z,,,,,,,,,,,,,,,,,54,,,,,,,,,,,,,,224.6020000000135,,response,,,,100,,,,,,,Space,keypress(Space),,,,,,,,-- --- ---- --- ------ ----- secured ---- -- --- ------- --<br>------- ---------- ------ -- ----- -- ----- -- ---- ------<br>--- ----- --- --- ------ -------- ----- --- ------ ----- --<br>----- ----- ---------- --- --- ------ ------ ---- -- ------<br>------- --- ------ ----- --- ---- ------- -- ---- --- --<br>------- ------,229532.59999999404,229531.5,229290.232,229294.39999997616,229306.898,229540.275,,6,secured
screen,html.Screen,2_1_1_1_7,2022-02-02T21:40:28.694Z,,,,,,,,,,,,,,,,,54,,,,,,,,,,,,,,247.22500000000582,,response,,,,100,,,,,,,Space,keypress(Space),,,,,,,,-- --- ---- --- ------ ----- ------- much -- --- ------- --<br>------- ---------- ------ -- ----- -- ----- -- ---- ------<br>--- ----- --- --- ------ -------- ----- --- ------ ----- --<br>----- ----- ---------- --- --- ------ ------ ---- -- ------<br>------- --- ------ ----- --- ---- ------- -- ---- --- --<br>------- ------,229788.59999999404,229787.5,229523.609,229532.79999998212,229540.275,229790.236,,7,much
screen,html.Screen,2_1_1_1_8,2022-02-02T21:40:28.934Z,,,,,,,,,,,,,,,,,54,,,,,,,,,,,,,,237.56399998211418,,response,,,,100,,,,,,,Space,keypress(Space),,,,,,,,-- --- ---- --- ------ ----- ------- ---- of --- ------- --<br>------- ---------- ------ -- ----- -- ----- -- ---- ------<br>--- ----- --- --- ------ -------- ----- --- ------ ----- --<br>----- ----- ---------- --- --- ------ ------ ---- -- ------<br>------- --- ------ ----- --- ---- ------- -- ---- --- --<br>------- ------,230028.89999997616,230027.79999998212,229773.57,229788.79999998212,229790.236,230040.222,,8,of
screen,html.Screen,2_1_1_1_9,2022-02-02T21:40:29.181Z,,,,,,,,,,,,,,,,,54,,,,,,,,,,,,,,233.77799999999115,,response,,,,100,,,,,,,Space,keypress(Space),,,,,,,,-- --- ---- --- ------ ----- ------- ---- -- its ------- --<br>------- ---------- ------ -- ----- -- ----- -- ---- ------<br>--- ----- --- --- ------ -------- ----- --- ------ ----- --<br>----- ----- ---------- --- --- ------ ------ ---- -- ------<br>------- --- ------ ----- --- ---- ------- -- ---- --- --<br>------- ------,230275.09999999404,230274,230023.556,230029.19999998808,230040.222,230290.247,,9,its
screen,html.Screen,2_1_1_1_10,2022-02-02T21:40:29.421Z,,,,,,,,,,,,,,,,,54,,,,,,,,,,,,,,223.75299999999697,,response,,,,100,,,,,,,Space,keypress(Space),,,,,,,,-- --- ---- --- ------ ----- ------- ---- -- --- revenue --<br>------- ---------- ------ -- ----- -- ----- -- ---- ------<br>--- ----- --- --- ------ -------- ----- --- ------ ----- --<br>----- ----- ---------- --- --- ------ ------ ---- -- ------<br>------- --- ------ ----- --- ---- ------- -- ---- --- --<br>------- ------,230515.29999998212,230514,230273.581,230275.39999997616,230290.247,230523.599,,10,revenue
screen,html.Screen,2_1_1_1_11,2022-02-02T21:40:29.913Z,,,,,,,,,,,,,,,,,54,,,,,,,,,,,,,,483.7009999821312,,response,,,,100,,,,,,,Space,keypress(Space),,,,,,,,-- --- ---- --- ------ ----- ------- ---- -- --- ------- by<br>------- ---------- ------ -- ----- -- ----- -- ---- ------<br>--- ----- --- --- ------ -------- ----- --- ------ ----- --<br>----- ----- ---------- --- --- ------ ------ ---- -- ------<br>------- --- ------ ----- --- ---- ------- -- ---- --- --<br>------- ------,231007.89999997616,231007.29999998212,230506.933,230515.5,230523.599,231023.566,,11,by
screen,html.Screen,2_1_1_1_12,2022-02-02T21:40:30.298Z,,,,,,,,,,,,,,,,,54,,,,,,,,,,,,,,368.13399998808745,,response,,,,100,,,,,,,Space,keypress(Space),,,,,,,,-- --- ---- --- ------ ----- ------- ---- -- --- ------- --<br>issuing ---------- ------ -- ----- -- ----- -- ---- ------<br>--- ----- --- --- ------ -------- ----- --- ------ ----- --<br>----- ----- ---------- --- --- ------ ------ ---- -- ------<br>------- --- ------ ----- --- ---- ------- -- ---- --- --<br>------- ------,231393,231391.69999998808,231006.9,231008,231023.566,231406.854,,12,issuing
screen,html.Screen,2_1_1_1_13,2022-02-02T21:40:30.841Z,,,,,,,,,,,,,,,,,54,,,,,,,,,,,,,,527.1460000000079,,response,,,,100,,,,,,,Space,keypress(Space),,,,,,,,-- --- ---- --- ------ ----- ------- ---- -- --- ------- --<br>------- government ------ -- ----- -- ----- -- ---- ------<br>--- ----- --- --- ------ -------- ----- --- ------ ----- --<br>----- ----- ---------- --- --- ------ ------ ---- -- ------<br>------- --- ------ ----- --- ---- ------- -- ---- --- --<br>------- ------,231935.09999999404,231934,231390.188,231393.19999998808,231406.854,231940.241,,13,government
screen,html.Screen,2_1_1_1_14,2022-02-02T21:40:31.124Z,,,,,,,,,,,,,,,,,54,,,,,,,,,,,,,,277.65899997614906,,response,,,,100,,,,,,,Space,keypress(Space),,,,,,,,-- --- ---- --- ------ ----- ------- ---- -- --- ------- --<br>------- ---------- bonds. -- ----- -- ----- -- ---- ------<br>--- ----- --- --- ------ -------- ----- --- ------ ----- --<br>----- ----- ---------- --- --- ------ ------ ---- -- ------<br>------- --- ------ ----- --- ---- ------- -- ---- --- --<br>------- ------,232218.59999999404,232217.89999997616,231923.575,231935.29999998212,231940.241,232223.635,,14,bonds.
screen,html.Screen,2_1_1_1_15,2022-02-02T21:40:32.213Z,,,,,,,,,,,,,,,,,54,,,,,,,,,,,,,,1083.5649999880698,,response,,,,100,,,,,,,Space,keypress(Space),,,,,,,,-- --- ---- --- ------ ----- ------- ---- -- --- ------- --<br>------- ---------- ------ In ----- -- ----- -- ---- ------<br>--- ----- --- --- ------ -------- ----- --- ------ ----- --<br>----- ----- ---------- --- --- ------ ------ ---- -- ------<br>------- --- ------ ----- --- ---- ------- -- ---- --- --<br>------- ------,233308.09999999404,233307.19999998808,232206.969,232218.79999998212,232223.635,233323.561,,15,In
screen,html.Screen,2_1_1_1_16,2022-02-02T21:40:33.310Z,,,,,,,,,,,,,,,,,54,,,,,,,,,,,,,,1079.5389999940526,,response,,,,100,,,,,,,Space,keypress(Space),,,,,,,,"-- --- ---- --- ------ ----- ------- ---- -- --- ------- --<br>------- ---------- ------ -- 1727, -- ----- -- ---- ------<br>--- ----- --- --- ------ -------- ----- --- ------ ----- --<br>----- ----- ---------- --- --- ------ ------ ---- -- ------<br>------- --- ------ ----- --- ---- ------- -- ---- --- --<br>------- ------",234404.19999998808,234403.09999999404,233306.895,233308.09999999404,233323.561,234406.865,,16,"1727,"
screen,html.Screen,2_1_1_1_17,2022-02-02T21:40:33.743Z,,,,,,,,,,,,,,,,,54,,,,,,,,,,,,,,430.03499997616746,,response,,,,100,,,,,,,Space,keypress(Space),,,,,,,,-- --- ---- --- ------ ----- ------- ---- -- --- ------- --<br>------- ---------- ------ -- ----- in ----- -- ---- ------<br>--- ----- --- --- ------ -------- ----- --- ------ ----- --<br>----- ----- ---------- --- --- ------ ------ ---- -- ------<br>------- --- ------ ----- --- ---- ------- -- ---- --- --<br>------- ------,234837.89999997616,234836.89999997616,234390.199,234404.29999998212,234406.865,234840.205,,17,in
screen,html.Screen,2_1_1_1_18,2022-02-02T21:40:33.952Z,,,,,,,,,,,,,,,,,54,,,,,,,,,,,,,,205.19499997617095,,response,,,,100,,,,,,,Space,keypress(Space),,,,,,,,-- --- ---- --- ------ ----- ------- ---- -- --- ------- --<br>------- ---------- ------ -- ----- -- order -- ---- ------<br>--- ----- --- --- ------ -------- ----- --- ------ ----- --<br>----- ----- ---------- --- --- ------ ------ ---- -- ------<br>------- --- ------ ----- --- ---- ------- -- ---- --- --<br>------- ------,235046.69999998808,235045.39999997616,234823.539,234838.09999999404,234840.205,235056.912,,18,order
screen,html.Screen,2_1_1_1_19,2022-02-02T21:40:34.325Z,,,,,,,,,,,,,,,,,54,,,,,,,,,,,,,,361.0879999999888,,response,,,,100,,,,,,,Space,keypress(Space),,,,,,,,-- --- ---- --- ------ ----- ------- ---- -- --- ------- --<br>------- ---------- ------ -- ----- -- ----- to ---- ------<br>--- ----- --- --- ------ -------- ----- --- ------ ----- --<br>----- ----- ---------- --- --- ------ ------ ---- -- ------<br>------- --- ------ ----- --- ---- ------- -- ---- --- --<br>------- ------,235419.09999999404,235418,235040.246,235046.89999997616,235056.912,235423.59,,19,to
screen,html.Screen,2_1_1_1_20,2022-02-02T21:40:34.585Z,,,,,,,,,,,,,,,,,54,,,,,,,,,,,,,,254.60999998808256,,response,,,,100,,,,,,,Space,keypress(Space),,,,,,,,-- --- ---- --- ------ ----- ------- ---- -- --- ------- --<br>------- ---------- ------ -- ----- -- ----- -- save ------<br>--- ----- --- --- ------ -------- ----- --- ------ ----- --<br>----- ----- ---------- --- --- ------ ------ ---- -- ------<br>------- --- ------ ----- --- ---- ------- -- ---- --- --<br>------- ------,235679.39999997616,235678.19999998808,235406.924,235419.29999998212,235423.59,235690.25,,20,save
screen,html.Screen,2_1_1_1_21,2022-02-02T21:40:34.838Z,,,,,,,,,,,,,,,,,54,,,,,,,,,,,,,,241.0499999821186,,response,,,,100,,,,,,,Space,keypress(Space),,,,,,,,"-- --- ---- --- ------ ----- ------- ---- -- --- ------- --<br>------- ---------- ------ -- ----- -- ----- -- ---- money,<br>--- ----- --- --- ------ -------- ----- --- ------ ----- --<br>----- ----- ---------- --- --- ------ ------ ---- -- ------<br>------- --- ------ ----- --- ---- ------- -- ---- --- --<br>------- ------",235932.39999997616,235931.29999998212,235673.584,235679.59999999404,235690.25,235940.256,,21,"money,"
screen,html.Screen,2_1_1_1_22,2022-02-02T21:40:35.246Z,,,,,,,,,,,,,,,,,54,,,,,,,,,,,,,,399.1439999761642,,response,,,,100,,,,,,,Space,keypress(Space),,,,,,,,-- --- ---- --- ------ ----- ------- ---- -- --- ------- --<br>------- ---------- ------ -- ----- -- ----- -- ---- ------<br>the ----- --- --- ------ -------- ----- --- ------ ----- --<br>----- ----- ---------- --- --- ------ ------ ---- -- ------<br>------- --- ------ ----- --- ---- ------- -- ---- --- --<br>------- ------,236340.79999998212,236339.39999997616,235923.59,235932.69999998808,235940.256,236356.945,,22,the
screen,html.Screen,2_1_1_1_23,2022-02-02T21:40:35.672Z,,,,,,,,,,,,,,,,,54,,,,,,,,,,,,,,408.45499997615116,,response,,,,100,,,,,,,Space,keypress(Space),,,,,,,,-- --- ---- --- ------ ----- ------- ---- -- --- ------- --<br>------- ---------- ------ -- ----- -- ----- -- ---- ------<br>--- state --- --- ------ -------- ----- --- ------ ----- --<br>----- ----- ---------- --- --- ------ ------ ---- -- ------<br>------- --- ------ ----- --- ---- ------- -- ---- --- --<br>------- ------,236766.5,236765.39999997616,236340.279,236341,236356.945,236773.575,,23,state
screen,html.Screen,2_1_1_1_24,2022-02-02T21:40:35.887Z,,,,,,,,,,,,,,,,,54,,,,,,,,,,,,,,207.22499998210697,,response,,,,100,,,,,,,Space,keypress(Space),,,,,,,,-- --- ---- --- ------ ----- ------- ---- -- --- ------- --<br>------- ---------- ------ -- ----- -- ----- -- ---- ------<br>--- ----- cut --- ------ -------- ----- --- ------ ----- --<br>----- ----- ---------- --- --- ------ ------ ---- -- ------<br>------- --- ------ ----- --- ---- ------- -- ---- --- --<br>------- ------,236982,236980.79999998212,236756.909,236766.69999998808,236773.575,236990.262,,24,cut
screen,html.Screen,2_1_1_1_25,2022-02-02T21:40:36.050Z,,,,,,,,,,,,,,,,,54,,,,,,,,,,,,,,153.0379999821307,,response,,,,100,,,,,,,Space,keypress(Space),,,,,,,,-- --- ---- --- ------ ----- ------- ---- -- --- ------- --<br>------- ---------- ------ -- ----- -- ----- -- ---- ------<br>--- ----- --- the ------ -------- ----- --- ------ ----- --<br>----- ----- ---------- --- --- ------ ------ ---- -- ------<br>------- --- ------ ----- --- ---- ------- -- ---- --- --<br>------- ------,237144.5,237143.29999998212,236973.596,236982.19999998808,236990.262,237156.944,,25,the
screen,html.Screen,2_1_1_1_26,2022-02-02T21:40:36.268Z,,,,,,,,,,,,,,,,,54,,,,,,,,,,,,,,204.35599998213002,,response,,,,100,,,,,,,Space,keypress(Space),,,,,,,,-- --- ---- --- ------ ----- ------- ---- -- --- ------- --<br>------- ---------- ------ -- ----- -- ----- -- ---- ------<br>--- ----- --- --- bonds' -------- ----- --- ------ ----- --<br>----- ----- ---------- --- --- ------ ------ ---- -- ------<br>------- --- ------ ----- --- ---- ------- -- ---- --- --<br>------- ------,237362.39999997616,237361.29999998212,237140.278,237144.69999998808,237156.944,237373.628,,26,bonds'
screen,html.Screen,2_1_1_1_27,2022-02-02T21:40:36.471Z,,,,,,,,,,,,,,,,,54,,,,,,,,,,,,,,190.5719999880821,,response,,,,100,,,,,,,Space,keypress(Space),,,,,,,,-- --- ---- --- ------ ----- ------- ---- -- --- ------- --<br>------- ---------- ------ -- ----- -- ----- -- ---- ------<br>--- ----- --- --- ------ interest ----- --- ------ ----- --<br>----- ----- ---------- --- --- ------ ------ ---- -- ------<br>------- --- ------ ----- --- ---- ------- -- ---- --- --<br>------- ------,237565.19999998808,237564.19999998808,237356.962,237362.69999998808,237373.628,237573.599,,27,interest
screen,html.Screen,2_1_1_1_28,2022-02-02T21:40:36.737Z,,,,,,,,,,,,,,,,,54,,,,,,,,,,,,,,256.4010000000126,,response,,,,100,,,,,,,Space,keypress(Space),,,,,,,,-- --- ---- --- ------ ----- ------- ---- -- --- ------- --<br>------- ---------- ------ -- ----- -- ----- -- ---- ------<br>--- ----- --- --- ------ -------- rate. --- ------ ----- --<br>----- ----- ---------- --- --- ------ ------ ---- -- ------<br>------- --- ------ ----- --- ---- ------- -- ---- --- --<br>------- ------,237831,237830,237556.933,237565.39999997616,237573.599,237840.282,,28,rate.
screen,html.Screen,2_1_1_1_29,2022-02-02T21:40:36.996Z,,,,,,,,,,,,,,,,,54,,,,,,,,,,,,,,249.5179999821121,,response,,,,100,,,,,,,Space,keypress(Space),,,,,,,,-- --- ---- --- ------ ----- ------- ---- -- --- ------- --<br>------- ---------- ------ -- ----- -- ----- -- ---- ------<br>--- ----- --- --- ------ -------- ----- The ------ ----- --<br>----- ----- ---------- --- --- ------ ------ ---- -- ------<br>------- --- ------ ----- --- ---- ------- -- ---- --- --<br>------- ------,238091,238089.79999998212,237823.616,237831.29999998212,237840.282,238106.933,,29,The
screen,html.Screen,2_1_1_1_30,2022-02-02T21:40:37.760Z,,,,,,,,,,,,,,,,,54,,,,,,,,,,,,,,746.7669999880891,,response,,,,100,,,,,,,Space,keypress(Space),,,,,,,,-- --- ---- --- ------ ----- ------- ---- -- --- ------- --<br>------- ---------- ------ -- ----- -- ----- -- ---- ------<br>--- ----- --- --- ------ -------- ----- --- market ----- --<br>----- ----- ---------- --- --- ------ ------ ---- -- ------<br>------- --- ------ ----- --- ---- ------- -- ---- --- --<br>------- ------,238854.69999998808,238853.69999998808,238090.267,238091.19999998808,238106.933,238856.964,,30,market
screen,html.Screen,2_1_1_1_31,2022-02-02T21:40:37.964Z,,,,,,,,,,,,,,,,,54,,,,,,,,,,,,,,200.43599997615092,,response,,,,100,,,,,,,Space,keypress(Space),,,,,,,,-- --- ---- --- ------ ----- ------- ---- -- --- ------- --<br>------- ---------- ------ -- ----- -- ----- -- ---- ------<br>--- ----- --- --- ------ -------- ----- --- ------ value --<br>----- ----- ---------- --- --- ------ ------ ---- -- ------<br>------- --- ------ ----- --- ---- ------- -- ---- --- --<br>------- ------,239058.59999999404,239057.39999997616,238840.298,238855,238856.964,239073.601,,31,value
screen,html.Screen,2_1_1_1_32,2022-02-02T21:40:38.251Z,,,,,,,,,,,,,,,,,54,,,,,,,,,,,,,,270.4989999940444,,response,,,,100,,,,,,,Space,keypress(Space),,,,,,,,-- --- ---- --- ------ ----- ------- ---- -- --- ------- --<br>------- ---------- ------ -- ----- -- ----- -- ---- ------<br>--- ----- --- --- ------ -------- ----- --- ------ ----- of<br>----- ----- ---------- --- --- ------ ------ ---- -- ------<br>------- --- ------ ----- --- ---- ------- -- ---- --- --<br>------- ------,239345.29999998212,239344.09999999404,239056.935,239058.79999998212,239073.601,239356.956,,32,of
screen,html.Screen,2_1_1_1_33,2022-02-02T21:40:38.492Z,,,,,,,,,,,,,,,,,54,,,,,,,,,,,,,,228.24399998807348,,response,,,,100,,,,,,,Space,keypress(Space),,,,,,,,-- --- ---- --- ------ ----- ------- ---- -- --- ------- --<br>------- ---------- ------ -- ----- -- ----- -- ---- ------<br>--- ----- --- --- ------ -------- ----- --- ------ ----- --<br>these ----- ---------- --- --- ------ ------ ---- -- ------<br>------- --- ------ ----- --- ---- ------- -- ---- --- --<br>------- ------,239586.19999998808,239585.19999998808,239340.29,239345.59999999404,239356.956,239590.277,,33,these
screen,html.Screen,2_1_1_1_34,2022-02-02T21:40:38.850Z,,,,,,,,,,,,,,,,,54,,,,,,,,,,,,,,353.52299998211674,,response,,,,100,,,,,,,Space,keypress(Space),,,,,,,,-- --- ---- --- ------ ----- ------- ---- -- --- ------- --<br>------- ---------- ------ -- ----- -- ----- -- ---- ------<br>--- ----- --- --- ------ -------- ----- --- ------ ----- --<br>----- bonds ---------- --- --- ------ ------ ---- -- ------<br>------- --- ------ ----- --- ---- ------- -- ---- --- --<br>------- ------,239944.79999998212,239943.79999998212,239573.611,239586.5,239590.277,239956.934,,34,bonds
screen,html.Screen,2_1_1_1_35,2022-02-02T21:40:39.026Z,,,,,,,,,,,,,,,,,54,,,,,,,,,,,,,,161.96599997614976,,response,,,,100,,,,,,,Space,keypress(Space),,,,,,,,"-- --- ---- --- ------ ----- ------- ---- -- --- ------- --<br>------- ---------- ------ -- ----- -- ----- -- ---- ------<br>--- ----- --- --- ------ -------- ----- --- ------ ----- --<br>----- ----- plummeted, --- --- ------ ------ ---- -- ------<br>------- --- ------ ----- --- ---- ------- -- ---- --- --<br>------- ------",240120.09999999404,240118.89999997616,239940.268,239945.09999999404,239956.934,240123.605,,35,"plummeted,"
screen,html.Screen,2_1_1_1_36,2022-02-02T21:40:39.258Z,,,,,,,,,,,,,,,,,54,,,,,,,,,,,,,,227.49499999402906,,response,,,,100,,,,,,,Space,keypress(Space),,,,,,,,-- --- ---- --- ------ ----- ------- ---- -- --- ------- --<br>------- ---------- ------ -- ----- -- ----- -- ---- ------<br>--- ----- --- --- ------ -------- ----- --- ------ ----- --<br>----- ----- ---------- and --- ------ ------ ---- -- ------<br>------- --- ------ ----- --- ---- ------- -- ---- --- --<br>------- ------,240352.19999998808,240351.09999999404,240106.939,240120.39999997616,240123.605,240356.943,,36,and
screen,html.Screen,2_1_1_1_37,2022-02-02T21:40:39.603Z,,,,,,,,,,,,,,,,,54,,,,,,,,,,,,,,339.8569999821193,,response,,,,100,,,,,,,Space,keypress(Space),,,,,,,,-- --- ---- --- ------ ----- ------- ---- -- --- ------- --<br>------- ---------- ------ -- ----- -- ----- -- ---- ------<br>--- ----- --- --- ------ -------- ----- --- ------ ----- --<br>----- ----- ---------- --- the ------ ------ ---- -- ------<br>------- --- ------ ----- --- ---- ------- -- ---- --- --<br>------- ------,240697.89999997616,240696.79999998212,240340.277,240352.5,240356.943,240706.939,,37,the
screen,html.Screen,2_1_1_1_38,2022-02-02T21:40:39.802Z,,,,,,,,,,,,,,,,,54,,,,,,,,,,,,,,188.1609999940265,,response,,,,100,,,,,,,Space,keypress(Space),,,,,,,,-- --- ---- --- ------ ----- ------- ---- -- --- ------- --<br>------- ---------- ------ -- ----- -- ----- -- ---- ------<br>--- ----- --- --- ------ -------- ----- --- ------ ----- --<br>----- ----- ---------- --- --- market ------ ---- -- ------<br>------- --- ------ ----- --- ---- ------- -- ---- --- --<br>------- ------,240896.19999998808,240895.09999999404,240690.273,240698.09999999404,240706.939,240906.971,,38,market
screen,html.Screen,2_1_1_1_39,2022-02-02T21:40:39.992Z,,,,,,,,,,,,,,,,,54,,,,,,,,,,,,,,178.62899999404908,,response,,,,100,,,,,,,Space,keypress(Space),,,,,,,,-- --- ---- --- ------ ----- ------- ---- -- --- ------- --<br>------- ---------- ------ -- ----- -- ----- -- ---- ------<br>--- ----- --- --- ------ -------- ----- --- ------ ----- --<br>----- ----- ---------- --- --- ------ became ---- -- ------<br>------- --- ------ ----- --- ---- ------- -- ---- --- --<br>------- ------,241086.69999998808,241085.59999999404,240890.305,240896.39999997616,240906.971,241090.287,,39,became
screen,html.Screen,2_1_1_1_40,2022-02-02T21:40:40.427Z,,,,,,,,,,,,,,,,,54,,,,,,,,,,,,,,430.01299998210743,,response,,,,100,,,,,,,Space,keypress(Space),,,,,,,,-- --- ---- --- ------ ----- ------- ---- -- --- ------- --<br>------- ---------- ------ -- ----- -- ----- -- ---- ------<br>--- ----- --- --- ------ -------- ----- --- ------ ----- --<br>----- ----- ---------- --- --- ------ ------ wary -- ------<br>------- --- ------ ----- --- ---- ------- -- ---- --- --<br>------- ------,241521.5,241520.29999998212,241073.621,241086.89999997616,241090.287,241523.626,,40,wary
screen,html.Screen,2_1_1_1_41,2022-02-02T21:40:40.697Z,,,,,,,,,,,,,,,,,54,,,,,,,,,,,,,,267.0739999880898,,response,,,,100,,,,,,,Space,keypress(Space),,,,,,,,-- --- ---- --- ------ ----- ------- ---- -- --- ------- --<br>------- ---------- ------ -- ----- -- ----- -- ---- ------<br>--- ----- --- --- ------ -------- ----- --- ------ ----- --<br>----- ----- ---------- --- --- ------ ------ ---- of ------<br>------- --- ------ ----- --- ---- ------- -- ---- --- --<br>------- ------,241791.79999998212,241790.69999998808,241506.96,241521.69999998808,241523.626,241806.94,,41,of
screen,html.Screen,2_1_1_1_42,2022-02-02T21:40:41.074Z,,,,,,,,,,,,,,,,,54,,,,,,,,,,,,,,360.1599999940372,,response,,,,100,,,,,,,Space,keypress(Space),,,,,,,,-- --- ---- --- ------ ----- ------- ---- -- --- ------- --<br>------- ---------- ------ -- ----- -- ----- -- ---- ------<br>--- ----- --- --- ------ -------- ----- --- ------ ----- --<br>----- ----- ---------- --- --- ------ ------ ---- -- French<br>------- --- ------ ----- --- ---- ------- -- ---- --- --<br>------- ------,242168.39999997616,242167.09999999404,241790.274,241792.09999999404,241806.94,242173.642,,42,French
screen,html.Screen,2_1_1_1_43,2022-02-02T21:40:41.475Z,,,,,,,,,,,,,,,,,54,,,,,,,,,,,,,,395.85800000000745,,response,,,,100,,,,,,,Space,keypress(Space),,,,,,,,-- --- ---- --- ------ ----- ------- ---- -- --- ------- --<br>------- ---------- ------ -- ----- -- ----- -- ---- ------<br>--- ----- --- --- ------ -------- ----- --- ------ ----- --<br>----- ----- ---------- --- --- ------ ------ ---- -- ------<br>credit. --- ------ ----- --- ---- ------- -- ---- --- --<br>------- ------,242570.09999999404,242569.5,242156.976,242168.5,242173.642,242573.558,,43,credit.
screen,html.Screen,2_1_1_1_44,2022-02-02T21:40:42.380Z,,,,,,,,,,,,,,,,,54,,,,,,,,,,,,,,899.5419999940495,,response,,,,100,,,,,,,Space,keypress(Space),,,,,,,,-- --- ---- --- ------ ----- ------- ---- -- --- ------- --<br>------- ---------- ------ -- ----- -- ----- -- ---- ------<br>--- ----- --- --- ------ -------- ----- --- ------ ----- --<br>----- ----- ---------- --- --- ------ ------ ---- -- ------<br>------- The ------ ----- --- ---- ------- -- ---- --- --<br>------- ------,243474.19999998808,243473.09999999404,242556.892,242570.09999999404,242573.558,243490.216,,44,The
screen,html.Screen,2_1_1_1_45,2022-02-02T21:40:42.867Z,,,,,,,,,,,,,,,,,54,,,,,,,,,,,,,,469.7840000000142,,response,,,,100,,,,,,,Space,keypress(Space),,,,,,,,-- --- ---- --- ------ ----- ------- ---- -- --- ------- --<br>------- ---------- ------ -- ----- -- ----- -- ---- ------<br>--- ----- --- --- ------ -------- ----- --- ------ ----- --<br>----- ----- ---------- --- --- ------ ------ ---- -- ------<br>------- --- French ----- --- ---- ------- -- ---- --- --<br>------- ------,243961.19999998808,243960,243473.55,243474.5,243490.216,243973.542,,45,French
screen,html.Screen,2_1_1_1_46,2022-02-02T21:40:43.070Z,,,,,,,,,,,,,,,,,54,,,,,,,,,,,,,,189.75799998213188,,response,,,,100,,,,,,,Space,keypress(Space),,,,,,,,-- --- ---- --- ------ ----- ------- ---- -- --- ------- --<br>------- ---------- ------ -- ----- -- ----- -- ---- ------<br>--- ----- --- --- ------ -------- ----- --- ------ ----- --<br>----- ----- ---------- --- --- ------ ------ ---- -- ------<br>------- --- ------ state --- ---- ------- -- ---- --- --<br>------- ------,244164.79999998212,244163.29999998212,243956.876,243961.39999997616,243973.542,244173.663,,46,state
screen,html.Screen,2_1_1_1_47,2022-02-02T21:40:43.537Z,,,,,,,,,,,,,,,,,54,,,,,,,,,,,,,,456.93699999403907,,response,,,,100,,,,,,,Space,keypress(Space),,,,,,,,-- --- ---- --- ------ ----- ------- ---- -- --- ------- --<br>------- ---------- ------ -- ----- -- ----- -- ---- ------<br>--- ----- --- --- ------ -------- ----- --- ------ ----- --<br>----- ----- ---------- --- --- ------ ------ ---- -- ------<br>------- --- ------ ----- was ---- ------- -- ---- --- --<br>------- ------,244631.79999998212,244630.59999999404,244156.997,244165,244173.663,244640.291,,47,was
screen,html.Screen,2_1_1_1_48,2022-02-02T21:40:43.740Z,,,,,,,,,,,,,,,,,54,,,,,,,,,,,,,,193.1089999761607,,response,,,,100,,,,,,,Space,keypress(Space),,,,,,,,-- --- ---- --- ------ ----- ------- ---- -- --- ------- --<br>------- ---------- ------ -- ----- -- ----- -- ---- ------<br>--- ----- --- --- ------ -------- ----- --- ------ ----- --<br>----- ----- ---------- --- --- ------ ------ ---- -- ------<br>------- --- ------ ----- --- left ------- -- ---- --- --<br>------- ------,244834.39999997616,244833.39999997616,244623.625,244632.19999998808,244640.291,244840.305,,48,left
screen,html.Screen,2_1_1_1_49,2022-02-02T21:40:44.018Z,,,,,,,,,,,,,,,,,54,,,,,,,,,,,,,,270.7949999940465,,response,,,,100,,,,,,,Space,keypress(Space),,,,,,,,-- --- ---- --- ------ ----- ------- ---- -- --- ------- --<br>------- ---------- ------ -- ----- -- ----- -- ---- ------<br>--- ----- --- --- ------ -------- ----- --- ------ ----- --<br>----- ----- ---------- --- --- ------ ------ ---- -- ------<br>------- --- ------ ----- --- ---- without -- ---- --- --<br>------- ------,245112.19999998808,245111.09999999404,244823.639,244834.59999999404,244840.305,245123.624,,49,without
screen,html.Screen,2_1_1_1_50,2022-02-02T21:40:44.216Z,,,,,,,,,,,,,,,,,54,,,,,,,,,,,,,,185.3759999999893,,response,,,,100,,,,,,,Space,keypress(Space),,,,,,,,-- --- ---- --- ------ ----- ------- ---- -- --- ------- --<br>------- ---------- ------ -- ----- -- ----- -- ---- ------<br>--- ----- --- --- ------ -------- ----- --- ------ ----- --<br>----- ----- ---------- --- --- ------ ------ ---- -- ------<br>------- --- ------ ----- --- ---- ------- an ---- --- --<br>------- ------,245310.09999999404,245309,245106.958,245112.39999997616,245123.624,245323.625,,50,an
screen,html.Screen,2_1_1_1_51,2022-02-02T21:40:44.416Z,,,,,,,,,,,,,,,,,54,,,,,,,,,,,,,,185.27499997615814,,response,,,,100,,,,,,,Space,keypress(Space),,,,,,,,-- --- ---- --- ------ ----- ------- ---- -- --- ------- --<br>------- ---------- ------ -- ----- -- ----- -- ---- ------<br>--- ----- --- --- ------ -------- ----- --- ------ ----- --<br>----- ----- ---------- --- --- ------ ------ ---- -- ------<br>------- --- ------ ----- --- ---- ------- -- easy --- --<br>------- ------,245510.09999999404,245508.89999997616,245306.959,245310.29999998212,245323.625,245523.63,,51,easy
screen,html.Screen,2_1_1_1_52,2022-02-02T21:40:44.816Z,,,,,,,,,,,,,,,,,54,,,,,,,,,,,,,,385.86999999999534,,response,,,,100,,,,,,,Space,keypress(Space),,,,,,,,-- --- ---- --- ------ ----- ------- ---- -- --- ------- --<br>------- ---------- ------ -- ----- -- ----- -- ---- ------<br>--- ----- --- --- ------ -------- ----- --- ------ ----- --<br>----- ----- ---------- --- --- ------ ------ ---- -- ------<br>------- --- ------ ----- --- ---- ------- -- ---- way --<br>------- ------,245910.39999997616,245909.5,245506.964,245510.29999998212,245523.63,245923.621,,52,way
screen,html.Screen,2_1_1_1_53,2022-02-02T21:40:45.177Z,,,,,,,,,,,,,,,,,54,,,,,,,,,,,,,,347.37899999998626,,response,,,,100,,,,,,,Space,keypress(Space),,,,,,,,-- --- ---- --- ------ ----- ------- ---- -- --- ------- --<br>------- ---------- ------ -- ----- -- ----- -- ---- ------<br>--- ----- --- --- ------ -------- ----- --- ------ ----- --<br>----- ----- ---------- --- --- ------ ------ ---- -- ------<br>------- --- ------ ----- --- ---- ------- -- ---- --- of<br>------- ------,246271.89999997616,246271,245906.955,245910.5,245923.621,246273.62,,53,of
screen,html.Screen,2_1_1_1_54,2022-02-02T21:40:45.782Z,,,,,,,,,,,,,,,,,54,,,,,,,,,,,,,,601.3800000000047,,response,,,,100,,,,,,,Space,keypress(Space),,,,,,,,-- --- ---- --- ------ ----- ------- ---- -- --- ------- --<br>------- ---------- ------ -- ----- -- ----- -- ---- ------<br>--- ----- --- --- ------ -------- ----- --- ------ ----- --<br>----- ----- ---------- --- --- ------ ------ ---- -- ------<br>------- --- ------ ----- --- ---- ------- -- ---- --- --<br>raising ------,246876.19999998808,246875,246256.954,246272,246273.62,246890.316,,54,raising
screen,html.Screen,2_1_1_1_55,2022-02-02T21:40:46.196Z,,,,,,,,,,,,,,,,,54,,,,,,,,,,,,,,398.983999982127,,response,,,,100,,,,,,,Space,keypress(Space),,,,,,,,-- --- ---- --- ------ ----- ------- ---- -- --- ------- --<br>------- ---------- ------ -- ----- -- ----- -- ---- ------<br>--- ----- --- --- ------ -------- ----- --- ------ ----- --<br>----- ----- ---------- --- --- ------ ------ ---- -- ------<br>------- --- ------ ----- --- ---- ------- -- ---- --- --<br>------- money.,247290.29999998212,247289.29999998212,246873.65,246876.39999997616,246890.316,247306.964,,55,money.
Item 100,flow.Loop,2_1_1_1,2022-02-02T21:40:46.196Z,,,,,,,,,,,,,,,,,,,,,,,,,,,,,,,21299.12699998211,,completion,,,,,E,,,,,,,,,,,silence,,,,,247290.59999999404,247289.29999998212,225973.507,225981.5,225990.173,247306.964,,,
Question 1,html.Screen,2_1_1_2,2022-02-02T21:40:51.008Z,,,,,,,,,,,,,,,,,,,,,,,,,,,,true,TRUE,,4794.835999982111,,response,,,,100,E,,,,,,TRUE,click #choice-1,,,,silence,,,,,252102.5,252101.79999998212,247290.298,247290.69999998808,247306.964,252123.649,,,
Question 2,html.Screen,2_1_1_3,2022-02-02T21:40:53.988Z,,,,,,,,,,,,,,,,,,,,,,,,,,,,true,FALSE,,2958.1509999821137,,response,,,,100,E,,,,,,FALSE,click #choice-2,,,,silence,,,,,255082.59999999404,255081.79999998212,252106.983,252102.5,252123.649,255090.335,,,
Item 100,flow.Sequence,2_1_1,2022-02-02T21:40:53.988Z,,,,,,,,,,,,,,,,,,,,,,,,,,,,,,,39091.62899998212,,completion,,,,,,,,,,,,,,,,,,,,,255082.69999998808,255081.79999998212,215973.505,215964.89999997616,215990.171,255090.335,,,
End of Practice,html.Page,2_1_2,2022-02-02T21:40:59.165Z,,,,,,,,,,,,,,,,,,,,,,,,,,,,,,,5168.564999976166,,form submission,,,,,,,,,,,,,,,,,,,,,260259.09999999404,260258.89999997616,255073.669,255082.79999998212,255090.335,260273.679,,,
Practice,flow.Sequence,2_1,2022-02-02T21:40:59.165Z,,,,,,,,,,,,,,,,,,,,,,,,,,,,,,,99618.98099997616,,completion,,,,,,,,,,,,,,,,,,,,,260259.29999998212,260258.89999997616,160623.253,160627.5,160639.919,260273.679,,,
Trap_instruction,html.Page,2_2_0,2022-02-02T21:41:04.533Z,,,,,,,,,,,,,,,,,,,,,,,,,,,,,,,5353.120999982115,,form submission,,,,,,,,,,,,,,,,,,,,,265627.09999999404,265626.7999999821,260257.013,260259.39999997616,260273.679,265640.363,,,
trap_trial,html.Screen,2_2_1,2022-02-02T21:41:07.478Z,,,,,,,,,,,,,,,,,,,,,,,,,,,,true,1,,2931.536999976146,,response,,,,,,,,,,,1,click #choice-1,,,,,,,,,268572.59999999404,268571.89999997616,265623.697,265627.09999999404,265640.363,268573.588,,,
end of trap trial,html.Page,2_2_2,2022-02-02T21:41:09.810Z,,,,,,,,,,,,,,,,,,,,,,,,,,,,,,,2330.912000000011,,form submission,,,,,,,,,,,,,,,,,,,,,270904.6999999881,270904.5,268556.922,268572.6999999881,268573.588,270923.836,,,
Trap 1,flow.Sequence,2_2,2022-02-02T21:41:09.810Z,,,,,,,,,,,,,,,,,,,,,,,,,,,,,,,10630.820999999996,,completion,,,,,,,,,,,,,,,,,,,,,270904.89999997616,270904.5,260257.013,260259.29999998212,260273.679,270923.836,,,
Standby,html.Page,2_3_0,2022-02-02T21:41:17.817Z,,,,,,,,,,,,,,,,,,,,,,,,,,,,,,,7999.66399999999,,timeout,,,,,,,,,,,,,,,,,,,,,278912,278906.834,270907.17,270904.89999997616,270923.836,278923.5,,,
Holding screen,html.Screen,2_3_1_0_0,2022-02-02T21:41:24.815Z,,,,,,,,,,,,,,,,,,,,,,,,,,,,,,,7000.21100000001,,timeout,,,,,,,,,,,,,,,,,,,,,285910.7999999821,285907.045,278906.834,278912.2999999821,278923.5,285923.711,,,
screen,html.Screen,2_3_1_0_1_0,2022-02-02T21:41:31.309Z,,,,,,,,,,,,,,,,,2,,,,,,,,,,,,,,6480.28899999999,,response,,,,1,E,,,,,,Space,keypress(Space),,,,lyrical,,,,Two ---- ------ --- ------- ---------- ------- ----------<br>--- --------- --- ----------- ------- ----- ------- ---<br>--------- ---- -- --- ---- -- --------- -- ---- -------<br>-- --------- ------ --- ----- ------ ---- --- --------- --<br>------ - ---- -- --- ----------- ------- ---- ----- -----<br>--- -------- - ------ ---- -- ----- ---- --- --- -----------<br>-- -------,292404.59999999404,292404,285907.045,285911.09999999404,285923.711,292406.85,,0,Two
screen,html.Screen,2_3_1_0_1_1,2022-02-02T21:41:31.966Z,,,,,,,,,,,,,,,,,2,,,,,,,,,,,,,,654.3499999881024,,response,,,,1,E,,,,,,Space,keypress(Space),,,,lyrical,,,,--- days ------ --- ------- ---------- ------- ----------<br>--- --------- --- ----------- ------- ----- ------- ---<br>--------- ---- -- --- ---- -- --------- -- ---- -------<br>-- --------- ------ --- ----- ------ ---- --- --------- --<br>------ - ---- -- --- ----------- ------- ---- ----- -----<br>--- -------- - ------ ---- -- ----- ---- --- --- -----------<br>-- -------,293061.6999999881,293061.1999999881,292390.184,292404.7999999821,292406.85,293073.524,,1,days
screen,html.Screen,2_3_1_0_1_2,2022-02-02T21:41:32.315Z,,,,,,,,,,,,,,,,,2,,,,,,,,,,,,,,336.37599997618236,,response,,,,1,E,,,,,,Space,keypress(Space),,,,lyrical,,,,"--- ---- later, --- ------- ---------- ------- ----------<br>--- --------- --- ----------- ------- ----- ------- ---<br>--------- ---- -- --- ---- -- --------- -- ---- -------<br>-- --------- ------ --- ----- ------ ---- --- --------- --<br>------ - ---- -- --- ----------- ------- ---- ----- -----<br>--- -------- - ------ ---- -- ----- ---- --- --- -----------<br>-- -------",293410.2999999821,293409.89999997616,293056.858,293061.7999999821,293073.524,293423.814,,2,"later,"
screen,html.Screen,2_3_1_0_1_3,2022-02-02T21:41:33.493Z,,,,,,,,,,,,,,,,,2,,,,,,,,,,,,,,1164.385999988066,,response,,,,1,E,,,,,,Space,keypress(Space),,,,lyrical,,,,--- ---- ------ the ------- ---------- ------- ----------<br>--- --------- --- ----------- ------- ----- ------- ---<br>--------- ---- -- --- ---- -- --------- -- ---- -------<br>-- --------- ------ --- ----- ------ ---- --- --------- --<br>------ - ---- -- --- ----------- ------- ---- ----- -----<br>--- -------- - ------ ---- -- ----- ---- --- --- -----------<br>-- -------,294588.7999999821,294588.1999999881,293407.148,293410.5,293423.814,294590.437,,3,the
screen,html.Screen,2_3_1_0_1_4,2022-02-02T21:41:34.043Z,,,,,,,,,,,,,,,,,2,,,,,,,,,,,,,,547.7629999881028,,response,,,,1,E,,,,,,Space,keypress(Space),,,,lyrical,,,,--- ---- ------ --- British ---------- ------- ----------<br>--- --------- --- ----------- ------- ----- ------- ---<br>--------- ---- -- --- ---- -- --------- -- ---- -------<br>-- --------- ------ --- ----- ------ ---- --- --------- --<br>------ - ---- -- --- ----------- ------- ---- ----- -----<br>--- -------- - ------ ---- -- ----- ---- --- --- -----------<br>-- -------,295138.6999999881,295138.1999999881,294573.771,294588.7999999821,294590.437,295140.45,,4,British
screen,html.Screen,2_3_1_0_1_5,2022-02-02T21:41:34.408Z,,,,,,,,,,,,,,,,,2,,,,,,,,,,,,,,362.34999998210697,,response,,,,1,E,,,,,,Space,keypress(Space),,,,lyrical,,,,--- ---- ------ --- ------- astronomer ------- ----------<br>--- --------- --- ----------- ------- ----- ------- ---<br>--------- ---- -- --- ---- -- --------- -- ---- -------<br>-- --------- ------ --- ----- ------ ---- --- --------- --<br>------ - ---- -- --- ----------- ------- ---- ----- -----<br>--- -------- - ------ ---- -- ----- ---- --- --- -----------<br>-- -------,295503.39999997616,295502.7999999821,295123.784,295138.7999999821,295140.45,295507.133,,5,astronomer
screen,html.Screen,2_3_1_0_1_6,2022-02-02T21:41:34.619Z,,,,,,,,,,,,,,,,,2,,,,,,,,,,,,,,207.26699997618562,,response,,,,1,E,,,,,,Space,keypress(Space),,,,lyrical,,,,--- ---- ------ --- ------- ---------- Richard ----------<br>--- --------- --- ----------- ------- ----- ------- ---<br>--------- ---- -- --- ---- -- --------- -- ---- -------<br>-- --------- ------ --- ----- ------ ---- --- --------- --<br>------ - ---- -- --- ----------- ------- ---- ----- -----<br>--- -------- - ------ ---- -- ----- ---- --- --- -----------<br>-- -------,295715,295714.39999997616,295490.467,295503.39999997616,295507.133,295723.793,,6,Richard
screen,html.Screen,2_3_1_0_1_7,2022-02-02T21:41:35.188Z,,,,,,,,,,,,,,,,,2,,,,,,,,,,,,,,559.0069999821135,,response,,,,1,E,,,,,,Space,keypress(Space),,,,lyrical,,,,--- ---- ------ --- ------- ---------- ------- Carrington<br>--- --------- --- ----------- ------- ----- ------- ---<br>--------- ---- -- --- ---- -- --------- -- ---- -------<br>-- --------- ------ --- ----- ------ ---- --- --------- --<br>------ - ---- -- --- ----------- ------- ---- ----- -----<br>--- -------- - ------ ---- -- ----- ---- --- --- -----------<br>-- -------,296283.2999999821,296282.7999999821,295707.127,295715,295723.793,296290.643,,7,Carrington
screen,html.Screen,2_3_1_0_1_8,2022-02-02T21:41:35.765Z,,,,,,,,,,,,,,,,,2,,,,,,,,,,,,,,568.3570000000182,,response,,,,1,E,,,,,,Space,keypress(Space),,,,lyrical,,,,--- ---- ------ --- ------- ---------- ------- ----------<br>was --------- --- ----------- ------- ----- ------- ---<br>--------- ---- -- --- ---- -- --------- -- ---- -------<br>-- --------- ------ --- ----- ------ ---- --- --------- --<br>------ - ---- -- --- ----------- ------- ---- ----- -----<br>--- -------- - ------ ---- -- ----- ---- --- --- -----------<br>-- -------,296860.09999999404,296859,296273.977,296283.2999999821,296290.643,296873.934,,8,was
screen,html.Screen,2_3_1_0_1_9,2022-02-02T21:41:36.347Z,,,,,,,,,,,,,,,,,2,,,,,,,,,,,,,,568.4659999761498,,response,,,,1,E,,,,,,Space,keypress(Space),,,,lyrical,,,,--- ---- ------ --- ------- ---------- ------- ----------<br>--- observing --- ----------- ------- ----- ------- ---<br>--------- ---- -- --- ---- -- --------- -- ---- -------<br>-- --------- ------ --- ----- ------ ---- --- --------- --<br>------ - ---- -- --- ----------- ------- ---- ----- -----<br>--- -------- - ------ ---- -- ----- ---- --- --- -----------<br>-- -------,297443,297442.39999997616,296857.268,296860.2999999821,296873.934,297457.108,,9,observing
screen,html.Screen,2_3_1_0_1_10,2022-02-02T21:41:36.814Z,,,,,,,,,,,,,,,,,2,,,,,,,,,,,,,,451.4919999940321,,response,,,,1,E,,,,,,Space,keypress(Space),,,,lyrical,,,,--- ---- ------ --- ------- ---------- ------- ----------<br>--- --------- the ----------- ------- ----- ------- ---<br>--------- ---- -- --- ---- -- --------- -- ---- -------<br>-- --------- ------ --- ----- ------ ---- --- --------- --<br>------ - ---- -- --- ----------- ------- ---- ----- -----<br>--- -------- - ------ ---- -- ----- ---- --- --- -----------<br>-- -------,297909.09999999404,297908.59999999404,297440.442,297443,297457.108,297923.814,,10,the
screen,html.Screen,2_3_1_0_1_11,2022-02-02T21:41:37.441Z,,,,,,,,,,,,,,,,,2,,,,,,,,,,,,,,611.9859999821056,,response,,,,1,E,,,,,,Space,keypress(Space),,,,lyrical,,,,--- ---- ------ --- ------- ---------- ------- ----------<br>--- --------- --- interesting ------- ----- ------- ---<br>--------- ---- -- --- ---- -- --------- -- ---- -------<br>-- --------- ------ --- ----- ------ ---- --- --------- --<br>------ - ---- -- --- ----------- ------- ---- ----- -----<br>--- -------- - ------ ---- -- ----- ---- --- --- -----------<br>-- -------,298536.39999997616,298535.7999999821,297907.148,297909.1999999881,297923.814,298540.435,,11,interesting
screen,html.Screen,2_3_1_0_1_12,2022-02-02T21:41:37.597Z,,,,,,,,,,,,,,,,,2,,,,,,,,,,,,,,150.46499997616047,,response,,,,1,E,,,,,,Space,keypress(Space),,,,lyrical,,,,--- ---- ------ --- ------- ---------- ------- ----------<br>--- --------- --- ----------- sunspot ----- ------- ---<br>--------- ---- -- --- ---- -- --------- -- ---- -------<br>-- --------- ------ --- ----- ------ ---- --- --------- --<br>------ - ---- -- --- ----------- ------- ---- ----- -----<br>--- -------- - ------ ---- -- ----- ---- --- --- -----------<br>-- -------,298692.5,298690.89999997616,298523.769,298536.39999997616,298540.435,298707.156,,12,sunspot
screen,html.Screen,2_3_1_0_1_13,2022-02-02T21:41:38.141Z,,,,,,,,,,,,,,,,,2,,,,,,,,,,,,,,528.9439999940223,,response,,,,1,E,,,,,,Space,keypress(Space),,,,lyrical,,,,--- ---- ------ --- ------- ---------- ------- ----------<br>--- --------- --- ----------- ------- group ------- ---<br>--------- ---- -- --- ---- -- --------- -- ---- -------<br>-- --------- ------ --- ----- ------ ---- --- --------- --<br>------ - ---- -- --- ----------- ------- ---- ----- -----<br>--- -------- - ------ ---- -- ----- ---- --- --- -----------<br>-- -------,299236.59999999404,299236.09999999404,298690.49,298692.6999999881,298707.156,299240.489,,13,group
screen,html.Screen,2_3_1_0_1_14,2022-02-02T21:41:38.293Z,,,,,,,,,,,,,,,,,2,,,,,,,,,,,,,,147.8109999821172,,response,,,,1,E,,,,,,Space,keypress(Space),,,,lyrical,,,,--- ---- ------ --- ------- ---------- ------- ----------<br>--- --------- --- ----------- ------- ----- through ---<br>--------- ---- -- --- ---- -- --------- -- ---- -------<br>-- --------- ------ --- ----- ------ ---- --- --------- --<br>------ - ---- -- --- ----------- ------- ---- ----- -----<br>--- -------- - ------ ---- -- ----- ---- --- --- -----------<br>-- -------,299388.89999997616,299388.2999999821,299223.823,299236.7999999821,299240.489,299390.498,,14,through
screen,html.Screen,2_3_1_0_1_15,2022-02-02T21:41:38.762Z,,,,,,,,,,,,,,,,,2,,,,,,,,,,,,,,466.1019999940181,,response,,,,1,E,,,,,,Space,keypress(Space),,,,lyrical,,,,--- ---- ------ --- ------- ---------- ------- ----------<br>--- --------- --- ----------- ------- ----- ------- his<br>--------- ---- -- --- ---- -- --------- -- ---- -------<br>-- --------- ------ --- ----- ------ ---- --- --------- --<br>------ - ---- -- --- ----------- ------- ---- ----- -----<br>--- -------- - ------ ---- -- ----- ---- --- --- -----------<br>-- -------,299857.09999999404,299856.59999999404,299373.832,299389,299390.498,299873.824,,15,his
screen,html.Screen,2_3_1_0_1_16,2022-02-02T21:41:38.932Z,,,,,,,,,,,,,,,,,2,,,,,,,,,,,,,,152.77599999401718,,response,,,,1,E,,,,,,Space,keypress(Space),,,,lyrical,,,,--- ---- ------ --- ------- ---------- ------- ----------<br>--- --------- --- ----------- ------- ----- ------- ---<br>telescope ---- -- --- ---- -- --------- -- ---- -------<br>-- --------- ------ --- ----- ------ ---- --- --------- --<br>------ - ---- -- --- ----------- ------- ---- ----- -----<br>--- -------- - ------ ---- -- ----- ---- --- --- -----------<br>-- -------,300027.7999999821,300026.59999999404,299857.158,299857.2999999821,299873.824,300040.511,,16,telescope
screen,html.Screen,2_3_1_0_1_17,2022-02-02T21:41:39.985Z,,,,,,,,,,,,,,,,,2,,,,,,,,,,,,,,1039.78899998212,,response,,,,1,E,,,,,,Space,keypress(Space),,,,lyrical,,,,--- ---- ------ --- ------- ---------- ------- ----------<br>--- --------- --- ----------- ------- ----- ------- ---<br>--------- when -- --- ---- -- --------- -- ---- -------<br>-- --------- ------ --- ----- ------ ---- --- --------- --<br>------ - ---- -- --- ----------- ------- ---- ----- -----<br>--- -------- - ------ ---- -- ----- ---- --- --- -----------<br>-- -------,301080.89999997616,301080.2999999821,300023.845,300028.09999999404,300040.511,301090.481,,17,when
screen,html.Screen,2_3_1_0_1_18,2022-02-02T21:41:40.596Z,,,,,,,,,,,,,,,,,2,,,,,,,,,,,,,,600.4189999761293,,response,,,,1,E,,,,,,Space,keypress(Space),,,,lyrical,,,,--- ---- ------ --- ------- ---------- ------- ----------<br>--- --------- --- ----------- ------- ----- ------- ---<br>--------- ---- he --- ---- -- --------- -- ---- -------<br>-- --------- ------ --- ----- ------ ---- --- --------- --<br>------ - ---- -- --- ----------- ------- ---- ----- -----<br>--- -------- - ------ ---- -- ----- ---- --- --- -----------<br>-- -------,301691.5,301690.89999997616,301073.815,301080.89999997616,301090.481,301707.15,,18,he
screen,html.Screen,2_3_1_0_1_19,2022-02-02T21:41:40.970Z,,,,,,,,,,,,,,,,,2,,,,,,,,,,,,,,358.1499999820953,,response,,,,1,E,,,,,,Space,keypress(Space),,,,lyrical,,,,--- ---- ------ --- ------- ---------- ------- ----------<br>--- --------- --- ----------- ------- ----- ------- ---<br>--------- ---- -- saw ---- -- --------- -- ---- -------<br>-- --------- ------ --- ----- ------ ---- --- --------- --<br>------ - ---- -- --- ----------- ------- ---- ----- -----<br>--- -------- - ------ ---- -- ----- ---- --- --- -----------<br>-- -------,302065.7999999821,302065.2999999821,301690.484,301691.6999999881,301707.15,302073.827,,19,saw
screen,html.Screen,2_3_1_0_1_20,2022-02-02T21:41:41.146Z,,,,,,,,,,,,,,,,,2,,,,,,,,,,,,,,165.57299997616792,,response,,,,1,E,,,,,,Space,keypress(Space),,,,lyrical,,,,--- ---- ------ --- ------- ---------- ------- ----------<br>--- --------- --- ----------- ------- ----- ------- ---<br>--------- ---- -- --- what -- --------- -- ---- -------<br>-- --------- ------ --- ----- ------ ---- --- --------- --<br>------ - ---- -- --- ----------- ------- ---- ----- -----<br>--- -------- - ------ ---- -- ----- ---- --- --- -----------<br>-- -------,302241.09999999404,302239.39999997616,302057.161,302065.89999997616,302073.827,302257.306,,20,what
screen,html.Screen,2_3_1_0_1_21,2022-02-02T21:41:41.693Z,,,,,,,,,,,,,,,,,2,,,,,,,,,,,,,,530.6940000000177,,response,,,,1,E,,,,,,Space,keypress(Space),,,,lyrical,,,,--- ---- ------ --- ------- ---------- ------- ----------<br>--- --------- --- ----------- ------- ----- ------- ---<br>--------- ---- -- --- ---- he --------- -- ---- -------<br>-- --------- ------ --- ----- ------ ---- --- --------- --<br>------ - ---- -- --- ----------- ------- ---- ----- -----<br>--- -------- - ------ ---- -- ----- ---- --- --- -----------<br>-- -------,302788.5,302788,302240.64,302241.2999999821,302257.306,302790.501,,21,he
screen,html.Screen,2_3_1_0_1_22,2022-02-02T21:41:41.814Z,,,,,,,,,,,,,,,,,2,,,,,,,,,,,,,,118.59899999405025,,response,,,,1,E,,,,,,Space,keypress(Space),,,,lyrical,,,,--- ---- ------ --- ------- ---------- ------- ----------<br>--- --------- --- ----------- ------- ----- ------- ---<br>--------- ---- -- --- ---- -- described -- ---- -------<br>-- --------- ------ --- ----- ------ ---- --- --------- --<br>------ - ---- -- --- ----------- ------- ---- ----- -----<br>--- -------- - ------ ---- -- ----- ---- --- --- -----------<br>-- -------,302909.6999999881,302909.09999999404,302773.835,302788.59999999404,302790.501,302923.836,,22,described
screen,html.Screen,2_3_1_0_1_23,2022-02-02T21:41:41.956Z,,,,,,,,,,,,,,,,,2,,,,,,,,,,,,,,126.26399999402929,,response,,,,1,E,,,,,,Space,keypress(Space),,,,lyrical,,,,--- ---- ------ --- ------- ---------- ------- ----------<br>--- --------- --- ----------- ------- ----- ------- ---<br>--------- ---- -- --- ---- -- --------- as ---- -------<br>-- --------- ------ --- ----- ------ ---- --- --------- --<br>------ - ---- -- --- ----------- ------- ---- ----- -----<br>--- -------- - ------ ---- -- ----- ---- --- --- -----------<br>-- -------,303051.09999999404,303050.09999999404,302907.17,302909.6999999881,302923.836,303073.989,,23,as
screen,html.Screen,2_3_1_0_1_24,2022-02-02T21:41:42.137Z,,,,,,,,,,,,,,,,,2,,,,,,,,,,,,,,156.91099997615675,,response,,,,1,E,,,,,,Space,keypress(Space),,,,lyrical,,,,"--- ---- ------ --- ------- ---------- ------- ----------<br>--- --------- --- ----------- ------- ----- ------- ---<br>--------- ---- -- --- ---- -- --------- -- ""two -------<br>-- --------- ------ --- ----- ------ ---- --- --------- --<br>------ - ---- -- --- ----------- ------- ---- ----- -----<br>--- -------- - ------ ---- -- ----- ---- --- --- -----------<br>-- -------",303232.5,303230.89999997616,303040.657,303051.2999999821,303073.989,303240.651,,24,"""two"
screen,html.Screen,2_3_1_0_1_25,2022-02-02T21:41:42.812Z,,,,,,,,,,,,,,,,,2,,,,,,,,,,,,,,666.0489999880665,,response,,,,1,E,,,,,,Space,keypress(Space),,,,lyrical,,,,--- ---- ------ --- ------- ---------- ------- ----------<br>--- --------- --- ----------- ------- ----- ------- ---<br>--------- ---- -- --- ---- -- --------- -- ---- patches<br>-- --------- ------ --- ----- ------ ---- --- --------- --<br>------ - ---- -- --- ----------- ------- ---- ----- -----<br>--- -------- - ------ ---- -- ----- ---- --- --- -----------<br>-- -------,303907.1999999881,303906.6999999881,303223.985,303232.6999999881,303240.651,303923.843,,25,patches
screen,html.Screen,2_3_1_0_1_26,2022-02-02T21:41:43.153Z,,,,,,,,,,,,,,,,,2,,,,,,,,,,,,,,323.1570000000065,,response,,,,1,E,,,,,,Space,keypress(Space),,,,lyrical,,,,--- ---- ------ --- ------- ---------- ------- ----------<br>--- --------- --- ----------- ------- ----- ------- ---<br>--------- ---- -- --- ---- -- --------- -- ---- -------<br>of --------- ------ --- ----- ------ ---- --- --------- --<br>------ - ---- -- --- ----------- ------- ---- ----- -----<br>--- -------- - ------ ---- -- ----- ---- --- --- -----------<br>-- -------,304248.09999999404,304247,303907.177,303907.1999999881,303923.843,304257.152,,26,of
screen,html.Screen,2_3_1_0_1_27,2022-02-02T21:41:43.346Z,,,,,,,,,,,,,,,,,2,,,,,,,,,,,,,,183.34799999999814,,response,,,,1,E,,,,,,Space,keypress(Space),,,,lyrical,,,,--- ---- ------ --- ------- ---------- ------- ----------<br>--- --------- --- ----------- ------- ----- ------- ---<br>--------- ---- -- --- ---- -- --------- -- ---- -------<br>-- intensely ------ --- ----- ------ ---- --- --------- --<br>------ - ---- -- --- ----------- ------- ---- ----- -----<br>--- -------- - ------ ---- -- ----- ---- --- --- -----------<br>-- -------,304441.7999999821,304440.5,304240.486,304248.2999999821,304257.152,304457.179,,27,intensely
screen,html.Screen,2_3_1_0_1_28,2022-02-02T21:41:43.906Z,,,,,,,,,,,,,,,,,2,,,,,,,,,,,,,,543.4209999940358,,response,,,,1,E,,,,,,Space,keypress(Space),,,,lyrical,,,,--- ---- ------ --- ------- ---------- ------- ----------<br>--- --------- --- ----------- ------- ----- ------- ---<br>--------- ---- -- --- ---- -- --------- -- ---- -------<br>-- --------- bright --- ----- ------ ---- --- --------- --<br>------ - ---- -- --- ----------- ------- ---- ----- -----<br>--- -------- - ------ ---- -- ----- ---- --- --- -----------<br>-- -------,305002,305000.59999999404,304440.513,304442.09999999404,304457.179,305007.177,,28,bright
screen,html.Screen,2_3_1_0_1_29,2022-02-02T21:41:44.073Z,,,,,,,,,,,,,,,,,2,,,,,,,,,,,,,,160.82299999997485,,response,,,,1,E,,,,,,Space,keypress(Space),,,,lyrical,,,,--- ---- ------ --- ------- ---------- ------- ----------<br>--- --------- --- ----------- ------- ----- ------- ---<br>--------- ---- -- --- ---- -- --------- -- ---- -------<br>-- --------- ------ and ----- ------ ---- --- --------- --<br>------ - ---- -- --- ----------- ------- ---- ----- -----<br>--- -------- - ------ ---- -- ----- ---- --- --- -----------<br>-- -------,305168.5,305168,304990.511,305002.1999999881,305007.177,305173.853,,29,and
screen,html.Screen,2_3_1_0_1_30,2022-02-02T21:41:44.473Z,,,,,,,,,,,,,,,,,2,,,,,,,,,,,,,,393.04699997615535,,response,,,,1,E,,,,,,Space,keypress(Space),,,,lyrical,,,,--- ---- ------ --- ------- ---------- ------- ----------<br>--- --------- --- ----------- ------- ----- ------- ---<br>--------- ---- -- --- ---- -- --------- -- ---- -------<br>-- --------- ------ --- white ------ ---- --- --------- --<br>------ - ---- -- --- ----------- ------- ---- ----- -----<br>--- -------- - ------ ---- -- ----- ---- --- --- -----------<br>-- -------,305568,305566.89999997616,305157.187,305168.59999999404,305173.853,305573.874,,30,white
screen,html.Screen,2_3_1_0_1_31,2022-02-02T21:41:44.836Z,,,,,,,,,,,,,,,,,2,,,,,,,,,,,,,,357.1259999999893,,response,,,,1,E,,,,,,Space,keypress(Space),,,,lyrical,,,,"--- ---- ------ --- ------- ---------- ------- ----------<br>--- --------- --- ----------- ------- ----- ------- ---<br>--------- ---- -- --- ---- -- --------- -- ---- -------<br>-- --------- ------ --- ----- light"" ---- --- --------- --<br>------ - ---- -- --- ----------- ------- ---- ----- -----<br>--- -------- - ------ ---- -- ----- ---- --- --- -----------<br>-- -------",305931.59999999404,305931,305557.208,305568.1999999881,305573.874,305940.511,,31,"light"""
screen,html.Screen,2_3_1_0_1_32,2022-02-02T21:41:45.636Z,,,,,,,,,,,,,,,,,2,,,,,,,,,,,,,,789.6889999880805,,response,,,,1,E,,,,,,Space,keypress(Space),,,,lyrical,,,,--- ---- ------ --- ------- ---------- ------- ----------<br>--- --------- --- ----------- ------- ----- ------- ---<br>--------- ---- -- --- ---- -- --------- -- ---- -------<br>-- --------- ------ --- ----- ------ over --- --------- --<br>------ - ---- -- --- ----------- ------- ---- ----- -----<br>--- -------- - ------ ---- -- ----- ---- --- --- -----------<br>-- -------,306731.89999997616,306730.1999999881,305923.845,305931.6999999881,305940.511,306740.507,,32,over
screen,html.Screen,2_3_1_0_1_33,2022-02-02T21:41:46.158Z,,,,,,,,,,,,,,,,,2,,,,,,,,,,,,,,512.0929999940563,,response,,,,1,E,,,,,,Space,keypress(Space),,,,lyrical,,,,--- ---- ------ --- ------- ---------- ------- ----------<br>--- --------- --- ----------- ------- ----- ------- ---<br>--------- ---- -- --- ---- -- --------- -- ---- -------<br>-- --------- ------ --- ----- ------ ---- the --------- --<br>------ - ---- -- --- ----------- ------- ---- ----- -----<br>--- -------- - ------ ---- -- ----- ---- --- --- -----------<br>-- -------,307253.1999999881,307252.59999999404,306723.841,306732.1999999881,306740.507,307257.159,,33,the
screen,html.Screen,2_3_1_0_1_34,2022-02-02T21:41:46.645Z,,,,,,,,,,,,,,,,,2,,,,,,,,,,,,,,482.540999988094,,response,,,,1,E,,,,,,Space,keypress(Space),,,,lyrical,,,,--- ---- ------ --- ------- ---------- ------- ----------<br>--- --------- --- ----------- ------- ----- ------- ---<br>--------- ---- -- --- ---- -- --------- -- ---- -------<br>-- --------- ------ --- ----- ------ ---- --- sunspots. --<br>------ - ---- -- --- ----------- ------- ---- ----- -----<br>--- -------- - ------ ---- -- ----- ---- --- --- -----------<br>-- -------,307740.1999999881,307739.6999999881,307240.493,307253.2999999821,307257.159,307740.527,,34,sunspots.
screen,html.Screen,2_3_1_0_1_35,2022-02-02T21:41:48.207Z,,,,,,,,,,,,,,,,,2,,,,,,,,,,,,,,1561.3729999761563,,response,,,,1,E,,,,,,Space,keypress(Space),,,,lyrical,,,,--- ---- ------ --- ------- ---------- ------- ----------<br>--- --------- --- ----------- ------- ----- ------- ---<br>--------- ---- -- --- ---- -- --------- -- ---- -------<br>-- --------- ------ --- ----- ------ ---- --- --------- He<br>------ - ---- -- --- ----------- ------- ---- ----- -----<br>--- -------- - ------ ---- -- ----- ---- --- --- -----------<br>-- -------,309302.59999999404,309301.89999997616,307723.861,307740.2999999821,307740.527,309307.139,,35,He
screen,html.Screen,2_3_1_0_1_36,2022-02-02T21:41:48.827Z,,,,,,,,,,,,,,,,,2,,,,,,,,,,,,,,614.6609999820939,,response,,,,1,E,,,,,,Space,keypress(Space),,,,lyrical,,,,--- ---- ------ --- ------- ---------- ------- ----------<br>--- --------- --- ----------- ------- ----- ------- ---<br>--------- ---- -- --- ---- -- --------- -- ---- -------<br>-- --------- ------ --- ----- ------ ---- --- --------- --<br>jotted - ---- -- --- ----------- ------- ---- ----- -----<br>--- -------- - ------ ---- -- ----- ---- --- --- -----------<br>-- -------,309922.1999999881,309921.7999999821,309290.473,309302.6999999881,309307.139,309923.811,,36,jotted
screen,html.Screen,2_3_1_0_1_37,2022-02-02T21:41:48.964Z,,,,,,,,,,,,,,,,,2,,,,,,,,,,,,,,134.28899999405257,,response,,,,1,E,,,,,,Space,keypress(Space),,,,lyrical,,,,--- ---- ------ --- ------- ---------- ------- ----------<br>--- --------- --- ----------- ------- ----- ------- ---<br>--------- ---- -- --- ---- -- --------- -- ---- -------<br>-- --------- ------ --- ----- ------ ---- --- --------- --<br>------ a ---- -- --- ----------- ------- ---- ----- -----<br>--- -------- - ------ ---- -- ----- ---- --- --- -----------<br>-- -------,310059,310058.09999999404,309907.145,309922.2999999821,309923.811,310073.845,,37,a
