sender,sender_type,sender_id,timestamp,meta,,Blues,Classical,Country,Dance,Electronic,Folk,Gospel,Hip-Hop,Jazz,Latin,Musical/Film,New-age,Pop,Prolific_id,Provo_ID,R&B,Rap,Reggae,Religious,Rock,Soul,Swing,Traditional,age,artist_name,correct,correctResponse,distraction,duration,education,ended_on,familiarity,gender,headphone_check_performance,item,list,music_frequency,offensiveness,pleasantness,position_correct,preference,response,response_action,snippet_file,song_name,song_rating,sound,stimulus_1,stimulus_2,stimulus_3,text,time_commit,time_end,time_render,time_run,time_show,time_switch,url,word,word_ID
Prolific ID,html.Form,0,2022-02-17T12:50:42.190Z,"{""labjs_version"":""20.2.2"",""labjs_build"":{""flavor"":""production"",""commit"":""a25486e0c714a0ae2ce03ff94b7bb6896854dcfa""},""location"":""https://run.pavlovia.org/mvasilev/prolific2_music_d/"",""userAgent"":""Mozilla/5.0 (X11; Linux x86_64; rv:97.0) Gecko/20100101 Firefox/97.0"",""platform"":""Linux x86_64"",""language"":""en-GB"",""locale"":""en-GB"",""timeZone"":""Europe/London"",""timezoneOffset"":0,""screen_width"":1920,""screen_height"":1080,""scroll_width"":1236,""scroll_height"":713,""window_innerWidth"":1236,""window_innerHeight"":761,""devicePixelRatio"":1}",,,,,,,,,,,,,,,59e4b3a1896cfc0001921095,,,,,,,,,,,,,,,4427.42,,form submission,,,,,,,,,,,,,,,,,,,,,11766,11765,7337.48,7337,7337.58,11770.12,{},,
Introduction,html.Screen,1_0,2022-02-17T12:50:45.902Z,,,,,,,,,,,,,,,,,,,,,,,,,,,,,,,3706.879999999999,,response,,,,,,,,,,,continue,click button,,,,,,,,,15478,15477,11761.38,11767,11770.12,15493.64,,,
Volume calibration,html.Screen,1_1,2022-02-17T12:51:17.358Z,,,,,,,,,,,,,,,,,,,,,,,,,,,,,,,31438.36,,response,,,,,,,,,,,continue,click button,,,,,,,,,46935,46932,15477.64,15479,15493.64,46948.2,,,
Task instructions,html.Screen,1_2,2022-02-17T12:51:22.261Z,,,,,,,,,,,,,,,,,,,,,,,,,,,,,,,4886.800000000003,,response,,,,,,,,,,,continue,click button,,,,,,,,,51837,51835,46933.78,46935,46948.2,51852.08,,,
Sounds,html.Screen,1_3_0_0,2022-02-17T12:51:26.512Z,,,,,,,,,,,,,,,,,,,,,,,,,,,,,,,4251.559999999998,,timeout,,,,,,,,,2,,,,,,,,O,S,I,,56088,56087.52,51836.18,51837,51852.08,56103.64,,,
Judgement,html.Screen,1_3_0_1,2022-02-17T12:51:29.023Z,,,,,,,,,,,,,,,,,,,,,,,,,,,,true,2,,2492.3600000000006,,response,,,,,,,,,2,,2,click #choice-2,,,,,O,S,I,,58599,58596,56087.52,56089,56103.64,58606.58,,,
Trial,flow.Sequence,1_3_0,2022-02-17T12:51:29.023Z,,,,,,,,,,,,,,,,,,,,,,,,,,,,,,,6743.919999999998,,completion,,,,,,,,,2,,,,,,,,O,S,I,,58600,58596,51836.18,51837,51852.08,58606.58,,,
Sounds,html.Screen,1_3_1_0,2022-02-17T12:51:33.268Z,,,,,,,,,,,,,,,,,,,,,,,,,,,,,,,4251.8399999999965,,timeout,,,,,,,,,2,,,,,,,,I,S,O,,62844,62842.3,58598.52,58600,58606.58,62858.42,,,
Judgement,html.Screen,1_3_1_1,2022-02-17T12:51:34.162Z,,,,,,,,,,,,,,,,,,,,,,,,,,,,true,2,,877.5800000000017,,response,,,,,,,,,2,,2,click #choice-2,,,,,I,S,O,,63738,63736,62842.3,62844,62858.42,63753.64,,,
Trial,flow.Sequence,1_3_1,2022-02-17T12:51:34.163Z,,,,,,,,,,,,,,,,,,,,,,,,,,,,,,,5129.419999999998,,completion,,,,,,,,,2,,,,,,,,I,S,O,,63739,63736,58598.52,58600,58606.58,63753.64,,,
Sounds,html.Screen,1_3_2_0,2022-02-17T12:51:38.412Z,,,,,,,,,,,,,,,,,,,,,,,,,,,,,,,4250.8399999999965,,timeout,,,,,,,,,1,,,,,,,,S,O,I,,67988,67987.4,63737.66,63739,63753.64,68004.48,,,
Judgement,html.Screen,1_3_2_1,2022-02-17T12:51:38.981Z,,,,,,,,,,,,,,,,,,,,,,,,,,,,true,1,,549.5200000000041,,response,,,,,,,,,1,,1,click #choice-1,,,,,S,O,I,,68557,68554,67987.4,67988,68004.48,68556.46,,,
Trial,flow.Sequence,1_3_2,2022-02-17T12:51:38.981Z,,,,,,,,,,,,,,,,,,,,,,,,,,,,,,,4800.360000000001,,completion,,,,,,,,,1,,,,,,,,S,O,I,,68557,68554,63737.66,63739,63753.64,68556.46,,,
Sounds,html.Screen,1_3_3_0,2022-02-17T12:51:43.216Z,,,,,,,,,,,,,,,,,,,,,,,,,,,,,,,4251.039999999994,,timeout,,,,,,,,,3,,,,,,,,O,I,S,,72792,72790.44,68556.46,68557,68556.46,72807.5,,,
Judgement,html.Screen,1_3_3_1,2022-02-17T12:51:43.611Z,,,,,,,,,,,,,,,,,,,,,,,,,,,,true,3,,377.5,,response,,,,,,,,,3,,3,click #choice-3,,,,,O,I,S,,73187,73185,72790.44,72792,72807.5,73202.1,,,
Trial,flow.Sequence,1_3_3,2022-02-17T12:51:43.612Z,,,,,,,,,,,,,,,,,,,,,,,,,,,,,,,4628.539999999994,,completion,,,,,,,,,3,,,,,,,,O,I,S,,73187,73185,68556.46,68557,68556.46,73202.1,,,
Sounds,html.Screen,1_3_4_0,2022-02-17T12:51:47.862Z,,,,,,,,,,,,,,,,,,,,,,,,,,,,,,,4251.679999999993,,timeout,,,,,,,,,1,,,,,,,,S,I,O,,77438,77436.66,73186.18,73188,73202.1,77453.78,,,
Judgement,html.Screen,1_3_4_1,2022-02-17T12:51:49.319Z,,,,,,,,,,,,,,,,,,,,,,,,,,,,true,1,,1438.2200000000012,,response,,,,,,,,,1,,1,click #choice-1,,,,,S,I,O,,78895,78892,77436.66,77438,77453.78,78910.3,,,
Trial,flow.Sequence,1_3_4,2022-02-17T12:51:49.320Z,,,,,,,,,,,,,,,,,,,,,,,,,,,,,,,5689.899999999994,,completion,,,,,,,,,1,,,,,,,,S,I,O,,78895,78892,73186.18,73188,73202.1,78910.3,,,
Sounds,html.Screen,1_3_5_0,2022-02-17T12:51:53.570Z,,,,,,,,,,,,,,,,,,,,,,,,,,,,,,,4251.8399999999965,,timeout,,,,,,,,,3,,,,,,,,I,O,S,,83145,83145.08,78894.3,78895,78910.3,83162.14,,,
Judgement,html.Screen,1_3_5_1,2022-02-17T12:51:54.073Z,,,,,,,,,,,,,,,,,,,,,,,,,,,,true,3,,485.8600000000006,,response,,,,,,,,,3,,3,click #choice-3,,,,,I,O,S,,83649,83648,83145.08,83146,83162.14,83664.22,,,
Trial,flow.Sequence,1_3_5,2022-02-17T12:51:54.073Z,,,,,,,,,,,,,,,,,,,,,,,,,,,,,,,4737.699999999997,,completion,,,,,,,,,3,,,,,,,,I,O,S,,83649,83648,78894.3,78895,78910.3,83664.22,,,
Task,flow.Loop,1_3,2022-02-17T12:51:54.074Z,,,,,,,,,,,,,,,,,,,,,,,,,,,,,,,31795.92,,completion,,,1,,,,,,,,,,,,,,,,,,83650,83648,51836.18,51837,51852.08,83664.22,,,
Trap,html.Screen,1_4,2022-02-17T12:51:54.077Z,,,,,,,,,,,,,,,,,,,,,,,,,,,,,,,NaN,,skipped,,,,,,,,,,,,,,,,,,,,,83652,83648,,83652,,83664.22,,,
Thanks,html.Screen,1_5,2022-02-17T12:51:57.214Z,,,,,,,,,,,,,,,,,,,,,,,,,,,,,,,3123.779999999999,,response,,,,,,,,,,,continue,click button,,,,,,,,,86790,86788,83648.22,83652,83664.22,90833.68,,,
Headphone screening,flow.Sequence,1,2022-02-17T12:51:57.214Z,,,,,,,,,,,,,,,,,,,,,,,,,,,,,,,75017.88,,completion,,,,,,,,,,,,,,,,,,,,,86791,86788,11761.38,11767,11770.12,90833.68,,,
Instructions,html.Page,2_0,2022-02-17T12:52:14.470Z,,,,,,,,,,,,,,,,,,,,,,,,,,,,,,,13211.320000000007,,form submission,,,,,,,,,,,,,,,,,,,,,104046,104045,90817.6,90771,90833.68,104058.92,,,
Holding screen,html.Screen,2_1_0_0,2022-02-17T12:52:24.472Z,,,,,,,,,,,,,,,,,,,,,,,,,,,,,,,10004.919999999998,,timeout,,,,,,,,,,,,,,,,,,,,,114048,114047.74,104042.88,104046,104058.92,114063.84,,,
screen,html.Screen,2_1_0_1_0,2022-02-17T12:52:25.272Z,,,,,,,,,,,,,,,,,53,,,,,,,,,,,,,,783.1600000000035,,response,,,,99,,,,,,,Space,keypress(Space),,,,,,,,When -- ----- -- ------ - ------- --- ----------<br>------------- ------ ------ ---- ---- ------- ----- -- ----<br>-------- ------- -- ---------- --- - --- ----- ----- ----<br>---- --- --- ----- --- ---- ---- ------- ----- ---- -------<br>--- --- -- ----- -- --- ---- -- --- ---- -- ------ ------<br>--- ----- -- ----,114848,114847,114047.74,114048,114063.84,114848.78,,0,When
screen,html.Screen,2_1_0_1_1,2022-02-17T12:52:25.769Z,,,,,,,,,,,,,,,,,53,,,,,,,,,,,,,,495.22000000000116,,response,,,,99,,,,,,,Space,keypress(Space),,,,,,,,---- it ----- -- ------ - ------- --- ----------<br>------------- ------ ------ ---- ---- ------- ----- -- ----<br>-------- ------- -- ---------- --- - --- ----- ----- ----<br>---- --- --- ----- --- ---- ---- ------- ----- ---- -------<br>--- --- -- ----- -- --- ---- -- --- ---- -- ------ ------<br>--- ----- -- ----,115346,115344,114848.58,114848,114848.78,115345.6,,1,it
screen,html.Screen,2_1_0_1_2,2022-02-17T12:52:26.257Z,,,,,,,,,,,,,,,,,53,,,,,,,,,,,,,,486.3999999999942,,response,,,,99,,,,,,,Space,keypress(Space),,,,,,,,---- -- comes -- ------ - ------- --- ----------<br>------------- ------ ------ ---- ---- ------- ----- -- ----<br>-------- ------- -- ---------- --- - --- ----- ----- ----<br>---- --- --- ----- --- ---- ---- ------- ----- ---- -------<br>--- --- -- ----- -- --- ---- -- --- ---- -- ------ ------<br>--- ----- -- ----,115833,115832,115345.42,115346,115345.6,115832.98,,2,comes
screen,html.Screen,2_1_0_1_3,2022-02-17T12:52:26.648Z,,,,,,,,,,,,,,,,,53,,,,,,,,,,,,,,390.0200000000041,,response,,,,99,,,,,,,Space,keypress(Space),,,,,,,,---- -- ----- to ------ - ------- --- ----------<br>------------- ------ ------ ---- ---- ------- ----- -- ----<br>-------- ------- -- ---------- --- - --- ----- ----- ----<br>---- --- --- ----- --- ---- ---- ------- ----- ---- -------<br>--- --- -- ----- -- --- ---- -- --- ---- -- ------ ------<br>--- ----- -- ----,116224,116223,115832.8,115833,115832.98,116224.44,,3,to
screen,html.Screen,2_1_0_1_4,2022-02-17T12:52:27.008Z,,,,,,,,,,,,,,,,,53,,,,,,,,,,,,,,358.5599999999977,,response,,,,99,,,,,,,Space,keypress(Space),,,,,,,,---- -- ----- -- having - ------- --- ----------<br>------------- ------ ------ ---- ---- ------- ----- -- ----<br>-------- ------- -- ---------- --- - --- ----- ----- ----<br>---- --- --- ----- --- ---- ---- ------- ----- ---- -------<br>--- --- -- ----- -- --- ---- -- --- ---- -- ------ ------<br>--- ----- -- ----,116584,116583,116224.28,116224,116224.44,116585.08,,4,having
screen,html.Screen,2_1_0_1_5,2022-02-17T12:52:27.384Z,,,,,,,,,,,,,,,,,53,,,,,,,,,,,,,,373.91999999999825,,response,,,,99,,,,,,,Space,keypress(Space),,,,,,,,---- -- ----- -- ------ a ------- --- ----------<br>------------- ------ ------ ---- ---- ------- ----- -- ----<br>-------- ------- -- ---------- --- - --- ----- ----- ----<br>---- --- --- ----- --- ---- ---- ------- ----- ---- -------<br>--- --- -- ----- -- --- ---- -- --- ---- -- ------ ------<br>--- ----- -- ----,116960,116959,116584.9,116584,116585.08,116960.74,,5,a
screen,html.Screen,2_1_0_1_6,2022-02-17T12:52:27.969Z,,,,,,,,,,,,,,,,,53,,,,,,,,,,,,,,583.2599999999948,,response,,,,99,,,,,,,Space,keypress(Space),,,,,,,,---- -- ----- -- ------ - lasting --- ----------<br>------------- ------ ------ ---- ---- ------- ----- -- ----<br>-------- ------- -- ---------- --- - --- ----- ----- ----<br>---- --- --- ----- --- ---- ---- ------- ----- ---- -------<br>--- --- -- ----- -- --- ---- -- --- ---- -- ------ ------<br>--- ----- -- ----,117545,117544,116960.54,116960,116960.74,117545.32,,6,lasting
screen,html.Screen,2_1_0_1_7,2022-02-17T12:52:28.448Z,,,,,,,,,,,,,,,,,53,,,,,,,,,,,,,,478.679999999993,,response,,,,99,,,,,,,Space,keypress(Space),,,,,,,,---- -- ----- -- ------ - ------- and ----------<br>------------- ------ ------ ---- ---- ------- ----- -- ----<br>-------- ------- -- ---------- --- - --- ----- ----- ----<br>---- --- --- ----- --- ---- ---- ------- ----- ---- -------<br>--- --- -- ----- -- --- ---- -- --- ---- -- ------ ------<br>--- ----- -- ----,118025,118024,117545.12,117545,117545.32,118024.86,,7,and
screen,html.Screen,2_1_0_1_8,2022-02-17T12:52:28.928Z,,,,,,,,,,,,,,,,,53,,,,,,,,,,,,,,479.1399999999994,,response,,,,99,,,,,,,Space,keypress(Space),,,,,,,,---- -- ----- -- ------ - ------- --- fulfilling<br>------------- ------ ------ ---- ---- ------- ----- -- ----<br>-------- ------- -- ---------- --- - --- ----- ----- ----<br>---- --- --- ----- --- ---- ---- ------- ----- ---- -------<br>--- --- -- ----- -- --- ---- -- --- ---- -- ------ ------<br>--- ----- -- ----,118505,118504,118024.66,118025,118024.86,118504.64,,8,fulfilling
screen,html.Screen,2_1_0_1_9,2022-02-17T12:52:29.441Z,,,,,,,,,,,,,,,,,53,,,,,,,,,,,,,,511.3600000000006,,response,,,,99,,,,,,,Space,keypress(Space),,,,,,,,"---- -- ----- -- ------ - ------- --- ----------<br>relationship, ------ ------ ---- ---- ------- ----- -- ----<br>-------- ------- -- ---------- --- - --- ----- ----- ----<br>---- --- --- ----- --- ---- ---- ------- ----- ---- -------<br>--- --- -- ----- -- --- ---- -- --- ---- -- ------ ------<br>--- ----- -- ----",119017,119016,118504.48,118505,118504.64,119016.82,,9,"relationship,"
screen,html.Screen,2_1_0_1_10,2022-02-17T12:52:29.945Z,,,,,,,,,,,,,,,,,53,,,,,,,,,,,,,,503.179999999993,,response,,,,99,,,,,,,Space,keypress(Space),,,,,,,,---- -- ----- -- ------ - ------- --- ----------<br>------------- common ------ ---- ---- ------- ----- -- ----<br>-------- ------- -- ---------- --- - --- ----- ----- ----<br>---- --- --- ----- --- ---- ---- ------- ----- ---- -------<br>--- --- -- ----- -- --- ---- -- --- ---- -- ------ ------<br>--- ----- -- ----,119521,119520,119016.66,119017,119016.82,119521.48,,10,common
screen,html.Screen,2_1_0_1_11,2022-02-17T12:52:30.449Z,,,,,,,,,,,,,,,,,53,,,,,,,,,,,,,,502.5200000000041,,response,,,,99,,,,,,,Space,keypress(Space),,,,,,,,---- -- ----- -- ------ - ------- --- ----------<br>------------- ------ wisdom ---- ---- ------- ----- -- ----<br>-------- ------- -- ---------- --- - --- ----- ----- ----<br>---- --- --- ----- --- ---- ---- ------- ----- ---- -------<br>--- --- -- ----- -- --- ---- -- --- ---- -- ------ ------<br>--- ----- -- ----,120025,120024,119521.28,119521,119521.48,120025.32,,11,wisdom
screen,html.Screen,2_1_0_1_12,2022-02-17T12:52:31.017Z,,,,,,,,,,,,,,,,,53,,,,,,,,,,,,,,566.679999999993,,response,,,,99,,,,,,,Space,keypress(Space),,,,,,,,---- -- ----- -- ------ - ------- --- ----------<br>------------- ------ ------ says ---- ------- ----- -- ----<br>-------- ------- -- ---------- --- - --- ----- ----- ----<br>---- --- --- ----- --- ---- ---- ------- ----- ---- -------<br>--- --- -- ----- -- --- ---- -- --- ---- -- ------ ------<br>--- ----- -- ----,120593,120592,120025.16,120025,120025.32,120593.18,,12,says
screen,html.Screen,2_1_0_1_13,2022-02-17T12:52:31.465Z,,,,,,,,,,,,,,,,,53,,,,,,,,,,,,,,446.820000000007,,response,,,,99,,,,,,,Space,keypress(Space),,,,,,,,---- -- ----- -- ------ - ------- --- ----------<br>------------- ------ ------ ---- that ------- ----- -- ----<br>-------- ------- -- ---------- --- - --- ----- ----- ----<br>---- --- --- ----- --- ---- ---- ------- ----- ---- -------<br>--- --- -- ----- -- --- ---- -- --- ---- -- ------ ------<br>--- ----- -- ----,121042,121040,120593.04,120593,120593.18,121041.68,,13,that
screen,html.Screen,2_1_0_1_14,2022-02-17T12:52:32.041Z,,,,,,,,,,,,,,,,,53,,,,,,,,,,,,,,574.320000000007,,response,,,,99,,,,,,,Space,keypress(Space),,,,,,,,---- -- ----- -- ------ - ------- --- ----------<br>------------- ------ ------ ---- ---- feeling ----- -- ----<br>-------- ------- -- ---------- --- - --- ----- ----- ----<br>---- --- --- ----- --- ---- ---- ------- ----- ---- -------<br>--- --- -- ----- -- --- ---- -- --- ---- -- ------ ------<br>--- ----- -- ----,121617,121616,121041.56,121042,121041.68,121617.16,,14,feeling
screen,html.Screen,2_1_0_1_15,2022-02-17T12:52:32.490Z,,,,,,,,,,,,,,,,,53,,,,,,,,,,,,,,447.8399999999965,,response,,,,99,,,,,,,Space,keypress(Space),,,,,,,,---- -- ----- -- ------ - ------- --- ----------<br>------------- ------ ------ ---- ---- ------- close -- ----<br>-------- ------- -- ---------- --- - --- ----- ----- ----<br>---- --- --- ----- --- ---- ---- ------- ----- ---- -------<br>--- --- -- ----- -- --- ---- -- --- ---- -- ------ ------<br>--- ----- -- ----,122066,122065,121617.06,121617,121617.16,122066.24,,15,close
screen,html.Screen,2_1_0_1_16,2022-02-17T12:52:32.849Z,,,,,,,,,,,,,,,,,53,,,,,,,,,,,,,,357.75999999999476,,response,,,,99,,,,,,,Space,keypress(Space),,,,,,,,---- -- ----- -- ------ - ------- --- ----------<br>------------- ------ ------ ---- ---- ------- ----- to ----<br>-------- ------- -- ---------- --- - --- ----- ----- ----<br>---- --- --- ----- --- ---- ---- ------- ----- ---- -------<br>--- --- -- ----- -- --- ---- -- --- ---- -- ------ ------<br>--- ----- -- ----,122425,122424,122066.06,122066,122066.24,122425.16,,16,to
screen,html.Screen,2_1_0_1_17,2022-02-17T12:52:33.450Z,,,,,,,,,,,,,,,,,53,,,,,,,,,,,,,,599.8399999999965,,response,,,,99,,,,,,,Space,keypress(Space),,,,,,,,---- -- ----- -- ------ - ------- --- ----------<br>------------- ------ ------ ---- ---- ------- ----- -- your<br>-------- ------- -- ---------- --- - --- ----- ----- ----<br>---- --- --- ----- --- ---- ---- ------- ----- ---- -------<br>--- --- -- ----- -- --- ---- -- --- ---- -- ------ ------<br>--- ----- -- ----,123026,123025,122424.98,122425,122425.16,123026.28,,17,your
screen,html.Screen,2_1_0_1_18,2022-02-17T12:52:33.985Z,,,,,,,,,,,,,,,,,53,,,,,,,,,,,,,,534.7200000000012,,response,,,,99,,,,,,,Space,keypress(Space),,,,,,,,---- -- ----- -- ------ - ------- --- ----------<br>------------- ------ ------ ---- ---- ------- ----- -- ----<br>romantic ------- -- ---------- --- - --- ----- ----- ----<br>---- --- --- ----- --- ---- ---- ------- ----- ---- -------<br>--- --- -- ----- -- --- ---- -- --- ---- -- ------ ------<br>--- ----- -- ----,123561,123561,123026.12,123026,123026.28,123562.16,,18,romantic
screen,html.Screen,2_1_0_1_19,2022-02-17T12:52:34.434Z,,,,,,,,,,,,,,,,,53,,,,,,,,,,,,,,446.8399999999965,,response,,,,99,,,,,,,Space,keypress(Space),,,,,,,,---- -- ----- -- ------ - ------- --- ----------<br>------------- ------ ------ ---- ---- ------- ----- -- ----<br>-------- partner -- ---------- --- - --- ----- ----- ----<br>---- --- --- ----- --- ---- ---- ------- ----- ---- -------<br>--- --- -- ----- -- --- ---- -- --- ---- -- ------ ------<br>--- ----- -- ----,124010,124009,123561.96,123562,123562.16,124010.68,,19,partner
screen,html.Screen,2_1_0_1_20,2022-02-17T12:52:34.753Z,,,,,,,,,,,,,,,,,53,,,,,,,,,,,,,,317.320000000007,,response,,,,99,,,,,,,Space,keypress(Space),,,,,,,,---- -- ----- -- ------ - ------- --- ----------<br>------------- ------ ------ ---- ---- ------- ----- -- ----<br>-------- ------- is ---------- --- - --- ----- ----- ----<br>---- --- --- ----- --- ---- ---- ------- ----- ---- -------<br>--- --- -- ----- -- --- ---- -- --- ---- -- ------ ------<br>--- ----- -- ----,124329,124328,124010.5,124010,124010.68,124329.32,,20,is
screen,html.Screen,2_1_0_1_21,2022-02-17T12:52:35.018Z,,,,,,,,,,,,,,,,,53,,,,,,,,,,,,,,263.679999999993,,response,,,,99,,,,,,,Space,keypress(Space),,,,,,,,---- -- ----- -- ------ - ------- --- ----------<br>------------- ------ ------ ---- ---- ------- ----- -- ----<br>-------- ------- -- paramount. --- - --- ----- ----- ----<br>---- --- --- ----- --- ---- ---- ------- ----- ---- -------<br>--- --- -- ----- -- --- ---- -- --- ---- -- ------ ------<br>--- ----- -- ----,124593,124593,124329.14,124329,124329.32,124594.16,,21,paramount.
screen,html.Screen,2_1_0_1_22,2022-02-17T12:52:35.531Z,,,,,,,,,,,,,,,,,53,,,,,,,,,,,,,,510.8399999999965,,response,,,,99,,,,,,,Space,keypress(Space),,,,,,,,---- -- ----- -- ------ - ------- --- ----------<br>------------- ------ ------ ---- ---- ------- ----- -- ----<br>-------- ------- -- ---------- But - --- ----- ----- ----<br>---- --- --- ----- --- ---- ---- ------- ----- ---- -------<br>--- --- -- ----- -- --- ---- -- --- ---- -- ------ ------<br>--- ----- -- ----,125107,125105,124593.98,124594,124594.16,125106.8,,22,But
screen,html.Screen,2_1_0_1_23,2022-02-17T12:52:35.786Z,,,,,,,,,,,,,,,,,53,,,,,,,,,,,,,,254.1999999999971,,response,,,,99,,,,,,,Space,keypress(Space),,,,,,,,---- -- ----- -- ------ - ------- --- ----------<br>------------- ------ ------ ---- ---- ------- ----- -- ----<br>-------- ------- -- ---------- --- a --- ----- ----- ----<br>---- --- --- ----- --- ---- ---- ------- ----- ---- -------<br>--- --- -- ----- -- --- ---- -- --- ---- -- ------ ------<br>--- ----- -- ----,125362,125361,125106.66,125107,125106.8,125362.06,,23,a
screen,html.Screen,2_1_0_1_24,2022-02-17T12:52:36.058Z,,,,,,,,,,,,,,,,,53,,,,,,,,,,,,,,270.9400000000023,,response,,,,99,,,,,,,Space,keypress(Space),,,,,,,,---- -- ----- -- ------ - ------- --- ----------<br>------------- ------ ------ ---- ---- ------- ----- -- ----<br>-------- ------- -- ---------- --- - new ----- ----- ----<br>---- --- --- ----- --- ---- ---- ------- ----- ---- -------<br>--- --- -- ----- -- --- ---- -- --- ---- -- ------ ------<br>--- ----- -- ----,125634,125633,125361.8,125362,125362.06,125634.28,,24,new
screen,html.Screen,2_1_0_1_25,2022-02-17T12:52:36.369Z,,,,,,,,,,,,,,,,,53,,,,,,,,,,,,,,310.72000000000116,,response,,,,99,,,,,,,Space,keypress(Space),,,,,,,,---- -- ----- -- ------ - ------- --- ----------<br>------------- ------ ------ ---- ---- ------- ----- -- ----<br>-------- ------- -- ---------- --- - --- study ----- ----<br>---- --- --- ----- --- ---- ---- ------- ----- ---- -------<br>--- --- -- ----- -- --- ---- -- --- ---- -- ------ ------<br>--- ----- -- ----,125946,125945,125634.04,125634,125634.28,125946.32,,25,study
screen,html.Screen,2_1_0_1_26,2022-02-17T12:52:36.739Z,,,,,,,,,,,,,,,,,53,,,,,,,,,,,,,,367.679999999993,,response,,,,99,,,,,,,Space,keypress(Space),,,,,,,,---- -- ----- -- ------ - ------- --- ----------<br>------------- ------ ------ ---- ---- ------- ----- -- ----<br>-------- ------- -- ---------- --- - --- ----- finds ----<br>---- --- --- ----- --- ---- ---- ------- ----- ---- -------<br>--- --- -- ----- -- --- ---- -- --- ---- -- ------ ------<br>--- ----- -- ----,126315,126314,125946.12,125946,125946.32,126314.76,,26,finds
screen,html.Screen,2_1_0_1_27,2022-02-17T12:52:37.130Z,,,,,,,,,,,,,,,,,53,,,,,,,,,,,,,,391.24000000000524,,response,,,,99,,,,,,,Space,keypress(Space),,,,,,,,---- -- ----- -- ------ - ------- --- ----------<br>------------- ------ ------ ---- ---- ------- ----- -- ----<br>-------- ------- -- ---------- --- - --- ----- ----- that<br>---- --- --- ----- --- ---- ---- ------- ----- ---- -------<br>--- --- -- ----- -- --- ---- -- --- ---- -- ------ ------<br>--- ----- -- ----,126706,126706,126314.58,126315,126314.76,126706.04,,27,that
screen,html.Screen,2_1_0_1_28,2022-02-17T12:52:37.801Z,,,,,,,,,,,,,,,,,53,,,,,,,,,,,,,,670.9600000000064,,response,,,,99,,,,,,,Space,keypress(Space),,,,,,,,---- -- ----- -- ------ - ------- --- ----------<br>------------- ------ ------ ---- ---- ------- ----- -- ----<br>-------- ------- -- ---------- --- - --- ----- ----- ----<br>it's --- --- ----- --- ---- ---- ------- ----- ---- -------<br>--- --- -- ----- -- --- ---- -- --- ---- -- ------ ------<br>--- ----- -- ----,127377,127377,126705.92,126706,126706.04,127377.72,,28,it's
screen,html.Screen,2_1_0_1_29,2022-02-17T12:52:38.178Z,,,,,,,,,,,,,,,,,53,,,,,,,,,,,,,,375.27999999999884,,response,,,,99,,,,,,,Space,keypress(Space),,,,,,,,---- -- ----- -- ------ - ------- --- ----------<br>------------- ------ ------ ---- ---- ------- ----- -- ----<br>-------- ------- -- ---------- --- - --- ----- ----- ----<br>---- not --- ----- --- ---- ---- ------- ----- ---- -------<br>--- --- -- ----- -- --- ---- -- --- ---- -- ------ ------<br>--- ----- -- ----,127754,127753,127377.6,127378,127377.72,127754.42,,29,not
screen,html.Screen,2_1_0_1_30,2022-02-17T12:52:38.474Z,,,,,,,,,,,,,,,,,53,,,,,,,,,,,,,,294.58000000000175,,response,,,,99,,,,,,,Space,keypress(Space),,,,,,,,---- -- ----- -- ------ - ------- --- ----------<br>------------- ------ ------ ---- ---- ------- ----- -- ----<br>-------- ------- -- ---------- --- - --- ----- ----- ----<br>---- --- how ----- --- ---- ---- ------- ----- ---- -------<br>--- --- -- ----- -- --- ---- -- --- ---- -- ------ ------<br>--- ----- -- ----,128050,128049,127754.28,127754,127754.42,128050.3,,30,how
screen,html.Screen,2_1_0_1_31,2022-02-17T12:52:38.738Z,,,,,,,,,,,,,,,,,53,,,,,,,,,,,,,,263.6999999999971,,response,,,,99,,,,,,,Space,keypress(Space),,,,,,,,---- -- ----- -- ------ - ------- --- ----------<br>------------- ------ ------ ---- ---- ------- ----- -- ----<br>-------- ------- -- ---------- --- - --- ----- ----- ----<br>---- --- --- close --- ---- ---- ------- ----- ---- -------<br>--- --- -- ----- -- --- ---- -- --- ---- -- ------ ------<br>--- ----- -- ----,128315,128314,128050.12,128050,128050.3,128315.06,,31,close
screen,html.Screen,2_1_0_1_32,2022-02-17T12:52:39.066Z,,,,,,,,,,,,,,,,,53,,,,,,,,,,,,,,325.9400000000023,,response,,,,99,,,,,,,Space,keypress(Space),,,,,,,,---- -- ----- -- ------ - ------- --- ----------<br>------------- ------ ------ ---- ---- ------- ----- -- ----<br>-------- ------- -- ---------- --- - --- ----- ----- ----<br>---- --- --- ----- you ---- ---- ------- ----- ---- -------<br>--- --- -- ----- -- --- ---- -- --- ---- -- ------ ------<br>--- ----- -- ----,128642,128641,128314.86,128315,128315.06,128642.36,,32,you
screen,html.Screen,2_1_0_1_33,2022-02-17T12:52:39.442Z,,,,,,,,,,,,,,,,,53,,,,,,,,,,,,,,374.6399999999994,,response,,,,99,,,,,,,Space,keypress(Space),,,,,,,,---- -- ----- -- ------ - ------- --- ----------<br>------------- ------ ------ ---- ---- ------- ----- -- ----<br>-------- ------- -- ---------- --- - --- ----- ----- ----<br>---- --- --- ----- --- feel ---- ------- ----- ---- -------<br>--- --- -- ----- -- --- ---- -- --- ---- -- ------ ------<br>--- ----- -- ----,129018,129017,128642.16,128642,128642.36,129018.08,,33,feel
screen,html.Screen,2_1_0_1_34,2022-02-17T12:52:39.882Z,,,,,,,,,,,,,,,,,53,,,,,,,,,,,,,,438.91999999999825,,response,,,,99,,,,,,,Space,keypress(Space),,,,,,,,---- -- ----- -- ------ - ------- --- ----------<br>------------- ------ ------ ---- ---- ------- ----- -- ----<br>-------- ------- -- ---------- --- - --- ----- ----- ----<br>---- --- --- ----- --- ---- that ------- ----- ---- -------<br>--- --- -- ----- -- --- ---- -- --- ---- -- ------ ------<br>--- ----- -- ----,129457,129457,129017.9,129018,129018.08,129458.12,,34,that
screen,html.Screen,2_1_0_1_35,2022-02-17T12:52:40.226Z,,,,,,,,,,,,,,,,,53,,,,,,,,,,,,,,343.88000000000466,,response,,,,99,,,,,,,Space,keypress(Space),,,,,,,,---- -- ----- -- ------ - ------- --- ----------<br>------------- ------ ------ ---- ---- ------- ----- -- ----<br>-------- ------- -- ---------- --- - --- ----- ----- ----<br>---- --- --- ----- --- ---- ---- matters ----- ---- -------<br>--- --- -- ----- -- --- ---- -- --- ---- -- ------ ------<br>--- ----- -- ----,129803,129802,129458.02,129458,129458.12,129802.78,,35,matters
screen,html.Screen,2_1_0_1_36,2022-02-17T12:52:40.651Z,,,,,,,,,,,,,,,,,53,,,,,,,,,,,,,,423.22000000000116,,response,,,,99,,,,,,,Space,keypress(Space),,,,,,,,"---- -- ----- -- ------ - ------- --- ----------<br>------------- ------ ------ ---- ---- ------- ----- -- ----<br>-------- ------- -- ---------- --- - --- ----- ----- ----<br>---- --- --- ----- --- ---- ---- ------- most, ---- -------<br>--- --- -- ----- -- --- ---- -- --- ---- -- ------ ------<br>--- ----- -- ----",130227,130226,129802.6,129803,129802.78,130226.94,,36,"most,"
screen,html.Screen,2_1_0_1_37,2022-02-17T12:52:41.146Z,,,,,,,,,,,,,,,,,53,,,,,,,,,,,,,,494.0599999999977,,response,,,,99,,,,,,,Space,keypress(Space),,,,,,,,---- -- ----- -- ------ - ------- --- ----------<br>------------- ------ ------ ---- ---- ------- ----- -- ----<br>-------- ------- -- ---------- --- - --- ----- ----- ----<br>---- --- --- ----- --- ---- ---- ------- ----- it's -------<br>--- --- -- ----- -- --- ---- -- --- ---- -- ------ ------<br>--- ----- -- ----,130722,130721,130226.74,130227,130226.94,130722.8,,37,it's
screen,html.Screen,2_1_0_1_38,2022-02-17T12:52:41.683Z,,,,,,,,,,,,,,,,,53,,,,,,,,,,,,,,535.1999999999971,,response,,,,99,,,,,,,Space,keypress(Space),,,,,,,,---- -- ----- -- ------ - ------- --- ----------<br>------------- ------ ------ ---- ---- ------- ----- -- ----<br>-------- ------- -- ---------- --- - --- ----- ----- ----<br>---- --- --- ----- --- ---- ---- ------- ----- ---- whether<br>--- --- -- ----- -- --- ---- -- --- ---- -- ------ ------<br>--- ----- -- ----,131259,131258,130722.64,130722,130722.8,131259.46,,38,whether
screen,html.Screen,2_1_0_1_39,2022-02-17T12:52:42.122Z,,,,,,,,,,,,,,,,,53,,,,,,,,,,,,,,438.54000000000815,,response,,,,99,,,,,,,Space,keypress(Space),,,,,,,,---- -- ----- -- ------ - ------- --- ----------<br>------------- ------ ------ ---- ---- ------- ----- -- ----<br>-------- ------- -- ---------- --- - --- ----- ----- ----<br>---- --- --- ----- --- ---- ---- ------- ----- ---- -------<br>you --- -- ----- -- --- ---- -- --- ---- -- ------ ------<br>--- ----- -- ----,131699,131698,131259.22,131259,131259.46,131699.32,,39,you
screen,html.Screen,2_1_0_1_40,2022-02-17T12:52:42.483Z,,,,,,,,,,,,,,,,,53,,,,,,,,,,,,,,358.679999999993,,response,,,,99,,,,,,,Space,keypress(Space),,,,,,,,---- -- ----- -- ------ - ------- --- ----------<br>------------- ------ ------ ---- ---- ------- ----- -- ----<br>-------- ------- -- ---------- --- - --- ----- ----- ----<br>---- --- --- ----- --- ---- ---- ------- ----- ---- -------<br>--- are -- ----- -- --- ---- -- --- ---- -- ------ ------<br>--- ----- -- ----,132059,132058,131699.16,131699,131699.32,132059.42,,40,are
screen,html.Screen,2_1_0_1_41,2022-02-17T12:52:42.907Z,,,,,,,,,,,,,,,,,53,,,,,,,,,,,,,,422.5799999999872,,response,,,,99,,,,,,,Space,keypress(Space),,,,,,,,---- -- ----- -- ------ - ------- --- ----------<br>------------- ------ ------ ---- ---- ------- ----- -- ----<br>-------- ------- -- ---------- --- - --- ----- ----- ----<br>---- --- --- ----- --- ---- ---- ------- ----- ---- -------<br>--- --- as ----- -- --- ---- -- --- ---- -- ------ ------<br>--- ----- -- ----,132482,132482,132059.26,132059,132059.42,132483.2,,41,as
screen,html.Screen,2_1_0_1_42,2022-02-17T12:52:43.410Z,,,,,,,,,,,,,,,,,53,,,,,,,,,,,,,,502.79999999998836,,response,,,,99,,,,,,,Space,keypress(Space),,,,,,,,---- -- ----- -- ------ - ------- --- ----------<br>------------- ------ ------ ---- ---- ------- ----- -- ----<br>-------- ------- -- ---------- --- - --- ----- ----- ----<br>---- --- --- ----- --- ---- ---- ------- ----- ---- -------<br>--- --- -- close -- --- ---- -- --- ---- -- ------ ------<br>--- ----- -- ----,132986,132986,132482.98,132483,132483.2,132986.28,,42,close
screen,html.Screen,2_1_0_1_43,2022-02-17T12:52:43.817Z,,,,,,,,,,,,,,,,,53,,,,,,,,,,,,,,399.72000000000116,,response,,,,99,,,,,,,Space,keypress(Space),,,,,,,,---- -- ----- -- ------ - ------- --- ----------<br>------------- ------ ------ ---- ---- ------- ----- -- ----<br>-------- ------- -- ---------- --- - --- ----- ----- ----<br>---- --- --- ----- --- ---- ---- ------- ----- ---- -------<br>--- --- -- ----- as --- ---- -- --- ---- -- ------ ------<br>--- ----- -- ----,133393,133386,132986.12,132986,132986.28,133393.32,,43,as
screen,html.Screen,2_1_0_1_44,2022-02-17T12:52:44.179Z,,,,,,,,,,,,,,,,,53,,,,,,,,,,,,,,359.679999999993,,response,,,,99,,,,,,,Space,keypress(Space),,,,,,,,---- -- ----- -- ------ - ------- --- ----------<br>------------- ------ ------ ---- ---- ------- ----- -- ----<br>-------- ------- -- ---------- --- - --- ----- ----- ----<br>---- --- --- ----- --- ---- ---- ------- ----- ---- -------<br>--- --- -- ----- -- you ---- -- --- ---- -- ------ ------<br>--- ----- -- ----,133754,133753,133393.16,133393,133393.32,133755.04,,44,you
screen,html.Screen,2_1_0_1_45,2022-02-17T12:52:44.603Z,,,,,,,,,,,,,,,,,53,,,,,,,,,,,,,,422.95999999999185,,response,,,,99,,,,,,,Space,keypress(Space),,,,,,,,---- -- ----- -- ------ - ------- --- ----------<br>------------- ------ ------ ---- ---- ------- ----- -- ----<br>-------- ------- -- ---------- --- - --- ----- ----- ----<br>---- --- --- ----- --- ---- ---- ------- ----- ---- -------<br>--- --- -- ----- -- --- want -- --- ---- -- ------ ------<br>--- ----- -- ----,134178,134178,133754.88,133754,133755.04,134178.96,,45,want
screen,html.Screen,2_1_0_1_46,2022-02-17T12:52:44.907Z,,,,,,,,,,,,,,,,,53,,,,,,,,,,,,,,303.04000000000815,,response,,,,99,,,,,,,Space,keypress(Space),,,,,,,,---- -- ----- -- ------ - ------- --- ----------<br>------------- ------ ------ ---- ---- ------- ----- -- ----<br>-------- ------- -- ---------- --- - --- ----- ----- ----<br>---- --- --- ----- --- ---- ---- ------- ----- ---- -------<br>--- --- -- ----- -- --- ---- to --- ---- -- ------ ------<br>--- ----- -- ----,134482,134482,134178.78,134179,134178.96,134482.74,,46,to
screen,html.Screen,2_1_0_1_47,2022-02-17T12:52:45.164Z,,,,,,,,,,,,,,,,,53,,,,,,,,,,,,,,256.2600000000093,,response,,,,99,,,,,,,Space,keypress(Space),,,,,,,,"---- -- ----- -- ------ - ------- --- ----------<br>------------- ------ ------ ---- ---- ------- ----- -- ----<br>-------- ------- -- ---------- --- - --- ----- ----- ----<br>---- --- --- ----- --- ---- ---- ------- ----- ---- -------<br>--- --- -- ----- -- --- ---- -- be, ---- -- ------ ------<br>--- ----- -- ----",134740,134739,134482.58,134483,134482.74,134740.04,,47,"be,"
screen,html.Screen,2_1_0_1_48,2022-02-17T12:52:46.179Z,,,,,,,,,,,,,,,,,53,,,,,,,,,,,,,,1013.9599999999919,,response,,,,99,,,,,,,Space,keypress(Space),,,,,,,,---- -- ----- -- ------ - ------- --- ----------<br>------------- ------ ------ ---- ---- ------- ----- -- ----<br>-------- ------- -- ---------- --- - --- ----- ----- ----<br>---- --- --- ----- --- ---- ---- ------- ----- ---- -------<br>--- --- -- ----- -- --- ---- -- --- even -- ------ ------<br>--- ----- -- ----,135756,135754,134739.9,134740,134740.04,135755.74,,48,even
screen,html.Screen,2_1_0_1_49,2022-02-17T12:52:46.507Z,,,,,,,,,,,,,,,,,53,,,,,,,,,,,,,,326.2600000000093,,response,,,,99,,,,,,,Space,keypress(Space),,,,,,,,---- -- ----- -- ------ - ------- --- ----------<br>------------- ------ ------ ---- ---- ------- ----- -- ----<br>-------- ------- -- ---------- --- - --- ----- ----- ----<br>---- --- --- ----- --- ---- ---- ------- ----- ---- -------<br>--- --- -- ----- -- --- ---- -- --- ---- if ------ ------<br>--- ----- -- ----,136083,136082,135755.58,135756,135755.74,136083.32,,49,if
screen,html.Screen,2_1_0_1_50,2022-02-17T12:52:46.899Z,,,,,,,,,,,,,,,,,53,,,,,,,,,,,,,,391.679999999993,,response,,,,99,,,,,,,Space,keypress(Space),,,,,,,,---- -- ----- -- ------ - ------- --- ----------<br>------------- ------ ------ ---- ---- ------- ----- -- ----<br>-------- ------- -- ---------- --- - --- ----- ----- ----<br>---- --- --- ----- --- ---- ---- ------- ----- ---- -------<br>--- --- -- ----- -- --- ---- -- --- ---- -- that's ------<br>--- ----- -- ----,136475,136475,136083.16,136083,136083.32,136475.62,,50,that's
screen,html.Screen,2_1_0_1_51,2022-02-17T12:52:47.402Z,,,,,,,,,,,,,,,,,53,,,,,,,,,,,,,,502.38000000000466,,response,,,,99,,,,,,,Space,keypress(Space),,,,,,,,---- -- ----- -- ------ - ------- --- ----------<br>------------- ------ ------ ---- ---- ------- ----- -- ----<br>-------- ------- -- ---------- --- - --- ----- ----- ----<br>---- --- --- ----- --- ---- ---- ------- ----- ---- -------<br>--- --- -- ----- -- --- ---- -- --- ---- -- ------ really<br>--- ----- -- ----,136979,136978,136475.46,136475,136475.62,136978.84,,51,really
screen,html.Screen,2_1_0_1_52,2022-02-17T12:52:47.859Z,,,,,,,,,,,,,,,,,53,,,,,,,,,,,,,,456.1600000000035,,response,,,,99,,,,,,,Space,keypress(Space),,,,,,,,---- -- ----- -- ------ - ------- --- ----------<br>------------- ------ ------ ---- ---- ------- ----- -- ----<br>-------- ------- -- ---------- --- - --- ----- ----- ----<br>---- --- --- ----- --- ---- ---- ------- ----- ---- -------<br>--- --- -- ----- -- --- ---- -- --- ---- -- ------ ------<br>not ----- -- ----,137436,137435,136978.74,136979,136978.84,137435.8,,52,not
screen,html.Screen,2_1_0_1_53,2022-02-17T12:52:48.251Z,,,,,,,,,,,,,,,,,53,,,,,,,,,,,,,,390.20000000001164,,response,,,,99,,,,,,,Space,keypress(Space),,,,,,,,---- -- ----- -- ------ - ------- --- ----------<br>------------- ------ ------ ---- ---- ------- ----- -- ----<br>-------- ------- -- ---------- --- - --- ----- ----- ----<br>---- --- --- ----- --- ---- ---- ------- ----- ---- -------<br>--- --- -- ----- -- --- ---- -- --- ---- -- ------ ------<br>--- close -- ----,137826,137826,137435.64,137436,137435.8,137827.06,,53,close
screen,html.Screen,2_1_0_1_54,2022-02-17T12:52:48.611Z,,,,,,,,,,,,,,,,,53,,,,,,,,,,,,,,358.9400000000023,,response,,,,99,,,,,,,Space,keypress(Space),,,,,,,,---- -- ----- -- ------ - ------- --- ----------<br>------------- ------ ------ ---- ---- ------- ----- -- ----<br>-------- ------- -- ---------- --- - --- ----- ----- ----<br>---- --- --- ----- --- ---- ---- ------- ----- ---- -------<br>--- --- -- ----- -- --- ---- -- --- ---- -- ------ ------<br>--- ----- at ----,138187,138186,137826.92,137827,137827.06,138187.42,,54,at
screen,html.Screen,2_1_0_1_55,2022-02-17T12:52:49.547Z,,,,,,,,,,,,,,,,,53,,,,,,,,,,,,,,934.5799999999872,,response,,,,99,,,,,,,Space,keypress(Space),,,,,,,,---- -- ----- -- ------ - ------- --- ----------<br>------------- ------ ------ ---- ---- ------- ----- -- ----<br>-------- ------- -- ---------- --- - --- ----- ----- ----<br>---- --- --- ----- --- ---- ---- ------- ----- ---- -------<br>--- --- -- ----- -- --- ---- -- --- ---- -- ------ ------<br>--- ----- -- all.,139123,139122,138187.24,138187,138187.42,139123.94,,55,all.
Item 99,flow.Loop,2_1_0_1,2022-02-17T12:52:49.548Z,,,,,,,,,,,,,,,,,,,,,,,,,,,,,,,25058.160000000003,,completion,,,,,D,,,,,,,,,,,silence,,,,,139123,139122,114047.74,114048,114063.84,139123.94,,,
Question 1,html.Screen,2_1_0_2,2022-02-17T12:52:52.489Z,,,,,,,,,,,,,,,,,,,,,,,,,,,,true,FALSE,,2939.0599999999977,,response,,,,99,D,,,,,,FALSE,click #choice-2,,,,silence,,,,,142065,142063,139123.78,139123,139123.94,142080.56,,,
Question 2,html.Screen,2_1_0_3,2022-02-17T12:52:56.476Z,,,,,,,,,,,,,,,,,,,,,,,,,,,,true,TRUE,,3969.4400000000023,,response,,,,99,D,,,,,,TRUE,click #choice-1,,,,silence,,,,,146052,146050,142064.28,142065,142080.56,146066.92,,,
Item 99,flow.Sequence,2_1_0,2022-02-17T12:52:56.476Z,,,,,,,,,,,,,,,,,,,,,,,,,,,,,,,41991.08,,completion,,,,,,,,,,,,,,,,,,,,,146053,146050,104042.88,104046,104058.92,146066.92,,,
Holding screen,html.Screen,2_1_1_0,2022-02-17T12:53:06.481Z,,,,,,,,,,,,,,,,,,,,,,,,,,,,,,,10005.459999999992,,timeout,,,,,,,,,,,,,,,,,,,,,156057,156056.32,146051.04,146053,146066.92,156072.38,,,
screen,html.Screen,2_1_1_1_0,2022-02-17T12:53:07.308Z,,,,,,,,,,,,,,,,,54,,,,,,,,,,,,,,811.6199999999953,,response,,,,100,,,,,,,Space,keypress(Space),,,,,,,,At --- ---- --- ------ ----- ------- ---- -- --- ------- --<br>------- ---------- ------ -- ----- -- ----- -- ---- ------<br>--- ----- --- --- ------ -------- ----- --- ------ ----- --<br>----- ----- ---------- --- --- ------ ------ ---- -- ------<br>------- --- ------ ----- --- ---- ------- -- ---- --- --<br>------- ------,156885,156884,156056.32,156057,156072.38,156885.4,,0,At
screen,html.Screen,2_1_1_1_1,2022-02-17T12:53:07.629Z,,,,,,,,,,,,,,,,,54,,,,,,,,,,,,,,318.6000000000058,,response,,,,100,,,,,,,Space,keypress(Space),,,,,,,,-- the ---- --- ------ ----- ------- ---- -- --- ------- --<br>------- ---------- ------ -- ----- -- ----- -- ---- ------<br>--- ----- --- --- ------ -------- ----- --- ------ ----- --<br>----- ----- ---------- --- --- ------ ------ ---- -- ------<br>------- --- ------ ----- --- ---- ------- -- ---- --- --<br>------- ------,157205,157204,156885.22,156885,156885.4,157205.44,,1,the
screen,html.Screen,2_1_1_1_2,2022-02-17T12:53:07.885Z,,,,,,,,,,,,,,,,,54,,,,,,,,,,,,,,254.55999999999767,,response,,,,100,,,,,,,Space,keypress(Space),,,,,,,,-- --- time --- ------ ----- ------- ---- -- --- ------- --<br>------- ---------- ------ -- ----- -- ----- -- ---- ------<br>--- ----- --- --- ------ -------- ----- --- ------ ----- --<br>----- ----- ---------- --- --- ------ ------ ---- -- ------<br>------- --- ------ ----- --- ---- ------- -- ---- --- --<br>------- ------,157461,157460,157205.26,157205,157205.44,157461.24,,2,time
screen,html.Screen,2_1_1_1_3,2022-02-17T12:53:08.110Z,,,,,,,,,,,,,,,,,54,,,,,,,,,,,,,,222.7600000000093,,response,,,,100,,,,,,,Space,keypress(Space),,,,,,,,-- --- ---- the ------ ----- ------- ---- -- --- ------- --<br>------- ---------- ------ -- ----- -- ----- -- ---- ------<br>--- ----- --- --- ------ -------- ----- --- ------ ----- --<br>----- ----- ---------- --- --- ------ ------ ---- -- ------<br>------- --- ------ ----- --- ---- ------- -- ---- --- --<br>------- ------,157685,157684,157461.04,157461,157461.24,157685.98,,3,the
screen,html.Screen,2_1_1_1_4,2022-02-17T12:53:08.422Z,,,,,,,,,,,,,,,,,54,,,,,,,,,,,,,,311.0199999999895,,response,,,,100,,,,,,,Space,keypress(Space),,,,,,,,-- --- ---- --- French ----- ------- ---- -- --- ------- --<br>------- ---------- ------ -- ----- -- ----- -- ---- ------<br>--- ----- --- --- ------ -------- ----- --- ------ ----- --<br>----- ----- ---------- --- --- ------ ------ ---- -- ------<br>------- --- ------ ----- --- ---- ------- -- ---- --- --<br>------- ------,157998,157997,157685.82,157686,157685.98,157998.36,,4,French
screen,html.Screen,2_1_1_1_5,2022-02-17T12:53:08.669Z,,,,,,,,,,,,,,,,,54,,,,,,,,,,,,,,246.64000000001397,,response,,,,100,,,,,,,Space,keypress(Space),,,,,,,,-- --- ---- --- ------ crown ------- ---- -- --- ------- --<br>------- ---------- ------ -- ----- -- ----- -- ---- ------<br>--- ----- --- --- ------ -------- ----- --- ------ ----- --<br>----- ----- ---------- --- --- ------ ------ ---- -- ------<br>------- --- ------ ----- --- ---- ------- -- ---- --- --<br>------- ------,158246,158245,157998.18,157998,157998.36,158245.78,,5,crown
screen,html.Screen,2_1_1_1_6,2022-02-17T12:53:09.174Z,,,,,,,,,,,,,,,,,54,,,,,,,,,,,,,,503.22000000000116,,response,,,,100,,,,,,,Space,keypress(Space),,,,,,,,-- --- ---- --- ------ ----- secured ---- -- --- ------- --<br>------- ---------- ------ -- ----- -- ----- -- ---- ------<br>--- ----- --- --- ------ -------- ----- --- ------ ----- --<br>----- ----- ---------- --- --- ------ ------ ---- -- ------<br>------- --- ------ ----- --- ---- ------- -- ---- --- --<br>------- ------,158750,158749,158245.66,158246,158245.78,158750.24,,6,secured
screen,html.Screen,2_1_1_1_7,2022-02-17T12:53:09.565Z,,,,,,,,,,,,,,,,,54,,,,,,,,,,,,,,389.7600000000093,,response,,,,100,,,,,,,Space,keypress(Space),,,,,,,,-- --- ---- --- ------ ----- ------- much -- --- ------- --<br>------- ---------- ------ -- ----- -- ----- -- ---- ------<br>--- ----- --- --- ------ -------- ----- --- ------ ----- --<br>----- ----- ---------- --- --- ------ ------ ---- -- ------<br>------- --- ------ ----- --- ---- ------- -- ---- --- --<br>------- ------,159141,159140,158750.06,158750,158750.24,159141.34,,7,much
screen,html.Screen,2_1_1_1_8,2022-02-17T12:53:09.981Z,,,,,,,,,,,,,,,,,54,,,,,,,,,,,,,,414.6600000000035,,response,,,,100,,,,,,,Space,keypress(Space),,,,,,,,-- --- ---- --- ------ ----- ------- ---- of --- ------- --<br>------- ---------- ------ -- ----- -- ----- -- ---- ------<br>--- ----- --- --- ------ -------- ----- --- ------ ----- --<br>----- ----- ---------- --- --- ------ ------ ---- -- ------<br>------- --- ------ ----- --- ---- ------- -- ---- --- --<br>------- ------,159557,159556,159141.22,159141,159141.34,159557.42,,8,of
screen,html.Screen,2_1_1_1_9,2022-02-17T12:53:10.277Z,,,,,,,,,,,,,,,,,54,,,,,,,,,,,,,,295.5799999999872,,response,,,,100,,,,,,,Space,keypress(Space),,,,,,,,-- --- ---- --- ------ ----- ------- ---- -- its ------- --<br>------- ---------- ------ -- ----- -- ----- -- ---- ------<br>--- ----- --- --- ------ -------- ----- --- ------ ----- --<br>----- ----- ---------- --- --- ------ ------ ---- -- ------<br>------- --- ------ ----- --- ---- ------- -- ---- --- --<br>------- ------,159854,159853,159557.24,159557,159557.42,159853.86,,9,its
screen,html.Screen,2_1_1_1_10,2022-02-17T12:53:10.646Z,,,,,,,,,,,,,,,,,54,,,,,,,,,,,,,,366.14000000001397,,response,,,,100,,,,,,,Space,keypress(Space),,,,,,,,-- --- ---- --- ------ ----- ------- ---- -- --- revenue --<br>------- ---------- ------ -- ----- -- ----- -- ---- ------<br>--- ----- --- --- ------ -------- ----- --- ------ ----- --<br>----- ----- ---------- --- --- ------ ------ ---- -- ------<br>------- --- ------ ----- --- ---- ------- -- ---- --- --<br>------- ------,160221,160220,159853.66,159854,159853.86,160221.7,,10,revenue
screen,html.Screen,2_1_1_1_11,2022-02-17T12:53:11.094Z,,,,,,,,,,,,,,,,,54,,,,,,,,,,,,,,447.29999999998836,,response,,,,100,,,,,,,Space,keypress(Space),,,,,,,,-- --- ---- --- ------ ----- ------- ---- -- --- ------- by<br>------- ---------- ------ -- ----- -- ----- -- ---- ------<br>--- ----- --- --- ------ -------- ----- --- ------ ----- --<br>----- ----- ---------- --- --- ------ ------ ---- -- ------<br>------- --- ------ ----- --- ---- ------- -- ---- --- --<br>------- ------,160670,160669,160221.58,160221,160221.7,160670.6,,11,by
screen,html.Screen,2_1_1_1_12,2022-02-17T12:53:11.782Z,,,,,,,,,,,,,,,,,54,,,,,,,,,,,,,,686.3999999999942,,response,,,,100,,,,,,,Space,keypress(Space),,,,,,,,-- --- ---- --- ------ ----- ------- ---- -- --- ------- --<br>issuing ---------- ------ -- ----- -- ----- -- ---- ------<br>--- ----- --- --- ------ -------- ----- --- ------ ----- --<br>----- ----- ---------- --- --- ------ ------ ---- -- ------<br>------- --- ------ ----- --- ---- ------- -- ---- --- --<br>------- ------,161357,161357,160670.36,160670,160670.6,161357.76,,12,issuing
screen,html.Screen,2_1_1_1_13,2022-02-17T12:53:12.654Z,,,,,,,,,,,,,,,,,54,,,,,,,,,,,,,,872.2399999999907,,response,,,,100,,,,,,,Space,keypress(Space),,,,,,,,-- --- ---- --- ------ ----- ------- ---- -- --- ------- --<br>------- government ------ -- ----- -- ----- -- ---- ------<br>--- ----- --- --- ------ -------- ----- --- ------ ----- --<br>----- ----- ---------- --- --- ------ ------ ---- -- ------<br>------- --- ------ ----- --- ---- ------- -- ---- --- --<br>------- ------,162230,162230,161357.62,161358,161357.76,162230.4,,13,government
screen,html.Screen,2_1_1_1_14,2022-02-17T12:53:13.101Z,,,,,,,,,,,,,,,,,54,,,,,,,,,,,,,,446.6000000000058,,response,,,,100,,,,,,,Space,keypress(Space),,,,,,,,-- --- ---- --- ------ ----- ------- ---- -- --- ------- --<br>------- ---------- bonds. -- ----- -- ----- -- ---- ------<br>--- ----- --- --- ------ -------- ----- --- ------ ----- --<br>----- ----- ---------- --- --- ------ ------ ---- -- ------<br>------- --- ------ ----- --- ---- ------- -- ---- --- --<br>------- ------,162678,162677,162230.18,162230,162230.4,162678,,14,bonds.
screen,html.Screen,2_1_1_1_15,2022-02-17T12:53:13.407Z,,,,,,,,,,,,,,,,,54,,,,,,,,,,,,,,304,,response,,,,100,,,,,,,Space,keypress(Space),,,,,,,,-- --- ---- --- ------ ----- ------- ---- -- --- ------- --<br>------- ---------- ------ In ----- -- ----- -- ---- ------<br>--- ----- --- --- ------ -------- ----- --- ------ ----- --<br>----- ----- ---------- --- --- ------ ------ ---- -- ------<br>------- --- ------ ----- --- ---- ------- -- ---- --- --<br>------- ------,162982,162982,162677.76,162678,162678,162983.18,,15,In
screen,html.Screen,2_1_1_1_16,2022-02-17T12:53:13.703Z,,,,,,,,,,,,,,,,,54,,,,,,,,,,,,,,294.820000000007,,response,,,,100,,,,,,,Space,keypress(Space),,,,,,,,"-- --- ---- --- ------ ----- ------- ---- -- --- ------- --<br>------- ---------- ------ -- 1727, -- ----- -- ---- ------<br>--- ----- --- --- ------ -------- ----- --- ------ ----- --<br>----- ----- ---------- --- --- ------ ------ ---- -- ------<br>------- --- ------ ----- --- ---- ------- -- ---- --- --<br>------- ------",163278,163278,162982.9,162982,162983.18,163278.84,,16,"1727,"
screen,html.Screen,2_1_1_1_17,2022-02-17T12:53:14.374Z,,,,,,,,,,,,,,,,,54,,,,,,,,,,,,,,670.1600000000035,,response,,,,100,,,,,,,Space,keypress(Space),,,,,,,,-- --- ---- --- ------ ----- ------- ---- -- --- ------- --<br>------- ---------- ------ -- ----- in ----- -- ---- ------<br>--- ----- --- --- ------ -------- ----- --- ------ ----- --<br>----- ----- ---------- --- --- ------ ------ ---- -- ------<br>------- --- ------ ----- --- ---- ------- -- ---- --- --<br>------- ------,163950,163949,163278.74,163278,163278.84,163950.02,,17,in
screen,html.Screen,2_1_1_1_18,2022-02-17T12:53:14.694Z,,,,,,,,,,,,,,,,,54,,,,,,,,,,,,,,318.9800000000105,,response,,,,100,,,,,,,Space,keypress(Space),,,,,,,,-- --- ---- --- ------ ----- ------- ---- -- --- ------- --<br>------- ---------- ------ -- ----- -- order -- ---- ------<br>--- ----- --- --- ------ -------- ----- --- ------ ----- --<br>----- ----- ---------- --- --- ------ ------ ---- -- ------<br>------- --- ------ ----- --- ---- ------- -- ---- --- --<br>------- ------,164270,164269,163949.86,163950,163950.02,164270.38,,18,order
screen,html.Screen,2_1_1_1_19,2022-02-17T12:53:14.926Z,,,,,,,,,,,,,,,,,54,,,,,,,,,,,,,,230.61999999999534,,response,,,,100,,,,,,,Space,keypress(Space),,,,,,,,-- --- ---- --- ------ ----- ------- ---- -- --- ------- --<br>------- ---------- ------ -- ----- -- ----- to ---- ------<br>--- ----- --- --- ------ -------- ----- --- ------ ----- --<br>----- ----- ---------- --- --- ------ ------ ---- -- ------<br>------- --- ------ ----- --- ---- ------- -- ---- --- --<br>------- ------,164502,164501,164270.18,164270,164270.38,164502.04,,19,to
screen,html.Screen,2_1_1_1_20,2022-02-17T12:53:15.175Z,,,,,,,,,,,,,,,,,54,,,,,,,,,,,,,,247.95999999999185,,response,,,,100,,,,,,,Space,keypress(Space),,,,,,,,-- --- ---- --- ------ ----- ------- ---- -- --- ------- --<br>------- ---------- ------ -- ----- -- ----- -- save ------<br>--- ----- --- --- ------ -------- ----- --- ------ ----- --<br>----- ----- ---------- --- --- ------ ------ ---- -- ------<br>------- --- ------ ----- --- ---- ------- -- ---- --- --<br>------- ------,164751,164750,164501.9,164502,164502.04,164751.22,,20,save
screen,html.Screen,2_1_1_1_21,2022-02-17T12:53:15.574Z,,,,,,,,,,,,,,,,,54,,,,,,,,,,,,,,398.77999999999884,,response,,,,100,,,,,,,Space,keypress(Space),,,,,,,,"-- --- ---- --- ------ ----- ------- ---- -- --- ------- --<br>------- ---------- ------ -- ----- -- ----- -- ---- money,<br>--- ----- --- --- ------ -------- ----- --- ------ ----- --<br>----- ----- ---------- --- --- ------ ------ ---- -- ------<br>------- --- ------ ----- --- ---- ------- -- ---- --- --<br>------- ------",165151,165150,164751,164751,164751.22,165150.78,,21,"money,"
screen,html.Screen,2_1_1_1_22,2022-02-17T12:53:16.800Z,,,,,,,,,,,,,,,,,54,,,,,,,,,,,,,,1224.2200000000012,,response,,,,100,,,,,,,Space,keypress(Space),,,,,,,,-- --- ---- --- ------ ----- ------- ---- -- --- ------- --<br>------- ---------- ------ -- ----- -- ----- -- ---- ------<br>the ----- --- --- ------ -------- ----- --- ------ ----- --<br>----- ----- ---------- --- --- ------ ------ ---- -- ------<br>------- --- ------ ----- --- ---- ------- -- ---- --- --<br>------- ------,166375,166375,165150.64,165151,165150.78,166375.66,,22,the
screen,html.Screen,2_1_1_1_23,2022-02-17T12:53:17.096Z,,,,,,,,,,,,,,,,,54,,,,,,,,,,,,,,294.3399999999965,,response,,,,100,,,,,,,Space,keypress(Space),,,,,,,,-- --- ---- --- ------ ----- ------- ---- -- --- ------- --<br>------- ---------- ------ -- ----- -- ----- -- ---- ------<br>--- state --- --- ------ -------- ----- --- ------ ----- --<br>----- ----- ---------- --- --- ------ ------ ---- -- ------<br>------- --- ------ ----- --- ---- ------- -- ---- --- --<br>------- ------,166672,166670,166375.5,166375,166375.66,166672.1,,23,state
screen,html.Screen,2_1_1_1_24,2022-02-17T12:53:17.366Z,,,,,,,,,,,,,,,,,54,,,,,,,,,,,,,,268.8999999999942,,response,,,,100,,,,,,,Space,keypress(Space),,,,,,,,-- --- ---- --- ------ ----- ------- ---- -- --- ------- --<br>------- ---------- ------ -- ----- -- ----- -- ---- ------<br>--- ----- cut --- ------ -------- ----- --- ------ ----- --<br>----- ----- ---------- --- --- ------ ------ ---- -- ------<br>------- --- ------ ----- --- ---- ------- -- ---- --- --<br>------- ------,166942,166941,166671.9,166672,166672.1,166942.36,,24,cut
screen,html.Screen,2_1_1_1_25,2022-02-17T12:53:17.768Z,,,,,,,,,,,,,,,,,54,,,,,,,,,,,,,,400.64000000001397,,response,,,,100,,,,,,,Space,keypress(Space),,,,,,,,-- --- ---- --- ------ ----- ------- ---- -- --- ------- --<br>------- ---------- ------ -- ----- -- ----- -- ---- ------<br>--- ----- --- the ------ -------- ----- --- ------ ----- --<br>----- ----- ---------- --- --- ------ ------ ---- -- ------<br>------- --- ------ ----- --- ---- ------- -- ---- --- --<br>------- ------,167343,167343,166942.22,166943,166942.36,167343.54,,25,the
screen,html.Screen,2_1_1_1_26,2022-02-17T12:53:18.359Z,,,,,,,,,,,,,,,,,54,,,,,,,,,,,,,,590.4599999999919,,response,,,,100,,,,,,,Space,keypress(Space),,,,,,,,-- --- ---- --- ------ ----- ------- ---- -- --- ------- --<br>------- ---------- ------ -- ----- -- ----- -- ---- ------<br>--- ----- --- --- bonds' -------- ----- --- ------ ----- --<br>----- ----- ---------- --- --- ------ ------ ---- -- ------<br>------- --- ------ ----- --- ---- ------- -- ---- --- --<br>------- ------,167934,167934,167343.4,167343,167343.54,167934.52,,26,bonds'
screen,html.Screen,2_1_1_1_27,2022-02-17T12:53:18.759Z,,,,,,,,,,,,,,,,,54,,,,,,,,,,,,,,399.4800000000105,,response,,,,100,,,,,,,Space,keypress(Space),,,,,,,,-- --- ---- --- ------ ----- ------- ---- -- --- ------- --<br>------- ---------- ------ -- ----- -- ----- -- ---- ------<br>--- ----- --- --- ------ interest ----- --- ------ ----- --<br>----- ----- ---------- --- --- ------ ------ ---- -- ------<br>------- --- ------ ----- --- ---- ------- -- ---- --- --<br>------- ------,168335,168334,167934.38,167934,167934.52,168335,,27,interest
screen,html.Screen,2_1_1_1_28,2022-02-17T12:53:19.103Z,,,,,,,,,,,,,,,,,54,,,,,,,,,,,,,,343,,response,,,,100,,,,,,,Space,keypress(Space),,,,,,,,-- --- ---- --- ------ ----- ------- ---- -- --- ------- --<br>------- ---------- ------ -- ----- -- ----- -- ---- ------<br>--- ----- --- --- ------ -------- rate. --- ------ ----- --<br>----- ----- ---------- --- --- ------ ------ ---- -- ------<br>------- --- ------ ----- --- ---- ------- -- ---- --- --<br>------- ------,168679,168678,168334.84,168335,168335,168679.54,,28,rate.
screen,html.Screen,2_1_1_1_29,2022-02-17T12:53:19.511Z,,,,,,,,,,,,,,,,,54,,,,,,,,,,,,,,406.45999999999185,,response,,,,100,,,,,,,Space,keypress(Space),,,,,,,,-- --- ---- --- ------ ----- ------- ---- -- --- ------- --<br>------- ---------- ------ -- ----- -- ----- -- ---- ------<br>--- ----- --- --- ------ -------- ----- The ------ ----- --<br>----- ----- ---------- --- --- ------ ------ ---- -- ------<br>------- --- ------ ----- --- ---- ------- -- ---- --- --<br>------- ------,169087,169086,168679.3,168679,168679.54,169087.12,,29,The
screen,html.Screen,2_1_1_1_30,2022-02-17T12:53:19.775Z,,,,,,,,,,,,,,,,,54,,,,,,,,,,,,,,262.88000000000466,,response,,,,100,,,,,,,Space,keypress(Space),,,,,,,,-- --- ---- --- ------ ----- ------- ---- -- --- ------- --<br>------- ---------- ------ -- ----- -- ----- -- ---- ------<br>--- ----- --- --- ------ -------- ----- --- market ----- --<br>----- ----- ---------- --- --- ------ ------ ---- -- ------<br>------- --- ------ ----- --- ---- ------- -- ---- --- --<br>------- ------,169351,169350,169086.92,169087,169087.12,169351.86,,30,market
screen,html.Screen,2_1_1_1_31,2022-02-17T12:53:20.000Z,,,,,,,,,,,,,,,,,54,,,,,,,,,,,,,,222.14000000001397,,response,,,,100,,,,,,,Space,keypress(Space),,,,,,,,-- --- ---- --- ------ ----- ------- ---- -- --- ------- --<br>------- ---------- ------ -- ----- -- ----- -- ---- ------<br>--- ----- --- --- ------ -------- ----- --- ------ value --<br>----- ----- ---------- --- --- ------ ------ ---- -- ------<br>------- --- ------ ----- --- ---- ------- -- ---- --- --<br>------- ------,169575,169574,169351.62,169351,169351.86,169575.78,,31,value
screen,html.Screen,2_1_1_1_32,2022-02-17T12:53:20.256Z,,,,,,,,,,,,,,,,,54,,,,,,,,,,,,,,254.22000000000116,,response,,,,100,,,,,,,Space,keypress(Space),,,,,,,,-- --- ---- --- ------ ----- ------- ---- -- --- ------- --<br>------- ---------- ------ -- ----- -- ----- -- ---- ------<br>--- ----- --- --- ------ -------- ----- --- ------ ----- of<br>----- ----- ---------- --- --- ------ ------ ---- -- ------<br>------- --- ------ ----- --- ---- ------- -- ---- --- --<br>------- ------,169832,169830,169575.62,169576,169575.78,169832.22,,32,of
screen,html.Screen,2_1_1_1_33,2022-02-17T12:53:20.871Z,,,,,,,,,,,,,,,,,54,,,,,,,,,,,,,,613.7799999999988,,response,,,,100,,,,,,,Space,keypress(Space),,,,,,,,-- --- ---- --- ------ ----- ------- ---- -- --- ------- --<br>------- ---------- ------ -- ----- -- ----- -- ---- ------<br>--- ----- --- --- ------ -------- ----- --- ------ ----- --<br>these ----- ---------- --- --- ------ ------ ---- -- ------<br>------- --- ------ ----- --- ---- ------- -- ---- --- --<br>------- ------,170448,170446,169832.08,169832,169832.22,170447.48,,33,these
screen,html.Screen,2_1_1_1_34,2022-02-17T12:53:21.222Z,,,,,,,,,,,,,,,,,54,,,,,,,,,,,,,,350.5199999999895,,response,,,,100,,,,,,,Space,keypress(Space),,,,,,,,-- --- ---- --- ------ ----- ------- ---- -- --- ------- --<br>------- ---------- ------ -- ----- -- ----- -- ---- ------<br>--- ----- --- --- ------ -------- ----- --- ------ ----- --<br>----- bonds ---------- --- --- ------ ------ ---- -- ------<br>------- --- ------ ----- --- ---- ------- -- ---- --- --<br>------- ------,170799,170798,170447.3,170448,170447.48,170798.8,,34,bonds
screen,html.Screen,2_1_1_1_35,2022-02-17T12:53:22.496Z,,,,,,,,,,,,,,,,,54,,,,,,,,,,,,,,1272.2000000000116,,response,,,,100,,,,,,,Space,keypress(Space),,,,,,,,"-- --- ---- --- ------ ----- ------- ---- -- --- ------- --<br>------- ---------- ------ -- ----- -- ----- -- ---- ------<br>--- ----- --- --- ------ -------- ----- --- ------ ----- --<br>----- ----- plummeted, --- --- ------ ------ ---- -- ------<br>------- --- ------ ----- --- ---- ------- -- ---- --- --<br>------- ------",172072,172071,170798.62,170799,170798.8,172072.04,,35,"plummeted,"
screen,html.Screen,2_1_1_1_36,2022-02-17T12:53:22.855Z,,,,,,,,,,,,,,,,,54,,,,,,,,,,,,,,357.95999999999185,,response,,,,100,,,,,,,Space,keypress(Space),,,,,,,,-- --- ---- --- ------ ----- ------- ---- -- --- ------- --<br>------- ---------- ------ -- ----- -- ----- -- ---- ------<br>--- ----- --- --- ------ -------- ----- --- ------ ----- --<br>----- ----- ---------- and --- ------ ------ ---- -- ------<br>------- --- ------ ----- --- ---- ------- -- ---- --- --<br>------- ------,172431,172430,172071.88,172072,172072.04,172431.62,,36,and
screen,html.Screen,2_1_1_1_37,2022-02-17T12:53:23.168Z,,,,,,,,,,,,,,,,,54,,,,,,,,,,,,,,311.38000000000466,,response,,,,100,,,,,,,Space,keypress(Space),,,,,,,,-- --- ---- --- ------ ----- ------- ---- -- --- ------- --<br>------- ---------- ------ -- ----- -- ----- -- ---- ------<br>--- ----- --- --- ------ -------- ----- --- ------ ----- --<br>----- ----- ---------- --- the ------ ------ ---- -- ------<br>------- --- ------ ----- --- ---- ------- -- ---- --- --<br>------- ------,172744,172743,172431.44,172431,172431.62,172744.14,,37,the
screen,html.Screen,2_1_1_1_38,2022-02-17T12:53:23.743Z,,,,,,,,,,,,,,,,,54,,,,,,,,,,,,,,573.859999999986,,response,,,,100,,,,,,,Space,keypress(Space),,,,,,,,-- --- ---- --- ------ ----- ------- ---- -- --- ------- --<br>------- ---------- ------ -- ----- -- ----- -- ---- ------<br>--- ----- --- --- ------ -------- ----- --- ------ ----- --<br>----- ----- ---------- --- --- market ------ ---- -- ------<br>------- --- ------ ----- --- ---- ------- -- ---- --- --<br>------- ------,173319,173318,172743.98,172744,172744.14,173319.84,,38,market
screen,html.Screen,2_1_1_1_39,2022-02-17T12:53:24.336Z,,,,,,,,,,,,,,,,,54,,,,,,,,,,,,,,591.1600000000035,,response,,,,100,,,,,,,Space,keypress(Space),,,,,,,,-- --- ---- --- ------ ----- ------- ---- -- --- ------- --<br>------- ---------- ------ -- ----- -- ----- -- ---- ------<br>--- ----- --- --- ------ -------- ----- --- ------ ----- --<br>----- ----- ---------- --- --- ------ became ---- -- ------<br>------- --- ------ ----- --- ---- ------- -- ---- --- --<br>------- ------,173912,173911,173319.68,173319,173319.84,173912.26,,39,became
screen,html.Screen,2_1_1_1_40,2022-02-17T12:53:24.768Z,,,,,,,,,,,,,,,,,54,,,,,,,,,,,,,,430.7399999999907,,response,,,,100,,,,,,,Space,keypress(Space),,,,,,,,-- --- ---- --- ------ ----- ------- ---- -- --- ------- --<br>------- ---------- ------ -- ----- -- ----- -- ---- ------<br>--- ----- --- --- ------ -------- ----- --- ------ ----- --<br>----- ----- ---------- --- --- ------ ------ wary -- ------<br>------- --- ------ ----- --- ---- ------- -- ---- --- --<br>------- ------,174344,174343,173912.1,173912,173912.26,174343.64,,40,wary
screen,html.Screen,2_1_1_1_41,2022-02-17T12:53:25.071Z,,,,,,,,,,,,,,,,,54,,,,,,,,,,,,,,302.35999999998603,,response,,,,100,,,,,,,Space,keypress(Space),,,,,,,,-- --- ---- --- ------ ----- ------- ---- -- --- ------- --<br>------- ---------- ------ -- ----- -- ----- -- ---- ------<br>--- ----- --- --- ------ -------- ----- --- ------ ----- --<br>----- ----- ---------- --- --- ------ ------ ---- of ------<br>------- --- ------ ----- --- ---- ------- -- ---- --- --<br>------- ------,174647,174646,174343.52,174344,174343.64,174647.46,,41,of
screen,html.Screen,2_1_1_1_42,2022-02-17T12:53:25.464Z,,,,,,,,,,,,,,,,,54,,,,,,,,,,,,,,391.54000000000815,,response,,,,100,,,,,,,Space,keypress(Space),,,,,,,,-- --- ---- --- ------ ----- ------- ---- -- --- ------- --<br>------- ---------- ------ -- ----- -- ----- -- ---- ------<br>--- ----- --- --- ------ -------- ----- --- ------ ----- --<br>----- ----- ---------- --- --- ------ ------ ---- -- French<br>------- --- ------ ----- --- ---- ------- -- ---- --- --<br>------- ------,175039,175039,174647.26,174647,174647.46,175039.52,,42,French
screen,html.Screen,2_1_1_1_43,2022-02-17T12:53:25.856Z,,,,,,,,,,,,,,,,,54,,,,,,,,,,,,,,390.4800000000105,,response,,,,100,,,,,,,Space,keypress(Space),,,,,,,,-- --- ---- --- ------ ----- ------- ---- -- --- ------- --<br>------- ---------- ------ -- ----- -- ----- -- ---- ------<br>--- ----- --- --- ------ -------- ----- --- ------ ----- --<br>----- ----- ---------- --- --- ------ ------ ---- -- ------<br>credit. --- ------ ----- --- ---- ------- -- ---- --- --<br>------- ------,175431,175430,175039.38,175039,175039.52,175432.04,,43,credit.
screen,html.Screen,2_1_1_1_44,2022-02-17T12:53:26.303Z,,,,,,,,,,,,,,,,,54,,,,,,,,,,,,,,445.95999999999185,,response,,,,100,,,,,,,Space,keypress(Space),,,,,,,,-- --- ---- --- ------ ----- ------- ---- -- --- ------- --<br>------- ---------- ------ -- ----- -- ----- -- ---- ------<br>--- ----- --- --- ------ -------- ----- --- ------ ----- --<br>----- ----- ---------- --- --- ------ ------ ---- -- ------<br>------- The ------ ----- --- ---- ------- -- ---- --- --<br>------- ------,175879,175878,175431.88,175431,175432.04,175879.26,,44,The
screen,html.Screen,2_1_1_1_45,2022-02-17T12:53:26.559Z,,,,,,,,,,,,,,,,,54,,,,,,,,,,,,,,255.7399999999907,,response,,,,100,,,,,,,Space,keypress(Space),,,,,,,,-- --- ---- --- ------ ----- ------- ---- -- --- ------- --<br>------- ---------- ------ -- ----- -- ----- -- ---- ------<br>--- ----- --- --- ------ -------- ----- --- ------ ----- --<br>----- ----- ---------- --- --- ------ ------ ---- -- ------<br>------- --- French ----- --- ---- ------- -- ---- --- --<br>------- ------,176135,176135,175879.14,175879,175879.26,176135.68,,45,French
screen,html.Screen,2_1_1_1_46,2022-02-17T12:53:26.783Z,,,,,,,,,,,,,,,,,54,,,,,,,,,,,,,,222.32000000000698,,response,,,,100,,,,,,,Space,keypress(Space),,,,,,,,-- --- ---- --- ------ ----- ------- ---- -- --- ------- --<br>------- ---------- ------ -- ----- -- ----- -- ---- ------<br>--- ----- --- --- ------ -------- ----- --- ------ ----- --<br>----- ----- ---------- --- --- ------ ------ ---- -- ------<br>------- --- ------ state --- ---- ------- -- ---- --- --<br>------- ------,176359,176358,176135.48,176135,176135.68,176359.48,,46,state
screen,html.Screen,2_1_1_1_47,2022-02-17T12:53:27.024Z,,,,,,,,,,,,,,,,,54,,,,,,,,,,,,,,239.51999999998952,,response,,,,100,,,,,,,Space,keypress(Space),,,,,,,,-- --- ---- --- ------ ----- ------- ---- -- --- ------- --<br>------- ---------- ------ -- ----- -- ----- -- ---- ------<br>--- ----- --- --- ------ -------- ----- --- ------ ----- --<br>----- ----- ---------- --- --- ------ ------ ---- -- ------<br>------- --- ------ ----- was ---- ------- -- ---- --- --<br>------- ------,176600,176599,176359.32,176359,176359.48,176600.26,,47,was
screen,html.Screen,2_1_1_1_48,2022-02-17T12:53:27.336Z,,,,,,,,,,,,,,,,,54,,,,,,,,,,,,,,310.7399999999907,,response,,,,100,,,,,,,Space,keypress(Space),,,,,,,,-- --- ---- --- ------ ----- ------- ---- -- --- ------- --<br>------- ---------- ------ -- ----- -- ----- -- ---- ------<br>--- ----- --- --- ------ -------- ----- --- ------ ----- --<br>----- ----- ---------- --- --- ------ ------ ---- -- ------<br>------- --- ------ ----- --- left ------- -- ---- --- --<br>------- ------,176912,176911,176600.1,176600,176600.26,176912.34,,48,left
screen,html.Screen,2_1_1_1_49,2022-02-17T12:53:27.759Z,,,,,,,,,,,,,,,,,54,,,,,,,,,,,,,,422.6600000000035,,response,,,,100,,,,,,,Space,keypress(Space),,,,,,,,-- --- ---- --- ------ ----- ------- ---- -- --- ------- --<br>------- ---------- ------ -- ----- -- ----- -- ---- ------<br>--- ----- --- --- ------ -------- ----- --- ------ ----- --<br>----- ----- ---------- --- --- ------ ------ ---- -- ------<br>------- --- ------ ----- --- ---- without -- ---- --- --<br>------- ------,177335,177335,176912.18,176912,176912.34,177335.46,,49,without
screen,html.Screen,2_1_1_1_50,2022-02-17T12:53:28.063Z,,,,,,,,,,,,,,,,,54,,,,,,,,,,,,,,302.54000000000815,,response,,,,100,,,,,,,Space,keypress(Space),,,,,,,,-- --- ---- --- ------ ----- ------- ---- -- --- ------- --<br>------- ---------- ------ -- ----- -- ----- -- ---- ------<br>--- ----- --- --- ------ -------- ----- --- ------ ----- --<br>----- ----- ---------- --- --- ------ ------ ---- -- ------<br>------- --- ------ ----- --- ---- ------- an ---- --- --<br>------- ------,177639,177638,177335.32,177335,177335.46,177639.42,,50,an
screen,html.Screen,2_1_1_1_51,2022-02-17T12:53:28.280Z,,,,,,,,,,,,,,,,,54,,,,,,,,,,,,,,215.5799999999872,,response,,,,100,,,,,,,Space,keypress(Space),,,,,,,,-- --- ---- --- ------ ----- ------- ---- -- --- ------- --<br>------- ---------- ------ -- ----- -- ----- -- ---- ------<br>--- ----- --- --- ------ -------- ----- --- ------ ----- --<br>----- ----- ---------- --- --- ------ ------ ---- -- ------<br>------- --- ------ ----- --- ---- ------- -- easy --- --<br>------- ------,177855,177855,177639.28,177639,177639.42,177855.56,,51,easy
screen,html.Screen,2_1_1_1_52,2022-02-17T12:53:28.535Z,,,,,,,,,,,,,,,,,54,,,,,,,,,,,,,,255.44000000000233,,response,,,,100,,,,,,,Space,keypress(Space),,,,,,,,-- --- ---- --- ------ ----- ------- ---- -- --- ------- --<br>------- ---------- ------ -- ----- -- ----- -- ---- ------<br>--- ----- --- --- ------ -------- ----- --- ------ ----- --<br>----- ----- ---------- --- --- ------ ------ ---- -- ------<br>------- --- ------ ----- --- ---- ------- -- ---- way --<br>------- ------,178112,178111,177855.4,177856,177855.56,178111.58,,52,way
screen,html.Screen,2_1_1_1_53,2022-02-17T12:53:28.919Z,,,,,,,,,,,,,,,,,54,,,,,,,,,,,,,,383.4200000000128,,response,,,,100,,,,,,,Space,keypress(Space),,,,,,,,-- --- ---- --- ------ ----- ------- ---- -- --- ------- --<br>------- ---------- ------ -- ----- -- ----- -- ---- ------<br>--- ----- --- --- ------ -------- ----- --- ------ ----- --<br>----- ----- ---------- --- --- ------ ------ ---- -- ------<br>------- --- ------ ----- --- ---- ------- -- ---- --- of<br>------- ------,178495,178495,178111.44,178112,178111.58,178495.82,,53,of
screen,html.Screen,2_1_1_1_54,2022-02-17T12:53:29.320Z,,,,,,,,,,,,,,,,,54,,,,,,,,,,,,,,399.179999999993,,response,,,,100,,,,,,,Space,keypress(Space),,,,,,,,-- --- ---- --- ------ ----- ------- ---- -- --- ------- --<br>------- ---------- ------ -- ----- -- ----- -- ---- ------<br>--- ----- --- --- ------ -------- ----- --- ------ ----- --<br>----- ----- ---------- --- --- ------ ------ ---- -- ------<br>------- --- ------ ----- --- ---- ------- -- ---- --- --<br>raising ------,178896,178895,178495.68,178495,178495.82,178896.32,,54,raising
screen,html.Screen,2_1_1_1_55,2022-02-17T12:53:29.743Z,,,,,,,,,,,,,,,,,54,,,,,,,,,,,,,,422.679999999993,,response,,,,100,,,,,,,Space,keypress(Space),,,,,,,,-- --- ---- --- ------ ----- ------- ---- -- --- ------- --<br>------- ---------- ------ -- ----- -- ----- -- ---- ------<br>--- ----- --- --- ------ -------- ----- --- ------ ----- --<br>----- ----- ---------- --- --- ------ ------ ---- -- ------<br>------- --- ------ ----- --- ---- ------- -- ---- --- --<br>------- money.,179320,179319,178896.22,178896,178896.32,179320.28,,55,money.
Item 100,flow.Loop,2_1_1_1,2022-02-17T12:53:29.744Z,,,,,,,,,,,,,,,,,,,,,,,,,,,,,,,23246.619999999995,,completion,,,,,D,,,,,,,,,,,silence,,,,,179320,179319,156056.32,156057,156072.38,179320.28,,,
Question 1,html.Screen,2_1_1_2,2022-02-17T12:53:31.801Z,,,,,,,,,,,,,,,,,,,,,,,,,,,,true,TRUE,,2055.720000000001,,response,,,,100,D,,,,,,TRUE,click #choice-1,,,,silence,,,,,181377,181376,179320.1,179320,179320.28,181389.78,,,
Question 2,html.Screen,2_1_1_3,2022-02-17T12:53:33.507Z,,,,,,,,,,,,,,,,,,,,,,,,,,,,true,FALSE,,1692.2200000000012,,response,,,,100,D,,,,,,FALSE,click #choice-2,,,,silence,,,,,183083,183082,181376.68,181378,181389.78,183098.72,,,
Item 100,flow.Sequence,2_1_1,2022-02-17T12:53:33.507Z,,,,,,,,,,,,,,,,,,,,,,,,,,,,,,,37015.07999999999,,completion,,,,,,,,,,,,,,,,,,,,,183083,183082,146051.04,146053,146066.92,183098.72,,,
End of Practice,html.Page,2_1_2,2022-02-17T12:53:37.063Z,,,,,,,,,,,,,,,,,,,,,,,,,,,,,,,3539.279999999999,,form submission,,,,,,,,,,,,,,,,,,,,,186638,186638,183082.72,183083,183098.72,186636.08,,,
Practice,flow.Sequence,2_1,2022-02-17T12:53:37.063Z,,,,,,,,,,,,,,,,,,,,,,,,,,,,,,,82579.08,,completion,,,,,,,,,,,,,,,,,,,,,186639,186638,104042.88,104046,104058.92,186636.08,,,
Trap_instruction,html.Page,2_2_0,2022-02-17T12:53:40.580Z,,,,,,,,,,,,,,,,,,,,,,,,,,,,,,,3519.920000000013,,form submission,,,,,,,,,,,,,,,,,,,,,190156,190156,186636,186639,186636.08,190169.24,,,
trap_trial,html.Screen,2_2_1,2022-02-17T12:53:43.620Z,,,,,,,,,,,,,,,,,,,,,,,,,,,,true,1,,3024.7600000000093,,response,,,,,,,,,,,1,click #choice-1,,,,,,,,,193195,193194,190153.2,190156,190169.24,193211.08,,,
end of trap trial,html.Page,2_2_2,2022-02-17T12:53:44.776Z,,,,,,,,,,,,,,,,,,,,,,,,,,,,,,,1139.9200000000128,,form submission,,,,,,,,,,,,,,,,,,,,,194352,194351,193195.08,193196,193211.08,194362.4,,,
Trap 1,flow.Sequence,2_2,2022-02-17T12:53:44.776Z,,,,,,,,,,,,,,,,,,,,,,,,,,,,,,,7714.920000000013,,completion,,,,,,,,,,,,,,,,,,,,,194353,194351,186636,186639,186636.08,194362.4,,,
Standby,html.Page,2_3_0,2022-02-17T12:53:52.775Z,,,,,,,,,,,,,,,,,,,,,,,,,,,,,,,8004.080000000016,,timeout,,,,,,,,,,,,,,,,,,,,,202351,202350.4,194348.96,194353,194362.4,202366.48,,,
Holding screen,html.Screen,2_3_1_0_0,2022-02-17T12:53:59.769Z,,,,,,,,,,,,,,,,,,,,,,,,,,,,,,,6994.5199999999895,,timeout,,,,,,,,,,,,,,,,,,,,,209346,209344.92,202350.4,202351,202366.48,209361,,,
screen,html.Screen,2_3_1_0_1_0,2022-02-17T12:54:00.515Z,,,,,,,,,,,,,,,,,11,,,,,,,,,,,,,,730,,response,,,,4,D,,,,,,Space,keypress(Space),,,,silence,,,,Known -- ---- --- -- --- -------- ------------ ---------- --<br>- ------- ------ --------- -- ------------ -- --- ---- -----<br>------ ---- ---- ------ ------ ------- --- ----- ---------<br>---- --- -------- -------- --- --- -- ------- --- --- -----<br>-- --- ------ ------- --- --- -------- ---- --------- --<br>---------- -- -------- ----------------,210091,210091,209344.92,209346,209361,210091.74,,0,Known
screen,html.Screen,2_3_1_0_1_1,2022-02-17T12:54:01.003Z,,,,,,,,,,,,,,,,,11,,,,,,,,,,,,,,486.2600000000093,,response,,,,4,D,,,,,,Space,keypress(Space),,,,silence,,,,----- as ---- --- -- --- -------- ------------ ---------- --<br>- ------- ------ --------- -- ------------ -- --- ---- -----<br>------ ---- ---- ------ ------ ------- --- ----- ---------<br>---- --- -------- -------- --- --- -- ------- --- --- -----<br>-- --- ------ ------- --- --- -------- ---- --------- --<br>---------- -- -------- ----------------,210579,210578,210091.52,210091,210091.74,210579.58,,1,as
screen,html.Screen,2_3_1_0_1_2,2022-02-17T12:54:01.379Z,,,,,,,,,,,,,,,,,11,,,,,,,,,,,,,,374.4200000000128,,response,,,,4,D,,,,,,Space,keypress(Space),,,,silence,,,,----- -- Rapa --- -- --- -------- ------------ ---------- --<br>- ------- ------ --------- -- ------------ -- --- ---- -----<br>------ ---- ---- ------ ------ ------- --- ----- ---------<br>---- --- -------- -------- --- --- -- ------- --- --- -----<br>-- --- ------ ------- --- --- -------- ---- --------- --<br>---------- -- -------- ----------------,210955,210954,210579.42,210579,210579.58,210955.44,,2,Rapa
screen,html.Screen,2_3_1_0_1_3,2022-02-17T12:54:01.756Z,,,,,,,,,,,,,,,,,11,,,,,,,,,,,,,,375.5599999999977,,response,,,,4,D,,,,,,Space,keypress(Space),,,,silence,,,,----- -- ---- Nui -- --- -------- ------------ ---------- --<br>- ------- ------ --------- -- ------------ -- --- ---- -----<br>------ ---- ---- ------ ------ ------- --- ----- ---------<br>---- --- -------- -------- --- --- -- ------- --- --- -----<br>-- --- ------ ------- --- --- -------- ---- --------- --<br>---------- -- -------- ----------------,211332,211331,210955.28,210955,210955.44,211332.44,,3,Nui
screen,html.Screen,2_3_1_0_1_4,2022-02-17T12:54:02.236Z,,,,,,,,,,,,,,,,,11,,,,,,,,,,,,,,477.5599999999977,,response,,,,4,D,,,,,,Space,keypress(Space),,,,silence,,,,----- -- ---- --- to --- -------- ------------ ---------- --<br>- ------- ------ --------- -- ------------ -- --- ---- -----<br>------ ---- ---- ------ ------ ------- --- ----- ---------<br>---- --- -------- -------- --- --- -- ------- --- --- -----<br>-- --- ------ ------- --- --- -------- ---- --------- --<br>---------- -- -------- ----------------,211812,211810,211332.26,211332,211332.44,211811.98,,4,to
screen,html.Screen,2_3_1_0_1_5,2022-02-17T12:54:02.459Z,,,,,,,,,,,,,,,,,11,,,,,,,,,,,,,,223.01999999998952,,response,,,,4,D,,,,,,Space,keypress(Space),,,,silence,,,,----- -- ---- --- -- the -------- ------------ ---------- --<br>- ------- ------ --------- -- ------------ -- --- ---- -----<br>------ ---- ---- ------ ------ ------- --- ----- ---------<br>---- --- -------- -------- --- --- -- ------- --- --- -----<br>-- --- ------ ------- --- --- -------- ---- --------- --<br>---------- -- -------- ----------------,212036,212035,211811.82,211812,211811.98,212035.86,,5,the
screen,html.Screen,2_3_1_0_1_6,2022-02-17T12:54:02.701Z,,,,,,,,,,,,,,,,,11,,,,,,,,,,,,,,239.14000000001397,,response,,,,4,D,,,,,,Space,keypress(Space),,,,silence,,,,----- -- ---- --- -- --- island's ------------ ---------- --<br>- ------- ------ --------- -- ------------ -- --- ---- -----<br>------ ---- ---- ------ ------ ------- --- ----- ---------<br>---- --- -------- -------- --- --- -- ------- --- --- -----<br>-- --- ------ ------- --- --- -------- ---- --------- --<br>---------- -- -------- ----------------,212276,212275,212035.64,212036,212035.86,212276.64,,6,island's
screen,html.Screen,2_3_1_0_1_7,2022-02-17T12:54:02.924Z,,,,,,,,,,,,,,,,,11,,,,,,,,,,,,,,222.35999999998603,,response,,,,4,D,,,,,,Space,keypress(Space),,,,silence,,,,"----- -- ---- --- -- --- -------- inhabitants, ---------- --<br>- ------- ------ --------- -- ------------ -- --- ---- -----<br>------ ---- ---- ------ ------ ------- --- ----- ---------<br>---- --- -------- -------- --- --- -- ------- --- --- -----<br>-- --- ------ ------- --- --- -------- ---- --------- --<br>---------- -- -------- ----------------",212500,212499,212276.48,212277,212276.64,212500.3,,7,"inhabitants,"
screen,html.Screen,2_3_1_0_1_8,2022-02-17T12:54:04.132Z,,,,,,,,,,,,,,,,,11,,,,,,,,,,,,,,1206.7000000000116,,response,,,,4,D,,,,,,Space,keypress(Space),,,,silence,,,,----- -- ---- --- -- --- -------- ------------ Rongorongo --<br>- ------- ------ --------- -- ------------ -- --- ---- -----<br>------ ---- ---- ------ ------ ------- --- ----- ---------<br>---- --- -------- -------- --- --- -- ------- --- --- -----<br>-- --- ------ ------- --- --- -------- ---- --------- --<br>---------- -- -------- ----------------,213707,213707,212500.1,212500,212500.3,213708.1,,8,Rongorongo
screen,html.Screen,2_3_1_0_1_9,2022-02-17T12:54:04.492Z,,,,,,,,,,,,,,,,,11,,,,,,,,,,,,,,359.8999999999942,,response,,,,4,D,,,,,,Space,keypress(Space),,,,silence,,,,----- -- ---- --- -- --- -------- ------------ ---------- is<br>- ------- ------ --------- -- ------------ -- --- ---- -----<br>------ ---- ---- ------ ------ ------- --- ----- ---------<br>---- --- -------- -------- --- --- -- ------- --- --- -----<br>-- --- ------ ------- --- --- -------- ---- --------- --<br>---------- -- -------- ----------------,214069,214068,213708,213707,213708.1,214068.94,,9,is
screen,html.Screen,2_3_1_0_1_10,2022-02-17T12:54:04.916Z,,,,,,,,,,,,,,,,,11,,,,,,,,,,,,,,421.0599999999977,,response,,,,4,D,,,,,,Space,keypress(Space),,,,silence,,,,----- -- ---- --- -- --- -------- ------------ ---------- --<br>a ------- ------ --------- -- ------------ -- --- ---- -----<br>------ ---- ---- ------ ------ ------- --- ----- ---------<br>---- --- -------- -------- --- --- -- ------- --- --- -----<br>-- --- ------ ------- --- --- -------- ---- --------- --<br>---------- -- -------- ----------------,214491,214490,214068.78,214069,214068.94,214491.94,,10,a
screen,html.Screen,2_3_1_0_1_11,2022-02-17T12:54:06.228Z,,,,,,,,,,,,,,,,,11,,,,,,,,,,,,,,1311.0599999999977,,response,,,,4,D,,,,,,Space,keypress(Space),,,,silence,,,,----- -- ---- --- -- --- -------- ------------ ---------- --<br>- writing ------ --------- -- ------------ -- --- ---- -----<br>------ ---- ---- ------ ------ ------- --- ----- ---------<br>---- --- -------- -------- --- --- -- ------- --- --- -----<br>-- --- ------ ------- --- --- -------- ---- --------- --<br>---------- -- -------- ----------------,215803,215803,214491.8,214491,214491.94,215804.26,,11,writing
screen,html.Screen,2_3_1_0_1_12,2022-02-17T12:54:06.628Z,,,,,,,,,,,,,,,,,11,,,,,,,,,,,,,,398.7399999999907,,response,,,,4,D,,,,,,Space,keypress(Space),,,,silence,,,,----- -- ---- --- -- --- -------- ------------ ---------- --<br>- ------- system --------- -- ------------ -- --- ---- -----<br>------ ---- ---- ------ ------ ------- --- ----- ---------<br>---- --- -------- -------- --- --- -- ------- --- --- -----<br>-- --- ------ ------- --- --- -------- ---- --------- --<br>---------- -- -------- ----------------,216204,216203,215804.1,215804,215804.26,216204.32,,12,system
screen,html.Screen,2_3_1_0_1_13,2022-02-17T12:54:07.052Z,,,,,,,,,,,,,,,,,11,,,,,,,,,,,,,,422.679999999993,,response,,,,4,D,,,,,,Space,keypress(Space),,,,silence,,,,----- -- ---- --- -- --- -------- ------------ ---------- --<br>- ------- ------ comprised -- ------------ -- --- ---- -----<br>------ ---- ---- ------ ------ ------- --- ----- ---------<br>---- --- -------- -------- --- --- -- ------- --- --- -----<br>-- --- ------ ------- --- --- -------- ---- --------- --<br>---------- -- -------- ----------------,216628,216627,216204.18,216204,216204.32,216628.14,,13,comprised
screen,html.Screen,2_3_1_0_1_14,2022-02-17T12:54:07.308Z,,,,,,,,,,,,,,,,,11,,,,,,,,,,,,,,254.85999999998603,,response,,,,4,D,,,,,,Space,keypress(Space),,,,silence,,,,----- -- ---- --- -- --- -------- ------------ ---------- --<br>- ------- ------ --------- of ------------ -- --- ---- -----<br>------ ---- ---- ------ ------ ------- --- ----- ---------<br>---- --- -------- -------- --- --- -- ------- --- --- -----<br>-- --- ------ ------- --- --- -------- ---- --------- --<br>---------- -- -------- ----------------,216884,216883,216627.98,216628,216628.14,216884.54,,14,of
screen,html.Screen,2_3_1_0_1_15,2022-02-17T12:54:07.516Z,,,,,,,,,,,,,,,,,11,,,,,,,,,,,,,,206.45999999999185,,response,,,,4,D,,,,,,Space,keypress(Space),,,,silence,,,,----- -- ---- --- -- --- -------- ------------ ---------- --<br>- ------- ------ --------- -- pictographs. -- --- ---- -----<br>------ ---- ---- ------ ------ ------- --- ----- ---------<br>---- --- -------- -------- --- --- -- ------- --- --- -----<br>-- --- ------ ------- --- --- -------- ---- --------- --<br>---------- -- -------- ----------------,217091,217091,216884.36,216884,216884.54,217092.12,,15,pictographs.
screen,html.Screen,2_3_1_0_1_16,2022-02-17T12:54:09.245Z,,,,,,,,,,,,,,,,,11,,,,,,,,,,,,,,1727.8800000000047,,response,,,,4,D,,,,,,Space,keypress(Space),,,,silence,,,,----- -- ---- --- -- --- -------- ------------ ---------- --<br>- ------- ------ --------- -- ------------ It --- ---- -----<br>------ ---- ---- ------ ------ ------- --- ----- ---------<br>---- --- -------- -------- --- --- -- ------- --- --- -----<br>-- --- ------ ------- --- --- -------- ---- --------- --<br>---------- -- -------- ----------------,218821,218820,217091.98,217092,217092.12,218821.58,,16,It
screen,html.Screen,2_3_1_0_1_17,2022-02-17T12:54:09.660Z,,,,,,,,,,,,,,,,,11,,,,,,,,,,,,,,413.4200000000128,,response,,,,4,D,,,,,,Space,keypress(Space),,,,silence,,,,----- -- ---- --- -- --- -------- ------------ ---------- --<br>- ------- ------ --------- -- ------------ -- has ---- -----<br>------ ---- ---- ------ ------ ------- --- ----- ---------<br>---- --- -------- -------- --- --- -- ------- --- --- -----<br>-- --- ------ ------- --- --- -------- ---- --------- --<br>---------- -- -------- ----------------,219236,219235,218821.44,218822,218821.58,219236.62,,17,has
screen,html.Screen,2_3_1_0_1_18,2022-02-17T12:54:09.900Z,,,,,,,,,,,,,,,,,11,,,,,,,,,,,,,,239.38000000000466,,response,,,,4,D,,,,,,Space,keypress(Space),,,,silence,,,,----- -- ---- --- -- --- -------- ------------ ---------- --<br>- ------- ------ --------- -- ------------ -- --- been -----<br>------ ---- ---- ------ ------ ------- --- ----- ---------<br>---- --- -------- -------- --- --- -- ------- --- --- -----<br>-- --- ------ ------- --- --- -------- ---- --------- --<br>---------- -- -------- ----------------,219477,219476,219236.46,219236,219236.62,219476.34,,18,been
screen,html.Screen,2_3_1_0_1_19,2022-02-17T12:54:10.148Z,,,,,,,,,,,,,,,,,11,,,,,,,,,,,,,,247.6600000000035,,response,,,,4,D,,,,,,Space,keypress(Space),,,,silence,,,,----- -- ---- --- -- --- -------- ------------ ---------- --<br>- ------- ------ --------- -- ------------ -- --- ---- found<br>------ ---- ---- ------ ------ ------- --- ----- ---------<br>---- --- -------- -------- --- --- -- ------- --- --- -----<br>-- --- ------ ------- --- --- -------- ---- --------- --<br>---------- -- -------- ----------------,219724,219724,219476.2,219477,219476.34,219724.84,,19,found
screen,html.Screen,2_3_1_0_1_20,2022-02-17T12:54:10.492Z,,,,,,,,,,,,,,,,,11,,,,,,,,,,,,,,343.1600000000035,,response,,,,4,D,,,,,,Space,keypress(Space),,,,silence,,,,----- -- ---- --- -- --- -------- ------------ ---------- --<br>- ------- ------ --------- -- ------------ -- --- ---- -----<br>carved ---- ---- ------ ------ ------- --- ----- ---------<br>---- --- -------- -------- --- --- -- ------- --- --- -----<br>-- --- ------ ------- --- --- -------- ---- --------- --<br>---------- -- -------- ----------------,220068,220068,219724.68,219725,219724.84,220068.58,,20,carved
screen,html.Screen,2_3_1_0_1_21,2022-02-17T12:54:10.781Z,,,,,,,,,,,,,,,,,11,,,,,,,,,,,,,,287.4200000000128,,response,,,,4,D,,,,,,Space,keypress(Space),,,,silence,,,,----- -- ---- --- -- --- -------- ------------ ---------- --<br>- ------- ------ --------- -- ------------ -- --- ---- -----<br>------ into ---- ------ ------ ------- --- ----- ---------<br>---- --- -------- -------- --- --- -- ------- --- --- -----<br>-- --- ------ ------- --- --- -------- ---- --------- --<br>---------- -- -------- ----------------,220357,220356,220068.4,220068,220068.58,220357.56,,21,into
screen,html.Screen,2_3_1_0_1_22,2022-02-17T12:54:10.974Z,,,,,,,,,,,,,,,,,11,,,,,,,,,,,,,,190.44000000000233,,response,,,,4,D,,,,,,Space,keypress(Space),,,,silence,,,,----- -- ---- --- -- --- -------- ------------ ---------- --<br>- ------- ------ --------- -- ------------ -- --- ---- -----<br>------ ---- many ------ ------ ------- --- ----- ---------<br>---- --- -------- -------- --- --- -- ------- --- --- -----<br>-- --- ------ ------- --- --- -------- ---- --------- --<br>---------- -- -------- ----------------,220549,220548,220357.38,220357,220357.56,220557.68,,22,many
screen,html.Screen,2_3_1_0_1_23,2022-02-17T12:54:11.366Z,,,,,,,,,,,,,,,,,11,,,,,,,,,,,,,,383.320000000007,,response,,,,4,D,,,,,,Space,keypress(Space),,,,silence,,,,----- -- ---- --- -- --- -------- ------------ ---------- --<br>- ------- ------ --------- -- ------------ -- --- ---- -----<br>------ ---- ---- oblong ------ ------- --- ----- ---------<br>---- --- -------- -------- --- --- -- ------- --- --- -----<br>-- --- ------ ------- --- --- -------- ---- --------- --<br>---------- -- -------- ----------------,220942,220941,220549.24,220549,220557.68,220942,,23,oblong
screen,html.Screen,2_3_1_0_1_24,2022-02-17T12:54:11.693Z,,,,,,,,,,,,,,,,,11,,,,,,,,,,,,,,326,,response,,,,4,D,,,,,,Space,keypress(Space),,,,silence,,,,----- -- ---- --- -- --- -------- ------------ ---------- --<br>- ------- ------ --------- -- ------------ -- --- ---- -----<br>------ ---- ---- ------ wooden ------- --- ----- ---------<br>---- --- -------- -------- --- --- -- ------- --- --- -----<br>-- --- ------ ------- --- --- -------- ---- --------- --<br>---------- -- -------- ----------------,221269,221268,220941.84,220942,220942,221269.34,,24,wooden
screen,html.Screen,2_3_1_0_1_25,2022-02-17T12:54:12.085Z,,,,,,,,,,,,,,,,,11,,,,,,,,,,,,,,390.6600000000035,,response,,,,4,D,,,,,,Space,keypress(Space),,,,silence,,,,----- -- ---- --- -- --- -------- ------------ ---------- --<br>- ------- ------ --------- -- ------------ -- --- ---- -----<br>------ ---- ---- ------ ------ tablets --- ----- ---------<br>---- --- -------- -------- --- --- -- ------- --- --- -----<br>-- --- ------ ------- --- --- -------- ---- --------- --<br>---------- -- -------- ----------------,221661,221660,221269.16,221269,221269.34,221661.02,,25,tablets
screen,html.Screen,2_3_1_0_1_26,2022-02-17T12:54:12.469Z,,,,,,,,,,,,,,,,,11,,,,,,,,,,,,,,382.9800000000105,,response,,,,4,D,,,,,,Space,keypress(Space),,,,silence,,,,----- -- ---- --- -- --- -------- ------------ ---------- --<br>- ------- ------ --------- -- ------------ -- --- ---- -----<br>------ ---- ---- ------ ------ ------- and ----- ---------<br>---- --- -------- -------- --- --- -- ------- --- --- -----<br>-- --- ------ ------- --- --- -------- ---- --------- --<br>---------- -- -------- ----------------,222045,222044,221660.84,221661,221661.02,222045.1,,26,and
screen,html.Screen,2_3_1_0_1_27,2022-02-17T12:54:12.805Z,,,,,,,,,,,,,,,,,11,,,,,,,,,,,,,,334.8999999999942,,response,,,,4,D,,,,,,Space,keypress(Space),,,,silence,,,,----- -- ---- --- -- --- -------- ------------ ---------- --<br>- ------- ------ --------- -- ------------ -- --- ---- -----<br>------ ---- ---- ------ ------ ------- --- other ---------<br>---- --- -------- -------- --- --- -- ------- --- --- -----<br>-- --- ------ ------- --- --- -------- ---- --------- --<br>---------- -- -------- ----------------,222380,222380,222044.98,222045,222045.1,222380.74,,27,other
screen,html.Screen,2_3_1_0_1_28,2022-02-17T12:54:13.197Z,,,,,,,,,,,,,,,,,11,,,,,,,,,,,,,,392.2600000000093,,response,,,,4,D,,,,,,Space,keypress(Space),,,,silence,,,,----- -- ---- --- -- --- -------- ------------ ---------- --<br>- ------- ------ --------- -- ------------ -- --- ---- -----<br>------ ---- ---- ------ ------ ------- --- ----- artifacts<br>---- --- -------- -------- --- --- -- ------- --- --- -----<br>-- --- ------ ------- --- --- -------- ---- --------- --<br>---------- -- -------- ----------------,222774,222773,222380.58,222381,222380.74,222773.96,,28,artifacts
screen,html.Screen,2_3_1_0_1_29,2022-02-17T12:54:13.630Z,,,,,,,,,,,,,,,,,11,,,,,,,,,,,,,,431.04000000000815,,response,,,,4,D,,,,,,Space,keypress(Space),,,,silence,,,,----- -- ---- --- -- --- -------- ------------ ---------- --<br>- ------- ------ --------- -- ------------ -- --- ---- -----<br>------ ---- ---- ------ ------ ------- --- ----- ---------<br>from --- -------- -------- --- --- -- ------- --- --- -----<br>-- --- ------ ------- --- --- -------- ---- --------- --<br>---------- -- -------- ----------------,223205,223205,222773.76,222774,222773.96,223205.98,,29,from
screen,html.Screen,2_3_1_0_1_30,2022-02-17T12:54:13.901Z,,,,,,,,,,,,,,,,,11,,,,,,,,,,,,,,270.0199999999895,,response,,,,4,D,,,,,,Space,keypress(Space),,,,silence,,,,----- -- ---- --- -- --- -------- ------------ ---------- --<br>- ------- ------ --------- -- ------------ -- --- ---- -----<br>------ ---- ---- ------ ------ ------- --- ----- ---------<br>---- the -------- -------- --- --- -- ------- --- --- -----<br>-- --- ------ ------- --- --- -------- ---- --------- --<br>---------- -- -------- ----------------,223476,223476,223205.78,223206,223205.98,223477.08,,30,the
screen,html.Screen,2_3_1_0_1_31,2022-02-17T12:54:14.293Z,,,,,,,,,,,,,,,,,11,,,,,,,,,,,,,,391.9200000000128,,response,,,,4,D,,,,,,Space,keypress(Space),,,,silence,,,,----- -- ---- --- -- --- -------- ------------ ---------- --<br>- ------- ------ --------- -- ------------ -- --- ---- -----<br>------ ---- ---- ------ ------ ------- --- ----- ---------<br>---- --- island's -------- --- --- -- ------- --- --- -----<br>-- --- ------ ------- --- --- -------- ---- --------- --<br>---------- -- -------- ----------------,223870,223869,223476.92,223477,223477.08,223869.54,,31,island's
screen,html.Screen,2_3_1_0_1_32,2022-02-17T12:54:14.653Z,,,,,,,,,,,,,,,,,11,,,,,,,,,,,,,,359.45999999999185,,response,,,,4,D,,,,,,Space,keypress(Space),,,,silence,,,,----- -- ---- --- -- --- -------- ------------ ---------- --<br>- ------- ------ --------- -- ------------ -- --- ---- -----<br>------ ---- ---- ------ ------ ------- --- ----- ---------<br>---- --- -------- history. --- --- -- ------- --- --- -----<br>-- --- ------ ------- --- --- -------- ---- --------- --<br>---------- -- -------- ----------------,224229,224229,223869.46,223870,223869.54,224229.58,,32,history.
screen,html.Screen,2_3_1_0_1_33,2022-02-17T12:54:15.637Z,,,,,,,,,,,,,,,,,11,,,,,,,,,,,,,,983.4200000000128,,response,,,,4,D,,,,,,Space,keypress(Space),,,,silence,,,,----- -- ---- --- -- --- -------- ------------ ---------- --<br>- ------- ------ --------- -- ------------ -- --- ---- -----<br>------ ---- ---- ------ ------ ------- --- ----- ---------<br>---- --- -------- -------- The --- -- ------- --- --- -----<br>-- --- ------ ------- --- --- -------- ---- --------- --<br>---------- -- -------- ----------------,225214,225213,224229.38,224229,224229.58,225213.56,,33,The
screen,html.Screen,2_3_1_0_1_34,2022-02-17T12:54:16.566Z,,,,,,,,,,,,,,,,,11,,,,,,,,,,,,,,927.4400000000023,,response,,,,4,D,,,,,,Space,keypress(Space),,,,silence,,,,----- -- ---- --- -- --- -------- ------------ ---------- --<br>- ------- ------ --------- -- ------------ -- --- ---- -----<br>------ ---- ---- ------ ------ ------- --- ----- ---------<br>---- --- -------- -------- --- art -- ------- --- --- -----<br>-- --- ------ ------- --- --- -------- ---- --------- --<br>---------- -- -------- ----------------,226142,226141,225213.44,225214,225213.56,226142.12,,34,art
screen,html.Screen,2_3_1_0_1_35,2022-02-17T12:54:16.958Z,,,,,,,,,,,,,,,,,11,,,,,,,,,,,,,,390.88000000000466,,response,,,,4,D,,,,,,Space,keypress(Space),,,,silence,,,,----- -- ---- --- -- --- -------- ------------ ---------- --<br>- ------- ------ --------- -- ------------ -- --- ---- -----<br>------ ---- ---- ------ ------ ------- --- ----- ---------<br>---- --- -------- -------- --- --- of ------- --- --- -----<br>-- --- ------ ------- --- --- -------- ---- --------- --<br>---------- -- -------- ----------------,226534,226533,226141.88,226142,226142.12,226534.42,,35,of
screen,html.Screen,2_3_1_0_1_36,2022-02-17T12:54:17.149Z,,,,,,,,,,,,,,,,,11,,,,,,,,,,,,,,189.5799999999872,,response,,,,4,D,,,,,,Space,keypress(Space),,,,silence,,,,----- -- ---- --- -- --- -------- ------------ ---------- --<br>- ------- ------ --------- -- ------------ -- --- ---- -----<br>------ ---- ---- ------ ------ ------- --- ----- ---------<br>---- --- -------- -------- --- --- -- writing --- --- -----<br>-- --- ------ ------- --- --- -------- ---- --------- --<br>---------- -- -------- ----------------,226725,226724,226534.26,226534,226534.42,226733.98,,36,writing
screen,html.Screen,2_3_1_0_1_37,2022-02-17T12:54:17.422Z,,,,,,,,,,,,,,,,,11,,,,,,,,,,,,,,262.0199999999895,,response,,,,4,D,,,,,,Space,keypress(Space),,,,silence,,,,----- -- ---- --- -- --- -------- ------------ ---------- --<br>- ------- ------ --------- -- ------------ -- --- ---- -----<br>------ ---- ---- ------ ------ ------- --- ----- ---------<br>---- --- -------- -------- --- --- -- ------- was --- -----<br>-- --- ------ ------- --- --- -------- ---- --------- --<br>---------- -- -------- ----------------,226997,226996,226725.14,226725,226733.98,226997.48,,37,was
screen,html.Screen,2_3_1_0_1_38,2022-02-17T12:54:17.654Z,,,,,,,,,,,,,,,,,11,,,,,,,,,,,,,,231.51999999998952,,response,,,,4,D,,,,,,Space,keypress(Space),,,,silence,,,,----- -- ---- --- -- --- -------- ------------ ---------- --<br>- ------- ------ --------- -- ------------ -- --- ---- -----<br>------ ---- ---- ------ ------ ------- --- ----- ---------<br>---- --- -------- -------- --- --- -- ------- --- not -----<br>-- --- ------ ------- --- --- -------- ---- --------- --<br>---------- -- -------- ----------------,227230,227229,226997.34,226997,226997.48,227229.38,,38,not
screen,html.Screen,2_3_1_0_1_39,2022-02-17T12:54:17.862Z,,,,,,,,,,,,,,,,,11,,,,,,,,,,,,,,207.61999999999534,,response,,,,4,D,,,,,,Space,keypress(Space),,,,silence,,,,----- -- ---- --- -- --- -------- ------------ ---------- --<br>- ------- ------ --------- -- ------------ -- --- ---- -----<br>------ ---- ---- ------ ------ ------- --- ----- ---------<br>---- --- -------- -------- --- --- -- ------- --- --- known<br>-- --- ------ ------- --- --- -------- ---- --------- --<br>---------- -- -------- ----------------,227437,227437,227229.24,227230,227229.38,227438.08,,39,known
screen,html.Screen,2_3_1_0_1_40,2022-02-17T12:54:18.406Z,,,,,,,,,,,,,,,,,11,,,,,,,,,,,,,,543.9200000000128,,response,,,,4,D,,,,,,Space,keypress(Space),,,,silence,,,,----- -- ---- --- -- --- -------- ------------ ---------- --<br>- ------- ------ --------- -- ------------ -- --- ---- -----<br>------ ---- ---- ------ ------ ------- --- ----- ---------<br>---- --- -------- -------- --- --- -- ------- --- --- -----<br>in --- ------ ------- --- --- -------- ---- --------- --<br>---------- -- -------- ----------------,227983,227982,227437.9,227437,227438.08,227983.02,,40,in
screen,html.Screen,2_3_1_0_1_41,2022-02-17T12:54:18.766Z,,,,,,,,,,,,,,,,,11,,,,,,,,,,,,,,356.9800000000105,,response,,,,4,D,,,,,,Space,keypress(Space),,,,silence,,,,----- -- ---- --- -- --- -------- ------------ ---------- --<br>- ------- ------ --------- -- ------------ -- --- ---- -----<br>------ ---- ---- ------ ------ ------- --- ----- ---------<br>---- --- -------- -------- --- --- -- ------- --- --- -----<br>-- any ------ ------- --- --- -------- ---- --------- --<br>---------- -- -------- ----------------,228341,228340,227982.72,227983,227983.02,228341.76,,41,any
screen,html.Screen,2_3_1_0_1_42,2022-02-17T12:54:19.093Z,,,,,,,,,,,,,,,,,11,,,,,,,,,,,,,,327.2399999999907,,response,,,,4,D,,,,,,Space,keypress(Space),,,,silence,,,,----- -- ---- --- -- --- -------- ------------ ---------- --<br>- ------- ------ --------- -- ------------ -- --- ---- -----<br>------ ---- ---- ------ ------ ------- --- ----- ---------<br>---- --- -------- -------- --- --- -- ------- --- --- -----<br>-- --- nearby ------- --- --- -------- ---- --------- --<br>---------- -- -------- ----------------,228670,228669,228341.6,228341,228341.76,228669.66,,42,nearby
screen,html.Screen,2_3_1_0_1_43,2022-02-17T12:54:19.429Z,,,,,,,,,,,,,,,,,11,,,,,,,,,,,,,,335.3399999999965,,response,,,,4,D,,,,,,Space,keypress(Space),,,,silence,,,,----- -- ---- --- -- --- -------- ------------ ---------- --<br>- ------- ------ --------- -- ------------ -- --- ---- -----<br>------ ---- ---- ------ ------ ------- --- ----- ---------<br>---- --- -------- -------- --- --- -- ------- --- --- -----<br>-- --- ------ islands --- --- -------- ---- --------- --<br>---------- -- -------- ----------------,229006,229005,228669.54,228670,228669.66,229005.76,,43,islands
screen,html.Screen,2_3_1_0_1_44,2022-02-17T12:54:19.733Z,,,,,,,,,,,,,,,,,11,,,,,,,,,,,,,,303.2399999999907,,response,,,,4,D,,,,,,Space,keypress(Space),,,,silence,,,,----- -- ---- --- -- --- -------- ------------ ---------- --<br>- ------- ------ --------- -- ------------ -- --- ---- -----<br>------ ---- ---- ------ ------ ------- --- ----- ---------<br>---- --- -------- -------- --- --- -- ------- --- --- -----<br>-- --- ------ ------- and --- -------- ---- --------- --<br>---------- -- -------- ----------------,229309,229309,229005.62,229006,229005.76,229309.58,,44,and
screen,html.Screen,2_3_1_0_1_45,2022-02-17T12:54:19.966Z,,,,,,,,,,,,,,,,,11,,,,,,,,,,,,,,232.4200000000128,,response,,,,4,D,,,,,,Space,keypress(Space),,,,silence,,,,----- -- ---- --- -- --- -------- ------------ ---------- --<br>- ------- ------ --------- -- ------------ -- --- ---- -----<br>------ ---- ---- ------ ------ ------- --- ----- ---------<br>---- --- -------- -------- --- --- -- ------- --- --- -----<br>-- --- ------ ------- --- the -------- ---- --------- --<br>---------- -- -------- ----------------,229542,229542,229309.46,229309,229309.58,229542.86,,45,the
screen,html.Screen,2_3_1_0_1_46,2022-02-17T12:54:20.151Z,,,,,,,,,,,,,,,,,11,,,,,,,,,,,,,,183.14000000001397,,response,,,,4,D,,,,,,Space,keypress(Space),,,,silence,,,,----- -- ---- --- -- --- -------- ------------ ---------- --<br>- ------- ------ --------- -- ------------ -- --- ---- -----<br>------ ---- ---- ------ ------ ------- --- ----- ---------<br>---- --- -------- -------- --- --- -- ------- --- --- -----<br>-- --- ------ ------- --- --- script's ---- --------- --<br>---------- -- -------- ----------------,229727,229726,229542.62,229542,229542.86,229742.64,,46,script's
screen,html.Screen,2_3_1_0_1_47,2022-02-17T12:54:20.383Z,,,,,,,,,,,,,,,,,11,,,,,,,,,,,,,,214.35999999998603,,response,,,,4,D,,,,,,Space,keypress(Space),,,,silence,,,,----- -- ---- --- -- --- -------- ------------ ---------- --<br>- ------- ------ --------- -- ------------ -- --- ---- -----<br>------ ---- ---- ------ ------ ------- --- ----- ---------<br>---- --- -------- -------- --- --- -- ------- --- --- -----<br>-- --- ------ ------- --- --- -------- mere --------- --<br>---------- -- -------- ----------------,229958,229957,229726.52,229727,229742.64,229958.84,,47,mere
screen,html.Screen,2_3_1_0_1_48,2022-02-17T12:54:20.702Z,,,,,,,,,,,,,,,,,11,,,,,,,,,,,,,,318.1600000000035,,response,,,,4,D,,,,,,Space,keypress(Space),,,,silence,,,,----- -- ---- --- -- --- -------- ------------ ---------- --<br>- ------- ------ --------- -- ------------ -- --- ---- -----<br>------ ---- ---- ------ ------ ------- --- ----- ---------<br>---- --- -------- -------- --- --- -- ------- --- --- -----<br>-- --- ------ ------- --- --- -------- ---- existence --<br>---------- -- -------- ----------------,230278,230277,229958.68,229959,229958.84,230278.04,,48,existence
screen,html.Screen,2_3_1_0_1_49,2022-02-17T12:54:21.134Z,,,,,,,,,,,,,,,,,11,,,,,,,,,,,,,,431.95999999999185,,response,,,,4,D,,,,,,Space,keypress(Space),,,,silence,,,,----- -- ---- --- -- --- -------- ------------ ---------- --<br>- ------- ------ --------- -- ------------ -- --- ---- -----<br>------ ---- ---- ------ ------ ------- --- ----- ---------<br>---- --- -------- -------- --- --- -- ------- --- --- -----<br>-- --- ------ ------- --- --- -------- ---- --------- is<br>---------- -- -------- ----------------,230710,230710,230277.86,230278,230278.04,230710.08,,49,is
screen,html.Screen,2_3_1_0_1_50,2022-02-17T12:54:21.575Z,,,,,,,,,,,,,,,,,11,,,,,,,,,,,,,,438.9200000000128,,response,,,,4,D,,,,,,Space,keypress(Space),,,,silence,,,,----- -- ---- --- -- --- -------- ------------ ---------- --<br>- ------- ------ --------- -- ------------ -- --- ---- -----<br>------ ---- ---- ------ ------ ------- --- ----- ---------<br>---- --- -------- -------- --- --- -- ------- --- --- -----<br>-- --- ------ ------- --- --- -------- ---- --------- --<br>sufficient -- -------- ----------------,231150,231149,230709.92,230710,230710.08,231151.24,,50,sufficient
