sender,sender_type,sender_id,timestamp,meta,,Blues,Classical,Country,Dance,Electronic,Folk,Gospel,Hip-Hop,Jazz,Latin,Musical/Film,New-age,Pop,Prolific_id,Provo_ID,R&B,Rap,Reggae,Religious,Rock,Soul,Swing,Traditional,age,artist_name,correct,correctResponse,distraction,duration,education,ended_on,familiarity,gender,headphone_check_performance,item,list,music_frequency,offensiveness,pleasantness,position_correct,preference,response,response_action,snippet_file,song_name,song_rating,sound,stimulus_1,stimulus_2,stimulus_3,text,time_commit,time_end,time_render,time_run,time_show,time_switch,url,word,word_ID
Prolific ID,html.Form,0,2022-02-17T12:51:33.041Z,"{""labjs_version"":""20.2.2"",""labjs_build"":{""flavor"":""production"",""commit"":""a25486e0c714a0ae2ce03ff94b7bb6896854dcfa""},""location"":""https://run.pavlovia.org/mvasilev/prolific2_music_d/"",""userAgent"":""Mozilla/5.0 (Windows NT 10.0; Win64; x64) AppleWebKit/537.36 (KHTML, like Gecko) Chrome/98.0.4758.102 Safari/537.36"",""platform"":""Win32"",""language"":""en-GB"",""locale"":""en-GB"",""timeZone"":""Europe/London"",""timezoneOffset"":0,""screen_width"":1366,""screen_height"":768,""scroll_width"":1366,""scroll_height"":609,""window_innerWidth"":1366,""window_innerHeight"":657,""devicePixelRatio"":1}",,,,,,,,,,,,,,,5e585dbccd2043073aedfc5a,,,,,,,,,,,,,,,3451.5859999046334,,form submission,,,,,,,,,,,,,,,,,,,,,16390.299999713898,16389.599999904633,12904.658,12918,12938.014,16391.124,{},,
Introduction,html.Screen,1_0,2022-02-17T12:51:41.782Z,,,,,,,,,,,,,,,,,,,,,,,,,,,,,,,8738.075999809265,,response,,,,,,,,,,,continue,click button,,,,,,,,,25131.599999904633,25129.199999809265,16374.446,16390.699999809265,16391.124,25132.227,,,
Volume calibration,html.Screen,1_1,2022-02-17T12:51:51.134Z,,,,,,,,,,,,,,,,,,,,,,,,,,,,,,,9348.672999618531,,response,,,,,,,,,,,continue,click button,,,,,,,,,34484,34480.89999961853,25115.549,25131.799999713898,25132.227,34490.588,,,
Task instructions,html.Screen,1_2,2022-02-17T12:51:56.004Z,,,,,,,,,,,,,,,,,,,,,,,,,,,,,,,4862.411999999997,,response,,,,,,,,,,,continue,click button,,,,,,,,,39353.7999997139,39353,34473.91,34484.199999809265,34490.588,39361.479,,,
Sounds,html.Screen,1_3_0_0,2022-02-17T12:52:00.251Z,,,,,,,,,,,,,,,,,,,,,,,,,,,,,,,4253.092000000004,,timeout,,,,,,,,,1,,,,,,,,S,O,I,,43600.2999997139,43597.893,39344.801,39354,39361.479,43614.571,,,
Judgement,html.Screen,1_3_0_1,2022-02-17T12:52:05.212Z,,,,,,,,,,,,,,,,,,,,,,,,,,,,true,1,,4946.328999618527,,response,,,,,,,,,1,,1,click #choice-1,,,,,S,O,I,,48561.7999997139,48560.89999961853,43597.893,43600.5,43614.571,48569.339,,,
Trial,flow.Sequence,1_3_0,2022-02-17T12:52:05.214Z,,,,,,,,,,,,,,,,,,,,,,,,,,,,,,,9199.420999618531,,completion,,,,,,,,,1,,,,,,,,S,O,I,,48563.2999997139,48560.89999961853,39344.801,39354,39361.479,48569.339,,,
Sounds,html.Screen,1_3_1_0,2022-02-17T12:52:09.458Z,,,,,,,,,,,,,,,,,,,,,,,,,,,,,,,4253.379999999997,,timeout,,,,,,,,,3,,,,,,,,I,O,S,,52807.2999997139,52806.041,48552.661,48563.59999990463,48569.339,52822.719,,,
Judgement,html.Screen,1_3_1_1,2022-02-17T12:52:09.909Z,,,,,,,,,,,,,,,,,,,,,,,,,,,,true,3,,434.18099961853295,,response,,,,,,,,,3,,3,click #choice-3,,,,,I,O,S,,53258.199999809265,53256.89999961853,52806.041,52807.5,52822.719,53273.774,,,
Trial,flow.Sequence,1_3_1,2022-02-17T12:52:09.909Z,,,,,,,,,,,,,,,,,,,,,,,,,,,,,,,4687.56099961853,,completion,,,,,,,,,3,,,,,,,,I,O,S,,53258.39999961853,53256.89999961853,48552.661,48563.2999997139,48569.339,53273.774,,,
Sounds,html.Screen,1_3_2_0,2022-02-17T12:52:14.162Z,,,,,,,,,,,,,,,,,,,,,,,,,,,,,,,4252.942999999999,,timeout,,,,,,,,,3,,,,,,,,O,I,S,,57511.199999809265,57510.039,53257.096,53258.5,53273.774,57526.717,,,
Judgement,html.Screen,1_3_2_1,2022-02-17T12:52:15.116Z,,,,,,,,,,,,,,,,,,,,,,,,,,,,true,3,,937.9829998092682,,response,,,,,,,,,3,,3,click #choice-3,,,,,O,I,S,,58465.699999809265,58464.699999809265,57510.039,57511.2999997139,57526.717,58478.287,,,
Trial,flow.Sequence,1_3_2,2022-02-17T12:52:15.116Z,,,,,,,,,,,,,,,,,,,,,,,,,,,,,,,5190.9259998092675,,completion,,,,,,,,,3,,,,,,,,O,I,S,,58465.89999961853,58464.699999809265,53257.096,53258.5,53273.774,58478.287,,,
Sounds,html.Screen,1_3_3_0,2022-02-17T12:52:19.366Z,,,,,,,,,,,,,,,,,,,,,,,,,,,,,,,4253.094000000005,,timeout,,,,,,,,,1,,,,,,,,S,I,O,,62715.7999997139,62714.703,58461.609,58466,58478.287,62731.381,,,
Judgement,html.Screen,1_3_3_1,2022-02-17T12:52:19.884Z,,,,,,,,,,,,,,,,,,,,,,,,,,,,true,1,,501.4189997138965,,response,,,,,,,,,1,,1,click #choice-1,,,,,S,I,O,,63233.699999809265,63232.7999997139,62714.703,62716,62731.381,63249.228,,,
Trial,flow.Sequence,1_3_3,2022-02-17T12:52:19.884Z,,,,,,,,,,,,,,,,,,,,,,,,,,,,,,,4754.512999713901,,completion,,,,,,,,,1,,,,,,,,S,I,O,,63233.89999961853,63232.7999997139,58461.609,58466,58478.287,63249.228,,,
Sounds,html.Screen,1_3_4_0,2022-02-17T12:52:24.137Z,,,,,,,,,,,,,,,,,,,,,,,,,,,,,,,4253.050999999992,,timeout,,,,,,,,,2,,,,,,,,O,S,I,,67486.7999997139,67485.601,63232.55,63234,63249.228,67502.279,,,
Judgement,html.Screen,1_3_4_1,2022-02-17T12:52:24.516Z,,,,,,,,,,,,,,,,,,,,,,,,,,,,true,2,,362.3209999046376,,response,,,,,,,,,2,,2,click #choice-2,,,,,O,S,I,,67865.39999961853,67864.59999990463,67485.601,67487,67502.279,67870.034,,,
Trial,flow.Sequence,1_3_4,2022-02-17T12:52:24.516Z,,,,,,,,,,,,,,,,,,,,,,,,,,,,,,,4615.37199990463,,completion,,,,,,,,,2,,,,,,,,O,S,I,,67865.5,67864.59999990463,63232.55,63233.89999961853,63249.228,67870.034,,,
Sounds,html.Screen,1_3_5_0,2022-02-17T12:52:28.759Z,,,,,,,,,,,,,,,,,,,,,,,,,,,,,,,4253.611000000004,,timeout,,,,,,,,,2,,,,,,,,I,S,O,,72108.2999997139,72106.967,67853.356,67865.59999990463,67870.034,72123.645,,,
Judgement,html.Screen,1_3_5_1,2022-02-17T12:52:29.636Z,,,,,,,,,,,,,,,,,,,,,,,,,,,,false,2,,860.8549999999959,,response,,,,,,,,,2,,3,click #choice-3,,,,,I,S,O,,72985.59999990463,72984.5,72106.967,72108.39999961853,72123.645,73007.946,,,
Trial,flow.Sequence,1_3_5,2022-02-17T12:52:29.636Z,,,,,,,,,,,,,,,,,,,,,,,,,,,,,,,5114.466,,completion,,,,,,,,,2,,,,,,,,I,S,O,,72985.69999980927,72984.5,67853.356,67865.59999990463,67870.034,73007.946,,,
Task,flow.Loop,1_3,2022-02-17T12:52:29.640Z,,,,,,,,,,,,,,,,,,,,,,,,,,,,,,,33623.021,,completion,,,0.8333333333333334,,,,,,,,,,,,,,,,,,72990,72984.5,39344.801,39353.89999961853,39361.479,73007.946,,,
Trap,html.Screen,1_4,2022-02-17T12:52:29.641Z,,,,,,,,,,,,,,,,,,,,,,,,,,,,,,,NaN,,skipped,,,,,,,,,,,,,,,,,,,,,72991.09999990463,72984.5,,72991,,73007.946,,,
Thanks,html.Screen,1_5,2022-02-17T12:52:33.948Z,,,,,,,,,,,,,,,,,,,,,,,,,,,,,,,4288.753999809269,,response,,,,,,,,,,,continue,click button,,,,,,,,,77297.5,77296.69999980927,72991.268,72991.19999980927,73007.946,83215.844,,,
Headphone screening,flow.Sequence,1,2022-02-17T12:52:33.948Z,,,,,,,,,,,,,,,,,,,,,,,,,,,,,,,60905.57599980927,,completion,,,,,,,,,,,,,,,,,,,,,77297.69999980927,77296.69999980927,16374.446,16390.599999904633,16391.124,83215.844,,,
Instructions,html.Page,2_0,2022-02-17T12:53:26.396Z,,,,,,,,,,,,,,,,,,,,,,,,,,,,,,,46529.656,,form submission,,,,,,,,,,,,,,,,,,,,,129745.7999997139,129745.5,83182.488,83218.09999990463,83215.844,129757.794,,,
Holding screen,html.Screen,2_1_0_0,2022-02-17T12:53:36.385Z,,,,,,,,,,,,,,,,,,,,,,,,,,,,,,,10059.208000000013,,timeout,,,,,,,,,,,,,,,,,,,,,139734.09999990463,139733.612,129741.116,129746,129757.794,139817.002,,,
screen,html.Screen,2_1_0_1_0,2022-02-17T12:53:37.329Z,,,,,,,,,,,,,,,,,53,,,,,,,,,,,,,,859.0979999046249,,response,,,,99,,,,,,,Space,keypress(Space),,,,,,,,When -- ----- -- ------ - ------- --- ----------<br>------------- ------ ------ ---- ---- ------- ----- -- ----<br>-------- ------- -- ---------- --- - --- ----- ----- ----<br>---- --- --- ----- --- ---- ---- ------- ----- ---- -------<br>--- --- -- ----- -- --- ---- -- --- ---- -- ------ ------<br>--- ----- -- ----,140678.59999990463,140676.09999990463,139733.612,139734.2999997139,139817.002,140684.246,,0,When
screen,html.Screen,2_1_0_1_1,2022-02-17T12:53:37.986Z,,,,,,,,,,,,,,,,,53,,,,,,,,,,,,,,651.053999713884,,response,,,,99,,,,,,,Space,keypress(Space),,,,,,,,---- it ----- -- ------ - ------- --- ----------<br>------------- ------ ------ ---- ---- ------- ----- -- ----<br>-------- ------- -- ---------- --- - --- ----- ----- ----<br>---- --- --- ----- --- ---- ---- ------- ----- ---- -------<br>--- --- -- ----- -- --- ---- -- --- ---- -- ------ ------<br>--- ----- -- ----,141335.89999961853,141335.2999997139,140667.568,140678.7999997139,140684.246,141351.833,,1,it
screen,html.Screen,2_1_0_1_2,2022-02-17T12:53:38.730Z,,,,,,,,,,,,,,,,,53,,,,,,,,,,,,,,727.2669999046193,,response,,,,99,,,,,,,Space,keypress(Space),,,,,,,,---- -- comes -- ------ - ------- --- ----------<br>------------- ------ ------ ---- ---- ------- ----- -- ----<br>-------- ------- -- ---------- --- - --- ----- ----- ----<br>---- --- --- ----- --- ---- ---- ------- ----- ---- -------<br>--- --- -- ----- -- --- ---- -- --- ---- -- ------ ------<br>--- ----- -- ----,142079.7999997139,142079.09999990463,141335.155,141336.09999990463,141351.833,142085.519,,2,comes
screen,html.Screen,2_1_0_1_3,2022-02-17T12:53:39.196Z,,,,,,,,,,,,,,,,,53,,,,,,,,,,,,,,458.7809997138975,,response,,,,99,,,,,,,Space,keypress(Space),,,,,,,,---- -- ----- to ------ - ------- --- ----------<br>------------- ------ ------ ---- ---- ------- ----- -- ----<br>-------- ------- -- ---------- --- - --- ----- ----- ----<br>---- --- --- ----- --- ---- ---- ------- ----- ---- -------<br>--- --- -- ----- -- --- ---- -- --- ---- -- ------ ------<br>--- ----- -- ----,142545.19999980927,142544.2999997139,142068.841,142080,142085.519,142552.847,,3,to
screen,html.Screen,2_1_0_1_4,2022-02-17T12:53:39.607Z,,,,,,,,,,,,,,,,,53,,,,,,,,,,,,,,403.45299971388886,,response,,,,99,,,,,,,Space,keypress(Space),,,,,,,,---- -- ----- -- having - ------- --- ----------<br>------------- ------ ------ ---- ---- ------- ----- -- ----<br>-------- ------- -- ---------- --- - --- ----- ----- ----<br>---- --- --- ----- --- ---- ---- ------- ----- ---- -------<br>--- --- -- ----- -- --- ---- -- --- ---- -- ------ ------<br>--- ----- -- ----,142956.89999961853,142956.2999997139,142536.169,142545.2999997139,142552.847,142969.914,,4,having
screen,html.Screen,2_1_0_1_5,2022-02-17T12:53:39.956Z,,,,,,,,,,,,,,,,,53,,,,,,,,,,,,,,334.6859999046428,,response,,,,99,,,,,,,Space,keypress(Space),,,,,,,,---- -- ----- -- ------ a ------- --- ----------<br>------------- ------ ------ ---- ---- ------- ----- -- ----<br>-------- ------- -- ---------- --- - --- ----- ----- ----<br>---- --- --- ----- --- ---- ---- ------- ----- ---- -------<br>--- --- -- ----- -- --- ---- -- --- ---- -- ------ ------<br>--- ----- -- ----,143305.39999961853,143304.59999990463,142953.236,142957.09999990463,142969.914,143320.231,,5,a
screen,html.Screen,2_1_0_1_6,2022-02-17T12:53:40.286Z,,,,,,,,,,,,,,,,,53,,,,,,,,,,,,,,315.1689996185305,,response,,,,99,,,,,,,Space,keypress(Space),,,,,,,,---- -- ----- -- ------ - lasting --- ----------<br>------------- ------ ------ ---- ---- ------- ----- -- ----<br>-------- ------- -- ---------- --- - --- ----- ----- ----<br>---- --- --- ----- --- ---- ---- ------- ----- ---- -------<br>--- --- -- ----- -- --- ---- -- --- ---- -- ------ ------<br>--- ----- -- ----,143636.09999990463,143635.39999961853,143303.553,143305.5,143320.231,143637.204,,6,lasting
screen,html.Screen,2_1_0_1_7,2022-02-17T12:53:40.572Z,,,,,,,,,,,,,,,,,53,,,,,,,,,,,,,,283.2960000000021,,response,,,,99,,,,,,,Space,keypress(Space),,,,,,,,---- -- ----- -- ------ - ------- and ----------<br>------------- ------ ------ ---- ---- ------- ----- -- ----<br>-------- ------- -- ---------- --- - --- ----- ----- ----<br>---- --- --- ----- --- ---- ---- ------- ----- ---- -------<br>--- --- -- ----- -- --- ---- -- --- ---- -- ------ ------<br>--- ----- -- ----,143921.19999980927,143920.5,143620.526,143636.2999997139,143637.204,143937.454,,7,and
screen,html.Screen,2_1_0_1_8,2022-02-17T12:53:40.899Z,,,,,,,,,,,,,,,,,53,,,,,,,,,,,,,,310.3459997138998,,response,,,,99,,,,,,,Space,keypress(Space),,,,,,,,---- -- ----- -- ------ - ------- --- fulfilling<br>------------- ------ ------ ---- ---- ------- ----- -- ----<br>-------- ------- -- ---------- --- - --- ----- ----- ----<br>---- --- --- ----- --- ---- ---- ------- ----- ---- -------<br>--- --- -- ----- -- --- ---- -- --- ---- -- ------ ------<br>--- ----- -- ----,144248.5,144247.7999997139,143920.776,143921.39999961853,143937.454,144254.426,,8,fulfilling
screen,html.Screen,2_1_0_1_9,2022-02-17T12:53:41.261Z,,,,,,,,,,,,,,,,,53,,,,,,,,,,,,,,355.4739996185235,,response,,,,99,,,,,,,Space,keypress(Space),,,,,,,,"---- -- ----- -- ------ - ------- --- ----------<br>relationship, ------ ------ ---- ---- ------- ----- -- ----<br>-------- ------- -- ---------- --- - --- ----- ----- ----<br>---- --- --- ----- --- ---- ---- ------- ----- ---- -------<br>--- --- -- ----- -- --- ---- -- --- ---- -- ------ ------<br>--- ----- -- ----",144610.69999980927,144609.89999961853,144237.748,144248.69999980927,144254.426,144621.245,,9,"relationship,"
screen,html.Screen,2_1_0_1_10,2022-02-17T12:53:41.661Z,,,,,,,,,,,,,,,,,53,,,,,,,,,,,,,,388.9549998092698,,response,,,,99,,,,,,,Space,keypress(Space),,,,,,,,---- -- ----- -- ------ - ------- --- ----------<br>------------- common ------ ---- ---- ------- ----- -- ----<br>-------- ------- -- ---------- --- - --- ----- ----- ----<br>---- --- --- ----- --- ---- ---- ------- ----- ---- -------<br>--- --- -- ----- -- --- ---- -- --- ---- -- ------ ------<br>--- ----- -- ----,145010.89999961853,145010.19999980927,144604.567,144610.89999961853,144621.245,145021.758,,10,common
screen,html.Screen,2_1_0_1_11,2022-02-17T12:53:41.944Z,,,,,,,,,,,,,,,,,53,,,,,,,,,,,,,,271.34199990463094,,response,,,,99,,,,,,,Space,keypress(Space),,,,,,,,---- -- ----- -- ------ - ------- --- ----------<br>------------- ------ wisdom ---- ---- ------- ----- -- ----<br>-------- ------- -- ---------- --- - --- ----- ----- ----<br>---- --- --- ----- --- ---- ---- ------- ----- ---- -------<br>--- --- -- ----- -- --- ---- -- --- ---- -- ------ ------<br>--- ----- -- ----,145293.7999997139,145293.09999990463,145005.08,145011.19999980927,145021.758,145305.334,,11,wisdom
screen,html.Screen,2_1_0_1_12,2022-02-17T12:53:42.293Z,,,,,,,,,,,,,,,,,53,,,,,,,,,,,,,,335.96599971389514,,response,,,,99,,,,,,,Space,keypress(Space),,,,,,,,---- -- ----- -- ------ - ------- --- ----------<br>------------- ------ ------ says ---- ------- ----- -- ----<br>-------- ------- -- ---------- --- - --- ----- ----- ----<br>---- --- --- ----- --- ---- ---- ------- ----- ---- -------<br>--- --- -- ----- -- --- ---- -- --- ---- -- ------ ------<br>--- ----- -- ----,145642.39999961853,145641.2999997139,145288.656,145294,145305.334,145655.64,,12,says
screen,html.Screen,2_1_0_1_13,2022-02-17T12:53:42.620Z,,,,,,,,,,,,,,,,,53,,,,,,,,,,,,,,312.85999999998603,,response,,,,99,,,,,,,Space,keypress(Space),,,,,,,,---- -- ----- -- ------ - ------- --- ----------<br>------------- ------ ------ ---- that ------- ----- -- ----<br>-------- ------- -- ---------- --- - --- ----- ----- ----<br>---- --- --- ----- --- ---- ---- ------- ----- ---- -------<br>--- --- -- ----- -- --- ---- -- --- ---- -- ------ ------<br>--- ----- -- ----,145969.19999980927,145968.5,145638.962,145642.39999961853,145655.64,145972.535,,13,that
screen,html.Screen,2_1_0_1_14,2022-02-17T12:53:42.945Z,,,,,,,,,,,,,,,,,53,,,,,,,,,,,,,,321.3649996185268,,response,,,,99,,,,,,,Space,keypress(Space),,,,,,,,---- -- ----- -- ------ - ------- --- ----------<br>------------- ------ ------ ---- ---- feeling ----- -- ----<br>-------- ------- -- ---------- --- - --- ----- ----- ----<br>---- --- --- ----- --- ---- ---- ------- ----- ---- -------<br>--- --- -- ----- -- --- ---- -- --- ---- -- ------ ------<br>--- ----- -- ----,146294.59999990463,146293.89999961853,145955.857,145969.39999961853,145972.535,146306.232,,14,feeling
screen,html.Screen,2_1_0_1_15,2022-02-17T12:53:43.296Z,,,,,,,,,,,,,,,,,53,,,,,,,,,,,,,,338.9679998092761,,response,,,,99,,,,,,,Space,keypress(Space),,,,,,,,---- -- ----- -- ------ - ------- --- ----------<br>------------- ------ ------ ---- ---- ------- close -- ----<br>-------- ------- -- ---------- --- - --- ----- ----- ----<br>---- --- --- ----- --- ---- ---- ------- ----- ---- -------<br>--- --- -- ----- -- --- ---- -- --- ---- -- ------ ------<br>--- ----- -- ----,146646,146645.19999980927,146289.554,146294.7999997139,146306.232,146656.533,,15,close
screen,html.Screen,2_1_0_1_16,2022-02-17T12:53:43.639Z,,,,,,,,,,,,,,,,,53,,,,,,,,,,,,,,331.6669998092693,,response,,,,99,,,,,,,Space,keypress(Space),,,,,,,,---- -- ----- -- ------ - ------- --- ----------<br>------------- ------ ------ ---- ---- ------- ----- to ----<br>-------- ------- -- ---------- --- - --- ----- ----- ----<br>---- --- --- ----- --- ---- ---- ------- ----- ---- -------<br>--- --- -- ----- -- --- ---- -- --- ---- -- ------ ------<br>--- ----- -- ----,146989,146988.19999980927,146639.855,146646.09999990463,146656.533,146990.161,,16,to
screen,html.Screen,2_1_0_1_17,2022-02-17T12:53:43.945Z,,,,,,,,,,,,,,,,,53,,,,,,,,,,,,,,303.3390000000072,,response,,,,99,,,,,,,Space,keypress(Space),,,,,,,,---- -- ----- -- ------ - ------- --- ----------<br>------------- ------ ------ ---- ---- ------- ----- -- your<br>-------- ------- -- ---------- --- - --- ----- ----- ----<br>---- --- --- ----- --- ---- ---- ------- ----- ---- -------<br>--- --- -- ----- -- --- ---- -- --- ---- -- ------ ------<br>--- ----- -- ----,147294.2999997139,147293.5,146973.483,146989.09999990463,146990.161,147307.051,,17,your
screen,html.Screen,2_1_0_1_18,2022-02-17T12:53:44.291Z,,,,,,,,,,,,,,,,,53,,,,,,,,,,,,,,332.5489999046258,,response,,,,99,,,,,,,Space,keypress(Space),,,,,,,,---- -- ----- -- ------ - ------- --- ----------<br>------------- ------ ------ ---- ---- ------- ----- -- ----<br>romantic ------- -- ---------- --- - --- ----- ----- ----<br>---- --- --- ----- --- ---- ---- ------- ----- ---- -------<br>--- --- -- ----- -- --- ---- -- --- ---- -- ------ ------<br>--- ----- -- ----,147640.2999997139,147639.59999990463,147290.373,147294.5,147307.051,147657.409,,18,romantic
screen,html.Screen,2_1_0_1_19,2022-02-17T12:53:44.701Z,,,,,,,,,,,,,,,,,53,,,,,,,,,,,,,,392.8909997138835,,response,,,,99,,,,,,,Space,keypress(Space),,,,,,,,---- -- ----- -- ------ - ------- --- ----------<br>------------- ------ ------ ---- ---- ------- ----- -- ----<br>-------- partner -- ---------- --- - --- ----- ----- ----<br>---- --- --- ----- --- ---- ---- ------- ----- ---- -------<br>--- --- -- ----- -- --- ---- -- --- ---- -- ------ ------<br>--- ----- -- ----,148051.09999990463,148050.2999997139,147640.731,147640.5,147657.409,148057.773,,19,partner
screen,html.Screen,2_1_0_1_20,2022-02-17T12:53:45.055Z,,,,,,,,,,,,,,,,,53,,,,,,,,,,,,,,346.0269997139112,,response,,,,99,,,,,,,Space,keypress(Space),,,,,,,,---- -- ----- -- ------ - ------- --- ----------<br>------------- ------ ------ ---- ---- ------- ----- -- ----<br>-------- ------- is ---------- --- - --- ----- ----- ----<br>---- --- --- ----- --- ---- ---- ------- ----- ---- -------<br>--- --- -- ----- -- --- ---- -- --- ---- -- ------ ------<br>--- ----- -- ----,148404.5,148403.7999997139,148041.095,148051.19999980927,148057.773,148408.064,,20,is
screen,html.Screen,2_1_0_1_21,2022-02-17T12:53:45.450Z,,,,,,,,,,,,,,,,,53,,,,,,,,,,,,,,390.6359998092521,,response,,,,99,,,,,,,Space,keypress(Space),,,,,,,,---- -- ----- -- ------ - ------- --- ----------<br>------------- ------ ------ ---- ---- ------- ----- -- ----<br>-------- ------- -- paramount. --- - --- ----- ----- ----<br>---- --- --- ----- --- ---- ---- ------- ----- ---- -------<br>--- --- -- ----- -- --- ---- -- --- ---- -- ------ ------<br>--- ----- -- ----,148799.5,148798.69999980927,148391.386,148404.69999980927,148408.064,148808.396,,21,paramount.
screen,html.Screen,2_1_0_1_22,2022-02-17T12:53:45.839Z,,,,,,,,,,,,,,,,,53,,,,,,,,,,,,,,379.50399961852236,,response,,,,99,,,,,,,Space,keypress(Space),,,,,,,,---- -- ----- -- ------ - ------- --- ----------<br>------------- ------ ------ ---- ---- ------- ----- -- ----<br>-------- ------- -- ---------- But - --- ----- ----- ----<br>---- --- --- ----- --- ---- ---- ------- ----- ---- -------<br>--- --- -- ----- -- --- ---- -- --- ---- -- ------ ------<br>--- ----- -- ----,149188.5,149187.89999961853,148791.718,148799.69999980927,148808.396,149192.096,,22,But
screen,html.Screen,2_1_0_1_23,2022-02-17T12:53:46.210Z,,,,,,,,,,,,,,,,,53,,,,,,,,,,,,,,366.3039996185398,,response,,,,99,,,,,,,Space,keypress(Space),,,,,,,,---- -- ----- -- ------ - ------- --- ----------<br>------------- ------ ------ ---- ---- ------- ----- -- ----<br>-------- ------- -- ---------- --- a --- ----- ----- ----<br>---- --- --- ----- --- ---- ---- ------- ----- ---- -------<br>--- --- -- ----- -- --- ---- -- --- ---- -- ------ ------<br>--- ----- -- ----,149559.7999997139,149558.39999961853,149175.418,149188.69999980927,149192.096,149575.776,,23,a
screen,html.Screen,2_1_0_1_24,2022-02-17T12:53:46.516Z,,,,,,,,,,,,,,,,,53,,,,,,,,,,,,,,288.92399980925256,,response,,,,99,,,,,,,Space,keypress(Space),,,,,,,,---- -- ----- -- ------ - ------- --- ----------<br>------------- ------ ------ ---- ---- ------- ----- -- ----<br>-------- ------- -- ---------- --- - new ----- ----- ----<br>---- --- --- ----- --- ---- ---- ------- ----- ---- -------<br>--- --- -- ----- -- --- ---- -- --- ---- -- ------ ------<br>--- ----- -- ----,149865.2999997139,149864.69999980927,149559.098,149560,149575.776,149876.073,,24,new
screen,html.Screen,2_1_0_1_25,2022-02-17T12:53:46.817Z,,,,,,,,,,,,,,,,,53,,,,,,,,,,,,,,289.8269996185263,,response,,,,99,,,,,,,Space,keypress(Space),,,,,,,,---- -- ----- -- ------ - ------- --- ----------<br>------------- ------ ------ ---- ---- ------- ----- -- ----<br>-------- ------- -- ---------- --- - --- study ----- ----<br>---- --- --- ----- --- ---- ---- ------- ----- ---- -------<br>--- --- -- ----- -- --- ---- -- --- ---- -- ------ ------<br>--- ----- -- ----,150166.59999990463,150165.89999961853,149859.395,149865.5,149876.073,150176.335,,25,study
screen,html.Screen,2_1_0_1_26,2022-02-17T12:53:47.087Z,,,,,,,,,,,,,,,,,53,,,,,,,,,,,,,,259.7649999046407,,response,,,,99,,,,,,,Space,keypress(Space),,,,,,,,---- -- ----- -- ------ - ------- --- ----------<br>------------- ------ ------ ---- ---- ------- ----- -- ----<br>-------- ------- -- ---------- --- - --- ----- finds ----<br>---- --- --- ----- --- ---- ---- ------- ----- ---- -------<br>--- --- -- ----- -- --- ---- -- --- ---- -- ------ ------<br>--- ----- -- ----,150436.69999980927,150436.09999990463,150159.657,150166.69999980927,150176.335,150443.261,,26,finds
screen,html.Screen,2_1_0_1_27,2022-02-17T12:53:47.380Z,,,,,,,,,,,,,,,,,53,,,,,,,,,,,,,,285.33899990463397,,response,,,,99,,,,,,,Space,keypress(Space),,,,,,,,---- -- ----- -- ------ - ------- --- ----------<br>------------- ------ ------ ---- ---- ------- ----- -- ----<br>-------- ------- -- ---------- --- - --- ----- ----- that<br>---- --- --- ----- --- ---- ---- ------- ----- ---- -------<br>--- --- -- ----- -- --- ---- -- --- ---- -- ------ ------<br>--- ----- -- ----,150729.19999980927,150728.59999990463,150426.583,150436.89999961853,150443.261,150743.509,,27,that
screen,html.Screen,2_1_0_1_28,2022-02-17T12:53:47.691Z,,,,,,,,,,,,,,,,,53,,,,,,,,,,,,,,296.59099990464165,,response,,,,99,,,,,,,Space,keypress(Space),,,,,,,,---- -- ----- -- ------ - ------- --- ----------<br>------------- ------ ------ ---- ---- ------- ----- -- ----<br>-------- ------- -- ---------- --- - --- ----- ----- ----<br>it's --- --- ----- --- ---- ---- ------- ----- ---- -------<br>--- --- -- ----- -- --- ---- -- --- ---- -- ------ ------<br>--- ----- -- ----,151040.7999997139,151040.09999990463,150726.831,150729.5,150743.509,151043.777,,28,it's
screen,html.Screen,2_1_0_1_29,2022-02-17T12:53:48.005Z,,,,,,,,,,,,,,,,,53,,,,,,,,,,,,,,310.4229998092633,,response,,,,99,,,,,,,Space,keypress(Space),,,,,,,,---- -- ----- -- ------ - ------- --- ----------<br>------------- ------ ------ ---- ---- ------- ----- -- ----<br>-------- ------- -- ---------- --- - --- ----- ----- ----<br>---- not --- ----- --- ---- ---- ------- ----- ---- -------<br>--- --- -- ----- -- --- ---- -- --- ---- -- ------ ------<br>--- ----- -- ----,151354.89999961853,151354.19999980927,151027.099,151040.89999961853,151043.777,151360.633,,29,not
screen,html.Screen,2_1_0_1_30,2022-02-17T12:53:48.379Z,,,,,,,,,,,,,,,,,53,,,,,,,,,,,,,,367.36699999999837,,response,,,,99,,,,,,,Space,keypress(Space),,,,,,,,---- -- ----- -- ------ - ------- --- ----------<br>------------- ------ ------ ---- ---- ------- ----- -- ----<br>-------- ------- -- ---------- --- - --- ----- ----- ----<br>---- --- how ----- --- ---- ---- ------- ----- ---- -------<br>--- --- -- ----- -- --- ---- -- --- ---- -- ------ ------<br>--- ----- -- ----,151728.69999980927,151728,151343.955,151355.09999990463,151360.633,151744.349,,30,how
screen,html.Screen,2_1_0_1_31,2022-02-17T12:53:48.686Z,,,,,,,,,,,,,,,,,53,,,,,,,,,,,,,,290.25099990464514,,response,,,,99,,,,,,,Space,keypress(Space),,,,,,,,---- -- ----- -- ------ - ------- --- ----------<br>------------- ------ ------ ---- ---- ------- ----- -- ----<br>-------- ------- -- ---------- --- - --- ----- ----- ----<br>---- --- --- close --- ---- ---- ------- ----- ---- -------<br>--- --- -- ----- -- --- ---- -- --- ---- -- ------ ------<br>--- ----- -- ----,152035.2999997139,152034.59999990463,151727.671,151728.7999997139,151744.349,152044.531,,31,close
screen,html.Screen,2_1_0_1_32,2022-02-17T12:53:48.988Z,,,,,,,,,,,,,,,,,53,,,,,,,,,,,,,,292.668999809277,,response,,,,99,,,,,,,Space,keypress(Space),,,,,,,,---- -- ----- -- ------ - ------- --- ----------<br>------------- ------ ------ ---- ---- ------- ----- -- ----<br>-------- ------- -- ---------- --- - --- ----- ----- ----<br>---- --- --- ----- you ---- ---- ------- ----- ---- -------<br>--- --- -- ----- -- --- ---- -- --- ---- -- ------ ------<br>--- ----- -- ----,152337.89999961853,152337.19999980927,152027.853,152035.5,152044.531,152344.911,,32,you
screen,html.Screen,2_1_0_1_33,2022-02-17T12:53:49.289Z,,,,,,,,,,,,,,,,,53,,,,,,,,,,,,,,293.4889996185375,,response,,,,99,,,,,,,Space,keypress(Space),,,,,,,,---- -- ----- -- ------ - ------- --- ----------<br>------------- ------ ------ ---- ---- ------- ----- -- ----<br>-------- ------- -- ---------- --- - --- ----- ----- ----<br>---- --- --- ----- --- feel ---- ------- ----- ---- -------<br>--- --- -- ----- -- --- ---- -- --- ---- -- ------ ------<br>--- ----- -- ----,152639.09999990463,152638.39999961853,152328.233,152338,152344.911,152645.161,,33,feel
screen,html.Screen,2_1_0_1_34,2022-02-17T12:53:49.583Z,,,,,,,,,,,,,,,,,53,,,,,,,,,,,,,,285.8390000000072,,response,,,,99,,,,,,,Space,keypress(Space),,,,,,,,---- -- ----- -- ------ - ------- --- ----------<br>------------- ------ ------ ---- ---- ------- ----- -- ----<br>-------- ------- -- ---------- --- - --- ----- ----- ----<br>---- --- --- ----- --- ---- that ------- ----- ---- -------<br>--- --- -- ----- -- --- ---- -- --- ---- -- ------ ------<br>--- ----- -- ----,152931.69999980927,152931,152628.483,152639.19999980927,152645.161,152945.367,,34,that
screen,html.Screen,2_1_0_1_35,2022-02-17T12:53:49.878Z,,,,,,,,,,,,,,,,,53,,,,,,,,,,,,,,280.7329999046342,,response,,,,99,,,,,,,Space,keypress(Space),,,,,,,,---- -- ----- -- ------ - ------- --- ----------<br>------------- ------ ------ ---- ---- ------- ----- -- ----<br>-------- ------- -- ---------- --- - --- ----- ----- ----<br>---- --- --- ----- --- ---- ---- matters ----- ---- -------<br>--- --- -- ----- -- --- ---- -- --- ---- -- ------ ------<br>--- ----- -- ----,153226.7999997139,153226.09999990463,152928.689,152932,152945.367,153229.019,,35,matters
screen,html.Screen,2_1_0_1_36,2022-02-17T12:53:50.275Z,,,,,,,,,,,,,,,,,53,,,,,,,,,,,,,,394.48099999999977,,response,,,,99,,,,,,,Space,keypress(Space),,,,,,,,"---- -- ----- -- ------ - ------- --- ----------<br>------------- ------ ------ ---- ---- ------- ----- -- ----<br>-------- ------- -- ---------- --- - --- ----- ----- ----<br>---- --- --- ----- --- ---- ---- ------- most, ---- -------<br>--- --- -- ----- -- --- ---- -- --- ---- -- ------ ------<br>--- ----- -- ----",153624.2999997139,153623.5,153212.341,153227,153229.019,153629.407,,36,"most,"
screen,html.Screen,2_1_0_1_37,2022-02-17T12:53:50.530Z,,,,,,,,,,,,,,,,,53,,,,,,,,,,,,,,248.69299990462605,,response,,,,99,,,,,,,Space,keypress(Space),,,,,,,,---- -- ----- -- ------ - ------- --- ----------<br>------------- ------ ------ ---- ---- ------- ----- -- ----<br>-------- ------- -- ---------- --- - --- ----- ----- ----<br>---- --- --- ----- --- ---- ---- ------- ----- it's -------<br>--- --- -- ----- -- --- ---- -- --- ---- -- ------ ------<br>--- ----- -- ----,153878.7999997139,153878.09999990463,153612.729,153624.39999961853,153629.407,153879.558,,37,it's
screen,html.Screen,2_1_0_1_38,2022-02-17T12:53:50.947Z,,,,,,,,,,,,,,,,,53,,,,,,,,,,,,,,415.2419997139077,,response,,,,99,,,,,,,Space,keypress(Space),,,,,,,,---- -- ----- -- ------ - ------- --- ----------<br>------------- ------ ------ ---- ---- ------- ----- -- ----<br>-------- ------- -- ---------- --- - --- ----- ----- ----<br>---- --- --- ----- --- ---- ---- ------- ----- ---- whether<br>--- --- -- ----- -- --- ---- -- --- ---- -- ------ ------<br>--- ----- -- ----,154295.69999980927,154294.7999997139,153862.88,153879,153879.558,154296.592,,38,whether
screen,html.Screen,2_1_0_1_39,2022-02-17T12:53:51.193Z,,,,,,,,,,,,,,,,,53,,,,,,,,,,,,,,244.4079999999958,,response,,,,99,,,,,,,Space,keypress(Space),,,,,,,,---- -- ----- -- ------ - ------- --- ----------<br>------------- ------ ------ ---- ---- ------- ----- -- ----<br>-------- ------- -- ---------- --- - --- ----- ----- ----<br>---- --- --- ----- --- ---- ---- ------- ----- ---- -------<br>you --- -- ----- -- --- ---- -- --- ---- -- ------ ------<br>--- ----- -- ----,154541.69999980927,154541,154279.914,154295.7999997139,154296.592,154546.895,,39,you
screen,html.Screen,2_1_0_1_40,2022-02-17T12:53:51.501Z,,,,,,,,,,,,,,,,,53,,,,,,,,,,,,,,302.3049998092756,,response,,,,99,,,,,,,Space,keypress(Space),,,,,,,,---- -- ----- -- ------ - ------- --- ----------<br>------------- ------ ------ ---- ---- ------- ----- -- ----<br>-------- ------- -- ---------- --- - --- ----- ----- ----<br>---- --- --- ----- --- ---- ---- ------- ----- ---- -------<br>--- are -- ----- -- --- ---- -- --- ---- -- ------ ------<br>--- ----- -- ----,154849.89999961853,154849.19999980927,154530.217,154541.89999961853,154546.895,154863.773,,40,are
screen,html.Screen,2_1_0_1_41,2022-02-17T12:53:51.792Z,,,,,,,,,,,,,,,,,53,,,,,,,,,,,,,,277.2270000000135,,response,,,,99,,,,,,,Space,keypress(Space),,,,,,,,---- -- ----- -- ------ - ------- --- ----------<br>------------- ------ ------ ---- ---- ------- ----- -- ----<br>-------- ------- -- ---------- --- - --- ----- ----- ----<br>---- --- --- ----- --- ---- ---- ------- ----- ---- -------<br>--- --- as ----- -- --- ---- -- --- ---- -- ------ ------<br>--- ----- -- ----,155141.59999990463,155141,154847.095,154850.09999990463,154863.773,155147.317,,41,as
screen,html.Screen,2_1_0_1_42,2022-02-17T12:53:52.074Z,,,,,,,,,,,,,,,,,53,,,,,,,,,,,,,,275.08299961852026,,response,,,,99,,,,,,,Space,keypress(Space),,,,,,,,---- -- ----- -- ------ - ------- --- ----------<br>------------- ------ ------ ---- ---- ------- ----- -- ----<br>-------- ------- -- ---------- --- - --- ----- ----- ----<br>---- --- --- ----- --- ---- ---- ------- ----- ---- -------<br>--- --- -- close -- --- ---- -- --- ---- -- ------ ------<br>--- ----- -- ----,155423,155422.39999961853,155130.639,155141.7999997139,155147.317,155430.948,,42,close
screen,html.Screen,2_1_0_1_43,2022-02-17T12:53:52.387Z,,,,,,,,,,,,,,,,,53,,,,,,,,,,,,,,304.6519999046286,,response,,,,99,,,,,,,Space,keypress(Space),,,,,,,,---- -- ----- -- ------ - ------- --- ----------<br>------------- ------ ------ ---- ---- ------- ----- -- ----<br>-------- ------- -- ---------- --- - --- ----- ----- ----<br>---- --- --- ----- --- ---- ---- ------- ----- ---- -------<br>--- --- -- ----- as --- ---- -- --- ---- -- ------ ------<br>--- ----- -- ----,155736.2999997139,155735.59999990463,155414.27,155423.19999980927,155430.948,155747.888,,43,as
screen,html.Screen,2_1_0_1_44,2022-02-17T12:53:52.661Z,,,,,,,,,,,,,,,,,53,,,,,,,,,,,,,,261.31199980925885,,response,,,,99,,,,,,,Space,keypress(Space),,,,,,,,---- -- ----- -- ------ - ------- --- ----------<br>------------- ------ ------ ---- ---- ------- ----- -- ----<br>-------- ------- -- ---------- --- - --- ----- ----- ----<br>---- --- --- ----- --- ---- ---- ------- ----- ---- -------<br>--- --- -- ----- -- you ---- -- --- ---- -- ------ ------<br>--- ----- -- ----,156009.7999997139,156009.19999980927,155731.21,155736.5,155747.888,156014.742,,44,you
screen,html.Screen,2_1_0_1_45,2022-02-17T12:53:52.956Z,,,,,,,,,,,,,,,,,53,,,,,,,,,,,,,,289.75800000000163,,response,,,,99,,,,,,,Space,keypress(Space),,,,,,,,---- -- ----- -- ------ - ------- --- ----------<br>------------- ------ ------ ---- ---- ------- ----- -- ----<br>-------- ------- -- ---------- --- - --- ----- ----- ----<br>---- --- --- ----- --- ---- ---- ------- ----- ---- -------<br>--- --- -- ----- -- --- want -- --- ---- -- ------ ------<br>--- ----- -- ----,156305.09999990463,156304.5,155998.064,156010,156014.742,156315.059,,45,want
screen,html.Screen,2_1_0_1_46,2022-02-17T12:53:53.233Z,,,,,,,,,,,,,,,,,53,,,,,,,,,,,,,,266.14099980925675,,response,,,,99,,,,,,,Space,keypress(Space),,,,,,,,---- -- ----- -- ------ - ------- --- ----------<br>------------- ------ ------ ---- ---- ------- ----- -- ----<br>-------- ------- -- ---------- --- - --- ----- ----- ----<br>---- --- --- ----- --- ---- ---- ------- ----- ---- -------<br>--- --- -- ----- -- --- ---- to --- ---- -- ------ ------<br>--- ----- -- ----,156581.7999997139,156581.19999980927,156298.381,156305.2999997139,156315.059,156598.698,,46,to
screen,html.Screen,2_1_0_1_47,2022-02-17T12:53:53.566Z,,,,,,,,,,,,,,,,,53,,,,,,,,,,,,,,315.80199999999604,,response,,,,99,,,,,,,Space,keypress(Space),,,,,,,,"---- -- ----- -- ------ - ------- --- ----------<br>------------- ------ ------ ---- ---- ------- ----- -- ----<br>-------- ------- -- ---------- --- - --- ----- ----- ----<br>---- --- --- ----- --- ---- ---- ------- ----- ---- -------<br>--- --- -- ----- -- --- ---- -- be, ---- -- ------ ------<br>--- ----- -- ----",156915.09999990463,156914.5,156582.02,156582,156598.698,156932.237,,47,"be,"
screen,html.Screen,2_1_0_1_48,2022-02-17T12:53:53.848Z,,,,,,,,,,,,,,,,,53,,,,,,,,,,,,,,264.062999713904,,response,,,,99,,,,,,,Space,keypress(Space),,,,,,,,---- -- ----- -- ------ - ------- --- ----------<br>------------- ------ ------ ---- ---- ------- ----- -- ----<br>-------- ------- -- ---------- --- - --- ----- ----- ----<br>---- --- --- ----- --- ---- ---- ------- ----- ---- -------<br>--- --- -- ----- -- --- ---- -- --- even -- ------ ------<br>--- ----- -- ----,157196.89999961853,157196.2999997139,156915.559,156915.39999961853,156932.237,157199.181,,48,even
screen,html.Screen,2_1_0_1_49,2022-02-17T12:53:54.134Z,,,,,,,,,,,,,,,,,53,,,,,,,,,,,,,,283.41899990462116,,response,,,,99,,,,,,,Space,keypress(Space),,,,,,,,---- -- ----- -- ------ - ------- --- ----------<br>------------- ------ ------ ---- ---- ------- ----- -- ----<br>-------- ------- -- ---------- --- - --- ----- ----- ----<br>---- --- --- ----- --- ---- ---- ------- ----- ---- -------<br>--- --- -- ----- -- --- ---- -- --- ---- if ------ ------<br>--- ----- -- ----,157483.2999997139,157482.59999990463,157182.503,157197.09999990463,157199.181,157499.441,,49,if
screen,html.Screen,2_1_0_1_50,2022-02-17T12:53:54.409Z,,,,,,,,,,,,,,,,,53,,,,,,,,,,,,,,258.2589998092735,,response,,,,99,,,,,,,Space,keypress(Space),,,,,,,,---- -- ----- -- ------ - ------- --- ----------<br>------------- ------ ------ ---- ---- ------- ----- -- ----<br>-------- ------- -- ---------- --- - --- ----- ----- ----<br>---- --- --- ----- --- ---- ---- ------- ----- ---- -------<br>--- --- -- ----- -- --- ---- -- --- ---- -- that's ------<br>--- ----- -- ----,157758.39999961853,157757.69999980927,157482.763,157483.39999961853,157499.441,157766.391,,50,that's
screen,html.Screen,2_1_0_1_51,2022-02-17T12:53:54.710Z,,,,,,,,,,,,,,,,,53,,,,,,,,,,,,,,292.508999618527,,response,,,,99,,,,,,,Space,keypress(Space),,,,,,,,---- -- ----- -- ------ - ------- --- ----------<br>------------- ------ ------ ---- ---- ------- ----- -- ----<br>-------- ------- -- ---------- --- - --- ----- ----- ----<br>---- --- --- ----- --- ---- ---- ------- ----- ---- -------<br>--- --- -- ----- -- --- ---- -- --- ---- -- ------ really<br>--- ----- -- ----,158059.5,158058.89999961853,157749.713,157758.59999990463,157766.391,158066.615,,51,really
screen,html.Screen,2_1_0_1_52,2022-02-17T12:53:55.058Z,,,,,,,,,,,,,,,,,53,,,,,,,,,,,,,,339.58499980927445,,response,,,,99,,,,,,,Space,keypress(Space),,,,,,,,---- -- ----- -- ------ - ------- --- ----------<br>------------- ------ ------ ---- ---- ------- ----- -- ----<br>-------- ------- -- ---------- --- - --- ----- ----- ----<br>---- --- --- ----- --- ---- ---- ------- ----- ---- -------<br>--- --- -- ----- -- --- ---- -- --- ---- -- ------ ------<br>not ----- -- ----,158406.89999961853,158406.19999980927,158049.937,158059.59999990463,158066.615,158416.946,,52,not
screen,html.Screen,2_1_0_1_53,2022-02-17T12:53:55.351Z,,,,,,,,,,,,,,,,,53,,,,,,,,,,,,,,282.953999618534,,response,,,,99,,,,,,,Space,keypress(Space),,,,,,,,---- -- ----- -- ------ - ------- --- ----------<br>------------- ------ ------ ---- ---- ------- ----- -- ----<br>-------- ------- -- ---------- --- - --- ----- ----- ----<br>---- --- --- ----- --- ---- ---- ------- ----- ---- -------<br>--- --- -- ----- -- --- ---- -- --- ---- -- ------ ------<br>--- close -- ----,158700.59999990463,158699.89999961853,158400.268,158407.09999990463,158416.946,158717.158,,53,close
screen,html.Screen,2_1_0_1_54,2022-02-17T12:53:55.700Z,,,,,,,,,,,,,,,,,53,,,,,,,,,,,,,,331.3420000000042,,response,,,,99,,,,,,,Space,keypress(Space),,,,,,,,---- -- ----- -- ------ - ------- --- ----------<br>------------- ------ ------ ---- ---- ------- ----- -- ----<br>-------- ------- -- ---------- --- - --- ----- ----- ----<br>---- --- --- ----- --- ---- ---- ------- ----- ---- -------<br>--- --- -- ----- -- --- ---- -- --- ---- -- ------ ------<br>--- ----- at ----,159049.09999990463,159048.5,158700.48,158700.7999997139,158717.158,159050.839,,54,at
screen,html.Screen,2_1_0_1_55,2022-02-17T12:53:56.152Z,,,,,,,,,,,,,,,,,53,,,,,,,,,,,,,,449.9609997138905,,response,,,,99,,,,,,,Space,keypress(Space),,,,,,,,---- -- ----- -- ------ - ------- --- ----------<br>------------- ------ ------ ---- ---- ------- ----- -- ----<br>-------- ------- -- ---------- --- - --- ----- ----- ----<br>---- --- --- ----- --- ---- ---- ------- ----- ---- -------<br>--- --- -- ----- -- --- ---- -- --- ---- -- ------ ------<br>--- ----- -- all.,159501.5,159500.7999997139,159034.161,159049.2999997139,159050.839,159517.799,,55,all.
Item 99,flow.Loop,2_1_0_1,2022-02-17T12:53:56.153Z,,,,,,,,,,,,,,,,,,,,,,,,,,,,,,,19683.79799971389,,completion,,,,,D,,,,,,,,,,,silence,,,,,159501.89999961853,159500.7999997139,139733.612,139734.2999997139,139817.002,159517.799,,,
Question 1,html.Screen,2_1_0_2,2022-02-17T12:53:59.844Z,,,,,,,,,,,,,,,,,,,,,,,,,,,,true,FALSE,,3674.201000000001,,response,,,,99,D,,,,,,FALSE,click #choice-2,,,,silence,,,,,163192.69999980927,163192,159501.121,159502,159517.799,163204.562,,,
Question 2,html.Screen,2_1_0_3,2022-02-17T12:54:02.947Z,,,,,,,,,,,,,,,,,,,,,,,,,,,,true,TRUE,,3091.2379997138923,,response,,,,99,D,,,,,,TRUE,click #choice-1,,,,silence,,,,,166296.5,166295.7999997139,163187.884,163192.89999961853,163204.562,166307.182,,,
Item 99,flow.Sequence,2_1_0,2022-02-17T12:54:02.948Z,,,,,,,,,,,,,,,,,,,,,,,,,,,,,,,36538.0059997139,,completion,,,,,,,,,,,,,,,,,,,,,166296.69999980927,166295.7999997139,129741.116,129745.89999961853,129757.794,166307.182,,,
Holding screen,html.Screen,2_1_1_0,2022-02-17T12:54:12.935Z,,,,,,,,,,,,,,,,,,,,,,,,,,,,,,,9992.122999999992,,timeout,,,,,,,,,,,,,,,,,,,,,176284.09999990463,176282.627,166290.504,166296.89999961853,166307.182,176299.305,,,
screen,html.Screen,2_1_1_1_0,2022-02-17T12:54:14.440Z,,,,,,,,,,,,,,,,,54,,,,,,,,,,,,,,1488.8949998092721,,response,,,,100,,,,,,,Space,keypress(Space),,,,,,,,At --- ---- --- ------ ----- ------- ---- -- --- ------- --<br>------- ---------- ------ -- ----- -- ----- -- ---- ------<br>--- ----- --- --- ------ -------- ----- --- ------ ----- --<br>----- ----- ---------- --- --- ------ ------ ---- -- ------<br>------- --- ------ ----- --- ---- ------- -- ---- --- --<br>------- ------,177789,177788.19999980927,176282.627,176284.19999980927,176299.305,177800.498,,0,At
screen,html.Screen,2_1_1_1_1,2022-02-17T12:54:14.819Z,,,,,,,,,,,,,,,,,54,,,,,,,,,,,,,,367.40199961853796,,response,,,,100,,,,,,,Space,keypress(Space),,,,,,,,-- the ---- --- ------ ----- ------- ---- -- --- ------- --<br>------- ---------- ------ -- ----- -- ----- -- ---- ------<br>--- ----- --- --- ------ -------- ----- --- ------ ----- --<br>----- ----- ---------- --- --- ------ ------ ---- -- ------<br>------- --- ------ ----- --- ---- ------- -- ---- --- --<br>------- ------,178168.5,178167.89999961853,177783.82,177789.09999990463,177800.498,178184.176,,1,the
screen,html.Screen,2_1_1_1_2,2022-02-17T12:54:15.188Z,,,,,,,,,,,,,,,,,54,,,,,,,,,,,,,,352.2239996185235,,response,,,,100,,,,,,,Space,keypress(Space),,,,,,,,-- --- time --- ------ ----- ------- ---- -- --- ------- --<br>------- ---------- ------ -- ----- -- ----- -- ---- ------<br>--- ----- --- --- ------ -------- ----- --- ------ ----- --<br>----- ----- ---------- --- --- ------ ------ ---- -- ------<br>------- --- ------ ----- --- ---- ------- -- ---- --- --<br>------- ------,178537,178536.39999961853,178167.498,178168.69999980927,178184.176,178551.438,,2,time
screen,html.Screen,2_1_1_1_3,2022-02-17T12:54:15.528Z,,,,,,,,,,,,,,,,,54,,,,,,,,,,,,,,324.86199971390306,,response,,,,100,,,,,,,Space,keypress(Space),,,,,,,,-- --- ---- the ------ ----- ------- ---- -- --- ------- --<br>------- ---------- ------ -- ----- -- ----- -- ---- ------<br>--- ----- --- --- ------ -------- ----- --- ------ ----- --<br>----- ----- ---------- --- --- ------ ------ ---- -- ------<br>------- --- ------ ----- --- ---- ------- -- ---- --- --<br>------- ------,178876.89999961853,178876.2999997139,178534.76,178537.2999997139,178551.438,178885.069,,3,the
screen,html.Screen,2_1_1_1_4,2022-02-17T12:54:15.875Z,,,,,,,,,,,,,,,,,54,,,,,,,,,,,,,,338.2309997139091,,response,,,,100,,,,,,,Space,keypress(Space),,,,,,,,-- --- ---- --- French ----- ------- ---- -- --- ------- --<br>------- ---------- ------ -- ----- -- ----- -- ---- ------<br>--- ----- --- --- ------ -------- ----- --- ------ ----- --<br>----- ----- ---------- --- --- ------ ------ ---- -- ------<br>------- --- ------ ----- --- ---- ------- -- ---- --- --<br>------- ------,179224,179223.2999997139,178868.391,178877.19999980927,178885.069,179235.367,,4,French
screen,html.Screen,2_1_1_1_5,2022-02-17T12:54:16.217Z,,,,,,,,,,,,,,,,,54,,,,,,,,,,,,,,329.83299980926677,,response,,,,100,,,,,,,Space,keypress(Space),,,,,,,,-- --- ---- --- ------ crown ------- ---- -- --- ------- --<br>------- ---------- ------ -- ----- -- ----- -- ---- ------<br>--- ----- --- --- ------ -------- ----- --- ------ ----- --<br>----- ----- ---------- --- --- ------ ------ ---- -- ------<br>------- --- ------ ----- --- ---- ------- -- ---- --- --<br>------- ------,179565.7999997139,179565.19999980927,179218.689,179224.19999980927,179235.367,179569.035,,5,crown
screen,html.Screen,2_1_1_1_6,2022-02-17T12:54:16.602Z,,,,,,,,,,,,,,,,,54,,,,,,,,,,,,,,381.4649999999965,,response,,,,100,,,,,,,Space,keypress(Space),,,,,,,,-- --- ---- --- ------ ----- secured ---- -- --- ------- --<br>------- ---------- ------ -- ----- -- ----- -- ---- ------<br>--- ----- --- --- ------ -------- ----- --- ------ ----- --<br>----- ----- ---------- --- --- ------ ------ ---- -- ------<br>------- --- ------ ----- --- ---- ------- -- ---- --- --<br>------- ------,179951.09999990463,179950.5,179552.357,179566.09999990463,179569.035,179952.702,,6,secured
screen,html.Screen,2_1_1_1_7,2022-02-17T12:54:16.960Z,,,,,,,,,,,,,,,,,54,,,,,,,,,,,,,,355.9979998092749,,response,,,,100,,,,,,,Space,keypress(Space),,,,,,,,-- --- ---- --- ------ ----- ------- much -- --- ------- --<br>------- ---------- ------ -- ----- -- ----- -- ---- ------<br>--- ----- --- --- ------ -------- ----- --- ------ ----- --<br>----- ----- ---------- --- --- ------ ------ ---- -- ------<br>------- --- ------ ----- --- ---- ------- -- ---- --- --<br>------- ------,180309.5,180308.69999980927,179936.024,179951.39999961853,179952.702,180319.687,,7,much
screen,html.Screen,2_1_1_1_8,2022-02-17T12:54:17.297Z,,,,,,,,,,,,,,,,,54,,,,,,,,,,,,,,326.0129998092598,,response,,,,100,,,,,,,Space,keypress(Space),,,,,,,,-- --- ---- --- ------ ----- ------- ---- of --- ------- --<br>------- ---------- ------ -- ----- -- ----- -- ---- ------<br>--- ----- --- --- ------ -------- ----- --- ------ ----- --<br>----- ----- ---------- --- --- ------ ------ ---- -- ------<br>------- --- ------ ----- --- ---- ------- -- ---- --- --<br>------- ------,180646.39999961853,180645.69999980927,180303.009,180309.59999990463,180319.687,180653.325,,8,of
screen,html.Screen,2_1_1_1_9,2022-02-17T12:54:17.654Z,,,,,,,,,,,,,,,,,54,,,,,,,,,,,,,,349.2749999046209,,response,,,,100,,,,,,,Space,keypress(Space),,,,,,,,-- --- ---- --- ------ ----- ------- ---- -- its ------- --<br>------- ---------- ------ -- ----- -- ----- -- ---- ------<br>--- ----- --- --- ------ -------- ----- --- ------ ----- --<br>----- ----- ---------- --- --- ------ ------ ---- -- ------<br>------- --- ------ ----- --- ---- ------- -- ---- --- --<br>------- ------,181003.2999997139,181002.59999990463,180636.647,180646.59999990463,180653.325,181020.261,,9,its
screen,html.Screen,2_1_1_1_10,2022-02-17T12:54:17.998Z,,,,,,,,,,,,,,,,,54,,,,,,,,,,,,,,326.2390000000014,,response,,,,100,,,,,,,Space,keypress(Space),,,,,,,,-- --- ---- --- ------ ----- ------- ---- -- --- revenue --<br>------- ---------- ------ -- ----- -- ----- -- ---- ------<br>--- ----- --- --- ------ -------- ----- --- ------ ----- --<br>----- ----- ---------- --- --- ------ ------ ---- -- ------<br>------- --- ------ ----- --- ---- ------- -- ---- --- --<br>------- ------,181347.59999990463,181346.5,181003.583,181003.59999990463,181020.261,181353.933,,10,revenue
screen,html.Screen,2_1_1_1_11,2022-02-17T12:54:18.319Z,,,,,,,,,,,,,,,,,54,,,,,,,,,,,,,,313.56700000001,,response,,,,100,,,,,,,Space,keypress(Space),,,,,,,,-- --- ---- --- ------ ----- ------- ---- -- --- ------- by<br>------- ---------- ------ -- ----- -- ----- -- ---- ------<br>--- ----- --- --- ------ -------- ----- --- ------ ----- --<br>----- ----- ---------- --- --- ------ ------ ---- -- ------<br>------- --- ------ ----- --- ---- ------- -- ---- --- --<br>------- ------,181668.19999980927,181667.5,181337.255,181347.69999980927,181353.933,181670.85,,11,by
screen,html.Screen,2_1_1_1_12,2022-02-17T12:54:18.668Z,,,,,,,,,,,,,,,,,54,,,,,,,,,,,,,,345.8499998092593,,response,,,,100,,,,,,,Space,keypress(Space),,,,,,,,-- --- ---- --- ------ ----- ------- ---- -- --- ------- --<br>issuing ---------- ------ -- ----- -- ----- -- ---- ------<br>--- ----- --- --- ------ -------- ----- --- ------ ----- --<br>----- ----- ---------- --- --- ------ ------ ---- -- ------<br>------- --- ------ ----- --- ---- ------- -- ---- --- --<br>------- ------,182017.39999961853,182016.69999980927,181654.172,181668.2999997139,181670.85,182021.177,,12,issuing
screen,html.Screen,2_1_1_1_13,2022-02-17T12:54:18.998Z,,,,,,,,,,,,,,,,,54,,,,,,,,,,,,,,325.22299961853423,,response,,,,100,,,,,,,Space,keypress(Space),,,,,,,,-- --- ---- --- ------ ----- ------- ---- -- --- ------- --<br>------- government ------ -- ----- -- ----- -- ---- ------<br>--- ----- --- --- ------ -------- ----- --- ------ ----- --<br>----- ----- ---------- --- --- ------ ------ ---- -- ------<br>------- --- ------ ----- --- ---- ------- -- ---- --- --<br>------- ------,182347.2999997139,182346.39999961853,182004.499,182017.69999980927,182021.177,182354.759,,13,government
screen,html.Screen,2_1_1_1_14,2022-02-17T12:54:19.345Z,,,,,,,,,,,,,,,,,54,,,,,,,,,,,,,,338.9409998092742,,response,,,,100,,,,,,,Space,keypress(Space),,,,,,,,-- --- ---- --- ------ ----- ------- ---- -- --- ------- --<br>------- ---------- bonds. -- ----- -- ----- -- ---- ------<br>--- ----- --- --- ------ -------- ----- --- ------ ----- --<br>----- ----- ---------- --- --- ------ ------ ---- -- ------<br>------- --- ------ ----- --- ---- ------- -- ---- --- --<br>------- ------,182694.39999961853,182693.69999980927,182338.081,182347.5,182354.759,182705.131,,14,bonds.
screen,html.Screen,2_1_1_1_15,2022-02-17T12:54:20.027Z,,,,,,,,,,,,,,,,,54,,,,,,,,,,,,,,670.6689997139038,,response,,,,100,,,,,,,Space,keypress(Space),,,,,,,,-- --- ---- --- ------ ----- ------- ---- -- --- ------- --<br>------- ---------- ------ In ----- -- ----- -- ---- ------<br>--- ----- --- --- ------ -------- ----- --- ------ ----- --<br>----- ----- ---------- --- --- ------ ------ ---- -- ------<br>------- --- ------ ----- --- ---- ------- -- ---- --- --<br>------- ------,183376.5,183375.7999997139,182688.453,182694.59999990463,182705.131,183388.92,,15,In
screen,html.Screen,2_1_1_1_16,2022-02-17T12:54:21.554Z,,,,,,,,,,,,,,,,,54,,,,,,,,,,,,,,1513.879999713885,,response,,,,100,,,,,,,Space,keypress(Space),,,,,,,,"-- --- ---- --- ------ ----- ------- ---- -- --- ------- --<br>------- ---------- ------ -- 1727, -- ----- -- ---- ------<br>--- ----- --- --- ------ -------- ----- --- ------ ----- --<br>----- ----- ---------- --- --- ------ ------ ---- -- ------<br>------- --- ------ ----- --- ---- ------- -- ---- --- --<br>------- ------",184903.5,184902.7999997139,183372.242,183376.59999990463,183388.92,184906.859,,16,"1727,"
screen,html.Screen,2_1_1_1_17,2022-02-17T12:54:21.910Z,,,,,,,,,,,,,,,,,54,,,,,,,,,,,,,,351.8409998092684,,response,,,,100,,,,,,,Space,keypress(Space),,,,,,,,-- --- ---- --- ------ ----- ------- ---- -- --- ------- --<br>------- ---------- ------ -- ----- in ----- -- ---- ------<br>--- ----- --- --- ------ -------- ----- --- ------ ----- --<br>----- ----- ---------- --- --- ------ ------ ---- -- ------<br>------- --- ------ ----- --- ---- ------- -- ---- --- --<br>------- ------,185259.39999961853,185258.69999980927,184890.181,184903.69999980927,184906.859,185274.094,,17,in
screen,html.Screen,2_1_1_1_18,2022-02-17T12:54:22.310Z,,,,,,,,,,,,,,,,,54,,,,,,,,,,,,,,384.4059999999881,,response,,,,100,,,,,,,Space,keypress(Space),,,,,,,,-- --- ---- --- ------ ----- ------- ---- -- --- ------- --<br>------- ---------- ------ -- ----- -- order -- ---- ------<br>--- ----- --- --- ------ -------- ----- --- ------ ----- --<br>----- ----- ---------- --- --- ------ ------ ---- -- ------<br>------- --- ------ ----- --- ---- ------- -- ---- --- --<br>------- ------,185659.19999980927,185658.5,185257.416,185259.59999990463,185274.094,185674.361,,18,order
screen,html.Screen,2_1_1_1_19,2022-02-17T12:54:23.024Z,,,,,,,,,,,,,,,,,54,,,,,,,,,,,,,,698.5389996185258,,response,,,,100,,,,,,,Space,keypress(Space),,,,,,,,-- --- ---- --- ------ ----- ------- ---- -- --- ------- --<br>------- ---------- ------ -- ----- -- ----- to ---- ------<br>--- ----- --- --- ------ -------- ----- --- ------ ----- --<br>----- ----- ---------- --- --- ------ ------ ---- -- ------<br>------- --- ------ ----- --- ---- ------- -- ---- --- --<br>------- ------,186373.59999990463,186372.89999961853,185657.683,185659.39999961853,185674.361,186374.983,,19,to
screen,html.Screen,2_1_1_1_20,2022-02-17T12:54:23.304Z,,,,,,,,,,,,,,,,,54,,,,,,,,,,,,,,277.7169998092577,,response,,,,100,,,,,,,Space,keypress(Space),,,,,,,,-- --- ---- --- ------ ----- ------- ---- -- --- ------- --<br>------- ---------- ------ -- ----- -- ----- -- save ------<br>--- ----- --- --- ------ -------- ----- --- ------ ----- --<br>----- ----- ---------- --- --- ------ ------ ---- -- ------<br>------- --- ------ ----- --- ---- ------- -- ---- --- --<br>------- ------,186653.39999961853,186652.69999980927,186358.305,186373.69999980927,186374.983,186658.622,,20,save
screen,html.Screen,2_1_1_1_21,2022-02-17T12:54:23.646Z,,,,,,,,,,,,,,,,,54,,,,,,,,,,,,,,335.77799961852725,,response,,,,100,,,,,,,Space,keypress(Space),,,,,,,,"-- --- ---- --- ------ ----- ------- ---- -- --- ------- --<br>------- ---------- ------ -- ----- -- ----- -- ---- money,<br>--- ----- --- --- ------ -------- ----- --- ------ ----- --<br>----- ----- ---------- --- --- ------ ------ ---- -- ------<br>------- --- ------ ----- --- ---- ------- -- ---- --- --<br>------- ------",186995.09999990463,186994.39999961853,186641.944,186653.59999990463,186658.622,187008.868,,21,"money,"
screen,html.Screen,2_1_1_1_22,2022-02-17T12:54:24.074Z,,,,,,,,,,,,,,,,,54,,,,,,,,,,,,,,413.2319999046449,,response,,,,100,,,,,,,Space,keypress(Space),,,,,,,,-- --- ---- --- ------ ----- ------- ---- -- --- ------- --<br>------- ---------- ------ -- ----- -- ----- -- ---- ------<br>the ----- --- --- ------ -------- ----- --- ------ ----- --<br>----- ----- ---------- --- --- ------ ------ ---- -- ------<br>------- --- ------ ----- --- ---- ------- -- ---- --- --<br>------- ------,187422.7999997139,187422.09999990463,186992.19,186995.2999997139,187008.868,187425.973,,22,the
screen,html.Screen,2_1_1_1_23,2022-02-17T12:54:24.379Z,,,,,,,,,,,,,,,,,54,,,,,,,,,,,,,,301.62699990463443,,response,,,,100,,,,,,,Space,keypress(Space),,,,,,,,-- --- ---- --- ------ ----- ------- ---- -- --- ------- --<br>------- ---------- ------ -- ----- -- ----- -- ---- ------<br>--- state --- --- ------ -------- ----- --- ------ ----- --<br>----- ----- ---------- --- --- ------ ------ ---- -- ------<br>------- --- ------ ----- --- ---- ------- -- ---- --- --<br>------- ------,187728.2999997139,187727.59999990463,187409.295,187422.89999961853,187425.973,187742.809,,23,state
screen,html.Screen,2_1_1_1_24,2022-02-17T12:54:24.721Z,,,,,,,,,,,,,,,,,54,,,,,,,,,,,,,,325.7909999046242,,response,,,,100,,,,,,,Space,keypress(Space),,,,,,,,-- --- ---- --- ------ ----- ------- ---- -- --- ------- --<br>------- ---------- ------ -- ----- -- ----- -- ---- ------<br>--- ----- cut --- ------ -------- ----- --- ------ ----- --<br>----- ----- ---------- --- --- ------ ------ ---- -- ------<br>------- --- ------ ----- --- ---- ------- -- ---- --- --<br>------- ------,188070,188068.59999990463,187726.131,187728.5,187742.809,188076.562,,24,cut
screen,html.Screen,2_1_1_1_25,2022-02-17T12:54:25.536Z,,,,,,,,,,,,,,,,,54,,,,,,,,,,,,,,808.2379997138923,,response,,,,100,,,,,,,Space,keypress(Space),,,,,,,,-- --- ---- --- ------ ----- ------- ---- -- --- ------- --<br>------- ---------- ------ -- ----- -- ----- -- ---- ------<br>--- ----- --- the ------ -------- ----- --- ------ ----- --<br>----- ----- ---------- --- --- ------ ------ ---- -- ------<br>------- --- ------ ----- --- ---- ------- -- ---- --- --<br>------- ------,188885.5,188884.7999997139,188059.884,188070.09999990463,188076.562,188893.816,,25,the
screen,html.Screen,2_1_1_1_26,2022-02-17T12:54:26.065Z,,,,,,,,,,,,,,,,,54,,,,,,,,,,,,,,520.0839996185387,,response,,,,100,,,,,,,Space,keypress(Space),,,,,,,,-- --- ---- --- ------ ----- ------- ---- -- --- ------- --<br>------- ---------- ------ -- ----- -- ----- -- ---- ------<br>--- ----- --- --- bonds' -------- ----- --- ------ ----- --<br>----- ----- ---------- --- --- ------ ------ ---- -- ------<br>------- --- ------ ----- --- ---- ------- -- ---- --- --<br>------- ------,189414.59999990463,189413.89999961853,188877.138,188885.69999980927,188893.816,189427.714,,26,bonds'
screen,html.Screen,2_1_1_1_27,2022-02-17T12:54:26.744Z,,,,,,,,,,,,,,,,,54,,,,,,,,,,,,,,665.0859997138905,,response,,,,100,,,,,,,Space,keypress(Space),,,,,,,,-- --- ---- --- ------ ----- ------- ---- -- --- ------- --<br>------- ---------- ------ -- ----- -- ----- -- ---- ------<br>--- ----- --- --- ------ interest ----- --- ------ ----- --<br>----- ----- ---------- --- --- ------ ------ ---- -- ------<br>------- --- ------ ----- --- ---- ------- -- ---- --- --<br>------- ------,190093.5,190092.7999997139,189411.036,189414.69999980927,189427.714,190094.907,,27,interest
screen,html.Screen,2_1_1_1_28,2022-02-17T12:54:27.219Z,,,,,,,,,,,,,,,,,54,,,,,,,,,,,,,,472.99299961852375,,response,,,,100,,,,,,,Space,keypress(Space),,,,,,,,-- --- ---- --- ------ ----- ------- ---- -- --- ------- --<br>------- ---------- ------ -- ----- -- ----- -- ---- ------<br>--- ----- --- --- ------ -------- rate. --- ------ ----- --<br>----- ----- ---------- --- --- ------ ------ ---- -- ------<br>------- --- ------ ----- --- ---- ------- -- ---- --- --<br>------- ------,190568.59999990463,190567.89999961853,190078.229,190093.69999980927,190094.907,190578.759,,28,rate.
screen,html.Screen,2_1_1_1_29,2022-02-17T12:54:27.588Z,,,,,,,,,,,,,,,,,54,,,,,,,,,,,,,,357.4409998092742,,response,,,,100,,,,,,,Space,keypress(Space),,,,,,,,-- --- ---- --- ------ ----- ------- ---- -- --- ------- --<br>------- ---------- ------ -- ----- -- ----- -- ---- ------<br>--- ----- --- --- ------ -------- ----- The ------ ----- --<br>----- ----- ---------- --- --- ------ ------ ---- -- ------<br>------- --- ------ ----- --- ---- ------- -- ---- --- --<br>------- ------,190936.89999961853,190936.19999980927,190562.081,190568.69999980927,190578.759,190945.566,,29,The
screen,html.Screen,2_1_1_1_30,2022-02-17T12:54:27.811Z,,,,,,,,,,,,,,,,,54,,,,,,,,,,,,,,213.83399961853866,,response,,,,100,,,,,,,Space,keypress(Space),,,,,,,,-- --- ---- --- ------ ----- ------- ---- -- --- ------- --<br>------- ---------- ------ -- ----- -- ----- -- ---- ------<br>--- ----- --- --- ------ -------- ----- --- market ----- --<br>----- ----- ---------- --- --- ------ ------ ---- -- ------<br>------- --- ------ ----- --- ---- ------- -- ---- --- --<br>------- ------,191160,191159.39999961853,190928.888,190937,190945.566,191162.708,,30,market
screen,html.Screen,2_1_1_1_31,2022-02-17T12:54:28.070Z,,,,,,,,,,,,,,,,,54,,,,,,,,,,,,,,255.59199971388443,,response,,,,100,,,,,,,Space,keypress(Space),,,,,,,,-- --- ---- --- ------ ----- ------- ---- -- --- ------- --<br>------- ---------- ------ -- ----- -- ----- -- ---- ------<br>--- ----- --- --- ------ -------- ----- --- ------ value --<br>----- ----- ---------- --- --- ------ ------ ---- -- ------<br>------- --- ------ ----- --- ---- ------- -- ---- --- --<br>------- ------,191419,191418.2999997139,191146.03,191160.19999980927,191162.708,191429.531,,31,value
screen,html.Screen,2_1_1_1_32,2022-02-17T12:54:28.330Z,,,,,,,,,,,,,,,,,54,,,,,,,,,,,,,,248.86899961854215,,response,,,,100,,,,,,,Space,keypress(Space),,,,,,,,-- --- ---- --- ------ ----- ------- ---- -- --- ------- --<br>------- ---------- ------ -- ----- -- ----- -- ---- ------<br>--- ----- --- --- ------ -------- ----- --- ------ ----- of<br>----- ----- ---------- --- --- ------ ------ ---- -- ------<br>------- --- ------ ----- --- ---- ------- -- ---- --- --<br>------- ------,191679.09999990463,191678.39999961853,191412.853,191419.19999980927,191429.531,191679.756,,32,of
screen,html.Screen,2_1_1_1_33,2022-02-17T12:54:28.637Z,,,,,,,,,,,,,,,,,54,,,,,,,,,,,,,,305.8439999046386,,response,,,,100,,,,,,,Space,keypress(Space),,,,,,,,-- --- ---- --- ------ ----- ------- ---- -- --- ------- --<br>------- ---------- ------ -- ----- -- ----- -- ---- ------<br>--- ----- --- --- ------ -------- ----- --- ------ ----- --<br>these ----- ---------- --- --- ------ ------ ---- -- ------<br>------- --- ------ ----- --- ---- ------- -- ---- --- --<br>------- ------,191986.2999997139,191985.59999990463,191663.078,191679.2999997139,191679.756,191996.7,,33,these
screen,html.Screen,2_1_1_1_34,2022-02-17T12:54:28.895Z,,,,,,,,,,,,,,,,,54,,,,,,,,,,,,,,246.39999990462093,,response,,,,100,,,,,,,Space,keypress(Space),,,,,,,,-- --- ---- --- ------ ----- ------- ---- -- --- ------- --<br>------- ---------- ------ -- ----- -- ----- -- ---- ------<br>--- ----- --- --- ------ -------- ----- --- ------ ----- --<br>----- bonds ---------- --- --- ------ ------ ---- -- ------<br>------- --- ------ ----- --- ---- ------- -- ---- --- --<br>------- ------,192243.7999997139,192243.09999990463,191980.022,191986.39999961853,191996.7,192246.947,,34,bonds
screen,html.Screen,2_1_1_1_35,2022-02-17T12:54:29.161Z,,,,,,,,,,,,,,,,,54,,,,,,,,,,,,,,262.85299971391214,,response,,,,100,,,,,,,Space,keypress(Space),,,,,,,,"-- --- ---- --- ------ ----- ------- ---- -- --- ------- --<br>------- ---------- ------ -- ----- -- ----- -- ---- ------<br>--- ----- --- --- ------ -------- ----- --- ------ ----- --<br>----- ----- plummeted, --- --- ------ ------ ---- -- ------<br>------- --- ------ ----- --- ---- ------- -- ---- --- --<br>------- ------",192510.5,192509.7999997139,192230.269,192243.89999961853,192246.947,192513.804,,35,"plummeted,"
screen,html.Screen,2_1_1_1_36,2022-02-17T12:54:29.722Z,,,,,,,,,,,,,,,,,54,,,,,,,,,,,,,,556.6959999999963,,response,,,,100,,,,,,,Space,keypress(Space),,,,,,,,-- --- ---- --- ------ ----- ------- ---- -- --- ------- --<br>------- ---------- ------ -- ----- -- ----- -- ---- ------<br>--- ----- --- --- ------ -------- ----- --- ------ ----- --<br>----- ----- ---------- and --- ------ ------ ---- -- ------<br>------- --- ------ ----- --- ---- ------- -- ---- --- --<br>------- ------,193071.19999980927,193070.5,192497.126,192510.69999980927,192513.804,193080.869,,36,and
screen,html.Screen,2_1_1_1_37,2022-02-17T12:54:30.440Z,,,,,,,,,,,,,,,,,54,,,,,,,,,,,,,,707.7309999046265,,response,,,,100,,,,,,,Space,keypress(Space),,,,,,,,-- --- ---- --- ------ ----- ------- ---- -- --- ------- --<br>------- ---------- ------ -- ----- -- ----- -- ---- ------<br>--- ----- --- --- ------ -------- ----- --- ------ ----- --<br>----- ----- ---------- --- the ------ ------ ---- -- ------<br>------- --- ------ ----- --- ---- ------- -- ---- --- --<br>------- ------,193789.39999961853,193788.59999990463,193064.191,193071.39999961853,193080.869,193798.224,,37,the
screen,html.Screen,2_1_1_1_38,2022-02-17T12:54:30.795Z,,,,,,,,,,,,,,,,,54,,,,,,,,,,,,,,345.17599961854285,,response,,,,100,,,,,,,Space,keypress(Space),,,,,,,,-- --- ---- --- ------ ----- ------- ---- -- --- ------- --<br>------- ---------- ------ -- ----- -- ----- -- ---- ------<br>--- ----- --- --- ------ -------- ----- --- ------ ----- --<br>----- ----- ---------- --- --- market ------ ---- -- ------<br>------- --- ------ ----- --- ---- ------- -- ---- --- --<br>------- ------,194144.09999990463,194143.39999961853,193781.546,193789.5,193798.224,194148.462,,38,market
screen,html.Screen,2_1_1_1_39,2022-02-17T12:54:31.110Z,,,,,,,,,,,,,,,,,54,,,,,,,,,,,,,,310.2379998092656,,response,,,,100,,,,,,,Space,keypress(Space),,,,,,,,-- --- ---- --- ------ ----- ------- ---- -- --- ------- --<br>------- ---------- ------ -- ----- -- ----- -- ---- ------<br>--- ----- --- --- ------ -------- ----- --- ------ ----- --<br>----- ----- ---------- --- --- ------ became ---- -- ------<br>------- --- ------ ----- --- ---- ------- -- ---- --- --<br>------- ------,194459.2999997139,194458.69999980927,194131.784,194144.19999980927,194148.462,194465.428,,39,became
screen,html.Screen,2_1_1_1_40,2022-02-17T12:54:31.461Z,,,,,,,,,,,,,,,,,54,,,,,,,,,,,,,,344.17199990461813,,response,,,,100,,,,,,,Space,keypress(Space),,,,,,,,-- --- ---- --- ------ ----- ------- ---- -- --- ------- --<br>------- ---------- ------ -- ----- -- ----- -- ---- ------<br>--- ----- --- --- ------ -------- ----- --- ------ ----- --<br>----- ----- ---------- --- --- ------ ------ wary -- ------<br>------- --- ------ ----- --- ---- ------- -- ---- --- --<br>------- ------,194810.39999961853,194809.59999990463,194448.75,194459.5,194465.428,194815.818,,40,wary
screen,html.Screen,2_1_1_1_41,2022-02-17T12:54:31.813Z,,,,,,,,,,,,,,,,,54,,,,,,,,,,,,,,345.4819997138984,,response,,,,100,,,,,,,Space,keypress(Space),,,,,,,,-- --- ---- --- ------ ----- ------- ---- -- --- ------- --<br>------- ---------- ------ -- ----- -- ----- -- ---- ------<br>--- ----- --- --- ------ -------- ----- --- ------ ----- --<br>----- ----- ---------- --- --- ------ ------ ---- of ------<br>------- --- ------ ----- --- ---- ------- -- ---- --- --<br>------- ------,195162.09999990463,195161.2999997139,194799.14,194810.5,194815.818,195166.098,,41,of
screen,html.Screen,2_1_1_1_42,2022-02-17T12:54:32.166Z,,,,,,,,,,,,,,,,,54,,,,,,,,,,,,,,348.80199961853214,,response,,,,100,,,,,,,Space,keypress(Space),,,,,,,,-- --- ---- --- ------ ----- ------- ---- -- --- ------- --<br>------- ---------- ------ -- ----- -- ----- -- ---- ------<br>--- ----- --- --- ------ -------- ----- --- ------ ----- --<br>----- ----- ---------- --- --- ------ ------ ---- -- French<br>------- --- ------ ----- --- ---- ------- -- ---- --- --<br>------- ------,195515.5,195514.89999961853,195149.42,195162.19999980927,195166.098,195516.429,,42,French
screen,html.Screen,2_1_1_1_43,2022-02-17T12:54:32.513Z,,,,,,,,,,,,,,,,,54,,,,,,,,,,,,,,344.7709998092614,,response,,,,100,,,,,,,Space,keypress(Space),,,,,,,,-- --- ---- --- ------ ----- ------- ---- -- --- ------- --<br>------- ---------- ------ -- ----- -- ----- -- ---- ------<br>--- ----- --- --- ------ -------- ----- --- ------ ----- --<br>----- ----- ---------- --- --- ------ ------ ---- -- ------<br>credit. --- ------ ----- --- ---- ------- -- ---- --- --<br>------- ------,195861.89999961853,195861.19999980927,195499.751,195515.69999980927,195516.429,195866.731,,43,credit.
screen,html.Screen,2_1_1_1_44,2022-02-17T12:54:32.942Z,,,,,,,,,,,,,,,,,54,,,,,,,,,,,,,,423.3689999046328,,response,,,,100,,,,,,,Space,keypress(Space),,,,,,,,-- --- ---- --- ------ ----- ------- ---- -- --- ------- --<br>------- ---------- ------ -- ----- -- ----- -- ---- ------<br>--- ----- --- --- ------ -------- ----- --- ------ ----- --<br>----- ----- ---------- --- --- ------ ------ ---- -- ------<br>------- The ------ ----- --- ---- ------- -- ---- --- --<br>------- ------,196290.89999961853,196290.09999990463,195850.053,195862.19999980927,195866.731,196300.504,,44,The
screen,html.Screen,2_1_1_1_45,2022-02-17T12:54:33.247Z,,,,,,,,,,,,,,,,,54,,,,,,,,,,,,,,294.6959998092789,,response,,,,100,,,,,,,Space,keypress(Space),,,,,,,,-- --- ---- --- ------ ----- ------- ---- -- --- ------- --<br>------- ---------- ------ -- ----- -- ----- -- ---- ------<br>--- ----- --- --- ------ -------- ----- --- ------ ----- --<br>----- ----- ---------- --- --- ------ ------ ---- -- ------<br>------- --- French ----- --- ---- ------- -- ---- --- --<br>------- ------,196595.7999997139,196595.19999980927,196283.826,196291.09999990463,196300.504,196600.765,,45,French
screen,html.Screen,2_1_1_1_46,2022-02-17T12:54:33.567Z,,,,,,,,,,,,,,,,,54,,,,,,,,,,,,,,315.03499971388374,,response,,,,100,,,,,,,Space,keypress(Space),,,,,,,,-- --- ---- --- ------ ----- ------- ---- -- --- ------- --<br>------- ---------- ------ -- ----- -- ----- -- ---- ------<br>--- ----- --- --- ------ -------- ----- --- ------ ----- --<br>----- ----- ---------- --- --- ------ ------ ---- -- ------<br>------- --- ------ state --- ---- ------- -- ---- --- --<br>------- ------,196916.39999961853,196915.7999997139,196584.087,196596.09999990463,196600.765,196917.671,,46,state
screen,html.Screen,2_1_1_1_47,2022-02-17T12:54:33.892Z,,,,,,,,,,,,,,,,,54,,,,,,,,,,,,,,323.2289996185282,,response,,,,100,,,,,,,Space,keypress(Space),,,,,,,,-- --- ---- --- ------ ----- ------- ---- -- --- ------- --<br>------- ---------- ------ -- ----- -- ----- -- ---- ------<br>--- ----- --- --- ------ -------- ----- --- ------ ----- --<br>----- ----- ---------- --- --- ------ ------ ---- -- ------<br>------- --- ------ ----- was ---- ------- -- ---- --- --<br>------- ------,197241.59999990463,197240.89999961853,196900.993,196916.59999990463,196917.671,197251.361,,47,was
screen,html.Screen,2_1_1_1_48,2022-02-17T12:54:34.210Z,,,,,,,,,,,,,,,,,54,,,,,,,,,,,,,,306.73899990462814,,response,,,,100,,,,,,,Space,keypress(Space),,,,,,,,-- --- ---- --- ------ ----- ------- ---- -- --- ------- --<br>------- ---------- ------ -- ----- -- ----- -- ---- ------<br>--- ----- --- --- ------ -------- ----- --- ------ ----- --<br>----- ----- ---------- --- --- ------ ------ ---- -- ------<br>------- --- ------ ----- --- left ------- -- ---- --- --<br>------- ------,197558.69999980927,197558.09999990463,197234.683,197241.69999980927,197251.361,197568.253,,48,left
screen,html.Screen,2_1_1_1_49,2022-02-17T12:54:34.509Z,,,,,,,,,,,,,,,,,54,,,,,,,,,,,,,,289.54699971390073,,response,,,,100,,,,,,,Space,keypress(Space),,,,,,,,-- --- ---- --- ------ ----- ------- ---- -- --- ------- --<br>------- ---------- ------ -- ----- -- ----- -- ---- ------<br>--- ----- --- --- ------ -------- ----- --- ------ ----- --<br>----- ----- ---------- --- --- ------ ------ ---- -- ------<br>------- --- ------ ----- --- ---- without -- ---- --- --<br>------- ------,197858.59999990463,197857.7999997139,197551.575,197558.89999961853,197568.253,197868.566,,49,without
screen,html.Screen,2_1_1_1_50,2022-02-17T12:54:34.794Z,,,,,,,,,,,,,,,,,54,,,,,,,,,,,,,,273.7339997139061,,response,,,,100,,,,,,,Space,keypress(Space),,,,,,,,-- --- ---- --- ------ ----- ------- ---- -- --- ------- --<br>------- ---------- ------ -- ----- -- ----- -- ---- ------<br>--- ----- --- --- ------ -------- ----- --- ------ ----- --<br>----- ----- ---------- --- --- ------ ------ ---- -- ------<br>------- --- ------ ----- --- ---- ------- an ---- --- --<br>------- ------,198143,198142.2999997139,197851.888,197858.69999980927,197868.566,198152.068,,50,an
screen,html.Screen,2_1_1_1_51,2022-02-17T12:54:35.100Z,,,,,,,,,,,,,,,,,54,,,,,,,,,,,,,,296.03199990463327,,response,,,,100,,,,,,,Space,keypress(Space),,,,,,,,-- --- ---- --- ------ ----- ------- ---- -- --- ------- --<br>------- ---------- ------ -- ----- -- ----- -- ---- ------<br>--- ----- --- --- ------ -------- ----- --- ------ ----- --<br>----- ----- ---------- --- --- ------ ------ ---- -- ------<br>------- --- ------ ----- --- ---- ------- -- easy --- --<br>------- ------,198448.7999997139,198448.09999990463,198135.39,198143.09999990463,198152.068,198452.416,,51,easy
screen,html.Screen,2_1_1_1_52,2022-02-17T12:54:35.375Z,,,,,,,,,,,,,,,,,54,,,,,,,,,,,,,,271.38399971390027,,response,,,,100,,,,,,,Space,keypress(Space),,,,,,,,-- --- ---- --- ------ ----- ------- ---- -- --- ------- --<br>------- ---------- ------ -- ----- -- ----- -- ---- ------<br>--- ----- --- --- ------ -------- ----- --- ------ ----- --<br>----- ----- ---------- --- --- ------ ------ ---- -- ------<br>------- --- ------ ----- --- ---- ------- -- ---- way --<br>------- ------,198724.5,198723.7999997139,198435.738,198448.89999961853,198452.416,198735.93,,52,way
screen,html.Screen,2_1_1_1_53,2022-02-17T12:54:35.750Z,,,,,,,,,,,,,,,,,54,,,,,,,,,,,,,,362.3699997139047,,response,,,,100,,,,,,,Space,keypress(Space),,,,,,,,-- --- ---- --- ------ ----- ------- ---- -- --- ------- --<br>------- ---------- ------ -- ----- -- ----- -- ---- ------<br>--- ----- --- --- ------ -------- ----- --- ------ ----- --<br>----- ----- ---------- --- --- ------ ------ ---- -- ------<br>------- --- ------ ----- --- ---- ------- -- ---- --- of<br>------- ------,199099.09999990463,199098.2999997139,198719.252,198724.59999990463,198735.93,199103.01,,53,of
screen,html.Screen,2_1_1_1_54,2022-02-17T12:54:36.093Z,,,,,,,,,,,,,,,,,54,,,,,,,,,,,,,,338.7899997138884,,response,,,,100,,,,,,,Space,keypress(Space),,,,,,,,-- --- ---- --- ------ ----- ------- ---- -- --- ------- --<br>------- ---------- ------ -- ----- -- ----- -- ---- ------<br>--- ----- --- --- ------ -------- ----- --- ------ ----- --<br>----- ----- ---------- --- --- ------ ------ ---- -- ------<br>------- --- ------ ----- --- ---- ------- -- ---- --- --<br>raising ------,199442.5,199441.7999997139,199086.332,199099.19999980927,199103.01,199453.299,,54,raising
screen,html.Screen,2_1_1_1_55,2022-02-17T12:54:36.461Z,,,,,,,,,,,,,,,,,54,,,,,,,,,,,,,,356.40099980926607,,response,,,,100,,,,,,,Space,keypress(Space),,,,,,,,-- --- ---- --- ------ ----- ------- ---- -- --- ------- --<br>------- ---------- ------ -- ----- -- ----- -- ---- ------<br>--- ----- --- --- ------ -------- ----- --- ------ ----- --<br>----- ----- ---------- --- --- ------ ------ ---- -- ------<br>------- --- ------ ----- --- ---- ------- -- ---- --- --<br>------- money.,199810.2999997139,199809.69999980927,199436.621,199442.59999990463,199453.299,199820.194,,55,money.
Item 100,flow.Loop,2_1_1_1,2022-02-17T12:54:36.461Z,,,,,,,,,,,,,,,,,,,,,,,,,,,,,,,23510.394999809272,,completion,,,,,D,,,,,,,,,,,silence,,,,,199810.5,199809.69999980927,176282.627,176284.09999990463,176299.305,199820.194,,,
Question 1,html.Screen,2_1_1_2,2022-02-17T12:54:39.067Z,,,,,,,,,,,,,,,,,,,,,,,,,,,,true,TRUE,,2595.3060000000114,,response,,,,100,D,,,,,,TRUE,click #choice-1,,,,silence,,,,,202416.19999980927,202415.5,199803.516,199810.59999990463,199820.194,202422.543,,,
Question 2,html.Screen,2_1_1_3,2022-02-17T12:54:43.347Z,,,,,,,,,,,,,,,,,,,,,,,,,,,,true,FALSE,,4273.15699980926,,response,,,,100,D,,,,,,FALSE,click #choice-2,,,,silence,,,,,206696.39999961853,206695.69999980927,202405.865,202416.39999961853,202422.543,206709.726,,,
Item 100,flow.Sequence,2_1_1,2022-02-17T12:54:43.347Z,,,,,,,,,,,,,,,,,,,,,,,,,,,,,,,40388.517999809264,,completion,,,,,,,,,,,,,,,,,,,,,206696.59999990463,206695.69999980927,166290.504,166296.7999997139,166307.182,206709.726,,,
End of Practice,html.Page,2_1_2,2022-02-17T12:54:45.220Z,,,,,,,,,,,,,,,,,,,,,,,,,,,,,,,1858.8739999046375,,form submission,,,,,,,,,,,,,,,,,,,,,208568.89999961853,208568.59999990463,206693.048,206696.69999980927,206709.726,208577.999,,,
Practice,flow.Sequence,2_1,2022-02-17T12:54:45.220Z,,,,,,,,,,,,,,,,,,,,,,,,,,,,,,,78810.80599990464,,completion,,,,,,,,,,,,,,,,,,,,,208569.09999990463,208568.59999990463,129741.116,129745.7999997139,129757.794,208577.999,,,
Trap_instruction,html.Page,2_2_0,2022-02-17T12:54:47.476Z,,,,,,,,,,,,,,,,,,,,,,,,,,,,,,,2246.5009999999893,,form submission,,,,,,,,,,,,,,,,,,,,,210824.89999961853,210824.5,208561.321,208569.19999980927,208577.999,210863.379,,,
trap_trial,html.Screen,2_2_1,2022-02-17T12:54:50.162Z,,,,,,,,,,,,,,,,,,,,,,,,,,,,true,1,,2648.020999618544,,response,,,,,,,,,,,1,click #choice-1,,,,,,,,,213512.09999990463,213511.39999961853,210813.345,210824.89999961853,210863.379,213515.264,,,
end of trap trial,html.Page,2_2_2,2022-02-17T12:54:51.595Z,,,,,,,,,,,,,,,,,,,,,,,,,,,,,,,1429.2360000000044,,form submission,,,,,,,,,,,,,,,,,,,,,214944.7999997139,214944.5,213498.586,213512.2999997139,213515.264,214950.376,,,
Trap 1,flow.Sequence,2_2,2022-02-17T12:54:51.595Z,,,,,,,,,,,,,,,,,,,,,,,,,,,,,,,6366.500999999989,,completion,,,,,,,,,,,,,,,,,,,,,214945,214944.5,208561.321,208569.19999980927,208577.999,214950.376,,,
Standby,html.Page,2_3_0,2022-02-17T12:54:59.591Z,,,,,,,,,,,,,,,,,,,,,,,,,,,,,,,8005.451000000001,,timeout,,,,,,,,,,,,,,,,,,,,,222940.7999997139,222939.149,214933.698,214945,214950.376,222955.827,,,
Holding screen,html.Screen,2_3_1_0_0,2022-02-17T12:55:06.598Z,,,,,,,,,,,,,,,,,,,,,,,,,,,,,,,7007.652000000002,,timeout,,,,,,,,,,,,,,,,,,,,,229947.89999961853,229946.801,222939.149,222940.89999961853,222955.827,229963.479,,,
screen,html.Screen,2_3_1_0_1_0,2022-02-17T12:55:07.862Z,,,,,,,,,,,,,,,,,15,,,,,,,,,,,,,,1247.8209997139056,,response,,,,7,D,,,,,,Space,keypress(Space),,,,silence,,,,Greg --------- ---------- - --- ------- -- --- ------------<br>----- -- -------- ------- ---- ------ - -------- ---- -----<br>--- ------- ---- -- --- -------- --- - ----- ------ ---- --<br>-------- --- -------- -------- --- -------- ---- -- ----- -<br>-------- ---- --- ---------- --------- -- ------- ------ -<br>--------- ----- -----,231212.19999980927,231211.2999997139,229946.801,229948,229963.479,231214.561,,0,Greg
screen,html.Screen,2_3_1_0_1_1,2022-02-17T12:55:08.745Z,,,,,,,,,,,,,,,,,15,,,,,,,,,,,,,,879.3389996185433,,response,,,,7,D,,,,,,Space,keypress(Space),,,,silence,,,,"---- Anderson, ---------- - --- ------- -- --- ------------<br>----- -- -------- ------- ---- ------ - -------- ---- -----<br>--- ------- ---- -- --- -------- --- - ----- ------ ---- --<br>-------- --- -------- -------- --- -------- ---- -- ----- -<br>-------- ---- --- ---------- --------- -- ------- ------ -<br>--------- ----- -----",232094.69999980927,232093.89999961853,231197.883,231212.39999961853,231214.561,232098.504,,1,"Anderson,"
screen,html.Screen,2_3_1_0_1_2,2022-02-17T12:55:09.453Z,,,,,,,,,,,,,,,,,15,,,,,,,,,,,,,,703.395999618544,,response,,,,7,D,,,,,,Space,keypress(Space),,,,silence,,,,---- --------- considered - --- ------- -- --- ------------<br>----- -- -------- ------- ---- ------ - -------- ---- -----<br>--- ------- ---- -- --- -------- --- - ----- ------ ---- --<br>-------- --- -------- -------- --- -------- ---- -- ----- -<br>-------- ---- --- ---------- --------- -- ------- ------ -<br>--------- ----- -----,232802.59999990463,232801.89999961853,232081.826,232095.7999997139,232098.504,232816.091,,2,considered
screen,html.Screen,2_3_1_0_1_3,2022-02-17T12:55:09.855Z,,,,,,,,,,,,,,,,,15,,,,,,,,,,,,,,388.3089996185445,,response,,,,7,D,,,,,,Space,keypress(Space),,,,silence,,,,---- --------- ---------- a --- ------- -- --- ------------<br>----- -- -------- ------- ---- ------ - -------- ---- -----<br>--- ------- ---- -- --- -------- --- - ----- ------ ---- --<br>-------- --- -------- -------- --- -------- ---- -- ----- -<br>-------- ---- --- ---------- --------- -- ------- ------ -<br>--------- ----- -----,233205.09999990463,233204.39999961853,232799.413,232802.7999997139,232816.091,233216.528,,3,a
screen,html.Screen,2_3_1_0_1_4,2022-02-17T12:55:10.227Z,,,,,,,,,,,,,,,,,15,,,,,,,,,,,,,,359.0719999046414,,response,,,,7,D,,,,,,Space,keypress(Space),,,,silence,,,,---- --------- ---------- - key ------- -- --- ------------<br>----- -- -------- ------- ---- ------ - -------- ---- -----<br>--- ------- ---- -- --- -------- --- - ----- ------ ---- --<br>-------- --- -------- -------- --- -------- ---- -- ----- -<br>-------- ---- --- ---------- --------- -- ------- ------ -<br>--------- ----- -----,233576.2999997139,233575.59999990463,233199.85,233205.2999997139,233216.528,233583.528,,4,key
screen,html.Screen,2_3_1_0_1_5,2022-02-17T12:55:10.552Z,,,,,,,,,,,,,,,,,15,,,,,,,,,,,,,,317.671999809274,,response,,,,7,D,,,,,,Space,keypress(Space),,,,silence,,,,---- --------- ---------- - --- witness -- --- ------------<br>----- -- -------- ------- ---- ------ - -------- ---- -----<br>--- ------- ---- -- --- -------- --- - ----- ------ ---- --<br>-------- --- -------- -------- --- -------- ---- -- ----- -<br>-------- ---- --- ---------- --------- -- ------- ------ -<br>--------- ----- -----,233901.7999997139,233901.19999980927,233566.85,233576.5,233583.528,233917.146,,5,witness
screen,html.Screen,2_3_1_0_1_6,2022-02-17T12:55:10.886Z,,,,,,,,,,,,,,,,,15,,,,,,,,,,,,,,317.8539999999921,,response,,,,7,D,,,,,,Space,keypress(Space),,,,silence,,,,---- --------- ---------- - --- ------- by --- ------------<br>----- -- -------- ------- ---- ------ - -------- ---- -----<br>--- ------- ---- -- --- -------- --- - ----- ------ ---- --<br>-------- --- -------- -------- --- -------- ---- -- ----- -<br>-------- ---- --- ---------- --------- -- ------- ------ -<br>--------- ----- -----,234235.69999980927,234235,233900.468,233902,233917.146,234250.797,,6,by
screen,html.Screen,2_3_1_0_1_7,2022-02-17T12:55:11.200Z,,,,,,,,,,,,,,,,,15,,,,,,,,,,,,,,298.7030000000086,,response,,,,7,D,,,,,,Space,keypress(Space),,,,silence,,,,---- --------- ---------- - --- ------- -- the ------------<br>----- -- -------- ------- ---- ------ - -------- ---- -----<br>--- ------- ---- -- --- -------- --- - ----- ------ ---- --<br>-------- --- -------- -------- --- -------- ---- -- ----- -<br>-------- ---- --- ---------- --------- -- ------- ------ -<br>--------- ----- -----,234550.19999980927,234549.5,234234.119,234235.89999961853,234250.797,234550.987,,7,the
screen,html.Screen,2_3_1_0_1_8,2022-02-17T12:55:11.975Z,,,,,,,,,,,,,,,,,15,,,,,,,,,,,,,,773.2129998092714,,response,,,,7,D,,,,,,Space,keypress(Space),,,,silence,,,,"---- --------- ---------- - --- ------- -- --- prosecution,<br>----- -- -------- ------- ---- ------ - -------- ---- -----<br>--- ------- ---- -- --- -------- --- - ----- ------ ---- --<br>-------- --- -------- -------- --- -------- ---- -- ----- -<br>-------- ---- --- ---------- --------- -- ------- ------ -<br>--------- ----- -----",235324.7999997139,235324.19999980927,234534.309,234550.2999997139,234550.987,235335.006,,8,"prosecution,"
screen,html.Screen,2_3_1_0_1_9,2022-02-17T12:55:12.484Z,,,,,,,,,,,,,,,,,15,,,,,,,,,,,,,,497.6939998092712,,response,,,,7,D,,,,,,Space,keypress(Space),,,,silence,,,,---- --------- ---------- - --- ------- -- --- ------------<br>vowed -- -------- ------- ---- ------ - -------- ---- -----<br>--- ------- ---- -- --- -------- --- - ----- ------ ---- --<br>-------- --- -------- -------- --- -------- ---- -- ----- -<br>-------- ---- --- ---------- --------- -- ------- ------ -<br>--------- ----- -----,235833.39999961853,235832.69999980927,235318.328,235325.09999990463,235335.006,235835.487,,9,vowed
screen,html.Screen,2_3_1_0_1_10,2022-02-17T12:55:12.812Z,,,,,,,,,,,,,,,,,15,,,,,,,,,,,,,,326.0130000000063,,response,,,,7,D,,,,,,Space,keypress(Space),,,,silence,,,,---- --------- ---------- - --- ------- -- --- ------------<br>----- he -------- ------- ---- ------ - -------- ---- -----<br>--- ------- ---- -- --- -------- --- - ----- ------ ---- --<br>-------- --- -------- -------- --- -------- ---- -- ----- -<br>-------- ---- --- ---------- --------- -- ------- ------ -<br>--------- ----- -----,236162.19999980927,236161.5,235818.809,235833.5,235835.487,236169.148,,10,he
screen,html.Screen,2_3_1_0_1_11,2022-02-17T12:55:13.139Z,,,,,,,,,,,,,,,,,15,,,,,,,,,,,,,,318.55199980927864,,response,,,,7,D,,,,,,Space,keypress(Space),,,,silence,,,,---- --------- ---------- - --- ------- -- --- ------------<br>----- -- wouldn't ------- ---- ------ - -------- ---- -----<br>--- ------- ---- -- --- -------- --- - ----- ------ ---- --<br>-------- --- -------- -------- --- -------- ---- -- ----- -<br>-------- ---- --- ---------- --------- -- ------- ------ -<br>--------- ----- -----,236488.2999997139,236487.69999980927,236152.47,236162.39999961853,236169.148,236502.713,,11,wouldn't
screen,html.Screen,2_3_1_0_1_12,2022-02-17T12:55:13.488Z,,,,,,,,,,,,,,,,,15,,,,,,,,,,,,,,333.9869998092763,,response,,,,7,D,,,,,,Space,keypress(Space),,,,silence,,,,---- --------- ---------- - --- ------- -- --- ------------<br>----- -- -------- testify ---- ------ - -------- ---- -----<br>--- ------- ---- -- --- -------- --- - ----- ------ ---- --<br>-------- --- -------- -------- --- -------- ---- -- ----- -<br>-------- ---- --- ---------- --------- -- ------- ------ -<br>--------- ----- -----,236837.39999961853,236836.69999980927,236486.035,236488.5,236502.713,236853.089,,12,testify
screen,html.Screen,2_3_1_0_1_13,2022-02-17T12:55:14.059Z,,,,,,,,,,,,,,,,,15,,,,,,,,,,,,,,554.5109999046254,,response,,,,7,D,,,,,,Space,keypress(Space),,,,silence,,,,---- --------- ---------- - --- ------- -- --- ------------<br>----- -- -------- ------- when ------ - -------- ---- -----<br>--- ------- ---- -- --- -------- --- - ----- ------ ---- --<br>-------- --- -------- -------- --- -------- ---- -- ----- -<br>-------- ---- --- ---------- --------- -- ------- ------ -<br>--------- ----- -----,237408.2999997139,237407.59999990463,236836.411,236837.59999990463,236853.089,237420.202,,13,when
screen,html.Screen,2_3_1_0_1_14,2022-02-17T12:55:14.432Z,,,,,,,,,,,,,,,,,15,,,,,,,,,,,,,,360.69799961854005,,response,,,,7,D,,,,,,Space,keypress(Space),,,,silence,,,,---- --------- ---------- - --- ------- -- --- ------------<br>----- -- -------- ------- ---- served - -------- ---- -----<br>--- ------- ---- -- --- -------- --- - ----- ------ ---- --<br>-------- --- -------- -------- --- -------- ---- -- ----- -<br>-------- ---- --- ---------- --------- -- ------- ------ -<br>--------- ----- -----,237781.69999980927,237780.89999961853,237403.524,237408.5,237420.202,237787.229,,14,served
screen,html.Screen,2_3_1_0_1_15,2022-02-17T12:55:14.814Z,,,,,,,,,,,,,,,,,15,,,,,,,,,,,,,,375.47099980927305,,response,,,,7,D,,,,,,Space,keypress(Space),,,,silence,,,,---- --------- ---------- - --- ------- -- --- ------------<br>----- -- -------- ------- ---- ------ a -------- ---- -----<br>--- ------- ---- -- --- -------- --- - ----- ------ ---- --<br>-------- --- -------- -------- --- -------- ---- -- ----- -<br>-------- ---- --- ---------- --------- -- ------- ------ -<br>--------- ----- -----,238163.39999961853,238162.69999980927,237770.551,237781.7999997139,237787.229,238170.831,,15,a
screen,html.Screen,2_3_1_0_1_16,2022-02-17T12:55:16.270Z,,,,,,,,,,,,,,,,,15,,,,,,,,,,,,,,1448.0689996185247,,response,,,,7,D,,,,,,Space,keypress(Space),,,,silence,,,,---- --------- ---------- - --- ------- -- --- ------------<br>----- -- -------- ------- ---- ------ - subpoena ---- -----<br>--- ------- ---- -- --- -------- --- - ----- ------ ---- --<br>-------- --- -------- -------- --- -------- ---- -- ----- -<br>-------- ---- --- ---------- --------- -- ------- ------ -<br>--------- ----- -----,239619.69999980927,239618.89999961853,238154.153,238163.59999990463,238170.831,239621.97,,16,subpoena
screen,html.Screen,2_3_1_0_1_17,2022-02-17T12:55:17.307Z,,,,,,,,,,,,,,,,,15,,,,,,,,,,,,,,1034.1299999046314,,response,,,,7,D,,,,,,Space,keypress(Space),,,,silence,,,,---- --------- ---------- - --- ------- -- --- ------------<br>----- -- -------- ------- ---- ------ - -------- last -----<br>--- ------- ---- -- --- -------- --- - ----- ------ ---- --<br>-------- --- -------- -------- --- -------- ---- -- ----- -<br>-------- ---- --- ---------- --------- -- ------- ------ -<br>--------- ----- -----,240656.7999997139,240656.09999990463,239605.292,239619.7999997139,239621.97,240672.982,,17,last
screen,html.Screen,2_3_1_0_1_18,2022-02-17T12:55:18.231Z,,,,,,,,,,,,,,,,,15,,,,,,,,,,,,,,907.0180000000109,,response,,,,7,D,,,,,,Space,keypress(Space),,,,silence,,,,---- --------- ---------- - --- ------- -- --- ------------<br>----- -- -------- ------- ---- ------ - -------- ---- week.<br>--- ------- ---- -- --- -------- --- - ----- ------ ---- --<br>-------- --- -------- -------- --- -------- ---- -- ----- -<br>-------- ---- --- ---------- --------- -- ------- ------ -<br>--------- ----- -----,241580.69999980927,241580,240656.304,240656.89999961853,240672.982,241590.52,,18,week.
screen,html.Screen,2_3_1_0_1_19,2022-02-17T12:55:18.993Z,,,,,,,,,,,,,,,,,15,,,,,,,,,,,,,,751.579999904643,,response,,,,7,D,,,,,,Space,keypress(Space),,,,silence,,,,---- --------- ---------- - --- ------- -- --- ------------<br>----- -- -------- ------- ---- ------ - -------- ---- -----<br>His ------- ---- -- --- -------- --- - ----- ------ ---- --<br>-------- --- -------- -------- --- -------- ---- -- ----- -<br>-------- ---- --- ---------- --------- -- ------- ------ -<br>--------- ----- -----,242342.89999961853,242342.09999990463,241573.842,241580.7999997139,241590.52,242357.851,,19,His
screen,html.Screen,2_3_1_0_1_20,2022-02-17T12:55:19.351Z,,,,,,,,,,,,,,,,,15,,,,,,,,,,,,,,342.54899961853516,,response,,,,7,D,,,,,,Space,keypress(Space),,,,silence,,,,---- --------- ---------- - --- ------- -- --- ------------<br>----- -- -------- ------- ---- ------ - -------- ---- -----<br>--- lawyers ---- -- --- -------- --- - ----- ------ ---- --<br>-------- --- -------- -------- --- -------- ---- -- ----- -<br>-------- ---- --- ---------- --------- -- ------- ------ -<br>--------- ----- -----,242701.19999980927,242700.39999961853,242341.173,242343,242357.851,242708.133,,20,lawyers
screen,html.Screen,2_3_1_0_1_21,2022-02-17T12:55:19.669Z,,,,,,,,,,,,,,,,,15,,,,,,,,,,,,,,309.36699999999837,,response,,,,7,D,,,,,,Space,keypress(Space),,,,silence,,,,---- --------- ---------- - --- ------- -- --- ------------<br>----- -- -------- ------- ---- ------ - -------- ---- -----<br>--- ------- said -- --- -------- --- - ----- ------ ---- --<br>-------- --- -------- -------- --- -------- ---- -- ----- -<br>-------- ---- --- ---------- --------- -- ------- ------ -<br>--------- ----- -----,243018.2999997139,243017.5,242691.455,242701.2999997139,242708.133,243025.254,,21,said
screen,html.Screen,2_3_1_0_1_22,2022-02-17T12:55:19.982Z,,,,,,,,,,,,,,,,,15,,,,,,,,,,,,,,306.24600000001374,,response,,,,7,D,,,,,,Space,keypress(Space),,,,silence,,,,---- --------- ---------- - --- ------- -- --- ------------<br>----- -- -------- ------- ---- ------ - -------- ---- -----<br>--- ------- ---- he --- -------- --- - ----- ------ ---- --<br>-------- --- -------- -------- --- -------- ---- -- ----- -<br>-------- ---- --- ---------- --------- -- ------- ------ -<br>--------- ----- -----,243332.19999980927,243331.5,243008.576,243018.39999961853,243025.254,243342.184,,22,he
screen,html.Screen,2_3_1_0_1_23,2022-02-17T12:55:20.239Z,,,,,,,,,,,,,,,,,15,,,,,,,,,,,,,,245.81599999999162,,response,,,,7,D,,,,,,Space,keypress(Space),,,,silence,,,,---- --------- ---------- - --- ------- -- --- ------------<br>----- -- -------- ------- ---- ------ - -------- ---- -----<br>--- ------- ---- -- was -------- --- - ----- ------ ---- --<br>-------- --- -------- -------- --- -------- ---- -- ----- -<br>-------- ---- --- ---------- --------- -- ------- ------ -<br>--------- ----- -----,243588.7999997139,243588,243325.506,243332.2999997139,243342.184,243592.439,,23,was
screen,html.Screen,2_3_1_0_1_24,2022-02-17T12:55:20.534Z,,,,,,,,,,,,,,,,,15,,,,,,,,,,,,,,290.16099990461953,,response,,,,7,D,,,,,,Space,keypress(Space),,,,silence,,,,---- --------- ---------- - --- ------- -- --- ------------<br>----- -- -------- ------- ---- ------ - -------- ---- -----<br>--- ------- ---- -- --- prepared --- - ----- ------ ---- --<br>-------- --- -------- -------- --- -------- ---- -- ----- -<br>-------- ---- --- ---------- --------- -- ------- ------ -<br>--------- ----- -----,243883.2999997139,243882.59999990463,243575.761,243588.89999961853,243592.439,243892.688,,24,prepared
screen,html.Screen,2_3_1_0_1_25,2022-02-17T12:55:20.857Z,,,,,,,,,,,,,,,,,15,,,,,,,,,,,,,,313.11199971390306,,response,,,,7,D,,,,,,Space,keypress(Space),,,,silence,,,,---- --------- ---------- - --- ------- -- --- ------------<br>----- -- -------- ------- ---- ------ - -------- ---- -----<br>--- ------- ---- -- --- -------- for - ----- ------ ---- --<br>-------- --- -------- -------- --- -------- ---- -- ----- -<br>-------- ---- --- ---------- --------- -- ------- ------ -<br>--------- ----- -----,244206.39999961853,244205.7999997139,243876.01,243883.59999990463,243892.688,244209.635,,25,for
screen,html.Screen,2_3_1_0_1_26,2022-02-17T12:55:21.159Z,,,,,,,,,,,,,,,,,15,,,,,,,,,,,,,,298.46499990462326,,response,,,,7,D,,,,,,Space,keypress(Space),,,,silence,,,,---- --------- ---------- - --- ------- -- --- ------------<br>----- -- -------- ------- ---- ------ - -------- ---- -----<br>--- ------- ---- -- --- -------- --- a ----- ------ ---- --<br>-------- --- -------- -------- --- -------- ---- -- ----- -<br>-------- ---- --- ---------- --------- -- ------- ------ -<br>--------- ----- -----,244508.7999997139,244508.09999990463,244192.957,244206.59999990463,244209.635,244509.824,,26,a
screen,html.Screen,2_3_1_0_1_27,2022-02-17T12:55:21.476Z,,,,,,,,,,,,,,,,,15,,,,,,,,,,,,,,315.17600000000675,,response,,,,7,D,,,,,,Space,keypress(Space),,,,silence,,,,---- --------- ---------- - --- ------- -- --- ------------<br>----- -- -------- ------- ---- ------ - -------- ---- -----<br>--- ------- ---- -- --- -------- --- - third ------ ---- --<br>-------- --- -------- -------- --- -------- ---- -- ----- -<br>-------- ---- --- ---------- --------- -- ------- ------ -<br>--------- ----- -----,244825.69999980927,244825,244493.146,244509,244509.824,244826.789,,27,third
screen,html.Screen,2_3_1_0_1_28,2022-02-17T12:55:24.358Z,,,,,,,,,,,,,,,,,15,,,,,,,,,,,,,,2880.1109996185405,,response,,,,7,D,,,,,,Space,keypress(Space),,,,silence,,,,---- --------- ---------- - --- ------- -- --- ------------<br>----- -- -------- ------- ---- ------ - -------- ---- -----<br>--- ------- ---- -- --- -------- --- - ----- prison ---- --<br>-------- --- -------- -------- --- -------- ---- -- ----- -<br>-------- ---- --- ---------- --------- -- ------- ------ -<br>--------- ----- -----,247707.69999980927,247706.89999961853,244810.111,244825.89999961853,244826.789,247712.188,,28,prison
screen,html.Screen,2_3_1_0_1_29,2022-02-17T12:55:24.680Z,,,,,,,,,,,,,,,,,15,,,,,,,,,,,,,,317.11199971390306,,response,,,,7,D,,,,,,Space,keypress(Space),,,,silence,,,,---- --------- ---------- - --- ------- -- --- ------------<br>----- -- -------- ------- ---- ------ - -------- ---- -----<br>--- ------- ---- -- --- -------- --- - ----- ------ stay --<br>-------- --- -------- -------- --- -------- ---- -- ----- -<br>-------- ---- --- ---------- --------- -- ------- ------ -<br>--------- ----- -----,248030,248029.2999997139,247695.51,247707.89999961853,247712.188,248046.369,,29,stay
screen,html.Screen,2_3_1_0_1_30,2022-02-17T12:55:25.003Z,,,,,,,,,,,,,,,,,15,,,,,,,,,,,,,,305.7309999046265,,response,,,,7,D,,,,,,Space,keypress(Space),,,,silence,,,,---- --------- ---------- - --- ------- -- --- ------------<br>----- -- -------- ------- ---- ------ - -------- ---- -----<br>--- ------- ---- -- --- -------- --- - ----- ------ ---- to<br>-------- --- -------- -------- --- -------- ---- -- ----- -<br>-------- ---- --- ---------- --------- -- ------- ------ -<br>--------- ----- -----,248352.69999980927,248352.09999990463,248029.691,248030.19999980927,248046.369,248363.28,,30,to
screen,html.Screen,2_3_1_0_1_31,2022-02-17T12:55:25.340Z,,,,,,,,,,,,,,,,,15,,,,,,,,,,,,,,325.4199998092663,,response,,,,7,D,,,,,,Space,keypress(Space),,,,silence,,,,---- --------- ---------- - --- ------- -- --- ------------<br>----- -- -------- ------- ---- ------ - -------- ---- -----<br>--- ------- ---- -- --- -------- --- - ----- ------ ---- --<br>maintain --- -------- -------- --- -------- ---- -- ----- -<br>-------- ---- --- ---------- --------- -- ------- ------ -<br>--------- ----- -----,248689.5,248688.69999980927,248346.602,248352.89999961853,248363.28,248696.851,,31,maintain
screen,html.Screen,2_3_1_0_1_32,2022-02-17T12:55:25.655Z,,,,,,,,,,,,,,,,,15,,,,,,,,,,,,,,306.9489997139026,,response,,,,7,D,,,,,,Space,keypress(Space),,,,silence,,,,---- --------- ---------- - --- ------- -- --- ------------<br>----- -- -------- ------- ---- ------ - -------- ---- -----<br>--- ------- ---- -- --- -------- --- - ----- ------ ---- --<br>-------- his -------- -------- --- -------- ---- -- ----- -<br>-------- ---- --- ---------- --------- -- ------- ------ -<br>--------- ----- -----,249004.59999990463,249003.7999997139,248680.173,248689.69999980927,248696.851,249013.864,,32,his
screen,html.Screen,2_3_1_0_1_33,2022-02-17T12:55:25.982Z,,,,,,,,,,,,,,,,,15,,,,,,,,,,,,,,316.6359999999986,,response,,,,7,D,,,,,,Space,keypress(Space),,,,silence,,,,---- --------- ---------- - --- ------- -- --- ------------<br>----- -- -------- ------- ---- ------ - -------- ---- -----<br>--- ------- ---- -- --- -------- --- - ----- ------ ---- --<br>-------- --- silence. -------- --- -------- ---- -- ----- -<br>-------- ---- --- ---------- --------- -- ------- ------ -<br>--------- ----- -----,249331.19999980927,249330.5,248997.186,249004.7999997139,249013.864,249347.5,,33,silence.
screen,html.Screen,2_3_1_0_1_34,2022-02-17T12:55:26.805Z,,,,,,,,,,,,,,,,,15,,,,,,,,,,,,,,806.3999996185303,,response,,,,7,D,,,,,,Space,keypress(Space),,,,silence,,,,---- --------- ---------- - --- ------- -- --- ------------<br>----- -- -------- ------- ---- ------ - -------- ---- -----<br>--- ------- ---- -- --- -------- --- - ----- ------ ---- --<br>-------- --- -------- Anderson --- -------- ---- -- ----- -<br>-------- ---- --- ---------- --------- -- ------- ------ -<br>--------- ----- -----,250154.7999997139,250153.89999961853,249330.822,249331.5,249347.5,250164.797,,34,Anderson
screen,html.Screen,2_3_1_0_1_35,2022-02-17T12:55:27.254Z,,,,,,,,,,,,,,,,,15,,,,,,,,,,,,,,438.6029996185389,,response,,,,7,D,,,,,,Space,keypress(Space),,,,silence,,,,---- --------- ---------- - --- ------- -- --- ------------<br>----- -- -------- ------- ---- ------ - -------- ---- -----<br>--- ------- ---- -- --- -------- --- - ----- ------ ---- --<br>-------- --- -------- -------- was -------- ---- -- ----- -<br>-------- ---- --- ---------- --------- -- ------- ------ -<br>--------- ----- -----,250604.19999980927,250603.39999961853,250148.119,250154.89999961853,250164.797,250615.257,,35,was
screen,html.Screen,2_3_1_0_1_36,2022-02-17T12:55:27.643Z,,,,,,,,,,,,,,,,,15,,,,,,,,,,,,,,376.3429999046202,,response,,,,7,D,,,,,,Space,keypress(Space),,,,silence,,,,---- --------- ---------- - --- ------- -- --- ------------<br>----- -- -------- ------- ---- ------ - -------- ---- -----<br>--- ------- ---- -- --- -------- --- - ----- ------ ---- --<br>-------- --- -------- -------- --- released ---- -- ----- -<br>-------- ---- --- ---------- --------- -- ------- ------ -<br>--------- ----- -----,250992.2999997139,250991.59999990463,250598.579,250604.2999997139,250615.257,250998.928,,36,released
screen,html.Screen,2_3_1_0_1_37,2022-02-17T12:55:28.003Z,,,,,,,,,,,,,,,,,15,,,,,,,,,,,,,,353.07199999998556,,response,,,,7,D,,,,,,Space,keypress(Space),,,,silence,,,,---- --------- ---------- - --- ------- -- --- ------------<br>----- -- -------- ------- ---- ------ - -------- ---- -----<br>--- ------- ---- -- --- -------- --- - ----- ------ ---- --<br>-------- --- -------- -------- --- -------- July -- ----- -<br>-------- ---- --- ---------- --------- -- ------- ------ -<br>--------- ----- -----,251352.69999980927,251352,250982.25,250992.5,250998.928,251365.935,,37,July
screen,html.Screen,2_3_1_0_1_38,2022-02-17T12:55:28.298Z,,,,,,,,,,,,,,,,,15,,,,,,,,,,,,,,281.26499980926747,,response,,,,7,D,,,,,,Space,keypress(Space),,,,silence,,,,---- --------- ---------- - --- ------- -- --- ------------<br>----- -- -------- ------- ---- ------ - -------- ---- -----<br>--- ------- ---- -- --- -------- --- - ----- ------ ---- --<br>-------- --- -------- -------- --- -------- ---- 20 ----- -<br>-------- ---- --- ---------- --------- -- ------- ------ -<br>--------- ----- -----,251647.89999961853,251647.19999980927,251349.257,251352.89999961853,251365.935,251649.548,,38,20
screen,html.Screen,2_3_1_0_1_39,2022-02-17T12:55:28.601Z,,,,,,,,,,,,,,,,,15,,,,,,,,,,,,,,300.7519997138879,,response,,,,7,D,,,,,,Space,keypress(Space),,,,silence,,,,---- --------- ---------- - --- ------- -- --- ------------<br>----- -- -------- ------- ---- ------ - -------- ---- -----<br>--- ------- ---- -- --- -------- --- - ----- ------ ---- --<br>-------- --- -------- -------- --- -------- ---- -- after -<br>-------- ---- --- ---------- --------- -- ------- ------ -<br>--------- ----- -----,251950.89999961853,251950.2999997139,251632.87,251648.09999990463,251649.548,251966.491,,39,after
screen,html.Screen,2_3_1_0_1_40,2022-02-17T12:55:29.015Z,,,,,,,,,,,,,,,,,15,,,,,,,,,,,,,,397.4089996185212,,response,,,,7,D,,,,,,Space,keypress(Space),,,,silence,,,,---- --------- ---------- - --- ------- -- --- ------------<br>----- -- -------- ------- ---- ------ - -------- ---- -----<br>--- ------- ---- -- --- -------- --- - ----- ------ ---- --<br>-------- --- -------- -------- --- -------- ---- -- ----- a<br>-------- ---- --- ---------- --------- -- ------- ------ -<br>--------- ----- -----,252364.69999980927,252363.89999961853,251949.813,251951.09999990463,251966.491,252366.804,,40,a
