sender,sender_type,sender_id,timestamp,meta,,Blues,Classical,Country,Dance,Electronic,Folk,Gospel,Hip-Hop,Jazz,Latin,Musical/Film,New-age,Pop,Prolific_id,Provo_ID,R&B,Rap,Reggae,Religious,Rock,Soul,Swing,Traditional,age,artist_name,correct,correctResponse,distraction,duration,education,ended_on,familiarity,gender,headphone_check_performance,item,list,music_frequency,offensiveness,pleasantness,position_correct,preference,response,response_action,snippet_file,song_name,song_rating,sound,stimulus_1,stimulus_2,stimulus_3,text,time_commit,time_end,time_render,time_run,time_show,time_switch,url,word,word_ID
Prolific ID,html.Form,0,2022-02-21T12:22:25.529Z,"{""labjs_version"":""20.2.2"",""labjs_build"":{""flavor"":""production"",""commit"":""a25486e0c714a0ae2ce03ff94b7bb6896854dcfa""},""location"":""https://run.pavlovia.org/mvasilev/prolific2_music_c/"",""userAgent"":""Mozilla/5.0 (Macintosh; Intel Mac OS X 10_15_7) AppleWebKit/537.36 (KHTML, like Gecko) Chrome/98.0.4758.80 Safari/537.36"",""platform"":""MacIntel"",""language"":""en-US"",""locale"":""en-GB"",""timeZone"":""Europe/London"",""timezoneOffset"":0,""screen_width"":1440,""screen_height"":900,""scroll_width"":1440,""scroll_height"":673,""window_innerWidth"":1440,""window_innerHeight"":721,""devicePixelRatio"":1}",,,,,,,,,,,,,,,60d4a9fcf8fa9244065f818d,,,,,,,,,,,,,,,232373.55899999887,,form submission,,,,,,,,,,,,,,,,,,,,,245585,245584.29999999888,13160.608,13159.299999998882,13210.741,245593.907,{},,
Introduction,html.Screen,1_0,2022-02-21T12:22:29.087Z,,,,,,,,,,,,,,,,,,,,,,,,,,,,,,,3543.5929999999935,,response,,,,,,,,,,,continue,click button,,,,,,,,,249143.40000000037,249137.5,245577.196,245585.40000000037,245593.907,249153.35,,,
Volume calibration,html.Screen,1_1,2022-02-21T12:22:40.554Z,,,,,,,,,,,,,,,,,,,,,,,,,,,,,,,11449.449999998877,,response,,,,,,,,,,,continue,click button,,,,,,,,,260609.79999999888,260602.79999999888,249136.639,249143.79999999888,249153.35,260617.096,,,
Task instructions,html.Screen,1_2,2022-02-21T12:22:50.388Z,,,,,,,,,,,,,,,,,,,,,,,,,,,,,,,9823.40400000001,,response,,,,,,,,,,,continue,click button,,,,,,,,,270443.9000000004,270440.5,260600.385,260610.09999999963,260617.096,270459.875,,,
Sounds,html.Screen,1_3_0_0,2022-02-21T12:22:54.637Z,,,,,,,,,,,,,,,,,,,,,,,,,,,,,,,4244.593999999983,,timeout,,,,,,,,,2,,,,,,,,O,S,I,,274692.5,274687.758,270443.164,270444.19999999925,270459.875,274704.469,,,
Judgement,html.Screen,1_3_0_1,2022-02-21T12:22:55.414Z,,,,,,,,,,,,,,,,,,,,,,,,,,,,true,2,,762.9310000003898,,response,,,,,,,,,2,,2,click #choice-2,,,,,O,S,I,,275469.7999999989,275467.4000000004,274687.758,274692.69999999925,274704.469,275473.175,,,
Trial,flow.Sequence,1_3_0,2022-02-21T12:22:55.415Z,,,,,,,,,,,,,,,,,,,,,,,,,,,,,,,5007.5250000003725,,completion,,,,,,,,,2,,,,,,,,O,S,I,,275470.0999999996,275467.4000000004,270443.164,270444.0999999996,270459.875,275473.175,,,
Sounds,html.Screen,1_3_1_0,2022-02-21T12:22:59.649Z,,,,,,,,,,,,,,,,,,,,,,,,,,,,,,,4244.593999999983,,timeout,,,,,,,,,1,,,,,,,,S,I,O,,279704.19999999925,279701.058,275456.464,275470.4000000004,275473.175,279717.769,,,
Judgement,html.Screen,1_3_1_1,2022-02-21T12:23:00.207Z,,,,,,,,,,,,,,,,,,,,,,,,,,,,true,1,,540.5309999989113,,response,,,,,,,,,1,,1,click #choice-1,,,,,S,I,O,,280262.69999999925,280258.2999999989,279701.058,279704.5,279717.769,280269.232,,,
Trial,flow.Sequence,1_3_1,2022-02-21T12:23:00.208Z,,,,,,,,,,,,,,,,,,,,,,,,,,,,,,,4785.124999998894,,completion,,,,,,,,,1,,,,,,,,S,I,O,,280263.19999999925,280258.2999999989,275456.464,275470.19999999925,275473.175,280269.232,,,
Sounds,html.Screen,1_3_2_0,2022-02-21T12:23:04.444Z,,,,,,,,,,,,,,,,,,,,,,,,,,,,,,,4244.593999999983,,timeout,,,,,,,,,3,,,,,,,,O,I,S,,284499,284497.115,280252.521,280263.5,280269.232,284513.826,,,
Judgement,html.Screen,1_3_2_1,2022-02-21T12:23:04.822Z,,,,,,,,,,,,,,,,,,,,,,,,,,,,true,3,,360.373999999254,,response,,,,,,,,,3,,3,click #choice-3,,,,,O,I,S,,284877.4000000004,284874.19999999925,284497.115,284499.0999999996,284513.826,284881.468,,,
Trial,flow.Sequence,1_3_2,2022-02-21T12:23:04.823Z,,,,,,,,,,,,,,,,,,,,,,,,,,,,,,,4604.967999999237,,completion,,,,,,,,,3,,,,,,,,O,I,S,,284877.69999999925,284874.19999999925,280252.521,280263.2999999989,280269.232,284881.468,,,
Sounds,html.Screen,1_3_3_0,2022-02-21T12:23:09.059Z,,,,,,,,,,,,,,,,,,,,,,,,,,,,,,,4261.304999999993,,timeout,,,,,,,,,2,,,,,,,,I,S,O,,289114.0999999996,289109.351,284864.757,284877.9000000004,284881.468,289142.773,,,
Judgement,html.Screen,1_3_3_1,2022-02-21T12:23:09.485Z,,,,,,,,,,,,,,,,,,,,,,,,,,,,true,2,,394.42699999926845,,response,,,,,,,,,2,,2,click #choice-2,,,,,I,S,O,,289539.5,289537.19999999925,289109.351,289114.19999999925,289142.773,289543.837,,,
Trial,flow.Sequence,1_3_3,2022-02-21T12:23:09.485Z,,,,,,,,,,,,,,,,,,,,,,,,,,,,,,,4655.7319999992615,,completion,,,,,,,,,2,,,,,,,,I,S,O,,289539.7999999989,289537.19999999925,284864.757,284877.7999999989,284881.468,289543.837,,,
Sounds,html.Screen,1_3_4_0,2022-02-21T12:23:13.718Z,,,,,,,,,,,,,,,,,,,,,,,,,,,,,,,4244.593999999983,,timeout,,,,,,,,,1,,,,,,,,S,O,I,,293772.69999999925,293771.72,289527.126,289539.7999999989,289543.837,293788.431,,,
Judgement,html.Screen,1_3_4_1,2022-02-21T12:23:14.171Z,,,,,,,,,,,,,,,,,,,,,,,,,,,,false,1,,434.5690000000177,,response,,,,,,,,,1,,2,click #choice-2,,,,,S,O,I,,294225.9000000004,294223,293771.72,293772.9000000004,293788.431,294239.628,,,
Trial,flow.Sequence,1_3_4,2022-02-21T12:23:14.171Z,,,,,,,,,,,,,,,,,,,,,,,,,,,,,,,4679.1630000000005,,completion,,,,,,,,,1,,,,,,,,S,O,I,,294226.0999999996,294223,289527.126,289539.7999999989,289543.837,294239.628,,,
Sounds,html.Screen,1_3_5_0,2022-02-21T12:23:18.415Z,,,,,,,,,,,,,,,,,,,,,,,,,,,,,,,4244.593999999983,,timeout,,,,,,,,,3,,,,,,,,I,O,S,,298469.5,298467.511,294222.917,294226.2999999989,294239.628,298484.222,,,
Judgement,html.Screen,1_3_5_1,2022-02-21T12:23:19.382Z,,,,,,,,,,,,,,,,,,,,,,,,,,,,true,3,,948.7779999999912,,response,,,,,,,,,3,,3,click #choice-3,,,,,I,O,S,,299436.19999999925,299433,298467.511,298469.5999999996,298484.222,299453.46,,,
Trial,flow.Sequence,1_3_5,2022-02-21T12:23:19.382Z,,,,,,,,,,,,,,,,,,,,,,,,,,,,,,,5193.371999999974,,completion,,,,,,,,,3,,,,,,,,I,O,S,,299436.5,299433,294222.917,294226.19999999925,294239.628,299453.46,,,
Task,flow.Loop,1_3,2022-02-21T12:23:19.398Z,,,,,,,,,,,,,,,,,,,,,,,,,,,,,,,28973.125,,completion,,,0.8333333333333334,,,,,,,,,,,,,,,,,,299452.69999999925,299433,270443.164,270444,270459.875,299453.46,,,
Trap,html.Screen,1_4,2022-02-21T12:23:19.401Z,,,,,,,,,,,,,,,,,,,,,,,,,,,,,,,NaN,,skipped,,,,,,,,,,,,,,,,,,,,,299455.69999999925,299433,,299455.5,,299453.46,,,
Thanks,html.Screen,1_5,2022-02-21T12:27:18.368Z,,,,,,,,,,,,,,,,,,,,,,,,,,,,,,,238943.83999999886,,response,,,,,,,,,,,continue,click button,,,,,,,,,538406.4000000004,538397.2999999989,299420.038,299455.9000000004,299453.46,544615.522,,,
Headphone screening,flow.Sequence,1,2022-02-21T12:27:18.369Z,,,,,,,,,,,,,,,,,,,,,,,,,,,,,,,292803.3929999989,,completion,,,,,,,,,,,,,,,,,,,,,538406.7999999989,538397.2999999989,245577.196,245585.29999999888,245593.907,544615.522,,,
Instructions,html.Page,2_0,2022-02-21T12:28:05.419Z,,,,,,,,,,,,,,,,,,,,,,,,,,,,,,,40832.478,,form submission,,,,,,,,,,,,,,,,,,,,,585454,585448,544565.389,544599.5,544615.522,585490.628,,,
Holding screen,html.Screen,2_1_0_0,2022-02-21T12:28:15.436Z,,,,,,,,,,,,,,,,,,,,,,,,,,,,,,,9993.177999999956,,timeout,,,,,,,,,,,,,,,,,,,,,595470.5999999996,595467.095,585423.784,585456,585490.628,595483.806,,,
screen,html.Screen,2_1_0_1_0,2022-02-21T12:28:16.409Z,,,,,,,,,,,,,,,,,53,,,,,,,,,,,,,,940.2939999996452,,response,,,,99,,,,,,,Space,keypress(Space),,,,,,,,When -- ----- -- ------ - ------- --- ----------<br>------------- ------ ------ ---- ---- ------- ----- -- ----<br>-------- ------- -- ---------- --- - --- ----- ----- ----<br>---- --- --- ----- --- ---- ---- ------- ----- ---- -------<br>--- --- -- ----- -- --- ---- -- --- ---- -- ------ ------<br>--- ----- -- ----,596443.6999999993,596424.0999999996,595467.095,595471,595483.806,596453.044,,0,When
screen,html.Screen,2_1_0_1_1,2022-02-21T12:28:16.864Z,,,,,,,,,,,,,,,,,53,,,,,,,,,,,,,,433.9560000000056,,response,,,,99,,,,,,,Space,keypress(Space),,,,,,,,---- it ----- -- ------ - ------- --- ----------<br>------------- ------ ------ ---- ---- ------- ----- -- ----<br>-------- ------- -- ---------- --- - --- ----- ----- ----<br>---- --- --- ----- --- ---- ---- ------- ----- ---- -------<br>--- --- -- ----- -- --- ---- -- --- ---- -- ------ ------<br>--- ----- -- ----,596898.7999999989,596887,596436.333,596443.9000000004,596453.044,596904.241,,1,it
screen,html.Screen,2_1_0_1_2,2022-02-21T12:28:17.307Z,,,,,,,,,,,,,,,,,53,,,,,,,,,,,,,,433.7589999999618,,response,,,,99,,,,,,,Space,keypress(Space),,,,,,,,---- -- comes -- ------ - ------- --- ----------<br>------------- ------ ------ ---- ---- ------- ----- -- ----<br>-------- ------- -- ---------- --- - --- ----- ----- ----<br>---- --- --- ----- --- ---- ---- ------- ----- ---- -------<br>--- --- -- ----- -- --- ---- -- --- ---- -- ------ ------<br>--- ----- -- ----,597341.2999999989,597338,596887.53,596899,596904.241,597355.438,,2,comes
screen,html.Screen,2_1_0_1_3,2022-02-21T12:28:17.730Z,,,,,,,,,,,,,,,,,53,,,,,,,,,,,,,,406.56200000003446,,response,,,,99,,,,,,,Space,keypress(Space),,,,,,,,---- -- ----- to ------ - ------- --- ----------<br>------------- ------ ------ ---- ---- ------- ----- -- ----<br>-------- ------- -- ---------- --- - --- ----- ----- ----<br>---- --- --- ----- --- ---- ---- ------- ----- ---- -------<br>--- --- -- ----- -- --- ---- -- --- ---- -- ------ ------<br>--- ----- -- ----,597765.1999999993,597762,597338.727,597341.5999999996,597355.438,597773.213,,3,to
screen,html.Screen,2_1_0_1_4,2022-02-21T12:28:18.323Z,,,,,,,,,,,,,,,,,53,,,,,,,,,,,,,,581.5869999988936,,response,,,,99,,,,,,,Space,keypress(Space),,,,,,,,---- -- ----- -- having - ------- --- ----------<br>------------- ------ ------ ---- ---- ------- ----- -- ----<br>-------- ------- -- ---------- --- - --- ----- ----- ----<br>---- --- --- ----- --- ---- ---- ------- ----- ---- -------<br>--- --- -- ----- -- --- ---- -- --- ---- -- ------ ------<br>--- ----- -- ----,598357.5999999996,598354.7999999989,597756.502,597765.4000000004,597773.213,598374.809,,4,having
screen,html.Screen,2_1_0_1_5,2022-02-21T12:28:18.741Z,,,,,,,,,,,,,,,,,53,,,,,,,,,,,,,,369.89099999924656,,response,,,,99,,,,,,,Space,keypress(Space),,,,,,,,---- -- ----- -- ------ a ------- --- ----------<br>------------- ------ ------ ---- ---- ------- ----- -- ----<br>-------- ------- -- ---------- --- - --- ----- ----- ----<br>---- --- --- ----- --- ---- ---- ------- ----- ---- -------<br>--- --- -- ----- -- --- ---- -- --- ---- -- ------ ------<br>--- ----- -- ----,598774.6999999993,598744.6999999993,598358.098,598357.6999999993,598374.809,598976.405,,5,a
screen,html.Screen,2_1_0_1_6,2022-02-21T12:28:19.483Z,,,,,,,,,,,,,,,,,53,,,,,,,,,,,,,,538.294999999227,,response,,,,99,,,,,,,Space,keypress(Space),,,,,,,,---- -- ----- -- ------ - lasting --- ----------<br>------------- ------ ------ ---- ---- ------- ----- -- ----<br>-------- ------- -- ---------- --- - --- ----- ----- ----<br>---- --- --- ----- --- ---- ---- ------- ----- ---- -------<br>--- --- -- ----- -- --- ---- -- --- ---- -- ------ ------<br>--- ----- -- ----,599518,599514.6999999993,598809.295,598779.0999999996,598976.405,599527.868,,6,lasting
screen,html.Screen,2_1_0_1_7,2022-02-21T12:28:19.951Z,,,,,,,,,,,,,,,,,53,,,,,,,,,,,,,,453.93199999886565,,response,,,,99,,,,,,,Space,keypress(Space),,,,,,,,---- -- ----- -- ------ - ------- and ----------<br>------------- ------ ------ ---- ---- ------- ----- -- ----<br>-------- ------- -- ---------- --- - --- ----- ----- ----<br>---- --- --- ----- --- ---- ---- ------- ----- ---- -------<br>--- --- -- ----- -- --- ---- -- --- ---- -- ------ ------<br>--- ----- -- ----,599985.2999999989,599981.7999999989,599511.157,599518.1999999993,599527.868,599995.776,,7,and
screen,html.Screen,2_1_0_1_8,2022-02-21T12:28:20.482Z,,,,,,,,,,,,,,,,,53,,,,,,,,,,,,,,508.02399999892805,,response,,,,99,,,,,,,Space,keypress(Space),,,,,,,,---- -- ----- -- ------ - ------- --- fulfilling<br>------------- ------ ------ ---- ---- ------- ----- -- ----<br>-------- ------- -- ---------- --- - --- ----- ----- ----<br>---- --- --- ----- --- ---- ---- ------- ----- ---- -------<br>--- --- -- ----- -- --- ---- -- --- ---- -- ------ ------<br>--- ----- -- ----,600516.4000000004,600503.7999999989,599979.065,599985.5,599995.776,600530.528,,8,fulfilling
screen,html.Screen,2_1_0_1_9,2022-02-21T12:28:20.907Z,,,,,,,,,,,,,,,,,53,,,,,,,,,,,,,,407.1719999992056,,response,,,,99,,,,,,,Space,keypress(Space),,,,,,,,"---- -- ----- -- ------ - ------- --- ----------<br>relationship, ------ ------ ---- ---- ------- ----- -- ----<br>-------- ------- -- ---------- --- - --- ----- ----- ----<br>---- --- --- ----- --- ---- ---- ------- ----- ---- -------<br>--- --- -- ----- -- --- ---- -- --- ---- -- ------ ------<br>--- ----- -- ----",600942.0999999996,600937.6999999993,600513.817,600516.5,600530.528,600948.303,,9,"relationship,"
screen,html.Screen,2_1_0_1_10,2022-02-21T12:28:21.291Z,,,,,,,,,,,,,,,,,53,,,,,,,,,,,,,,373.4969999989262,,response,,,,99,,,,,,,Space,keypress(Space),,,,,,,,---- -- ----- -- ------ - ------- --- ----------<br>------------- common ------ ---- ---- ------- ----- -- ----<br>-------- ------- -- ---------- --- - --- ----- ----- ----<br>---- --- --- ----- --- ---- ---- ------- ----- ---- -------<br>--- --- -- ----- -- --- ---- -- --- ---- -- ------ ------<br>--- ----- -- ----,601325.1999999993,601321.7999999989,600931.592,600942.1999999993,600948.303,601332.656,,10,common
screen,html.Screen,2_1_0_1_11,2022-02-21T12:28:21.821Z,,,,,,,,,,,,,,,,,53,,,,,,,,,,,,,,520.1439999989234,,response,,,,99,,,,,,,Space,keypress(Space),,,,,,,,---- -- ----- -- ------ - ------- --- ----------<br>------------- ------ wisdom ---- ---- ------- ----- -- ----<br>-------- ------- -- ---------- --- - --- ----- ----- ----<br>---- --- --- ----- --- ---- ---- ------- ----- ---- -------<br>--- --- -- ----- -- --- ---- -- --- ---- -- ------ ------<br>--- ----- -- ----,601856.0999999996,601852.7999999989,601315.945,601325.4000000004,601332.656,601867.408,,11,wisdom
screen,html.Screen,2_1_0_1_12,2022-02-21T12:28:22.409Z,,,,,,,,,,,,,,,,,53,,,,,,,,,,,,,,573.2919999992009,,response,,,,99,,,,,,,Space,keypress(Space),,,,,,,,---- -- ----- -- ------ - ------- --- ----------<br>------------- ------ ------ says ---- ------- ----- -- ----<br>-------- ------- -- ---------- --- - --- ----- ----- ----<br>---- --- --- ----- --- ---- ---- ------- ----- ---- -------<br>--- --- -- ----- -- --- ---- -- --- ---- -- ------ ------<br>--- ----- -- ----,602444,602440.6999999993,601850.697,601856.1999999993,601867.408,602452.293,,12,says
screen,html.Screen,2_1_0_1_13,2022-02-21T12:28:22.701Z,,,,,,,,,,,,,,,,,53,,,,,,,,,,,,,,280.406999999308,,response,,,,99,,,,,,,Space,keypress(Space),,,,,,,,---- -- ----- -- ------ - ------- --- ----------<br>------------- ------ ------ ---- that ------- ----- -- ----<br>-------- ------- -- ---------- --- - --- ----- ----- ----<br>---- --- --- ----- --- ---- ---- ------- ----- ---- -------<br>--- --- -- ----- -- --- ---- -- --- ---- -- ------ ------<br>--- ----- -- ----,602735.9000000004,602732.6999999993,602435.582,602444.0999999996,602452.293,602753.091,,13,that
screen,html.Screen,2_1_0_1_14,2022-02-21T12:28:23.023Z,,,,,,,,,,,,,,,,,53,,,,,,,,,,,,,,301.50899999961257,,response,,,,99,,,,,,,Space,keypress(Space),,,,,,,,---- -- ----- -- ------ - ------- --- ----------<br>------------- ------ ------ ---- ---- feeling ----- -- ----<br>-------- ------- -- ---------- --- - --- ----- ----- ----<br>---- --- --- ----- --- ---- ---- ------- ----- ---- -------<br>--- --- -- ----- -- --- ---- -- --- ---- -- ------ ------<br>--- ----- -- ----,603058.0999999996,603054.5999999996,602736.38,602736.1999999993,602753.091,603070.6,,14,feeling
screen,html.Screen,2_1_0_1_15,2022-02-21T12:28:23.440Z,,,,,,,,,,,,,,,,,53,,,,,,,,,,,,,,401.0999999992782,,response,,,,99,,,,,,,Space,keypress(Space),,,,,,,,---- -- ----- -- ------ - ------- --- ----------<br>------------- ------ ------ ---- ---- ------- close -- ----<br>-------- ------- -- ---------- --- - --- ----- ----- ----<br>---- --- --- ----- --- ---- ---- ------- ----- ---- -------<br>--- --- -- ----- -- --- ---- -- --- ---- -- ------ ------<br>--- ----- -- ----,603474.9000000004,603471.6999999993,603053.889,603058.2999999989,603070.6,603488.375,,15,close
screen,html.Screen,2_1_0_1_16,2022-02-21T12:28:23.753Z,,,,,,,,,,,,,,,,,53,,,,,,,,,,,,,,296.32499999925494,,response,,,,99,,,,,,,Space,keypress(Space),,,,,,,,---- -- ----- -- ------ - ------- --- ----------<br>------------- ------ ------ ---- ---- ------- ----- to ----<br>-------- ------- -- ---------- --- - --- ----- ----- ----<br>---- --- --- ----- --- ---- ---- ------- ----- ---- -------<br>--- --- -- ----- -- --- ---- -- --- ---- -- ------ ------<br>--- ----- -- ----,603788,603784.6999999993,603471.664,603475.0999999996,603488.375,603789.173,,16,to
screen,html.Screen,2_1_0_1_17,2022-02-21T12:28:24.025Z,,,,,,,,,,,,,,,,,53,,,,,,,,,,,,,,267.4269999996759,,response,,,,99,,,,,,,Space,keypress(Space),,,,,,,,---- -- ----- -- ------ - ------- --- ----------<br>------------- ------ ------ ---- ---- ------- ----- -- your<br>-------- ------- -- ---------- --- - --- ----- ----- ----<br>---- --- --- ----- --- ---- ---- ------- ----- ---- -------<br>--- --- -- ----- -- --- ---- -- --- ---- -- ------ ------<br>--- ----- -- ----,604059.9000000004,604056.5999999996,603772.462,603788.0999999996,603789.173,604073.26,,17,your
screen,html.Screen,2_1_0_1_18,2022-02-21T12:28:24.435Z,,,,,,,,,,,,,,,,,53,,,,,,,,,,,,,,393.33999999961816,,response,,,,99,,,,,,,Space,keypress(Space),,,,,,,,---- -- ----- -- ------ - ------- --- ----------<br>------------- ------ ------ ---- ---- ------- ----- -- ----<br>romantic ------- -- ---------- --- - --- ----- ----- ----<br>---- --- --- ----- --- ---- ---- ------- ----- ---- -------<br>--- --- -- ----- -- --- ---- -- --- ---- -- ------ ------<br>--- ----- -- ----,604469.9000000004,604466.5999999996,604056.549,604060.0999999996,604073.26,604474.324,,18,romantic
screen,html.Screen,2_1_0_1_19,2022-02-21T12:28:24.755Z,,,,,,,,,,,,,,,,,53,,,,,,,,,,,,,,312.17599999997765,,response,,,,99,,,,,,,Space,keypress(Space),,,,,,,,---- -- ----- -- ------ - ------- --- ----------<br>------------- ------ ------ ---- ---- ------- ----- -- ----<br>-------- partner -- ---------- --- - --- ----- ----- ----<br>---- --- --- ----- --- ---- ---- ------- ----- ---- -------<br>--- --- -- ----- -- --- ---- -- --- ---- -- ------ ------<br>--- ----- -- ----,604789.7999999989,604786.5,604457.613,604470.0999999996,604474.324,604791.833,,19,partner
screen,html.Screen,2_1_0_1_20,2022-02-21T12:28:25.010Z,,,,,,,,,,,,,,,,,53,,,,,,,,,,,,,,249.7669999996433,,response,,,,99,,,,,,,Space,keypress(Space),,,,,,,,---- -- ----- -- ------ - ------- --- ----------<br>------------- ------ ------ ---- ---- ------- ----- -- ----<br>-------- ------- is ---------- --- - --- ----- ----- ----<br>---- --- --- ----- --- ---- ---- ------- ----- ---- -------<br>--- --- -- ----- -- --- ---- -- --- ---- -- ------ ------<br>--- ----- -- ----,605044.9000000004,605041.5999999996,604775.122,604790,604791.833,605059.209,,20,is
screen,html.Screen,2_1_0_1_21,2022-02-21T12:28:25.262Z,,,,,,,,,,,,,,,,,53,,,,,,,,,,,,,,234.3909999995958,,response,,,,99,,,,,,,Space,keypress(Space),,,,,,,,---- -- ----- -- ------ - ------- --- ----------<br>------------- ------ ------ ---- ---- ------- ----- -- ----<br>-------- ------- -- paramount. --- - --- ----- ----- ----<br>---- --- --- ----- --- ---- ---- ------- ----- ---- -------<br>--- --- -- ----- -- --- ---- -- --- ---- -- ------ ------<br>--- ----- -- ----,605296.9000000004,605293.5999999996,605042.498,605045,605059.209,605309.874,,21,paramount.
screen,html.Screen,2_1_0_1_22,2022-02-21T12:28:25.737Z,,,,,,,,,,,,,,,,,53,,,,,,,,,,,,,,450.52600000042,,response,,,,99,,,,,,,Space,keypress(Space),,,,,,,,---- -- ----- -- ------ - ------- --- ----------<br>------------- ------ ------ ---- ---- ------- ----- -- ----<br>-------- ------- -- ---------- But - --- ----- ----- ----<br>---- --- --- ----- --- ---- ---- ------- ----- ---- -------<br>--- --- -- ----- -- --- ---- -- --- ---- -- ------ ------<br>--- ----- -- ----,605771.5999999996,605760.4000000004,605293.163,605297.0999999996,605309.874,605777.782,,22,But
screen,html.Screen,2_1_0_1_23,2022-02-21T12:28:25.959Z,,,,,,,,,,,,,,,,,53,,,,,,,,,,,,,,211.81799999962095,,response,,,,99,,,,,,,Space,keypress(Space),,,,,,,,---- -- ----- -- ------ - ------- --- ----------<br>------------- ------ ------ ---- ---- ------- ----- -- ----<br>-------- ------- -- ---------- --- a --- ----- ----- ----<br>---- --- --- ----- --- ---- ---- ------- ----- ---- -------<br>--- --- -- ----- -- --- ---- -- --- ---- -- ------ ------<br>--- ----- -- ----,605993.1999999993,605989.5999999996,605761.071,605771.6999999993,605777.782,605995.025,,23,a
screen,html.Screen,2_1_0_1_24,2022-02-21T12:28:26.224Z,,,,,,,,,,,,,,,,,53,,,,,,,,,,,,,,259.27499999885913,,response,,,,99,,,,,,,Space,keypress(Space),,,,,,,,---- -- ----- -- ------ - ------- --- ----------<br>------------- ------ ------ ---- ---- ------- ----- -- ----<br>-------- ------- -- ---------- --- - new ----- ----- ----<br>---- --- --- ----- --- ---- ---- ------- ----- ---- -------<br>--- --- -- ----- -- --- ---- -- --- ---- -- ------ ------<br>--- ----- -- ----,606258.9000000004,606254.2999999989,605978.314,605993.4000000004,605995.025,606262.401,,24,new
screen,html.Screen,2_1_0_1_25,2022-02-21T12:28:26.511Z,,,,,,,,,,,,,,,,,53,,,,,,,,,,,,,,249.09900000004563,,response,,,,99,,,,,,,Space,keypress(Space),,,,,,,,---- -- ----- -- ------ - ------- --- ----------<br>------------- ------ ------ ---- ---- ------- ----- -- ----<br>-------- ------- -- ---------- --- - --- study ----- ----<br>---- --- --- ----- --- ---- ---- ------- ----- ---- -------<br>--- --- -- ----- -- --- ---- -- --- ---- -- ------ ------<br>--- ----- -- ----,606545.7999999989,606511.5,606245.69,606259,606262.401,606563.199,,25,study
screen,html.Screen,2_1_0_1_26,2022-02-21T12:28:26.788Z,,,,,,,,,,,,,,,,,53,,,,,,,,,,,,,,256.2010000003502,,response,,,,99,,,,,,,Space,keypress(Space),,,,,,,,---- -- ----- -- ------ - ------- --- ----------<br>------------- ------ ------ ---- ---- ------- ----- -- ----<br>-------- ------- -- ---------- --- - --- ----- finds ----<br>---- --- --- ----- --- ---- ---- ------- ----- ---- -------<br>--- --- -- ----- -- --- ---- -- --- ---- -- ------ ------<br>--- ----- -- ----,606822.7999999989,606819.4000000004,606546.488,606545.7999999989,606563.199,606830.575,,26,finds
screen,html.Screen,2_1_0_1_27,2022-02-21T12:28:27.468Z,,,,,,,,,,,,,,,,,53,,,,,,,,,,,,,,542.6249999993015,,response,,,,99,,,,,,,Space,keypress(Space),,,,,,,,---- -- ----- -- ------ - ------- --- ----------<br>------------- ------ ------ ---- ---- ------- ----- -- ----<br>-------- ------- -- ---------- --- - --- ----- ----- that<br>---- --- --- ----- --- ---- ---- ------- ----- ---- -------<br>--- --- -- ----- -- --- ---- -- --- ---- -- ------ ------<br>--- ----- -- ----,607501.7999999989,607373.1999999993,606813.864,606822.9000000004,606830.575,607615.992,,27,that
screen,html.Screen,2_1_0_1_28,2022-02-21T12:28:27.787Z,,,,,,,,,,,,,,,,,53,,,,,,,,,,,,,,202.40800000040326,,response,,,,99,,,,,,,Space,keypress(Space),,,,,,,,---- -- ----- -- ------ - ------- --- ----------<br>------------- ------ ------ ---- ---- ------- ----- -- ----<br>-------- ------- -- ---------- --- - --- ----- ----- ----<br>it's --- --- ----- --- ---- ---- ------- ----- ---- -------<br>--- --- -- ----- -- --- ---- -- --- ---- -- ------ ------<br>--- ----- -- ----,607821.6999999993,607818.4000000004,607532.437,607504,607615.992,607833.235,,28,it's
screen,html.Screen,2_1_0_1_29,2022-02-21T12:28:28.564Z,,,,,,,,,,,,,,,,,53,,,,,,,,,,,,,,762.0649999988964,,response,,,,99,,,,,,,Space,keypress(Space),,,,,,,,---- -- ----- -- ------ - ------- --- ----------<br>------------- ------ ------ ---- ---- ------- ----- -- ----<br>-------- ------- -- ---------- --- - --- ----- ----- ----<br>---- not --- ----- --- ---- ---- ------- ----- ---- -------<br>--- --- -- ----- -- --- ---- -- --- ---- -- ------ ------<br>--- ----- -- ----,608598.6999999993,608595.2999999989,607816.524,607821.7999999989,607833.235,608601.941,,29,not
screen,html.Screen,2_1_0_1_30,2022-02-21T12:28:28.934Z,,,,,,,,,,,,,,,,,53,,,,,,,,,,,,,,363.3589999988908,,response,,,,99,,,,,,,Space,keypress(Space),,,,,,,,---- -- ----- -- ------ - ------- --- ----------<br>------------- ------ ------ ---- ---- ------- ----- -- ----<br>-------- ------- -- ---------- --- - --- ----- ----- ----<br>---- --- how ----- --- ---- ---- ------- ----- ---- -------<br>--- --- -- ----- -- --- ---- -- --- ---- -- ------ ------<br>--- ----- -- ----,608968.5,608965.2999999989,608585.23,608598.9000000004,608601.941,608969.583,,30,how
screen,html.Screen,2_1_0_1_31,2022-02-21T12:28:29.301Z,,,,,,,,,,,,,,,,,53,,,,,,,,,,,,,,362.6169999992708,,response,,,,99,,,,,,,Space,keypress(Space),,,,,,,,---- -- ----- -- ------ - ------- --- ----------<br>------------- ------ ------ ---- ---- ------- ----- -- ----<br>-------- ------- -- ---------- --- - --- ----- ----- ----<br>---- --- --- close --- ---- ---- ------- ----- ---- -------<br>--- --- -- ----- -- --- ---- -- --- ---- -- ------ ------<br>--- ----- -- ----,609335.9000000004,609332.1999999993,608952.872,608968.7999999989,608969.583,609337.225,,31,close
screen,html.Screen,2_1_0_1_32,2022-02-21T12:28:29.601Z,,,,,,,,,,,,,,,,,53,,,,,,,,,,,,,,273.87499999965075,,response,,,,99,,,,,,,Space,keypress(Space),,,,,,,,---- -- ----- -- ------ - ------- --- ----------<br>------------- ------ ------ ---- ---- ------- ----- -- ----<br>-------- ------- -- ---------- --- - --- ----- ----- ----<br>---- --- --- ----- you ---- ---- ------- ----- ---- -------<br>--- --- -- ----- -- --- ---- -- --- ---- -- ------ ------<br>--- ----- -- ----,609635,609611.0999999996,609320.514,609336,609337.225,609638.023,,32,you
screen,html.Screen,2_1_0_1_33,2022-02-21T12:28:29.797Z,,,,,,,,,,,,,,,,,53,,,,,,,,,,,,,,188.4769999999553,,response,,,,99,,,,,,,Space,keypress(Space),,,,,,,,---- -- ----- -- ------ - ------- --- ----------<br>------------- ------ ------ ---- ---- ------- ----- -- ----<br>-------- ------- -- ---------- --- - --- ----- ----- ----<br>---- --- --- ----- --- feel ---- ------- ----- ---- -------<br>--- --- -- ----- -- --- ---- -- --- ---- -- ------ ------<br>--- ----- -- ----,609831.1999999993,609826.5,609621.312,609635.1999999993,609638.023,609838.555,,33,feel
screen,html.Screen,2_1_0_1_34,2022-02-21T12:28:30.243Z,,,,,,,,,,,,,,,,,53,,,,,,,,,,,,,,435.6449999992037,,response,,,,99,,,,,,,Space,keypress(Space),,,,,,,,---- -- ----- -- ------ - ------- --- ----------<br>------------- ------ ------ ---- ---- ------- ----- -- ----<br>-------- ------- -- ---------- --- - --- ----- ----- ----<br>---- --- --- ----- --- ---- that ------- ----- ---- -------<br>--- --- -- ----- -- --- ---- -- --- ---- -- ------ ------<br>--- ----- -- ----,610277.5,610274.1999999993,609821.844,609831.4000000004,609838.555,610289.752,,34,that
screen,html.Screen,2_1_0_1_35,2022-02-21T12:28:30.550Z,,,,,,,,,,,,,,,,,53,,,,,,,,,,,,,,291.44799999927636,,response,,,,99,,,,,,,Space,keypress(Space),,,,,,,,---- -- ----- -- ------ - ------- --- ----------<br>------------- ------ ------ ---- ---- ------- ----- -- ----<br>-------- ------- -- ---------- --- - --- ----- ----- ----<br>---- --- --- ----- --- ---- ---- matters ----- ---- -------<br>--- --- -- ----- -- --- ---- -- --- ---- -- ------ ------<br>--- ----- -- ----,610584.6999999993,610581.1999999993,610273.041,610277.6999999993,610289.752,610623.972,,35,matters
screen,html.Screen,2_1_0_1_36,2022-02-21T12:28:30.805Z,,,,,,,,,,,,,,,,,53,,,,,,,,,,,,,,210.2279999993043,,response,,,,99,,,,,,,Space,keypress(Space),,,,,,,,"---- -- ----- -- ------ - ------- --- ----------<br>------------- ------ ------ ---- ---- ------- ----- -- ----<br>-------- ------- -- ---------- --- - --- ----- ----- ----<br>---- --- --- ----- --- ---- ---- ------- most, ---- -------<br>--- --- -- ----- -- --- ---- -- --- ---- -- ------ ------<br>--- ----- -- ----",610839.6999999993,610834.1999999993,610607.261,610608.1999999993,610623.972,610841.215,,36,"most,"
screen,html.Screen,2_1_0_1_37,2022-02-21T12:28:31.768Z,,,,,,,,,,,,,,,,,53,,,,,,,,,,,,,,957.8849999996601,,response,,,,99,,,,,,,Space,keypress(Space),,,,,,,,---- -- ----- -- ------ - ------- --- ----------<br>------------- ------ ------ ---- ---- ------- ----- -- ----<br>-------- ------- -- ---------- --- - --- ----- ----- ----<br>---- --- --- ----- --- ---- ---- ------- ----- it's -------<br>--- --- -- ----- -- --- ---- -- --- ---- -- ------ ------<br>--- ----- -- ----,611802.5,611799.0999999996,610824.504,610839.7999999989,610841.215,611810.453,,37,it's
screen,html.Screen,2_1_0_1_38,2022-02-21T12:28:31.970Z,,,,,,,,,,,,,,,,,53,,,,,,,,,,,,,,190.64699999964796,,response,,,,99,,,,,,,Space,keypress(Space),,,,,,,,---- -- ----- -- ------ - ------- --- ----------<br>------------- ------ ------ ---- ---- ------- ----- -- ----<br>-------- ------- -- ---------- --- - --- ----- ----- ----<br>---- --- --- ----- --- ---- ---- ------- ----- ---- whether<br>--- --- -- ----- -- --- ---- -- --- ---- -- ------ ------<br>--- ----- -- ----,612004.4000000004,612001.0999999996,611793.742,611802.5999999996,611810.453,612010.985,,38,whether
screen,html.Screen,2_1_0_1_39,2022-02-21T12:28:32.375Z,,,,,,,,,,,,,,,,,53,,,,,,,,,,,,,,394.9150000003865,,response,,,,99,,,,,,,Space,keypress(Space),,,,,,,,---- -- ----- -- ------ - ------- --- ----------<br>------------- ------ ------ ---- ---- ------- ----- -- ----<br>-------- ------- -- ---------- --- - --- ----- ----- ----<br>---- --- --- ----- --- ---- ---- ------- ----- ---- -------<br>you --- -- ----- -- --- ---- -- --- ---- -- ------ ------<br>--- ----- -- ----,612409.2999999989,612405.9000000004,611994.274,612004.5999999996,612010.985,612412.049,,39,you
screen,html.Screen,2_1_0_1_40,2022-02-21T12:28:32.631Z,,,,,,,,,,,,,,,,,53,,,,,,,,,,,,,,249.95100000000093,,response,,,,99,,,,,,,Space,keypress(Space),,,,,,,,---- -- ----- -- ------ - ------- --- ----------<br>------------- ------ ------ ---- ---- ------- ----- -- ----<br>-------- ------- -- ---------- --- - --- ----- ----- ----<br>---- --- --- ----- --- ---- ---- ------- ----- ---- -------<br>--- are -- ----- -- --- ---- -- --- ---- -- ------ ------<br>--- ----- -- ----,612665.2999999989,612662,612395.338,612409.4000000004,612412.049,612679.425,,40,are
screen,html.Screen,2_1_0_1_41,2022-02-21T12:28:32.862Z,,,,,,,,,,,,,,,,,53,,,,,,,,,,,,,,213.57499999995343,,response,,,,99,,,,,,,Space,keypress(Space),,,,,,,,---- -- ----- -- ------ - ------- --- ----------<br>------------- ------ ------ ---- ---- ------- ----- -- ----<br>-------- ------- -- ---------- --- - --- ----- ----- ----<br>---- --- --- ----- --- ---- ---- ------- ----- ---- -------<br>--- --- as ----- -- --- ---- -- --- ---- -- ------ ------<br>--- ----- -- ----,612896.2999999989,612893,612662.714,612665.5,612679.425,612913.379,,41,as
screen,html.Screen,2_1_0_1_42,2022-02-21T12:28:33.355Z,,,,,,,,,,,,,,,,,53,,,,,,,,,,,,,,472.62100000004284,,response,,,,99,,,,,,,Space,keypress(Space),,,,,,,,---- -- ----- -- ------ - ------- --- ----------<br>------------- ------ ------ ---- ---- ------- ----- -- ----<br>-------- ------- -- ---------- --- - --- ----- ----- ----<br>---- --- --- ----- --- ---- ---- ------- ----- ---- -------<br>--- --- -- close -- --- ---- -- --- ---- -- ------ ------<br>--- ----- -- ----,613389.2999999989,613386,612896.668,612896.5,612913.379,613397.998,,42,close
screen,html.Screen,2_1_0_1_43,2022-02-21T12:28:33.594Z,,,,,,,,,,,,,,,,,53,,,,,,,,,,,,,,227.00199999997858,,response,,,,99,,,,,,,Space,keypress(Space),,,,,,,,---- -- ----- -- ------ - ------- --- ----------<br>------------- ------ ------ ---- ---- ------- ----- -- ----<br>-------- ------- -- ---------- --- - --- ----- ----- ----<br>---- --- --- ----- --- ---- ---- ------- ----- ---- -------<br>--- --- -- ----- as --- ---- -- --- ---- -- ------ ------<br>--- ----- -- ----,613628.2999999989,613625,613381.287,613389.4000000004,613397.998,613631.952,,43,as
screen,html.Screen,2_1_0_1_44,2022-02-21T12:28:33.812Z,,,,,,,,,,,,,,,,,53,,,,,,,,,,,,,,211.04799999995157,,response,,,,99,,,,,,,Space,keypress(Space),,,,,,,,---- -- ----- -- ------ - ------- --- ----------<br>------------- ------ ------ ---- ---- ------- ----- -- ----<br>-------- ------- -- ---------- --- - --- ----- ----- ----<br>---- --- --- ----- --- ---- ---- ------- ----- ---- -------<br>--- --- -- ----- -- you ---- -- --- ---- -- ------ ------<br>--- ----- -- ----,613846.2999999989,613843,613615.241,613628.5,613631.952,613849.195,,44,you
screen,html.Screen,2_1_0_1_45,2022-02-21T12:28:34.016Z,,,,,,,,,,,,,,,,,53,,,,,,,,,,,,,,197.80500000005122,,response,,,,99,,,,,,,Space,keypress(Space),,,,,,,,---- -- ----- -- ------ - ------- --- ----------<br>------------- ------ ------ ---- ---- ------- ----- -- ----<br>-------- ------- -- ---------- --- - --- ----- ----- ----<br>---- --- --- ----- --- ---- ---- ------- ----- ---- -------<br>--- --- -- ----- -- --- want -- --- ---- -- ------ ------<br>--- ----- -- ----,614050.4000000004,614047,613832.484,613846.4000000004,613849.195,614066.438,,45,want
screen,html.Screen,2_1_0_1_46,2022-02-21T12:28:34.241Z,,,,,,,,,,,,,,,,,53,,,,,,,,,,,,,,205.56200000003446,,response,,,,99,,,,,,,Space,keypress(Space),,,,,,,,---- -- ----- -- ------ - ------- --- ----------<br>------------- ------ ------ ---- ---- ------- ----- -- ----<br>-------- ------- -- ---------- --- - --- ----- ----- ----<br>---- --- --- ----- --- ---- ---- ------- ----- ---- -------<br>--- --- -- ----- -- --- ---- to --- ---- -- ------ ------<br>--- ----- -- ----,614275.1999999993,614272,614049.727,614050.5999999996,614066.438,614283.681,,46,to
screen,html.Screen,2_1_0_1_47,2022-02-21T12:28:34.448Z,,,,,,,,,,,,,,,,,53,,,,,,,,,,,,,,195.21900000039022,,response,,,,99,,,,,,,Space,keypress(Space),,,,,,,,"---- -- ----- -- ------ - ------- --- ----------<br>------------- ------ ------ ---- ---- ------- ----- -- ----<br>-------- ------- -- ---------- --- - --- ----- ----- ----<br>---- --- --- ----- --- ---- ---- ------- ----- ---- -------<br>--- --- -- ----- -- --- ---- -- be, ---- -- ------ ------<br>--- ----- -- ----",614482.2999999989,614478.9000000004,614266.97,614275.4000000004,614283.681,614484.213,,47,"be,"
screen,html.Screen,2_1_0_1_48,2022-02-21T12:28:34.655Z,,,,,,,,,,,,,,,,,53,,,,,,,,,,,,,,201.78700000001118,,response,,,,99,,,,,,,Space,keypress(Space),,,,,,,,---- -- ----- -- ------ - ------- --- ----------<br>------------- ------ ------ ---- ---- ------- ----- -- ----<br>-------- ------- -- ---------- --- - --- ----- ----- ----<br>---- --- --- ----- --- ---- ---- ------- ----- ---- -------<br>--- --- -- ----- -- --- ---- -- --- even -- ------ ------<br>--- ----- -- ----,614689.1999999993,614686,614467.502,614483,614484.213,614701.456,,48,even
screen,html.Screen,2_1_0_1_49,2022-02-21T12:28:34.901Z,,,,,,,,,,,,,,,,,53,,,,,,,,,,,,,,230.44400000036694,,response,,,,99,,,,,,,Space,keypress(Space),,,,,,,,---- -- ----- -- ------ - ------- --- ----------<br>------------- ------ ------ ---- ---- ------- ----- -- ----<br>-------- ------- -- ---------- --- - --- ----- ----- ----<br>---- --- --- ----- --- ---- ---- ------- ----- ---- -------<br>--- --- -- ----- -- --- ---- -- --- ---- if ------ ------<br>--- ----- -- ----,614935.2999999989,614931.9000000004,614684.745,614689.4000000004,614701.456,614952.121,,49,if
screen,html.Screen,2_1_0_1_50,2022-02-21T12:28:35.137Z,,,,,,,,,,,,,,,,,53,,,,,,,,,,,,,,215.7790000003297,,response,,,,99,,,,,,,Space,keypress(Space),,,,,,,,---- -- ----- -- ------ - ------- --- ----------<br>------------- ------ ------ ---- ---- ------- ----- -- ----<br>-------- ------- -- ---------- --- - --- ----- ----- ----<br>---- --- --- ----- --- ---- ---- ------- ----- ---- -------<br>--- --- -- ----- -- --- ---- -- --- ---- -- that's ------<br>--- ----- -- ----,615171.1999999993,615167.9000000004,614935.41,614935.4000000004,614952.121,615186.075,,50,that's
screen,html.Screen,2_1_0_1_51,2022-02-21T12:28:35.348Z,,,,,,,,,,,,,,,,,53,,,,,,,,,,,,,,192.8250000004191,,response,,,,99,,,,,,,Space,keypress(Space),,,,,,,,---- -- ----- -- ------ - ------- --- ----------<br>------------- ------ ------ ---- ---- ------- ----- -- ----<br>-------- ------- -- ---------- --- - --- ----- ----- ----<br>---- --- --- ----- --- ---- ---- ------- ----- ---- -------<br>--- --- -- ----- -- --- ---- -- --- ---- -- ------ really<br>--- ----- -- ----,615382.1999999993,615378.9000000004,615169.364,615171.2999999989,615186.075,615386.607,,51,really
screen,html.Screen,2_1_0_1_52,2022-02-21T12:28:35.541Z,,,,,,,,,,,,,,,,,53,,,,,,,,,,,,,,185.092999999295,,response,,,,99,,,,,,,Space,keypress(Space),,,,,,,,---- -- ----- -- ------ - ------- --- ----------<br>------------- ------ ------ ---- ---- ------- ----- -- ----<br>-------- ------- -- ---------- --- - --- ----- ----- ----<br>---- --- --- ----- --- ---- ---- ------- ----- ---- -------<br>--- --- -- ----- -- --- ---- -- --- ---- -- ------ ------<br>not ----- -- ----,615575.2999999989,615571.6999999993,615369.896,615382.4000000004,615386.607,615921.359,,52,not
screen,html.Screen,2_1_0_1_53,2022-02-21T12:28:35.869Z,,,,,,,,,,,,,,,,,53,,,,,,,,,,,,,,NaN,,response,,,,99,,,,,,,Space,keypress(Space),,,,,,,,---- -- ----- -- ------ - ------- --- ----------<br>------------- ------ ------ ---- ---- ------- ----- -- ----<br>-------- ------- -- ---------- --- - --- ----- ----- ----<br>---- --- --- ----- --- ---- ---- ------- ----- ---- -------<br>--- --- -- ----- -- --- ---- -- --- ---- -- ------ ------<br>--- close -- ----,615903.4000000004,615799.7999999989,,615575.5,,615921.359,,53,close
screen,html.Screen,2_1_0_1_54,2022-02-21T12:28:35.962Z,,,,,,,,,,,,,,,,,53,,,,,,,,,,,,,,71.3409999992,,response,,,,99,,,,,,,Space,keypress(Space),,,,,,,,---- -- ----- -- ------ - ------- --- ----------<br>------------- ------ ------ ---- ---- ------- ----- -- ----<br>-------- ------- -- ---------- --- - --- ----- ----- ----<br>---- --- --- ----- --- ---- ---- ------- ----- ---- -------<br>--- --- -- ----- -- --- ---- -- --- ---- -- ------ ------<br>--- ----- at ----,615995.7999999989,615992.6999999993,615871.226,615904.7999999989,615921.359,616004.914,,54,at
screen,html.Screen,2_1_0_1_55,2022-02-21T12:28:36.816Z,,,,,,,,,,,,,,,,,53,,,,,,,,,,,,,,822.8859999988927,,response,,,,99,,,,,,,Space,keypress(Space),,,,,,,,---- -- ----- -- ------ - ------- --- ----------<br>------------- ------ ------ ---- ---- ------- ----- -- ----<br>-------- ------- -- ---------- --- - --- ----- ----- ----<br>---- --- --- ----- --- ---- ---- ------- ----- ---- -------<br>--- --- -- ----- -- --- ---- -- --- ---- -- ------ ------<br>--- ----- -- all.,616850.6999999993,616827.7999999989,615988.203,615995.9000000004,616004.914,616890.597,,55,all.
Item 99,flow.Loop,2_1_0_1,2022-02-21T12:28:36.818Z,,,,,,,,,,,,,,,,,,,,,,,,,,,,,,,21343.9939999989,,completion,,,,,C,,,,,,,,,,,silence,,,,,616852.0999999996,616827.7999999989,595467.095,595470.9000000004,595483.806,616890.597,,,
Question 1,html.Screen,2_1_0_2,2022-02-21T12:28:40.084Z,,,,,,,,,,,,,,,,,,,,,,,,,,,,true,FALSE,,3223.303000000422,,response,,,,99,C,,,,,,FALSE,click #choice-2,,,,silence,,,,,620118.5,620113.9000000004,616840.464,616852.2999999989,616890.597,620132.531,,,
Question 2,html.Screen,2_1_0_3,2022-02-21T12:28:43.042Z,,,,,,,,,,,,,,,,,,,,,,,,,,,,true,TRUE,,2932.8690000004135,,response,,,,99,C,,,,,,TRUE,click #choice-1,,,,silence,,,,,623075.7999999989,623065.4000000004,620115.82,620118.6999999993,620132.531,623073.667,,,
Item 99,flow.Sequence,2_1_0,2022-02-21T12:28:43.043Z,,,,,,,,,,,,,,,,,,,,,,,,,,,,,,,37574.77200000035,,completion,,,,,,,,,,,,,,,,,,,,,623077.1999999993,623065.4000000004,585423.784,585456,585490.628,623073.667,,,
Holding screen,html.Screen,2_1_1_0,2022-02-21T12:28:53.189Z,,,,,,,,,,,,,,,,,,,,,,,,,,,,,,,10243.842999999993,,timeout,,,,,,,,,,,,,,,,,,,,,633221.7999999989,633116.978,623056.956,623077.4000000004,623073.667,633317.51,,,
screen,html.Screen,2_1_1_1_0,2022-02-21T12:28:54.207Z,,,,,,,,,,,,,,,,,54,,,,,,,,,,,,,,863.6899999992456,,response,,,,100,,,,,,,Space,keypress(Space),,,,,,,,At --- ---- --- ------ ----- ------- ---- -- --- ------- --<br>------- ---------- ------ -- ----- -- ----- -- ---- ------<br>--- ----- --- --- ------ -------- ----- --- ------ ----- --<br>----- ----- ---------- --- --- ------ ------ ---- -- ------<br>------- --- ------ ----- --- ---- ------- -- ---- --- --<br>------- ------,634240.9000000004,634181.1999999993,633116.978,633223.6999999993,633317.51,634253.326,,0,At
screen,html.Screen,2_1_1_1_1,2022-02-21T12:28:54.652Z,,,,,,,,,,,,,,,,,54,,,,,,,,,,,,,,428.4739999988815,,response,,,,100,,,,,,,Space,keypress(Space),,,,,,,,-- the ---- --- ------ ----- ------- ---- -- --- ------- --<br>------- ---------- ------ -- ----- -- ----- -- ---- ------<br>--- ----- --- --- ------ -------- ----- --- ------ ----- --<br>----- ----- ---------- --- --- ------ ------ ---- -- ------<br>------- --- ------ ----- --- ---- ------- -- ---- --- --<br>------- ------,634685.0999999996,634681.7999999989,634236.615,634241,634253.326,634687.812,,1,the
screen,html.Screen,2_1_1_1_2,2022-02-21T12:28:55.093Z,,,,,,,,,,,,,,,,,54,,,,,,,,,,,,,,435.8879999992205,,response,,,,100,,,,,,,Space,keypress(Space),,,,,,,,-- --- time --- ------ ----- ------- ---- -- --- ------- --<br>------- ---------- ------ -- ----- -- ----- -- ---- ------<br>--- ----- --- --- ------ -------- ----- --- ------ ----- --<br>----- ----- ---------- --- --- ------ ------ ---- -- ------<br>------- --- ------ ----- --- ---- ------- -- ---- --- --<br>------- ------,635127,635123.6999999993,634671.101,634685.2999999989,634687.812,635139.009,,2,time
screen,html.Screen,2_1_1_1_3,2022-02-21T12:28:55.444Z,,,,,,,,,,,,,,,,,54,,,,,,,,,,,,,,335.7909999989206,,response,,,,100,,,,,,,Space,keypress(Space),,,,,,,,-- --- ---- the ------ ----- ------- ---- -- --- ------- --<br>------- ---------- ------ -- ----- -- ----- -- ---- ------<br>--- ----- --- --- ------ -------- ----- --- ------ ----- --<br>----- ----- ---------- --- --- ------ ------ ---- -- ------<br>------- --- ------ ----- --- ---- ------- -- ---- --- --<br>------- ------,635478.0999999996,635474.7999999989,635122.298,635127.1999999993,635139.009,635489.94,,3,the
screen,html.Screen,2_1_1_1_4,2022-02-21T12:28:55.698Z,,,,,,,,,,,,,,,,,54,,,,,,,,,,,,,,238.65999999968335,,response,,,,100,,,,,,,Space,keypress(Space),,,,,,,,-- --- ---- --- French ----- ------- ---- -- --- ------- --<br>------- ---------- ------ -- ----- -- ----- -- ---- ------<br>--- ----- --- --- ------ -------- ----- --- ------ ----- --<br>----- ----- ---------- --- --- ------ ------ ---- -- ------<br>------- --- ------ ----- --- ---- ------- -- ---- --- --<br>------- ------,635731.7999999989,635728.5999999996,635473.229,635478.1999999993,635489.94,635740.605,,4,French
screen,html.Screen,2_1_1_1_5,2022-02-21T12:28:56.066Z,,,,,,,,,,,,,,,,,54,,,,,,,,,,,,,,355.9949999996461,,response,,,,100,,,,,,,Space,keypress(Space),,,,,,,,-- --- ---- --- ------ crown ------- ---- -- --- ------- --<br>------- ---------- ------ -- ----- -- ----- -- ---- ------<br>--- ----- --- --- ------ -------- ----- --- ------ ----- --<br>----- ----- ---------- --- --- ------ ------ ---- -- ------<br>------- --- ------ ----- --- ---- ------- -- ---- --- --<br>------- ------,636099.9000000004,636096.5999999996,635723.894,635731.9000000004,635740.605,636108.247,,5,crown
screen,html.Screen,2_1_1_1_6,2022-02-21T12:28:56.375Z,,,,,,,,,,,,,,,,,54,,,,,,,,,,,,,,297.2530000000261,,response,,,,100,,,,,,,Space,keypress(Space),,,,,,,,-- --- ---- --- ------ ----- secured ---- -- --- ------- --<br>------- ---------- ------ -- ----- -- ----- -- ---- ------<br>--- ----- --- --- ------ -------- ----- --- ------ ----- --<br>----- ----- ---------- --- --- ------ ------ ---- -- ------<br>------- --- ------ ----- --- ---- ------- -- ---- --- --<br>------- ------,636408.6999999993,636405.5,636091.536,636100.0999999996,636108.247,636425.756,,6,secured
screen,html.Screen,2_1_1_1_7,2022-02-21T12:28:56.773Z,,,,,,,,,,,,,,,,,54,,,,,,,,,,,,,,377.9439999992028,,response,,,,100,,,,,,,Space,keypress(Space),,,,,,,,-- --- ---- --- ------ ----- ------- much -- --- ------- --<br>------- ---------- ------ -- ----- -- ----- -- ---- ------<br>--- ----- --- --- ------ -------- ----- --- ------ ----- --<br>----- ----- ---------- --- --- ------ ------ ---- -- ------<br>------- --- ------ ----- --- ---- ------- -- ---- --- --<br>------- ------,636807,636803.6999999993,636409.045,636408.7999999989,636425.756,636810.109,,7,much
screen,html.Screen,2_1_1_1_8,2022-02-21T12:28:57.115Z,,,,,,,,,,,,,,,,,54,,,,,,,,,,,,,,335.4909999995725,,response,,,,100,,,,,,,Space,keypress(Space),,,,,,,,-- --- ---- --- ------ ----- ------- ---- of --- ------- --<br>------- ---------- ------ -- ----- -- ----- -- ---- ------<br>--- ----- --- --- ------ -------- ----- --- ------ ----- --<br>----- ----- ---------- --- --- ------ ------ ---- -- ------<br>------- --- ------ ----- --- ---- ------- -- ---- --- --<br>------- ------,637148.9000000004,637145.5999999996,636793.398,636807.1999999993,636810.109,637161.04,,8,of
screen,html.Screen,2_1_1_1_9,2022-02-21T12:28:57.450Z,,,,,,,,,,,,,,,,,54,,,,,,,,,,,,,,319.5599999995902,,response,,,,100,,,,,,,Space,keypress(Space),,,,,,,,-- --- ---- --- ------ ----- ------- ---- -- its ------- --<br>------- ---------- ------ -- ----- -- ----- -- ---- ------<br>--- ----- --- --- ------ -------- ----- --- ------ ----- --<br>----- ----- ---------- --- --- ------ ------ ---- -- ------<br>------- --- ------ ----- --- ---- ------- -- ---- --- --<br>------- ------,637484,637480.5999999996,637144.329,637149,637161.04,637495.26,,9,its
screen,html.Screen,2_1_1_1_10,2022-02-21T12:28:57.808Z,,,,,,,,,,,,,,,,,54,,,,,,,,,,,,,,343.43999999924563,,response,,,,100,,,,,,,Space,keypress(Space),,,,,,,,-- --- ---- --- ------ ----- ------- ---- -- --- revenue --<br>------- ---------- ------ -- ----- -- ----- -- ---- ------<br>--- ----- --- --- ------ -------- ----- --- ------ ----- --<br>----- ----- ---------- --- --- ------ ------ ---- -- ------<br>------- --- ------ ----- --- ---- ------- -- ---- --- --<br>------- ------,637841.9000000004,637838.6999999993,637478.549,637484.0999999996,637495.26,637846.191,,10,revenue
screen,html.Screen,2_1_1_1_11,2022-02-21T12:28:58.188Z,,,,,,,,,,,,,,,,,54,,,,,,,,,,,,,,372.40899999963585,,response,,,,100,,,,,,,Space,keypress(Space),,,,,,,,-- --- ---- --- ------ ----- ------- ---- -- --- ------- by<br>------- ---------- ------ -- ----- -- ----- -- ---- ------<br>--- ----- --- --- ------ -------- ----- --- ------ ----- --<br>----- ----- ---------- --- --- ------ ------ ---- -- ------<br>------- --- ------ ----- --- ---- ------- -- ---- --- --<br>------- ------,638221.7999999989,638218.5999999996,637829.48,637842,637846.191,638230.544,,11,by
screen,html.Screen,2_1_1_1_12,2022-02-21T12:28:58.525Z,,,,,,,,,,,,,,,,,54,,,,,,,,,,,,,,324.8560000003781,,response,,,,100,,,,,,,Space,keypress(Space),,,,,,,,-- --- ---- --- ------ ----- ------- ---- -- --- ------- --<br>issuing ---------- ------ -- ----- -- ----- -- ---- ------<br>--- ----- --- --- ------ -------- ----- --- ------ ----- --<br>----- ----- ---------- --- --- ------ ------ ---- -- ------<br>------- --- ------ ----- --- ---- ------- -- ---- --- --<br>------- ------,638558.6999999993,638555.4000000004,638213.833,638222,638230.544,638564.764,,12,issuing
screen,html.Screen,2_1_1_1_13,2022-02-21T12:28:58.867Z,,,,,,,,,,,,,,,,,54,,,,,,,,,,,,,,332.7360000000335,,response,,,,100,,,,,,,Space,keypress(Space),,,,,,,,-- --- ---- --- ------ ----- ------- ---- -- --- ------- --<br>------- government ------ -- ----- -- ----- -- ---- ------<br>--- ----- --- --- ------ -------- ----- --- ------ ----- --<br>----- ----- ---------- --- --- ------ ------ ---- -- ------<br>------- --- ------ ----- --- ---- ------- -- ---- --- --<br>------- ------,638900.9000000004,638897.5,638548.053,638558.7999999989,638564.764,638915.695,,13,government
screen,html.Screen,2_1_1_1_14,2022-02-21T12:28:59.197Z,,,,,,,,,,,,,,,,,54,,,,,,,,,,,,,,311.60499999893364,,response,,,,100,,,,,,,Space,keypress(Space),,,,,,,,-- --- ---- --- ------ ----- ------- ---- -- --- ------- --<br>------- ---------- bonds. -- ----- -- ----- -- ---- ------<br>--- ----- --- --- ------ -------- ----- --- ------ ----- --<br>----- ----- ---------- --- --- ------ ------ ---- -- ------<br>------- --- ------ ----- --- ---- ------- -- ---- --- --<br>------- ------,639230.6999999993,639227.2999999989,638898.984,638901.0999999996,638915.695,639233.204,,14,bonds.
screen,html.Screen,2_1_1_1_15,2022-02-21T12:28:59.691Z,,,,,,,,,,,,,,,,,54,,,,,,,,,,,,,,488.295999999973,,response,,,,100,,,,,,,Space,keypress(Space),,,,,,,,-- --- ---- --- ------ ----- ------- ---- -- --- ------- --<br>------- ---------- ------ In ----- -- ----- -- ---- ------<br>--- ----- --- --- ------ -------- ----- --- ------ ----- --<br>----- ----- ---------- --- --- ------ ------ ---- -- ------<br>------- --- ------ ----- --- ---- ------- -- ---- --- --<br>------- ------,639724.7999999989,639721.5,639216.493,639230.7999999989,639233.204,639734.534,,15,In
screen,html.Screen,2_1_1_1_16,2022-02-21T12:28:59.982Z,,,,,,,,,,,,,,,,,54,,,,,,,,,,,,,,277.9660000000149,,response,,,,100,,,,,,,Space,keypress(Space),,,,,,,,"-- --- ---- --- ------ ----- ------- ---- -- --- ------- --<br>------- ---------- ------ -- 1727, -- ----- -- ---- ------<br>--- ----- --- --- ------ -------- ----- --- ------ ----- --<br>----- ----- ---------- --- --- ------ ------ ---- -- ------<br>------- --- ------ ----- --- ---- ------- -- ---- --- --<br>------- ------",640015.6999999993,640012.5,639717.823,639724.9000000004,639734.534,640035.332,,16,"1727,"
screen,html.Screen,2_1_1_1_17,2022-02-21T12:29:01.050Z,,,,,,,,,,,,,,,,,54,,,,,,,,,,,,,,1044.9679999988293,,response,,,,100,,,,,,,Space,keypress(Space),,,,,,,,-- --- ---- --- ------ ----- ------- ---- -- --- ------- --<br>------- ---------- ------ -- ----- in ----- -- ---- ------<br>--- ----- --- --- ------ -------- ----- --- ------ ----- --<br>----- ----- ---------- --- --- ------ ------ ---- -- ------<br>------- --- ------ ----- --- ---- ------- -- ---- --- --<br>------- ------,641083.2999999989,641080.2999999989,640018.621,640023.6999999993,640035.332,641088.125,,17,in
screen,html.Screen,2_1_1_1_18,2022-02-21T12:29:01.370Z,,,,,,,,,,,,,,,,,54,,,,,,,,,,,,,,312.27500000037253,,response,,,,100,,,,,,,Space,keypress(Space),,,,,,,,-- --- ---- --- ------ ----- ------- ---- -- --- ------- --<br>------- ---------- ------ -- ----- -- order -- ---- ------<br>--- ----- --- --- ------ -------- ----- --- ------ ----- --<br>----- ----- ---------- --- --- ------ ------ ---- -- ------<br>------- --- ------ ----- --- ---- ------- -- ---- --- --<br>------- ------,641403.5999999996,641400.4000000004,641071.414,641083.4000000004,641088.125,641405.634,,18,order
screen,html.Screen,2_1_1_1_19,2022-02-21T12:29:01.791Z,,,,,,,,,,,,,,,,,54,,,,,,,,,,,,,,279.5659999992931,,response,,,,100,,,,,,,Space,keypress(Space),,,,,,,,-- --- ---- --- ------ ----- ------- ---- -- --- ------- --<br>------- ---------- ------ -- ----- -- ----- to ---- ------<br>--- ----- --- --- ------ -------- ----- --- ------ ----- --<br>----- ----- ---------- --- --- ------ ------ ---- -- ------<br>------- --- ------ ----- --- ---- ------- -- ---- --- --<br>------- ------,641823.6999999993,641685.1999999993,641388.923,641403.7999999989,641405.634,641906.964,,19,to
screen,html.Screen,2_1_1_1_20,2022-02-21T12:29:01.922Z,,,,,,,,,,,,,,,,,54,,,,,,,,,,,,,,45.13599999959115,,response,,,,100,,,,,,,Space,keypress(Space),,,,,,,,-- --- ---- --- ------ ----- ------- ---- -- --- ------- --<br>------- ---------- ------ -- ----- -- ----- -- save ------<br>--- ----- --- --- ------ -------- ----- --- ------ ----- --<br>----- ----- ---------- --- --- ------ ------ ---- -- ------<br>------- --- ------ ----- --- ---- ------- -- ---- --- --<br>------- ------,641954.9000000004,641952.0999999996,641840.12,641827.0999999996,641906.964,641957.097,,20,save
screen,html.Screen,2_1_1_1_21,2022-02-21T12:29:02.755Z,,,,,,,,,,,,,,,,,54,,,,,,,,,,,,,,828.2029999989318,,response,,,,100,,,,,,,Space,keypress(Space),,,,,,,,"-- --- ---- --- ------ ----- ------- ---- -- --- ------- --<br>------- ---------- ------ -- ----- -- ----- -- ---- money,<br>--- ----- --- --- ------ -------- ----- --- ------ ----- --<br>----- ----- ---------- --- --- ------ ------ ---- -- ------<br>------- --- ------ ----- --- ---- ------- -- ---- --- --<br>------- ------",642788.6999999993,642785.2999999989,641940.386,641955.0999999996,641957.097,642792.647,,21,"money,"
screen,html.Screen,2_1_1_1_22,2022-02-21T12:29:03.142Z,,,,,,,,,,,,,,,,,54,,,,,,,,,,,,,,379.55299999925774,,response,,,,100,,,,,,,Space,keypress(Space),,,,,,,,-- --- ---- --- ------ ----- ------- ---- -- --- ------- --<br>------- ---------- ------ -- ----- -- ----- -- ---- ------<br>the ----- --- --- ------ -------- ----- --- ------ ----- --<br>----- ----- ---------- --- --- ------ ------ ---- -- ------<br>------- --- ------ ----- --- ---- ------- -- ---- --- --<br>------- ------,643175.5,643172.1999999993,642775.936,642788.7999999989,642792.647,643177,,22,the
screen,html.Screen,2_1_1_1_23,2022-02-21T12:29:03.521Z,,,,,,,,,,,,,,,,,54,,,,,,,,,,,,,,374.19999999925494,,response,,,,100,,,,,,,Space,keypress(Space),,,,,,,,-- --- ---- --- ------ ----- ------- ---- -- --- ------- --<br>------- ---------- ------ -- ----- -- ----- -- ---- ------<br>--- state --- --- ------ -------- ----- --- ------ ----- --<br>----- ----- ---------- --- --- ------ ------ ---- -- ------<br>------- --- ------ ----- --- ---- ------- -- ---- --- --<br>------- ------,643554.5,643551.1999999993,643160.289,643175.6999999993,643177,643561.353,,23,state
screen,html.Screen,2_1_1_1_24,2022-02-21T12:29:03.855Z,,,,,,,,,,,,,,,,,54,,,,,,,,,,,,,,323.84699999925215,,response,,,,100,,,,,,,Space,keypress(Space),,,,,,,,-- --- ---- --- ------ ----- ------- ---- -- --- ------- --<br>------- ---------- ------ -- ----- -- ----- -- ---- ------<br>--- ----- cut --- ------ -------- ----- --- ------ ----- --<br>----- ----- ---------- --- --- ------ ------ ---- -- ------<br>------- --- ------ ----- --- ---- ------- -- ---- --- --<br>------- ------,643888.5,643885.1999999993,643544.642,643554.5999999996,643561.353,643895.573,,24,cut
screen,html.Screen,2_1_1_1_25,2022-02-21T12:29:04.146Z,,,,,,,,,,,,,,,,,54,,,,,,,,,,,,,,280.42700000002515,,response,,,,100,,,,,,,Space,keypress(Space),,,,,,,,-- --- ---- --- ------ ----- ------- ---- -- --- ------- --<br>------- ---------- ------ -- ----- -- ----- -- ---- ------<br>--- ----- --- the ------ -------- ----- --- ------ ----- --<br>----- ----- ---------- --- --- ------ ------ ---- -- ------<br>------- --- ------ ----- --- ---- ------- -- ---- --- --<br>------- ------,644179.5999999996,644176,643878.862,643888.5999999996,643895.573,644196.371,,25,the
screen,html.Screen,2_1_1_1_26,2022-02-21T12:29:04.504Z,,,,,,,,,,,,,,,,,54,,,,,,,,,,,,,,319.72899999958463,,response,,,,100,,,,,,,Space,keypress(Space),,,,,,,,-- --- ---- --- ------ ----- ------- ---- -- --- ------- --<br>------- ---------- ------ -- ----- -- ----- -- ---- ------<br>--- ----- --- --- bonds' -------- ----- --- ------ ----- --<br>----- ----- ---------- --- --- ------ ------ ---- -- ------<br>------- --- ------ ----- --- ---- ------- -- ---- --- --<br>------- ------,644537.0999999996,644516.0999999996,644179.66,644179.7999999989,644196.371,644547.302,,26,bonds'
screen,html.Screen,2_1_1_1_27,2022-02-21T12:29:04.902Z,,,,,,,,,,,,,,,,,54,,,,,,,,,,,,,,384.7979999996023,,response,,,,100,,,,,,,Space,keypress(Space),,,,,,,,-- --- ---- --- ------ ----- ------- ---- -- --- ------- --<br>------- ---------- ------ -- ----- -- ----- -- ---- ------<br>--- ----- --- --- ------ interest ----- --- ------ ----- --<br>----- ----- ---------- --- --- ------ ------ ---- -- ------<br>------- --- ------ ----- --- ---- ------- -- ---- --- --<br>------- ------,644935.5,644932.0999999996,644530.591,644537.4000000004,644547.302,644948.366,,27,interest
screen,html.Screen,2_1_1_1_28,2022-02-21T12:29:05.241Z,,,,,,,,,,,,,,,,,54,,,,,,,,,,,,,,322.7339999995893,,response,,,,100,,,,,,,Space,keypress(Space),,,,,,,,-- --- ---- --- ------ ----- ------- ---- -- --- ------- --<br>------- ---------- ------ -- ----- -- ----- -- ---- ------<br>--- ----- --- --- ------ -------- rate. --- ------ ----- --<br>----- ----- ---------- --- --- ------ ------ ---- -- ------<br>------- --- ------ ----- --- ---- ------- -- ---- --- --<br>------- ------,645274.4000000004,645271.0999999996,644931.655,644935.5999999996,644948.366,645282.586,,28,rate.
screen,html.Screen,2_1_1_1_29,2022-02-21T12:29:05.621Z,,,,,,,,,,,,,,,,,54,,,,,,,,,,,,,,368.5139999996172,,response,,,,100,,,,,,,Space,keypress(Space),,,,,,,,-- --- ---- --- ------ ----- ------- ---- -- --- ------- --<br>------- ---------- ------ -- ----- -- ----- -- ---- ------<br>--- ----- --- --- ------ -------- ----- The ------ ----- --<br>----- ----- ---------- --- --- ------ ------ ---- -- ------<br>------- --- ------ ----- --- ---- ------- -- ---- --- --<br>------- ------,645654.4000000004,645651.0999999996,645265.875,645274.5999999996,645282.586,645666.939,,29,The
screen,html.Screen,2_1_1_1_30,2022-02-21T12:29:05.976Z,,,,,,,,,,,,,,,,,54,,,,,,,,,,,,,,338.9610000003595,,response,,,,100,,,,,,,Space,keypress(Space),,,,,,,,-- --- ---- --- ------ ----- ------- ---- -- --- ------- --<br>------- ---------- ------ -- ----- -- ----- -- ---- ------<br>--- ----- --- --- ------ -------- ----- --- market ----- --<br>----- ----- ---------- --- --- ------ ------ ---- -- ------<br>------- --- ------ ----- --- ---- ------- -- ---- --- --<br>------- ------,646009.1999999993,646005.9000000004,645650.228,645654.5999999996,645666.939,646017.87,,30,market
screen,html.Screen,2_1_1_1_31,2022-02-21T12:29:06.355Z,,,,,,,,,,,,,,,,,54,,,,,,,,,,,,,,367.13000000000466,,response,,,,100,,,,,,,Space,keypress(Space),,,,,,,,-- --- ---- --- ------ ----- ------- ---- -- --- ------- --<br>------- ---------- ------ -- ----- -- ----- -- ---- ------<br>--- ----- --- --- ------ -------- ----- --- ------ value --<br>----- ----- ---------- --- --- ------ ------ ---- -- ------<br>------- --- ------ ----- --- ---- ------- -- ---- --- --<br>------- ------,646388.2999999989,646385,646001.159,646009.4000000004,646017.87,646418.934,,31,value
screen,html.Screen,2_1_1_1_32,2022-02-21T12:29:06.663Z,,,,,,,,,,,,,,,,,54,,,,,,,,,,,,,,266.0659999999916,,response,,,,100,,,,,,,Space,keypress(Space),,,,,,,,-- --- ---- --- ------ ----- ------- ---- -- --- ------- --<br>------- ---------- ------ -- ----- -- ----- -- ---- ------<br>--- ----- --- --- ------ -------- ----- --- ------ ----- of<br>----- ----- ---------- --- --- ------ ------ ---- -- ------<br>------- --- ------ ----- --- ---- ------- -- ---- --- --<br>------- ------,646696.5,646685,646402.223,646412.4000000004,646418.934,646703.021,,32,of
screen,html.Screen,2_1_1_1_33,2022-02-21T12:29:06.961Z,,,,,,,,,,,,,,,,,54,,,,,,,,,,,,,,287.9790000000503,,response,,,,100,,,,,,,Space,keypress(Space),,,,,,,,-- --- ---- --- ------ ----- ------- ---- -- --- ------- --<br>------- ---------- ------ -- ----- -- ----- -- ---- ------<br>--- ----- --- --- ------ -------- ----- --- ------ ----- --<br>these ----- ---------- --- --- ------ ------ ---- -- ------<br>------- --- ------ ----- --- ---- ------- -- ---- --- --<br>------- ------,646994.2999999989,646991,646686.31,646696.6999999993,646703.021,647003.819,,33,these
screen,html.Screen,2_1_1_1_34,2022-02-21T12:29:07.235Z,,,,,,,,,,,,,,,,,54,,,,,,,,,,,,,,261.1809999999823,,response,,,,100,,,,,,,Space,keypress(Space),,,,,,,,-- --- ---- --- ------ ----- ------- ---- -- --- ------- --<br>------- ---------- ------ -- ----- -- ----- -- ---- ------<br>--- ----- --- --- ------ -------- ----- --- ------ ----- --<br>----- bonds ---------- --- --- ------ ------ ---- -- ------<br>------- --- ------ ----- --- ---- ------- -- ---- --- --<br>------- ------,647268.1999999993,647265,646987.108,646994.5,647003.819,647271.195,,34,bonds
screen,html.Screen,2_1_1_1_35,2022-02-21T12:29:07.628Z,,,,,,,,,,,,,,,,,54,,,,,,,,,,,,,,386.8050000000512,,response,,,,100,,,,,,,Space,keypress(Space),,,,,,,,"-- --- ---- --- ------ ----- ------- ---- -- --- ------- --<br>------- ---------- ------ -- ----- -- ----- -- ---- ------<br>--- ----- --- --- ------ -------- ----- --- ------ ----- --<br>----- ----- plummeted, --- --- ------ ------ ---- -- ------<br>------- --- ------ ----- --- ---- ------- -- ---- --- --<br>------- ------",647661.2999999989,647658,647254.484,647268.4000000004,647271.195,647672.259,,35,"plummeted,"
screen,html.Screen,2_1_1_1_36,2022-02-21T12:29:07.968Z,,,,,,,,,,,,,,,,,54,,,,,,,,,,,,,,325.6410000004107,,response,,,,100,,,,,,,Space,keypress(Space),,,,,,,,-- --- ---- --- ------ ----- ------- ---- -- --- ------- --<br>------- ---------- ------ -- ----- -- ----- -- ---- ------<br>--- ----- --- --- ------ -------- ----- --- ------ ----- --<br>----- ----- ---------- and --- ------ ------ ---- -- ------<br>------- --- ------ ----- --- ---- ------- -- ---- --- --<br>------- ------,648001.1999999993,647997.9000000004,647655.548,647661.4000000004,647672.259,648039.901,,36,and
screen,html.Screen,2_1_1_1_37,2022-02-21T12:29:08.270Z,,,,,,,,,,,,,,,,,54,,,,,,,,,,,,,,260.09900000004563,,response,,,,100,,,,,,,Space,keypress(Space),,,,,,,,-- --- ---- --- ------ ----- ------- ---- -- --- ------- --<br>------- ---------- ------ -- ----- -- ----- -- ---- ------<br>--- ----- --- --- ------ -------- ----- --- ------ ----- --<br>----- ----- ---------- --- the ------ ------ ---- -- ------<br>------- --- ------ ----- --- ---- ------- -- ---- --- --<br>------- ------,648303.1999999993,648300,648023.19,648023.4000000004,648039.901,648307.277,,37,the
screen,html.Screen,2_1_1_1_38,2022-02-21T12:29:08.645Z,,,,,,,,,,,,,,,,,54,,,,,,,,,,,,,,367.62300000037067,,response,,,,100,,,,,,,Space,keypress(Space),,,,,,,,-- --- ---- --- ------ ----- ------- ---- -- --- ------- --<br>------- ---------- ------ -- ----- -- ----- -- ---- ------<br>--- ----- --- --- ------ -------- ----- --- ------ ----- --<br>----- ----- ---------- --- --- market ------ ---- -- ------<br>------- --- ------ ----- --- ---- ------- -- ---- --- --<br>------- ------,648678.5,648674.9000000004,648290.566,648303.4000000004,648307.277,648691.63,,38,market
screen,html.Screen,2_1_1_1_39,2022-02-21T12:29:08.994Z,,,,,,,,,,,,,,,,,54,,,,,,,,,,,,,,332.36999999999534,,response,,,,100,,,,,,,Space,keypress(Space),,,,,,,,-- --- ---- --- ------ ----- ------- ---- -- --- ------- --<br>------- ---------- ------ -- ----- -- ----- -- ---- ------<br>--- ----- --- --- ------ -------- ----- --- ------ ----- --<br>----- ----- ---------- --- --- ------ became ---- -- ------<br>------- --- ------ ----- --- ---- ------- -- ---- --- --<br>------- ------,649027.1999999993,649024,648674.919,648678.5,648691.63,649042.561,,39,became
screen,html.Screen,2_1_1_1_40,2022-02-21T12:29:09.311Z,,,,,,,,,,,,,,,,,54,,,,,,,,,,,,,,297.138999999268,,response,,,,100,,,,,,,Space,keypress(Space),,,,,,,,-- --- ---- --- ------ ----- ------- ---- -- --- ------- --<br>------- ---------- ------ -- ----- -- ----- -- ---- ------<br>--- ----- --- --- ------ -------- ----- --- ------ ----- --<br>----- ----- ---------- --- --- ------ ------ wary -- ------<br>------- --- ------ ----- --- ---- ------- -- ---- --- --<br>------- ------,649343.7999999989,649339.6999999993,649025.85,649027.4000000004,649042.561,649360.07,,40,wary
screen,html.Screen,2_1_1_1_41,2022-02-21T12:29:09.611Z,,,,,,,,,,,,,,,,,54,,,,,,,,,,,,,,280.72999999893364,,response,,,,100,,,,,,,Space,keypress(Space),,,,,,,,-- --- ---- --- ------ ----- ------- ---- -- --- ------- --<br>------- ---------- ------ -- ----- -- ----- -- ---- ------<br>--- ----- --- --- ------ -------- ----- --- ------ ----- --<br>----- ----- ---------- --- --- ------ ------ ---- of ------<br>------- --- ------ ----- --- ---- ------- -- ---- --- --<br>------- ------,649644.1999999993,649640.7999999989,649343.359,649343.9000000004,649360.07,649660.868,,41,of
screen,html.Screen,2_1_1_1_42,2022-02-21T12:29:09.947Z,,,,,,,,,,,,,,,,,54,,,,,,,,,,,,,,315.93199999886565,,response,,,,100,,,,,,,Space,keypress(Space),,,,,,,,-- --- ---- --- ------ ----- ------- ---- -- --- ------- --<br>------- ---------- ------ -- ----- -- ----- -- ---- ------<br>--- ----- --- --- ------ -------- ----- --- ------ ----- --<br>----- ----- ---------- --- --- ------ ------ ---- -- French<br>------- --- ------ ----- --- ---- ------- -- ---- --- --<br>------- ------,649980.0999999996,649976.7999999989,649644.157,649644.2999999989,649660.868,649995.088,,42,French
screen,html.Screen,2_1_1_1_43,2022-02-21T12:29:10.434Z,,,,,,,,,,,,,,,,,54,,,,,,,,,,,,,,296.6119999992661,,response,,,,100,,,,,,,Space,keypress(Space),,,,,,,,-- --- ---- --- ------ ----- ------- ---- -- --- ------- --<br>------- ---------- ------ -- ----- -- ----- -- ---- ------<br>--- ----- --- --- ------ -------- ----- --- ------ ----- --<br>----- ----- ---------- --- --- ------ ------ ---- -- ------<br>credit. --- ------ ----- --- ---- ------- -- ---- --- --<br>------- ------,650466.0999999996,650291.6999999993,649978.377,649980.1999999993,649995.088,650680.239,,43,credit.
screen,html.Screen,2_1_1_1_44,2022-02-21T12:29:10.604Z,,,,,,,,,,,,,,,,,54,,,,,,,,,,,,,,NaN,,response,,,,100,,,,,,,Space,keypress(Space),,,,,,,,-- --- ---- --- ------ ----- ------- ---- -- --- ------- --<br>------- ---------- ------ -- ----- -- ----- -- ---- ------<br>--- ----- --- --- ------ -------- ----- --- ------ ----- --<br>----- ----- ---------- --- --- ------ ------ ---- -- ------<br>------- The ------ ----- --- ---- ------- -- ---- --- --<br>------- ------,650637.5999999996,650609.6999999993,,650471.1999999993,,650680.239,,44,The
screen,html.Screen,2_1_1_1_45,2022-02-21T12:29:11.441Z,,,,,,,,,,,,,,,,,54,,,,,,,,,,,,,,790.5609999989392,,response,,,,100,,,,,,,Space,keypress(Space),,,,,,,,-- --- ---- --- ------ ----- ------- ---- -- --- ------- --<br>------- ---------- ------ -- ----- -- ----- -- ---- ------<br>--- ----- --- --- ------ -------- ----- --- ------ ----- --<br>----- ----- ---------- --- --- ------ ------ ---- -- ------<br>------- --- French ----- --- ---- ------- -- ---- --- --<br>------- ------,651474.0999999996,651470.7999999989,650496.418,650639.1999999993,650680.239,651482.367,,45,French
screen,html.Screen,2_1_1_1_46,2022-02-21T12:29:11.733Z,,,,,,,,,,,,,,,,,54,,,,,,,,,,,,,,280.43299999891315,,response,,,,100,,,,,,,Space,keypress(Space),,,,,,,,-- --- ---- --- ------ ----- ------- ---- -- --- ------- --<br>------- ---------- ------ -- ----- -- ----- -- ---- ------<br>--- ----- --- --- ------ -------- ----- --- ------ ----- --<br>----- ----- ---------- --- --- ------ ------ ---- -- ------<br>------- --- ------ state --- ---- ------- -- ---- --- --<br>------- ------,651766.0999999996,651762.7999999989,651465.656,651474.2999999989,651482.367,651783.165,,46,state
screen,html.Screen,2_1_1_1_47,2022-02-21T12:29:12.059Z,,,,,,,,,,,,,,,,,54,,,,,,,,,,,,,,305.5349999992177,,response,,,,100,,,,,,,Space,keypress(Space),,,,,,,,-- --- ---- --- ------ ----- ------- ---- -- --- ------- --<br>------- ---------- ------ -- ----- -- ----- -- ---- ------<br>--- ----- --- --- ------ -------- ----- --- ------ ----- --<br>----- ----- ---------- --- --- ------ ------ ---- -- ------<br>------- --- ------ ----- was ---- ------- -- ---- --- --<br>------- ------,652092,652088.6999999993,651766.454,651766.2999999989,651783.165,652100.674,,47,was
screen,html.Screen,2_1_1_1_48,2022-02-21T12:29:12.404Z,,,,,,,,,,,,,,,,,54,,,,,,,,,,,,,,333.0259999992559,,response,,,,100,,,,,,,Space,keypress(Space),,,,,,,,-- --- ---- --- ------ ----- ------- ---- -- --- ------- --<br>------- ---------- ------ -- ----- -- ----- -- ---- ------<br>--- ----- --- --- ------ -------- ----- --- ------ ----- --<br>----- ----- ---------- --- --- ------ ------ ---- -- ------<br>------- --- ------ ----- --- left ------- -- ---- --- --<br>------- ------,652437.0999999996,652433.6999999993,652083.963,652092.1999999993,652100.674,652451.605,,48,left
screen,html.Screen,2_1_1_1_49,2022-02-21T12:29:13.043Z,,,,,,,,,,,,,,,,,54,,,,,,,,,,,,,,620.8950000000186,,response,,,,100,,,,,,,Space,keypress(Space),,,,,,,,-- --- ---- --- ------ ----- ------- ---- -- --- ------- --<br>------- ---------- ------ -- ----- -- ----- -- ---- ------<br>--- ----- --- --- ------ -------- ----- --- ------ ----- --<br>----- ----- ---------- --- --- ------ ------ ---- -- ------<br>------- --- ------ ----- --- ---- without -- ---- --- --<br>------- ------,653075.9000000004,653072.5,652434.894,652437.1999999993,652451.605,653086.623,,49,without
screen,html.Screen,2_1_1_1_50,2022-02-21T12:29:13.409Z,,,,,,,,,,,,,,,,,54,,,,,,,,,,,,,,351.97699999960605,,response,,,,100,,,,,,,Space,keypress(Space),,,,,,,,-- --- ---- --- ------ ----- ------- ---- -- --- ------- --<br>------- ---------- ------ -- ----- -- ----- -- ---- ------<br>--- ----- --- --- ------ -------- ----- --- ------ ----- --<br>----- ----- ---------- --- --- ------ ------ ---- -- ------<br>------- --- ------ ----- --- ---- ------- an ---- --- --<br>------- ------,653442,653438.5999999996,653069.912,653076,653086.623,653454.265,,50,an
screen,html.Screen,2_1_1_1_51,2022-02-21T12:29:13.758Z,,,,,,,,,,,,,,,,,54,,,,,,,,,,,,,,333.3349999996135,,response,,,,100,,,,,,,Space,keypress(Space),,,,,,,,-- --- ---- --- ------ ----- ------- ---- -- --- ------- --<br>------- ---------- ------ -- ----- -- ----- -- ---- ------<br>--- ----- --- --- ------ -------- ----- --- ------ ----- --<br>----- ----- ---------- --- --- ------ ------ ---- -- ------<br>------- --- ------ ----- --- ---- ------- -- easy --- --<br>------- ------,653791,653787.5999999996,653437.554,653442.0999999996,653454.265,653805.196,,51,easy
screen,html.Screen,2_1_1_1_52,2022-02-21T12:29:14.047Z,,,,,,,,,,,,,,,,,54,,,,,,,,,,,,,,271.4039999996312,,response,,,,100,,,,,,,Space,keypress(Space),,,,,,,,-- --- ---- --- ------ ----- ------- ---- -- --- ------- --<br>------- ---------- ------ -- ----- -- ----- -- ---- ------<br>--- ----- --- --- ------ -------- ----- --- ------ ----- --<br>----- ----- ---------- --- --- ------ ------ ---- -- ------<br>------- --- ------ ----- --- ---- ------- -- ---- way --<br>------- ------,654079.7999999989,654076.5999999996,653788.485,653791.1999999993,653805.196,654089.283,,52,way
screen,html.Screen,2_1_1_1_53,2022-02-21T12:29:14.338Z,,,,,,,,,,,,,,,,,54,,,,,,,,,,,,,,278.31699999957345,,response,,,,100,,,,,,,Space,keypress(Space),,,,,,,,-- --- ---- --- ------ ----- ------- ---- -- --- ------- --<br>------- ---------- ------ -- ----- -- ----- -- ---- ------<br>--- ----- --- --- ------ -------- ----- --- ------ ----- --<br>----- ----- ---------- --- --- ------ ------ ---- -- ------<br>------- --- ------ ----- --- ---- ------- -- ---- --- of<br>------- ------,654370.7999999989,654367.5999999996,654072.572,654080,654089.283,654373.37,,53,of
screen,html.Screen,2_1_1_1_54,2022-02-21T12:29:14.681Z,,,,,,,,,,,,,,,,,54,,,,,,,,,,,,,,307.2299999996321,,response,,,,100,,,,,,,Space,keypress(Space),,,,,,,,-- --- ---- --- ------ ----- ------- ---- -- --- ------- --<br>------- ---------- ------ -- ----- -- ----- -- ---- ------<br>--- ----- --- --- ------ -------- ----- --- ------ ----- --<br>----- ----- ---------- --- --- ------ ------ ---- -- ------<br>------- --- ------ ----- --- ---- ------- -- ---- --- --<br>raising ------,654713.5999999996,654680.5999999996,654356.659,654371,654373.37,654724.301,,54,raising
screen,html.Screen,2_1_1_1_55,2022-02-21T12:29:15.063Z,,,,,,,,,,,,,,,,,54,,,,,,,,,,,,,,368.2989999996498,,response,,,,100,,,,,,,Space,keypress(Space),,,,,,,,-- --- ---- --- ------ ----- ------- ---- -- --- ------- --<br>------- ---------- ------ -- ----- -- ----- -- ---- ------<br>--- ----- --- --- ------ -------- ----- --- ------ ----- --<br>----- ----- ---------- --- --- ------ ------ ---- -- ------<br>------- --- ------ ----- --- ---- ------- -- ---- --- --<br>------- money.,655095.9000000004,655092.5999999996,654707.59,654713.6999999993,654724.301,655125.365,,55,money.
Item 100,flow.Loop,2_1_1_1,2022-02-21T12:29:15.071Z,,,,,,,,,,,,,,,,,,,,,,,,,,,,,,,21775.089999999618,,completion,,,,,C,,,,,,,,,,,silence,,,,,655104.2999999989,655092.5999999996,633116.978,633222.9000000004,633317.51,655125.365,,,
Question 1,html.Screen,2_1_1_2,2022-02-21T12:29:16.883Z,,,,,,,,,,,,,,,,,,,,,,,,,,,,true,TRUE,,1787.5350000003818,,response,,,,100,C,,,,,,TRUE,click #choice-1,,,,silence,,,,,656915.7999999989,656912.9000000004,655091.943,655104.5,655125.365,656930.153,,,
Question 2,html.Screen,2_1_1_3,2022-02-21T12:29:18.781Z,,,,,,,,,,,,,,,,,,,,,,,,,,,,true,FALSE,,1881.146999998833,,response,,,,100,C,,,,,,FALSE,click #choice-2,,,,silence,,,,,658813.4000000004,658811.2999999989,656913.442,656915.9000000004,656930.153,658818.496,,,
Item 100,flow.Sequence,2_1_1,2022-02-21T12:29:18.781Z,,,,,,,,,,,,,,,,,,,,,,,,,,,,,,,35737.63299999887,,completion,,,,,,,,,,,,,,,,,,,,,658813.5,658811.2999999989,623056.956,623077.2999999989,623073.667,658818.496,,,
End of Practice,html.Page,2_1_2,2022-02-21T12:29:22.780Z,,,,,,,,,,,,,,,,,,,,,,,,,,,,,,,3985.703999999212,,form submission,,,,,,,,,,,,,,,,,,,,,662812.6999999993,662804.1999999993,658801.785,658813.6999999993,658818.496,662812.425,,,
Practice,flow.Sequence,2_1,2022-02-21T12:29:22.781Z,,,,,,,,,,,,,,,,,,,,,,,,,,,,,,,77313.57199999923,,completion,,,,,,,,,,,,,,,,,,,,,662813.9000000004,662804.1999999993,585423.784,585455.0999999996,585490.628,662812.425,,,
Trap_instruction,html.Page,2_2_0,2022-02-21T12:29:26.318Z,,,,,,,,,,,,,,,,,,,,,,,,,,,,,,,3537.5749999999534,,form submission,,,,,,,,,,,,,,,,,,,,,666350.2999999989,666350,662779.003,662814.5,662812.425,666405.29,,,
trap_trial,html.Screen,2_2_1,2022-02-21T12:29:29.481Z,,,,,,,,,,,,,,,,,,,,,,,,,,,,true,1,,3099.509999998845,,response,,,,,,,,,,,1,click #choice-1,,,,,,,,,669513.5,669504.7999999989,666338.446,666350.4000000004,666405.29,669580.38,,,
end of trap trial,html.Page,2_2_2,2022-02-21T12:29:30.860Z,,,,,,,,,,,,,,,,,,,,,,,,,,,,,,,1311.6199999999953,,form submission,,,,,,,,,,,,,,,,,,,,,670892.6999999993,670892,669496.825,669513.9000000004,669580.38,670900.549,,,
Trap 1,flow.Sequence,2_2,2022-02-21T12:29:30.860Z,,,,,,,,,,,,,,,,,,,,,,,,,,,,,,,8079.574999999953,,completion,,,,,,,,,,,,,,,,,,,,,670892.9000000004,670892,662779.003,662813.9000000004,662812.425,670900.549,,,
Standby,html.Page,2_3_0,2022-02-21T12:29:38.881Z,,,,,,,,,,,,,,,,,,,,,,,,,,,,,,,8054.702000000048,,timeout,,,,,,,,,,,,,,,,,,,,,678913,678888.407,670883.838,670893.0999999996,670900.549,678955.251,,,
Holding screen,html.Screen,2_3_1_0_0,2022-02-21T12:29:45.935Z,,,,,,,,,,,,,,,,,,,,,,,,,,,,,,,7018.619999999995,,timeout,,,,,,,,,,,,,,,,,,,,,685966.6999999993,685940.449,678888.407,678914.1999999993,678955.251,685973.871,,,
screen,html.Screen,2_3_1_0_1_0,2022-02-21T12:29:50.551Z,,,,,,,,,,,,,,,,,2,,,,,,,,,,,,,,4555.228999999585,,response,,,,1,C,,,,,,Space,keypress(Space),,,,instrumental,,,,Two ---- ------ --- ------- ---------- ------- ----------<br>--- --------- --- ----------- ------- ----- ------- ---<br>--------- ---- -- --- ---- -- --------- -- ---- -------<br>-- --------- ------ --- ----- ------ ---- --- --------- --<br>------ - ---- -- --- ----------- ------- ---- ----- -----<br>--- -------- - ------ ---- -- ----- ---- --- --- -----------<br>-- -------,690583.0999999996,690529.0999999996,685940.449,685968.1999999993,685973.871,690586.107,,0,Two
screen,html.Screen,2_3_1_0_1_1,2022-02-21T12:29:50.841Z,,,,,,,,,,,,,,,,,2,,,,,,,,,,,,,,282.9929999996675,,response,,,,1,C,,,,,,Space,keypress(Space),,,,instrumental,,,,--- days ------ --- ------- ---------- ------- ----------<br>--- --------- --- ----------- ------- ----- ------- ---<br>--------- ---- -- --- ---- -- --------- -- ---- -------<br>-- --------- ------ --- ----- ------ ---- --- --------- --<br>------ - ---- -- --- ----------- ------- ---- ----- -----<br>--- -------- - ------ ---- -- ----- ---- --- --- -----------<br>-- -------,690872.5,690869.0999999996,690569.396,690583.2999999989,690586.107,690886.905,,1,days
screen,html.Screen,2_3_1_0_1_2,2022-02-21T12:29:51.165Z,,,,,,,,,,,,,,,,,2,,,,,,,,,,,,,,307.19499999959953,,response,,,,1,C,,,,,,Space,keypress(Space),,,,instrumental,,,,"--- ---- later, --- ------- ---------- ------- ----------<br>--- --------- --- ----------- ------- ----- ------- ---<br>--------- ---- -- --- ---- -- --------- -- ---- -------<br>-- --------- ------ --- ----- ------ ---- --- --------- --<br>------ - ---- -- --- ----------- ------- ---- ----- -----<br>--- -------- - ------ ---- -- ----- ---- --- --- -----------<br>-- -------",691197.4000000004,691194.0999999996,690870.194,690872.6999999993,690886.905,691204.414,,2,"later,"
screen,html.Screen,2_3_1_0_1_3,2022-02-21T12:29:51.567Z,,,,,,,,,,,,,,,,,2,,,,,,,,,,,,,,390.58600000001024,,response,,,,1,C,,,,,,Space,keypress(Space),,,,instrumental,,,,--- ---- ------ the ------- ---------- ------- ----------<br>--- --------- --- ----------- ------- ----- ------- ---<br>--------- ---- -- --- ---- -- --------- -- ---- -------<br>-- --------- ------ --- ----- ------ ---- --- --------- --<br>------ - ---- -- --- ----------- ------- ---- ----- -----<br>--- -------- - ------ ---- -- ----- ---- --- --- -----------<br>-- -------,691598.5999999996,691595,691187.703,691197.5999999996,691204.414,691605.478,,3,the
screen,html.Screen,2_3_1_0_1_4,2022-02-21T12:29:51.927Z,,,,,,,,,,,,,,,,,2,,,,,,,,,,,,,,349.5219999999972,,response,,,,1,C,,,,,,Space,keypress(Space),,,,instrumental,,,,--- ---- ------ --- British ---------- ------- ----------<br>--- --------- --- ----------- ------- ----- ------- ---<br>--------- ---- -- --- ---- -- --------- -- ---- -------<br>-- --------- ------ --- ----- ------ ---- --- --------- --<br>------ - ---- -- --- ----------- ------- ---- ----- -----<br>--- -------- - ------ ---- -- ----- ---- --- --- -----------<br>-- -------,691958.5,691955,691588.767,691598.5999999996,691605.478,691973.12,,4,British
screen,html.Screen,2_3_1_0_1_5,2022-02-21T12:29:52.358Z,,,,,,,,,,,,,,,,,2,,,,,,,,,,,,,,412.88000000000466,,response,,,,1,C,,,,,,Space,keypress(Space),,,,instrumental,,,,--- ---- ------ --- ------- astronomer ------- ----------<br>--- --------- --- ----------- ------- ----- ------- ---<br>--------- ---- -- --- ---- -- --------- -- ---- -------<br>-- --------- ------ --- ----- ------ ---- --- --------- --<br>------ - ---- -- --- ----------- ------- ---- ----- -----<br>--- -------- - ------ ---- -- ----- ---- --- --- -----------<br>-- -------,692389.5,692386,691956.409,691958.5999999996,691973.12,692390.895,,5,astronomer
screen,html.Screen,2_3_1_0_1_6,2022-02-21T12:29:52.813Z,,,,,,,,,,,,,,,,,2,,,,,,,,,,,,,,450.20499999960884,,response,,,,1,C,,,,,,Space,keypress(Space),,,,instrumental,,,,--- ---- ------ --- ------- ---------- Richard ----------<br>--- --------- --- ----------- ------- ----- ------- ---<br>--------- ---- -- --- ---- -- --------- -- ---- -------<br>-- --------- ------ --- ----- ------ ---- --- --------- --<br>------ - ---- -- --- ----------- ------- ---- ----- -----<br>--- -------- - ------ ---- -- ----- ---- --- --- -----------<br>-- -------,692844.4000000004,692841.0999999996,692374.184,692389.5999999996,692390.895,692858.803,,6,Richard
screen,html.Screen,2_3_1_0_1_7,2022-02-21T12:29:53.171Z,,,,,,,,,,,,,,,,,2,,,,,,,,,,,,,,341.0970000004163,,response,,,,1,C,,,,,,Space,keypress(Space),,,,instrumental,,,,--- ---- ------ --- ------- ---------- ------- Carrington<br>--- --------- --- ----------- ------- ----- ------- ---<br>--------- ---- -- --- ---- -- --------- -- ---- -------<br>-- --------- ------ --- ----- ------ ---- --- --------- --<br>------ - ---- -- --- ----------- ------- ---- ----- -----<br>--- -------- - ------ ---- -- ----- ---- --- --- -----------<br>-- -------,693203.1999999993,693199.9000000004,692842.092,692844.5999999996,692858.803,693209.734,,7,Carrington
screen,html.Screen,2_3_1_0_1_8,2022-02-21T12:29:53.521Z,,,,,,,,,,,,,,,,,2,,,,,,,,,,,,,,339.1660000003176,,response,,,,1,C,,,,,,Space,keypress(Space),,,,instrumental,,,,--- ---- ------ --- ------- ---------- ------- ----------<br>was --------- --- ----------- ------- ----- ------- ---<br>--------- ---- -- --- ---- -- --------- -- ---- -------<br>-- --------- ------ --- ----- ------ ---- --- --------- --<br>------ - ---- -- --- ----------- ------- ---- ----- -----<br>--- -------- - ------ ---- -- ----- ---- --- --- -----------<br>-- -------,693552.5,693548.9000000004,693193.023,693203.2999999989,693209.734,693560.665,,8,was
screen,html.Screen,2_3_1_0_1_9,2022-02-21T12:29:53.999Z,,,,,,,,,,,,,,,,,2,,,,,,,,,,,,,,393.0349999992177,,response,,,,1,C,,,,,,Space,keypress(Space),,,,instrumental,,,,--- ---- ------ --- ------- ---------- ------- ----------<br>--- observing --- ----------- ------- ----- ------- ---<br>--------- ---- -- --- ---- -- --------- -- ---- -------<br>-- --------- ------ --- ----- ------ ---- --- --------- --<br>------ - ---- -- --- ----------- ------- ---- ----- -----<br>--- -------- - ------ ---- -- ----- ---- --- --- -----------<br>-- -------,694030.4000000004,693953.6999999993,693543.954,693552.6999999993,693560.665,694112.128,,9,observing
screen,html.Screen,2_3_1_0_1_10,2022-02-21T12:29:54.548Z,,,,,,,,,,,,,,,,,2,,,,,,,,,,,,,,463.77200000034645,,response,,,,1,C,,,,,,Space,keypress(Space),,,,instrumental,,,,--- ---- ------ --- ------- ---------- ------- ----------<br>--- --------- the ----------- ------- ----- ------- ---<br>--------- ---- -- --- ---- -- --------- -- ---- -------<br>-- --------- ------ --- ----- ------ ---- --- --------- --<br>------ - ---- -- --- ----------- ------- ---- ----- -----<br>--- -------- - ------ ---- -- ----- ---- --- --- -----------<br>-- -------,694579.5,694575.9000000004,694028.573,694034.7999999989,694112.128,694596.747,,10,the
screen,html.Screen,2_3_1_0_1_11,2022-02-21T12:29:54.929Z,,,,,,,,,,,,,,,,,2,,,,,,,,,,,,,,360.1530000003986,,response,,,,1,C,,,,,,Space,keypress(Space),,,,instrumental,,,,--- ---- ------ --- ------- ---------- ------- ----------<br>--- --------- --- interesting ------- ----- ------- ---<br>--------- ---- -- --- ---- -- --------- -- ---- -------<br>-- --------- ------ --- ----- ------ ---- --- --------- --<br>------ - ---- -- --- ----------- ------- ---- ----- -----<br>--- -------- - ------ ---- -- ----- ---- --- --- -----------<br>-- -------,694960.5,694956.9000000004,694580.036,694579.5999999996,694596.747,694964.389,,11,interesting
screen,html.Screen,2_3_1_0_1_12,2022-02-21T12:29:55.289Z,,,,,,,,,,,,,,,,,2,,,,,,,,,,,,,,353.6110000000335,,response,,,,1,C,,,,,,Space,keypress(Space),,,,instrumental,,,,--- ---- ------ --- ------- ---------- ------- ----------<br>--- --------- --- ----------- sunspot ----- ------- ---<br>--------- ---- -- --- ---- -- --------- -- ---- -------<br>-- --------- ------ --- ----- ------ ---- --- --------- --<br>------ - ---- -- --- ----------- ------- ---- ----- -----<br>--- -------- - ------ ---- -- ----- ---- --- --- -----------<br>-- -------,695321.2999999989,695318,694947.678,694960.6999999993,694964.389,695332.031,,12,sunspot
screen,html.Screen,2_3_1_0_1_13,2022-02-21T12:29:55.652Z,,,,,,,,,,,,,,,,,2,,,,,,,,,,,,,,347.7689999989234,,response,,,,1,C,,,,,,Space,keypress(Space),,,,instrumental,,,,--- ---- ------ --- ------- ---------- ------- ----------<br>--- --------- --- ----------- ------- group ------- ---<br>--------- ---- -- --- ---- -- --------- -- ---- -------<br>-- --------- ------ --- ----- ------ ---- --- --------- --<br>------ - ---- -- --- ----------- ------- ---- ----- -----<br>--- -------- - ------ ---- -- ----- ---- --- --- -----------<br>-- -------,695683.2999999989,695679.7999999989,695315.32,695329.1999999993,695332.031,695699.673,,13,group
screen,html.Screen,2_3_1_0_1_14,2022-02-21T12:29:56.113Z,,,,,,,,,,,,,,,,,2,,,,,,,,,,,,,,441.02699999930337,,response,,,,1,C,,,,,,Space,keypress(Space),,,,instrumental,,,,--- ---- ------ --- ------- ---------- ------- ----------<br>--- --------- --- ----------- ------- ----- through ---<br>--------- ---- -- --- ---- -- --------- -- ---- -------<br>-- --------- ------ --- ----- ------ ---- --- --------- --<br>------ - ---- -- --- ----------- ------- ---- ----- -----<br>--- -------- - ------ ---- -- ----- ---- --- --- -----------<br>-- -------,696144.4000000004,696140.6999999993,695682.962,695683.4000000004,695699.673,696150.87,,14,through
screen,html.Screen,2_3_1_0_1_15,2022-02-21T12:29:56.420Z,,,,,,,,,,,,,,,,,2,,,,,,,,,,,,,,297.8299999992596,,response,,,,1,C,,,,,,Space,keypress(Space),,,,instrumental,,,,--- ---- ------ --- ------- ---------- ------- ----------<br>--- --------- --- ----------- ------- ----- ------- his<br>--------- ---- -- --- ---- -- --------- -- ---- -------<br>-- --------- ------ --- ----- ------ ---- --- --------- --<br>------ - ---- -- --- ----------- ------- ---- ----- -----<br>--- -------- - ------ ---- -- ----- ---- --- --- -----------<br>-- -------,696452.1999999993,696448.6999999993,696134.159,696144.5999999996,696150.87,696468.379,,15,his
screen,html.Screen,2_3_1_0_1_16,2022-02-21T12:29:56.711Z,,,,,,,,,,,,,,,,,2,,,,,,,,,,,,,,270.2209999996703,,response,,,,1,C,,,,,,Space,keypress(Space),,,,instrumental,,,,--- ---- ------ --- ------- ---------- ------- ----------<br>--- --------- --- ----------- ------- ----- ------- ---<br>telescope ---- -- --- ---- -- --------- -- ---- -------<br>-- --------- ------ --- ----- ------ ---- --- --------- --<br>------ - ---- -- --- ----------- ------- ---- ----- -----<br>--- -------- - ------ ---- -- ----- ---- --- --- -----------<br>-- -------,696742.2999999989,696738.5999999996,696451.668,696452.4000000004,696468.379,696752.466,,16,telescope
screen,html.Screen,2_3_1_0_1_17,2022-02-21T12:29:57.016Z,,,,,,,,,,,,,,,,,2,,,,,,,,,,,,,,291.3339999988675,,response,,,,1,C,,,,,,Space,keypress(Space),,,,instrumental,,,,--- ---- ------ --- ------- ---------- ------- ----------<br>--- --------- --- ----------- ------- ----- ------- ---<br>--------- when -- --- ---- -- --------- -- ---- -------<br>-- --------- ------ --- ----- ------ ---- --- --------- --<br>------ - ---- -- --- ----------- ------- ---- ----- -----<br>--- -------- - ------ ---- -- ----- ---- --- --- -----------<br>-- -------,697047.4000000004,697043.7999999989,696735.755,696742.5,696752.466,697053.264,,17,when
screen,html.Screen,2_3_1_0_1_18,2022-02-21T12:29:57.362Z,,,,,,,,,,,,,,,,,2,,,,,,,,,,,,,,337.53599999891594,,response,,,,1,C,,,,,,Space,keypress(Space),,,,instrumental,,,,--- ---- ------ --- ------- ---------- ------- ----------<br>--- --------- --- ----------- ------- ----- ------- ---<br>--------- ---- he --- ---- -- --------- -- ---- -------<br>-- --------- ------ --- ----- ------ ---- --- --------- --<br>------ - ---- -- --- ----------- ------- ---- ----- -----<br>--- -------- - ------ ---- -- ----- ---- --- --- -----------<br>-- -------,697394.1999999993,697390.7999999989,697036.553,697047.5999999996,697053.264,697404.195,,18,he
screen,html.Screen,2_3_1_0_1_19,2022-02-21T12:29:57.725Z,,,,,,,,,,,,,,,,,2,,,,,,,,,,,,,,349.60499999893364,,response,,,,1,C,,,,,,Space,keypress(Space),,,,instrumental,,,,--- ---- ------ --- ------- ---------- ------- ----------<br>--- --------- --- ----------- ------- ----- ------- ---<br>--------- ---- -- saw ---- -- --------- -- ---- -------<br>-- --------- ------ --- ----- ------ ---- --- --------- --<br>------ - ---- -- --- ----------- ------- ---- ----- -----<br>--- -------- - ------ ---- -- ----- ---- --- --- -----------<br>-- -------,697757.0999999996,697753.7999999989,697387.484,697394.2999999989,697404.195,697771.837,,19,saw
screen,html.Screen,2_3_1_0_1_20,2022-02-21T12:29:58.049Z,,,,,,,,,,,,,,,,,2,,,,,,,,,,,,,,305.8629999991972,,response,,,,1,C,,,,,,Space,keypress(Space),,,,instrumental,,,,--- ---- ------ --- ------- ---------- ------- ----------<br>--- --------- --- ----------- ------- ----- ------- ---<br>--------- ---- -- --- what -- --------- -- ---- -------<br>-- --------- ------ --- ----- ------ ---- --- --------- --<br>------ - ---- -- --- ----------- ------- ---- ----- -----<br>--- -------- - ------ ---- -- ----- ---- --- --- -----------<br>-- -------,698081.0999999996,698077.6999999993,697755.126,697757.2999999989,697771.837,698089.346,,20,what
screen,html.Screen,2_3_1_0_1_21,2022-02-21T12:29:58.353Z,,,,,,,,,,,,,,,,,2,,,,,,,,,,,,,,292.2539999996079,,response,,,,1,C,,,,,,Space,keypress(Space),,,,instrumental,,,,--- ---- ------ --- ------- ---------- ------- ----------<br>--- --------- --- ----------- ------- ----- ------- ---<br>--------- ---- -- --- ---- he --------- -- ---- -------<br>-- --------- ------ --- ----- ------ ---- --- --------- --<br>------ - ---- -- --- ----------- ------- ---- ----- -----<br>--- -------- - ------ ---- -- ----- ---- --- --- -----------<br>-- -------,698385.0999999996,698381.5999999996,698072.635,698081.2999999989,698089.346,698390.144,,21,he
screen,html.Screen,2_3_1_0_1_22,2022-02-21T12:29:58.713Z,,,,,,,,,,,,,,,,,2,,,,,,,,,,,,,,350.5559999992838,,response,,,,1,C,,,,,,Space,keypress(Space),,,,instrumental,,,,--- ---- ------ --- ------- ---------- ------- ----------<br>--- --------- --- ----------- ------- ----- ------- ---<br>--------- ---- -- --- ---- -- described -- ---- -------<br>-- --------- ------ --- ----- ------ ---- --- --------- --<br>------ - ---- -- --- ----------- ------- ---- ----- -----<br>--- -------- - ------ ---- -- ----- ---- --- --- -----------<br>-- -------,698744.2999999989,698740.6999999993,698373.433,698385.2999999989,698390.144,698757.786,,22,described
screen,html.Screen,2_3_1_0_1_23,2022-02-21T12:29:59.048Z,,,,,,,,,,,,,,,,,2,,,,,,,,,,,,,,317.8139999996638,,response,,,,1,C,,,,,,Space,keypress(Space),,,,instrumental,,,,--- ---- ------ --- ------- ---------- ------- ----------<br>--- --------- --- ----------- ------- ----- ------- ---<br>--------- ---- -- --- ---- -- --------- as ---- -------<br>-- --------- ------ --- ----- ------ ---- --- --------- --<br>------ - ---- -- --- ----------- ------- ---- ----- -----<br>--- -------- - ------ ---- -- ----- ---- --- --- -----------<br>-- -------,699079.1999999993,699075.5999999996,698741.075,698744.2999999989,698757.786,699092.006,,23,as
screen,html.Screen,2_3_1_0_1_24,2022-02-21T12:29:59.386Z,,,,,,,,,,,,,,,,,2,,,,,,,,,,,,,,323.3940000003204,,response,,,,1,C,,,,,,Space,keypress(Space),,,,instrumental,,,,"--- ---- ------ --- ------- ---------- ------- ----------<br>--- --------- --- ----------- ------- ----- ------- ---<br>--------- ---- -- --- ---- -- --------- -- ""two -------<br>-- --------- ------ --- ----- ------ ---- --- --------- --<br>------ - ---- -- --- ----------- ------- ---- ----- -----<br>--- -------- - ------ ---- -- ----- ---- --- --- -----------<br>-- -------",699417.7999999989,699415.4000000004,699075.295,699079.2999999989,699092.006,699426.226,,24,"""two"
screen,html.Screen,2_3_1_0_1_25,2022-02-21T12:29:59.737Z,,,,,,,,,,,,,,,,,2,,,,,,,,,,,,,,340.1740000003483,,response,,,,1,C,,,,,,Space,keypress(Space),,,,instrumental,,,,--- ---- ------ --- ------- ---------- ------- ----------<br>--- --------- --- ----------- ------- ----- ------- ---<br>--------- ---- -- --- ---- -- --------- -- ---- patches<br>-- --------- ------ --- ----- ------ ---- --- --------- --<br>------ - ---- -- --- ----------- ------- ---- ----- -----<br>--- -------- - ------ ---- -- ----- ---- --- --- -----------<br>-- -------,699769,699766.4000000004,699409.515,699417.9000000004,699426.226,699777.157,,25,patches
screen,html.Screen,2_3_1_0_1_26,2022-02-21T12:30:00.044Z,,,,,,,,,,,,,,,,,2,,,,,,,,,,,,,,295.44299999962095,,response,,,,1,C,,,,,,Space,keypress(Space),,,,instrumental,,,,--- ---- ------ --- ------- ---------- ------- ----------<br>--- --------- --- ----------- ------- ----- ------- ---<br>--------- ---- -- --- ---- -- --------- -- ---- -------<br>of --------- ------ --- ----- ------ ---- --- --------- --<br>------ - ---- -- --- ----------- ------- ---- ----- -----<br>--- -------- - ------ ---- -- ----- ---- --- --- -----------<br>-- -------,700076.1999999993,700072.5999999996,699760.446,699769.0999999996,699777.157,700077.955,,26,of
screen,html.Screen,2_3_1_0_1_27,2022-02-21T12:30:00.311Z,,,,,,,,,,,,,,,,,2,,,,,,,,,,,,,,261.6449999996694,,response,,,,1,C,,,,,,Space,keypress(Space),,,,instrumental,,,,--- ---- ------ --- ------- ---------- ------- ----------<br>--- --------- --- ----------- ------- ----- ------- ---<br>--------- ---- -- --- ---- -- --------- -- ---- -------<br>-- intensely ------ --- ----- ------ ---- --- --------- --<br>------ - ---- -- --- ----------- ------- ---- ----- -----<br>--- -------- - ------ ---- -- ----- ---- --- --- -----------<br>-- -------,700343.0999999996,700339.5999999996,700061.244,700076.2999999989,700077.955,700345.331,,27,intensely
screen,html.Screen,2_3_1_0_1_28,2022-02-21T12:30:00.615Z,,,,,,,,,,,,,,,,,2,,,,,,,,,,,,,,273.1689999999944,,response,,,,1,C,,,,,,Space,keypress(Space),,,,instrumental,,,,--- ---- ------ --- ------- ---------- ------- ----------<br>--- --------- --- ----------- ------- ----- ------- ---<br>--------- ---- -- --- ---- -- --------- -- ---- -------<br>-- --------- bright --- ----- ------ ---- --- --------- --<br>------ - ---- -- --- ----------- ------- ---- ----- -----<br>--- -------- - ------ ---- -- ----- ---- --- --- -----------<br>-- -------,700646.6999999993,700618.5,700328.62,700343.1999999993,700345.331,700662.84,,28,bright
screen,html.Screen,2_3_1_0_1_29,2022-02-21T12:30:00.903Z,,,,,,,,,,,,,,,,,2,,,,,,,,,,,,,,268.6600000000326,,response,,,,1,C,,,,,,Space,keypress(Space),,,,instrumental,,,,--- ---- ------ --- ------- ---------- ------- ----------<br>--- --------- --- ----------- ------- ----- ------- ---<br>--------- ---- -- --- ---- -- --------- -- ---- -------<br>-- --------- ------ and ----- ------ ---- --- --------- --<br>------ - ---- -- --- ----------- ------- ---- ----- -----<br>--- -------- - ------ ---- -- ----- ---- --- --- -----------<br>-- -------,700934.7999999989,700931.5,700646.129,700646.7999999989,700662.84,700946.927,,29,and
screen,html.Screen,2_3_1_0_1_30,2022-02-21T12:30:01.182Z,,,,,,,,,,,,,,,,,2,,,,,,,,,,,,,,263.57299999997485,,response,,,,1,C,,,,,,Space,keypress(Space),,,,instrumental,,,,--- ---- ------ --- ------- ---------- ------- ----------<br>--- --------- --- ----------- ------- ----- ------- ---<br>--------- ---- -- --- ---- -- --------- -- ---- -------<br>-- --------- ------ --- white ------ ---- --- --------- --<br>------ - ---- -- --- ----------- ------- ---- ----- -----<br>--- -------- - ------ ---- -- ----- ---- --- --- -----------<br>-- -------,701213.6999999993,701210.5,700930.216,700935,700946.927,701231.014,,30,white
screen,html.Screen,2_3_1_0_1_31,2022-02-21T12:30:01.486Z,,,,,,,,,,,,,,,,,2,,,,,,,,,,,,,,282.585999999661,,response,,,,1,C,,,,,,Space,keypress(Space),,,,instrumental,,,,"--- ---- ------ --- ------- ---------- ------- ----------<br>--- --------- --- ----------- ------- ----- ------- ---<br>--------- ---- -- --- ---- -- --------- -- ---- -------<br>-- --------- ------ --- ----- light"" ---- --- --------- --<br>------ - ---- -- --- ----------- ------- ---- ----- -----<br>--- -------- - ------ ---- -- ----- ---- --- --- -----------<br>-- -------",701517.5999999996,701513.5999999996,701214.303,701213.7999999989,701231.014,701531.812,,31,"light"""
screen,html.Screen,2_3_1_0_1_32,2022-02-21T12:30:01.954Z,,,,,,,,,,,,,,,,,2,,,,,,,,,,,,,,450.68799999996554,,response,,,,1,C,,,,,,Space,keypress(Space),,,,instrumental,,,,--- ---- ------ --- ------- ---------- ------- ----------<br>--- --------- --- ----------- ------- ----- ------- ---<br>--------- ---- -- --- ---- -- --------- -- ---- -------<br>-- --------- ------ --- ----- ------ over --- --------- --<br>------ - ---- -- --- ----------- ------- ---- ----- -----<br>--- -------- - ------ ---- -- ----- ---- --- --- -----------<br>-- -------,701985.9000000004,701982.5,701515.101,701517.7999999989,701531.812,701999.72,,32,over
screen,html.Screen,2_3_1_0_1_33,2022-02-21T12:30:02.237Z,,,,,,,,,,,,,,,,,2,,,,,,,,,,,,,,265.78000000002794,,response,,,,1,C,,,,,,Space,keypress(Space),,,,instrumental,,,,--- ---- ------ --- ------- ---------- ------- ----------<br>--- --------- --- ----------- ------- ----- ------- ---<br>--------- ---- -- --- ---- -- --------- -- ---- -------<br>-- --------- ------ --- ----- ------ ---- the --------- --<br>------ - ---- -- --- ----------- ------- ---- ----- -----<br>--- -------- - ------ ---- -- ----- ---- --- --- -----------<br>-- -------,702268.7999999989,702265.5,701983.009,701986.5999999996,701999.72,702283.807,,33,the
screen,html.Screen,2_3_1_0_1_34,2022-02-21T12:30:02.731Z,,,,,,,,,,,,,,,,,2,,,,,,,,,,,,,,237.39299999922514,,response,,,,1,C,,,,,,Space,keypress(Space),,,,instrumental,,,,--- ---- ------ --- ------- ---------- ------- ----------<br>--- --------- --- ----------- ------- ----- ------- ---<br>--------- ---- -- --- ---- -- --------- -- ---- -------<br>-- --------- ------ --- ----- ------ ---- --- sunspots. --<br>------ - ---- -- --- ----------- ------- ---- ----- -----<br>--- -------- - ------ ---- -- ----- ---- --- --- -----------<br>-- -------,702761.5,702521.1999999993,702267.096,702276.7999999989,702283.807,702868.692,,34,sunspots.
screen,html.Screen,2_3_1_0_1_35,2022-02-21T12:30:03.372Z,,,,,,,,,,,,,,,,,2,,,,,,,,,,,,,,531.6079999988433,,response,,,,1,C,,,,,,Space,keypress(Space),,,,instrumental,,,,--- ---- ------ --- ------- ---------- ------- ----------<br>--- --------- --- ----------- ------- ----- ------- ---<br>--------- ---- -- --- ---- -- --------- -- ---- -------<br>-- --------- ------ --- ----- ------ ---- --- --------- He<br>------ - ---- -- --- ----------- ------- ---- ----- -----<br>--- -------- - ------ ---- -- ----- ---- --- --- -----------<br>-- -------,703404,703400.2999999989,702785.137,702766.2999999989,702868.692,703420.155,,35,He
screen,html.Screen,2_3_1_0_1_36,2022-02-21T12:30:03.643Z,,,,,,,,,,,,,,,,,2,,,,,,,,,,,,,,251.044999999227,,response,,,,1,C,,,,,,Space,keypress(Space),,,,instrumental,,,,--- ---- ------ --- ------- ---------- ------- ----------<br>--- --------- --- ----------- ------- ----- ------- ---<br>--------- ---- -- --- ---- -- --------- -- ---- -------<br>-- --------- ------ --- ----- ------ ---- --- --------- --<br>jotted - ---- -- --- ----------- ------- ---- ----- -----<br>--- -------- - ------ ---- -- ----- ---- --- --- -----------<br>-- -------,703674.7999999989,703671.1999999993,703403.444,703404.1999999993,703420.155,703687.531,,36,jotted
screen,html.Screen,2_3_1_0_1_37,2022-02-21T12:30:03.914Z,,,,,,,,,,,,,,,,,2,,,,,,,,,,,,,,254.8690000004135,,response,,,,1,C,,,,,,Space,keypress(Space),,,,instrumental,,,,--- ---- ------ --- ------- ---------- ------- ----------<br>--- --------- --- ----------- ------- ----- ------- ---<br>--------- ---- -- --- ---- -- --------- -- ---- -------<br>-- --------- ------ --- ----- ------ ---- --- --------- --<br>------ a ---- -- --- ----------- ------- ---- ----- -----<br>--- -------- - ------ ---- -- ----- ---- --- --- -----------<br>-- -------,703945.6999999993,703942.4000000004,703670.82,703674.9000000004,703687.531,703954.907,,37,a
screen,html.Screen,2_3_1_0_1_38,2022-02-21T12:30:04.380Z,,,,,,,,,,,,,,,,,2,,,,,,,,,,,,,,453.493000000366,,response,,,,1,C,,,,,,Space,keypress(Space),,,,instrumental,,,,--- ---- ------ --- ------- ---------- ------- ----------<br>--- --------- --- ----------- ------- ----- ------- ---<br>--------- ---- -- --- ---- -- --------- -- ---- -------<br>-- --------- ------ --- ----- ------ ---- --- --------- --<br>------ - note -- --- ----------- ------- ---- ----- -----<br>--- -------- - ------ ---- -- ----- ---- --- --- -----------<br>-- -------,704411.7999999989,704408.4000000004,703938.196,703945.9000000004,703954.907,704422.815,,38,note
