sender,sender_type,sender_id,timestamp,meta,,Blues,Classical,Country,Dance,Electronic,Folk,Gospel,Hip-Hop,Jazz,Latin,Musical/Film,New-age,Pop,Prolific_id,Provo_ID,R&B,Rap,Reggae,Religious,Rock,Soul,Swing,Traditional,age,artist_name,correct,correctResponse,distraction,duration,education,ended_on,familiarity,gender,headphone_check_performance,item,list,music_frequency,offensiveness,pleasantness,position_correct,preference,response,response_action,snippet_file,song_name,song_rating,sound,stimulus_1,stimulus_2,stimulus_3,text,time_commit,time_end,time_render,time_run,time_show,time_switch,url,word,word_ID
Prolific ID,html.Form,0,2022-02-15T12:56:35.979Z,"{""labjs_version"":""20.2.2"",""labjs_build"":{""flavor"":""production"",""commit"":""a25486e0c714a0ae2ce03ff94b7bb6896854dcfa""},""location"":""https://run.pavlovia.org/mvasilev/prolific2_music_e/"",""userAgent"":""Mozilla/5.0 (Windows NT 10.0; Win64; x64; rv:96.0) Gecko/20100101 Firefox/96.0"",""platform"":""Win32"",""language"":""en-GB"",""locale"":""en-GB"",""timeZone"":""Europe/London"",""timezoneOffset"":0,""screen_width"":1920,""screen_height"":1080,""scroll_width"":1920,""scroll_height"":851,""window_innerWidth"":1920,""window_innerHeight"":899,""devicePixelRatio"":1}",,,,,,,,,,,,,,,5ce7c46d79642d0017767d94,,,,,,,,,,,,,,,3035.76,,form submission,,,,,,,,,,,,,,,,,,,,,12309,12309,9256.56,9247,9273.24,12306.56,{},,
Introduction,html.Screen,1_0,2022-02-15T12:56:44.010Z,,,,,,,,,,,,,,,,,,,,,,,,,,,,,,,8001.4400000000005,,response,,,,,,,,,,,continue,click button,,,,,,,,,20340,20308,12306.28,12311,12306.56,20339.88,,,
Volume calibration,html.Screen,1_1,2022-02-15T12:56:55.282Z,,,,,,,,,,,,,,,,,,,,,,,,,,,,,,,11263.119999999999,,response,,,,,,,,,,,continue,click button,,,,,,,,,31613,31603,20338.8,20341,20339.88,31623.22,,,
Task instructions,html.Screen,1_2,2022-02-15T12:57:10.756Z,,,,,,,,,,,,,,,,,,,,,,,,,,,,,,,15448.779999999999,,response,,,,,,,,,,,continue,click button,,,,,,,,,47087,47072,31612.3,31613,31623.22,47089.88,,,
Sounds,html.Screen,1_3_0_0,2022-02-15T12:57:14.995Z,,,,,,,,,,,,,,,,,,,,,,,,,,,,,,,4250,,timeout,,,,,,,,,2,,,,,,,,O,S,I,,51325,51323.22,47085.84,47087,47089.88,51339.88,,,
Judgement,html.Screen,1_3_0_1,2022-02-15T12:57:16.472Z,,,,,,,,,,,,,,,,,,,,,,,,,,,,true,2,,1451.1200000000026,,response,,,,,,,,,2,,2,click #choice-2,,,,,O,S,I,,52803,52791,51323.22,51326,51339.88,52806.56,,,
Trial,flow.Sequence,1_3_0,2022-02-15T12:57:16.472Z,,,,,,,,,,,,,,,,,,,,,,,,,,,,,,,5701.120000000003,,completion,,,,,,,,,2,,,,,,,,O,S,I,,52803,52791,47085.84,47087,47089.88,52806.56,,,
Sounds,html.Screen,1_3_1_0,2022-02-15T12:57:20.710Z,,,,,,,,,,,,,,,,,,,,,,,,,,,,,,,4250,,timeout,,,,,,,,,3,,,,,,,,O,I,S,,57041,57039.88,52802.08,52803,52806.56,57056.56,,,
Judgement,html.Screen,1_3_1_1,2022-02-15T12:57:21.204Z,,,,,,,,,,,,,,,,,,,,,,,,,,,,true,3,,468.4400000000023,,response,,,,,,,,,3,,3,click #choice-3,,,,,O,I,S,,57535,57525,57039.88,57041,57056.56,57539.88,,,
Trial,flow.Sequence,1_3_1,2022-02-15T12:57:21.204Z,,,,,,,,,,,,,,,,,,,,,,,,,,,,,,,4718.440000000002,,completion,,,,,,,,,3,,,,,,,,O,I,S,,57535,57525,52802.08,52803,52806.56,57539.88,,,
Sounds,html.Screen,1_3_2_0,2022-02-15T12:57:25.445Z,,,,,,,,,,,,,,,,,,,,,,,,,,,,,,,4250,,timeout,,,,,,,,,1,,,,,,,,S,I,O,,61775,61773.22,57533.98,57536,57539.88,61789.88,,,
Judgement,html.Screen,1_3_2_1,2022-02-15T12:57:26.508Z,,,,,,,,,,,,,,,,,,,,,,,,,,,,true,1,,1032.1200000000026,,response,,,,,,,,,1,,1,click #choice-1,,,,,S,I,O,,62838,62822,61773.22,61775,61789.88,62839.88,,,
Trial,flow.Sequence,1_3_2,2022-02-15T12:57:26.508Z,,,,,,,,,,,,,,,,,,,,,,,,,,,,,,,5282.120000000003,,completion,,,,,,,,,1,,,,,,,,S,I,O,,62838,62822,57533.98,57535,57539.88,62839.88,,,
Sounds,html.Screen,1_3_3_0,2022-02-15T12:57:30.743Z,,,,,,,,,,,,,,,,,,,,,,,,,,,,,,,4250.000000000007,,timeout,,,,,,,,,2,,,,,,,,I,S,O,,67074,67073.22,62837.96,62839,62839.88,67089.88,,,
Judgement,html.Screen,1_3_3_1,2022-02-15T12:57:31.587Z,,,,,,,,,,,,,,,,,,,,,,,,,,,,true,2,,827.1199999999953,,response,,,,,,,,,2,,2,click #choice-2,,,,,I,S,O,,67919,67917,67073.22,67074,67089.88,67923.22,,,
Trial,flow.Sequence,1_3_3,2022-02-15T12:57:31.588Z,,,,,,,,,,,,,,,,,,,,,,,,,,,,,,,5077.120000000003,,completion,,,,,,,,,2,,,,,,,,I,S,O,,67919,67917,62837.96,62839,62839.88,67923.22,,,
Sounds,html.Screen,1_3_4_0,2022-02-15T12:57:35.827Z,,,,,,,,,,,,,,,,,,,,,,,,,,,,,,,4250,,timeout,,,,,,,,,1,,,,,,,,S,O,I,,72157,72156.56,67918.06,67919,67923.22,72173.22,,,
Judgement,html.Screen,1_3_4_1,2022-02-15T12:57:36.304Z,,,,,,,,,,,,,,,,,,,,,,,,,,,,true,1,,446.77999999999884,,response,,,,,,,,,1,,1,click #choice-1,,,,,S,O,I,,72634,72620,72156.56,72157,72173.22,72639.88,,,
Trial,flow.Sequence,1_3_4,2022-02-15T12:57:36.304Z,,,,,,,,,,,,,,,,,,,,,,,,,,,,,,,4696.779999999999,,completion,,,,,,,,,1,,,,,,,,S,O,I,,72635,72620,67918.06,67919,67923.22,72639.88,,,
Sounds,html.Screen,1_3_5_0,2022-02-15T12:57:40.545Z,,,,,,,,,,,,,,,,,,,,,,,,,,,,,,,4250,,timeout,,,,,,,,,3,,,,,,,,I,O,S,,76875,76873.22,72634.14,72635,72639.88,76889.88,,,
Judgement,html.Screen,1_3_5_1,2022-02-15T12:57:41.006Z,,,,,,,,,,,,,,,,,,,,,,,,,,,,true,3,,432.11999999999534,,response,,,,,,,,,3,,3,click #choice-3,,,,,I,O,S,,77337,77322,76873.22,76876,76889.88,77339.88,,,
Trial,flow.Sequence,1_3_5,2022-02-15T12:57:41.007Z,,,,,,,,,,,,,,,,,,,,,,,,,,,,,,,4682.119999999995,,completion,,,,,,,,,3,,,,,,,,I,O,S,,77338,77322,72634.14,72635,72639.88,77339.88,,,
Task,flow.Loop,1_3,2022-02-15T12:57:41.007Z,,,,,,,,,,,,,,,,,,,,,,,,,,,,,,,30232.120000000003,,completion,,,1,,,,,,,,,,,,,,,,,,77338,77322,47085.84,47087,47089.88,77339.88,,,
Trap,html.Screen,1_4,2022-02-15T12:57:41.010Z,,,,,,,,,,,,,,,,,,,,,,,,,,,,,,,NaN,,skipped,,,,,,,,,,,,,,,,,,,,,77341,77322,,77341,,77339.88,,,
Thanks,html.Screen,1_5,2022-02-15T12:57:46.896Z,,,,,,,,,,,,,,,,,,,,,,,,,,,,,,,5873.119999999995,,response,,,,,,,,,,,continue,click button,,,,,,,,,83227,83213,77339.88,77341,77339.88,1019806.62,,,
Headphone screening,flow.Sequence,1,2022-02-15T12:57:46.896Z,,,,,,,,,,,,,,,,,,,,,,,,,,,,,,,70906.44,,completion,,,,,,,,,,,,,,,,,,,,,83227,83213,12306.28,12311,12306.56,1019806.62,,,
Instructions,html.Page,2_0,2022-02-15T13:13:49.579Z,,,,,,,,,,,,,,,,,,,,,,,,,,,,,,,26102.380000000005,,form submission,,,,,,,,,,,,,,,,,,,,,1045910,1045909,1019800.96,1019802,1019806.62,1045906.6,,,
Holding screen,html.Screen,2_1_0_0,2022-02-15T13:13:59.560Z,,,,,,,,,,,,,,,,,,,,,,,,,,,,,,,10000.000000000116,,timeout,,,,,,,,,,,,,,,,,,,,,1055892,1055889.92,1045905.84,1045910,1045906.6,1055906.6,,,
screen,html.Screen,2_1_0_1_0,2022-02-15T13:14:00.578Z,,,,,,,,,,,,,,,,,53,,,,,,,,,,,,,,995.3999999999069,,response,,,,99,,,,,,,Space,keypress(Space),,,,,,,,When -- ----- -- ------ - ------- --- ----------<br>------------- ------ ------ ---- ---- ------- ----- -- ----<br>-------- ------- -- ---------- --- - --- ----- ----- ----<br>---- --- --- ----- --- ---- ---- ------- ----- ---- -------<br>--- --- -- ----- -- --- ---- -- --- ---- -- ------ ------<br>--- ----- -- ----,1056908,1056902,1055889.92,1055892,1055906.6,1056923.26,,0,When
screen,html.Screen,2_1_0_1_1,2022-02-15T13:14:00.964Z,,,,,,,,,,,,,,,,,53,,,,,,,,,,,,,,352.7399999999907,,response,,,,99,,,,,,,Space,keypress(Space),,,,,,,,---- it ----- -- ------ - ------- --- ----------<br>------------- ------ ------ ---- ---- ------- ----- -- ----<br>-------- ------- -- ---------- --- - --- ----- ----- ----<br>---- --- --- ----- --- ---- ---- ------- ----- ---- -------<br>--- --- -- ----- -- --- ---- -- --- ---- -- ------ ------<br>--- ----- -- ----,1057294,1057276,1056906.6,1056909,1056923.26,1057306.58,,1,it
screen,html.Screen,2_1_0_1_2,2022-02-15T13:14:01.389Z,,,,,,,,,,,,,,,,,53,,,,,,,,,,,,,,407.4199999999255,,response,,,,99,,,,,,,Space,keypress(Space),,,,,,,,---- -- comes -- ------ - ------- --- ----------<br>------------- ------ ------ ---- ---- ------- ----- -- ----<br>-------- ------- -- ---------- --- - --- ----- ----- ----<br>---- --- --- ----- --- ---- ---- ------- ----- ---- -------<br>--- --- -- ----- -- --- ---- -- --- ---- -- ------ ------<br>--- ----- -- ----,1057719,1057714,1057294.78,1057294,1057306.58,1057723.24,,2,comes
screen,html.Screen,2_1_0_1_3,2022-02-15T13:14:01.794Z,,,,,,,,,,,,,,,,,53,,,,,,,,,,,,,,396.7600000000093,,response,,,,99,,,,,,,Space,keypress(Space),,,,,,,,---- -- ----- to ------ - ------- --- ----------<br>------------- ------ ------ ---- ---- ------- ----- -- ----<br>-------- ------- -- ---------- --- - --- ----- ----- ----<br>---- --- --- ----- --- ---- ---- ------- ----- ---- -------<br>--- --- -- ----- -- --- ---- -- --- ---- -- ------ ------<br>--- ----- -- ----,1058124,1058120,1057719.26,1057719,1057723.24,1058139.92,,3,to
screen,html.Screen,2_1_0_1_4,2022-02-15T13:14:02.195Z,,,,,,,,,,,,,,,,,53,,,,,,,,,,,,,,372.0800000000745,,response,,,,99,,,,,,,Space,keypress(Space),,,,,,,,---- -- ----- -- having - ------- --- ----------<br>------------- ------ ------ ---- ---- ------- ----- -- ----<br>-------- ------- -- ---------- --- - --- ----- ----- ----<br>---- --- --- ----- --- ---- ---- ------- ----- ---- -------<br>--- --- -- ----- -- --- ---- -- --- ---- -- ------ ------<br>--- ----- -- ----,1058524,1058512,1058124.78,1058125,1058139.92,1058539.92,,4,having
screen,html.Screen,2_1_0_1_5,2022-02-15T13:14:02.564Z,,,,,,,,,,,,,,,,,53,,,,,,,,,,,,,,346.0800000000745,,response,,,,99,,,,,,,Space,keypress(Space),,,,,,,,---- -- ----- -- ------ a ------- --- ----------<br>------------- ------ ------ ---- ---- ------- ----- -- ----<br>-------- ------- -- ---------- --- - --- ----- ----- ----<br>---- --- --- ----- --- ---- ---- ------- ----- ---- -------<br>--- --- -- ----- -- --- ---- -- --- ---- -- ------ ------<br>--- ----- -- ----,1058895,1058886,1058525.06,1058525,1058539.92,1058906.58,,5,a
screen,html.Screen,2_1_0_1_6,2022-02-15T13:14:03.148Z,,,,,,,,,,,,,,,,,53,,,,,,,,,,,,,,557.4199999999255,,response,,,,99,,,,,,,Space,keypress(Space),,,,,,,,---- -- ----- -- ------ - lasting --- ----------<br>------------- ------ ------ ---- ---- ------- ----- -- ----<br>-------- ------- -- ---------- --- - --- ----- ----- ----<br>---- --- --- ----- --- ---- ---- ------- ----- ---- -------<br>--- --- -- ----- -- --- ---- -- --- ---- -- ------ ------<br>--- ----- -- ----,1059479,1059464,1058894.6,1058895,1058906.58,1059489.92,,6,lasting
screen,html.Screen,2_1_0_1_7,2022-02-15T13:14:03.369Z,,,,,,,,,,,,,,,,,53,,,,,,,,,,,,,,208.0800000000745,,response,,,,99,,,,,,,Space,keypress(Space),,,,,,,,---- -- ----- -- ------ - ------- and ----------<br>------------- ------ ------ ---- ---- ------- ----- -- ----<br>-------- ------- -- ---------- --- - --- ----- ----- ----<br>---- --- --- ----- --- ---- ---- ------- ----- ---- -------<br>--- --- -- ----- -- --- ---- -- --- ---- -- ------ ------<br>--- ----- -- ----,1059700,1059698,1059479.06,1059479,1059489.92,1059706.58,,7,and
screen,html.Screen,2_1_0_1_8,2022-02-15T13:14:03.778Z,,,,,,,,,,,,,,,,,53,,,,,,,,,,,,,,397.4199999999255,,response,,,,99,,,,,,,Space,keypress(Space),,,,,,,,---- -- ----- -- ------ - ------- --- fulfilling<br>------------- ------ ------ ---- ---- ------- ----- -- ----<br>-------- ------- -- ---------- --- - --- ----- ----- ----<br>---- --- --- ----- --- ---- ---- ------- ----- ---- -------<br>--- --- -- ----- -- --- ---- -- --- ---- -- ------ ------<br>--- ----- -- ----,1060108,1060104,1059700.46,1059700,1059706.58,1060123.24,,8,fulfilling
screen,html.Screen,2_1_0_1_9,2022-02-15T13:14:04.122Z,,,,,,,,,,,,,,,,,53,,,,,,,,,,,,,,324.7600000000093,,response,,,,99,,,,,,,Space,keypress(Space),,,,,,,,"---- -- ----- -- ------ - ------- --- ----------<br>relationship, ------ ------ ---- ---- ------- ----- -- ----<br>-------- ------- -- ---------- --- - --- ----- ----- ----<br>---- --- --- ----- --- ---- ---- ------- ----- ---- -------<br>--- --- -- ----- -- --- ---- -- --- ---- -- ------ ------<br>--- ----- -- ----",1060452,1060448,1060108.5,1060108,1060123.24,1060456.58,,9,"relationship,"
screen,html.Screen,2_1_0_1_10,2022-02-15T13:14:04.322Z,,,,,,,,,,,,,,,,,53,,,,,,,,,,,,,,179.4199999999255,,response,,,,99,,,,,,,Space,keypress(Space),,,,,,,,---- -- ----- -- ------ - ------- --- ----------<br>------------- common ------ ---- ---- ------- ----- -- ----<br>-------- ------- -- ---------- --- - --- ----- ----- ----<br>---- --- --- ----- --- ---- ---- ------- ----- ---- -------<br>--- --- -- ----- -- --- ---- -- --- ---- -- ------ ------<br>--- ----- -- ----,1060653,1060636,1060452.44,1060452,1060456.58,1060656.58,,10,common
screen,html.Screen,2_1_0_1_11,2022-02-15T13:14:04.810Z,,,,,,,,,,,,,,,,,53,,,,,,,,,,,,,,479.4199999999255,,response,,,,99,,,,,,,Space,keypress(Space),,,,,,,,---- -- ----- -- ------ - ------- --- ----------<br>------------- ------ wisdom ---- ---- ------- ----- -- ----<br>-------- ------- -- ---------- --- - --- ----- ----- ----<br>---- --- --- ----- --- ---- ---- ------- ----- ---- -------<br>--- --- -- ----- -- --- ---- -- --- ---- -- ------ ------<br>--- ----- -- ----,1061140,1061136,1060652.7,1060653,1060656.58,1061156.58,,11,wisdom
screen,html.Screen,2_1_0_1_12,2022-02-15T13:14:04.994Z,,,,,,,,,,,,,,,,,53,,,,,,,,,,,,,,151.4199999999255,,response,,,,99,,,,,,,Space,keypress(Space),,,,,,,,---- -- ----- -- ------ - ------- --- ----------<br>------------- ------ ------ says ---- ------- ----- -- ----<br>-------- ------- -- ---------- --- - --- ----- ----- ----<br>---- --- --- ----- --- ---- ---- ------- ----- ---- -------<br>--- --- -- ----- -- --- ---- -- --- ---- -- ------ ------<br>--- ----- -- ----,1061324,1061308,1061140.58,1061140,1061156.58,1061339.92,,12,says
screen,html.Screen,2_1_0_1_13,2022-02-15T13:14:05.306Z,,,,,,,,,,,,,,,,,53,,,,,,,,,,,,,,296.0800000000745,,response,,,,99,,,,,,,Space,keypress(Space),,,,,,,,---- -- ----- -- ------ - ------- --- ----------<br>------------- ------ ------ ---- that ------- ----- -- ----<br>-------- ------- -- ---------- --- - --- ----- ----- ----<br>---- --- --- ----- --- ---- ---- ------- ----- ---- -------<br>--- --- -- ----- -- --- ---- -- --- ---- -- ------ ------<br>--- ----- -- ----,1061637,1061636,1061324.7,1061324,1061339.92,1061639.92,,13,that
screen,html.Screen,2_1_0_1_14,2022-02-15T13:14:05.554Z,,,,,,,,,,,,,,,,,53,,,,,,,,,,,,,,229.0800000000745,,response,,,,99,,,,,,,Space,keypress(Space),,,,,,,,---- -- ----- -- ------ - ------- --- ----------<br>------------- ------ ------ ---- ---- feeling ----- -- ----<br>-------- ------- -- ---------- --- - --- ----- ----- ----<br>---- --- --- ----- --- ---- ---- ------- ----- ---- -------<br>--- --- -- ----- -- --- ---- -- --- ---- -- ------ ------<br>--- ----- -- ----,1061884,1061869,1061636.7,1061637,1061639.92,1061889.92,,14,feeling
screen,html.Screen,2_1_0_1_15,2022-02-15T13:14:06.162Z,,,,,,,,,,,,,,,,,53,,,,,,,,,,,,,,588.0800000000745,,response,,,,99,,,,,,,Space,keypress(Space),,,,,,,,---- -- ----- -- ------ - ------- --- ----------<br>------------- ------ ------ ---- ---- ------- close -- ----<br>-------- ------- -- ---------- --- - --- ----- ----- ----<br>---- --- --- ----- --- ---- ---- ------- ----- ---- -------<br>--- --- -- ----- -- --- ---- -- --- ---- -- ------ ------<br>--- ----- -- ----,1062493,1062478,1061884.5,1061884,1061889.92,1062506.58,,15,close
screen,html.Screen,2_1_0_1_16,2022-02-15T13:14:06.387Z,,,,,,,,,,,,,,,,,53,,,,,,,,,,,,,,207.4199999999255,,response,,,,99,,,,,,,Space,keypress(Space),,,,,,,,---- -- ----- -- ------ - ------- --- ----------<br>------------- ------ ------ ---- ---- ------- ----- to ----<br>-------- ------- -- ---------- --- - --- ----- ----- ----<br>---- --- --- ----- --- ---- ---- ------- ----- ---- -------<br>--- --- -- ----- -- --- ---- -- --- ---- -- ------ ------<br>--- ----- -- ----,1062717,1062714,1062492.74,1062493,1062506.58,1062723.24,,16,to
screen,html.Screen,2_1_0_1_17,2022-02-15T13:14:06.820Z,,,,,,,,,,,,,,,,,53,,,,,,,,,,,,,,411.7600000000093,,response,,,,99,,,,,,,Space,keypress(Space),,,,,,,,---- -- ----- -- ------ - ------- --- ----------<br>------------- ------ ------ ---- ---- ------- ----- -- your<br>-------- ------- -- ---------- --- - --- ----- ----- ----<br>---- --- --- ----- --- ---- ---- ------- ----- ---- -------<br>--- --- -- ----- -- --- ---- -- --- ---- -- ------ ------<br>--- ----- -- ----,1063149,1063135,1062717.7,1062718,1062723.24,1063156.58,,17,your
screen,html.Screen,2_1_0_1_18,2022-02-15T13:14:07.129Z,,,,,,,,,,,,,,,,,53,,,,,,,,,,,,,,291.4199999999255,,response,,,,99,,,,,,,Space,keypress(Space),,,,,,,,---- -- ----- -- ------ - ------- --- ----------<br>------------- ------ ------ ---- ---- ------- ----- -- ----<br>romantic ------- -- ---------- --- - --- ----- ----- ----<br>---- --- --- ----- --- ---- ---- ------- ----- ---- -------<br>--- --- -- ----- -- --- ---- -- --- ---- -- ------ ------<br>--- ----- -- ----,1063461,1063448,1063150.24,1063150,1063156.58,1063473.24,,18,romantic
screen,html.Screen,2_1_0_1_19,2022-02-15T13:14:07.474Z,,,,,,,,,,,,,,,,,53,,,,,,,,,,,,,,318.7600000000093,,response,,,,99,,,,,,,Space,keypress(Space),,,,,,,,---- -- ----- -- ------ - ------- --- ----------<br>------------- ------ ------ ---- ---- ------- ----- -- ----<br>-------- partner -- ---------- --- - --- ----- ----- ----<br>---- --- --- ----- --- ---- ---- ------- ----- ---- -------<br>--- --- -- ----- -- --- ---- -- --- ---- -- ------ ------<br>--- ----- -- ----,1063804,1063792,1063460.48,1063461,1063473.24,1063806.58,,19,partner
screen,html.Screen,2_1_0_1_20,2022-02-15T13:14:07.706Z,,,,,,,,,,,,,,,,,53,,,,,,,,,,,,,,218.4199999999255,,response,,,,99,,,,,,,Space,keypress(Space),,,,,,,,---- -- ----- -- ------ - ------- --- ----------<br>------------- ------ ------ ---- ---- ------- ----- -- ----<br>-------- ------- is ---------- --- - --- ----- ----- ----<br>---- --- --- ----- --- ---- ---- ------- ----- ---- -------<br>--- --- -- ----- -- --- ---- -- --- ---- -- ------ ------<br>--- ----- -- ----,1064037,1064025,1063804.84,1063804,1063806.58,1064039.92,,20,is
screen,html.Screen,2_1_0_1_21,2022-02-15T13:14:08.044Z,,,,,,,,,,,,,,,,,53,,,,,,,,,,,,,,330.0800000000745,,response,,,,99,,,,,,,Space,keypress(Space),,,,,,,,---- -- ----- -- ------ - ------- --- ----------<br>------------- ------ ------ ---- ---- ------- ----- -- ----<br>-------- ------- -- paramount. --- - --- ----- ----- ----<br>---- --- --- ----- --- ---- ---- ------- ----- ---- -------<br>--- --- -- ----- -- --- ---- -- --- ---- -- ------ ------<br>--- ----- -- ----,1064375,1064370,1064037.16,1064037,1064039.92,1064389.92,,21,paramount.
screen,html.Screen,2_1_0_1_22,2022-02-15T13:14:08.634Z,,,,,,,,,,,,,,,,,53,,,,,,,,,,,,,,558.0800000000745,,response,,,,99,,,,,,,Space,keypress(Space),,,,,,,,---- -- ----- -- ------ - ------- --- ----------<br>------------- ------ ------ ---- ---- ------- ----- -- ----<br>-------- ------- -- ---------- But - --- ----- ----- ----<br>---- --- --- ----- --- ---- ---- ------- ----- ---- -------<br>--- --- -- ----- -- --- ---- -- --- ---- -- ------ ------<br>--- ----- -- ----,1064965,1064948,1064375.54,1064376,1064389.92,1064973.24,,22,But
screen,html.Screen,2_1_0_1_23,2022-02-15T13:14:08.884Z,,,,,,,,,,,,,,,,,53,,,,,,,,,,,,,,224.7600000000093,,response,,,,99,,,,,,,Space,keypress(Space),,,,,,,,---- -- ----- -- ------ - ------- --- ----------<br>------------- ------ ------ ---- ---- ------- ----- -- ----<br>-------- ------- -- ---------- --- a --- ----- ----- ----<br>---- --- --- ----- --- ---- ---- ------- ----- ---- -------<br>--- --- -- ----- -- --- ---- -- --- ---- -- ------ ------<br>--- ----- -- ----,1065214,1065198,1064964.76,1064965,1064973.24,1065223.24,,23,a
screen,html.Screen,2_1_0_1_24,2022-02-15T13:14:09.099Z,,,,,,,,,,,,,,,,,53,,,,,,,,,,,,,,193.7600000000093,,response,,,,99,,,,,,,Space,keypress(Space),,,,,,,,---- -- ----- -- ------ - ------- --- ----------<br>------------- ------ ------ ---- ---- ------- ----- -- ----<br>-------- ------- -- ---------- --- - new ----- ----- ----<br>---- --- --- ----- --- ---- ---- ------- ----- ---- -------<br>--- --- -- ----- -- --- ---- -- --- ---- -- ------ ------<br>--- ----- -- ----,1065429,1065417,1065214.9,1065214,1065223.24,1065439.92,,24,new
screen,html.Screen,2_1_0_1_25,2022-02-15T13:14:09.276Z,,,,,,,,,,,,,,,,,53,,,,,,,,,,,,,,148.0800000000745,,response,,,,99,,,,,,,Space,keypress(Space),,,,,,,,---- -- ----- -- ------ - ------- --- ----------<br>------------- ------ ------ ---- ---- ------- ----- -- ----<br>-------- ------- -- ---------- --- - --- study ----- ----<br>---- --- --- ----- --- ---- ---- ------- ----- ---- -------<br>--- --- -- ----- -- --- ---- -- --- ---- -- ------ ------<br>--- ----- -- ----,1065606,1065588,1065429.32,1065430,1065439.92,1065623.24,,25,study
screen,html.Screen,2_1_0_1_26,2022-02-15T13:14:09.826Z,,,,,,,,,,,,,,,,,53,,,,,,,,,,,,,,527.7600000000093,,response,,,,99,,,,,,,Space,keypress(Space),,,,,,,,---- -- ----- -- ------ - ------- --- ----------<br>------------- ------ ------ ---- ---- ------- ----- -- ----<br>-------- ------- -- ---------- --- - --- ----- finds ----<br>---- --- --- ----- --- ---- ---- ------- ----- ---- -------<br>--- --- -- ----- -- --- ---- -- --- ---- -- ------ ------<br>--- ----- -- ----,1066156,1066151,1065607.2,1065607,1065623.24,1066156.58,,26,finds
screen,html.Screen,2_1_0_1_27,2022-02-15T13:14:10.178Z,,,,,,,,,,,,,,,,,53,,,,,,,,,,,,,,337.4199999999255,,response,,,,99,,,,,,,Space,keypress(Space),,,,,,,,---- -- ----- -- ------ - ------- --- ----------<br>------------- ------ ------ ---- ---- ------- ----- -- ----<br>-------- ------- -- ---------- --- - --- ----- ----- that<br>---- --- --- ----- --- ---- ---- ------- ----- ---- -------<br>--- --- -- ----- -- --- ---- -- --- ---- -- ------ ------<br>--- ----- -- ----,1066509,1066494,1066156.52,1066156,1066156.58,1066523.24,,27,that
screen,html.Screen,2_1_0_1_28,2022-02-15T13:14:10.450Z,,,,,,,,,,,,,,,,,53,,,,,,,,,,,,,,252.7600000000093,,response,,,,99,,,,,,,Space,keypress(Space),,,,,,,,---- -- ----- -- ------ - ------- --- ----------<br>------------- ------ ------ ---- ---- ------- ----- -- ----<br>-------- ------- -- ---------- --- - --- ----- ----- ----<br>it's --- --- ----- --- ---- ---- ------- ----- ---- -------<br>--- --- -- ----- -- --- ---- -- --- ---- -- ------ ------<br>--- ----- -- ----,1066780,1066776,1066508.64,1066509,1066523.24,1066789.92,,28,it's
screen,html.Screen,2_1_0_1_29,2022-02-15T13:14:10.666Z,,,,,,,,,,,,,,,,,53,,,,,,,,,,,,,,189.0800000000745,,response,,,,99,,,,,,,Space,keypress(Space),,,,,,,,---- -- ----- -- ------ - ------- --- ----------<br>------------- ------ ------ ---- ---- ------- ----- -- ----<br>-------- ------- -- ---------- --- - --- ----- ----- ----<br>---- not --- ----- --- ---- ---- ------- ----- ---- -------<br>--- --- -- ----- -- --- ---- -- --- ---- -- ------ ------<br>--- ----- -- ----,1066996,1066979,1066780.32,1066780,1066789.92,1067006.58,,29,not
screen,html.Screen,2_1_0_1_30,2022-02-15T13:14:10.974Z,,,,,,,,,,,,,,,,,53,,,,,,,,,,,,,,285.4199999999255,,response,,,,99,,,,,,,Space,keypress(Space),,,,,,,,---- -- ----- -- ------ - ------- --- ----------<br>------------- ------ ------ ---- ---- ------- ----- -- ----<br>-------- ------- -- ---------- --- - --- ----- ----- ----<br>---- --- how ----- --- ---- ---- ------- ----- ---- -------<br>--- --- -- ----- -- --- ---- -- --- ---- -- ------ ------<br>--- ----- -- ----,1067305,1067292,1066996.5,1066996,1067006.58,1067306.58,,30,how
screen,html.Screen,2_1_0_1_31,2022-02-15T13:14:11.186Z,,,,,,,,,,,,,,,,,53,,,,,,,,,,,,,,203.4199999999255,,response,,,,99,,,,,,,Space,keypress(Space),,,,,,,,---- -- ----- -- ------ - ------- --- ----------<br>------------- ------ ------ ---- ---- ------- ----- -- ----<br>-------- ------- -- ---------- --- - --- ----- ----- ----<br>---- --- --- close --- ---- ---- ------- ----- ---- -------<br>--- --- -- ----- -- --- ---- -- --- ---- -- ------ ------<br>--- ----- -- ----,1067517,1067510,1067306,1067306,1067306.58,1067523.24,,31,close
screen,html.Screen,2_1_0_1_32,2022-02-15T13:14:11.361Z,,,,,,,,,,,,,,,,,53,,,,,,,,,,,,,,159.7600000000093,,response,,,,99,,,,,,,Space,keypress(Space),,,,,,,,---- -- ----- -- ------ - ------- --- ----------<br>------------- ------ ------ ---- ---- ------- ----- -- ----<br>-------- ------- -- ---------- --- - --- ----- ----- ----<br>---- --- --- ----- you ---- ---- ------- ----- ---- -------<br>--- --- -- ----- -- --- ---- -- --- ---- -- ------ ------<br>--- ----- -- ----,1067692,1067683,1067517.1,1067517,1067523.24,1067706.58,,32,you
screen,html.Screen,2_1_0_1_33,2022-02-15T13:14:11.763Z,,,,,,,,,,,,,,,,,53,,,,,,,,,,,,,,382.4199999999255,,response,,,,99,,,,,,,Space,keypress(Space),,,,,,,,---- -- ----- -- ------ - ------- --- ----------<br>------------- ------ ------ ---- ---- ------- ----- -- ----<br>-------- ------- -- ---------- --- - --- ----- ----- ----<br>---- --- --- ----- --- feel ---- ------- ----- ---- -------<br>--- --- -- ----- -- --- ---- -- --- ---- -- ------ ------<br>--- ----- -- ----,1068094,1068089,1067692.26,1067693,1067706.58,1068106.58,,33,feel
screen,html.Screen,2_1_0_1_34,2022-02-15T13:14:11.954Z,,,,,,,,,,,,,,,,,53,,,,,,,,,,,,,,169.4199999999255,,response,,,,99,,,,,,,Space,keypress(Space),,,,,,,,---- -- ----- -- ------ - ------- --- ----------<br>------------- ------ ------ ---- ---- ------- ----- -- ----<br>-------- ------- -- ---------- --- - --- ----- ----- ----<br>---- --- --- ----- --- ---- that ------- ----- ---- -------<br>--- --- -- ----- -- --- ---- -- --- ---- -- ------ ------<br>--- ----- -- ----,1068284,1068276,1068093.94,1068094,1068106.58,1068289.92,,34,that
screen,html.Screen,2_1_0_1_35,2022-02-15T13:14:12.131Z,,,,,,,,,,,,,,,,,53,,,,,,,,,,,,,,158.0800000000745,,response,,,,99,,,,,,,Space,keypress(Space),,,,,,,,---- -- ----- -- ------ - ------- --- ----------<br>------------- ------ ------ ---- ---- ------- ----- -- ----<br>-------- ------- -- ---------- --- - --- ----- ----- ----<br>---- --- --- ----- --- ---- ---- matters ----- ---- -------<br>--- --- -- ----- -- --- ---- -- --- ---- -- ------ ------<br>--- ----- -- ----,1068462,1068448,1068284.42,1068284,1068289.92,1068473.24,,35,matters
screen,html.Screen,2_1_0_1_36,2022-02-15T13:14:12.546Z,,,,,,,,,,,,,,,,,53,,,,,,,,,,,,,,396.7600000000093,,response,,,,99,,,,,,,Space,keypress(Space),,,,,,,,"---- -- ----- -- ------ - ------- --- ----------<br>------------- ------ ------ ---- ---- ------- ----- -- ----<br>-------- ------- -- ---------- --- - --- ----- ----- ----<br>---- --- --- ----- --- ---- ---- ------- most, ---- -------<br>--- --- -- ----- -- --- ---- -- --- ---- -- ------ ------<br>--- ----- -- ----",1068877,1068870,1068461.84,1068462,1068473.24,1068889.92,,36,"most,"
screen,html.Screen,2_1_0_1_37,2022-02-15T13:14:12.899Z,,,,,,,,,,,,,,,,,53,,,,,,,,,,,,,,324.0800000000745,,response,,,,99,,,,,,,Space,keypress(Space),,,,,,,,---- -- ----- -- ------ - ------- --- ----------<br>------------- ------ ------ ---- ---- ------- ----- -- ----<br>-------- ------- -- ---------- --- - --- ----- ----- ----<br>---- --- --- ----- --- ---- ---- ------- ----- it's -------<br>--- --- -- ----- -- --- ---- -- --- ---- -- ------ ------<br>--- ----- -- ----,1069230,1069214,1068876.86,1068877,1068889.92,1069239.92,,37,it's
screen,html.Screen,2_1_0_1_38,2022-02-15T13:14:13.300Z,,,,,,,,,,,,,,,,,53,,,,,,,,,,,,,,380.0800000000745,,response,,,,99,,,,,,,Space,keypress(Space),,,,,,,,---- -- ----- -- ------ - ------- --- ----------<br>------------- ------ ------ ---- ---- ------- ----- -- ----<br>-------- ------- -- ---------- --- - --- ----- ----- ----<br>---- --- --- ----- --- ---- ---- ------- ----- ---- whether<br>--- --- -- ----- -- --- ---- -- --- ---- -- ------ ------<br>--- ----- -- ----,1069632,1069620,1069230.66,1069230,1069239.92,1069639.92,,38,whether
screen,html.Screen,2_1_0_1_39,2022-02-15T13:14:13.570Z,,,,,,,,,,,,,,,,,53,,,,,,,,,,,,,,245.0800000000745,,response,,,,99,,,,,,,Space,keypress(Space),,,,,,,,---- -- ----- -- ------ - ------- --- ----------<br>------------- ------ ------ ---- ---- ------- ----- -- ----<br>-------- ------- -- ---------- --- - --- ----- ----- ----<br>---- --- --- ----- --- ---- ---- ------- ----- ---- -------<br>you --- -- ----- -- --- ---- -- --- ---- -- ------ ------<br>--- ----- -- ----,1069900,1069885,1069631.6,1069632,1069639.92,1069906.58,,39,you
screen,html.Screen,2_1_0_1_40,2022-02-15T13:14:13.875Z,,,,,,,,,,,,,,,,,53,,,,,,,,,,,,,,291.4199999999255,,response,,,,99,,,,,,,Space,keypress(Space),,,,,,,,---- -- ----- -- ------ - ------- --- ----------<br>------------- ------ ------ ---- ---- ------- ----- -- ----<br>-------- ------- -- ---------- --- - --- ----- ----- ----<br>---- --- --- ----- --- ---- ---- ------- ----- ---- -------<br>--- are -- ----- -- --- ---- -- --- ---- -- ------ ------<br>--- ----- -- ----,1070205,1070198,1069900.7,1069900,1069906.58,1070206.58,,40,are
screen,html.Screen,2_1_0_1_41,2022-02-15T13:14:14.451Z,,,,,,,,,,,,,,,,,53,,,,,,,,,,,,,,569.4199999999255,,response,,,,99,,,,,,,Space,keypress(Space),,,,,,,,---- -- ----- -- ------ - ------- --- ----------<br>------------- ------ ------ ---- ---- ------- ----- -- ----<br>-------- ------- -- ---------- --- - --- ----- ----- ----<br>---- --- --- ----- --- ---- ---- ------- ----- ---- -------<br>--- --- as ----- -- --- ---- -- --- ---- -- ------ ------<br>--- ----- -- ----,1070781,1070776,1070205.56,1070205,1070206.58,1070789.92,,41,as
screen,html.Screen,2_1_0_1_42,2022-02-15T13:14:14.690Z,,,,,,,,,,,,,,,,,53,,,,,,,,,,,,,,221.0800000000745,,response,,,,99,,,,,,,Space,keypress(Space),,,,,,,,---- -- ----- -- ------ - ------- --- ----------<br>------------- ------ ------ ---- ---- ------- ----- -- ----<br>-------- ------- -- ---------- --- - --- ----- ----- ----<br>---- --- --- ----- --- ---- ---- ------- ----- ---- -------<br>--- --- -- close -- --- ---- -- --- ---- -- ------ ------<br>--- ----- -- ----,1071021,1071011,1070781.36,1070781,1070789.92,1071023.24,,42,close
screen,html.Screen,2_1_0_1_43,2022-02-15T13:14:14.978Z,,,,,,,,,,,,,,,,,53,,,,,,,,,,,,,,267.7600000000093,,response,,,,99,,,,,,,Space,keypress(Space),,,,,,,,---- -- ----- -- ------ - ------- --- ----------<br>------------- ------ ------ ---- ---- ------- ----- -- ----<br>-------- ------- -- ---------- --- - --- ----- ----- ----<br>---- --- --- ----- --- ---- ---- ------- ----- ---- -------<br>--- --- -- ----- as --- ---- -- --- ---- -- ------ ------<br>--- ----- -- ----,1071308,1071291,1071020.74,1071021,1071023.24,1071323.24,,43,as
screen,html.Screen,2_1_0_1_44,2022-02-15T13:14:15.306Z,,,,,,,,,,,,,,,,,53,,,,,,,,,,,,,,295.7600000000093,,response,,,,99,,,,,,,Space,keypress(Space),,,,,,,,---- -- ----- -- ------ - ------- --- ----------<br>------------- ------ ------ ---- ---- ------- ----- -- ----<br>-------- ------- -- ---------- --- - --- ----- ----- ----<br>---- --- --- ----- --- ---- ---- ------- ----- ---- -------<br>--- --- -- ----- -- you ---- -- --- ---- -- ------ ------<br>--- ----- -- ----,1071637,1071619,1071308.78,1071308,1071323.24,1071639.92,,44,you
screen,html.Screen,2_1_0_1_45,2022-02-15T13:14:15.532Z,,,,,,,,,,,,,,,,,53,,,,,,,,,,,,,,213.0800000000745,,response,,,,99,,,,,,,Space,keypress(Space),,,,,,,,---- -- ----- -- ------ - ------- --- ----------<br>------------- ------ ------ ---- ---- ------- ----- -- ----<br>-------- ------- -- ---------- --- - --- ----- ----- ----<br>---- --- --- ----- --- ---- ---- ------- ----- ---- -------<br>--- --- -- ----- -- --- want -- --- ---- -- ------ ------<br>--- ----- -- ----,1071862,1071853,1071636.98,1071637,1071639.92,1071873.24,,45,want
screen,html.Screen,2_1_0_1_46,2022-02-15T13:14:15.826Z,,,,,,,,,,,,,,,,,53,,,,,,,,,,,,,,277.7600000000093,,response,,,,99,,,,,,,Space,keypress(Space),,,,,,,,---- -- ----- -- ------ - ------- --- ----------<br>------------- ------ ------ ---- ---- ------- ----- -- ----<br>-------- ------- -- ---------- --- - --- ----- ----- ----<br>---- --- --- ----- --- ---- ---- ------- ----- ---- -------<br>--- --- -- ----- -- --- ---- to --- ---- -- ------ ------<br>--- ----- -- ----,1072157,1072151,1071862,1071862,1071873.24,1072173.24,,46,to
screen,html.Screen,2_1_0_1_47,2022-02-15T13:14:16.155Z,,,,,,,,,,,,,,,,,53,,,,,,,,,,,,,,305.7600000000093,,response,,,,99,,,,,,,Space,keypress(Space),,,,,,,,"---- -- ----- -- ------ - ------- --- ----------<br>------------- ------ ------ ---- ---- ------- ----- -- ----<br>-------- ------- -- ---------- --- - --- ----- ----- ----<br>---- --- --- ----- --- ---- ---- ------- ----- ---- -------<br>--- --- -- ----- -- --- ---- -- be, ---- -- ------ ------<br>--- ----- -- ----",1072485,1072479,1072157.2,1072157,1072173.24,1072489.92,,47,"be,"
screen,html.Screen,2_1_0_1_48,2022-02-15T13:14:16.779Z,,,,,,,,,,,,,,,,,53,,,,,,,,,,,,,,613.0800000000745,,response,,,,99,,,,,,,Space,keypress(Space),,,,,,,,---- -- ----- -- ------ - ------- --- ----------<br>------------- ------ ------ ---- ---- ------- ----- -- ----<br>-------- ------- -- ---------- --- - --- ----- ----- ----<br>---- --- --- ----- --- ---- ---- ------- ----- ---- -------<br>--- --- -- ----- -- --- ---- -- --- even -- ------ ------<br>--- ----- -- ----,1073109,1073103,1072485.4,1072485,1072489.92,1073123.24,,48,even
screen,html.Screen,2_1_0_1_49,2022-02-15T13:14:17.044Z,,,,,,,,,,,,,,,,,53,,,,,,,,,,,,,,246.7600000000093,,response,,,,99,,,,,,,Space,keypress(Space),,,,,,,,---- -- ----- -- ------ - ------- --- ----------<br>------------- ------ ------ ---- ---- ------- ----- -- ----<br>-------- ------- -- ---------- --- - --- ----- ----- ----<br>---- --- --- ----- --- ---- ---- ------- ----- ---- -------<br>--- --- -- ----- -- --- ---- -- --- ---- if ------ ------<br>--- ----- -- ----,1073375,1073370,1073109.44,1073109,1073123.24,1073389.92,,49,if
screen,html.Screen,2_1_0_1_50,2022-02-15T13:14:17.251Z,,,,,,,,,,,,,,,,,53,,,,,,,,,,,,,,183.0800000000745,,response,,,,99,,,,,,,Space,keypress(Space),,,,,,,,---- -- ----- -- ------ - ------- --- ----------<br>------------- ------ ------ ---- ---- ------- ----- -- ----<br>-------- ------- -- ---------- --- - --- ----- ----- ----<br>---- --- --- ----- --- ---- ---- ------- ----- ---- -------<br>--- --- -- ----- -- --- ---- -- --- ---- -- that's ------<br>--- ----- -- ----,1073582,1073573,1073374.48,1073375,1073389.92,1073589.92,,50,that's
screen,html.Screen,2_1_0_1_51,2022-02-15T13:14:17.700Z,,,,,,,,,,,,,,,,,53,,,,,,,,,,,,,,436.0800000000745,,response,,,,99,,,,,,,Space,keypress(Space),,,,,,,,---- -- ----- -- ------ - ------- --- ----------<br>------------- ------ ------ ---- ---- ------- ----- -- ----<br>-------- ------- -- ---------- --- - --- ----- ----- ----<br>---- --- --- ----- --- ---- ---- ------- ----- ---- -------<br>--- --- -- ----- -- --- ---- -- --- ---- -- ------ really<br>--- ----- -- ----,1074031,1074026,1073582.06,1073582,1073589.92,1074039.92,,51,really
screen,html.Screen,2_1_0_1_52,2022-02-15T13:14:17.955Z,,,,,,,,,,,,,,,,,53,,,,,,,,,,,,,,235.0800000000745,,response,,,,99,,,,,,,Space,keypress(Space),,,,,,,,---- -- ----- -- ------ - ------- --- ----------<br>------------- ------ ------ ---- ---- ------- ----- -- ----<br>-------- ------- -- ---------- --- - --- ----- ----- ----<br>---- --- --- ----- --- ---- ---- ------- ----- ---- -------<br>--- --- -- ----- -- --- ---- -- --- ---- -- ------ ------<br>not ----- -- ----,1074286,1074275,1074030.56,1074031,1074039.92,1074289.92,,52,not
screen,html.Screen,2_1_0_1_53,2022-02-15T13:14:18.148Z,,,,,,,,,,,,,,,,,53,,,,,,,,,,,,,,174.0800000000745,,response,,,,99,,,,,,,Space,keypress(Space),,,,,,,,---- -- ----- -- ------ - ------- --- ----------<br>------------- ------ ------ ---- ---- ------- ----- -- ----<br>-------- ------- -- ---------- --- - --- ----- ----- ----<br>---- --- --- ----- --- ---- ---- ------- ----- ---- -------<br>--- --- -- ----- -- --- ---- -- --- ---- -- ------ ------<br>--- close -- ----,1074478,1074464,1074285.8,1074286,1074289.92,1074489.92,,53,close
screen,html.Screen,2_1_0_1_54,2022-02-15T13:14:18.515Z,,,,,,,,,,,,,,,,,53,,,,,,,,,,,,,,348.0800000000745,,response,,,,99,,,,,,,Space,keypress(Space),,,,,,,,---- -- ----- -- ------ - ------- --- ----------<br>------------- ------ ------ ---- ---- ------- ----- -- ----<br>-------- ------- -- ---------- --- - --- ----- ----- ----<br>---- --- --- ----- --- ---- ---- ------- ----- ---- -------<br>--- --- -- ----- -- --- ---- -- --- ---- -- ------ ------<br>--- ----- at ----,1074845,1074838,1074478.72,1074478,1074489.92,1074856.58,,54,at
screen,html.Screen,2_1_0_1_55,2022-02-15T13:14:18.970Z,,,,,,,,,,,,,,,,,53,,,,,,,,,,,,,,434.4199999999255,,response,,,,99,,,,,,,Space,keypress(Space),,,,,,,,---- -- ----- -- ------ - ------- --- ----------<br>------------- ------ ------ ---- ---- ------- ----- -- ----<br>-------- ------- -- ---------- --- - --- ----- ----- ----<br>---- --- --- ----- --- ---- ---- ------- ----- ---- -------<br>--- --- -- ----- -- --- ---- -- --- ---- -- ------ ------<br>--- ----- -- all.,1075301,1075291,1074845.1,1074845,1074856.58,1075306.58,,55,all.
Item 99,flow.Loop,2_1_0_1,2022-02-15T13:14:18.970Z,,,,,,,,,,,,,,,,,,,,,,,,,,,,,,,19384.399999999907,,completion,,,,,E,,,,,,,,,,,silence,,,,,1075301,1075291,1055889.92,1055892,1055906.6,1075306.58,,,
Question 1,html.Screen,2_1_0_2,2022-02-15T13:14:22.436Z,,,,,,,,,,,,,,,,,,,,,,,,,,,,true,FALSE,,3453.4199999999255,,response,,,,99,E,,,,,,FALSE,click #choice-2,,,,silence,,,,,1078766,1078760,1075301.1,1075302,1075306.58,1078773.24,,,
Question 2,html.Screen,2_1_0_3,2022-02-15T13:14:28.410Z,,,,,,,,,,,,,,,,,,,,,,,,,,,,true,TRUE,,5955.760000000009,,response,,,,99,E,,,,,,TRUE,click #choice-1,,,,silence,,,,,1084740,1084729,1078765.62,1078766,1078773.24,1084739.9,,,
Item 99,flow.Sequence,2_1_0,2022-02-15T13:14:28.410Z,,,,,,,,,,,,,,,,,,,,,,,,,,,,,,,38822.40000000002,,completion,,,,,,,,,,,,,,,,,,,,,1084741,1084729,1045905.84,1045910,1045906.6,1084739.9,,,
Holding screen,html.Screen,2_1_1_0,2022-02-15T13:14:38.393Z,,,,,,,,,,,,,,,,,,,,,,,,,,,,,,,10000,,timeout,,,,,,,,,,,,,,,,,,,,,1094725,1094723.22,1084739.56,1084741,1084739.9,1094739.9,,,
screen,html.Screen,2_1_1_1_0,2022-02-15T13:14:39.357Z,,,,,,,,,,,,,,,,,54,,,,,,,,,,,,,,942.1000000000931,,response,,,,100,,,,,,,Space,keypress(Space),,,,,,,,At --- ---- --- ------ ----- ------- ---- -- --- ------- --<br>------- ---------- ------ -- ----- -- ----- -- ---- ------<br>--- ----- --- --- ------ -------- ----- --- ------ ----- --<br>----- ----- ---------- --- --- ------ ------ ---- -- ------<br>------- --- ------ ----- --- ---- ------- -- ---- --- --<br>------- ------,1095687,1095682,1094723.22,1094725,1094739.9,1095689.9,,0,At
screen,html.Screen,2_1_1_1_1,2022-02-15T13:14:39.772Z,,,,,,,,,,,,,,,,,54,,,,,,,,,,,,,,399.10000000009313,,response,,,,100,,,,,,,Space,keypress(Space),,,,,,,,-- the ---- --- ------ ----- ------- ---- -- --- ------- --<br>------- ---------- ------ -- ----- -- ----- -- ---- ------<br>--- ----- --- --- ------ -------- ----- --- ------ ----- --<br>----- ----- ---------- --- --- ------ ------ ---- -- ------<br>------- --- ------ ----- --- ---- ------- -- ---- --- --<br>------- ------,1096102,1096089,1095687.56,1095687,1095689.9,1096106.56,,1,the
screen,html.Screen,2_1_1_1_2,2022-02-15T13:14:39.962Z,,,,,,,,,,,,,,,,,54,,,,,,,,,,,,,,169.43999999994412,,response,,,,100,,,,,,,Space,keypress(Space),,,,,,,,-- --- time --- ------ ----- ------- ---- -- --- ------- --<br>------- ---------- ------ -- ----- -- ----- -- ---- ------<br>--- ----- --- --- ------ -------- ----- --- ------ ----- --<br>----- ----- ---------- --- --- ------ ------ ---- -- ------<br>------- --- ------ ----- --- ---- ------- -- ---- --- --<br>------- ------,1096293,1096276,1096102.88,1096102,1096106.56,1096306.56,,2,time
screen,html.Screen,2_1_1_1_3,2022-02-15T13:14:40.227Z,,,,,,,,,,,,,,,,,54,,,,,,,,,,,,,,234.43999999994412,,response,,,,100,,,,,,,Space,keypress(Space),,,,,,,,-- --- ---- the ------ ----- ------- ---- -- --- ------- --<br>------- ---------- ------ -- ----- -- ----- -- ---- ------<br>--- ----- --- --- ------ -------- ----- --- ------ ----- --<br>----- ----- ---------- --- --- ------ ------ ---- -- ------<br>------- --- ------ ----- --- ---- ------- -- ---- --- --<br>------- ------,1096558,1096541,1096292.98,1096293,1096306.56,1096573.22,,3,the
screen,html.Screen,2_1_1_1_4,2022-02-15T13:14:40.491Z,,,,,,,,,,,,,,,,,54,,,,,,,,,,,,,,233.78000000002794,,response,,,,100,,,,,,,Space,keypress(Space),,,,,,,,-- --- ---- --- French ----- ------- ---- -- --- ------- --<br>------- ---------- ------ -- ----- -- ----- -- ---- ------<br>--- ----- --- --- ------ -------- ----- --- ------ ----- --<br>----- ----- ---------- --- --- ------ ------ ---- -- ------<br>------- --- ------ ----- --- ---- ------- -- ---- --- --<br>------- ------,1096822,1096807,1096557.76,1096558,1096573.22,1096823.22,,4,French
screen,html.Screen,2_1_1_1_5,2022-02-15T13:14:40.844Z,,,,,,,,,,,,,,,,,54,,,,,,,,,,,,,,343.78000000002794,,response,,,,100,,,,,,,Space,keypress(Space),,,,,,,,-- --- ---- --- ------ crown ------- ---- -- --- ------- --<br>------- ---------- ------ -- ----- -- ----- -- ---- ------<br>--- ----- --- --- ------ -------- ----- --- ------ ----- --<br>----- ----- ---------- --- --- ------ ------ ---- -- ------<br>------- --- ------ ----- --- ---- ------- -- ---- --- --<br>------- ------,1097174,1097167,1096821.52,1096822,1096823.22,1097189.9,,5,crown
screen,html.Screen,2_1_1_1_6,2022-02-15T13:14:41.227Z,,,,,,,,,,,,,,,,,54,,,,,,,,,,,,,,352.10000000009313,,response,,,,100,,,,,,,Space,keypress(Space),,,,,,,,-- --- ---- --- ------ ----- secured ---- -- --- ------- --<br>------- ---------- ------ -- ----- -- ----- -- ---- ------<br>--- ----- --- --- ------ -------- ----- --- ------ ----- --<br>----- ----- ---------- --- --- ------ ------ ---- -- ------<br>------- --- ------ ----- --- ---- ------- -- ---- --- --<br>------- ------,1097557,1097542,1097174.5,1097175,1097189.9,1097573.22,,6,secured
screen,html.Screen,2_1_1_1_7,2022-02-15T13:14:41.612Z,,,,,,,,,,,,,,,,,54,,,,,,,,,,,,,,359.78000000002794,,response,,,,100,,,,,,,Space,keypress(Space),,,,,,,,-- --- ---- --- ------ ----- ------- much -- --- ------- --<br>------- ---------- ------ -- ----- -- ----- -- ---- ------<br>--- ----- --- --- ------ -------- ----- --- ------ ----- --<br>----- ----- ---------- --- --- ------ ------ ---- -- ------<br>------- --- ------ ----- --- ---- ------- -- ---- --- --<br>------- ------,1097943,1097933,1097557.54,1097557,1097573.22,1097956.56,,7,much
screen,html.Screen,2_1_1_1_8,2022-02-15T13:14:41.870Z,,,,,,,,,,,,,,,,,54,,,,,,,,,,,,,,226.43999999994412,,response,,,,100,,,,,,,Space,keypress(Space),,,,,,,,-- --- ---- --- ------ ----- ------- ---- of --- ------- --<br>------- ---------- ------ -- ----- -- ----- -- ---- ------<br>--- ----- --- --- ------ -------- ----- --- ------ ----- --<br>----- ----- ---------- --- --- ------ ------ ---- -- ------<br>------- --- ------ ----- --- ---- ------- -- ---- --- --<br>------- ------,1098200,1098183,1097943.66,1097943,1097956.56,1098206.56,,8,of
screen,html.Screen,2_1_1_1_9,2022-02-15T13:14:42.235Z,,,,,,,,,,,,,,,,,54,,,,,,,,,,,,,,351.4399999999441,,response,,,,100,,,,,,,Space,keypress(Space),,,,,,,,-- --- ---- --- ------ ----- ------- ---- -- its ------- --<br>------- ---------- ------ -- ----- -- ----- -- ---- ------<br>--- ----- --- --- ------ -------- ----- --- ------ ----- --<br>----- ----- ---------- --- --- ------ ------ ---- -- ------<br>------- --- ------ ----- --- ---- ------- -- ---- --- --<br>------- ------,1098565,1098558,1098200.74,1098201,1098206.56,1098573.22,,9,its
screen,html.Screen,2_1_1_1_10,2022-02-15T13:14:42.579Z,,,,,,,,,,,,,,,,,54,,,,,,,,,,,,,,327.78000000002794,,response,,,,100,,,,,,,Space,keypress(Space),,,,,,,,-- --- ---- --- ------ ----- ------- ---- -- --- revenue --<br>------- ---------- ------ -- ----- -- ----- -- ---- ------<br>--- ----- --- --- ------ -------- ----- --- ------ ----- --<br>----- ----- ---------- --- --- ------ ------ ---- -- ------<br>------- --- ------ ----- --- ---- ------- -- ---- --- --<br>------- ------,1098908,1098901,1098565.76,1098565,1098573.22,1098923.22,,10,revenue
screen,html.Screen,2_1_1_1_11,2022-02-15T13:14:42.994Z,,,,,,,,,,,,,,,,,54,,,,,,,,,,,,,,384.78000000002794,,response,,,,100,,,,,,,Space,keypress(Space),,,,,,,,-- --- ---- --- ------ ----- ------- ---- -- --- ------- by<br>------- ---------- ------ -- ----- -- ----- -- ---- ------<br>--- ----- --- --- ------ -------- ----- --- ------ ----- --<br>----- ----- ---------- --- --- ------ ------ ---- -- ------<br>------- --- ------ ----- --- ---- ------- -- ---- --- --<br>------- ------,1099324,1099308,1098909.18,1098909,1098923.22,1099339.9,,11,by
screen,html.Screen,2_1_1_1_12,2022-02-15T13:14:43.289Z,,,,,,,,,,,,,,,,,54,,,,,,,,,,,,,,264.10000000009313,,response,,,,100,,,,,,,Space,keypress(Space),,,,,,,,-- --- ---- --- ------ ----- ------- ---- -- --- ------- --<br>issuing ---------- ------ -- ----- -- ----- -- ---- ------<br>--- ----- --- --- ------ -------- ----- --- ------ ----- --<br>----- ----- ---------- --- --- ------ ------ ---- -- ------<br>------- --- ------ ----- --- ---- ------- -- ---- --- --<br>------- ------,1099620,1099604,1099324.28,1099324,1099339.9,1099623.22,,12,issuing
screen,html.Screen,2_1_1_1_13,2022-02-15T13:14:43.594Z,,,,,,,,,,,,,,,,,54,,,,,,,,,,,,,,293.78000000002794,,response,,,,100,,,,,,,Space,keypress(Space),,,,,,,,-- --- ---- --- ------ ----- ------- ---- -- --- ------- --<br>------- government ------ -- ----- -- ----- -- ---- ------<br>--- ----- --- --- ------ -------- ----- --- ------ ----- --<br>----- ----- ---------- --- --- ------ ------ ---- -- ------<br>------- --- ------ ----- --- ---- ------- -- ---- --- --<br>------- ------,1099925,1099917,1099620.06,1099620,1099623.22,1099939.9,,13,government
screen,html.Screen,2_1_1_1_14,2022-02-15T13:14:44.115Z,,,,,,,,,,,,,,,,,54,,,,,,,,,,,,,,492.10000000009313,,response,,,,100,,,,,,,Space,keypress(Space),,,,,,,,-- --- ---- --- ------ ----- ------- ---- -- --- ------- --<br>------- ---------- bonds. -- ----- -- ----- -- ---- ------<br>--- ----- --- --- ------ -------- ----- --- ------ ----- --<br>----- ----- ---------- --- --- ------ ------ ---- -- ------<br>------- --- ------ ----- --- ---- ------- -- ---- --- --<br>------- ------,1100445,1100432,1099925.34,1099925,1099939.9,1100456.56,,14,bonds.
screen,html.Screen,2_1_1_1_15,2022-02-15T13:14:45.163Z,,,,,,,,,,,,,,,,,54,,,,,,,,,,,,,,1021.4399999999441,,response,,,,100,,,,,,,Space,keypress(Space),,,,,,,,-- --- ---- --- ------ ----- ------- ---- -- --- ------- --<br>------- ---------- ------ In ----- -- ----- -- ---- ------<br>--- ----- --- --- ------ -------- ----- --- ------ ----- --<br>----- ----- ---------- --- --- ------ ------ ---- -- ------<br>------- --- ------ ----- --- ---- ------- -- ---- --- --<br>------- ------,1101494,1101478,1100445.28,1100446,1100456.56,1101506.56,,15,In
screen,html.Screen,2_1_1_1_16,2022-02-15T13:14:45.386Z,,,,,,,,,,,,,,,,,54,,,,,,,,,,,,,,207.43999999994412,,response,,,,100,,,,,,,Space,keypress(Space),,,,,,,,"-- --- ---- --- ------ ----- ------- ---- -- --- ------- --<br>------- ---------- ------ -- 1727, -- ----- -- ---- ------<br>--- ----- --- --- ------ -------- ----- --- ------ ----- --<br>----- ----- ---------- --- --- ------ ------ ---- -- ------<br>------- --- ------ ----- --- ---- ------- -- ---- --- --<br>------- ------",1101717,1101714,1101494.94,1101494,1101506.56,1101723.22,,16,"1727,"
screen,html.Screen,2_1_1_1_17,2022-02-15T13:14:45.708Z,,,,,,,,,,,,,,,,,54,,,,,,,,,,,,,,302.78000000002794,,response,,,,100,,,,,,,Space,keypress(Space),,,,,,,,-- --- ---- --- ------ ----- ------- ---- -- --- ------- --<br>------- ---------- ------ -- ----- in ----- -- ---- ------<br>--- ----- --- --- ------ -------- ----- --- ------ ----- --<br>----- ----- ---------- --- --- ------ ------ ---- -- ------<br>------- --- ------ ----- --- ---- ------- -- ---- --- --<br>------- ------,1102038,1102026,1101717.02,1101717,1101723.22,1102039.9,,17,in
screen,html.Screen,2_1_1_1_18,2022-02-15T13:14:46.114Z,,,,,,,,,,,,,,,,,54,,,,,,,,,,,,,,392.10000000009313,,response,,,,100,,,,,,,Space,keypress(Space),,,,,,,,-- --- ---- --- ------ ----- ------- ---- -- --- ------- --<br>------- ---------- ------ -- ----- -- order -- ---- ------<br>--- ----- --- --- ------ -------- ----- --- ------ ----- --<br>----- ----- ---------- --- --- ------ ------ ---- -- ------<br>------- --- ------ ----- --- ---- ------- -- ---- --- --<br>------- ------,1102445,1102432,1102038.82,1102039,1102039.9,1102456.56,,18,order
screen,html.Screen,2_1_1_1_19,2022-02-15T13:14:46.331Z,,,,,,,,,,,,,,,,,54,,,,,,,,,,,,,,194.43999999994412,,response,,,,100,,,,,,,Space,keypress(Space),,,,,,,,-- --- ---- --- ------ ----- ------- ---- -- --- ------- --<br>------- ---------- ------ -- ----- -- ----- to ---- ------<br>--- ----- --- --- ------ -------- ----- --- ------ ----- --<br>----- ----- ---------- --- --- ------ ------ ---- -- ------<br>------- --- ------ ----- --- ---- ------- -- ---- --- --<br>------- ------,1102662,1102651,1102445.2,1102445,1102456.56,1102673.22,,19,to
screen,html.Screen,2_1_1_1_20,2022-02-15T13:14:46.569Z,,,,,,,,,,,,,,,,,54,,,,,,,,,,,,,,211.78000000002794,,response,,,,100,,,,,,,Space,keypress(Space),,,,,,,,-- --- ---- --- ------ ----- ------- ---- -- --- ------- --<br>------- ---------- ------ -- ----- -- ----- -- save ------<br>--- ----- --- --- ------ -------- ----- --- ------ ----- --<br>----- ----- ---------- --- --- ------ ------ ---- -- ------<br>------- --- ------ ----- --- ---- ------- -- ---- --- --<br>------- ------,1102900,1102885,1102661.88,1102662,1102673.22,1102906.56,,20,save
screen,html.Screen,2_1_1_1_21,2022-02-15T13:14:46.787Z,,,,,,,,,,,,,,,,,54,,,,,,,,,,,,,,197.43999999994412,,response,,,,100,,,,,,,Space,keypress(Space),,,,,,,,"-- --- ---- --- ------ ----- ------- ---- -- --- ------- --<br>------- ---------- ------ -- ----- -- ----- -- ---- money,<br>--- ----- --- --- ------ -------- ----- --- ------ ----- --<br>----- ----- ---------- --- --- ------ ------ ---- -- ------<br>------- --- ------ ----- --- ---- ------- -- ---- --- --<br>------- ------",1103117,1103104,1102900.02,1102900,1102906.56,1103123.22,,21,"money,"
screen,html.Screen,2_1_1_1_22,2022-02-15T13:14:47.042Z,,,,,,,,,,,,,,,,,54,,,,,,,,,,,,,,246.78000000002794,,response,,,,100,,,,,,,Space,keypress(Space),,,,,,,,-- --- ---- --- ------ ----- ------- ---- -- --- ------- --<br>------- ---------- ------ -- ----- -- ----- -- ---- ------<br>the ----- --- --- ------ -------- ----- --- ------ ----- --<br>----- ----- ---------- --- --- ------ ------ ---- -- ------<br>------- --- ------ ----- --- ---- ------- -- ---- --- --<br>------- ------,1103372,1103370,1103117.02,1103117,1103123.22,1103373.22,,22,the
screen,html.Screen,2_1_1_1_23,2022-02-15T13:14:47.643Z,,,,,,,,,,,,,,,,,54,,,,,,,,,,,,,,590.7800000000279,,response,,,,100,,,,,,,Space,keypress(Space),,,,,,,,-- --- ---- --- ------ ----- ------- ---- -- --- ------- --<br>------- ---------- ------ -- ----- -- ----- -- ---- ------<br>--- state --- --- ------ -------- ----- --- ------ ----- --<br>----- ----- ---------- --- --- ------ ------ ---- -- ------<br>------- --- ------ ----- --- ---- ------- -- ---- --- --<br>------- ------,1103974,1103964,1103373,1103373,1103373.22,1103989.9,,23,state
screen,html.Screen,2_1_1_1_24,2022-02-15T13:14:47.884Z,,,,,,,,,,,,,,,,,54,,,,,,,,,,,,,,207.10000000009313,,response,,,,100,,,,,,,Space,keypress(Space),,,,,,,,-- --- ---- --- ------ ----- ------- ---- -- --- ------- --<br>------- ---------- ------ -- ----- -- ----- -- ---- ------<br>--- ----- cut --- ------ -------- ----- --- ------ ----- --<br>----- ----- ---------- --- --- ------ ------ ---- -- ------<br>------- --- ------ ----- --- ---- ------- -- ---- --- --<br>------- ------,1104215,1104197,1103974.64,1103974,1103989.9,1104223.22,,24,cut
screen,html.Screen,2_1_1_1_25,2022-02-15T13:14:48.210Z,,,,,,,,,,,,,,,,,54,,,,,,,,,,,,,,302.78000000002794,,response,,,,100,,,,,,,Space,keypress(Space),,,,,,,,-- --- ---- --- ------ ----- ------- ---- -- --- ------- --<br>------- ---------- ------ -- ----- -- ----- -- ---- ------<br>--- ----- --- the ------ -------- ----- --- ------ ----- --<br>----- ----- ---------- --- --- ------ ------ ---- -- ------<br>------- --- ------ ----- --- ---- ------- -- ---- --- --<br>------- ------,1104540,1104526,1104214.82,1104215,1104223.22,1104556.56,,25,the
screen,html.Screen,2_1_1_1_26,2022-02-15T13:14:48.482Z,,,,,,,,,,,,,,,,,54,,,,,,,,,,,,,,250.43999999994412,,response,,,,100,,,,,,,Space,keypress(Space),,,,,,,,-- --- ---- --- ------ ----- ------- ---- -- --- ------- --<br>------- ---------- ------ -- ----- -- ----- -- ---- ------<br>--- ----- --- --- bonds' -------- ----- --- ------ ----- --<br>----- ----- ---------- --- --- ------ ------ ---- -- ------<br>------- --- ------ ----- --- ---- ------- -- ---- --- --<br>------- ------,1104813,1104807,1104540.54,1104540,1104556.56,1104823.22,,26,bonds'
screen,html.Screen,2_1_1_1_27,2022-02-15T13:14:48.850Z,,,,,,,,,,,,,,,,,54,,,,,,,,,,,,,,343.78000000002794,,response,,,,100,,,,,,,Space,keypress(Space),,,,,,,,-- --- ---- --- ------ ----- ------- ---- -- --- ------- --<br>------- ---------- ------ -- ----- -- ----- -- ---- ------<br>--- ----- --- --- ------ interest ----- --- ------ ----- --<br>----- ----- ---------- --- --- ------ ------ ---- -- ------<br>------- --- ------ ----- --- ---- ------- -- ---- --- --<br>------- ------,1105181,1105167,1104812.58,1104813,1104823.22,1105189.88,,27,interest
screen,html.Screen,2_1_1_1_28,2022-02-15T13:14:49.315Z,,,,,,,,,,,,,,,,,54,,,,,,,,,,,,,,446.12000000011176,,response,,,,100,,,,,,,Space,keypress(Space),,,,,,,,-- --- ---- --- ------ ----- ------- ---- -- --- ------- --<br>------- ---------- ------ -- ----- -- ----- -- ---- ------<br>--- ----- --- --- ------ -------- rate. --- ------ ----- --<br>----- ----- ---------- --- --- ------ ------ ---- -- ------<br>------- --- ------ ----- --- ---- ------- -- ---- --- --<br>------- ------,1105646,1105636,1105180.6,1105181,1105189.88,1105656.56,,28,rate.
screen,html.Screen,2_1_1_1_29,2022-02-15T13:14:50.037Z,,,,,,,,,,,,,,,,,54,,,,,,,,,,,,,,697.4399999999441,,response,,,,100,,,,,,,Space,keypress(Space),,,,,,,,-- --- ---- --- ------ ----- ------- ---- -- --- ------- --<br>------- ---------- ------ -- ----- -- ----- -- ---- ------<br>--- ----- --- --- ------ -------- ----- The ------ ----- --<br>----- ----- ---------- --- --- ------ ------ ---- -- ------<br>------- --- ------ ----- --- ---- ------- -- ---- --- --<br>------- ------,1106367,1106354,1105646.04,1105646,1105656.56,1106373.22,,29,The
screen,html.Screen,2_1_1_1_30,2022-02-15T13:14:50.275Z,,,,,,,,,,,,,,,,,54,,,,,,,,,,,,,,215.78000000002794,,response,,,,100,,,,,,,Space,keypress(Space),,,,,,,,-- --- ---- --- ------ ----- ------- ---- -- --- ------- --<br>------- ---------- ------ -- ----- -- ----- -- ---- ------<br>--- ----- --- --- ------ -------- ----- --- market ----- --<br>----- ----- ---------- --- --- ------ ------ ---- -- ------<br>------- --- ------ ----- --- ---- ------- -- ---- --- --<br>------- ------,1106606,1106589,1106367.32,1106367,1106373.22,1106606.56,,30,market
screen,html.Screen,2_1_1_1_31,2022-02-15T13:14:50.841Z,,,,,,,,,,,,,,,,,54,,,,,,,,,,,,,,559.4399999999441,,response,,,,100,,,,,,,Space,keypress(Space),,,,,,,,-- --- ---- --- ------ ----- ------- ---- -- --- ------- --<br>------- ---------- ------ -- ----- -- ----- -- ---- ------<br>--- ----- --- --- ------ -------- ----- --- ------ value --<br>----- ----- ---------- --- --- ------ ------ ---- -- ------<br>------- --- ------ ----- --- ---- ------- -- ---- --- --<br>------- ------,1107173,1107166,1106606.04,1106606,1106606.56,1107173.22,,31,value
screen,html.Screen,2_1_1_1_32,2022-02-15T13:14:51.314Z,,,,,,,,,,,,,,,,,54,,,,,,,,,,,,,,462.78000000002794,,response,,,,100,,,,,,,Space,keypress(Space),,,,,,,,-- --- ---- --- ------ ----- ------- ---- -- --- ------- --<br>------- ---------- ------ -- ----- -- ----- -- ---- ------<br>--- ----- --- --- ------ -------- ----- --- ------ ----- of<br>----- ----- ---------- --- --- ------ ------ ---- -- ------<br>------- --- ------ ----- --- ---- ------- -- ---- --- --<br>------- ------,1107644,1107636,1107172.48,1107173,1107173.22,1107656.56,,32,of
screen,html.Screen,2_1_1_1_33,2022-02-15T13:14:51.475Z,,,,,,,,,,,,,,,,,54,,,,,,,,,,,,,,135.43999999994412,,response,,,,100,,,,,,,Space,keypress(Space),,,,,,,,-- --- ---- --- ------ ----- ------- ---- -- --- ------- --<br>------- ---------- ------ -- ----- -- ----- -- ---- ------<br>--- ----- --- --- ------ -------- ----- --- ------ ----- --<br>these ----- ---------- --- --- ------ ------ ---- -- ------<br>------- --- ------ ----- --- ---- ------- -- ---- --- --<br>------- ------,1107805,1107792,1107644.32,1107644,1107656.56,1107806.56,,33,these
screen,html.Screen,2_1_1_1_34,2022-02-15T13:14:51.770Z,,,,,,,,,,,,,,,,,54,,,,,,,,,,,,,,282.4399999999441,,response,,,,100,,,,,,,Space,keypress(Space),,,,,,,,-- --- ---- --- ------ ----- ------- ---- -- --- ------- --<br>------- ---------- ------ -- ----- -- ----- -- ---- ------<br>--- ----- --- --- ------ -------- ----- --- ------ ----- --<br>----- bonds ---------- --- --- ------ ------ ---- -- ------<br>------- --- ------ ----- --- ---- ------- -- ---- --- --<br>------- ------,1108100,1108089,1107805.8,1107805,1107806.56,1108106.56,,34,bonds
screen,html.Screen,2_1_1_1_35,2022-02-15T13:14:52.267Z,,,,,,,,,,,,,,,,,54,,,,,,,,,,,,,,481.4399999999441,,response,,,,100,,,,,,,Space,keypress(Space),,,,,,,,"-- --- ---- --- ------ ----- ------- ---- -- --- ------- --<br>------- ---------- ------ -- ----- -- ----- -- ---- ------<br>--- ----- --- --- ------ -------- ----- --- ------ ----- --<br>----- ----- plummeted, --- --- ------ ------ ---- -- ------<br>------- --- ------ ----- --- ---- ------- -- ---- --- --<br>------- ------",1108597,1108588,1108100.96,1108101,1108106.56,1108606.56,,35,"plummeted,"
screen,html.Screen,2_1_1_1_36,2022-02-15T13:14:53.018Z,,,,,,,,,,,,,,,,,54,,,,,,,,,,,,,,732.4399999999441,,response,,,,100,,,,,,,Space,keypress(Space),,,,,,,,-- --- ---- --- ------ ----- ------- ---- -- --- ------- --<br>------- ---------- ------ -- ----- -- ----- -- ---- ------<br>--- ----- --- --- ------ -------- ----- --- ------ ----- --<br>----- ----- ---------- and --- ------ ------ ---- -- ------<br>------- --- ------ ----- --- ---- ------- -- ---- --- --<br>------- ------,1109349,1109339,1108597.02,1108597,1108606.56,1109356.56,,36,and
screen,html.Screen,2_1_1_1_37,2022-02-15T13:14:53.284Z,,,,,,,,,,,,,,,,,54,,,,,,,,,,,,,,246.43999999994412,,response,,,,100,,,,,,,Space,keypress(Space),,,,,,,,-- --- ---- --- ------ ----- ------- ---- -- --- ------- --<br>------- ---------- ------ -- ----- -- ----- -- ---- ------<br>--- ----- --- --- ------ -------- ----- --- ------ ----- --<br>----- ----- ---------- --- the ------ ------ ---- -- ------<br>------- --- ------ ----- --- ---- ------- -- ---- --- --<br>------- ------,1109614,1109603,1109349.06,1109349,1109356.56,1109623.22,,37,the
screen,html.Screen,2_1_1_1_38,2022-02-15T13:14:53.577Z,,,,,,,,,,,,,,,,,54,,,,,,,,,,,,,,277.78000000002794,,response,,,,100,,,,,,,Space,keypress(Space),,,,,,,,-- --- ---- --- ------ ----- ------- ---- -- --- ------- --<br>------- ---------- ------ -- ----- -- ----- -- ---- ------<br>--- ----- --- --- ------ -------- ----- --- ------ ----- --<br>----- ----- ---------- --- --- market ------ ---- -- ------<br>------- --- ------ ----- --- ---- ------- -- ---- --- --<br>------- ------,1109907,1109901,1109614.6,1109615,1109623.22,1109923.22,,38,market
screen,html.Screen,2_1_1_1_39,2022-02-15T13:14:54.276Z,,,,,,,,,,,,,,,,,54,,,,,,,,,,,,,,664.7800000000279,,response,,,,100,,,,,,,Space,keypress(Space),,,,,,,,-- --- ---- --- ------ ----- ------- ---- -- --- ------- --<br>------- ---------- ------ -- ----- -- ----- -- ---- ------<br>--- ----- --- --- ------ -------- ----- --- ------ ----- --<br>----- ----- ---------- --- --- ------ became ---- -- ------<br>------- --- ------ ----- --- ---- ------- -- ---- --- --<br>------- ------,1110606,1110588,1109908.06,1109909,1109923.22,1110623.22,,39,became
screen,html.Screen,2_1_1_1_40,2022-02-15T13:14:54.531Z,,,,,,,,,,,,,,,,,54,,,,,,,,,,,,,,230.78000000002794,,response,,,,100,,,,,,,Space,keypress(Space),,,,,,,,-- --- ---- --- ------ ----- ------- ---- -- --- ------- --<br>------- ---------- ------ -- ----- -- ----- -- ---- ------<br>--- ----- --- --- ------ -------- ----- --- ------ ----- --<br>----- ----- ---------- --- --- ------ ------ wary -- ------<br>------- --- ------ ----- --- ---- ------- -- ---- --- --<br>------- ------,1110861,1110854,1110606.62,1110607,1110623.22,1110873.22,,40,wary
screen,html.Screen,2_1_1_1_41,2022-02-15T13:14:54.883Z,,,,,,,,,,,,,,,,,54,,,,,,,,,,,,,,324.78000000002794,,response,,,,100,,,,,,,Space,keypress(Space),,,,,,,,-- --- ---- --- ------ ----- ------- ---- -- --- ------- --<br>------- ---------- ------ -- ----- -- ----- -- ---- ------<br>--- ----- --- --- ------ -------- ----- --- ------ ----- --<br>----- ----- ---------- --- --- ------ ------ ---- of ------<br>------- --- ------ ----- --- ---- ------- -- ---- --- --<br>------- ------,1111213,1111198,1110861.66,1110861,1110873.22,1111223.22,,41,of
screen,html.Screen,2_1_1_1_42,2022-02-15T13:14:55.117Z,,,,,,,,,,,,,,,,,54,,,,,,,,,,,,,,209.78000000002794,,response,,,,100,,,,,,,Space,keypress(Space),,,,,,,,-- --- ---- --- ------ ----- ------- ---- -- --- ------- --<br>------- ---------- ------ -- ----- -- ----- -- ---- ------<br>--- ----- --- --- ------ -------- ----- --- ------ ----- --<br>----- ----- ---------- --- --- ------ ------ ---- -- French<br>------- --- ------ ----- --- ---- ------- -- ---- --- --<br>------- ------,1111447,1111433,1111213.68,1111214,1111223.22,1111456.56,,42,French
screen,html.Screen,2_1_1_1_43,2022-02-15T13:14:55.517Z,,,,,,,,,,,,,,,,,54,,,,,,,,,,,,,,382.4399999999441,,response,,,,100,,,,,,,Space,keypress(Space),,,,,,,,-- --- ---- --- ------ ----- ------- ---- -- --- ------- --<br>------- ---------- ------ -- ----- -- ----- -- ---- ------<br>--- ----- --- --- ------ -------- ----- --- ------ ----- --<br>----- ----- ---------- --- --- ------ ------ ---- -- ------<br>credit. --- ------ ----- --- ---- ------- -- ---- --- --<br>------- ------,1111846,1111839,1111447.48,1111447,1111456.56,1111856.56,,43,credit.
screen,html.Screen,2_1_1_1_44,2022-02-15T13:14:55.721Z,,,,,,,,,,,,,,,,,54,,,,,,,,,,,,,,185.43999999994412,,response,,,,100,,,,,,,Space,keypress(Space),,,,,,,,-- --- ---- --- ------ ----- ------- ---- -- --- ------- --<br>------- ---------- ------ -- ----- -- ----- -- ---- ------<br>--- ----- --- --- ------ -------- ----- --- ------ ----- --<br>----- ----- ---------- --- --- ------ ------ ---- -- ------<br>------- The ------ ----- --- ---- ------- -- ---- --- --<br>------- ------,1112052,1112042,1111847.1,1111847,1111856.56,1112056.56,,44,The
screen,html.Screen,2_1_1_1_45,2022-02-15T13:14:56.146Z,,,,,,,,,,,,,,,,,54,,,,,,,,,,,,,,407.4399999999441,,response,,,,100,,,,,,,Space,keypress(Space),,,,,,,,-- --- ---- --- ------ ----- ------- ---- -- --- ------- --<br>------- ---------- ------ -- ----- -- ----- -- ---- ------<br>--- ----- --- --- ------ -------- ----- --- ------ ----- --<br>----- ----- ---------- --- --- ------ ------ ---- -- ------<br>------- --- French ----- --- ---- ------- -- ---- --- --<br>------- ------,1112476,1112464,1112052.2,1112052,1112056.56,1112489.88,,45,French
screen,html.Screen,2_1_1_1_46,2022-02-15T13:14:56.356Z,,,,,,,,,,,,,,,,,54,,,,,,,,,,,,,,192.12000000011176,,response,,,,100,,,,,,,Space,keypress(Space),,,,,,,,-- --- ---- --- ------ ----- ------- ---- -- --- ------- --<br>------- ---------- ------ -- ----- -- ----- -- ---- ------<br>--- ----- --- --- ------ -------- ----- --- ------ ----- --<br>----- ----- ---------- --- --- ------ ------ ---- -- ------<br>------- --- ------ state --- ---- ------- -- ---- --- --<br>------- ------,1112687,1112682,1112476.66,1112476,1112489.88,1112689.88,,46,state
screen,html.Screen,2_1_1_1_47,2022-02-15T13:14:56.773Z,,,,,,,,,,,,,,,,,54,,,,,,,,,,,,,,399.12000000011176,,response,,,,100,,,,,,,Space,keypress(Space),,,,,,,,-- --- ---- --- ------ ----- ------- ---- -- --- ------- --<br>------- ---------- ------ -- ----- -- ----- -- ---- ------<br>--- ----- --- --- ------ -------- ----- --- ------ ----- --<br>----- ----- ---------- --- --- ------ ------ ---- -- ------<br>------- --- ------ ----- was ---- ------- -- ---- --- --<br>------- ------,1113103,1113089,1112687.06,1112687,1112689.88,1113106.56,,47,was
screen,html.Screen,2_1_1_1_48,2022-02-15T13:14:56.964Z,,,,,,,,,,,,,,,,,54,,,,,,,,,,,,,,185.43999999994412,,response,,,,100,,,,,,,Space,keypress(Space),,,,,,,,-- --- ---- --- ------ ----- ------- ---- -- --- ------- --<br>------- ---------- ------ -- ----- -- ----- -- ---- ------<br>--- ----- --- --- ------ -------- ----- --- ------ ----- --<br>----- ----- ---------- --- --- ------ ------ ---- -- ------<br>------- --- ------ ----- --- left ------- -- ---- --- --<br>------- ------,1113295,1113292,1113103.94,1113104,1113106.56,1113306.56,,48,left
screen,html.Screen,2_1_1_1_49,2022-02-15T13:14:57.245Z,,,,,,,,,,,,,,,,,54,,,,,,,,,,,,,,251.43999999994412,,response,,,,100,,,,,,,Space,keypress(Space),,,,,,,,-- --- ---- --- ------ ----- ------- ---- -- --- ------- --<br>------- ---------- ------ -- ----- -- ----- -- ---- ------<br>--- ----- --- --- ------ -------- ----- --- ------ ----- --<br>----- ----- ---------- --- --- ------ ------ ---- -- ------<br>------- --- ------ ----- --- ---- without -- ---- --- --<br>------- ------,1113575,1113558,1113295.76,1113295,1113306.56,1113589.88,,49,without
screen,html.Screen,2_1_1_1_50,2022-02-15T13:14:57.669Z,,,,,,,,,,,,,,,,,54,,,,,,,,,,,,,,405.12000000011176,,response,,,,100,,,,,,,Space,keypress(Space),,,,,,,,-- --- ---- --- ------ ----- ------- ---- -- --- ------- --<br>------- ---------- ------ -- ----- -- ----- -- ---- ------<br>--- ----- --- --- ------ -------- ----- --- ------ ----- --<br>----- ----- ---------- --- --- ------ ------ ---- -- ------<br>------- --- ------ ----- --- ---- ------- an ---- --- --<br>------- ------,1113999,1113995,1113576.12,1113576,1113589.88,1114006.56,,50,an
screen,html.Screen,2_1_1_1_51,2022-02-15T13:14:57.966Z,,,,,,,,,,,,,,,,,54,,,,,,,,,,,,,,285.4399999999441,,response,,,,100,,,,,,,Space,keypress(Space),,,,,,,,-- --- ---- --- ------ ----- ------- ---- -- --- ------- --<br>------- ---------- ------ -- ----- -- ----- -- ---- ------<br>--- ----- --- --- ------ -------- ----- --- ------ ----- --<br>----- ----- ---------- --- --- ------ ------ ---- -- ------<br>------- --- ------ ----- --- ---- ------- -- easy --- --<br>------- ------,1114296,1114292,1113999.96,1114000,1114006.56,1114306.56,,51,easy
screen,html.Screen,2_1_1_1_52,2022-02-15T13:14:58.290Z,,,,,,,,,,,,,,,,,54,,,,,,,,,,,,,,296.4399999999441,,response,,,,100,,,,,,,Space,keypress(Space),,,,,,,,-- --- ---- --- ------ ----- ------- ---- -- --- ------- --<br>------- ---------- ------ -- ----- -- ----- -- ---- ------<br>--- ----- --- --- ------ -------- ----- --- ------ ----- --<br>----- ----- ---------- --- --- ------ ------ ---- -- ------<br>------- --- ------ ----- --- ---- ------- -- ---- way --<br>------- ------,1114620,1114603,1114296.46,1114297,1114306.56,1114623.22,,52,way
screen,html.Screen,2_1_1_1_53,2022-02-15T13:14:58.682Z,,,,,,,,,,,,,,,,,54,,,,,,,,,,,,,,387.78000000002794,,response,,,,100,,,,,,,Space,keypress(Space),,,,,,,,-- --- ---- --- ------ ----- ------- ---- -- --- ------- --<br>------- ---------- ------ -- ----- -- ----- -- ---- ------<br>--- ----- --- --- ------ -------- ----- --- ------ ----- --<br>----- ----- ---------- --- --- ------ ------ ---- -- ------<br>------- --- ------ ----- --- ---- ------- -- ---- --- of<br>------- ------,1115013,1115011,1114620.44,1114620,1114623.22,1115023.22,,53,of
screen,html.Screen,2_1_1_1_54,2022-02-15T13:14:59.019Z,,,,,,,,,,,,,,,,,54,,,,,,,,,,,,,,315.78000000002794,,response,,,,100,,,,,,,Space,keypress(Space),,,,,,,,-- --- ---- --- ------ ----- ------- ---- -- --- ------- --<br>------- ---------- ------ -- ----- -- ----- -- ---- ------<br>--- ----- --- --- ------ -------- ----- --- ------ ----- --<br>----- ----- ---------- --- --- ------ ------ ---- -- ------<br>------- --- ------ ----- --- ---- ------- -- ---- --- --<br>raising ------,1115349,1115339,1115012.6,1115013,1115023.22,1115356.56,,54,raising
screen,html.Screen,2_1_1_1_55,2022-02-15T13:14:59.267Z,,,,,,,,,,,,,,,,,54,,,,,,,,,,,,,,232.43999999994412,,response,,,,100,,,,,,,Space,keypress(Space),,,,,,,,-- --- ---- --- ------ ----- ------- ---- -- --- ------- --<br>------- ---------- ------ -- ----- -- ----- -- ---- ------<br>--- ----- --- --- ------ -------- ----- --- ------ ----- --<br>----- ----- ---------- --- --- ------ ------ ---- -- ------<br>------- --- ------ ----- --- ---- ------- -- ---- --- --<br>------- money.,1115598,1115589,1115349.48,1115349,1115356.56,1115606.56,,55,money.
Item 100,flow.Loop,2_1_1_1,2022-02-15T13:14:59.268Z,,,,,,,,,,,,,,,,,,,,,,,,,,,,,,,20849.100000000093,,completion,,,,,E,,,,,,,,,,,silence,,,,,1115598,1115589,1094723.22,1094725,1094739.9,1115606.56,,,
Question 1,html.Screen,2_1_1_2,2022-02-15T13:15:01.679Z,,,,,,,,,,,,,,,,,,,,,,,,,,,,true,TRUE,,2388.439999999944,,response,,,,100,E,,,,,,TRUE,click #choice-1,,,,silence,,,,,1118010,1117995,1115598.7,1115599,1115606.56,1118023.22,,,
Question 2,html.Screen,2_1_1_3,2022-02-15T13:15:03.535Z,,,,,,,,,,,,,,,,,,,,,,,,,,,,true,FALSE,,1829.780000000028,,response,,,,100,E,,,,,,FALSE,click #choice-2,,,,silence,,,,,1119866,1119853,1118009.32,1118010,1118023.22,1119873.2,,,
Item 100,flow.Sequence,2_1_1,2022-02-15T13:15:03.535Z,,,,,,,,,,,,,,,,,,,,,,,,,,,,,,,35113.10000000009,,completion,,,,,,,,,,,,,,,,,,,,,1119866,1119853,1084739.56,1084741,1084739.9,1119873.2,,,
End of Practice,html.Page,2_1_2,2022-02-15T13:15:06.860Z,,,,,,,,,,,,,,,,,,,,,,,,,,,,,,,3317.8000000000466,,form submission,,,,,,,,,,,,,,,,,,,,,1123191,1123191,1119865.16,1119866,1119873.2,1123189.88,,,
Practice,flow.Sequence,2_1,2022-02-15T13:15:06.860Z,,,,,,,,,,,,,,,,,,,,,,,,,,,,,,,77284.40000000002,,completion,,,,,,,,,,,,,,,,,,,,,1123192,1123191,1045905.84,1045910,1045906.6,1123189.88,,,
Trap_instruction,html.Page,2_2_0,2022-02-15T13:15:11.282Z,,,,,,,,,,,,,,,,,,,,,,,,,,,,,,,4423.120000000112,,form submission,,,,,,,,,,,,,,,,,,,,,1127613,1127613,1123189.54,1123192,1123189.88,1127623.2,,,
trap_trial,html.Screen,2_2_1,2022-02-15T13:15:14.939Z,,,,,,,,,,,,,,,,,,,,,,,,,,,,true,1,,3637.8000000000466,,response,,,,,,,,,,,1,click #choice-1,,,,,,,,,1131270,1131261,1127611.46,1127613,1127623.2,1131273.2,,,
end of trap trial,html.Page,2_2_2,2022-02-15T13:15:16.864Z,,,,,,,,,,,,,,,,,,,,,,,,,,,,,,,1920.8000000000466,,form submission,,,,,,,,,,,,,,,,,,,,,1133195,1133194,1131269.5,1131270,1131273.2,1133206.54,,,
Trap 1,flow.Sequence,2_2,2022-02-15T13:15:16.865Z,,,,,,,,,,,,,,,,,,,,,,,,,,,,,,,10004.120000000112,,completion,,,,,,,,,,,,,,,,,,,,,1133195,1133194,1123189.54,1123192,1123189.88,1133206.54,,,
Standby,html.Page,2_3_0,2022-02-15T13:15:24.860Z,,,,,,,,,,,,,,,,,,,,,,,,,,,,,,,8000,,timeout,,,,,,,,,,,,,,,,,,,,,1141191,1141189.88,1133193.4,1133195,1133206.54,1141206.54,,,
Holding screen,html.Screen,2_3_1_0_0,2022-02-15T13:15:31.860Z,,,,,,,,,,,,,,,,,,,,,,,,,,,,,,,7000,,timeout,,,,,,,,,,,,,,,,,,,,,1148191,1148189.88,1141189.88,1141191,1141206.54,1148206.54,,,
screen,html.Screen,2_3_1_0_1_0,2022-02-15T13:15:32.628Z,,,,,,,,,,,,,,,,,51,,,,,,,,,,,,,,740.4599999999627,,response,,,,13,E,,,,,,Space,keypress(Space),,,,lyrical,,,,American -------- --- --- ---- --- --- ------ -- --------<br>---- --------- --- ------- ------------ ---------- ---------<br>--- ---------- ------- ---------- ------- -- -------- ----<br>---- --- ------ ----- ------ -- ---- --- ----- -- - -------<br>-------- -- --- --- -- ----- ----------- ----- -----------<br>---- --- ---------- --- ---- --- -- ----------,1148958,1148947,1148189.88,1148191,1148206.54,1148973.2,,0,American
screen,html.Screen,2_3_1_0_1_1,2022-02-15T13:15:32.947Z,,,,,,,,,,,,,,,,,51,,,,,,,,,,,,,,286.80000000004657,,response,,,,13,E,,,,,,Space,keypress(Space),,,,lyrical,,,,-------- industry --- --- ---- --- --- ------ -- --------<br>---- --------- --- ------- ------------ ---------- ---------<br>--- ---------- ------- ---------- ------- -- -------- ----<br>---- --- ------ ----- ------ -- ---- --- ----- -- - -------<br>-------- -- --- --- -- ----- ----------- ----- -----------<br>---- --- ---------- --- ---- --- -- ----------,1149277,1149260,1148956.54,1148959,1148973.2,1149289.86,,1,industry
screen,html.Screen,2_3_1_0_1_2,2022-02-15T13:15:33.147Z,,,,,,,,,,,,,,,,,51,,,,,,,,,,,,,,174.13999999989755,,response,,,,13,E,,,,,,Space,keypress(Space),,,,lyrical,,,,-------- -------- may --- ---- --- --- ------ -- --------<br>---- --------- --- ------- ------------ ---------- ---------<br>--- ---------- ------- ---------- ------- -- -------- ----<br>---- --- ------ ----- ------ -- ---- --- ----- -- - -------<br>-------- -- --- --- -- ----- ----------- ----- -----------<br>---- --- ---------- --- ---- --- -- ----------,1149478,1149464,1149277.72,1149277,1149289.86,1149489.86,,2,may
screen,html.Screen,2_3_1_0_1_3,2022-02-15T13:15:33.306Z,,,,,,,,,,,,,,,,,51,,,,,,,,,,,,,,130.13999999989755,,response,,,,13,E,,,,,,Space,keypress(Space),,,,lyrical,,,,-------- -------- --- not ---- --- --- ------ -- --------<br>---- --------- --- ------- ------------ ---------- ---------<br>--- ---------- ------- ---------- ------- -- -------- ----<br>---- --- ------ ----- ------ -- ---- --- ----- -- - -------<br>-------- -- --- --- -- ----- ----------- ----- -----------<br>---- --- ---------- --- ---- --- -- ----------,1149637,1149620,1149478.1,1149478,1149489.86,1149639.86,,3,not
screen,html.Screen,2_3_1_0_1_4,2022-02-15T13:15:33.486Z,,,,,,,,,,,,,,,,,51,,,,,,,,,,,,,,168.13999999989755,,response,,,,13,E,,,,,,Space,keypress(Space),,,,lyrical,,,,-------- -------- --- --- know --- --- ------ -- --------<br>---- --------- --- ------- ------------ ---------- ---------<br>--- ---------- ------- ---------- ------- -- -------- ----<br>---- --- ------ ----- ------ -- ---- --- ----- -- - -------<br>-------- -- --- --- -- ----- ----------- ----- -----------<br>---- --- ---------- --- ---- --- -- ----------,1149816,1149808,1149636.88,1149637,1149639.86,1149823.2,,4,know
screen,html.Screen,2_3_1_0_1_5,2022-02-15T13:15:33.785Z,,,,,,,,,,,,,,,,,51,,,,,,,,,,,,,,279.80000000004657,,response,,,,13,E,,,,,,Space,keypress(Space),,,,lyrical,,,,"-------- -------- --- --- ---- it, --- ------ -- --------<br>---- --------- --- ------- ------------ ---------- ---------<br>--- ---------- ------- ---------- ------- -- -------- ----<br>---- --- ------ ----- ------ -- ---- --- ----- -- - -------<br>-------- -- --- --- -- ----- ----------- ----- -----------<br>---- --- ---------- --- ---- --- -- ----------",1150116,1150103,1149816.44,1149817,1149823.2,1150123.2,,5,"it,"
screen,html.Screen,2_3_1_0_1_6,2022-02-15T13:15:34.049Z,,,,,,,,,,,,,,,,,51,,,,,,,,,,,,,,246.80000000004657,,response,,,,13,E,,,,,,Space,keypress(Space),,,,lyrical,,,,-------- -------- --- --- ---- --- but ------ -- --------<br>---- --------- --- ------- ------------ ---------- ---------<br>--- ---------- ------- ---------- ------- -- -------- ----<br>---- --- ------ ----- ------ -- ---- --- ----- -- - -------<br>-------- -- --- --- -- ----- ----------- ----- -----------<br>---- --- ---------- --- ---- --- -- ----------,1150380,1150370,1150116.1,1150116,1150123.2,1150389.86,,6,but
screen,html.Screen,2_3_1_0_1_7,2022-02-15T13:15:34.434Z,,,,,,,,,,,,,,,,,51,,,,,,,,,,,,,,371.13999999989755,,response,,,,13,E,,,,,,Space,keypress(Space),,,,lyrical,,,,-------- -------- --- --- ---- --- --- debate -- --------<br>---- --------- --- ------- ------------ ---------- ---------<br>--- ---------- ------- ---------- ------- -- -------- ----<br>---- --- ------ ----- ------ -- ---- --- ----- -- - -------<br>-------- -- --- --- -- ----- ----------- ----- -----------<br>---- --- ---------- --- ---- --- -- ----------,1150765,1150761,1150380.36,1150381,1150389.86,1150773.2,,7,debate
screen,html.Screen,2_3_1_0_1_8,2022-02-15T13:15:34.676Z,,,,,,,,,,,,,,,,,51,,,,,,,,,,,,,,220.80000000004657,,response,,,,13,E,,,,,,Space,keypress(Space),,,,lyrical,,,,-------- -------- --- --- ---- --- --- ------ in --------<br>---- --------- --- ------- ------------ ---------- ---------<br>--- ---------- ------- ---------- ------- -- -------- ----<br>---- --- ------ ----- ------ -- ---- --- ----- -- - -------<br>-------- -- --- --- -- ----- ----------- ----- -----------<br>---- --- ---------- --- ---- --- -- ----------,1151007,1150994,1150764.5,1150765,1150773.2,1151023.2,,8,in
screen,html.Screen,2_3_1_0_1_9,2022-02-15T13:15:34.843Z,,,,,,,,,,,,,,,,,51,,,,,,,,,,,,,,142.80000000004657,,response,,,,13,E,,,,,,Space,keypress(Space),,,,lyrical,,,,-------- -------- --- --- ---- --- --- ------ -- Congress<br>---- --------- --- ------- ------------ ---------- ---------<br>--- ---------- ------- ---------- ------- -- -------- ----<br>---- --- ------ ----- ------ -- ---- --- ----- -- - -------<br>-------- -- --- --- -- ----- ----------- ----- -----------<br>---- --- ---------- --- ---- --- -- ----------,1151173,1151166,1151007.16,1151007,1151023.2,1151173.2,,9,Congress
screen,html.Screen,2_3_1_0_1_10,2022-02-15T13:15:35.138Z,,,,,,,,,,,,,,,,,51,,,,,,,,,,,,,,290.80000000004657,,response,,,,13,E,,,,,,Space,keypress(Space),,,,lyrical,,,,-------- -------- --- --- ---- --- --- ------ -- --------<br>over --------- --- ------- ------------ ---------- ---------<br>--- ---------- ------- ---------- ------- -- -------- ----<br>---- --- ------ ----- ------ -- ---- --- ----- -- - -------<br>-------- -- --- --- -- ----- ----------- ----- -----------<br>---- --- ---------- --- ---- --- -- ----------,1151468,1151464,1151172.84,1151173,1151173.2,1151473.2,,10,over
screen,html.Screen,2_3_1_0_1_11,2022-02-15T13:15:35.874Z,,,,,,,,,,,,,,,,,51,,,,,,,,,,,,,,724.8000000000466,,response,,,,13,E,,,,,,Space,keypress(Space),,,,lyrical,,,,-------- -------- --- --- ---- --- --- ------ -- --------<br>---- reforming --- ------- ------------ ---------- ---------<br>--- ---------- ------- ---------- ------- -- -------- ----<br>---- --- ------ ----- ------ -- ---- --- ----- -- - -------<br>-------- -- --- --- -- ----- ----------- ----- -----------<br>---- --- ---------- --- ---- --- -- ----------,1152204,1152198,1151468.52,1151468,1151473.2,1152206.52,,11,reforming
screen,html.Screen,2_3_1_0_1_12,2022-02-15T13:15:36.066Z,,,,,,,,,,,,,,,,,51,,,,,,,,,,,,,,178.47999999998137,,response,,,,13,E,,,,,,Space,keypress(Space),,,,lyrical,,,,-------- -------- --- --- ---- --- --- ------ -- --------<br>---- --------- the ------- ------------ ---------- ---------<br>--- ---------- ------- ---------- ------- -- -------- ----<br>---- --- ------ ----- ------ -- ---- --- ----- -- - -------<br>-------- -- --- --- -- ----- ----------- ----- -----------<br>---- --- ---------- --- ---- --- -- ----------,1152396,1152385,1152204.18,1152204,1152206.52,1152406.52,,12,the
screen,html.Screen,2_3_1_0_1_13,2022-02-15T13:15:36.242Z,,,,,,,,,,,,,,,,,51,,,,,,,,,,,,,,151.47999999998137,,response,,,,13,E,,,,,,Space,keypress(Space),,,,lyrical,,,,-------- -------- --- --- ---- --- --- ------ -- --------<br>---- --------- --- federal ------------ ---------- ---------<br>--- ---------- ------- ---------- ------- -- -------- ----<br>---- --- ------ ----- ------ -- ---- --- ----- -- - -------<br>-------- -- --- --- -- ----- ----------- ----- -----------<br>---- --- ---------- --- ---- --- -- ----------,1152573,1152558,1152396.6,1152396,1152406.52,1152573.2,,13,federal
screen,html.Screen,2_3_1_0_1_14,2022-02-15T13:15:36.410Z,,,,,,,,,,,,,,,,,51,,,,,,,,,,,,,,154.80000000004657,,response,,,,13,E,,,,,,Space,keypress(Space),,,,lyrical,,,,-------- -------- --- --- ---- --- --- ------ -- --------<br>---- --------- --- ------- government's ---------- ---------<br>--- ---------- ------- ---------- ------- -- -------- ----<br>---- --- ------ ----- ------ -- ---- --- ----- -- - -------<br>-------- -- --- --- -- ----- ----------- ----- -----------<br>---- --- ---------- --- ---- --- -- ----------,1152740,1152728,1152572.94,1152573,1152573.2,1152756.52,,14,government's
screen,html.Screen,2_3_1_0_1_15,2022-02-15T13:15:37.330Z,,,,,,,,,,,,,,,,,51,,,,,,,,,,,,,,894.4799999999814,,response,,,,13,E,,,,,,Space,keypress(Space),,,,lyrical,,,,-------- -------- --- --- ---- --- --- ------ -- --------<br>---- --------- --- ------- ------------ regulatory ---------<br>--- ---------- ------- ---------- ------- -- -------- ----<br>---- --- ------ ----- ------ -- ---- --- ----- -- - -------<br>-------- -- --- --- -- ----- ----------- ----- -----------<br>---- --- ---------- --- ---- --- -- ----------,1153660,1153651,1152740.4,1152740,1152756.52,1153673.2,,15,regulatory
screen,html.Screen,2_3_1_0_1_16,2022-02-15T13:15:37.515Z,,,,,,,,,,,,,,,,,51,,,,,,,,,,,,,,165.80000000004657,,response,,,,13,E,,,,,,Space,keypress(Space),,,,lyrical,,,,-------- -------- --- --- ---- --- --- ------ -- --------<br>---- --------- --- ------- ------------ ---------- apparatus<br>--- ---------- ------- ---------- ------- -- -------- ----<br>---- --- ------ ----- ------ -- ---- --- ----- -- - -------<br>-------- -- --- --- -- ----- ----------- ----- -----------<br>---- --- ---------- --- ---- --- -- ----------,1153846,1153839,1153660.72,1153660,1153673.2,1153856.52,,16,apparatus
screen,html.Screen,2_3_1_0_1_17,2022-02-15T13:15:37.850Z,,,,,,,,,,,,,,,,,51,,,,,,,,,,,,,,310.4799999999814,,response,,,,13,E,,,,,,Space,keypress(Space),,,,lyrical,,,,-------- -------- --- --- ---- --- --- ------ -- --------<br>---- --------- --- ------- ------------ ---------- ---------<br>may ---------- ------- ---------- ------- -- -------- ----<br>---- --- ------ ----- ------ -- ---- --- ----- -- - -------<br>-------- -- --- --- -- ----- ----------- ----- -----------<br>---- --- ---------- --- ---- --- -- ----------,1154180,1154167,1153845.52,1153846,1153856.52,1154189.86,,17,may
screen,html.Screen,2_3_1_0_1_18,2022-02-15T13:15:38.073Z,,,,,,,,,,,,,,,,,51,,,,,,,,,,,,,,210.13999999989755,,response,,,,13,E,,,,,,Space,keypress(Space),,,,lyrical,,,,-------- -------- --- --- ---- --- --- ------ -- --------<br>---- --------- --- ------- ------------ ---------- ---------<br>--- profoundly ------- ---------- ------- -- -------- ----<br>---- --- ------ ----- ------ -- ---- --- ----- -- - -------<br>-------- -- --- --- -- ----- ----------- ----- -----------<br>---- --- ---------- --- ---- --- -- ----------,1154404,1154400,1154180.88,1154180,1154189.86,1154406.52,,18,profoundly
screen,html.Screen,2_3_1_0_1_19,2022-02-15T13:15:38.445Z,,,,,,,,,,,,,,,,,51,,,,,,,,,,,,,,353.4799999999814,,response,,,,13,E,,,,,,Space,keypress(Space),,,,lyrical,,,,-------- -------- --- --- ---- --- --- ------ -- --------<br>---- --------- --- ------- ------------ ---------- ---------<br>--- ---------- improve ---------- ------- -- -------- ----<br>---- --- ------ ----- ------ -- ---- --- ----- -- - -------<br>-------- -- --- --- -- ----- ----------- ----- -----------<br>---- --- ---------- --- ---- --- -- ----------,1154775,1154760,1154404.36,1154404,1154406.52,1154789.86,,19,improve
screen,html.Screen,2_3_1_0_1_20,2022-02-15T13:15:38.857Z,,,,,,,,,,,,,,,,,51,,,,,,,,,,,,,,393.13999999989755,,response,,,,13,E,,,,,,Space,keypress(Space),,,,lyrical,,,,-------- -------- --- --- ---- --- --- ------ -- --------<br>---- --------- --- ------- ------------ ---------- ---------<br>--- ---------- ------- companies' ------- -- -------- ----<br>---- --- ------ ----- ------ -- ---- --- ----- -- - -------<br>-------- -- --- --- -- ----- ----------- ----- -----------<br>---- --- ---------- --- ---- --- -- ----------,1155188,1155183,1154776.54,1154776,1154789.86,1155189.86,,20,companies'
screen,html.Screen,2_3_1_0_1_21,2022-02-15T13:15:39.338Z,,,,,,,,,,,,,,,,,51,,,,,,,,,,,,,,460.13999999989755,,response,,,,13,E,,,,,,Space,keypress(Space),,,,lyrical,,,,-------- -------- --- --- ---- --- --- ------ -- --------<br>---- --------- --- ------- ------------ ---------- ---------<br>--- ---------- ------- ---------- ability -- -------- ----<br>---- --- ------ ----- ------ -- ---- --- ----- -- - -------<br>-------- -- --- --- -- ----- ----------- ----- -----------<br>---- --- ---------- --- ---- --- -- ----------,1155669,1155650,1155188.1,1155188,1155189.86,1155673.2,,21,ability
screen,html.Screen,2_3_1_0_1_22,2022-02-15T13:15:39.796Z,,,,,,,,,,,,,,,,,51,,,,,,,,,,,,,,446.80000000004657,,response,,,,13,E,,,,,,Space,keypress(Space),,,,lyrical,,,,-------- -------- --- --- ---- --- --- ------ -- --------<br>---- --------- --- ------- ------------ ---------- ---------<br>--- ---------- ------- ---------- ------- to -------- ----<br>---- --- ------ ----- ------ -- ---- --- ----- -- - -------<br>-------- -- --- --- -- ----- ----------- ----- -----------<br>---- --- ---------- --- ---- --- -- ----------,1156126,1156120,1155669,1155669,1155673.2,1156139.86,,22,to
screen,html.Screen,2_3_1_0_1_23,2022-02-15T13:15:40.242Z,,,,,,,,,,,,,,,,,51,,,,,,,,,,,,,,417.13999999989755,,response,,,,13,E,,,,,,Space,keypress(Space),,,,lyrical,,,,-------- -------- --- --- ---- --- --- ------ -- --------<br>---- --------- --- ------- ------------ ---------- ---------<br>--- ---------- ------- ---------- ------- -- survive. ----<br>---- --- ------ ----- ------ -- ---- --- ----- -- - -------<br>-------- -- --- --- -- ----- ----------- ----- -----------<br>---- --- ---------- --- ---- --- -- ----------,1156573,1156557,1156126.68,1156126,1156139.86,1156573.2,,23,survive.
screen,html.Screen,2_3_1_0_1_24,2022-02-15T13:15:40.947Z,,,,,,,,,,,,,,,,,51,,,,,,,,,,,,,,687.8000000000466,,response,,,,13,E,,,,,,Space,keypress(Space),,,,lyrical,,,,-------- -------- --- --- ---- --- --- ------ -- --------<br>---- --------- --- ------- ------------ ---------- ---------<br>--- ---------- ------- ---------- ------- -- -------- This<br>---- --- ------ ----- ------ -- ---- --- ----- -- - -------<br>-------- -- --- --- -- ----- ----------- ----- -----------<br>---- --- ---------- --- ---- --- -- ----------,1157277,1157261,1156572.64,1156573,1156573.2,1157289.86,,24,This
screen,html.Screen,2_3_1_0_1_25,2022-02-15T13:15:41.251Z,,,,,,,,,,,,,,,,,51,,,,,,,,,,,,,,283.13999999989755,,response,,,,13,E,,,,,,Space,keypress(Space),,,,lyrical,,,,-------- -------- --- --- ---- --- --- ------ -- --------<br>---- --------- --- ------- ------------ ---------- ---------<br>--- ---------- ------- ---------- ------- -- -------- ----<br>week --- ------ ----- ------ -- ---- --- ----- -- - -------<br>-------- -- --- --- -- ----- ----------- ----- -----------<br>---- --- ---------- --- ---- --- -- ----------,1157581,1157573,1157277.14,1157277,1157289.86,1157589.86,,25,week
screen,html.Screen,2_3_1_0_1_26,2022-02-15T13:15:41.459Z,,,,,,,,,,,,,,,,,51,,,,,,,,,,,,,,186.13999999989755,,response,,,,13,E,,,,,,Space,keypress(Space),,,,lyrical,,,,-------- -------- --- --- ---- --- --- ------ -- --------<br>---- --------- --- ------- ------------ ---------- ---------<br>--- ---------- ------- ---------- ------- -- -------- ----<br>---- the ------ ----- ------ -- ---- --- ----- -- - -------<br>-------- -- --- --- -- ----- ----------- ----- -----------<br>---- --- ---------- --- ---- --- -- ----------,1157789,1157776,1157581.22,1157582,1157589.86,1157806.52,,26,the
screen,html.Screen,2_3_1_0_1_27,2022-02-15T13:15:41.762Z,,,,,,,,,,,,,,,,,51,,,,,,,,,,,,,,281.4799999999814,,response,,,,13,E,,,,,,Space,keypress(Space),,,,lyrical,,,,-------- -------- --- --- ---- --- --- ------ -- --------<br>---- --------- --- ------- ------------ ---------- ---------<br>--- ---------- ------- ---------- ------- -- -------- ----<br>---- --- Senate ----- ------ -- ---- --- ----- -- - -------<br>-------- -- --- --- -- ----- ----------- ----- -----------<br>---- --- ---------- --- ---- --- -- ----------,1158093,1158088,1157789.88,1157789,1157806.52,1158106.52,,27,Senate
screen,html.Screen,2_3_1_0_1_28,2022-02-15T13:15:42.043Z,,,,,,,,,,,,,,,,,51,,,,,,,,,,,,,,263.4799999999814,,response,,,,13,E,,,,,,Space,keypress(Space),,,,lyrical,,,,-------- -------- --- --- ---- --- --- ------ -- --------<br>---- --------- --- ------- ------------ ---------- ---------<br>--- ---------- ------- ---------- ------- -- -------- ----<br>---- --- ------ seems ------ -- ---- --- ----- -- - -------<br>-------- -- --- --- -- ----- ----------- ----- -----------<br>---- --- ---------- --- ---- --- -- ----------,1158373,1158370,1158092.68,1158093,1158106.52,1158389.86,,28,seems
screen,html.Screen,2_3_1_0_1_29,2022-02-15T13:15:42.435Z,,,,,,,,,,,,,,,,,51,,,,,,,,,,,,,,371.13999999989755,,response,,,,13,E,,,,,,Space,keypress(Space),,,,lyrical,,,,-------- -------- --- --- ---- --- --- ------ -- --------<br>---- --------- --- ------- ------------ ---------- ---------<br>--- ---------- ------- ---------- ------- -- -------- ----<br>---- --- ------ ----- poised -- ---- --- ----- -- - -------<br>-------- -- --- --- -- ----- ----------- ----- -----------<br>---- --- ---------- --- ---- --- -- ----------,1158765,1158761,1158373.92,1158374,1158389.86,1158773.2,,29,poised
screen,html.Screen,2_3_1_0_1_30,2022-02-15T13:15:42.693Z,,,,,,,,,,,,,,,,,51,,,,,,,,,,,,,,236.80000000004657,,response,,,,13,E,,,,,,Space,keypress(Space),,,,lyrical,,,,-------- -------- --- --- ---- --- --- ------ -- --------<br>---- --------- --- ------- ------------ ---------- ---------<br>--- ---------- ------- ---------- ------- -- -------- ----<br>---- --- ------ ----- ------ to ---- --- ----- -- - -------<br>-------- -- --- --- -- ----- ----------- ----- -----------<br>---- --- ---------- --- ---- --- -- ----------,1159023,1159010,1158765.84,1158766,1158773.2,1159039.86,,30,to
screen,html.Screen,2_3_1_0_1_31,2022-02-15T13:15:42.907Z,,,,,,,,,,,,,,,,,51,,,,,,,,,,,,,,189.13999999989755,,response,,,,13,E,,,,,,Space,keypress(Space),,,,lyrical,,,,-------- -------- --- --- ---- --- --- ------ -- --------<br>---- --------- --- ------- ------------ ---------- ---------<br>--- ---------- ------- ---------- ------- -- -------- ----<br>---- --- ------ ----- ------ -- join --- ----- -- - -------<br>-------- -- --- --- -- ----- ----------- ----- -----------<br>---- --- ---------- --- ---- --- -- ----------,1159237,1159229,1159024.08,1159024,1159039.86,1159239.86,,31,join
screen,html.Screen,2_3_1_0_1_32,2022-02-15T13:15:43.067Z,,,,,,,,,,,,,,,,,51,,,,,,,,,,,,,,145.13999999989755,,response,,,,13,E,,,,,,Space,keypress(Space),,,,lyrical,,,,-------- -------- --- --- ---- --- --- ------ -- --------<br>---- --------- --- ------- ------------ ---------- ---------<br>--- ---------- ------- ---------- ------- -- -------- ----<br>---- --- ------ ----- ------ -- ---- the ----- -- - -------<br>-------- -- --- --- -- ----- ----------- ----- -----------<br>---- --- ---------- --- ---- --- -- ----------,1159398,1159385,1159237.7,1159237,1159239.86,1159406.52,,32,the
screen,html.Screen,2_3_1_0_1_33,2022-02-15T13:15:43.267Z,,,,,,,,,,,,,,,,,51,,,,,,,,,,,,,,182.47999999998137,,response,,,,13,E,,,,,,Space,keypress(Space),,,,lyrical,,,,-------- -------- --- --- ---- --- --- ------ -- --------<br>---- --------- --- ------- ------------ ---------- ---------<br>--- ---------- ------- ---------- ------- -- -------- ----<br>---- --- ------ ----- ------ -- ---- --- House -- - -------<br>-------- -- --- --- -- ----- ----------- ----- -----------<br>---- --- ---------- --- ---- --- -- ----------,1159597,1159589,1159397.86,1159398,1159406.52,1159606.52,,33,House
screen,html.Screen,2_3_1_0_1_34,2022-02-15T13:15:43.499Z,,,,,,,,,,,,,,,,,51,,,,,,,,,,,,,,216.47999999998137,,response,,,,13,E,,,,,,Space,keypress(Space),,,,lyrical,,,,-------- -------- --- --- ---- --- --- ------ -- --------<br>---- --------- --- ------- ------------ ---------- ---------<br>--- ---------- ------- ---------- ------- -- -------- ----<br>---- --- ------ ----- ------ -- ---- --- ----- in - -------<br>-------- -- --- --- -- ----- ----------- ----- -----------<br>---- --- ---------- --- ---- --- -- ----------,1159829,1159823,1159597.34,1159597,1159606.52,1159839.86,,34,in
screen,html.Screen,2_3_1_0_1_35,2022-02-15T13:15:43.754Z,,,,,,,,,,,,,,,,,51,,,,,,,,,,,,,,232.13999999989755,,response,,,,13,E,,,,,,Space,keypress(Space),,,,lyrical,,,,-------- -------- --- --- ---- --- --- ------ -- --------<br>---- --------- --- ------- ------------ ---------- ---------<br>--- ---------- ------- ---------- ------- -- -------- ----<br>---- --- ------ ----- ------ -- ---- --- ----- -- a -------<br>-------- -- --- --- -- ----- ----------- ----- -----------<br>---- --- ---------- --- ---- --- -- ----------,1160084,1160072,1159829.5,1159829,1159839.86,1160089.86,,35,a
screen,html.Screen,2_3_1_0_1_36,2022-02-15T13:15:43.963Z,,,,,,,,,,,,,,,,,51,,,,,,,,,,,,,,186.13999999989755,,response,,,,13,E,,,,,,Space,keypress(Space),,,,lyrical,,,,-------- -------- --- --- ---- --- --- ------ -- --------<br>---- --------- --- ------- ------------ ---------- ---------<br>--- ---------- ------- ---------- ------- -- -------- ----<br>---- --- ------ ----- ------ -- ---- --- ----- -- - massive<br>-------- -- --- --- -- ----- ----------- ----- -----------<br>---- --- ---------- --- ---- --- -- ----------,1160293,1160276,1160084.12,1160084,1160089.86,1160306.52,,36,massive
screen,html.Screen,2_3_1_0_1_37,2022-02-15T13:15:44.140Z,,,,,,,,,,,,,,,,,51,,,,,,,,,,,,,,157.47999999998137,,response,,,,13,E,,,,,,Space,keypress(Space),,,,lyrical,,,,-------- -------- --- --- ---- --- --- ------ -- --------<br>---- --------- --- ------- ------------ ---------- ---------<br>--- ---------- ------- ---------- ------- -- -------- ----<br>---- --- ------ ----- ------ -- ---- --- ----- -- - -------<br>overhaul -- --- --- -- ----- ----------- ----- -----------<br>---- --- ---------- --- ---- --- -- ----------,1160471,1160464,1160293.32,1160293,1160306.52,1160473.2,,37,overhaul
screen,html.Screen,2_3_1_0_1_38,2022-02-15T13:15:44.332Z,,,,,,,,,,,,,,,,,51,,,,,,,,,,,,,,177.80000000004657,,response,,,,13,E,,,,,,Space,keypress(Space),,,,lyrical,,,,-------- -------- --- --- ---- --- --- ------ -- --------<br>---- --------- --- ------- ------------ ---------- ---------<br>--- ---------- ------- ---------- ------- -- -------- ----<br>---- --- ------ ----- ------ -- ---- --- ----- -- - -------<br>-------- of --- --- -- ----- ----------- ----- -----------<br>---- --- ---------- --- ---- --- -- ----------,1160663,1160651,1160471.1,1160471,1160473.2,1160673.2,,38,of
screen,html.Screen,2_3_1_0_1_39,2022-02-15T13:15:44.514Z,,,,,,,,,,,,,,,,,51,,,,,,,,,,,,,,165.80000000004657,,response,,,,13,E,,,,,,Space,keypress(Space),,,,lyrical,,,,-------- -------- --- --- ---- --- --- ------ -- --------<br>---- --------- --- ------- ------------ ---------- ---------<br>--- ---------- ------- ---------- ------- -- -------- ----<br>---- --- ------ ----- ------ -- ---- --- ----- -- - -------<br>-------- -- the --- -- ----- ----------- ----- -----------<br>---- --- ---------- --- ---- --- -- ----------,1160845,1160839,1160663.08,1160663,1160673.2,1160856.52,,39,the
screen,html.Screen,2_3_1_0_1_40,2022-02-15T13:15:44.715Z,,,,,,,,,,,,,,,,,51,,,,,,,,,,,,,,184.47999999998137,,response,,,,13,E,,,,,,Space,keypress(Space),,,,lyrical,,,,-------- -------- --- --- ---- --- --- ------ -- --------<br>---- --------- --- ------- ------------ ---------- ---------<br>--- ---------- ------- ---------- ------- -- -------- ----<br>---- --- ------ ----- ------ -- ---- --- ----- -- - -------<br>-------- -- --- way -- ----- ----------- ----- -----------<br>---- --- ---------- --- ---- --- -- ----------,1161046,1161041,1160845.14,1160845,1160856.52,1161056.52,,40,way
screen,html.Screen,2_3_1_0_1_41,2022-02-15T13:15:44.906Z,,,,,,,,,,,,,,,,,51,,,,,,,,,,,,,,172.47999999998137,,response,,,,13,E,,,,,,Space,keypress(Space),,,,lyrical,,,,-------- -------- --- --- ---- --- --- ------ -- --------<br>---- --------- --- ------- ------------ ---------- ---------<br>--- ---------- ------- ---------- ------- -- -------- ----<br>---- --- ------ ----- ------ -- ---- --- ----- -- - -------<br>-------- -- --- --- in ----- ----------- ----- -----------<br>---- --- ---------- --- ---- --- -- ----------,1161236,1161229,1161045.74,1161046,1161056.52,1161239.86,,41,in
screen,html.Screen,2_3_1_0_1_42,2022-02-15T13:15:45.066Z,,,,,,,,,,,,,,,,,51,,,,,,,,,,,,,,146.13999999989755,,response,,,,13,E,,,,,,Space,keypress(Space),,,,lyrical,,,,-------- -------- --- --- ---- --- --- ------ -- --------<br>---- --------- --- ------- ------------ ---------- ---------<br>--- ---------- ------- ---------- ------- -- -------- ----<br>---- --- ------ ----- ------ -- ---- --- ----- -- - -------<br>-------- -- --- --- -- which ----------- ----- -----------<br>---- --- ---------- --- ---- --- -- ----------,1161396,1161386,1161236.3,1161236,1161239.86,1161406.52,,42,which
screen,html.Screen,2_3_1_0_1_43,2022-02-15T13:15:45.435Z,,,,,,,,,,,,,,,,,51,,,,,,,,,,,,,,354.4799999999814,,response,,,,13,E,,,,,,Space,keypress(Space),,,,lyrical,,,,-------- -------- --- --- ---- --- --- ------ -- --------<br>---- --------- --- ------- ------------ ---------- ---------<br>--- ---------- ------- ---------- ------- -- -------- ----<br>---- --- ------ ----- ------ -- ---- --- ----- -- - -------<br>-------- -- --- --- -- ----- bureaucrats ----- -----------<br>---- --- ---------- --- ---- --- -- ----------,1161765,1161761,1161396.24,1161397,1161406.52,1161773.2,,43,bureaucrats
screen,html.Screen,2_3_1_0_1_44,2022-02-15T13:15:45.667Z,,,,,,,,,,,,,,,,,51,,,,,,,,,,,,,,221.80000000004657,,response,,,,13,E,,,,,,Space,keypress(Space),,,,lyrical,,,,-------- -------- --- --- ---- --- --- ------ -- --------<br>---- --------- --- ------- ------------ ---------- ---------<br>--- ---------- ------- ---------- ------- -- -------- ----<br>---- --- ------ ----- ------ -- ---- --- ----- -- - -------<br>-------- -- --- --- -- ----- ----------- enact -----------<br>---- --- ---------- --- ---- --- -- ----------,1161998,1161995,1161765.78,1161766,1161773.2,1162006.52,,44,enact
screen,html.Screen,2_3_1_0_1_45,2022-02-15T13:15:45.853Z,,,,,,,,,,,,,,,,,51,,,,,,,,,,,,,,160.47999999998137,,response,,,,13,E,,,,,,Space,keypress(Space),,,,lyrical,,,,-------- -------- --- --- ---- --- --- ------ -- --------<br>---- --------- --- ------- ------------ ---------- ---------<br>--- ---------- ------- ---------- ------- -- -------- ----<br>---- --- ------ ----- ------ -- ---- --- ----- -- - -------<br>-------- -- --- --- -- ----- ----------- ----- regulations<br>---- --- ---------- --- ---- --- -- ----------,1162184,1162167,1161997.84,1161998,1162006.52,1162189.86,,45,regulations
screen,html.Screen,2_3_1_0_1_46,2022-02-15T13:15:46.291Z,,,,,,,,,,,,,,,,,51,,,,,,,,,,,,,,414.13999999989755,,response,,,,13,E,,,,,,Space,keypress(Space),,,,lyrical,,,,-------- -------- --- --- ---- --- --- ------ -- --------<br>---- --------- --- ------- ------------ ---------- ---------<br>--- ---------- ------- ---------- ------- -- -------- ----<br>---- --- ------ ----- ------ -- ---- --- ----- -- - -------<br>-------- -- --- --- -- ----- ----------- ----- -----------<br>that --- ---------- --- ---- --- -- ----------,1162620,1162604,1162183.66,1162184,1162189.86,1162623.2,,46,that
screen,html.Screen,2_3_1_0_1_47,2022-02-15T13:15:46.492Z,,,,,,,,,,,,,,,,,51,,,,,,,,,,,,,,183.80000000004657,,response,,,,13,E,,,,,,Space,keypress(Space),,,,lyrical,,,,-------- -------- --- --- ---- --- --- ------ -- --------<br>---- --------- --- ------- ------------ ---------- ---------<br>--- ---------- ------- ---------- ------- -- -------- ----<br>---- --- ------ ----- ------ -- ---- --- ----- -- - -------<br>-------- -- --- --- -- ----- ----------- ----- -----------<br>---- are ---------- --- ---- --- -- ----------,1162823,1162807,1162620.96,1162621,1162623.2,1162823.2,,47,are
screen,html.Screen,2_3_1_0_1_48,2022-02-15T13:15:46.652Z,,,,,,,,,,,,,,,,,51,,,,,,,,,,,,,,154.80000000004657,,response,,,,13,E,,,,,,Space,keypress(Space),,,,lyrical,,,,-------- -------- --- --- ---- --- --- ------ -- --------<br>---- --------- --- ------- ------------ ---------- ---------<br>--- ---------- ------- ---------- ------- -- -------- ----<br>---- --- ------ ----- ------ -- ---- --- ----- -- - -------<br>-------- -- --- --- -- ----- ----------- ----- -----------<br>---- --- strangling --- ---- --- -- ----------,1162983,1162978,1162822.8,1162823,1162823.2,1162989.86,,48,strangling
