sender,sender_type,sender_id,timestamp,meta,,Blues,Classical,Country,Dance,Electronic,Folk,Gospel,Hip-Hop,Jazz,Latin,Musical/Film,New-age,Pop,Prolific_id,Provo_ID,R&B,Rap,Reggae,Religious,Rock,Soul,Swing,Traditional,age,artist_name,correct,correctResponse,distraction,duration,education,ended_on,familiarity,gender,headphone_check_performance,item,list,music_frequency,offensiveness,pleasantness,position_correct,preference,response,response_action,snippet_file,song_name,song_rating,sound,stimulus_1,stimulus_2,stimulus_3,text,time_commit,time_end,time_render,time_run,time_show,time_switch,url,word,word_ID
Prolific ID,html.Form,0,2022-02-03T13:03:09.449Z,"{""labjs_version"":""20.2.2"",""labjs_build"":{""flavor"":""production"",""commit"":""a25486e0c714a0ae2ce03ff94b7bb6896854dcfa""},""location"":""https://run.pavlovia.org/mvasilev/prolific2_music_f/"",""userAgent"":""Mozilla/5.0 (Windows NT 10.0; Win64; x64) AppleWebKit/537.36 (KHTML, like Gecko) Chrome/97.0.4692.99 Safari/537.36"",""platform"":""Win32"",""language"":""en-US"",""locale"":""en-US"",""timeZone"":""Europe/London"",""timezoneOffset"":0,""screen_width"":1536,""screen_height"":864,""scroll_width"":1536,""scroll_height"":674,""window_innerWidth"":1536,""window_innerHeight"":722,""devicePixelRatio"":1.25}",,,,,,,,,,,,,,,601027b90f1caf053173ff51,,,,,,,,,,,,,,,10283.995000095367,,form submission,,,,,,,,,,,,,,,,,,,,,20817,20816.400000095367,10514.15,10517.5,10532.405,20821.757,{},,
Introduction,html.Screen,1_0,2022-02-03T13:03:16.918Z,,,,,,,,,,,,,,,,,,,,,,,,,,,,,,,7460.643000095366,,response,,,,,,,,,,,continue,click button,,,,,,,,,28285.800000190735,28282.400000095367,20805.169,20817.400000095367,20821.757,28292.122,,,
Volume calibration,html.Screen,1_1,2022-02-03T13:03:31.289Z,,,,,,,,,,,,,,,,,,,,,,,,,,,,,,,14359.878,,response,,,,,,,,,,,continue,click button,,,,,,,,,42656.5,42652,28275.693,28286,28292.122,42661.553,,,
Task instructions,html.Screen,1_2,2022-02-03T13:03:33.712Z,,,,,,,,,,,,,,,,,,,,,,,,,,,,,,,2417.1470002861024,,response,,,,,,,,,,,continue,click button,,,,,,,,,45079.7000002861,45078.7000002861,42644.989,42656.7000002861,42661.553,45088.288,,,
Sounds,html.Screen,1_3_0_0,2022-02-03T13:03:37.961Z,,,,,,,,,,,,,,,,,,,,,,,,,,,,,,,4252.072,,timeout,,,,,,,,,1,,,,,,,,S,I,O,,49329.09999990463,49323.782,45071.893,45079.90000009537,45088.288,49340.36,,,
Judgement,html.Screen,1_3_0_1,2022-02-03T13:03:41.562Z,,,,,,,,,,,,,,,,,,,,,,,,,,,,false,1,,3587.8400002861017,,response,,,,,,,,,1,,2,click #choice-2,,,,,S,I,O,,52929.90000009537,52928.2000002861,49323.782,49329.300000190735,49340.36,52936.882,,,
Trial,flow.Sequence,1_3_0,2022-02-03T13:03:41.565Z,,,,,,,,,,,,,,,,,,,,,,,,,,,,,,,7839.912000286102,,completion,,,,,,,,,1,,,,,,,,S,I,O,,52932.40000009537,52928.2000002861,45071.893,45079.800000190735,45088.288,52936.882,,,
Sounds,html.Screen,1_3_1_0,2022-02-03T13:03:45.808Z,,,,,,,,,,,,,,,,,,,,,,,,,,,,,,,4254.649000000005,,timeout,,,,,,,,,3,,,,,,,,O,I,S,,57176,57174.922,52920.492,52932.7000002861,52936.882,57191.531,,,
Judgement,html.Screen,1_3_1_1,2022-02-03T13:03:53.876Z,,,,,,,,,,,,,,,,,,,,,,,,,,,,true,3,,8050.1690002861,,response,,,,,,,,,3,,3,click #choice-3,,,,,O,I,S,,65243.2000002861,65241.7000002861,57174.922,57176.300000190735,57191.531,65251.659,,,
Trial,flow.Sequence,1_3_1,2022-02-03T13:03:53.876Z,,,,,,,,,,,,,,,,,,,,,,,,,,,,,,,12304.818000286105,,completion,,,,,,,,,3,,,,,,,,O,I,S,,65243.5,65241.7000002861,52920.492,52932.5,52936.882,65251.659,,,
Sounds,html.Screen,1_3_2_0,2022-02-03T13:03:58.114Z,,,,,,,,,,,,,,,,,,,,,,,,,,,,,,,4244.748000000007,,timeout,,,,,,,,,2,,,,,,,,O,S,I,,69481.2000002861,69479.749,65235.012,65243.7000002861,65251.659,69496.407,,,
Judgement,html.Screen,1_3_2_1,2022-02-03T13:03:58.938Z,,,,,,,,,,,,,,,,,,,,,,,,,,,,true,2,,807.7930002860958,,response,,,,,,,,,2,,2,click #choice-2,,,,,O,S,I,,70305.30000019073,70304.2000002861,69479.749,69481.40000009537,69496.407,70314.138,,,
Trial,flow.Sequence,1_3_2,2022-02-03T13:03:58.938Z,,,,,,,,,,,,,,,,,,,,,,,,,,,,,,,5052.541000286103,,completion,,,,,,,,,2,,,,,,,,O,S,I,,70305.59999990463,70304.2000002861,65235.012,65243.59999990463,65251.659,70314.138,,,
Sounds,html.Screen,1_3_3_0,2022-02-03T13:04:03.188Z,,,,,,,,,,,,,,,,,,,,,,,,,,,,,,,4257.514999999999,,timeout,,,,,,,,,1,,,,,,,,S,O,I,,74556,74554.772,70297.492,70305.80000019073,70314.138,74571.653,,,
Judgement,html.Screen,1_3_3_1,2022-02-03T13:04:03.852Z,,,,,,,,,,,,,,,,,,,,,,,,,,,,true,1,,646.0470002860966,,response,,,,,,,,,1,,1,click #choice-1,,,,,S,O,I,,75219.09999990463,75217.7000002861,74554.772,74556.2000002861,74571.653,75226.141,,,
Trial,flow.Sequence,1_3_3,2022-02-03T13:04:03.852Z,,,,,,,,,,,,,,,,,,,,,,,,,,,,,,,4903.562000286096,,completion,,,,,,,,,1,,,,,,,,S,O,I,,75219.40000009537,75217.7000002861,70297.492,70305.7000002861,70314.138,75226.141,,,
Sounds,html.Screen,1_3_4_0,2022-02-03T13:04:08.093Z,,,,,,,,,,,,,,,,,,,,,,,,,,,,,,,4249.817999999999,,timeout,,,,,,,,,3,,,,,,,,I,O,S,,79460.59999990463,79459.246,75209.516,75219.5,75226.141,79475.959,,,
Judgement,html.Screen,1_3_4_1,2022-02-03T13:04:08.812Z,,,,,,,,,,,,,,,,,,,,,,,,,,,,true,3,,701.9410000953649,,response,,,,,,,,,3,,3,click #choice-3,,,,,I,O,S,,80179.2000002861,80177.90000009537,79459.246,79460.80000019073,79475.959,80192.006,,,
Trial,flow.Sequence,1_3_4,2022-02-03T13:04:08.812Z,,,,,,,,,,,,,,,,,,,,,,,,,,,,,,,4951.759000095364,,completion,,,,,,,,,3,,,,,,,,I,O,S,,80179.40000009537,80177.90000009537,75209.516,75219.40000009537,75226.141,80192.006,,,
Sounds,html.Screen,1_3_5_0,2022-02-03T13:04:13.066Z,,,,,,,,,,,,,,,,,,,,,,,,,,,,,,,4256.900000000009,,timeout,,,,,,,,,2,,,,,,,,I,S,O,,84433.5,84432.279,80175.518,80179.59999990463,80192.006,84448.906,,,
Judgement,html.Screen,1_3_5_1,2022-02-03T13:04:14.967Z,,,,,,,,,,,,,,,,,,,,,,,,,,,,true,2,,1884.4940000953648,,response,,,,,,,,,2,,2,click #choice-2,,,,,I,S,O,,86334.90000009537,86333.40000009537,84432.279,84433.7000002861,84448.906,86341.414,,,
Trial,flow.Sequence,1_3_5,2022-02-03T13:04:14.968Z,,,,,,,,,,,,,,,,,,,,,,,,,,,,,,,6141.3940000953735,,completion,,,,,,,,,2,,,,,,,,I,S,O,,86335.09999990463,86333.40000009537,80175.518,80179.5,80192.006,86341.414,,,
Task,flow.Loop,1_3,2022-02-03T13:04:14.973Z,,,,,,,,,,,,,,,,,,,,,,,,,,,,,,,41245.11200009537,,completion,,,0.8333333333333334,,,,,,,,,,,,,,,,,,86340.7000002861,86333.40000009537,45071.893,45079.800000190735,45088.288,86341.414,,,
Trap,html.Screen,1_4,2022-02-03T13:04:14.975Z,,,,,,,,,,,,,,,,,,,,,,,,,,,,,,,NaN,,skipped,,,,,,,,,,,,,,,,,,,,,86342.30000019073,86333.40000009537,,86342.2000002861,,86341.414,,,
Thanks,html.Screen,1_5,2022-02-03T13:04:18.407Z,,,,,,,,,,,,,,,,,,,,,,,,,,,,,,,3431.6859999046283,,response,,,,,,,,,,,continue,click button,,,,,,,,,89774.09999990463,89773.09999990463,86324.783,86342.5,86341.414,92378.264,,,
Headphone screening,flow.Sequence,1,2022-02-03T13:04:18.407Z,,,,,,,,,,,,,,,,,,,,,,,,,,,,,,,68951.34299990463,,completion,,,,,,,,,,,,,,,,,,,,,89774.30000019073,89773.09999990463,20805.169,20817.400000095367,20821.757,92378.264,,,
Instructions,html.Page,2_0,2022-02-03T13:04:33.583Z,,,,,,,,,,,,,,,,,,,,,,,,,,,,,,,12572.53600019074,,form submission,,,,,,,,,,,,,,,,,,,,,104951.09999990463,104950.80000019073,92361.603,92379.59999990463,92378.264,104959.588,,,
Holding screen,html.Screen,2_1_0_0,2022-02-03T13:04:43.575Z,,,,,,,,,,,,,,,,,,,,,,,,,,,,,,,10015.75,,timeout,,,,,,,,,,,,,,,,,,,,,114943,114941.987,104943.076,104951.30000019073,104959.588,114975.338,,,
screen,html.Screen,2_1_0_1_0,2022-02-03T13:04:45.716Z,,,,,,,,,,,,,,,,,53,,,,,,,,,,,,,,2102.9620001907315,,response,,,,99,,,,,,,Space,keypress(Space),,,,,,,,When -- ----- -- ------ - ------- --- ----------<br>------------- ------ ------ ---- ---- ------- ----- -- ----<br>-------- ------- -- ---------- --- - --- ----- ----- ----<br>---- --- --- ----- --- ---- ---- ------- ----- ---- -------<br>--- --- -- ----- -- --- ---- -- --- ---- -- ------ ------<br>--- ----- -- ----,117083.40000009537,117078.30000019073,114941.987,114943.30000019073,114975.338,117106.895,,0,When
screen,html.Screen,2_1_0_1_1,2022-02-03T13:04:46.555Z,,,,,,,,,,,,,,,,,53,,,,,,,,,,,,,,815.4050001907308,,response,,,,99,,,,,,,Space,keypress(Space),,,,,,,,---- it ----- -- ------ - ------- --- ----------<br>------------- ------ ------ ---- ---- ------- ----- -- ----<br>-------- ------- -- ---------- --- - --- ----- ----- ----<br>---- --- --- ----- --- ---- ---- ------- ----- ---- -------<br>--- --- -- ----- -- --- ---- -- --- ---- -- ------ ------<br>--- ----- -- ----,117923.2000002861,117922.30000019073,117074.47,117083.59999990463,117106.895,117946.932,,1,it
screen,html.Screen,2_1_0_1_2,2022-02-03T13:04:47.384Z,,,,,,,,,,,,,,,,,53,,,,,,,,,,,,,,803.9680000953667,,response,,,,99,,,,,,,Space,keypress(Space),,,,,,,,---- -- comes -- ------ - ------- --- ----------<br>------------- ------ ------ ---- ---- ------- ----- -- ----<br>-------- ------- -- ---------- --- - --- ----- ----- ----<br>---- --- --- ----- --- ---- ---- ------- ----- ---- -------<br>--- --- -- ----- -- --- ---- -- --- ---- -- ------ ------<br>--- ----- -- ----,118751.90000009537,118750.90000009537,117923.296,117923.5,117946.932,118775.741,,2,comes
screen,html.Screen,2_1_0_1_3,2022-02-03T13:04:47.911Z,,,,,,,,,,,,,,,,,53,,,,,,,,,,,,,,501.6590000953729,,response,,,,99,,,,,,,Space,keypress(Space),,,,,,,,---- -- ----- to ------ - ------- --- ----------<br>------------- ------ ------ ---- ---- ------- ----- -- ----<br>-------- ------- -- ---------- --- - --- ----- ----- ----<br>---- --- --- ----- --- ---- ---- ------- ----- ---- -------<br>--- --- -- ----- -- --- ---- -- --- ---- -- ------ ------<br>--- ----- -- ----,119278.40000009537,119277.40000009537,118746.662,118752.09999990463,118775.741,119302.019,,3,to
screen,html.Screen,2_1_0_1_4,2022-02-03T13:04:48.610Z,,,,,,,,,,,,,,,,,53,,,,,,,,,,,,,,675.0809999046323,,response,,,,99,,,,,,,Space,keypress(Space),,,,,,,,---- -- ----- -- having - ------- --- ----------<br>------------- ------ ------ ---- ---- ------- ----- -- ----<br>-------- ------- -- ---------- --- - --- ----- ----- ----<br>---- --- --- ----- --- ---- ---- ------- ----- ---- -------<br>--- --- -- ----- -- --- ---- -- --- ---- -- ------ ------<br>--- ----- -- ----,119978,119977.09999990463,119275.527,119278.7000002861,119302.019,120001.709,,4,having
screen,html.Screen,2_1_0_1_5,2022-02-03T13:04:49.112Z,,,,,,,,,,,,,,,,,53,,,,,,,,,,,,,,477.0910001907323,,response,,,,99,,,,,,,Space,keypress(Space),,,,,,,,---- -- ----- -- ------ a ------- --- ----------<br>------------- ------ ------ ---- ---- ------- ----- -- ----<br>-------- ------- -- ---------- --- - --- ----- ----- ----<br>---- --- --- ----- --- ---- ---- ------- ----- ---- -------<br>--- --- -- ----- -- --- ---- -- --- ---- -- ------ ------<br>--- ----- -- ----,120479.59999990463,120478.80000019073,119968.271,119978.2000002861,120001.709,120504.324,,5,a
screen,html.Screen,2_1_0_1_6,2022-02-03T13:04:49.526Z,,,,,,,,,,,,,,,,,53,,,,,,,,,,,,,,388.2759999046393,,response,,,,99,,,,,,,Space,keypress(Space),,,,,,,,---- -- ----- -- ------ - lasting --- ----------<br>------------- ------ ------ ---- ---- ------- ----- -- ----<br>-------- ------- -- ---------- --- - --- ----- ----- ----<br>---- --- --- ----- --- ---- ---- ------- ----- ---- -------<br>--- --- -- ----- -- --- ---- -- --- ---- -- ------ ------<br>--- ----- -- ----,120893.59999990463,120892.59999990463,120468.289,120479.80000019073,120504.324,120903.793,,6,lasting
screen,html.Screen,2_1_0_1_7,2022-02-03T13:04:50.011Z,,,,,,,,,,,,,,,,,53,,,,,,,,,,,,,,473.80699990462745,,response,,,,99,,,,,,,Space,keypress(Space),,,,,,,,---- -- ----- -- ------ - ------- and ----------<br>------------- ------ ------ ---- ---- ------- ----- -- ----<br>-------- ------- -- ---------- --- - --- ----- ----- ----<br>---- --- --- ----- --- ---- ---- ------- ----- ---- -------<br>--- --- -- ----- -- --- ---- -- --- ---- -- ------ ------<br>--- ----- -- ----,121378.5,121377.59999990463,120887.23,120893.80000019073,120903.793,121402.131,,7,and
screen,html.Screen,2_1_0_1_8,2022-02-03T13:04:50.763Z,,,,,,,,,,,,,,,,,53,,,,,,,,,,,,,,728.0690002861083,,response,,,,99,,,,,,,Space,keypress(Space),,,,,,,,---- -- ----- -- ------ - ------- --- fulfilling<br>------------- ------ ------ ---- ---- ------- ----- -- ----<br>-------- ------- -- ---------- --- - --- ----- ----- ----<br>---- --- --- ----- --- ---- ---- ------- ----- ---- -------<br>--- --- -- ----- -- --- ---- -- --- ---- -- ------ ------<br>--- ----- -- ----,122131.09999990463,122130.2000002861,121370.411,121378.80000019073,121402.131,122154.851,,8,fulfilling
screen,html.Screen,2_1_0_1_9,2022-02-03T13:04:51.383Z,,,,,,,,,,,,,,,,,53,,,,,,,,,,,,,,595.2489999046375,,response,,,,99,,,,,,,Space,keypress(Space),,,,,,,,"---- -- ----- -- ------ - ------- --- ----------<br>relationship, ------ ------ ---- ---- ------- ----- -- ----<br>-------- ------- -- ---------- --- - --- ----- ----- ----<br>---- --- --- ----- --- ---- ---- ------- ----- ---- -------<br>--- --- -- ----- -- --- ---- -- --- ---- -- ------ ------<br>--- ----- -- ----",122751.2000002861,122750.09999990463,122118.594,122131.40000009537,122154.851,122774.91,,9,"relationship,"
screen,html.Screen,2_1_0_1_10,2022-02-03T13:04:51.815Z,,,,,,,,,,,,,,,,,53,,,,,,,,,,,,,,407.2900002860988,,response,,,,99,,,,,,,Space,keypress(Space),,,,,,,,---- -- ----- -- ------ - ------- --- ----------<br>------------- common ------ ---- ---- ------- ----- -- ----<br>-------- ------- -- ---------- --- - --- ----- ----- ----<br>---- --- --- ----- --- ---- ---- ------- ----- ---- -------<br>--- --- -- ----- -- --- ---- -- --- ---- -- ------ ------<br>--- ----- -- ----,123183.2000002861,123182.2000002861,122738.018,122751.40000009537,122774.91,123206.88,,10,common
screen,html.Screen,2_1_0_1_11,2022-02-03T13:04:52.381Z,,,,,,,,,,,,,,,,,53,,,,,,,,,,,,,,540.8200002860976,,response,,,,99,,,,,,,Space,keypress(Space),,,,,,,,---- -- ----- -- ------ - ------- --- ----------<br>------------- ------ wisdom ---- ---- ------- ----- -- ----<br>-------- ------- -- ---------- --- - --- ----- ----- ----<br>---- --- --- ----- --- ---- ---- ------- ----- ---- -------<br>--- --- -- ----- -- --- ---- -- --- ---- -- ------ ------<br>--- ----- -- ----,123748.90000009537,123747.7000002861,123174.795,123183.40000009537,123206.88,123772.532,,11,wisdom
screen,html.Screen,2_1_0_1_12,2022-02-03T13:05:08.520Z,,,,,,,,,,,,,,,,,53,,,,,,,,,,,,,,16113.668000286096,,response,,,,99,,,,,,,Space,keypress(Space),,,,,,,,---- -- ----- -- ------ - ------- --- ----------<br>------------- ------ ------ says ---- ------- ----- -- ----<br>-------- ------- -- ---------- --- - --- ----- ----- ----<br>---- --- --- ----- --- ---- ---- ------- ----- ---- -------<br>--- --- -- ----- -- --- ---- -- --- ---- -- ------ ------<br>--- ----- -- ----,139887.30000019073,139886.2000002861,123739.946,123749.09999990463,123772.532,139911.003,,12,says
screen,html.Screen,2_1_0_1_13,2022-02-03T13:05:09.814Z,,,,,,,,,,,,,,,,,53,,,,,,,,,,,,,,1270.1970002861053,,response,,,,99,,,,,,,Space,keypress(Space),,,,,,,,---- -- ----- -- ------ - ------- --- ----------<br>------------- ------ ------ ---- that ------- ----- -- ----<br>-------- ------- -- ---------- --- - --- ----- ----- ----<br>---- --- --- ----- --- ---- ---- ------- ----- ---- -------<br>--- --- -- ----- -- --- ---- -- --- ---- -- ------ ------<br>--- ----- -- ----,141182.2000002861,141181.2000002861,139882.816,139887.59999990463,139911.003,141205.88,,13,that
screen,html.Screen,2_1_0_1_14,2022-02-03T13:05:14.908Z,,,,,,,,,,,,,,,,,53,,,,,,,,,,,,,,5069.320000286098,,response,,,,99,,,,,,,Space,keypress(Space),,,,,,,,---- -- ----- -- ------ - ------- --- ----------<br>------------- ------ ------ ---- ---- feeling ----- -- ----<br>-------- ------- -- ---------- --- - --- ----- ----- ----<br>---- --- --- ----- --- ---- ---- ------- ----- ---- -------<br>--- --- -- ----- -- --- ---- -- --- ---- -- ------ ------<br>--- ----- -- ----,146276.2000002861,146275.2000002861,141177.146,141182.40000009537,141205.88,146299.797,,14,feeling
screen,html.Screen,2_1_0_1_15,2022-02-03T13:05:16.447Z,,,,,,,,,,,,,,,,,53,,,,,,,,,,,,,,1514.2030000000086,,response,,,,99,,,,,,,Space,keypress(Space),,,,,,,,---- -- ----- -- ------ - ------- --- ----------<br>------------- ------ ------ ---- ---- ------- close -- ----<br>-------- ------- -- ---------- --- - --- ----- ----- ----<br>---- --- --- ----- --- ---- ---- ------- ----- ---- -------<br>--- --- -- ----- -- --- ---- -- --- ---- -- ------ ------<br>--- ----- -- ----,147815.09999990463,147814,146263.251,146276.5,146299.797,147838.633,,15,close
screen,html.Screen,2_1_0_1_16,2022-02-03T13:05:27.983Z,,,,,,,,,,,,,,,,,53,,,,,,,,,,,,,,11511.966999904631,,response,,,,99,,,,,,,Space,keypress(Space),,,,,,,,---- -- ----- -- ------ - ------- --- ----------<br>------------- ------ ------ ---- ---- ------- ----- to ----<br>-------- ------- -- ---------- --- - --- ----- ----- ----<br>---- --- --- ----- --- ---- ---- ------- ----- ---- -------<br>--- --- -- ----- -- --- ---- -- --- ---- -- ------ ------<br>--- ----- -- ----,159351.09999990463,159350.59999990463,147815.919,147815.30000019073,147838.633,159374.214,,16,to
screen,html.Screen,2_1_0_1_17,2022-02-03T13:05:56.981Z,,,,,,,,,,,,,,,,,53,,,,,,,,,,,,,,28972.986000286095,,response,,,,99,,,,,,,Space,keypress(Space),,,,,,,,---- -- ----- -- ------ - ------- --- ----------<br>------------- ------ ------ ---- ---- ------- ----- -- your<br>-------- ------- -- ---------- --- - --- ----- ----- ----<br>---- --- --- ----- --- ---- ---- ------- ----- ---- -------<br>--- --- -- ----- -- --- ---- -- --- ---- -- ------ ------<br>--- ----- -- ----,188348.5,188347.2000002861,159350.761,159351.2000002861,159374.214,188372.216,,17,your
screen,html.Screen,2_1_0_1_18,2022-02-03T13:05:57.914Z,,,,,,,,,,,,,,,,,53,,,,,,,,,,,,,,908.2840000000142,,response,,,,99,,,,,,,Space,keypress(Space),,,,,,,,---- -- ----- -- ------ - ------- --- ----------<br>------------- ------ ------ ---- ---- ------- ----- -- ----<br>romantic ------- -- ---------- --- - --- ----- ----- ----<br>---- --- --- ----- --- ---- ---- ------- ----- ---- -------<br>--- --- -- ----- -- --- ---- -- --- ---- -- ------ ------<br>--- ----- -- ----,189281.5,189280.5,188346.005,188348.80000019073,188372.216,189312.835,,18,romantic
screen,html.Screen,2_1_0_1_19,2022-02-03T13:05:58.740Z,,,,,,,,,,,,,,,,,53,,,,,,,,,,,,,,793.6650000000081,,response,,,,99,,,,,,,Space,keypress(Space),,,,,,,,---- -- ----- -- ------ - ------- --- ----------<br>------------- ------ ------ ---- ---- ------- ----- -- ----<br>-------- partner -- ---------- --- - --- ----- ----- ----<br>---- --- --- ----- --- ---- ---- ------- ----- ---- -------<br>--- --- -- ----- -- --- ---- -- --- ---- -- ------ ------<br>--- ----- -- ----,190107.40000009537,190106.5,189271.94,189281.7000002861,189312.835,190131.185,,19,partner
screen,html.Screen,2_1_0_1_20,2022-02-03T13:05:59.403Z,,,,,,,,,,,,,,,,,53,,,,,,,,,,,,,,638.3150000000023,,response,,,,99,,,,,,,Space,keypress(Space),,,,,,,,---- -- ----- -- ------ - ------- --- ----------<br>------------- ------ ------ ---- ---- ------- ----- -- ----<br>-------- ------- is ---------- --- - --- ----- ----- ----<br>---- --- --- ----- --- ---- ---- ------- ----- ---- -------<br>--- --- -- ----- -- --- ---- -- --- ---- -- ------ ------<br>--- ----- -- ----,190770.5,190769.5,190104.798,190107.7000002861,190131.185,190796.29,,20,is
screen,html.Screen,2_1_0_1_21,2022-02-03T13:06:00.202Z,,,,,,,,,,,,,,,,,53,,,,,,,,,,,,,,772.6100000953593,,response,,,,99,,,,,,,Space,keypress(Space),,,,,,,,---- -- ----- -- ------ - ------- --- ----------<br>------------- ------ ------ ---- ---- ------- ----- -- ----<br>-------- ------- -- paramount. --- - --- ----- ----- ----<br>---- --- --- ----- --- ---- ---- ------- ----- ---- -------<br>--- --- -- ----- -- --- ---- -- --- ---- -- ------ ------<br>--- ----- -- ----,191569.40000009537,191568.90000009537,190764.35,190770.7000002861,190796.29,191577.741,,21,paramount.
screen,html.Screen,2_1_0_1_22,2022-02-03T13:06:00.803Z,,,,,,,,,,,,,,,,,53,,,,,,,,,,,,,,592.5590001907258,,response,,,,99,,,,,,,Space,keypress(Space),,,,,,,,---- -- ----- -- ------ - ------- --- ----------<br>------------- ------ ------ ---- ---- ------- ----- -- ----<br>-------- ------- -- ---------- But - --- ----- ----- ----<br>---- --- --- ----- --- ---- ---- ------- ----- ---- -------<br>--- --- -- ----- -- --- ---- -- --- ---- -- ------ ------<br>--- ----- -- ----,192171.2000002861,192170.30000019073,191560.565,191569.5,191577.741,192194.82,,22,But
screen,html.Screen,2_1_0_1_23,2022-02-03T13:06:01.506Z,,,,,,,,,,,,,,,,,53,,,,,,,,,,,,,,677.8800002860953,,response,,,,99,,,,,,,Space,keypress(Space),,,,,,,,---- -- ----- -- ------ - ------- --- ----------<br>------------- ------ ------ ---- ---- ------- ----- -- ----<br>-------- ------- -- ---------- --- a --- ----- ----- ----<br>---- --- --- ----- --- ---- ---- ------- ----- ---- -------<br>--- --- -- ----- -- --- ---- -- --- ---- -- ------ ------<br>--- ----- -- ----,192873.59999990463,192872.7000002861,192160.886,192171.40000009537,192194.82,192897.239,,23,a
screen,html.Screen,2_1_0_1_24,2022-02-03T13:06:01.890Z,,,,,,,,,,,,,,,,,53,,,,,,,,,,,,,,358.9610002861009,,response,,,,99,,,,,,,Space,keypress(Space),,,,,,,,---- -- ----- -- ------ - ------- --- ----------<br>------------- ------ ------ ---- ---- ------- ----- -- ----<br>-------- ------- -- ---------- --- - new ----- ----- ----<br>---- --- --- ----- --- ---- ---- ------- ----- ---- -------<br>--- --- -- ----- -- --- ---- -- --- ---- -- ------ ------<br>--- ----- -- ----,193257.5,193256.2000002861,192861.003,192873.90000009537,192897.239,193287.298,,24,new
screen,html.Screen,2_1_0_1_25,2022-02-03T13:06:02.320Z,,,,,,,,,,,,,,,,,53,,,,,,,,,,,,,,399.5020001907251,,response,,,,99,,,,,,,Space,keypress(Space),,,,,,,,---- -- ----- -- ------ - ------- --- ----------<br>------------- ------ ------ ---- ---- ------- ----- -- ----<br>-------- ------- -- ---------- --- - --- study ----- ----<br>---- --- --- ----- --- ---- ---- ------- ----- ---- -------<br>--- --- -- ----- -- --- ---- -- --- ---- -- ------ ------<br>--- ----- -- ----,193688,193686.80000019073,193247.088,193257.80000019073,193287.298,193711.679,,25,study
screen,html.Screen,2_1_0_1_26,2022-02-03T13:06:02.746Z,,,,,,,,,,,,,,,,,53,,,,,,,,,,,,,,401.2210000953637,,response,,,,99,,,,,,,Space,keypress(Space),,,,,,,,---- -- ----- -- ------ - ------- --- ----------<br>------------- ------ ------ ---- ---- ------- ----- -- ----<br>-------- ------- -- ---------- --- - --- ----- finds ----<br>---- --- --- ----- --- ---- ---- ------- ----- ---- -------<br>--- --- -- ----- -- --- ---- -- --- ---- -- ------ ------<br>--- ----- -- ----,194113.7000002861,194112.90000009537,193681.147,193688.40000009537,193711.679,194137.61,,26,finds
screen,html.Screen,2_1_0_1_27,2022-02-03T13:06:03.118Z,,,,,,,,,,,,,,,,,53,,,,,,,,,,,,,,347.2900000953814,,response,,,,99,,,,,,,Space,keypress(Space),,,,,,,,---- -- ----- -- ------ - ------- --- ----------<br>------------- ------ ------ ---- ---- ------- ----- -- ----<br>-------- ------- -- ---------- --- - --- ----- ----- that<br>---- --- --- ----- --- ---- ---- ------- ----- ---- -------<br>--- --- -- ----- -- --- ---- -- --- ---- -- ------ ------<br>--- ----- -- ----,194485.80000019073,194484.90000009537,194111.499,194114.2000002861,194137.61,194509.513,,27,that
screen,html.Screen,2_1_0_1_28,2022-02-03T13:06:03.498Z,,,,,,,,,,,,,,,,,53,,,,,,,,,,,,,,355.88700009536115,,response,,,,99,,,,,,,Space,keypress(Space),,,,,,,,---- -- ----- -- ------ - ------- --- ----------<br>------------- ------ ------ ---- ---- ------- ----- -- ----<br>-------- ------- -- ---------- --- - --- ----- ----- ----<br>it's --- --- ----- --- ---- ---- ------- ----- ---- -------<br>--- --- -- ----- -- --- ---- -- --- ---- -- ------ ------<br>--- ----- -- ----,194866.30000019073,194865.40000009537,194470.731,194486.09999990463,194509.513,194890.009,,28,it's
screen,html.Screen,2_1_0_1_29,2022-02-03T13:06:04.085Z,,,,,,,,,,,,,,,,,53,,,,,,,,,,,,,,562.1910002861114,,response,,,,99,,,,,,,Space,keypress(Space),,,,,,,,---- -- ----- -- ------ - ------- --- ----------<br>------------- ------ ------ ---- ---- ------- ----- -- ----<br>-------- ------- -- ---------- --- - --- ----- ----- ----<br>---- not --- ----- --- ---- ---- ------- ----- ---- -------<br>--- --- -- ----- -- --- ---- -- --- ---- -- ------ ------<br>--- ----- -- ----,195453.2000002861,195452.2000002861,194859.403,194866.5,194890.009,195471.817,,29,not
screen,html.Screen,2_1_0_1_30,2022-02-03T13:06:04.400Z,,,,,,,,,,,,,,,,,53,,,,,,,,,,,,,,295.18299999999,,response,,,,99,,,,,,,Space,keypress(Space),,,,,,,,---- -- ----- -- ------ - ------- --- ----------<br>------------- ------ ------ ---- ---- ------- ----- -- ----<br>-------- ------- -- ---------- --- - --- ----- ----- ----<br>---- --- how ----- --- ---- ---- ------- ----- ---- -------<br>--- --- -- ----- -- --- ---- -- --- ---- -- ------ ------<br>--- ----- -- ----,195767.90000009537,195767,195439.9,195453.40000009537,195471.817,195791.51,,30,how
screen,html.Screen,2_1_0_1_31,2022-02-03T13:06:04.663Z,,,,,,,,,,,,,,,,,53,,,,,,,,,,,,,,238.19000028609298,,response,,,,99,,,,,,,Space,keypress(Space),,,,,,,,---- -- ----- -- ------ - ------- --- ----------<br>------------- ------ ------ ---- ---- ------- ----- -- ----<br>-------- ------- -- ---------- --- - --- ----- ----- ----<br>---- --- --- close --- ---- ---- ------- ----- ---- -------<br>--- --- -- ----- -- --- ---- -- --- ---- -- ------ ------<br>--- ----- -- ----,196030.80000019073,196029.7000002861,195760.095,195768.2000002861,195791.51,196054.471,,31,close
screen,html.Screen,2_1_0_1_32,2022-02-03T13:06:04.955Z,,,,,,,,,,,,,,,,,53,,,,,,,,,,,,,,267.3290001907444,,response,,,,99,,,,,,,Space,keypress(Space),,,,,,,,---- -- ----- -- ------ - ------- --- ----------<br>------------- ------ ------ ---- ---- ------- ----- -- ----<br>-------- ------- -- ---------- --- - --- ----- ----- ----<br>---- --- --- ----- you ---- ---- ------- ----- ---- -------<br>--- --- -- ----- -- --- ---- -- --- ---- -- ------ ------<br>--- ----- -- ----,196322.80000019073,196321.80000019073,196024.854,196031,196054.471,196346.279,,32,you
screen,html.Screen,2_1_0_1_33,2022-02-03T13:06:05.225Z,,,,,,,,,,,,,,,,,53,,,,,,,,,,,,,,245.32099990462302,,response,,,,99,,,,,,,Space,keypress(Space),,,,,,,,---- -- ----- -- ------ - ------- --- ----------<br>------------- ------ ------ ---- ---- ------- ----- -- ----<br>-------- ------- -- ---------- --- - --- ----- ----- ----<br>---- --- --- ----- --- feel ---- ------- ----- ---- -------<br>--- --- -- ----- -- --- ---- -- --- ---- -- ------ ------<br>--- ----- -- ----,196592.7000002861,196591.59999990463,196321.034,196323,196346.279,196616.495,,33,feel
screen,html.Screen,2_1_0_1_34,2022-02-03T13:06:05.552Z,,,,,,,,,,,,,,,,,53,,,,,,,,,,,,,,302.20500028610695,,response,,,,99,,,,,,,Space,keypress(Space),,,,,,,,---- -- ----- -- ------ - ------- --- ----------<br>------------- ------ ------ ---- ---- ------- ----- -- ----<br>-------- ------- -- ---------- --- - --- ----- ----- ----<br>---- --- --- ----- --- ---- that ------- ----- ---- -------<br>--- --- -- ----- -- --- ---- -- --- ---- -- ------ ------<br>--- ----- -- ----,196919.80000019073,196918.7000002861,196579.549,196592.90000009537,196616.495,196943.685,,34,that
screen,html.Screen,2_1_0_1_35,2022-02-03T13:06:05.815Z,,,,,,,,,,,,,,,,,53,,,,,,,,,,,,,,238.1150001907372,,response,,,,99,,,,,,,Space,keypress(Space),,,,,,,,---- -- ----- -- ------ - ------- --- ----------<br>------------- ------ ------ ---- ---- ------- ----- -- ----<br>-------- ------- -- ---------- --- - --- ----- ----- ----<br>---- --- --- ----- --- ---- ---- matters ----- ---- -------<br>--- --- -- ----- -- --- ---- -- --- ---- -- ------ ------<br>--- ----- -- ----,197183.09999990463,197181.80000019073,196916.323,196920.09999990463,196943.685,197206.955,,35,matters
screen,html.Screen,2_1_0_1_36,2022-02-03T13:06:06.062Z,,,,,,,,,,,,,,,,,53,,,,,,,,,,,,,,221.84500019074767,,response,,,,99,,,,,,,Space,keypress(Space),,,,,,,,"---- -- ----- -- ------ - ------- --- ----------<br>------------- ------ ------ ---- ---- ------- ----- -- ----<br>-------- ------- -- ---------- --- - --- ----- ----- ----<br>---- --- --- ----- --- ---- ---- ------- most, ---- -------<br>--- --- -- ----- -- --- ---- -- --- ---- -- ------ ------<br>--- ----- -- ----",197429.7000002861,197428.80000019073,197176.793,197183.5,197206.955,197463.849,,36,"most,"
screen,html.Screen,2_1_0_1_37,2022-02-03T13:06:06.307Z,,,,,,,,,,,,,,,,,53,,,,,,,,,,,,,,209.95100019074744,,response,,,,99,,,,,,,Space,keypress(Space),,,,,,,,---- -- ----- -- ------ - ------- --- ----------<br>------------- ------ ------ ---- ---- ------- ----- -- ----<br>-------- ------- -- ---------- --- - --- ----- ----- ----<br>---- --- --- ----- --- ---- ---- ------- ----- it's -------<br>--- --- -- ----- -- --- ---- -- --- ---- -- ------ ------<br>--- ----- -- ----,197674.7000002861,197673.80000019073,197423.358,197429.90000009537,197463.849,197698.344,,37,it's
screen,html.Screen,2_1_0_1_38,2022-02-03T13:06:06.812Z,,,,,,,,,,,,,,,,,53,,,,,,,,,,,,,,480.2559999046207,,response,,,,99,,,,,,,Space,keypress(Space),,,,,,,,---- -- ----- -- ------ - ------- --- ----------<br>------------- ------ ------ ---- ---- ------- ----- -- ----<br>-------- ------- -- ---------- --- - --- ----- ----- ----<br>---- --- --- ----- --- ---- ---- ------- ----- ---- whether<br>--- --- -- ----- -- --- ---- -- --- ---- -- ------ ------<br>--- ----- -- ----,198179.5,198178.59999990463,197670.089,197674.90000009537,197698.344,198203.174,,38,whether
screen,html.Screen,2_1_0_1_39,2022-02-03T13:06:07.246Z,,,,,,,,,,,,,,,,,53,,,,,,,,,,,,,,409.6260001907358,,response,,,,99,,,,,,,Space,keypress(Space),,,,,,,,---- -- ----- -- ------ - ------- --- ----------<br>------------- ------ ------ ---- ---- ------- ----- -- ----<br>-------- ------- -- ---------- --- - --- ----- ----- ----<br>---- --- --- ----- --- ---- ---- ------- ----- ---- -------<br>you --- -- ----- -- --- ---- -- --- ---- -- ------ ------<br>--- ----- -- ----,198613.80000019073,198612.80000019073,198164.856,198179.7000002861,198203.174,198637.483,,39,you
screen,html.Screen,2_1_0_1_40,2022-02-03T13:06:07.555Z,,,,,,,,,,,,,,,,,53,,,,,,,,,,,,,,284.51699999999255,,response,,,,99,,,,,,,Space,keypress(Space),,,,,,,,---- -- ----- -- ------ - ------- --- ----------<br>------------- ------ ------ ---- ---- ------- ----- -- ----<br>-------- ------- -- ---------- --- - --- ----- ----- ----<br>---- --- --- ----- --- ---- ---- ------- ----- ---- -------<br>--- are -- ----- -- --- ---- -- --- ---- -- ------ ------<br>--- ----- -- ----,198923.09999990463,198922,198603.068,198614,198637.483,198942.006,,40,are
screen,html.Screen,2_1_0_1_41,2022-02-03T13:06:07.943Z,,,,,,,,,,,,,,,,,53,,,,,,,,,,,,,,367.7940001907409,,response,,,,99,,,,,,,Space,keypress(Space),,,,,,,,---- -- ----- -- ------ - ------- --- ----------<br>------------- ------ ------ ---- ---- ------- ----- -- ----<br>-------- ------- -- ---------- --- - --- ----- ----- ----<br>---- --- --- ----- --- ---- ---- ------- ----- ---- -------<br>--- --- as ----- -- --- ---- -- --- ---- -- ------ ------<br>--- ----- -- ----,199310.7000002861,199309.80000019073,198920.672,198923.30000019073,198942.006,199332.35,,41,as
screen,html.Screen,2_1_0_1_42,2022-02-03T13:06:08.157Z,,,,,,,,,,,,,,,,,53,,,,,,,,,,,,,,191.95000019072904,,response,,,,99,,,,,,,Space,keypress(Space),,,,,,,,---- -- ----- -- ------ - ------- --- ----------<br>------------- ------ ------ ---- ---- ------- ----- -- ----<br>-------- ------- -- ---------- --- - --- ----- ----- ----<br>---- --- --- ----- --- ---- ---- ------- ----- ---- -------<br>--- --- -- close -- --- ---- -- --- ---- -- ------ ------<br>--- ----- -- ----,199525.2000002861,199524.30000019073,199296.606,199310.90000009537,199332.35,199534.298,,42,close
screen,html.Screen,2_1_0_1_43,2022-02-03T13:06:08.391Z,,,,,,,,,,,,,,,,,53,,,,,,,,,,,,,,223.50200019072508,,response,,,,99,,,,,,,Space,keypress(Space),,,,,,,,---- -- ----- -- ------ - ------- --- ----------<br>------------- ------ ------ ---- ---- ------- ----- -- ----<br>-------- ------- -- ---------- --- - --- ----- ----- ----<br>---- --- --- ----- --- ---- ---- ------- ----- ---- -------<br>--- --- -- ----- as --- ---- -- --- ---- -- ------ ------<br>--- ----- -- ----,199758.59999990463,199757.80000019073,199517.741,199525.5,199534.298,199782.333,,43,as
screen,html.Screen,2_1_0_1_44,2022-02-03T13:06:08.891Z,,,,,,,,,,,,,,,,,53,,,,,,,,,,,,,,475.9670001907216,,response,,,,99,,,,,,,Space,keypress(Space),,,,,,,,---- -- ----- -- ------ - ------- --- ----------<br>------------- ------ ------ ---- ---- ------- ----- -- ----<br>-------- ------- -- ---------- --- - --- ----- ----- ----<br>---- --- --- ----- --- ---- ---- ------- ----- ---- -------<br>--- --- -- ----- -- you ---- -- --- ---- -- ------ ------<br>--- ----- -- ----,200259.2000002861,200258.30000019073,199750.774,199758.90000009537,199782.333,200282.898,,44,you
screen,html.Screen,2_1_0_1_45,2022-02-03T13:06:09.142Z,,,,,,,,,,,,,,,,,53,,,,,,,,,,,,,,226.3020002861158,,response,,,,99,,,,,,,Space,keypress(Space),,,,,,,,---- -- ----- -- ------ - ------- --- ----------<br>------------- ------ ------ ---- ---- ------- ----- -- ----<br>-------- ------- -- ---------- --- - --- ----- ----- ----<br>---- --- --- ----- --- ---- ---- ------- ----- ---- -------<br>--- --- -- ----- -- --- want -- --- ---- -- ------ ------<br>--- ----- -- ----,200510.09999990463,200509.2000002861,200248.715,200259.40000009537,200282.898,200533.883,,45,want
screen,html.Screen,2_1_0_1_46,2022-02-03T13:06:09.375Z,,,,,,,,,,,,,,,,,53,,,,,,,,,,,,,,207.61699999999837,,response,,,,99,,,,,,,Space,keypress(Space),,,,,,,,---- -- ----- -- ------ - ------- --- ----------<br>------------- ------ ------ ---- ---- ------- ----- -- ----<br>-------- ------- -- ---------- --- - --- ----- ----- ----<br>---- --- --- ----- --- ---- ---- ------- ----- ---- -------<br>--- --- -- ----- -- --- ---- to --- ---- -- ------ ------<br>--- ----- -- ----,200742.40000009537,200741.5,200499.301,200510.30000019073,200533.883,200766.194,,46,to
screen,html.Screen,2_1_0_1_47,2022-02-03T13:06:09.601Z,,,,,,,,,,,,,,,,,53,,,,,,,,,,,,,,202.0060002861137,,response,,,,99,,,,,,,Space,keypress(Space),,,,,,,,"---- -- ----- -- ------ - ------- --- ----------<br>------------- ------ ------ ---- ---- ------- ----- -- ----<br>-------- ------- -- ---------- --- - --- ----- ----- ----<br>---- --- --- ----- --- ---- ---- ------- ----- ---- -------<br>--- --- -- ----- -- --- ---- -- be, ---- -- ------ ------<br>--- ----- -- ----",200969.2000002861,200968.2000002861,200733.607,200742.59999990463,200766.194,200992.93,,47,"be,"
screen,html.Screen,2_1_0_1_48,2022-02-03T13:06:09.831Z,,,,,,,,,,,,,,,,,53,,,,,,,,,,,,,,204.97000009537442,,response,,,,99,,,,,,,Space,keypress(Space),,,,,,,,---- -- ----- -- ------ - ------- --- ----------<br>------------- ------ ------ ---- ---- ------- ----- -- ----<br>-------- ------- -- ---------- --- - --- ----- ----- ----<br>---- --- --- ----- --- ---- ---- ------- ----- ---- -------<br>--- --- -- ----- -- --- ---- -- --- even -- ------ ------<br>--- ----- -- ----,201198.90000009537,201197.90000009537,200965.827,200969.40000009537,200992.93,201220.561,,48,even
screen,html.Screen,2_1_0_1_49,2022-02-03T13:06:10.062Z,,,,,,,,,,,,,,,,,53,,,,,,,,,,,,,,208.13900028611533,,response,,,,99,,,,,,,Space,keypress(Space),,,,,,,,---- -- ----- -- ------ - ------- --- ----------<br>------------- ------ ------ ---- ---- ------- ----- -- ----<br>-------- ------- -- ---------- --- - --- ----- ----- ----<br>---- --- --- ----- --- ---- ---- ------- ----- ---- -------<br>--- --- -- ----- -- --- ---- -- --- ---- if ------ ------<br>--- ----- -- ----,201429.59999990463,201428.7000002861,201192.87,201199,201220.561,201453.369,,49,if
screen,html.Screen,2_1_0_1_50,2022-02-03T13:06:10.294Z,,,,,,,,,,,,,,,,,53,,,,,,,,,,,,,,207.63099999999395,,response,,,,99,,,,,,,Space,keypress(Space),,,,,,,,---- -- ----- -- ------ - ------- --- ----------<br>------------- ------ ------ ---- ---- ------- ----- -- ----<br>-------- ------- -- ---------- --- - --- ----- ----- ----<br>---- --- --- ----- --- ---- ---- ------- ----- ---- -------<br>--- --- -- ----- -- --- ---- -- --- ---- -- that's ------<br>--- ----- -- ----,201661.90000009537,201661,201422.14,201429.90000009537,201453.369,201685.695,,50,that's
screen,html.Screen,2_1_0_1_51,2022-02-03T13:06:10.562Z,,,,,,,,,,,,,,,,,53,,,,,,,,,,,,,,243.20500009536045,,response,,,,99,,,,,,,Space,keypress(Space),,,,,,,,---- -- ----- -- ------ - ------- --- ----------<br>------------- ------ ------ ---- ---- ------- ----- -- ----<br>-------- ------- -- ---------- --- - --- ----- ----- ----<br>---- --- --- ----- --- ---- ---- ------- ----- ---- -------<br>--- --- -- ----- -- --- ---- -- --- ---- -- ------ really<br>--- ----- -- ----,201930,201928.90000009537,201653.087,201662.09999990463,201685.695,201953.731,,51,really
screen,html.Screen,2_1_0_1_52,2022-02-03T13:06:10.960Z,,,,,,,,,,,,,,,,,53,,,,,,,,,,,,,,373.4690002861025,,response,,,,99,,,,,,,Space,keypress(Space),,,,,,,,---- -- ----- -- ------ - ------- --- ----------<br>------------- ------ ------ ---- ---- ------- ----- -- ----<br>-------- ------- -- ---------- --- - --- ----- ----- ----<br>---- --- --- ----- --- ---- ---- ------- ----- ---- -------<br>--- --- -- ----- -- --- ---- -- --- ---- -- ------ ------<br>not ----- -- ----,202328.2000002861,202327.2000002861,201918.725,201930.2000002861,201953.731,202352.005,,52,not
screen,html.Screen,2_1_0_1_53,2022-02-03T13:06:11.171Z,,,,,,,,,,,,,,,,,53,,,,,,,,,,,,,,185.39500009536278,,response,,,,99,,,,,,,Space,keypress(Space),,,,,,,,---- -- ----- -- ------ - ------- --- ----------<br>------------- ------ ------ ---- ---- ------- ----- -- ----<br>-------- ------- -- ---------- --- - --- ----- ----- ----<br>---- --- --- ----- --- ---- ---- ------- ----- ---- -------<br>--- --- -- ----- -- --- ---- -- --- ---- -- ------ ------<br>--- close -- ----,202538.40000009537,202537.40000009537,202320.016,202328.40000009537,202352.005,202562.018,,53,close
screen,html.Screen,2_1_0_1_54,2022-02-03T13:06:11.453Z,,,,,,,,,,,,,,,,,53,,,,,,,,,,,,,,257.8820000953565,,response,,,,99,,,,,,,Space,keypress(Space),,,,,,,,---- -- ----- -- ------ - ------- --- ----------<br>------------- ------ ------ ---- ---- ------- ----- -- ----<br>-------- ------- -- ---------- --- - --- ----- ----- ----<br>---- --- --- ----- --- ---- ---- ------- ----- ---- -------<br>--- --- -- ----- -- --- ---- -- --- ---- -- ------ ------<br>--- ----- at ----,202820.80000019073,202819.90000009537,202535.296,202538.59999990463,202562.018,202844.399,,54,at
screen,html.Screen,2_1_0_1_55,2022-02-03T13:06:11.955Z,,,,,,,,,,,,,,,,,53,,,,,,,,,,,,,,477.7009999046277,,response,,,,99,,,,,,,Space,keypress(Space),,,,,,,,---- -- ----- -- ------ - ------- --- ----------<br>------------- ------ ------ ---- ---- ------- ----- -- ----<br>-------- ------- -- ---------- --- - --- ----- ----- ----<br>---- --- --- ----- --- ---- ---- ------- ----- ---- -------<br>--- --- -- ----- -- --- ---- -- --- ---- -- ------ ------<br>--- ----- -- all.,203323,203322.09999990463,202811.853,202821,202844.399,203355.097,,55,all.
Item 99,flow.Loop,2_1_0_1,2022-02-03T13:06:11.956Z,,,,,,,,,,,,,,,,,,,,,,,,,,,,,,,88346.76199990463,,completion,,,,,F,,,,,,,,,,,silence,,,,,203323.5,203322.09999990463,114941.987,114943.2000002861,114975.338,203355.097,,,
Question 1,html.Screen,2_1_0_2,2022-02-03T13:06:15.602Z,,,,,,,,,,,,,,,,,,,,,,,,,,,,false,FALSE,,3613.703000190726,,response,,,,99,F,,,,,,TRUE,click #choice-1,,,,silence,,,,,206969.80000019073,206968.80000019073,203311.012,203323.7000002861,203355.097,206978.101,,,
Question 2,html.Screen,2_1_0_3,2022-02-03T13:06:22.087Z,,,,,,,,,,,,,,,,,,,,,,,,,,,,false,TRUE,,6475.69900019074,,response,,,,99,F,,,,,,FALSE,click #choice-2,,,,silence,,,,,213454.7000002861,213453.80000019073,206961.701,206969.90000009537,206978.101,213469.518,,,
Item 99,flow.Sequence,2_1_0,2022-02-03T13:06:22.087Z,,,,,,,,,,,,,,,,,,,,,,,,,,,,,,,108494.21200019073,,completion,,,,,,,,,,,,,,,,,,,,,213455,213453.80000019073,104943.076,104951.30000019073,104959.588,213469.518,,,
Holding screen,html.Screen,2_1_1_0,2022-02-03T13:06:32.081Z,,,,,,,,,,,,,,,,,,,,,,,,,,,,,,,9995.243999999977,,timeout,,,,,,,,,,,,,,,,,,,,,223449,223448.092,213452.897,213455.09999990463,213469.518,223464.762,,,
screen,html.Screen,2_1_1_1_0,2022-02-03T13:06:32.954Z,,,,,,,,,,,,,,,,,54,,,,,,,,,,,,,,856.7380000000121,,response,,,,100,,,,,,,Space,keypress(Space),,,,,,,,At --- ---- --- ------ ----- ------- ---- -- --- ------- --<br>------- ---------- ------ -- ----- -- ----- -- ---- ------<br>--- ----- --- --- ------ -------- ----- --- ------ ----- --<br>----- ----- ---------- --- --- ------ ------ ---- -- ------<br>------- --- ------ ----- --- ---- ------- -- ---- --- --<br>------- ------,224322.30000019073,224321.5,223448.092,223449.2000002861,223464.762,224345.932,,0,At
screen,html.Screen,2_1_1_1_1,2022-02-03T13:06:33.423Z,,,,,,,,,,,,,,,,,54,,,,,,,,,,,,,,444.46800009536673,,response,,,,100,,,,,,,Space,keypress(Space),,,,,,,,-- the ---- --- ------ ----- ------- ---- -- --- ------- --<br>------- ---------- ------ -- ----- -- ----- -- ---- ------<br>--- ----- --- --- ------ -------- ----- --- ------ ----- --<br>----- ----- ---------- --- --- ------ ------ ---- -- ------<br>------- --- ------ ----- --- ---- ------- -- ---- --- --<br>------- ------,224791.30000019073,224790.40000009537,224314.652,224322.5,224345.932,224814.969,,1,the
screen,html.Screen,2_1_1_1_2,2022-02-03T13:06:33.716Z,,,,,,,,,,,,,,,,,54,,,,,,,,,,,,,,268.331000190723,,response,,,,100,,,,,,,Space,keypress(Space),,,,,,,,-- --- time --- ------ ----- ------- ---- -- --- ------- --<br>------- ---------- ------ -- ----- -- ----- -- ---- ------<br>--- ----- --- --- ------ -------- ----- --- ------ ----- --<br>----- ----- ---------- --- --- ------ ------ ---- -- ------<br>------- --- ------ ----- --- ---- ------- -- ---- --- --<br>------- ------,225084.2000002861,225083.30000019073,224779.297,224791.5,224814.969,225110.774,,2,time
screen,html.Screen,2_1_1_1_3,2022-02-03T13:06:34.310Z,,,,,,,,,,,,,,,,,54,,,,,,,,,,,,,,566.3259999046277,,response,,,,100,,,,,,,Space,keypress(Space),,,,,,,,-- --- ---- the ------ ----- ------- ---- -- --- ------- --<br>------- ---------- ------ -- ----- -- ----- -- ---- ------<br>--- ----- --- --- ------ -------- ----- --- ------ ----- --<br>----- ----- ---------- --- --- ------ ------ ---- -- ------<br>------- --- ------ ----- --- ---- ------- -- ---- --- --<br>------- ------,225677.90000009537,225677.09999990463,225081.682,225084.40000009537,225110.774,225705.04,,3,the
screen,html.Screen,2_1_1_1_4,2022-02-03T13:06:34.660Z,,,,,,,,,,,,,,,,,54,,,,,,,,,,,,,,322.3600000953593,,response,,,,100,,,,,,,Space,keypress(Space),,,,,,,,-- --- ---- --- French ----- ------- ---- -- --- ------- --<br>------- ---------- ------ -- ----- -- ----- -- ---- ------<br>--- ----- --- --- ------ -------- ----- --- ------ ----- --<br>----- ----- ---------- --- --- ------ ------ ---- -- ------<br>------- --- ------ ----- --- ---- ------- -- ---- --- --<br>------- ------,226028.40000009537,226027.40000009537,225674.346,225678.2000002861,225705.04,226050.398,,4,French
screen,html.Screen,2_1_1_1_5,2022-02-03T13:06:34.975Z,,,,,,,,,,,,,,,,,54,,,,,,,,,,,,,,291.7019999046461,,response,,,,100,,,,,,,Space,keypress(Space),,,,,,,,-- --- ---- --- ------ crown ------- ---- -- --- ------- --<br>------- ---------- ------ -- ----- -- ----- -- ---- ------<br>--- ----- --- --- ------ -------- ----- --- ------ ----- --<br>----- ----- ---------- --- --- ------ ------ ---- -- ------<br>------- --- ------ ----- --- ---- ------- -- ---- --- --<br>------- ------,226343,226342.09999990463,226018.338,226028.59999990463,226050.398,226366.813,,5,crown
screen,html.Screen,2_1_1_1_6,2022-02-03T13:06:35.253Z,,,,,,,,,,,,,,,,,54,,,,,,,,,,,,,,252.78699990463792,,response,,,,100,,,,,,,Space,keypress(Space),,,,,,,,-- --- ---- --- ------ ----- secured ---- -- --- ------- --<br>------- ---------- ------ -- ----- -- ----- -- ---- ------<br>--- ----- --- --- ------ -------- ----- --- ------ ----- --<br>----- ----- ---------- --- --- ------ ------ ---- -- ------<br>------- --- ------ ----- --- ---- ------- -- ---- --- --<br>------- ------,226620.59999990463,226619.59999990463,226335.107,226343.2000002861,226366.813,226644.18,,6,secured
screen,html.Screen,2_1_1_1_7,2022-02-03T13:06:35.805Z,,,,,,,,,,,,,,,,,54,,,,,,,,,,,,,,528.320000000007,,response,,,,100,,,,,,,Space,keypress(Space),,,,,,,,-- --- ---- --- ------ ----- ------- much -- --- ------- --<br>------- ---------- ------ -- ----- -- ----- -- ---- ------<br>--- ----- --- --- ------ -------- ----- --- ------ ----- --<br>----- ----- ---------- --- --- ------ ------ ---- -- ------<br>------- --- ------ ----- --- ---- ------- -- ---- --- --<br>------- ------,227173.30000019073,227172.5,226616.536,226620.80000019073,226644.18,227197.4,,7,much
screen,html.Screen,2_1_1_1_8,2022-02-03T13:06:36.272Z,,,,,,,,,,,,,,,,,54,,,,,,,,,,,,,,442.1999999046384,,response,,,,100,,,,,,,Space,keypress(Space),,,,,,,,-- --- ---- --- ------ ----- ------- ---- of --- ------- --<br>------- ---------- ------ -- ----- -- ----- -- ---- ------<br>--- ----- --- --- ------ -------- ----- --- ------ ----- --<br>----- ----- ---------- --- --- ------ ------ ---- -- ------<br>------- --- ------ ----- --- ---- ------- -- ---- --- --<br>------- ------,227640.5,227639.59999990463,227160.823,227173.59999990463,227197.4,227674.436,,8,of
screen,html.Screen,2_1_1_1_9,2022-02-03T13:06:36.723Z,,,,,,,,,,,,,,,,,54,,,,,,,,,,,,,,415.3640001907479,,response,,,,100,,,,,,,Space,keypress(Space),,,,,,,,-- --- ---- --- ------ ----- ------- ---- -- its ------- --<br>------- ---------- ------ -- ----- -- ----- -- ---- ------<br>--- ----- --- --- ------ -------- ----- --- ------ ----- --<br>----- ----- ---------- --- --- ------ ------ ---- -- ------<br>------- --- ------ ----- --- ---- ------- -- ---- --- --<br>------- ------,228090.80000019073,228089.80000019073,227630.506,227640.7000002861,227674.436,228114.626,,9,its
screen,html.Screen,2_1_1_1_10,2022-02-03T13:06:37.042Z,,,,,,,,,,,,,,,,,54,,,,,,,,,,,,,,294.8740000000107,,response,,,,100,,,,,,,Space,keypress(Space),,,,,,,,-- --- ---- --- ------ ----- ------- ---- -- --- revenue --<br>------- ---------- ------ -- ----- -- ----- -- ---- ------<br>--- ----- --- --- ------ -------- ----- --- ------ ----- --<br>----- ----- ---------- --- --- ------ ------ ---- -- ------<br>------- --- ------ ----- --- ---- ------- -- ---- --- --<br>------- ------,228410.5,228409.5,228080.82,228091,228114.626,228438.288,,10,revenue
screen,html.Screen,2_1_1_1_11,2022-02-03T13:06:37.643Z,,,,,,,,,,,,,,,,,54,,,,,,,,,,,,,,571.7119999999995,,response,,,,100,,,,,,,Space,keypress(Space),,,,,,,,-- --- ---- --- ------ ----- ------- ---- -- --- ------- by<br>------- ---------- ------ -- ----- -- ----- -- ---- ------<br>--- ----- --- --- ------ -------- ----- --- ------ ----- --<br>----- ----- ---------- --- --- ------ ------ ---- -- ------<br>------- --- ------ ----- --- ---- ------- -- ---- --- --<br>------- ------,229010.90000009537,229010,228397.825,228410.7000002861,228438.288,229034.752,,11,by
screen,html.Screen,2_1_1_1_12,2022-02-03T13:06:38.085Z,,,,,,,,,,,,,,,,,54,,,,,,,,,,,,,,416.9480002860946,,response,,,,100,,,,,,,Space,keypress(Space),,,,,,,,-- --- ---- --- ------ ----- ------- ---- -- --- ------- --<br>issuing ---------- ------ -- ----- -- ----- -- ---- ------<br>--- ----- --- --- ------ -------- ----- --- ------ ----- --<br>----- ----- ---------- --- --- ------ ------ ---- -- ------<br>------- --- ------ ----- --- ---- ------- -- ---- --- --<br>------- ------,229452.5,229451.7000002861,229000.775,229011.09999990463,229034.752,229476.385,,12,issuing
screen,html.Screen,2_1_1_1_13,2022-02-03T13:06:38.345Z,,,,,,,,,,,,,,,,,54,,,,,,,,,,,,,,236.01500009535812,,response,,,,100,,,,,,,Space,keypress(Space),,,,,,,,-- --- ---- --- ------ ----- ------- ---- -- --- ------- --<br>------- government ------ -- ----- -- ----- -- ---- ------<br>--- ----- --- --- ------ -------- ----- --- ------ ----- --<br>----- ----- ---------- --- --- ------ ------ ---- -- ------<br>------- --- ------ ----- --- ---- ------- -- ---- --- --<br>------- ------,229713.30000019073,229712.40000009537,229451.265,229452.7000002861,229476.385,229737.086,,13,government
screen,html.Screen,2_1_1_1_14,2022-02-03T13:06:38.621Z,,,,,,,,,,,,,,,,,54,,,,,,,,,,,,,,251.3140000953572,,response,,,,100,,,,,,,Space,keypress(Space),,,,,,,,-- --- ---- --- ------ ----- ------- ---- -- --- ------- --<br>------- ---------- bonds. -- ----- -- ----- -- ---- ------<br>--- ----- --- --- ------ -------- ----- --- ------ ----- --<br>----- ----- ---------- --- --- ------ ------ ---- -- ------<br>------- --- ------ ----- --- ---- ------- -- ---- --- --<br>------- ------,229989.40000009537,229988.40000009537,229709.529,229713.5,229737.086,230012.222,,14,bonds.
screen,html.Screen,2_1_1_1_15,2022-02-03T13:06:40.680Z,,,,,,,,,,,,,,,,,54,,,,,,,,,,,,,,2035.078000190726,,response,,,,100,,,,,,,Space,keypress(Space),,,,,,,,-- --- ---- --- ------ ----- ------- ---- -- --- ------- --<br>------- ---------- ------ In ----- -- ----- -- ---- ------<br>--- ----- --- --- ------ -------- ----- --- ------ ----- --<br>----- ----- ---------- --- --- ------ ------ ---- -- ------<br>------- --- ------ ----- --- ---- ------- -- ---- --- --<br>------- ------,232048.30000019073,232047.30000019073,229986.927,229989.7000002861,230012.222,232072.272,,15,In
screen,html.Screen,2_1_1_1_16,2022-02-03T13:06:40.972Z,,,,,,,,,,,,,,,,,54,,,,,,,,,,,,,,266.6280000953702,,response,,,,100,,,,,,,Space,keypress(Space),,,,,,,,"-- --- ---- --- ------ ----- ------- ---- -- --- ------- --<br>------- ---------- ------ -- 1727, -- ----- -- ---- ------<br>--- ----- --- --- ------ -------- ----- --- ------ ----- --<br>----- ----- ---------- --- --- ------ ------ ---- -- ------<br>------- --- ------ ----- --- ---- ------- -- ---- --- --<br>------- ------",232339.80000019073,232338.90000009537,232045.593,232048.59999990463,232072.272,232366.84,,16,"1727,"
screen,html.Screen,2_1_1_1_17,2022-02-03T13:06:41.238Z,,,,,,,,,,,,,,,,,54,,,,,,,,,,,,,,238.56000009537092,,response,,,,100,,,,,,,Space,keypress(Space),,,,,,,,-- --- ---- --- ------ ----- ------- ---- -- --- ------- --<br>------- ---------- ------ -- ----- in ----- -- ---- ------<br>--- ----- --- --- ------ -------- ----- --- ------ ----- --<br>----- ----- ---------- --- --- ------ ------ ---- -- ------<br>------- --- ------ ----- --- ---- ------- -- ---- --- --<br>------- ------,232606.2000002861,232605.40000009537,232338.86,232340.09999990463,232366.84,232630.078,,17,in
screen,html.Screen,2_1_1_1_18,2022-02-03T13:06:41.492Z,,,,,,,,,,,,,,,,,54,,,,,,,,,,,,,,228.92199999999139,,response,,,,100,,,,,,,Space,keypress(Space),,,,,,,,-- --- ---- --- ------ ----- ------- ---- -- --- ------- --<br>------- ---------- ------ -- ----- -- order -- ---- ------<br>--- ----- --- --- ------ -------- ----- --- ------ ----- --<br>----- ----- ---------- --- --- ------ ------ ---- -- ------<br>------- --- ------ ----- --- ---- ------- -- ---- --- --<br>------- ------,232859.90000009537,232859,232596.912,232606.59999990463,232630.078,232883.678,,18,order
screen,html.Screen,2_1_1_1_19,2022-02-03T13:06:41.985Z,,,,,,,,,,,,,,,,,54,,,,,,,,,,,,,,468.52200028608786,,response,,,,100,,,,,,,Space,keypress(Space),,,,,,,,-- --- ---- --- ------ ----- ------- ---- -- --- ------- --<br>------- ---------- ------ -- ----- -- ----- to ---- ------<br>--- ----- --- --- ------ -------- ----- --- ------ ----- --<br>----- ----- ---------- --- --- ------ ------ ---- -- ------<br>------- --- ------ ----- --- ---- ------- -- ---- --- --<br>------- ------,233352.90000009537,233352.2000002861,232846.513,232860.09999990463,232883.678,233375.967,,19,to
screen,html.Screen,2_1_1_1_20,2022-02-03T13:06:42.225Z,,,,,,,,,,,,,,,,,54,,,,,,,,,,,,,,215.93300009536324,,response,,,,100,,,,,,,Space,keypress(Space),,,,,,,,-- --- ---- --- ------ ----- ------- ---- -- --- ------- --<br>------- ---------- ------ -- ----- -- ----- -- save ------<br>--- ----- --- --- ------ -------- ----- --- ------ ----- --<br>----- ----- ---------- --- --- ------ ------ ---- -- ------<br>------- --- ------ ----- --- ---- ------- -- ---- --- --<br>------- ------,233592.80000019073,233591.90000009537,233350.219,233352.90000009537,233375.967,233616.708,,20,save
screen,html.Screen,2_1_1_1_21,2022-02-03T13:06:42.417Z,,,,,,,,,,,,,,,,,54,,,,,,,,,,,,,,167.5920001907216,,response,,,,100,,,,,,,Space,keypress(Space),,,,,,,,"-- --- ---- --- ------ ----- ------- ---- -- --- ------- --<br>------- ---------- ------ -- ----- -- ----- -- ---- money,<br>--- ----- --- --- ------ -------- ----- --- ------ ----- --<br>----- ----- ---------- --- --- ------ ------ ---- -- ------<br>------- --- ------ ----- --- ---- ------- -- ---- --- --<br>------- ------",233785.2000002861,233784.30000019073,233592.355,233593.09999990463,233616.708,233808.975,,21,"money,"
screen,html.Screen,2_1_1_1_22,2022-02-03T13:06:42.905Z,,,,,,,,,,,,,,,,,54,,,,,,,,,,,,,,463.2250002860965,,response,,,,100,,,,,,,Space,keypress(Space),,,,,,,,-- --- ---- --- ------ ----- ------- ---- -- --- ------- --<br>------- ---------- ------ -- ----- -- ----- -- ---- ------<br>the ----- --- --- ------ -------- ----- --- ------ ----- --<br>----- ----- ---------- --- --- ------ ------ ---- -- ------<br>------- --- ------ ----- --- ---- ------- -- ---- --- --<br>------- ------,234273.2000002861,234272.2000002861,233783.216,233785.5,233808.975,234294.215,,22,the
screen,html.Screen,2_1_1_1_23,2022-02-03T13:06:43.133Z,,,,,,,,,,,,,,,,,54,,,,,,,,,,,,,,206.18500009537092,,response,,,,100,,,,,,,Space,keypress(Space),,,,,,,,-- --- ---- --- ------ ----- ------- ---- -- --- ------- --<br>------- ---------- ------ -- ----- -- ----- -- ---- ------<br>--- state --- --- ------ -------- ----- --- ------ ----- --<br>----- ----- ---------- --- --- ------ ------ ---- -- ------<br>------- --- ------ ----- --- ---- ------- -- ---- --- --<br>------- ------,234501.30000019073,234500.40000009537,234258.578,234273.5,234294.215,234524.638,,23,state
screen,html.Screen,2_1_1_1_24,2022-02-03T13:06:43.373Z,,,,,,,,,,,,,,,,,54,,,,,,,,,,,,,,215.76200009536115,,response,,,,100,,,,,,,Space,keypress(Space),,,,,,,,-- --- ---- --- ------ ----- ------- ---- -- --- ------- --<br>------- ---------- ------ -- ----- -- ----- -- ---- ------<br>--- ----- cut --- ------ -------- ----- --- ------ ----- --<br>----- ----- ---------- --- --- ------ ------ ---- -- ------<br>------- --- ------ ----- --- ---- ------- -- ---- --- --<br>------- ------,234741.30000019073,234740.40000009537,234496.533,234501.5,234524.638,234764.607,,24,cut
screen,html.Screen,2_1_1_1_25,2022-02-03T13:06:43.625Z,,,,,,,,,,,,,,,,,54,,,,,,,,,,,,,,227.39300000001094,,response,,,,100,,,,,,,Space,keypress(Space),,,,,,,,-- --- ---- --- ------ ----- ------- ---- -- --- ------- --<br>------- ---------- ------ -- ----- -- ----- -- ---- ------<br>--- ----- --- the ------ -------- ----- --- ------ ----- --<br>----- ----- ---------- --- --- ------ ------ ---- -- ------<br>------- --- ------ ----- --- ---- ------- -- ---- --- --<br>------- ------,234992.90000009537,234992,234741.022,234741.5,234764.607,235016.245,,25,the
screen,html.Screen,2_1_1_1_26,2022-02-03T13:06:43.863Z,,,,,,,,,,,,,,,,,54,,,,,,,,,,,,,,213.85499990463722,,response,,,,100,,,,,,,Space,keypress(Space),,,,,,,,-- --- ---- --- ------ ----- ------- ---- -- --- ------- --<br>------- ---------- ------ -- ----- -- ----- -- ---- ------<br>--- ----- --- --- bonds' -------- ----- --- ------ ----- --<br>----- ----- ---------- --- --- ------ ------ ---- -- ------<br>------- --- ------ ----- --- ---- ------- -- ---- --- --<br>------- ------,235230.90000009537,235230.09999990463,234981.142,234993.09999990463,235016.245,235254.394,,26,bonds'
screen,html.Screen,2_1_1_1_27,2022-02-03T13:06:44.146Z,,,,,,,,,,,,,,,,,54,,,,,,,,,,,,,,259.0060000953672,,response,,,,100,,,,,,,Space,keypress(Space),,,,,,,,-- --- ---- --- ------ ----- ------- ---- -- --- ------- --<br>------- ---------- ------ -- ----- -- ----- -- ---- ------<br>--- ----- --- --- ------ interest ----- --- ------ ----- --<br>----- ----- ---------- --- --- ------ ------ ---- -- ------<br>------- --- ------ ----- --- ---- ------- -- ---- --- --<br>------- ------,235514.40000009537,235513.40000009537,235215.933,235231.2000002861,235254.394,235538.975,,27,interest
screen,html.Screen,2_1_1_1_28,2022-02-03T13:06:44.503Z,,,,,,,,,,,,,,,,,54,,,,,,,,,,,,,,330.7250002860965,,response,,,,100,,,,,,,Space,keypress(Space),,,,,,,,-- --- ---- --- ------ ----- ------- ---- -- --- ------- --<br>------- ---------- ------ -- ----- -- ----- -- ---- ------<br>--- ----- --- --- ------ -------- rate. --- ------ ----- --<br>----- ----- ---------- --- --- ------ ------ ---- -- ------<br>------- --- ------ ----- --- ---- ------- -- ---- --- --<br>------- ------,235870.7000002861,235869.7000002861,235504.379,235514.7000002861,235538.975,235894.06,,28,rate.
screen,html.Screen,2_1_1_1_29,2022-02-03T13:06:44.789Z,,,,,,,,,,,,,,,,,54,,,,,,,,,,,,,,261.5399999046349,,response,,,,100,,,,,,,Space,keypress(Space),,,,,,,,-- --- ---- --- ------ ----- ------- ---- -- --- ------- --<br>------- ---------- ------ -- ----- -- ----- -- ---- ------<br>--- ----- --- --- ------ -------- ----- The ------ ----- --<br>----- ----- ---------- --- --- ------ ------ ---- -- ------<br>------- --- ------ ----- --- ---- ------- -- ---- --- --<br>------- ------,236156.5,236155.59999990463,235870.816,235870.90000009537,235894.06,236179.814,,29,The
screen,html.Screen,2_1_1_1_30,2022-02-03T13:06:45.021Z,,,,,,,,,,,,,,,,,54,,,,,,,,,,,,,,207.68599999998696,,response,,,,100,,,,,,,Space,keypress(Space),,,,,,,,-- --- ---- --- ------ ----- ------- ---- -- --- ------- --<br>------- ---------- ------ -- ----- -- ----- -- ---- ------<br>--- ----- --- --- ------ -------- ----- --- market ----- --<br>----- ----- ---------- --- --- ------ ------ ---- -- ------<br>------- --- ------ ----- --- ---- ------- -- ---- --- --<br>------- ------,236388.5,236387.5,236143.984,236156.80000019073,236179.814,236411.923,,30,market
screen,html.Screen,2_1_1_1_31,2022-02-03T13:06:45.250Z,,,,,,,,,,,,,,,,,54,,,,,,,,,,,,,,205.07699999999022,,response,,,,100,,,,,,,Space,keypress(Space),,,,,,,,-- --- ---- --- ------ ----- ------- ---- -- --- ------- --<br>------- ---------- ------ -- ----- -- ----- -- ---- ------<br>--- ----- --- --- ------ -------- ----- --- ------ value --<br>----- ----- ---------- --- --- ------ ------ ---- -- ------<br>------- --- ------ ----- --- ---- ------- -- ---- --- --<br>------- ------,236618,236617,236379.792,236388.80000019073,236411.923,236641.147,,31,value
screen,html.Screen,2_1_1_1_32,2022-02-03T13:06:45.509Z,,,,,,,,,,,,,,,,,54,,,,,,,,,,,,,,234.75300009537023,,response,,,,100,,,,,,,Space,keypress(Space),,,,,,,,-- --- ---- --- ------ ----- ------- ---- -- --- ------- --<br>------- ---------- ------ -- ----- -- ----- -- ---- ------<br>--- ----- --- --- ------ -------- ----- --- ------ ----- of<br>----- ----- ---------- --- --- ------ ------ ---- -- ------<br>------- --- ------ ----- --- ---- ------- -- ---- --- --<br>------- ------,236876.7000002861,236875.90000009537,236611.864,236618.2000002861,236641.147,236900.031,,32,of
screen,html.Screen,2_1_1_1_33,2022-02-03T13:06:45.779Z,,,,,,,,,,,,,,,,,54,,,,,,,,,,,,,,245.56899990464444,,response,,,,100,,,,,,,Space,keypress(Space),,,,,,,,-- --- ---- --- ------ ----- ------- ---- -- --- ------- --<br>------- ---------- ------ -- ----- -- ----- -- ---- ------<br>--- ----- --- --- ------ -------- ----- --- ------ ----- --<br>these ----- ---------- --- --- ------ ------ ---- -- ------<br>------- --- ------ ----- --- ---- ------- -- ---- --- --<br>------- ------,237146.59999990463,237145.59999990463,236874.366,236876.90000009537,236900.031,237169.821,,33,these
screen,html.Screen,2_1_1_1_34,2022-02-03T13:06:46.041Z,,,,,,,,,,,,,,,,,54,,,,,,,,,,,,,,238.17900000000373,,response,,,,100,,,,,,,Space,keypress(Space),,,,,,,,-- --- ---- --- ------ ----- ------- ---- -- --- ------- --<br>------- ---------- ------ -- ----- -- ----- -- ---- ------<br>--- ----- --- --- ------ -------- ----- --- ------ ----- --<br>----- bonds ---------- --- --- ------ ------ ---- -- ------<br>------- --- ------ ----- --- ---- ------- -- ---- --- --<br>------- ------,237408.90000009537,237408,237133.116,237146.90000009537,237169.821,237436.637,,34,bonds
screen,html.Screen,2_1_1_1_35,2022-02-03T13:06:46.277Z,,,,,,,,,,,,,,,,,54,,,,,,,,,,,,,,207.8630000000121,,response,,,,100,,,,,,,Space,keypress(Space),,,,,,,,"-- --- ---- --- ------ ----- ------- ---- -- --- ------- --<br>------- ---------- ------ -- ----- -- ----- -- ---- ------<br>--- ----- --- --- ------ -------- ----- --- ------ ----- --<br>----- ----- plummeted, --- --- ------ ------ ---- -- ------<br>------- --- ------ ----- --- ---- ------- -- ---- --- --<br>------- ------",237645.40000009537,237644.5,237403.026,237409.2000002861,237436.637,237648.684,,35,"plummeted,"
screen,html.Screen,2_1_1_1_36,2022-02-03T13:06:46.595Z,,,,,,,,,,,,,,,,,54,,,,,,,,,,,,,,312.9159999046242,,response,,,,100,,,,,,,Space,keypress(Space),,,,,,,,-- --- ---- --- ------ ----- ------- ---- -- --- ------- --<br>------- ---------- ------ -- ----- -- ----- -- ---- ------<br>--- ----- --- --- ------ -------- ----- --- ------ ----- --<br>----- ----- ---------- and --- ------ ------ ---- -- ------<br>------- --- ------ ----- --- ---- ------- -- ---- --- --<br>------- ------,237962.59999990463,237961.59999990463,237632.247,237645.59999990463,237648.684,237982.453,,36,and
screen,html.Screen,2_1_1_1_37,2022-02-03T13:06:47.358Z,,,,,,,,,,,,,,,,,54,,,,,,,,,,,,,,742.7470002860937,,response,,,,100,,,,,,,Space,keypress(Space),,,,,,,,-- --- ---- --- ------ ----- ------- ---- -- --- ------- --<br>------- ---------- ------ -- ----- -- ----- -- ---- ------<br>--- ----- --- --- ------ -------- ----- --- ------ ----- --<br>----- ----- ---------- --- the ------ ------ ---- -- ------<br>------- --- ------ ----- --- ---- ------- -- ---- --- --<br>------- ------,238726.09999990463,238725.2000002861,237954.183,237962.80000019073,237982.453,238749.236,,37,the
screen,html.Screen,2_1_1_1_38,2022-02-03T13:06:47.722Z,,,,,,,,,,,,,,,,,54,,,,,,,,,,,,,,340.2639999999956,,response,,,,100,,,,,,,Space,keypress(Space),,,,,,,,-- --- ---- --- ------ ----- ------- ---- -- --- ------- --<br>------- ---------- ------ -- ----- -- ----- -- ---- ------<br>--- ----- --- --- ------ -------- ----- --- ------ ----- --<br>----- ----- ---------- --- --- market ------ ---- -- ------<br>------- --- ------ ----- --- ---- ------- -- ---- --- --<br>------- ------,239090.30000019073,239089.5,238718.932,238726.30000019073,238749.236,239119.936,,38,market
screen,html.Screen,2_1_1_1_39,2022-02-03T13:06:47.983Z,,,,,,,,,,,,,,,,,54,,,,,,,,,,,,,,230.26400028611533,,response,,,,100,,,,,,,Space,keypress(Space),,,,,,,,-- --- ---- --- ------ ----- ------- ---- -- --- ------- --<br>------- ---------- ------ -- ----- -- ----- -- ---- ------<br>--- ----- --- --- ------ -------- ----- --- ------ ----- --<br>----- ----- ---------- --- --- ------ became ---- -- ------<br>------- --- ------ ----- --- ---- ------- -- ---- --- --<br>------- ------,239351,239350.2000002861,239082.41,239090.59999990463,239119.936,239374.415,,39,became
screen,html.Screen,2_1_1_1_40,2022-02-03T13:06:48.283Z,,,,,,,,,,,,,,,,,54,,,,,,,,,,,,,,275.6849999046244,,response,,,,100,,,,,,,Space,keypress(Space),,,,,,,,-- --- ---- --- ------ ----- ------- ---- -- --- ------- --<br>------- ---------- ------ -- ----- -- ----- -- ---- ------<br>--- ----- --- --- ------ -------- ----- --- ------ ----- --<br>----- ----- ---------- --- --- ------ ------ wary -- ------<br>------- --- ------ ----- --- ---- ------- -- ---- --- --<br>------- ------,239651.2000002861,239650.09999990463,239347.004,239351.30000019073,239374.415,239674.631,,40,wary
screen,html.Screen,2_1_1_1_41,2022-02-03T13:06:48.655Z,,,,,,,,,,,,,,,,,54,,,,,,,,,,,,,,347.56900028610835,,response,,,,100,,,,,,,Space,keypress(Space),,,,,,,,-- --- ---- --- ------ ----- ------- ---- -- --- ------- --<br>------- ---------- ------ -- ----- -- ----- -- ---- ------<br>--- ----- --- --- ------ -------- ----- --- ------ ----- --<br>----- ----- ---------- --- --- ------ ------ ---- of ------<br>------- --- ------ ----- --- ---- ------- -- ---- --- --<br>------- ------,240023.09999990463,240022.2000002861,239640.999,239651.40000009537,239674.631,240046.53,,41,of
screen,html.Screen,2_1_1_1_42,2022-02-03T13:06:48.973Z,,,,,,,,,,,,,,,,,54,,,,,,,,,,,,,,293.770000190736,,response,,,,100,,,,,,,Space,keypress(Space),,,,,,,,-- --- ---- --- ------ ----- ------- ---- -- --- ------- --<br>------- ---------- ------ -- ----- -- ----- -- ---- ------<br>--- ----- --- --- ------ -------- ----- --- ------ ----- --<br>----- ----- ---------- --- --- ------ ------ ---- -- French<br>------- --- ------ ----- --- ---- ------- -- ---- --- --<br>------- ------,240341.2000002861,240340.30000019073,240007.852,240023.30000019073,240046.53,240364.667,,42,French
screen,html.Screen,2_1_1_1_43,2022-02-03T13:06:49.364Z,,,,,,,,,,,,,,,,,54,,,,,,,,,,,,,,366.63300019074813,,response,,,,100,,,,,,,Space,keypress(Space),,,,,,,,-- --- ---- --- ------ ----- ------- ---- -- --- ------- --<br>------- ---------- ------ -- ----- -- ----- -- ---- ------<br>--- ----- --- --- ------ -------- ----- --- ------ ----- --<br>----- ----- ---------- --- --- ------ ------ ---- -- ------<br>credit. --- ------ ----- --- ---- ------- -- ---- --- --<br>------- ------,240732.09999990463,240731.30000019073,240329.519,240341.40000009537,240364.667,240756.557,,43,credit.
screen,html.Screen,2_1_1_1_44,2022-02-03T13:06:49.772Z,,,,,,,,,,,,,,,,,54,,,,,,,,,,,,,,383.04299990463187,,response,,,,100,,,,,,,Space,keypress(Space),,,,,,,,-- --- ---- --- ------ ----- ------- ---- -- --- ------- --<br>------- ---------- ------ -- ----- -- ----- -- ---- ------<br>--- ----- --- --- ------ -------- ----- --- ------ ----- --<br>----- ----- ---------- --- --- ------ ------ ---- -- ------<br>------- The ------ ----- --- ---- ------- -- ---- --- --<br>------- ------,241140.5,241139.59999990463,240731.203,240732.40000009537,240756.557,241161.396,,44,The
screen,html.Screen,2_1_1_1_45,2022-02-03T13:06:50.082Z,,,,,,,,,,,,,,,,,54,,,,,,,,,,,,,,288.20399990462465,,response,,,,100,,,,,,,Space,keypress(Space),,,,,,,,-- --- ---- --- ------ ----- ------- ---- -- --- ------- --<br>------- ---------- ------ -- ----- -- ----- -- ---- ------<br>--- ----- --- --- ------ -------- ----- --- ------ ----- --<br>----- ----- ---------- --- --- ------ ------ ---- -- ------<br>------- --- French ----- --- ---- ------- -- ---- --- --<br>------- ------,241450.40000009537,241449.59999990463,241138.511,241140.59999990463,241161.396,241473.76,,45,French
screen,html.Screen,2_1_1_1_46,2022-02-03T13:06:50.311Z,,,,,,,,,,,,,,,,,54,,,,,,,,,,,,,,204.33999990462326,,response,,,,100,,,,,,,Space,keypress(Space),,,,,,,,-- --- ---- --- ------ ----- ------- ---- -- --- ------- --<br>------- ---------- ------ -- ----- -- ----- -- ---- ------<br>--- ----- --- --- ------ -------- ----- --- ------ ----- --<br>----- ----- ---------- --- --- ------ ------ ---- -- ------<br>------- --- ------ state --- ---- ------- -- ---- --- --<br>------- ------,241679.2000002861,241678.09999990463,241446.863,241450.59999990463,241473.76,241706.703,,46,state
screen,html.Screen,2_1_1_1_47,2022-02-03T13:06:50.539Z,,,,,,,,,,,,,,,,,54,,,,,,,,,,,,,,199.69700009535882,,response,,,,100,,,,,,,Space,keypress(Space),,,,,,,,-- --- ---- --- ------ ----- ------- ---- -- --- ------- --<br>------- ---------- ------ -- ----- -- ----- -- ---- ------<br>--- ----- --- --- ------ -------- ----- --- ------ ----- --<br>----- ----- ---------- --- --- ------ ------ ---- -- ------<br>------- --- ------ ----- was ---- ------- -- ---- --- --<br>------- ------,241907.30000019073,241906.40000009537,241673.525,241679.5,241706.703,241919.018,,47,was
screen,html.Screen,2_1_1_1_48,2022-02-03T13:06:50.796Z,,,,,,,,,,,,,,,,,54,,,,,,,,,,,,,,244.3820000953565,,response,,,,100,,,,,,,Space,keypress(Space),,,,,,,,-- --- ---- --- ------ ----- ------- ---- -- --- ------- --<br>------- ---------- ------ -- ----- -- ----- -- ---- ------<br>--- ----- --- --- ------ -------- ----- --- ------ ----- --<br>----- ----- ---------- --- --- ------ ------ ---- -- ------<br>------- --- ------ ----- --- left ------- -- ---- --- --<br>------- ------,242164.40000009537,242163.40000009537,241902.591,241907.5,241919.018,242187.785,,48,left
screen,html.Screen,2_1_1_1_49,2022-02-03T13:06:51.038Z,,,,,,,,,,,,,,,,,54,,,,,,,,,,,,,,217.01500019073137,,response,,,,100,,,,,,,Space,keypress(Space),,,,,,,,-- --- ---- --- ------ ----- ------- ---- -- --- ------- --<br>------- ---------- ------ -- ----- -- ----- -- ---- ------<br>--- ----- --- --- ------ -------- ----- --- ------ ----- --<br>----- ----- ---------- --- --- ------ ------ ---- -- ------<br>------- --- ------ ----- --- ---- without -- ---- --- --<br>------- ------,242405.7000002861,242404.80000019073,242157.719,242164.59999990463,242187.785,242437.935,,49,without
screen,html.Screen,2_1_1_1_50,2022-02-03T13:06:51.282Z,,,,,,,,,,,,,,,,,54,,,,,,,,,,,,,,210.6649999046349,,response,,,,100,,,,,,,Space,keypress(Space),,,,,,,,-- --- ---- --- ------ ----- ------- ---- -- --- ------- --<br>------- ---------- ------ -- ----- -- ----- -- ---- ------<br>--- ----- --- --- ------ -------- ----- --- ------ ----- --<br>----- ----- ---------- --- --- ------ ------ ---- -- ------<br>------- --- ------ ----- --- ---- ------- an ---- --- --<br>------- ------,242649.5,242648.59999990463,242404.266,242406,242437.935,242673.027,,50,an
screen,html.Screen,2_1_1_1_51,2022-02-03T13:06:51.524Z,,,,,,,,,,,,,,,,,54,,,,,,,,,,,,,,217.47299999999814,,response,,,,100,,,,,,,Space,keypress(Space),,,,,,,,-- --- ---- --- ------ ----- ------- ---- -- --- ------- --<br>------- ---------- ------ -- ----- -- ----- -- ---- ------<br>--- ----- --- --- ------ -------- ----- --- ------ ----- --<br>----- ----- ---------- --- --- ------ ------ ---- -- ------<br>------- --- ------ ----- --- ---- ------- -- easy --- --<br>------- ------,242891.59999990463,242890.5,242645.689,242649.80000019073,242673.027,242906.004,,51,easy
screen,html.Screen,2_1_1_1_52,2022-02-03T13:06:51.812Z,,,,,,,,,,,,,,,,,54,,,,,,,,,,,,,,273.19600028611603,,response,,,,100,,,,,,,Space,keypress(Space),,,,,,,,-- --- ---- --- ------ ----- ------- ---- -- --- ------- --<br>------- ---------- ------ -- ----- -- ----- -- ---- ------<br>--- ----- --- --- ------ -------- ----- --- ------ ----- --<br>----- ----- ---------- --- --- ------ ------ ---- -- ------<br>------- --- ------ ----- --- ---- ------- -- ---- way --<br>------- ------,243180.2000002861,243179.2000002861,242889.543,242891.80000019073,242906.004,243199.281,,52,way
screen,html.Screen,2_1_1_1_53,2022-02-03T13:06:52.053Z,,,,,,,,,,,,,,,,,54,,,,,,,,,,,,,,221.21900000001187,,response,,,,100,,,,,,,Space,keypress(Space),,,,,,,,-- --- ---- --- ------ ----- ------- ---- -- --- ------- --<br>------- ---------- ------ -- ----- -- ----- -- ---- ------<br>--- ----- --- --- ------ -------- ----- --- ------ ----- --<br>----- ----- ---------- --- --- ------ ------ ---- -- ------<br>------- --- ------ ----- --- ---- ------- -- ---- --- of<br>------- ------,243421.40000009537,243420.5,243178.257,243180.40000009537,243199.281,243444.769,,53,of
screen,html.Screen,2_1_1_1_54,2022-02-03T13:06:52.340Z,,,,,,,,,,,,,,,,,54,,,,,,,,,,,,,,262.53100019073463,,response,,,,100,,,,,,,Space,keypress(Space),,,,,,,,-- --- ---- --- ------ ----- ------- ---- -- --- ------- --<br>------- ---------- ------ -- ----- -- ----- -- ---- ------<br>--- ----- --- --- ------ -------- ----- --- ------ ----- --<br>----- ----- ---------- --- --- ------ ------ ---- -- ------<br>------- --- ------ ----- --- ---- ------- -- ---- --- --<br>raising ------,243708.30000019073,243707.30000019073,243420.329,243421.59999990463,243444.769,243731.676,,54,raising
screen,html.Screen,2_1_1_1_55,2022-02-03T13:06:52.835Z,,,,,,,,,,,,,,,,,54,,,,,,,,,,,,,,470.6240001907281,,response,,,,100,,,,,,,Space,keypress(Space),,,,,,,,-- --- ---- --- ------ ----- ------- ---- -- --- ------- --<br>------- ---------- ------ -- ----- -- ----- -- ---- ------<br>--- ----- --- --- ------ -------- ----- --- ------ ----- --<br>----- ----- ---------- --- --- ------ ------ ---- -- ------<br>------- --- ------ ----- --- ---- ------- -- ---- --- --<br>------- money.,244203.2000002861,244202.30000019073,243694.739,243708.5,243731.676,244229.292,,55,money.
Item 100,flow.Loop,2_1_1_1,2022-02-03T13:06:52.836Z,,,,,,,,,,,,,,,,,,,,,,,,,,,,,,,20737.538000190747,,completion,,,,,F,,,,,,,,,,,silence,,,,,244203.59999990463,244202.30000019073,223448.092,223449.09999990463,223464.762,244229.292,,,
Question 1,html.Screen,2_1_1_2,2022-02-03T13:06:55.935Z,,,,,,,,,,,,,,,,,,,,,,,,,,,,true,TRUE,,3072.307999904646,,response,,,,100,F,,,,,,TRUE,click #choice-1,,,,silence,,,,,247302.5,247301.59999990463,244198.18,244203.80000019073,244229.292,247310.415,,,
Question 2,html.Screen,2_1_1_3,2022-02-03T13:06:58.456Z,,,,,,,,,,,,,,,,,,,,,,,,,,,,true,FALSE,,2512.6849999046244,,response,,,,100,F,,,,,,FALSE,click #choice-2,,,,silence,,,,,249824.2000002861,249823.09999990463,247293.851,247302.7000002861,247310.415,249831.713,,,
Item 100,flow.Sequence,2_1_1,2022-02-03T13:06:58.457Z,,,,,,,,,,,,,,,,,,,,,,,,,,,,,,,36353.58199990462,,completion,,,,,,,,,,,,,,,,,,,,,249824.5,249823.09999990463,213452.897,213455,213469.518,249831.713,,,
End of Practice,html.Page,2_1_2,2022-02-03T13:07:03.684Z,,,,,,,,,,,,,,,,,,,,,,,,,,,,,,,5219.787000000011,,form submission,,,,,,,,,,,,,,,,,,,,,255051.80000019073,255051.5,249815.213,249824.7000002861,249831.713,255060.521,,,
Practice,flow.Sequence,2_1,2022-02-03T13:07:03.684Z,,,,,,,,,,,,,,,,,,,,,,,,,,,,,,,150091.912,,completion,,,,,,,,,,,,,,,,,,,,,255052,255051.5,104943.076,104951.30000019073,104959.588,255060.521,,,
Trap_instruction,html.Page,2_2_0,2022-02-03T13:07:05.846Z,,,,,,,,,,,,,,,,,,,,,,,,,,,,,,,2152.978999999992,,form submission,,,,,,,,,,,,,,,,,,,,,257213.7000002861,257213.5,255043.897,255052.2000002861,255060.521,257222.398,,,
trap_trial,html.Screen,2_2_1,2022-02-03T13:07:12.956Z,,,,,,,,,,,,,,,,,,,,,,,,,,,,true,1,,7100.802000286116,,response,,,,,,,,,,,1,click #choice-1,,,,,,,,,264324.2000002861,264323.2000002861,257205.969,257213.80000019073,257222.398,264332.446,,,
end of trap trial,html.Page,2_2_2,2022-02-03T13:07:15.161Z,,,,,,,,,,,,,,,,,,,,,,,,,,,,,,,2196.454000095371,,form submission,,,,,,,,,,,,,,,,,,,,,266529.2000002861,266528.90000009537,264316.032,264324.30000019073,264332.446,266539.131,,,
Trap 1,flow.Sequence,2_2,2022-02-03T13:07:15.161Z,,,,,,,,,,,,,,,,,,,,,,,,,,,,,,,11468.37900009536,,completion,,,,,,,,,,,,,,,,,,,,,266529.40000009537,266528.90000009537,255043.897,255052.2000002861,255060.521,266539.131,,,
Standby,html.Page,2_3_0,2022-02-03T13:07:23.151Z,,,,,,,,,,,,,,,,,,,,,,,,,,,,,,,7995.11599999998,,timeout,,,,,,,,,,,,,,,,,,,,,274518.59999990463,274517.686,266522.448,266529.5,266539.131,274534.247,,,
Holding screen,html.Screen,2_3_1_0_0,2022-02-03T13:07:30.153Z,,,,,,,,,,,,,,,,,,,,,,,,,,,,,,,7001.949000000022,,timeout,,,,,,,,,,,,,,,,,,,,,281520.59999990463,281519.656,274517.686,274519,274534.247,281536.196,,,
screen,html.Screen,2_3_1_0_1_0,2022-02-03T13:07:31.875Z,,,,,,,,,,,,,,,,,2,,,,,,,,,,,,,,1705.4039999046363,,response,,,,1,F,,,,,,Space,keypress(Space),,,,instrumental,,,,Two ---- ------ --- ------- ---------- ------- ----------<br>--- --------- --- ----------- ------- ----- ------- ---<br>--------- ---- -- --- ---- -- --------- -- ---- -------<br>-- --------- ------ --- ----- ------ ---- --- --------- --<br>------ - ---- -- --- ----------- ------- ---- ----- -----<br>--- -------- - ------ ---- -- ----- ---- --- --- -----------<br>-- -------,283242.80000019073,283241.59999990463,281519.656,281520.90000009537,281536.196,283264.701,,0,Two
screen,html.Screen,2_3_1_0_1_1,2022-02-03T13:07:32.245Z,,,,,,,,,,,,,,,,,2,,,,,,,,,,,,,,347.1990000953665,,response,,,,1,F,,,,,,Space,keypress(Space),,,,instrumental,,,,--- days ------ --- ------- ---------- ------- ----------<br>--- --------- --- ----------- ------- ----- ------- ---<br>--------- ---- -- --- ---- -- --------- -- ---- -------<br>-- --------- ------ --- ----- ------ ---- --- --------- --<br>------ - ---- -- --- ----------- ------- ---- ----- -----<br>--- -------- - ------ ---- -- ----- ---- --- --- -----------<br>-- -------,283613,283611.90000009537,283235.676,283243.09999990463,283264.701,283636.24,,1,days
screen,html.Screen,2_3_1_0_1_2,2022-02-03T13:07:34.075Z,,,,,,,,,,,,,,,,,2,,,,,,,,,,,,,,1805.1600000953767,,response,,,,1,F,,,,,,Space,keypress(Space),,,,instrumental,,,,"--- ---- later, --- ------- ---------- ------- ----------<br>--- --------- --- ----------- ------- ----- ------- ---<br>--------- ---- -- --- ---- -- --------- -- ---- -------<br>-- --------- ------ --- ----- ------ ---- --- --------- --<br>------ - ---- -- --- ----------- ------- ---- ----- -----<br>--- -------- - ------ ---- -- ----- ---- --- --- -----------<br>-- -------",285442.5,285441.40000009537,283598.043,283613.2000002861,283636.24,285465.807,,2,"later,"
screen,html.Screen,2_3_1_0_1_3,2022-02-03T13:07:34.565Z,,,,,,,,,,,,,,,,,2,,,,,,,,,,,,,,466.59300009539584,,response,,,,1,F,,,,,,Space,keypress(Space),,,,instrumental,,,,--- ---- ------ the ------- ---------- ------- ----------<br>--- --------- --- ----------- ------- ----- ------- ---<br>--------- ---- -- --- ---- -- --------- -- ---- -------<br>-- --------- ------ --- ----- ------ ---- --- --------- --<br>------ - ---- -- --- ----------- ------- ---- ----- -----<br>--- -------- - ------ ---- -- ----- ---- --- --- -----------<br>-- -------,285933.30000019073,285932.40000009537,285435.511,285442.7000002861,285465.807,285956.76,,3,the
screen,html.Screen,2_3_1_0_1_4,2022-02-03T13:07:35.495Z,,,,,,,,,,,,,,,,,2,,,,,,,,,,,,,,905.2399999999907,,response,,,,1,F,,,,,,Space,keypress(Space),,,,instrumental,,,,--- ---- ------ --- British ---------- ------- ----------<br>--- --------- --- ----------- ------- ----- ------- ---<br>--------- ---- -- --- ---- -- --------- -- ---- -------<br>-- --------- ------ --- ----- ------ ---- --- --------- --<br>------ - ---- -- --- ----------- ------- ---- ----- -----<br>--- -------- - ------ ---- -- ----- ---- --- --- -----------<br>-- -------,286862.90000009537,286862,285932.242,285933.5,285956.76,286884.756,,4,British
screen,html.Screen,2_3_1_0_1_5,2022-02-03T13:07:35.997Z,,,,,,,,,,,,,,,,,2,,,,,,,,,,,,,,479.1440000953735,,response,,,,1,F,,,,,,Space,keypress(Space),,,,instrumental,,,,--- ---- ------ --- ------- astronomer ------- ----------<br>--- --------- --- ----------- ------- ----- ------- ---<br>--------- ---- -- --- ---- -- --------- -- ---- -------<br>-- --------- ------ --- ----- ------ ---- --- --------- --<br>------ - ---- -- --- ----------- ------- ---- ----- -----<br>--- -------- - ------ ---- -- ----- ---- --- --- -----------<br>-- -------,287364.80000019073,287363.90000009537,286856.488,286863.09999990463,286884.756,287383.779,,5,astronomer
screen,html.Screen,2_3_1_0_1_6,2022-02-03T13:07:37.097Z,,,,,,,,,,,,,,,,,2,,,,,,,,,,,,,,1080.621000095387,,response,,,,1,F,,,,,,Space,keypress(Space),,,,instrumental,,,,--- ---- ------ --- ------- ---------- Richard ----------<br>--- --------- --- ----------- ------- ----- ------- ---<br>--------- ---- -- --- ---- -- --------- -- ---- -------<br>-- --------- ------ --- ----- ------ ---- --- --------- --<br>------ - ---- -- --- ----------- ------- ---- ----- -----<br>--- -------- - ------ ---- -- ----- ---- --- --- -----------<br>-- -------,288465.2000002861,288464.40000009537,287352.617,287365.09999990463,287383.779,288491.864,,6,Richard
screen,html.Screen,2_3_1_0_1_7,2022-02-03T13:07:43.653Z,,,,,,,,,,,,,,,,,2,,,,,,,,,,,,,,6527.635999999999,,response,,,,1,F,,,,,,Space,keypress(Space),,,,instrumental,,,,--- ---- ------ --- ------- ---------- ------- Carrington<br>--- --------- --- ----------- ------- ----- ------- ---<br>--------- ---- -- --- ---- -- --------- -- ---- -------<br>-- --------- ------ --- ----- ------ ---- --- --------- --<br>------ - ---- -- --- ----------- ------- ---- ----- -----<br>--- -------- - ------ ---- -- ----- ---- --- --- -----------<br>-- -------,295020.59999990463,295019.5,288454.352,288465.40000009537,288491.864,295044.111,,7,Carrington
screen,html.Screen,2_3_1_0_1_8,2022-02-03T13:07:44.291Z,,,,,,,,,,,,,,,,,2,,,,,,,,,,,,,,613.3890000000247,,response,,,,1,F,,,,,,Space,keypress(Space),,,,instrumental,,,,--- ---- ------ --- ------- ---------- ------- ----------<br>was --------- --- ----------- ------- ----- ------- ---<br>--------- ---- -- --- ---- -- --------- -- ---- -------<br>-- --------- ------ --- ----- ------ ---- --- --------- --<br>------ - ---- -- --- ----------- ------- ---- ----- -----<br>--- -------- - ------ ---- -- ----- ---- --- --- -----------<br>-- -------,295658.40000009537,295657.5,295019.431,295020.80000019073,295044.111,295681.656,,8,was
screen,html.Screen,2_3_1_0_1_9,2022-02-03T13:07:44.818Z,,,,,,,,,,,,,,,,,2,,,,,,,,,,,,,,503.44399990461534,,response,,,,1,F,,,,,,Space,keypress(Space),,,,instrumental,,,,--- ---- ------ --- ------- ---------- ------- ----------<br>--- observing --- ----------- ------- ----- ------- ---<br>--------- ---- -- --- ---- -- --------- -- ---- -------<br>-- --------- ------ --- ----- ------ ---- --- --------- --<br>------ - ---- -- --- ----------- ------- ---- ----- -----<br>--- -------- - ------ ---- -- ----- ---- --- --- -----------<br>-- -------,296186.30000019073,296185.09999990463,295643.712,295658.59999990463,295681.656,296209.885,,9,observing
screen,html.Screen,2_3_1_0_1_10,2022-02-03T13:07:45.293Z,,,,,,,,,,,,,,,,,2,,,,,,,,,,,,,,450.21499990462326,,response,,,,1,F,,,,,,Space,keypress(Space),,,,instrumental,,,,--- ---- ------ --- ------- ---------- ------- ----------<br>--- --------- the ----------- ------- ----- ------- ---<br>--------- ---- -- --- ---- -- --------- -- ---- -------<br>-- --------- ------ --- ----- ------ ---- --- --------- --<br>------ - ---- -- --- ----------- ------- ---- ----- -----<br>--- -------- - ------ ---- -- ----- ---- --- --- -----------<br>-- -------,296661.30000019073,296660.09999990463,296181.733,296186.7000002861,296209.885,296684.644,,10,the
screen,html.Screen,2_3_1_0_1_11,2022-02-03T13:07:45.838Z,,,,,,,,,,,,,,,,,2,,,,,,,,,,,,,,520.1560001907637,,response,,,,1,F,,,,,,Space,keypress(Space),,,,instrumental,,,,--- ---- ------ --- ------- ---------- ------- ----------<br>--- --------- --- interesting ------- ----- ------- ---<br>--------- ---- -- --- ---- -- --------- -- ---- -------<br>-- --------- ------ --- ----- ------ ---- --- --------- --<br>------ - ---- -- --- ----------- ------- ---- ----- -----<br>--- -------- - ------ ---- -- ----- ---- --- --- -----------<br>-- -------,297205.80000019073,297204.80000019073,296659.705,296661.5,296684.644,297230.74,,11,interesting
screen,html.Screen,2_3_1_0_1_12,2022-02-03T13:07:46.129Z,,,,,,,,,,,,,,,,,2,,,,,,,,,,,,,,265.2600000000093,,response,,,,1,F,,,,,,Space,keypress(Space),,,,instrumental,,,,--- ---- ------ --- ------- ---------- ------- ----------<br>--- --------- --- ----------- sunspot ----- ------- ---<br>--------- ---- -- --- ---- -- --------- -- ---- -------<br>-- --------- ------ --- ----- ------ ---- --- --------- --<br>------ - ---- -- --- ----------- ------- ---- ----- -----<br>--- -------- - ------ ---- -- ----- ---- --- --- -----------<br>-- -------,297497.09999990463,297496,297201.225,297205.90000009537,297230.74,297520.492,,12,sunspot
screen,html.Screen,2_3_1_0_1_13,2022-02-03T13:07:46.576Z,,,,,,,,,,,,,,,,,2,,,,,,,,,,,,,,422.5079999999725,,response,,,,1,F,,,,,,Space,keypress(Space),,,,instrumental,,,,--- ---- ------ --- ------- ---------- ------- ----------<br>--- --------- --- ----------- ------- group ------- ---<br>--------- ---- -- --- ---- -- --------- -- ---- -------<br>-- --------- ------ --- ----- ------ ---- --- --------- --<br>------ - ---- -- --- ----------- ------- ---- ----- -----<br>--- -------- - ------ ---- -- ----- ---- --- --- -----------<br>-- -------,297944,297943,297495.662,297497.2000002861,297520.492,297967.271,,13,group
screen,html.Screen,2_3_1_0_1_14,2022-02-03T13:07:47.148Z,,,,,,,,,,,,,,,,,2,,,,,,,,,,,,,,548.1290000953595,,response,,,,1,F,,,,,,Space,keypress(Space),,,,instrumental,,,,--- ---- ------ --- ------- ---------- ------- ----------<br>--- --------- --- ----------- ------- ----- through ---<br>--------- ---- -- --- ---- -- --------- -- ---- -------<br>-- --------- ------ --- ----- ------ ---- --- --------- --<br>------ - ---- -- --- ----------- ------- ---- ----- -----<br>--- -------- - ------ ---- -- ----- ---- --- --- -----------<br>-- -------,298516.30000019073,298515.40000009537,297936.775,297944.30000019073,297967.271,298539.088,,14,through
screen,html.Screen,2_3_1_0_1_15,2022-02-03T13:07:47.844Z,,,,,,,,,,,,,,,,,2,,,,,,,,,,,,,,671.712000190746,,response,,,,1,F,,,,,,Space,keypress(Space),,,,instrumental,,,,--- ---- ------ --- ------- ---------- ------- ----------<br>--- --------- --- ----------- ------- ----- ------- his<br>--------- ---- -- --- ---- -- --------- -- ---- -------<br>-- --------- ------ --- ----- ------ ---- --- --------- --<br>------ - ---- -- --- ----------- ------- ---- ----- -----<br>--- -------- - ------ ---- -- ----- ---- --- --- -----------<br>-- -------,299211.80000019073,299210.80000019073,298517.25,298516.59999990463,298539.088,299244.724,,15,his
screen,html.Screen,2_3_1_0_1_16,2022-02-03T13:07:49.013Z,,,,,,,,,,,,,,,,,2,,,,,,,,,,,,,,1134.7760000000126,,response,,,,1,F,,,,,,Space,keypress(Space),,,,instrumental,,,,--- ---- ------ --- ------- ---------- ------- ----------<br>--- --------- --- ----------- ------- ----- ------- ---<br>telescope ---- -- --- ---- -- --------- -- ---- -------<br>-- --------- ------ --- ----- ------ ---- --- --------- --<br>------ - ---- -- --- ----------- ------- ---- ----- -----<br>--- -------- - ------ ---- -- ----- ---- --- --- -----------<br>-- -------,300380.5,300379.5,299206.214,299212,299244.724,300403.957,,16,telescope
screen,html.Screen,2_3_1_0_1_17,2022-02-03T13:07:49.587Z,,,,,,,,,,,,,,,,,2,,,,,,,,,,,,,,549.84300019074,,response,,,,1,F,,,,,,Space,keypress(Space),,,,instrumental,,,,--- ---- ------ --- ------- ---------- ------- ----------<br>--- --------- --- ----------- ------- ----- ------- ---<br>--------- when -- --- ---- -- --------- -- ---- -------<br>-- --------- ------ --- ----- ------ ---- --- --------- --<br>------ - ---- -- --- ----------- ------- ---- ----- -----<br>--- -------- - ------ ---- -- ----- ---- --- --- -----------<br>-- -------,300954.80000019073,300953.80000019073,300368.295,300380.59999990463,300403.957,300978.323,,17,when
screen,html.Screen,2_3_1_0_1_18,2022-02-03T13:07:50.023Z,,,,,,,,,,,,,,,,,2,,,,,,,,,,,,,,411.67700000002515,,response,,,,1,F,,,,,,Space,keypress(Space),,,,instrumental,,,,--- ---- ------ --- ------- ---------- ------- ----------<br>--- --------- --- ----------- ------- ----- ------- ---<br>--------- ---- he --- ---- -- --------- -- ---- -------<br>-- --------- ------ --- ----- ------ ---- --- --------- --<br>------ - ---- -- --- ----------- ------- ---- ----- -----<br>--- -------- - ------ ---- -- ----- ---- --- --- -----------<br>-- -------,301390.80000019073,301390,300953.656,300955,300978.323,301412.805,,18,he
screen,html.Screen,2_3_1_0_1_19,2022-02-03T13:07:50.548Z,,,,,,,,,,,,,,,,,2,,,,,,,,,,,,,,502.29499990463955,,response,,,,1,F,,,,,,Space,keypress(Space),,,,instrumental,,,,--- ---- ------ --- ------- ---------- ------- ----------<br>--- --------- --- ----------- ------- ----- ------- ---<br>--------- ---- -- saw ---- -- --------- -- ---- -------<br>-- --------- ------ --- ----- ------ ---- --- --------- --<br>------ - ---- -- --- ----------- ------- ---- ----- -----<br>--- -------- - ------ ---- -- ----- ---- --- --- -----------<br>-- -------,301916.09999990463,301915.09999990463,301378.191,301391.09999990463,301412.805,301939.587,,19,saw
screen,html.Screen,2_3_1_0_1_20,2022-02-03T13:07:50.944Z,,,,,,,,,,,,,,,,,2,,,,,,,,,,,,,,371.3130000953679,,response,,,,1,F,,,,,,Space,keypress(Space),,,,instrumental,,,,--- ---- ------ --- ------- ---------- ------- ----------<br>--- --------- --- ----------- ------- ----- ------- ---<br>--------- ---- -- --- what -- --------- -- ---- -------<br>-- --------- ------ --- ----- ------ ---- --- --------- --<br>------ - ---- -- --- ----------- ------- ---- ----- -----<br>--- -------- - ------ ---- -- ----- ---- --- --- -----------<br>-- -------,302311.90000009537,302310.90000009537,301914.017,301916.30000019073,301939.587,302330.918,,20,what
screen,html.Screen,2_3_1_0_1_21,2022-02-03T13:07:51.503Z,,,,,,,,,,,,,,,,,2,,,,,,,,,,,,,,539.0819999999949,,response,,,,1,F,,,,,,Space,keypress(Space),,,,instrumental,,,,--- ---- ------ --- ------- ---------- ------- ----------<br>--- --------- --- ----------- ------- ----- ------- ---<br>--------- ---- -- --- ---- he --------- -- ---- -------<br>-- --------- ------ --- ----- ------ ---- --- --------- --<br>------ - ---- -- --- ----------- ------- ---- ----- -----<br>--- -------- - ------ ---- -- ----- ---- --- --- -----------<br>-- -------,302871,302870,302305.891,302312.09999990463,302330.918,302894.397,,21,he
screen,html.Screen,2_3_1_0_1_22,2022-02-03T13:07:52.006Z,,,,,,,,,,,,,,,,,2,,,,,,,,,,,,,,478.6030000000028,,response,,,,1,F,,,,,,Space,keypress(Space),,,,instrumental,,,,--- ---- ------ --- ------- ---------- ------- ----------<br>--- --------- --- ----------- ------- ----- ------- ---<br>--------- ---- -- --- ---- -- described -- ---- -------<br>-- --------- ------ --- ----- ------ ---- --- --------- --<br>------ - ---- -- --- ----------- ------- ---- ----- -----<br>--- -------- - ------ ---- -- ----- ---- --- --- -----------<br>-- -------,303374,303373,302868.257,302871.2000002861,302894.397,303397.35,,22,described
screen,html.Screen,2_3_1_0_1_23,2022-02-03T13:07:52.492Z,,,,,,,,,,,,,,,,,2,,,,,,,,,,,,,,461.5500000953907,,response,,,,1,F,,,,,,Space,keypress(Space),,,,instrumental,,,,--- ---- ------ --- ------- ---------- ------- ----------<br>--- --------- --- ----------- ------- ----- ------- ---<br>--------- ---- -- --- ---- -- --------- as ---- -------<br>-- --------- ------ --- ----- ------ ---- --- --------- --<br>------ - ---- -- --- ----------- ------- ---- ----- -----<br>--- -------- - ------ ---- -- ----- ---- --- --- -----------<br>-- -------,303859.80000019073,303858.90000009537,303360.832,303374.30000019073,303397.35,303885.801,,23,as
screen,html.Screen,2_3_1_0_1_24,2022-02-03T13:07:52.913Z,,,,,,,,,,,,,,,,,2,,,,,,,,,,,,,,394.4990001907572,,response,,,,1,F,,,,,,Space,keypress(Space),,,,instrumental,,,,"--- ---- ------ --- ------- ---------- ------- ----------<br>--- --------- --- ----------- ------- ----- ------- ---<br>--------- ---- -- --- ---- -- --------- -- ""two -------<br>-- --------- ------ --- ----- ------ ---- --- --------- --<br>------ - ---- -- --- ----------- ------- ---- ----- -----<br>--- -------- - ------ ---- -- ----- ---- --- --- -----------<br>-- -------",304281.2000002861,304280.30000019073,303847.309,303860,303885.801,304307.158,,24,"""two"
screen,html.Screen,2_3_1_0_1_25,2022-02-03T13:07:53.374Z,,,,,,,,,,,,,,,,,2,,,,,,,,,,,,,,433.44199990463676,,response,,,,1,F,,,,,,Space,keypress(Space),,,,instrumental,,,,--- ---- ------ --- ------- ---------- ------- ----------<br>--- --------- --- ----------- ------- ----- ------- ---<br>--------- ---- -- --- ---- -- --------- -- ---- patches<br>-- --------- ------ --- ----- ------ ---- --- --------- --<br>------ - ---- -- --- ----------- ------- ---- ----- -----<br>--- -------- - ------ ---- -- ----- ---- --- --- -----------<br>-- -------,304741.7000002861,304740.59999990463,304266.354,304281.40000009537,304307.158,304765.197,,25,patches
screen,html.Screen,2_3_1_0_1_26,2022-02-03T13:07:53.724Z,,,,,,,,,,,,,,,,,2,,,,,,,,,,,,,,325.402999904647,,response,,,,1,F,,,,,,Space,keypress(Space),,,,instrumental,,,,--- ---- ------ --- ------- ---------- ------- ----------<br>--- --------- --- ----------- ------- ----- ------- ---<br>--------- ---- -- --- ---- -- --------- -- ---- -------<br>of --------- ------ --- ----- ------ ---- --- --------- --<br>------ - ---- -- --- ----------- ------- ---- ----- -----<br>--- -------- - ------ ---- -- ----- ---- --- --- -----------<br>-- -------,305091.5,305090.59999990463,304737.616,304741.90000009537,304765.197,305114.806,,26,of
screen,html.Screen,2_3_1_0_1_27,2022-02-03T13:07:54.022Z,,,,,,,,,,,,,,,,,2,,,,,,,,,,,,,,274.29399990465026,,response,,,,1,F,,,,,,Space,keypress(Space),,,,instrumental,,,,--- ---- ------ --- ------- ---------- ------- ----------<br>--- --------- --- ----------- ------- ----- ------- ---<br>--------- ---- -- --- ---- -- --------- -- ---- -------<br>-- intensely ------ --- ----- ------ ---- --- --------- --<br>------ - ---- -- --- ----------- ------- ---- ----- -----<br>--- -------- - ------ ---- -- ----- ---- --- --- -----------<br>-- -------,305390,305389.09999990463,305081.414,305091.7000002861,305114.806,305413.492,,27,intensely
screen,html.Screen,2_3_1_0_1_28,2022-02-03T13:07:54.284Z,,,,,,,,,,,,,,,,,2,,,,,,,,,,,,,,237.6079999046051,,response,,,,1,F,,,,,,Space,keypress(Space),,,,instrumental,,,,--- ---- ------ --- ------- ---------- ------- ----------<br>--- --------- --- ----------- ------- ----- ------- ---<br>--------- ---- -- --- ---- -- --------- -- ---- -------<br>-- --------- bright --- ----- ------ ---- --- --------- --<br>------ - ---- -- --- ----------- ------- ---- ----- -----<br>--- -------- - ------ ---- -- ----- ---- --- --- -----------<br>-- -------,305652.09999990463,305651.09999990463,305381.519,305390.30000019073,305413.492,305675.555,,28,bright
screen,html.Screen,2_3_1_0_1_29,2022-02-03T13:07:54.524Z,,,,,,,,,,,,,,,,,2,,,,,,,,,,,,,,215.14500028610928,,response,,,,1,F,,,,,,Space,keypress(Space),,,,instrumental,,,,--- ---- ------ --- ------- ---------- ------- ----------<br>--- --------- --- ----------- ------- ----- ------- ---<br>--------- ---- -- --- ---- -- --------- -- ---- -------<br>-- --------- ------ and ----- ------ ---- --- --------- --<br>------ - ---- -- --- ----------- ------- ---- ----- -----<br>--- -------- - ------ ---- -- ----- ---- --- --- -----------<br>-- -------,305891.7000002861,305890.7000002861,305646.664,305652.2000002861,305675.555,305912.941,,29,and
screen,html.Screen,2_3_1_0_1_30,2022-02-03T13:07:54.829Z,,,,,,,,,,,,,,,,,2,,,,,,,,,,,,,,283.0590000000084,,response,,,,1,F,,,,,,Space,keypress(Space),,,,instrumental,,,,--- ---- ------ --- ------- ---------- ------- ----------<br>--- --------- --- ----------- ------- ----- ------- ---<br>--------- ---- -- --- ---- -- --------- -- ---- -------<br>-- --------- ------ --- white ------ ---- --- --------- --<br>------ - ---- -- --- ----------- ------- ---- ----- -----<br>--- -------- - ------ ---- -- ----- ---- --- --- -----------<br>-- -------,306197,306196,305892.063,305891.90000009537,305912.941,306237.144,,30,white
screen,html.Screen,2_3_1_0_1_31,2022-02-03T13:07:55.060Z,,,,,,,,,,,,,,,,,2,,,,,,,,,,,,,,189.7560000953963,,response,,,,1,F,,,,,,Space,keypress(Space),,,,instrumental,,,,"--- ---- ------ --- ------- ---------- ------- ----------<br>--- --------- --- ----------- ------- ----- ------- ---<br>--------- ---- -- --- ---- -- --------- -- ---- -------<br>-- --------- ------ --- ----- light"" ---- --- --------- --<br>------ - ---- -- --- ----------- ------- ---- ----- -----<br>--- -------- - ------ ---- -- ----- ---- --- --- -----------<br>-- -------",306427.90000009537,306426.90000009537,306225.781,306197.30000019073,306237.144,306436.957,,31,"light"""
screen,html.Screen,2_3_1_0_1_32,2022-02-03T13:07:55.954Z,,,,,,,,,,,,,,,,,2,,,,,,,,,,,,,,883.9430000953726,,response,,,,1,F,,,,,,Space,keypress(Space),,,,instrumental,,,,--- ---- ------ --- ------- ---------- ------- ----------<br>--- --------- --- ----------- ------- ----- ------- ---<br>--------- ---- -- --- ---- -- --------- -- ---- -------<br>-- --------- ------ --- ----- ------ over --- --------- --<br>------ - ---- -- --- ----------- ------- ---- ----- -----<br>--- -------- - ------ ---- -- ----- ---- --- --- -----------<br>-- -------,307321.59999990463,307320.90000009537,306420.428,306428.09999990463,306436.957,307344.735,,32,over
screen,html.Screen,2_3_1_0_1_33,2022-02-03T13:07:56.239Z,,,,,,,,,,,,,,,,,2,,,,,,,,,,,,,,261.06500019074883,,response,,,,1,F,,,,,,Space,keypress(Space),,,,instrumental,,,,--- ---- ------ --- ------- ---------- ------- ----------<br>--- --------- --- ----------- ------- ----- ------- ---<br>--------- ---- -- --- ---- -- --------- -- ---- -------<br>-- --------- ------ --- ----- ------ ---- the --------- --<br>------ - ---- -- --- ----------- ------- ---- ----- -----<br>--- -------- - ------ ---- -- ----- ---- --- --- -----------<br>-- -------,307606.7000002861,307605.80000019073,307308.735,307321.90000009537,307344.735,307628.654,,33,the
screen,html.Screen,2_3_1_0_1_34,2022-02-03T13:07:56.484Z,,,,,,,,,,,,,,,,,2,,,,,,,,,,,,,,222.44599990465213,,response,,,,1,F,,,,,,Space,keypress(Space),,,,instrumental,,,,--- ---- ------ --- ------- ---------- ------- ----------<br>--- --------- --- ----------- ------- ----- ------- ---<br>--------- ---- -- --- ---- -- --------- -- ---- -------<br>-- --------- ------ --- ----- ------ ---- --- sunspots. --<br>------ - ---- -- --- ----------- ------- ---- ----- -----<br>--- -------- - ------ ---- -- ----- ---- --- --- -----------<br>-- -------,307852.30000019073,307851.09999990463,307594.828,307606.90000009537,307628.654,307875.888,,34,sunspots.
screen,html.Screen,2_3_1_0_1_35,2022-02-03T13:07:56.785Z,,,,,,,,,,,,,,,,,2,,,,,,,,,,,,,,276.1120000000228,,response,,,,1,F,,,,,,Space,keypress(Space),,,,instrumental,,,,--- ---- ------ --- ------- ---------- ------- ----------<br>--- --------- --- ----------- ------- ----- ------- ---<br>--------- ---- -- --- ---- -- --------- -- ---- -------<br>-- --------- ------ --- ----- ------ ---- --- --------- He<br>------ - ---- -- --- ----------- ------- ---- ----- -----<br>--- -------- - ------ ---- -- ----- ---- --- --- -----------<br>-- -------,308152.90000009537,308152,307846.542,307852.7000002861,307875.888,308177.645,,35,He
screen,html.Screen,2_3_1_0_1_36,2022-02-03T13:07:57.604Z,,,,,,,,,,,,,,,,,2,,,,,,,,,,,,,,793.3549999999814,,response,,,,1,F,,,,,,Space,keypress(Space),,,,instrumental,,,,--- ---- ------ --- ------- ---------- ------- ----------<br>--- --------- --- ----------- ------- ----- ------- ---<br>--------- ---- -- --- ---- -- --------- -- ---- -------<br>-- --------- ------ --- ----- ------ ---- --- --------- --<br>jotted - ---- -- --- ----------- ------- ---- ----- -----<br>--- -------- - ------ ---- -- ----- ---- --- --- -----------<br>-- -------,308972.2000002861,308971,308142.65,308153.09999990463,308177.645,308995.568,,36,jotted
screen,html.Screen,2_3_1_0_1_37,2022-02-03T13:07:57.848Z,,,,,,,,,,,,,,,,,2,,,,,,,,,,,,,,218.9319999999716,,response,,,,1,F,,,,,,Space,keypress(Space),,,,instrumental,,,,--- ---- ------ --- ------- ---------- ------- ----------<br>--- --------- --- ----------- ------- ----- ------- ---<br>--------- ---- -- --- ---- -- --------- -- ---- -------<br>-- --------- ------ --- ----- ------ ---- --- --------- --<br>------ a ---- -- --- ----------- ------- ---- ----- -----<br>--- -------- - ------ ---- -- ----- ---- --- --- -----------<br>-- -------,309215.5,309214.5,308959.181,308972.5,308995.568,309239.016,,37,a
