sender,sender_type,sender_id,timestamp,meta,,Blues,Classical,Country,Dance,Electronic,Folk,Gospel,Hip-Hop,Jazz,Latin,Musical/Film,New-age,Pop,Prolific_id,Provo_ID,R&B,Rap,Reggae,Religious,Rock,Soul,Swing,Traditional,age,artist_name,correct,correctResponse,distraction,duration,education,ended_on,familiarity,gender,headphone_check_performance,item,list,music_frequency,offensiveness,pleasantness,position_correct,preference,response,response_action,snippet_file,song_name,song_rating,sound,stimulus_1,stimulus_2,stimulus_3,text,time_commit,time_end,time_render,time_run,time_show,time_switch,url,word,word_ID
Prolific ID,html.Form,0,2022-02-15T15:54:02.726Z,"{""labjs_version"":""20.2.2"",""labjs_build"":{""flavor"":""production"",""commit"":""a25486e0c714a0ae2ce03ff94b7bb6896854dcfa""},""location"":""https://run.pavlovia.org/mvasilev/prolific2_music_a/"",""userAgent"":""Mozilla/5.0 (Macintosh; Intel Mac OS X 10_15_7) AppleWebKit/537.36 (KHTML, like Gecko) Chrome/98.0.4758.80 Safari/537.36"",""platform"":""MacIntel"",""language"":""en-GB"",""locale"":""en-GB"",""timeZone"":""Europe/London"",""timezoneOffset"":0,""screen_width"":1440,""screen_height"":900,""scroll_width"":1440,""scroll_height"":741,""window_innerWidth"":1440,""window_innerHeight"":789,""devicePixelRatio"":2}",,,,,,,,,,,,,,,60ddf72ef11f891328449fb0,,,,,,,,,,,,,,,6004.927,,form submission,,,,,,,,,,,,,,,,,,,,,16074.400000000373,16073,10034.741,10042.300000000745,10068.073,16084.499,{},,
Introduction,html.Screen,1_0,2022-02-15T15:54:06.313Z,,,,,,,,,,,,,,,,,,,,,,,,,,,,,,,3548.001,,response,,,,,,,,,,,continue,click button,,,,,,,,,19660.699999999255,19632.5,16067.833,16075.800000000745,16084.499,19667.689,,,
Volume calibration,html.Screen,1_1,2022-02-15T15:54:20.933Z,,,,,,,,,,,,,,,,,,,,,,,,,,,,,,,14583.910999999629,,response,,,,,,,,,,,continue,click button,,,,,,,,,34280.5,34251.59999999963,19651.023,19660.800000000745,19667.689,34283.771,,,
Task instructions,html.Screen,1_2,2022-02-15T15:54:24.349Z,,,,,,,,,,,,,,,,,,,,,,,,,,,,,,,3396.828999999627,,response,,,,,,,,,,,continue,click button,,,,,,,,,37696.90000000037,37680.59999999963,34267.105,34280.59999999963,34283.771,37700.301,,,
Sounds,html.Screen,1_3_0_0,2022-02-15T15:54:28.594Z,,,,,,,,,,,,,,,,,,,,,,,,,,,,,,,4249.830000000002,,timeout,,,,,,,,,1,,,,,,,,S,I,O,,41941,41933.465,37683.635,37697.09999999963,37700.301,41950.131,,,
Judgement,html.Screen,1_3_0_1,2022-02-15T15:54:31.826Z,,,,,,,,,,,,,,,,,,,,,,,,,,,,true,1,,3206.368999999999,,response,,,,,,,,,1,,1,click #choice-1,,,,,S,I,O,,45173.59999999963,45156.5,41933.465,41941.199999999255,41950.131,45183.335,,,
Trial,flow.Sequence,1_3_0,2022-02-15T15:54:31.829Z,,,,,,,,,,,,,,,,,,,,,,,,,,,,,,,7456.1990000000005,,completion,,,,,,,,,1,,,,,,,,S,I,O,,45175.800000000745,45156.5,37683.635,37697.09999999963,37700.301,45183.335,,,
Sounds,html.Screen,1_3_1_0,2022-02-15T15:54:36.071Z,,,,,,,,,,,,,,,,,,,,,,,,,,,,,,,4249.830000000002,,timeout,,,,,,,,,3,,,,,,,,I,O,S,,49418.199999999255,49416.499,45166.669,45176,45183.335,49433.165,,,
Judgement,html.Screen,1_3_1_1,2022-02-15T15:54:36.850Z,,,,,,,,,,,,,,,,,,,,,,,,,,,,true,3,,750.7350000003717,,response,,,,,,,,,3,,3,click #choice-3,,,,,I,O,S,,50197.09999999963,50183.90000000037,49416.499,49418.40000000037,49433.165,50216.467,,,
Trial,flow.Sequence,1_3_1,2022-02-15T15:54:36.850Z,,,,,,,,,,,,,,,,,,,,,,,,,,,,,,,5000.565000000373,,completion,,,,,,,,,3,,,,,,,,I,O,S,,50197.40000000037,50183.90000000037,45166.669,45175.90000000037,45183.335,50216.467,,,
Sounds,html.Screen,1_3_2_0,2022-02-15T15:54:41.105Z,,,,,,,,,,,,,,,,,,,,,,,,,,,,,,,4249.830000000002,,timeout,,,,,,,,,1,,,,,,,,S,O,I,,54451.800000000745,54449.631,50199.801,50197.5,50216.467,54466.297,,,
Judgement,html.Screen,1_3_2_1,2022-02-15T15:54:41.912Z,,,,,,,,,,,,,,,,,,,,,,,,,,,,true,1,,770.2030000000013,,response,,,,,,,,,1,,1,click #choice-1,,,,,S,O,I,,55258.699999999255,55236.5,54449.631,54452,54466.297,55266.265,,,
Trial,flow.Sequence,1_3_2,2022-02-15T15:54:41.912Z,,,,,,,,,,,,,,,,,,,,,,,,,,,,,,,5020.033000000003,,completion,,,,,,,,,1,,,,,,,,S,O,I,,55259,55236.5,50199.801,50197.40000000037,50216.467,55266.265,,,
Sounds,html.Screen,1_3_3_0,2022-02-15T15:54:46.156Z,,,,,,,,,,,,,,,,,,,,,,,,,,,,,,,4249.830000000002,,timeout,,,,,,,,,2,,,,,,,,O,S,I,,59502.800000000745,59499.429,55249.599,55259.199999999255,55266.265,59516.095,,,
Judgement,html.Screen,1_3_3_1,2022-02-15T15:54:46.806Z,,,,,,,,,,,,,,,,,,,,,,,,,,,,true,2,,622.3050000003714,,response,,,,,,,,,2,,2,click #choice-2,,,,,O,S,I,,60153.300000000745,60138.40000000037,59499.429,59502.90000000037,59516.095,60166.069,,,
Trial,flow.Sequence,1_3_3,2022-02-15T15:54:46.807Z,,,,,,,,,,,,,,,,,,,,,,,,,,,,,,,4872.135000000373,,completion,,,,,,,,,2,,,,,,,,O,S,I,,60153.40000000037,60138.40000000037,55249.599,55259.09999999963,55266.265,60166.069,,,
Sounds,html.Screen,1_3_4_0,2022-02-15T15:54:51.055Z,,,,,,,,,,,,,,,,,,,,,,,,,,,,,,,4249.8299999999945,,timeout,,,,,,,,,2,,,,,,,,I,S,O,,64401.59999999963,64399.233,60149.403,60153.5,60166.069,64415.899,,,
Judgement,html.Screen,1_3_4_1,2022-02-15T15:54:51.795Z,,,,,,,,,,,,,,,,,,,,,,,,,,,,true,2,,704.5010000003749,,response,,,,,,,,,2,,2,click #choice-2,,,,,I,S,O,,65141.699999999255,65120.40000000037,64399.233,64401.800000000745,64415.899,65149.203,,,
Trial,flow.Sequence,1_3_4,2022-02-15T15:54:51.795Z,,,,,,,,,,,,,,,,,,,,,,,,,,,,,,,4954.331000000369,,completion,,,,,,,,,2,,,,,,,,I,S,O,,65141.90000000037,65120.40000000037,60149.403,60153.40000000037,60166.069,65149.203,,,
Sounds,html.Screen,1_3_5_0,2022-02-15T15:54:56.039Z,,,,,,,,,,,,,,,,,,,,,,,,,,,,,,,4249.8299999999945,,timeout,,,,,,,,,3,,,,,,,,O,I,S,,69385.40000000037,69382.367,65132.537,65142,65149.203,69399.033,,,
Judgement,html.Screen,1_3_5_1,2022-02-15T15:54:56.708Z,,,,,,,,,,,,,,,,,,,,,,,,,,,,true,3,,638.5669999996317,,response,,,,,,,,,3,,3,click #choice-3,,,,,O,I,S,,70054.59999999963,70037.59999999963,69382.367,69385.5,69399.033,70065.673,,,
Trial,flow.Sequence,1_3_5,2022-02-15T15:54:56.709Z,,,,,,,,,,,,,,,,,,,,,,,,,,,,,,,4888.396999999626,,completion,,,,,,,,,3,,,,,,,,O,I,S,,70056,70037.59999999963,65132.537,65142,65149.203,70065.673,,,
Task,flow.Loop,1_3,2022-02-15T15:54:56.715Z,,,,,,,,,,,,,,,,,,,,,,,,,,,,,,,32337.298999999628,,completion,,,1,,,,,,,,,,,,,,,,,,70061.30000000075,70037.59999999963,37683.635,37697.09999999963,37700.301,70065.673,,,
Trap,html.Screen,1_4,2022-02-15T15:54:56.716Z,,,,,,,,,,,,,,,,,,,,,,,,,,,,,,,NaN,,skipped,,,,,,,,,,,,,,,,,,,,,70062.59999999963,70037.59999999963,,70062.40000000037,,70065.673,,,
Thanks,html.Screen,1_5,2022-02-15T15:55:00.677Z,,,,,,,,,,,,,,,,,,,,,,,,,,,,,,,3931.4269999996322,,response,,,,,,,,,,,continue,click button,,,,,,,,,74023.19999999925,73997.09999999963,70049.007,70062.90000000037,70065.673,77248.719,,,
Headphone screening,flow.Sequence,1,2022-02-15T15:55:00.678Z,,,,,,,,,,,,,,,,,,,,,,,,,,,,,,,57912.60099999963,,completion,,,,,,,,,,,,,,,,,,,,,74024.80000000075,73997.09999999963,16067.833,16075.800000000745,16084.499,77248.719,,,
Instructions,html.Page,2_0,2022-02-15T15:55:14.432Z,,,,,,,,,,,,,,,,,,,,,,,,,,,,,,,10527.38099999963,,form submission,,,,,,,,,,,,,,,,,,,,,87778.5,87776.09999999963,77232.053,77245.90000000037,77248.719,87781.631,,,
Holding screen,html.Screen,2_1_0_0,2022-02-15T15:55:24.420Z,,,,,,,,,,,,,,,,,,,,,,,,,,,,,,,9999.600000000006,,timeout,,,,,,,,,,,,,,,,,,,,,97766,97764.565,87764.965,87778.69999999925,87781.631,97781.231,,,
screen,html.Screen,2_1_0_1_0,2022-02-15T15:55:25.611Z,,,,,,,,,,,,,,,,,53,,,,,,,,,,,,,,1170.5690000007453,,response,,,,99,,,,,,,Space,keypress(Space),,,,,,,,When -- ----- -- ------ - ------- --- ----------<br>------------- ------ ------ ---- ---- ------- ----- -- ----<br>-------- ------- -- ---------- --- - --- ----- ----- ----<br>---- --- --- ----- --- ---- ---- ------- ----- ---- -------<br>--- --- -- ----- -- --- ---- -- --- ---- -- ------ ------<br>--- ----- -- ----,98957.09999999963,98951.80000000075,97764.565,97766.19999999925,97781.231,98964.517,,0,When
screen,html.Screen,2_1_0_1_1,2022-02-15T15:55:26.405Z,,,,,,,,,,,,,,,,,53,,,,,,,,,,,,,,782.3830000003654,,response,,,,99,,,,,,,Space,keypress(Space),,,,,,,,---- it ----- -- ------ - ------- --- ----------<br>------------- ------ ------ ---- ---- ------- ----- -- ----<br>-------- ------- -- ---------- --- - --- ----- ----- ----<br>---- --- --- ----- --- ---- ---- ------- ----- ---- -------<br>--- --- -- ----- -- --- ---- -- --- ---- -- ------ ------<br>--- ----- -- ----,99750.5,99746.90000000037,98947.851,98957.19999999925,98964.517,99764.485,,1,it
screen,html.Screen,2_1_0_1_2,2022-02-15T15:55:27.147Z,,,,,,,,,,,,,,,,,53,,,,,,,,,,,,,,724.1149999996269,,response,,,,99,,,,,,,Space,keypress(Space),,,,,,,,---- -- comes -- ------ - ------- --- ----------<br>------------- ------ ------ ---- ---- ------- ----- -- ----<br>-------- ------- -- ---------- --- - --- ----- ----- ----<br>---- --- --- ----- --- ---- ---- ------- ----- ---- -------<br>--- --- -- ----- -- --- ---- -- --- ---- -- ------ ------<br>--- ----- -- ----,100492.40000000037,100488.59999999963,99747.819,99750.59999999963,99764.485,100497.789,,2,comes
screen,html.Screen,2_1_0_1_3,2022-02-15T15:55:28.001Z,,,,,,,,,,,,,,,,,53,,,,,,,,,,,,,,844.0110000007408,,response,,,,99,,,,,,,Space,keypress(Space),,,,,,,,---- -- ----- to ------ - ------- --- ----------<br>------------- ------ ------ ---- ---- ------- ----- -- ----<br>-------- ------- -- ---------- --- - --- ----- ----- ----<br>---- --- --- ----- --- ---- ---- ------- ----- ---- -------<br>--- --- -- ----- -- --- ---- -- --- ---- -- ------ ------<br>--- ----- -- ----,101346.09999999963,101341.80000000075,100481.123,100492.5,100497.789,101347.755,,3,to
screen,html.Screen,2_1_0_1_4,2022-02-15T15:55:28.816Z,,,,,,,,,,,,,,,,,53,,,,,,,,,,,,,,809.0450000007404,,response,,,,99,,,,,,,Space,keypress(Space),,,,,,,,---- -- ----- -- having - ------- --- ----------<br>------------- ------ ------ ---- ---- ------- ----- -- ----<br>-------- ------- -- ---------- --- - --- ----- ----- ----<br>---- --- --- ----- --- ---- ---- ------- ----- ---- -------<br>--- --- -- ----- -- --- ---- -- --- ---- -- ------ ------<br>--- ----- -- ----,102161.90000000037,102156.80000000075,101331.089,101346.19999999925,101347.755,102164.389,,4,having
screen,html.Screen,2_1_0_1_5,2022-02-15T15:55:29.588Z,,,,,,,,,,,,,,,,,53,,,,,,,,,,,,,,763.4110000007495,,response,,,,99,,,,,,,Space,keypress(Space),,,,,,,,---- -- ----- -- ------ a ------- --- ----------<br>------------- ------ ------ ---- ---- ------- ----- -- ----<br>-------- ------- -- ---------- --- - --- ----- ----- ----<br>---- --- --- ----- --- ---- ---- ------- ----- ---- -------<br>--- --- -- ----- -- --- ---- -- --- ---- -- ------ ------<br>--- ----- -- ----,102933.30000000075,102927.80000000075,102147.723,102162.09999999963,102164.389,102947.691,,5,a
screen,html.Screen,2_1_0_1_6,2022-02-15T15:55:30.431Z,,,,,,,,,,,,,,,,,53,,,,,,,,,,,,,,823.1090000007389,,response,,,,99,,,,,,,Space,keypress(Space),,,,,,,,---- -- ----- -- ------ - lasting --- ----------<br>------------- ------ ------ ---- ---- ------- ----- -- ----<br>-------- ------- -- ---------- --- - --- ----- ----- ----<br>---- --- --- ----- --- ---- ---- ------- ----- ---- -------<br>--- --- -- ----- -- --- ---- -- --- ---- -- ------ ------<br>--- ----- -- ----,103776,103770.80000000075,102931.025,102933.40000000037,102947.691,103780.991,,6,lasting
screen,html.Screen,2_1_0_1_7,2022-02-15T15:55:31.253Z,,,,,,,,,,,,,,,,,53,,,,,,,,,,,,,,809.7089999992604,,response,,,,99,,,,,,,Space,keypress(Space),,,,,,,,---- -- ----- -- ------ - ------- and ----------<br>------------- ------ ------ ---- ---- ------- ----- -- ----<br>-------- ------- -- ---------- --- - --- ----- ----- ----<br>---- --- --- ----- --- ---- ---- ------- ----- ---- -------<br>--- --- -- ----- -- --- ---- -- --- ---- -- ------ ------<br>--- ----- -- ----,104598.09999999963,104590.69999999925,103764.325,103776.19999999925,103780.991,104614.291,,7,and
screen,html.Screen,2_1_0_1_8,2022-02-15T15:55:31.887Z,,,,,,,,,,,,,,,,,53,,,,,,,,,,,,,,612.6090000003751,,response,,,,99,,,,,,,Space,keypress(Space),,,,,,,,---- -- ----- -- ------ - ------- --- fulfilling<br>------------- ------ ------ ---- ---- ------- ----- -- ----<br>-------- ------- -- ---------- --- - --- ----- ----- ----<br>---- --- --- ----- --- ---- ---- ------- ----- ---- -------<br>--- --- -- ----- -- --- ---- -- --- ---- -- ------ ------<br>--- ----- -- ----,105232.19999999925,105226.90000000037,104597.625,104598.19999999925,104614.291,105247.599,,8,fulfilling
screen,html.Screen,2_1_0_1_9,2022-02-15T15:55:32.905Z,,,,,,,,,,,,,,,,,53,,,,,,,,,,,,,,997.100999999253,,response,,,,99,,,,,,,Space,keypress(Space),,,,,,,,"---- -- ----- -- ------ - ------- --- ----------<br>relationship, ------ ------ ---- ---- ------- ----- -- ----<br>-------- ------- -- ---------- --- - --- ----- ----- ----<br>---- --- --- ----- --- ---- ---- ------- ----- ---- -------<br>--- --- -- ----- -- --- ---- -- --- ---- -- ------ ------<br>--- ----- -- ----",106250,106244.69999999925,105230.933,105232.40000000037,105247.599,106264.225,,9,"relationship,"
screen,html.Screen,2_1_0_1_10,2022-02-15T15:55:33.554Z,,,,,,,,,,,,,,,,,53,,,,,,,,,,,,,,629.4749999992491,,response,,,,99,,,,,,,Space,keypress(Space),,,,,,,,---- -- ----- -- ------ - ------- --- ----------<br>------------- common ------ ---- ---- ------- ----- -- ----<br>-------- ------- -- ---------- --- - --- ----- ----- ----<br>---- --- --- ----- --- ---- ---- ------- ----- ---- -------<br>--- --- -- ----- -- --- ---- -- --- ---- -- ------ ------<br>--- ----- -- ----,106899.80000000075,106893.69999999925,106247.559,106250.40000000037,106264.225,106914.199,,10,common
screen,html.Screen,2_1_0_1_11,2022-02-15T15:55:34.357Z,,,,,,,,,,,,,,,,,53,,,,,,,,,,,,,,782.5009999992617,,response,,,,99,,,,,,,Space,keypress(Space),,,,,,,,---- -- ----- -- ------ - ------- --- ----------<br>------------- ------ wisdom ---- ---- ------- ----- -- ----<br>-------- ------- -- ---------- --- - --- ----- ----- ----<br>---- --- --- ----- --- ---- ---- ------- ----- ---- -------<br>--- --- -- ----- -- --- ---- -- --- ---- -- ------ ------<br>--- ----- -- ----,107702.40000000037,107696.69999999925,106897.533,106900.5,106914.199,107714.167,,11,wisdom
screen,html.Screen,2_1_0_1_12,2022-02-15T15:55:35.195Z,,,,,,,,,,,,,,,,,53,,,,,,,,,,,,,,820.3329999999987,,response,,,,99,,,,,,,Space,keypress(Space),,,,,,,,---- -- ----- -- ------ - ------- --- ----------<br>------------- ------ ------ says ---- ------- ----- -- ----<br>-------- ------- -- ---------- --- - --- ----- ----- ----<br>---- --- --- ----- --- ---- ---- ------- ----- ---- -------<br>--- --- -- ----- -- --- ---- -- --- ---- -- ------ ------<br>--- ----- -- ----,108540.09999999963,108534.5,107697.501,107702.5,107714.167,108547.467,,12,says
screen,html.Screen,2_1_0_1_13,2022-02-15T15:55:36.230Z,,,,,,,,,,,,,,,,,53,,,,,,,,,,,,,,1022.1329999996233,,response,,,,99,,,,,,,Space,keypress(Space),,,,,,,,---- -- ----- -- ------ - ------- --- ----------<br>------------- ------ ------ ---- that ------- ----- -- ----<br>-------- ------- -- ---------- --- - --- ----- ----- ----<br>---- --- --- ----- --- ---- ---- ------- ----- ---- -------<br>--- --- -- ----- -- --- ---- -- --- ---- -- ------ ------<br>--- ----- -- ----,109575.30000000075,109569.59999999963,108530.801,108540.30000000075,108547.467,109580.759,,13,that
screen,html.Screen,2_1_0_1_14,2022-02-15T15:55:36.930Z,,,,,,,,,,,,,,,,,53,,,,,,,,,,,,,,688.840999999622,,response,,,,99,,,,,,,Space,keypress(Space),,,,,,,,---- -- ----- -- ------ - ------- --- ----------<br>------------- ------ ------ ---- ---- feeling ----- -- ----<br>-------- ------- -- ---------- --- - --- ----- ----- ----<br>---- --- --- ----- --- ---- ---- ------- ----- ---- -------<br>--- --- -- ----- -- --- ---- -- --- ---- -- ------ ------<br>--- ----- -- ----,110274.80000000075,110269.59999999963,109564.093,109575.5,109580.759,110280.731,,14,feeling
screen,html.Screen,2_1_0_1_15,2022-02-15T15:55:37.647Z,,,,,,,,,,,,,,,,,53,,,,,,,,,,,,,,706.9689999992552,,response,,,,99,,,,,,,Space,keypress(Space),,,,,,,,---- -- ----- -- ------ - ------- --- ----------<br>------------- ------ ------ ---- ---- ------- close -- ----<br>-------- ------- -- ---------- --- - --- ----- ----- ----<br>---- --- --- ----- --- ---- ---- ------- ----- ---- -------<br>--- --- -- ----- -- --- ---- -- --- ---- -- ------ ------<br>--- ----- -- ----,110992.69999999925,110987.69999999925,110264.065,110275.09999999963,110280.731,110997.369,,15,close
screen,html.Screen,2_1_0_1_16,2022-02-15T15:55:38.312Z,,,,,,,,,,,,,,,,,53,,,,,,,,,,,,,,654.2309999996214,,response,,,,99,,,,,,,Space,keypress(Space),,,,,,,,---- -- ----- -- ------ - ------- --- ----------<br>------------- ------ ------ ---- ---- ------- ----- to ----<br>-------- ------- -- ---------- --- - --- ----- ----- ----<br>---- --- --- ----- --- ---- ---- ------- ----- ---- -------<br>--- --- -- ----- -- --- ---- -- --- ---- -- ------ ------<br>--- ----- -- ----,111656.80000000075,111651.59999999963,110980.703,110992.90000000037,110997.369,111664.009,,16,to
screen,html.Screen,2_1_0_1_17,2022-02-15T15:55:38.841Z,,,,,,,,,,,,,,,,,53,,,,,,,,,,,,,,515.7910000007396,,response,,,,99,,,,,,,Space,keypress(Space),,,,,,,,---- -- ----- -- ------ - ------- --- ----------<br>------------- ------ ------ ---- ---- ------- ----- -- your<br>-------- ------- -- ---------- --- - --- ----- ----- ----<br>---- --- --- ----- --- ---- ---- ------- ----- ---- -------<br>--- --- -- ----- -- --- ---- -- --- ---- -- ------ ------<br>--- ----- -- ----,112185.80000000075,112179.80000000075,111647.343,111657,111664.009,112197.321,,17,your
screen,html.Screen,2_1_0_1_18,2022-02-15T15:55:39.597Z,,,,,,,,,,,,,,,,,53,,,,,,,,,,,,,,739.9790000007488,,response,,,,99,,,,,,,Space,keypress(Space),,,,,,,,---- -- ----- -- ------ - ------- --- ----------<br>------------- ------ ------ ---- ---- ------- ----- -- ----<br>romantic ------- -- ---------- --- - --- ----- ----- ----<br>---- --- --- ----- --- ---- ---- ------- ----- ---- -------<br>--- --- -- ----- -- --- ---- -- --- ---- -- ------ ------<br>--- ----- -- ----,112942.69999999925,112937.30000000075,112180.655,112186,112197.321,112947.291,,18,romantic
screen,html.Screen,2_1_0_1_19,2022-02-15T15:55:40.472Z,,,,,,,,,,,,,,,,,53,,,,,,,,,,,,,,864.30899999963,,response,,,,99,,,,,,,Space,keypress(Space),,,,,,,,---- -- ----- -- ------ - ------- --- ----------<br>------------- ------ ------ ---- ---- ------- ----- -- ----<br>-------- partner -- ---------- --- - --- ----- ----- ----<br>---- --- --- ----- --- ---- ---- ------- ----- ---- -------<br>--- --- -- ----- -- --- ---- -- --- ---- -- ------ ------<br>--- ----- -- ----,113817.09999999963,113811.59999999963,112930.625,112942.90000000037,112947.291,113830.589,,19,partner
screen,html.Screen,2_1_0_1_20,2022-02-15T15:55:41.194Z,,,,,,,,,,,,,,,,,53,,,,,,,,,,,,,,702.9109999999928,,response,,,,99,,,,,,,Space,keypress(Space),,,,,,,,---- -- ----- -- ------ - ------- --- ----------<br>------------- ------ ------ ---- ---- ------- ----- -- ----<br>-------- ------- is ---------- --- - --- ----- ----- ----<br>---- --- --- ----- --- ---- ---- ------- ----- ---- -------<br>--- --- -- ----- -- --- ---- -- --- ---- -- ------ ------<br>--- ----- -- ----,114538.80000000075,114533.5,113813.923,113817.19999999925,113830.589,114547.227,,20,is
screen,html.Screen,2_1_0_1_21,2022-02-15T15:55:42.134Z,,,,,,,,,,,,,,,,,53,,,,,,,,,,,,,,926.273000000001,,response,,,,99,,,,,,,Space,keypress(Space),,,,,,,,---- -- ----- -- ------ - ------- --- ----------<br>------------- ------ ------ ---- ---- ------- ----- -- ----<br>-------- ------- -- paramount. --- - --- ----- ----- ----<br>---- --- --- ----- --- ---- ---- ------- ----- ---- -------<br>--- --- -- ----- -- --- ---- -- --- ---- -- ------ ------<br>--- ----- -- ----,115479.09999999963,115473.5,114530.561,114539,114547.227,115497.189,,21,paramount.
screen,html.Screen,2_1_0_1_22,2022-02-15T15:55:42.783Z,,,,,,,,,,,,,,,,,53,,,,,,,,,,,,,,625.3110000000015,,response,,,,99,,,,,,,Space,keypress(Space),,,,,,,,---- -- ----- -- ------ - ------- --- ----------<br>------------- ------ ------ ---- ---- ------- ----- -- ----<br>-------- ------- -- ---------- But - --- ----- ----- ----<br>---- --- --- ----- --- ---- ---- ------- ----- ---- -------<br>--- --- -- ----- -- --- ---- -- --- ---- -- ------ ------<br>--- ----- -- ----,116127.69999999925,116122.5,115480.523,115479.30000000075,115497.189,116130.497,,22,But
screen,html.Screen,2_1_0_1_23,2022-02-15T15:55:43.442Z,,,,,,,,,,,,,,,,,53,,,,,,,,,,,,,,650.9030000003695,,response,,,,99,,,,,,,Space,keypress(Space),,,,,,,,---- -- ----- -- ------ - ------- --- ----------<br>------------- ------ ------ ---- ---- ------- ----- -- ----<br>-------- ------- -- ---------- --- a --- ----- ----- ----<br>---- --- --- ----- --- ---- ---- ------- ----- ---- -------<br>--- --- -- ----- -- --- ---- -- --- ---- -- ------ ------<br>--- ----- -- ----,116786.69999999925,116781.40000000037,116113.831,116127.90000000037,116130.497,116797.137,,23,a
screen,html.Screen,2_1_0_1_24,2022-02-15T15:55:44.132Z,,,,,,,,,,,,,,,,,53,,,,,,,,,,,,,,675.2630000003701,,response,,,,99,,,,,,,Space,keypress(Space),,,,,,,,---- -- ----- -- ------ - ------- --- ----------<br>------------- ------ ------ ---- ---- ------- ----- -- ----<br>-------- ------- -- ---------- --- - new ----- ----- ----<br>---- --- --- ----- --- ---- ---- ------- ----- ---- -------<br>--- --- -- ----- -- --- ---- -- --- ---- -- ------ ------<br>--- ----- -- ----,117477.40000000037,117472.40000000037,116780.471,116786.80000000075,116797.137,117480.443,,24,new
screen,html.Screen,2_1_0_1_25,2022-02-15T15:55:44.771Z,,,,,,,,,,,,,,,,,53,,,,,,,,,,,,,,630.9570000003732,,response,,,,99,,,,,,,Space,keypress(Space),,,,,,,,---- -- ----- -- ------ - ------- --- ----------<br>------------- ------ ------ ---- ---- ------- ----- -- ----<br>-------- ------- -- ---------- --- - --- study ----- ----<br>---- --- --- ----- --- ---- ---- ------- ----- ---- -------<br>--- --- -- ----- -- --- ---- -- --- ---- -- ------ ------<br>--- ----- -- ----,118116.5,118111.40000000037,117463.777,117477.59999999963,117480.443,118130.417,,25,study
screen,html.Screen,2_1_0_1_26,2022-02-15T15:55:45.442Z,,,,,,,,,,,,,,,,,53,,,,,,,,,,,,,,651.9830000003712,,response,,,,99,,,,,,,Space,keypress(Space),,,,,,,,---- -- ----- -- ------ - ------- --- ----------<br>------------- ------ ------ ---- ---- ------- ----- -- ----<br>-------- ------- -- ---------- --- - --- ----- finds ----<br>---- --- --- ----- --- ---- ---- ------- ----- ---- -------<br>--- --- -- ----- -- --- ---- -- --- ---- -- ------ ------<br>--- ----- -- ----,118787.19999999925,118782.40000000037,118113.751,118116.59999999963,118130.417,118797.057,,26,finds
screen,html.Screen,2_1_0_1_27,2022-02-15T15:55:46.156Z,,,,,,,,,,,,,,,,,53,,,,,,,,,,,,,,699.2430000007444,,response,,,,99,,,,,,,Space,keypress(Space),,,,,,,,---- -- ----- -- ------ - ------- --- ----------<br>------------- ------ ------ ---- ---- ------- ----- -- ----<br>-------- ------- -- ---------- --- - --- ----- ----- that<br>---- --- --- ----- --- ---- ---- ------- ----- ---- -------<br>--- --- -- ----- -- --- ---- -- --- ---- -- ------ ------<br>--- ----- -- ----,119501.5,119496.30000000075,118780.391,118787.40000000037,118797.057,119513.695,,27,that
screen,html.Screen,2_1_0_1_28,2022-02-15T15:55:46.845Z,,,,,,,,,,,,,,,,,53,,,,,,,,,,,,,,671.4049999996205,,response,,,,99,,,,,,,Space,keypress(Space),,,,,,,,---- -- ----- -- ------ - ------- --- ----------<br>------------- ------ ------ ---- ---- ------- ----- -- ----<br>-------- ------- -- ---------- --- - --- ----- ----- ----<br>it's --- --- ----- --- ---- ---- ------- ----- ---- -------<br>--- --- -- ----- -- --- ---- -- --- ---- -- ------ ------<br>--- ----- -- ----,120190.5,120185.09999999963,119497.029,119501.59999999963,119513.695,120197.001,,28,it's
screen,html.Screen,2_1_0_1_29,2022-02-15T15:55:47.482Z,,,,,,,,,,,,,,,,,53,,,,,,,,,,,,,,624.2990000007412,,response,,,,99,,,,,,,Space,keypress(Space),,,,,,,,---- -- ----- -- ------ - ------- --- ----------<br>------------- ------ ------ ---- ---- ------- ----- -- ----<br>-------- ------- -- ---------- --- - --- ----- ----- ----<br>---- not --- ----- --- ---- ---- ------- ----- ---- -------<br>--- --- -- ----- -- --- ---- -- --- ---- -- ------ ------<br>--- ----- -- ----,120826.69999999925,120821.30000000075,120180.335,120190.59999999963,120197.001,120830.309,,29,not
screen,html.Screen,2_1_0_1_30,2022-02-15T15:55:48.138Z,,,,,,,,,,,,,,,,,53,,,,,,,,,,,,,,646.8909999992611,,response,,,,99,,,,,,,Space,keypress(Space),,,,,,,,---- -- ----- -- ------ - ------- --- ----------<br>------------- ------ ------ ---- ---- ------- ----- -- ----<br>-------- ------- -- ---------- --- - --- ----- ----- ----<br>---- --- how ----- --- ---- ---- ------- ----- ---- -------<br>--- --- -- ----- -- --- ---- -- --- ---- -- ------ ------<br>--- ----- -- ----,121482.5,121477.19999999925,120813.643,120826.80000000075,120830.309,121496.949,,30,how
screen,html.Screen,2_1_0_1_31,2022-02-15T15:55:48.730Z,,,,,,,,,,,,,,,,,53,,,,,,,,,,,,,,572.5510000000068,,response,,,,99,,,,,,,Space,keypress(Space),,,,,,,,---- -- ----- -- ------ - ------- --- ----------<br>------------- ------ ------ ---- ---- ------- ----- -- ----<br>-------- ------- -- ---------- --- - --- ----- ----- ----<br>---- --- --- close --- ---- ---- ------- ----- ---- -------<br>--- --- -- ----- -- --- ---- -- --- ---- -- ------ ------<br>--- ----- -- ----,122074.69999999925,122069.5,121480.283,121482.69999999925,121496.949,122080.259,,31,close
screen,html.Screen,2_1_0_1_32,2022-02-15T15:55:49.364Z,,,,,,,,,,,,,,,,,53,,,,,,,,,,,,,,623.0410000007396,,response,,,,99,,,,,,,Space,keypress(Space),,,,,,,,---- -- ----- -- ------ - ------- --- ----------<br>------------- ------ ------ ---- ---- ------- ----- -- ----<br>-------- ------- -- ---------- --- - --- ----- ----- ----<br>---- --- --- ----- you ---- ---- ------- ----- ---- -------<br>--- --- -- ----- -- --- ---- -- --- ---- -- ------ ------<br>--- ----- -- ----,122708.40000000037,122703.30000000075,122063.593,122074.80000000075,122080.259,122713.567,,32,you
screen,html.Screen,2_1_0_1_33,2022-02-15T15:55:49.962Z,,,,,,,,,,,,,,,,,53,,,,,,,,,,,,,,588.6329999992595,,response,,,,99,,,,,,,Space,keypress(Space),,,,,,,,---- -- ----- -- ------ - ------- --- ----------<br>------------- ------ ------ ---- ---- ------- ----- -- ----<br>-------- ------- -- ---------- --- - --- ----- ----- ----<br>---- --- --- ----- --- feel ---- ------- ----- ---- -------<br>--- --- -- ----- -- --- ---- -- --- ---- -- ------ ------<br>--- ----- -- ----,123307,123302.19999999925,122696.901,122708.59999999963,122713.567,123313.543,,33,feel
screen,html.Screen,2_1_0_1_34,2022-02-15T15:55:50.549Z,,,,,,,,,,,,,,,,,53,,,,,,,,,,,,,,575.0569999996223,,response,,,,99,,,,,,,Space,keypress(Space),,,,,,,,---- -- ----- -- ------ - ------- --- ----------<br>------------- ------ ------ ---- ---- ------- ----- -- ----<br>-------- ------- -- ---------- --- - --- ----- ----- ----<br>---- --- --- ----- --- ---- that ------- ----- ---- -------<br>--- --- -- ----- -- --- ---- -- --- ---- -- ------ ------<br>--- ----- -- ----,123893.69999999925,123888.59999999963,123296.877,123307.30000000075,123313.543,123896.853,,34,that
screen,html.Screen,2_1_0_1_35,2022-02-15T15:55:51.141Z,,,,,,,,,,,,,,,,,53,,,,,,,,,,,,,,583.1469999999972,,response,,,,99,,,,,,,Space,keypress(Space),,,,,,,,---- -- ----- -- ------ - ------- --- ----------<br>------------- ------ ------ ---- ---- ------- ----- -- ----<br>-------- ------- -- ---------- --- - --- ----- ----- ----<br>---- --- --- ----- --- ---- ---- matters ----- ---- -------<br>--- --- -- ----- -- --- ---- -- --- ---- -- ------ ------<br>--- ----- -- ----,124485.5,124480,123880.187,123895.30000000075,123896.853,124496.829,,35,matters
screen,html.Screen,2_1_0_1_36,2022-02-15T15:55:51.779Z,,,,,,,,,,,,,,,,,53,,,,,,,,,,,,,,621.370999999257,,response,,,,99,,,,,,,Space,keypress(Space),,,,,,,,"---- -- ----- -- ------ - ------- --- ----------<br>------------- ------ ------ ---- ---- ------- ----- -- ----<br>-------- ------- -- ---------- --- - --- ----- ----- ----<br>---- --- --- ----- --- ---- ---- ------- most, ---- -------<br>--- --- -- ----- -- --- ---- -- --- ---- -- ------ ------<br>--- ----- -- ----",125123.40000000037,125118.19999999925,124480.163,124485.69999999925,124496.829,125130.137,,36,"most,"
screen,html.Screen,2_1_0_1_37,2022-02-15T15:55:52.464Z,,,,,,,,,,,,,,,,,53,,,,,,,,,,,,,,674.0629999992525,,response,,,,99,,,,,,,Space,keypress(Space),,,,,,,,---- -- ----- -- ------ - ------- --- ----------<br>------------- ------ ------ ---- ---- ------- ----- -- ----<br>-------- ------- -- ---------- --- - --- ----- ----- ----<br>---- --- --- ----- --- ---- ---- ------- ----- it's -------<br>--- --- -- ----- -- --- ---- -- --- ---- -- ------ ------<br>--- ----- -- ----,125809.09999999963,125804.19999999925,125113.471,125123.69999999925,125130.137,125813.443,,37,it's
screen,html.Screen,2_1_0_1_38,2022-02-15T15:55:53.052Z,,,,,,,,,,,,,,,,,53,,,,,,,,,,,,,,577.7569999992556,,response,,,,99,,,,,,,Space,keypress(Space),,,,,,,,---- -- ----- -- ------ - ------- --- ----------<br>------------- ------ ------ ---- ---- ------- ----- -- ----<br>-------- ------- -- ---------- --- - --- ----- ----- ----<br>---- --- --- ----- --- ---- ---- ------- ----- ---- whether<br>--- --- -- ----- -- --- ---- -- --- ---- -- ------ ------<br>--- ----- -- ----,126397,126391.19999999925,125796.777,125809.19999999925,125813.443,126413.419,,38,whether
screen,html.Screen,2_1_0_1_39,2022-02-15T15:55:53.663Z,,,,,,,,,,,,,,,,,53,,,,,,,,,,,,,,591.5810000000056,,response,,,,99,,,,,,,Space,keypress(Space),,,,,,,,---- -- ----- -- ------ - ------- --- ----------<br>------------- ------ ------ ---- ---- ------- ----- -- ----<br>-------- ------- -- ---------- --- - --- ----- ----- ----<br>---- --- --- ----- --- ---- ---- ------- ----- ---- -------<br>you --- -- ----- -- --- ---- -- --- ---- -- ------ ------<br>--- ----- -- ----,127008.19999999925,127005,126396.753,126397.09999999963,126413.419,127013.395,,39,you
screen,html.Screen,2_1_0_1_40,2022-02-15T15:55:54.208Z,,,,,,,,,,,,,,,,,53,,,,,,,,,,,,,,533.8049999992509,,response,,,,99,,,,,,,Space,keypress(Space),,,,,,,,---- -- ----- -- ------ - ------- --- ----------<br>------------- ------ ------ ---- ---- ------- ----- -- ----<br>-------- ------- -- ---------- --- - --- ----- ----- ----<br>---- --- --- ----- --- ---- ---- ------- ----- ---- -------<br>--- are -- ----- -- --- ---- -- --- ---- -- ------ ------<br>--- ----- -- ----,127552.59999999963,127547.19999999925,126996.729,127008.19999999925,127013.395,127563.373,,40,are
screen,html.Screen,2_1_0_1_41,2022-02-15T15:55:54.803Z,,,,,,,,,,,,,,,,,53,,,,,,,,,,,,,,579.6269999999931,,response,,,,99,,,,,,,Space,keypress(Space),,,,,,,,---- -- ----- -- ------ - ------- --- ----------<br>------------- ------ ------ ---- ---- ------- ----- -- ----<br>-------- ------- -- ---------- --- - --- ----- ----- ----<br>---- --- --- ----- --- ---- ---- ------- ----- ---- -------<br>--- --- as ----- -- --- ---- -- --- ---- -- ------ ------<br>--- ----- -- ----,128148.09999999963,128143,127546.707,127552.69999999925,127563.373,128163.349,,41,as
screen,html.Screen,2_1_0_1_42,2022-02-15T15:55:55.272Z,,,,,,,,,,,,,,,,,53,,,,,,,,,,,,,,448.650999999998,,response,,,,99,,,,,,,Space,keypress(Space),,,,,,,,---- -- ----- -- ------ - ------- --- ----------<br>------------- ------ ------ ---- ---- ------- ----- -- ----<br>-------- ------- -- ---------- --- - --- ----- ----- ----<br>---- --- --- ----- --- ---- ---- ------- ----- ---- -------<br>--- --- -- close -- --- ---- -- --- ---- -- ------ ------<br>--- ----- -- ----,128616.90000000037,128612,128146.683,128148.30000000075,128163.349,128629.997,,42,close
screen,html.Screen,2_1_0_1_43,2022-02-15T15:55:55.857Z,,,,,,,,,,,,,,,,,53,,,,,,,,,,,,,,566.002999999997,,response,,,,99,,,,,,,Space,keypress(Space),,,,,,,,---- -- ----- -- ------ - ------- --- ----------<br>------------- ------ ------ ---- ---- ------- ----- -- ----<br>-------- ------- -- ---------- --- - --- ----- ----- ----<br>---- --- --- ----- --- ---- ---- ------- ----- ---- -------<br>--- --- -- ----- as --- ---- -- --- ---- -- ------ ------<br>--- ----- -- ----,129201.5,129196,128613.331,128617,128629.997,129213.307,,43,as
screen,html.Screen,2_1_0_1_44,2022-02-15T15:55:56.493Z,,,,,,,,,,,,,,,,,53,,,,,,,,,,,,,,619.6929999999993,,response,,,,99,,,,,,,Space,keypress(Space),,,,,,,,---- -- ----- -- ------ - ------- --- ----------<br>------------- ------ ------ ---- ---- ------- ----- -- ----<br>-------- ------- -- ---------- --- - --- ----- ----- ----<br>---- --- --- ----- --- ---- ---- ------- ----- ---- -------<br>--- --- -- ----- -- you ---- -- --- ---- -- ------ ------<br>--- ----- -- ----,129838.09999999963,129833,129196.641,129201.69999999925,129213.307,129846.615,,44,you
screen,html.Screen,2_1_0_1_45,2022-02-15T15:55:57.025Z,,,,,,,,,,,,,,,,,53,,,,,,,,,,,,,,517.3849999999948,,response,,,,99,,,,,,,Space,keypress(Space),,,,,,,,---- -- ----- -- ------ - ------- --- ----------<br>------------- ------ ------ ---- ---- ------- ----- -- ----<br>-------- ------- -- ---------- --- - --- ----- ----- ----<br>---- --- --- ----- --- ---- ---- ------- ----- ---- -------<br>--- --- -- ----- -- --- want -- --- ---- -- ------ ------<br>--- ----- -- ----,130369.40000000037,130364,129829.949,129838.30000000075,129846.615,130379.927,,45,want
screen,html.Screen,2_1_0_1_46,2022-02-15T15:55:57.707Z,,,,,,,,,,,,,,,,,53,,,,,,,,,,,,,,666.9730000003765,,response,,,,99,,,,,,,Space,keypress(Space),,,,,,,,---- -- ----- -- ------ - ------- --- ----------<br>------------- ------ ------ ---- ---- ------- ----- -- ----<br>-------- ------- -- ---------- --- - --- ----- ----- ----<br>---- --- --- ----- --- ---- ---- ------- ----- ---- -------<br>--- --- -- ----- -- --- ---- to --- ---- -- ------ ------<br>--- ----- -- ----,131051.59999999963,131046.90000000037,130363.261,130369.5,130379.927,131063.233,,46,to
screen,html.Screen,2_1_0_1_47,2022-02-15T15:55:58.350Z,,,,,,,,,,,,,,,,,53,,,,,,,,,,,,,,625.6670000003796,,response,,,,99,,,,,,,Space,keypress(Space),,,,,,,,"---- -- ----- -- ------ - ------- --- ----------<br>------------- ------ ------ ---- ---- ------- ----- -- ----<br>-------- ------- -- ---------- --- - --- ----- ----- ----<br>---- --- --- ----- --- ---- ---- ------- ----- ---- -------<br>--- --- -- ----- -- --- ---- -- be, ---- -- ------ ------<br>--- ----- -- ----",131694.5,131688.90000000037,131046.567,131051.69999999925,131063.233,131696.541,,47,"be,"
screen,html.Screen,2_1_0_1_48,2022-02-15T15:55:58.976Z,,,,,,,,,,,,,,,,,53,,,,,,,,,,,,,,619.4590000000026,,response,,,,99,,,,,,,Space,keypress(Space),,,,,,,,---- -- ----- -- ------ - ------- --- ----------<br>------------- ------ ------ ---- ---- ------- ----- -- ----<br>-------- ------- -- ---------- --- - --- ----- ----- ----<br>---- --- --- ----- --- ---- ---- ------- ----- ---- -------<br>--- --- -- ----- -- --- ---- -- --- even -- ------ ------<br>--- ----- -- ----,132321.09999999963,132316,131679.875,131695.09999999963,131696.541,132329.849,,48,even
screen,html.Screen,2_1_0_1_49,2022-02-15T15:55:59.656Z,,,,,,,,,,,,,,,,,53,,,,,,,,,,,,,,666.0510000003851,,response,,,,99,,,,,,,Space,keypress(Space),,,,,,,,---- -- ----- -- ------ - ------- --- ----------<br>------------- ------ ------ ---- ---- ------- ----- -- ----<br>-------- ------- -- ---------- --- - --- ----- ----- ----<br>---- --- --- ----- --- ---- ---- ------- ----- ---- -------<br>--- --- -- ----- -- --- ---- -- --- ---- if ------ ------<br>--- ----- -- ----,133000.90000000037,132995.90000000037,132313.183,132321.19999999925,132329.849,133013.155,,49,if
screen,html.Screen,2_1_0_1_50,2022-02-15T15:56:00.261Z,,,,,,,,,,,,,,,,,53,,,,,,,,,,,,,,586.7450000003737,,response,,,,99,,,,,,,Space,keypress(Space),,,,,,,,---- -- ----- -- ------ - ------- --- ----------<br>------------- ------ ------ ---- ---- ------- ----- -- ----<br>-------- ------- -- ---------- --- - --- ----- ----- ----<br>---- --- --- ----- --- ---- ---- ------- ----- ---- -------<br>--- --- -- ----- -- --- ---- -- --- ---- -- that's ------<br>--- ----- -- ----,133605.09999999963,133599.90000000037,132996.489,133001,133013.155,133613.131,,50,that's
screen,html.Screen,2_1_0_1_51,2022-02-15T15:56:00.817Z,,,,,,,,,,,,,,,,,53,,,,,,,,,,,,,,543.869000000006,,response,,,,99,,,,,,,Space,keypress(Space),,,,,,,,---- -- ----- -- ------ - ------- --- ----------<br>------------- ------ ------ ---- ---- ------- ----- -- ----<br>-------- ------- -- ---------- --- - --- ----- ----- ----<br>---- --- --- ----- --- ---- ---- ------- ----- ---- -------<br>--- --- -- ----- -- --- ---- -- --- ---- -- ------ really<br>--- ----- -- ----,134161.90000000037,134157,133596.465,133605.30000000075,133613.131,134179.775,,51,really
screen,html.Screen,2_1_0_1_52,2022-02-15T15:56:01.469Z,,,,,,,,,,,,,,,,,53,,,,,,,,,,,,,,629.0250000007509,,response,,,,99,,,,,,,Space,keypress(Space),,,,,,,,---- -- ----- -- ------ - ------- --- ----------<br>------------- ------ ------ ---- ---- ------- ----- -- ----<br>-------- ------- -- ---------- --- - --- ----- ----- ----<br>---- --- --- ----- --- ---- ---- ------- ----- ---- -------<br>--- --- -- ----- -- --- ---- -- --- ---- -- ------ ------<br>not ----- -- ----,134813.59999999963,134808.80000000075,134163.109,134162.09999999963,134179.775,134829.749,,52,not
screen,html.Screen,2_1_0_1_53,2022-02-15T15:56:02.005Z,,,,,,,,,,,,,,,,,53,,,,,,,,,,,,,,514.1510000003618,,response,,,,99,,,,,,,Space,keypress(Space),,,,,,,,---- -- ----- -- ------ - ------- --- ----------<br>------------- ------ ------ ---- ---- ------- ----- -- ----<br>-------- ------- -- ---------- --- - --- ----- ----- ----<br>---- --- --- ----- --- ---- ---- ------- ----- ---- -------<br>--- --- -- ----- -- --- ---- -- --- ---- -- ------ ------<br>--- close -- ----,135349.09999999963,135343.90000000037,134813.083,134813.80000000075,134829.749,135363.061,,53,close
screen,html.Screen,2_1_0_1_54,2022-02-15T15:56:02.596Z,,,,,,,,,,,,,,,,,53,,,,,,,,,,,,,,572.939000000013,,response,,,,99,,,,,,,Space,keypress(Space),,,,,,,,---- -- ----- -- ------ - ------- --- ----------<br>------------- ------ ------ ---- ---- ------- ----- -- ----<br>-------- ------- -- ---------- --- - --- ----- ----- ----<br>---- --- --- ----- --- ---- ---- ------- ----- ---- -------<br>--- --- -- ----- -- --- ---- -- --- ---- -- ------ ------<br>--- ----- at ----,135941,135936,135346.395,135349.30000000075,135363.061,135946.371,,54,at
screen,html.Screen,2_1_0_1_55,2022-02-15T15:56:03.646Z,,,,,,,,,,,,,,,,,53,,,,,,,,,,,,,,1039.4290000007313,,response,,,,99,,,,,,,Space,keypress(Space),,,,,,,,---- -- ----- -- ------ - ------- --- ----------<br>------------- ------ ------ ---- ---- ------- ----- -- ----<br>-------- ------- -- ---------- --- - --- ----- ----- ----<br>---- --- --- ----- --- ---- ---- ------- ----- ---- -------<br>--- --- -- ----- -- --- ---- -- --- ---- -- ------ ------<br>--- ----- -- all.,136990.90000000037,136985.80000000075,135929.705,135941.19999999925,135946.371,136996.329,,55,all.
Item 99,flow.Loop,2_1_0_1,2022-02-15T15:56:03.647Z,,,,,,,,,,,,,,,,,,,,,,,,,,,,,,,39204.569000000745,,completion,,,,,A,,,,,,,,,,,silence,,,,,136991.30000000075,136985.80000000075,97764.565,97766.09999999963,97781.231,136996.329,,,
Question 1,html.Screen,2_1_0_2,2022-02-15T15:56:07.443Z,,,,,,,,,,,,,,,,,,,,,,,,,,,,true,FALSE,,3776.870999999257,,response,,,,99,A,,,,,,FALSE,click #choice-2,,,,silence,,,,,140787.5,140773.19999999925,136979.663,136991.5,136996.329,140796.177,,,
Question 2,html.Screen,2_1_0_3,2022-02-15T15:56:10.251Z,,,,,,,,,,,,,,,,,,,,,,,,,,,,true,TRUE,,2771.2230000003765,,response,,,,99,A,,,,,,TRUE,click #choice-1,,,,silence,,,,,143595.30000000075,143567.40000000037,140779.511,140787.69999999925,140796.177,143612.731,,,
Item 99,flow.Sequence,2_1_0,2022-02-15T15:56:10.251Z,,,,,,,,,,,,,,,,,,,,,,,,,,,,,,,55785.76900000038,,completion,,,,,,,,,,,,,,,,,,,,,143595.5,143567.40000000037,87764.965,87778.69999999925,87781.631,143612.731,,,
Holding screen,html.Screen,2_1_1_0,2022-02-15T15:56:20.254Z,,,,,,,,,,,,,,,,,,,,,,,,,,,,,,,9999.600000000006,,timeout,,,,,,,,,,,,,,,,,,,,,153598.09999999963,153595.665,143596.065,143595.59999999963,143612.731,153612.331,,,
screen,html.Screen,2_1_1_1_0,2022-02-15T15:56:21.033Z,,,,,,,,,,,,,,,,,54,,,,,,,,,,,,,,759.0690000003669,,response,,,,100,,,,,,,Space,keypress(Space),,,,,,,,At --- ---- --- ------ ----- ------- ---- -- --- ------- --<br>------- ---------- ------ -- ----- -- ----- -- ---- ------<br>--- ----- --- --- ------ -------- ----- --- ------ ----- --<br>----- ----- ---------- --- --- ------ ------ ---- -- ------<br>------- --- ------ ----- --- ---- ------- -- ---- --- --<br>------- ------,154377,154371.40000000037,153595.665,153598.19999999925,153612.331,154378.967,,0,At
screen,html.Screen,2_1_1_1_1,2022-02-15T15:56:21.837Z,,,,,,,,,,,,,,,,,54,,,,,,,,,,,,,,796.2329999992508,,response,,,,100,,,,,,,Space,keypress(Space),,,,,,,,-- the ---- --- ------ ----- ------- ---- -- --- ------- --<br>------- ---------- ------ -- ----- -- ----- -- ---- ------<br>--- ----- --- --- ------ -------- ----- --- ------ ----- --<br>----- ----- ---------- --- --- ------ ------ ---- -- ------<br>------- --- ------ ----- --- ---- ------- -- ---- --- --<br>------- ------,155180.80000000075,155175.19999999925,154362.301,154377.19999999925,154378.967,155195.601,,1,the
screen,html.Screen,2_1_1_1_2,2022-02-15T15:56:22.606Z,,,,,,,,,,,,,,,,,54,,,,,,,,,,,,,,749.5989999992598,,response,,,,100,,,,,,,Space,keypress(Space),,,,,,,,-- --- time --- ------ ----- ------- ---- -- --- ------- --<br>------- ---------- ------ -- ----- -- ----- -- ---- ------<br>--- ----- --- --- ------ -------- ----- --- ------ ----- --<br>----- ----- ---------- --- --- ------ ------ ---- -- ------<br>------- --- ------ ----- --- ---- ------- -- ---- --- --<br>------- ------,155950.30000000075,155945.19999999925,155178.935,155181,155195.601,155962.237,,2,time
screen,html.Screen,2_1_1_1_3,2022-02-15T15:56:23.346Z,,,,,,,,,,,,,,,,,54,,,,,,,,,,,,,,722.9629999992612,,response,,,,100,,,,,,,Space,keypress(Space),,,,,,,,-- --- ---- the ------ ----- ------- ---- -- --- ------- --<br>------- ---------- ------ -- ----- -- ----- -- ---- ------<br>--- ----- --- --- ------ -------- ----- --- ------ ----- --<br>----- ----- ---------- --- --- ------ ------ ---- -- ------<br>------- --- ------ ----- --- ---- ------- -- ---- --- --<br>------- ------,156690.40000000037,156685.19999999925,155945.571,155950.5,155962.237,156695.541,,3,the
screen,html.Screen,2_1_1_1_4,2022-02-15T15:56:24.027Z,,,,,,,,,,,,,,,,,54,,,,,,,,,,,,,,669.7590000007476,,response,,,,100,,,,,,,Space,keypress(Space),,,,,,,,-- --- ---- --- French ----- ------- ---- -- --- ------- --<br>------- ---------- ------ -- ----- -- ----- -- ---- ------<br>--- ----- --- --- ------ -------- ----- --- ------ ----- --<br>----- ----- ---------- --- --- ------ ------ ---- -- ------<br>------- --- ------ ----- --- ---- ------- -- ---- --- --<br>------- ------,157370.69999999925,157365.30000000075,156678.875,156690.5,156695.541,157378.847,,4,French
screen,html.Screen,2_1_1_1_5,2022-02-15T15:56:24.795Z,,,,,,,,,,,,,,,,,54,,,,,,,,,,,,,,754.3529999992461,,response,,,,100,,,,,,,Space,keypress(Space),,,,,,,,-- --- ---- --- ------ crown ------- ---- -- --- ------- --<br>------- ---------- ------ -- ----- -- ----- -- ---- ------<br>--- ----- --- --- ------ -------- ----- --- ------ ----- --<br>----- ----- ---------- --- --- ------ ------ ---- -- ------<br>------- --- ------ ----- --- ---- ------- -- ---- --- --<br>------- ------,158138.90000000037,158133.19999999925,157362.181,157370.90000000037,157378.847,158145.483,,5,crown
screen,html.Screen,2_1_1_1_6,2022-02-15T15:56:25.733Z,,,,,,,,,,,,,,,,,54,,,,,,,,,,,,,,925.61699999962,,response,,,,100,,,,,,,Space,keypress(Space),,,,,,,,-- --- ---- --- ------ ----- secured ---- -- --- ------- --<br>------- ---------- ------ -- ----- -- ----- -- ---- ------<br>--- ----- --- --- ------ -------- ----- --- ------ ----- --<br>----- ----- ---------- --- --- ------ ------ ---- -- ------<br>------- --- ------ ----- --- ---- ------- -- ---- --- --<br>------- ------,159076.5,159071.09999999963,158128.817,158139.09999999963,158145.483,159078.779,,6,secured
screen,html.Screen,2_1_1_1_7,2022-02-15T15:56:26.422Z,,,,,,,,,,,,,,,,,54,,,,,,,,,,,,,,682.2209999999905,,response,,,,100,,,,,,,Space,keypress(Space),,,,,,,,-- --- ---- --- ------ ----- ------- much -- --- ------- --<br>------- ---------- ------ -- ----- -- ----- -- ---- ------<br>--- ----- --- --- ------ -------- ----- --- ------ ----- --<br>----- ----- ---------- --- --- ------ ------ ---- -- ------<br>------- --- ------ ----- --- ---- ------- -- ---- --- --<br>------- ------,159766,159761,159062.113,159076.59999999963,159078.779,159778.751,,7,much
screen,html.Screen,2_1_1_1_8,2022-02-15T15:56:27.104Z,,,,,,,,,,,,,,,,,54,,,,,,,,,,,,,,663.4489999992657,,response,,,,100,,,,,,,Space,keypress(Space),,,,,,,,-- --- ---- --- ------ ----- ------- ---- of --- ------- --<br>------- ---------- ------ -- ----- -- ----- -- ---- ------<br>--- ----- --- --- ------ -------- ----- --- ------ ----- --<br>----- ----- ---------- --- --- ------ ------ ---- -- ------<br>------- --- ------ ----- --- ---- ------- -- ---- --- --<br>------- ------,160447.30000000075,160442.19999999925,159762.085,159766.19999999925,159778.751,160462.057,,8,of
screen,html.Screen,2_1_1_1_9,2022-02-15T15:56:27.830Z,,,,,,,,,,,,,,,,,54,,,,,,,,,,,,,,707.0429999996268,,response,,,,100,,,,,,,Space,keypress(Space),,,,,,,,-- --- ---- --- ------ ----- ------- ---- -- its ------- --<br>------- ---------- ------ -- ----- -- ----- -- ---- ------<br>--- ----- --- --- ------ -------- ----- --- ------ ----- --<br>----- ----- ---------- --- --- ------ ------ ---- -- ------<br>------- --- ------ ----- --- ---- ------- -- ---- --- --<br>------- ------,161174.19999999925,161169.09999999963,160445.391,160447.5,160462.057,161178.695,,9,its
screen,html.Screen,2_1_1_1_10,2022-02-15T15:56:28.723Z,,,,,,,,,,,,,,,,,54,,,,,,,,,,,,,,883.2050000003655,,response,,,,100,,,,,,,Space,keypress(Space),,,,,,,,-- --- ---- --- ------ ----- ------- ---- -- --- revenue --<br>------- ---------- ------ -- ----- -- ----- -- ---- ------<br>--- ----- --- --- ------ -------- ----- --- ------ ----- --<br>----- ----- ---------- --- --- ------ ------ ---- -- ------<br>------- --- ------ ----- --- ---- ------- -- ---- --- --<br>------- ------,162067,162061.90000000037,161162.029,161174.30000000075,161178.695,162078.659,,10,revenue
screen,html.Screen,2_1_1_1_11,2022-02-15T15:56:29.535Z,,,,,,,,,,,,,,,,,54,,,,,,,,,,,,,,795.3409999999858,,response,,,,100,,,,,,,Space,keypress(Space),,,,,,,,-- --- ---- --- ------ ----- ------- ---- -- --- ------- by<br>------- ---------- ------ -- ----- -- ----- -- ---- ------<br>--- ----- --- --- ------ -------- ----- --- ------ ----- --<br>----- ----- ---------- --- --- ------ ------ ---- -- ------<br>------- --- ------ ----- --- ---- ------- -- ---- --- --<br>------- ------,162879.19999999925,162874,162061.993,162067.19999999925,162078.659,162895.293,,11,by
screen,html.Screen,2_1_1_1_12,2022-02-15T15:56:30.331Z,,,,,,,,,,,,,,,,,54,,,,,,,,,,,,,,773.7069999999949,,response,,,,100,,,,,,,Space,keypress(Space),,,,,,,,-- --- ---- --- ------ ----- ------- ---- -- --- ------- --<br>issuing ---------- ------ -- ----- -- ----- -- ---- ------<br>--- ----- --- --- ------ -------- ----- --- ------ ----- --<br>----- ----- ---------- --- --- ------ ------ ---- -- ------<br>------- --- ------ ----- --- ---- ------- -- ---- --- --<br>------- ------,163674.40000000037,163669,162878.627,162879.40000000037,162895.293,163678.595,,12,issuing
screen,html.Screen,2_1_1_1_13,2022-02-15T15:56:31.069Z,,,,,,,,,,,,,,,,,54,,,,,,,,,,,,,,727.5049999996263,,response,,,,100,,,,,,,Space,keypress(Space),,,,,,,,-- --- ---- --- ------ ----- ------- ---- -- --- ------- --<br>------- government ------ -- ----- -- ----- -- ---- ------<br>--- ----- --- --- ------ -------- ----- --- ------ ----- --<br>----- ----- ---------- --- --- ------ ------ ---- -- ------<br>------- --- ------ ----- --- ---- ------- -- ---- --- --<br>------- ------,164412.30000000075,164406.09999999963,163661.929,163674.59999999963,163678.595,164428.565,,13,government
screen,html.Screen,2_1_1_1_14,2022-02-15T15:56:32.037Z,,,,,,,,,,,,,,,,,54,,,,,,,,,,,,,,947.4349999999977,,response,,,,100,,,,,,,Space,keypress(Space),,,,,,,,-- --- ---- --- ------ ----- ------- ---- -- --- ------- --<br>------- ---------- bonds. -- ----- -- ----- -- ---- ------<br>--- ----- --- --- ------ -------- ----- --- ------ ----- --<br>----- ----- ---------- --- --- ------ ------ ---- -- ------<br>------- --- ------ ----- --- ---- ------- -- ---- --- --<br>------- ------,165381.09999999963,165376,164411.899,164412.40000000037,164428.565,165395.193,,14,bonds.
screen,html.Screen,2_1_1_1_15,2022-02-15T15:56:32.936Z,,,,,,,,,,,,,,,,,54,,,,,,,,,,,,,,879.7070000003732,,response,,,,100,,,,,,,Space,keypress(Space),,,,,,,,-- --- ---- --- ------ ----- ------- ---- -- --- ------- --<br>------- ---------- ------ In ----- -- ----- -- ---- ------<br>--- ----- --- --- ------ -------- ----- --- ------ ----- --<br>----- ----- ---------- --- --- ------ ------ ---- -- ------<br>------- --- ------ ----- --- ---- ------- -- ---- --- --<br>------- ------,166280,166274.90000000037,165378.527,165381.19999999925,165395.193,166295.157,,15,In
screen,html.Screen,2_1_1_1_16,2022-02-15T15:56:33.772Z,,,,,,,,,,,,,,,,,54,,,,,,,,,,,,,,814.743000000366,,response,,,,100,,,,,,,Space,keypress(Space),,,,,,,,"-- --- ---- --- ------ ----- ------- ---- -- --- ------- --<br>------- ---------- ------ -- 1727, -- ----- -- ---- ------<br>--- ----- --- --- ------ -------- ----- --- ------ ----- --<br>----- ----- ---------- --- --- ------ ------ ---- -- ------<br>------- --- ------ ----- --- ---- ------- -- ---- --- --<br>------- ------",167115.69999999925,167109.90000000037,166278.491,166280.19999999925,166295.157,167128.457,,16,"1727,"
screen,html.Screen,2_1_1_1_17,2022-02-15T15:56:34.444Z,,,,,,,,,,,,,,,,,54,,,,,,,,,,,,,,654.4430000003777,,response,,,,100,,,,,,,Space,keypress(Space),,,,,,,,-- --- ---- --- ------ ----- ------- ---- -- --- ------- --<br>------- ---------- ------ -- ----- in ----- -- ---- ------<br>--- ----- --- --- ------ -------- ----- --- ------ ----- --<br>----- ----- ---------- --- --- ------ ------ ---- -- ------<br>------- --- ------ ----- --- ---- ------- -- ---- --- --<br>------- ------,167787.80000000075,167782.90000000037,167111.791,167115.69999999925,167128.457,167795.097,,17,in
screen,html.Screen,2_1_1_1_18,2022-02-15T15:56:35.144Z,,,,,,,,,,,,,,,,,54,,,,,,,,,,,,,,686.7030000007362,,response,,,,100,,,,,,,Space,keypress(Space),,,,,,,,-- --- ---- --- ------ ----- ------- ---- -- --- ------- --<br>------- ---------- ------ -- ----- -- order -- ---- ------<br>--- ----- --- --- ------ -------- ----- --- ------ ----- --<br>----- ----- ---------- --- --- ------ ------ ---- -- ------<br>------- --- ------ ----- --- ---- ------- -- ---- --- --<br>------- ------,168487.09999999963,168481.80000000075,167778.431,167788,167795.097,168495.069,,18,order
screen,html.Screen,2_1_1_1_19,2022-02-15T15:56:35.793Z,,,,,,,,,,,,,,,,,54,,,,,,,,,,,,,,636.8310000003839,,response,,,,100,,,,,,,Space,keypress(Space),,,,,,,,-- --- ---- --- ------ ----- ------- ---- -- --- ------- --<br>------- ---------- ------ -- ----- -- ----- to ---- ------<br>--- ----- --- --- ------ -------- ----- --- ------ ----- --<br>----- ----- ---------- --- --- ------ ------ ---- -- ------<br>------- --- ------ ----- --- ---- ------- -- ---- --- --<br>------- ------,169136.90000000037,169131.90000000037,168478.403,168487.19999999925,168495.069,169145.043,,19,to
screen,html.Screen,2_1_1_1_20,2022-02-15T15:56:36.470Z,,,,,,,,,,,,,,,,,54,,,,,,,,,,,,,,662.8570000003674,,response,,,,100,,,,,,,Space,keypress(Space),,,,,,,,-- --- ---- --- ------ ----- ------- ---- -- --- ------- --<br>------- ---------- ------ -- ----- -- ----- -- save ------<br>--- ----- --- --- ------ -------- ----- --- ------ ----- --<br>----- ----- ---------- --- --- ------ ------ ---- -- ------<br>------- --- ------ ----- --- ---- ------- -- ---- --- --<br>------- ------,169813.19999999925,169807.90000000037,169128.377,169137,169145.043,169828.349,,20,save
screen,html.Screen,2_1_1_1_21,2022-02-15T15:56:37.214Z,,,,,,,,,,,,,,,,,54,,,,,,,,,,,,,,723.4510000007576,,response,,,,100,,,,,,,Space,keypress(Space),,,,,,,,"-- --- ---- --- ------ ----- ------- ---- -- --- ------- --<br>------- ---------- ------ -- ----- -- ----- -- ---- money,<br>--- ----- --- --- ------ -------- ----- --- ------ ----- --<br>----- ----- ---------- --- --- ------ ------ ---- -- ------<br>------- --- ------ ----- --- ---- ------- -- ---- --- --<br>------- ------",170557.69999999925,170551.80000000075,169811.683,169813.40000000037,169828.349,170561.653,,21,"money,"
screen,html.Screen,2_1_1_1_22,2022-02-15T15:56:37.878Z,,,,,,,,,,,,,,,,,54,,,,,,,,,,,,,,654.1470000007539,,response,,,,100,,,,,,,Space,keypress(Space),,,,,,,,-- --- ---- --- ------ ----- ------- ---- -- --- ------- --<br>------- ---------- ------ -- ----- -- ----- -- ---- ------<br>the ----- --- --- ------ -------- ----- --- ------ ----- --<br>----- ----- ---------- --- --- ------ ------ ---- -- ------<br>------- --- ------ ----- --- ---- ------- -- ---- --- --<br>------- ------,171221,171215.80000000075,170544.987,170557.80000000075,170561.653,171228.293,,22,the
screen,html.Screen,2_1_1_1_23,2022-02-15T15:56:38.576Z,,,,,,,,,,,,,,,,,54,,,,,,,,,,,,,,686.4069999992498,,response,,,,100,,,,,,,Space,keypress(Space),,,,,,,,-- --- ---- --- ------ ----- ------- ---- -- --- ------- --<br>------- ---------- ------ -- ----- -- ----- -- ---- ------<br>--- state --- --- ------ -------- ----- --- ------ ----- --<br>----- ----- ---------- --- --- ------ ------ ---- -- ------<br>------- --- ------ ----- --- ---- ------- -- ---- --- --<br>------- ------,171919.90000000037,171914.69999999925,171211.627,171221.19999999925,171228.293,171928.265,,23,state
screen,html.Screen,2_1_1_1_24,2022-02-15T15:56:39.185Z,,,,,,,,,,,,,,,,,54,,,,,,,,,,,,,,594.434999999241,,response,,,,100,,,,,,,Space,keypress(Space),,,,,,,,-- --- ---- --- ------ ----- ------- ---- -- --- ------- --<br>------- ---------- ------ -- ----- -- ----- -- ---- ------<br>--- ----- cut --- ------ -------- ----- --- ------ ----- --<br>----- ----- ---------- --- --- ------ ------ ---- -- ------<br>------- --- ------ ----- --- ---- ------- -- ---- --- --<br>------- ------,172527.90000000037,172522.69999999925,171911.599,171920,171928.265,172544.907,,24,cut
screen,html.Screen,2_1_1_1_25,2022-02-15T15:56:39.847Z,,,,,,,,,,,,,,,,,54,,,,,,,,,,,,,,640.993000000366,,response,,,,100,,,,,,,Space,keypress(Space),,,,,,,,-- --- ---- --- ------ ----- ------- ---- -- --- ------- --<br>------- ---------- ------ -- ----- -- ----- -- ---- ------<br>--- ----- --- the ------ -------- ----- --- ------ ----- --<br>----- ----- ---------- --- --- ------ ------ ---- -- ------<br>------- --- ------ ----- --- ---- ------- -- ---- --- --<br>------- ------,173190.90000000037,173185.90000000037,172528.241,172528.09999999963,172544.907,173194.881,,25,the
screen,html.Screen,2_1_1_1_26,2022-02-15T15:56:40.460Z,,,,,,,,,,,,,,,,,54,,,,,,,,,,,,,,596.5190000003786,,response,,,,100,,,,,,,Space,keypress(Space),,,,,,,,-- --- ---- --- ------ ----- ------- ---- -- --- ------- --<br>------- ---------- ------ -- ----- -- ----- -- ---- ------<br>--- ----- --- --- bonds' -------- ----- --- ------ ----- --<br>----- ----- ---------- --- --- ------ ------ ---- -- ------<br>------- --- ------ ----- --- ---- ------- -- ---- --- --<br>------- ------,173803.30000000075,173791.40000000037,173178.215,173191.09999999963,173194.881,173811.523,,26,bonds'
screen,html.Screen,2_1_1_1_27,2022-02-15T15:56:41.112Z,,,,,,,,,,,,,,,,,54,,,,,,,,,,,,,,638.2770000007586,,response,,,,100,,,,,,,Space,keypress(Space),,,,,,,,-- --- ---- --- ------ ----- ------- ---- -- --- ------- --<br>------- ---------- ------ -- ----- -- ----- -- ---- ------<br>--- ----- --- --- ------ interest ----- --- ------ ----- --<br>----- ----- ---------- --- --- ------ ------ ---- -- ------<br>------- --- ------ ----- --- ---- ------- -- ---- --- --<br>------- ------,174455.30000000075,174449.80000000075,173794.857,173803.30000000075,173811.523,174461.497,,27,interest
screen,html.Screen,2_1_1_1_28,2022-02-15T15:56:41.790Z,,,,,,,,,,,,,,,,,54,,,,,,,,,,,,,,666.2029999992519,,response,,,,100,,,,,,,Space,keypress(Space),,,,,,,,-- --- ---- --- ------ ----- ------- ---- -- --- ------- --<br>------- ---------- ------ -- ----- -- ----- -- ---- ------<br>--- ----- --- --- ------ -------- rate. --- ------ ----- --<br>----- ----- ---------- --- --- ------ ------ ---- -- ------<br>------- --- ------ ----- --- ---- ------- -- ---- --- --<br>------- ------,175133.40000000037,175127.69999999925,174444.831,174455.40000000037,174461.497,175144.803,,28,rate.
screen,html.Screen,2_1_1_1_29,2022-02-15T15:56:42.502Z,,,,,,,,,,,,,,,,,54,,,,,,,,,,,,,,695.6969999999856,,response,,,,100,,,,,,,Space,keypress(Space),,,,,,,,-- --- ---- --- ------ ----- ------- ---- -- --- ------- --<br>------- ---------- ------ -- ----- -- ----- -- ---- ------<br>--- ----- --- --- ------ -------- ----- The ------ ----- --<br>----- ----- ---------- --- --- ------ ------ ---- -- ------<br>------- --- ------ ----- --- ---- ------- -- ---- --- --<br>------- ------,175845.59999999963,175840.5,175128.137,175133.5,175144.803,175861.441,,29,The
screen,html.Screen,2_1_1_1_30,2022-02-15T15:56:43.191Z,,,,,,,,,,,,,,,,,54,,,,,,,,,,,,,,668.1589999996359,,response,,,,100,,,,,,,Space,keypress(Space),,,,,,,,-- --- ---- --- ------ ----- ------- ---- -- --- ------- --<br>------- ---------- ------ -- ----- -- ----- -- ---- ------<br>--- ----- --- --- ------ -------- ----- --- market ----- --<br>----- ----- ---------- --- --- ------ ------ ---- -- ------<br>------- --- ------ ----- --- ---- ------- -- ---- --- --<br>------- ------,176534.5,176529.59999999963,175844.775,175845.80000000075,175861.441,176544.747,,30,market
screen,html.Screen,2_1_1_1_31,2022-02-15T15:56:43.830Z,,,,,,,,,,,,,,,,,54,,,,,,,,,,,,,,625.6530000003695,,response,,,,100,,,,,,,Space,keypress(Space),,,,,,,,-- --- ---- --- ------ ----- ------- ---- -- --- ------- --<br>------- ---------- ------ -- ----- -- ----- -- ---- ------<br>--- ----- --- --- ------ -------- ----- --- ------ value --<br>----- ----- ---------- --- --- ------ ------ ---- -- ------<br>------- --- ------ ----- --- ---- ------- -- ---- --- --<br>------- ------,177173.69999999925,177170.40000000037,176528.081,176534.69999999925,176544.747,177178.055,,31,value
screen,html.Screen,2_1_1_1_32,2022-02-15T15:56:44.457Z,,,,,,,,,,,,,,,,,54,,,,,,,,,,,,,,617.5449999996345,,response,,,,100,,,,,,,Space,keypress(Space),,,,,,,,-- --- ---- --- ------ ----- ------- ---- -- --- ------- --<br>------- ---------- ------ -- ----- -- ----- -- ---- ------<br>--- ----- --- --- ------ -------- ----- --- ------ ----- of<br>----- ----- ---------- --- --- ------ ------ ---- -- ------<br>------- --- ------ ----- --- ---- ------- -- ---- --- --<br>------- ------,177800.5,177795.59999999963,177161.389,177173.80000000075,177178.055,177811.363,,32,of
screen,html.Screen,2_1_1_1_33,2022-02-15T15:56:45.062Z,,,,,,,,,,,,,,,,,54,,,,,,,,,,,,,,589.2369999996154,,response,,,,100,,,,,,,Space,keypress(Space),,,,,,,,-- --- ---- --- ------ ----- ------- ---- -- --- ------- --<br>------- ---------- ------ -- ----- -- ----- -- ---- ------<br>--- ----- --- --- ------ -------- ----- --- ------ ----- --<br>these ----- ---------- --- --- ------ ------ ---- -- ------<br>------- --- ------ ----- --- ---- ------- -- ---- --- --<br>------- ------,178405.59999999963,178400.59999999963,177794.697,177800.69999999925,177811.363,178411.339,,33,these
screen,html.Screen,2_1_1_1_34,2022-02-15T15:56:45.651Z,,,,,,,,,,,,,,,,,54,,,,,,,,,,,,,,578.2609999996203,,response,,,,100,,,,,,,Space,keypress(Space),,,,,,,,-- --- ---- --- ------ ----- ------- ---- -- --- ------- --<br>------- ---------- ------ -- ----- -- ----- -- ---- ------<br>--- ----- --- --- ------ -------- ----- --- ------ ----- --<br>----- bonds ---------- --- --- ------ ------ ---- -- ------<br>------- --- ------ ----- --- ---- ------- -- ---- --- --<br>------- ------,178994.69999999925,178989.59999999963,178394.673,178405.69999999925,178411.339,179011.315,,34,bonds
screen,html.Screen,2_1_1_1_35,2022-02-15T15:56:46.221Z,,,,,,,,,,,,,,,,,54,,,,,,,,,,,,,,548.1849999999977,,response,,,,100,,,,,,,Space,keypress(Space),,,,,,,,"-- --- ---- --- ------ ----- ------- ---- -- --- ------- --<br>------- ---------- ------ -- ----- -- ----- -- ---- ------<br>--- ----- --- --- ------ -------- ----- --- ------ ----- --<br>----- ----- plummeted, --- --- ------ ------ ---- -- ------<br>------- --- ------ ----- --- ---- ------- -- ---- --- --<br>------- ------",179564.5,179559.5,178994.649,178994.80000000075,179011.315,179577.959,,35,"plummeted,"
screen,html.Screen,2_1_1_1_36,2022-02-15T15:56:46.948Z,,,,,,,,,,,,,,,,,54,,,,,,,,,,,,,,706.44100000037,,response,,,,100,,,,,,,Space,keypress(Space),,,,,,,,-- --- ---- --- ------ ----- ------- ---- -- --- ------- --<br>------- ---------- ------ -- ----- -- ----- -- ---- ------<br>--- ----- --- --- ------ -------- ----- --- ------ ----- --<br>----- ----- ---------- and --- ------ ------ ---- -- ------<br>------- --- ------ ----- --- ---- ------- -- ---- --- --<br>------- ------,180291.40000000037,180284.40000000037,179561.293,179564.69999999925,179577.959,180311.263,,36,and
screen,html.Screen,2_1_1_1_37,2022-02-15T15:56:47.627Z,,,,,,,,,,,,,,,,,54,,,,,,,,,,,,,,654.1370000003662,,response,,,,100,,,,,,,Space,keypress(Space),,,,,,,,-- --- ---- --- ------ ----- ------- ---- -- --- ------- --<br>------- ---------- ------ -- ----- -- ----- -- ---- ------<br>--- ----- --- --- ------ -------- ----- --- ------ ----- --<br>----- ----- ---------- --- the ------ ------ ---- -- ------<br>------- --- ------ ----- --- ---- ------- -- ---- --- --<br>------- ------,180970.5,180965.40000000037,180294.597,180291.5,180311.263,180977.903,,37,the
screen,html.Screen,2_1_1_1_38,2022-02-15T15:56:48.266Z,,,,,,,,,,,,,,,,,54,,,,,,,,,,,,,,625.6969999996363,,response,,,,100,,,,,,,Space,keypress(Space),,,,,,,,-- --- ---- --- ------ ----- ------- ---- -- --- ------- --<br>------- ---------- ------ -- ----- -- ----- -- ---- ------<br>--- ----- --- --- ------ -------- ----- --- ------ ----- --<br>----- ----- ---------- --- --- market ------ ---- -- ------<br>------- --- ------ ----- --- ---- ------- -- ---- --- --<br>------- ------,181608.69999999925,181603.59999999963,180961.237,180970.59999999963,180977.903,181611.211,,38,market
screen,html.Screen,2_1_1_1_39,2022-02-15T15:56:48.840Z,,,,,,,,,,,,,,,,,54,,,,,,,,,,,,,,567.2889999999898,,response,,,,100,,,,,,,Space,keypress(Space),,,,,,,,-- --- ---- --- ------ ----- ------- ---- -- --- ------- --<br>------- ---------- ------ -- ----- -- ----- -- ---- ------<br>--- ----- --- --- ------ -------- ----- --- ------ ----- --<br>----- ----- ---------- --- --- ------ became ---- -- ------<br>------- --- ------ ----- --- ---- ------- -- ---- --- --<br>------- ------,182183.5,182178.5,181594.545,181609,181611.211,182194.521,,39,became
screen,html.Screen,2_1_1_1_40,2022-02-15T15:56:49.484Z,,,,,,,,,,,,,,,,,54,,,,,,,,,,,,,,627.9789999999921,,response,,,,100,,,,,,,Space,keypress(Space),,,,,,,,-- --- ---- --- ------ ----- ------- ---- -- --- ------- --<br>------- ---------- ------ -- ----- -- ----- -- ---- ------<br>--- ----- --- --- ------ -------- ----- --- ------ ----- --<br>----- ----- ---------- --- --- ------ ------ wary -- ------<br>------- --- ------ ----- --- ---- ------- -- ---- --- --<br>------- ------,182827.5,182822.5,182177.855,182183.80000000075,182194.521,182844.495,,40,wary
screen,html.Screen,2_1_1_1_41,2022-02-15T15:56:50.078Z,,,,,,,,,,,,,,,,,54,,,,,,,,,,,,,,570.9050000003772,,response,,,,100,,,,,,,Space,keypress(Space),,,,,,,,-- --- ---- --- ------ ----- ------- ---- -- --- ------- --<br>------- ---------- ------ -- ----- -- ----- -- ---- ------<br>--- ----- --- --- ------ -------- ----- --- ------ ----- --<br>----- ----- ---------- --- --- ------ ------ ---- of ------<br>------- --- ------ ----- --- ---- ------- -- ---- --- --<br>------- ------,183420.69999999925,183415.40000000037,182827.829,182827.59999999963,182844.495,183427.805,,41,of
screen,html.Screen,2_1_1_1_42,2022-02-15T15:56:50.629Z,,,,,,,,,,,,,,,,,54,,,,,,,,,,,,,,539.5950000003795,,response,,,,100,,,,,,,Space,keypress(Space),,,,,,,,-- --- ---- --- ------ ----- ------- ---- -- --- ------- --<br>------- ---------- ------ -- ----- -- ----- -- ---- ------<br>--- ----- --- --- ------ -------- ----- --- ------ ----- --<br>----- ----- ---------- --- --- ------ ------ ---- -- French<br>------- --- ------ ----- --- ---- ------- -- ---- --- --<br>------- ------,183972.5,183967.40000000037,183411.139,183420.80000000075,183427.805,183977.783,,42,French
screen,html.Screen,2_1_1_1_43,2022-02-15T15:56:51.342Z,,,,,,,,,,,,,,,,,54,,,,,,,,,,,,,,701.5170000007492,,response,,,,100,,,,,,,Space,keypress(Space),,,,,,,,-- --- ---- --- ------ ----- ------- ---- -- --- ------- --<br>------- ---------- ------ -- ----- -- ----- -- ---- ------<br>--- ----- --- --- ------ -------- ----- --- ------ ----- --<br>----- ----- ---------- --- --- ------ ------ ---- -- ------<br>credit. --- ------ ----- --- ---- ------- -- ---- --- --<br>------- ------,184685,184679.30000000075,183961.117,183972.69999999925,183977.783,184694.421,,43,credit.
screen,html.Screen,2_1_1_1_44,2022-02-15T15:56:51.931Z,,,,,,,,,,,,,,,,,54,,,,,,,,,,,,,,573.4790000003704,,response,,,,100,,,,,,,Space,keypress(Space),,,,,,,,-- --- ---- --- ------ ----- ------- ---- -- --- ------- --<br>------- ---------- ------ -- ----- -- ----- -- ---- ------<br>--- ----- --- --- ------ -------- ----- --- ------ ----- --<br>----- ----- ---------- --- --- ------ ------ ---- -- ------<br>------- The ------ ----- --- ---- ------- -- ---- --- --<br>------- ------,185273.59999999963,185267.90000000037,184677.755,184685,184694.421,185277.731,,44,The
screen,html.Screen,2_1_1_1_45,2022-02-15T15:56:52.533Z,,,,,,,,,,,,,,,,,54,,,,,,,,,,,,,,593.5690000007453,,response,,,,100,,,,,,,Space,keypress(Space),,,,,,,,-- --- ---- --- ------ ----- ------- ---- -- --- ------- --<br>------- ---------- ------ -- ----- -- ----- -- ---- ------<br>--- ----- --- --- ------ -------- ----- --- ------ ----- --<br>----- ----- ---------- --- --- ------ ------ ---- -- ------<br>------- --- French ----- --- ---- ------- -- ---- --- --<br>------- ------,185876.40000000037,185871.30000000075,185261.065,185273.69999999925,185277.731,185894.373,,45,French
screen,html.Screen,2_1_1_1_46,2022-02-15T15:56:53.116Z,,,,,,,,,,,,,,,,,54,,,,,,,,,,,,,,559.9270000007527,,response,,,,100,,,,,,,Space,keypress(Space),,,,,,,,-- --- ---- --- ------ ----- ------- ---- -- --- ------- --<br>------- ---------- ------ -- ----- -- ----- -- ---- ------<br>--- ----- --- --- ------ -------- ----- --- ------ ----- --<br>----- ----- ---------- --- --- ------ ------ ---- -- ------<br>------- --- ------ state --- ---- ------- -- ---- --- --<br>------- ------,186459.40000000037,186454.30000000075,185877.707,185876.5,185894.373,186477.683,,46,state
screen,html.Screen,2_1_1_1_47,2022-02-15T15:56:53.715Z,,,,,,,,,,,,,,,,,54,,,,,,,,,,,,,,575.7170000003825,,response,,,,100,,,,,,,Space,keypress(Space),,,,,,,,-- --- ---- --- ------ ----- ------- ---- -- --- ------- --<br>------- ---------- ------ -- ----- -- ----- -- ---- ------<br>--- ----- --- --- ------ -------- ----- --- ------ ----- --<br>----- ----- ---------- --- --- ------ ------ ---- -- ------<br>------- --- ------ ----- was ---- ------- -- ---- --- --<br>------- ------,187058.40000000037,187053.40000000037,186461.017,186459.59999999963,186477.683,187060.993,,47,was
screen,html.Screen,2_1_1_1_48,2022-02-15T15:56:54.179Z,,,,,,,,,,,,,,,,,54,,,,,,,,,,,,,,456.2069999992673,,response,,,,100,,,,,,,Space,keypress(Space),,,,,,,,-- --- ---- --- ------ ----- ------- ---- -- --- ------- --<br>------- ---------- ------ -- ----- -- ----- -- ---- ------<br>--- ----- --- --- ------ -------- ----- --- ------ ----- --<br>----- ----- ---------- --- --- ------ ------ ---- -- ------<br>------- --- ------ ----- --- left ------- -- ---- --- --<br>------- ------,187522.30000000075,187517.19999999925,187044.327,187058.5,187060.993,187527.641,,48,left
screen,html.Screen,2_1_1_1_49,2022-02-15T15:56:54.825Z,,,,,,,,,,,,,,,,,54,,,,,,,,,,,,,,634.9589999996242,,response,,,,100,,,,,,,Space,keypress(Space),,,,,,,,-- --- ---- --- ------ ----- ------- ---- -- --- ------- --<br>------- ---------- ------ -- ----- -- ----- -- ---- ------<br>--- ----- --- --- ------ -------- ----- --- ------ ----- --<br>----- ----- ---------- --- --- ------ ------ ---- -- ------<br>------- --- ------ ----- --- ---- without -- ---- --- --<br>------- ------,188167.59999999963,188162.59999999963,187510.975,187522.40000000037,187527.641,188177.615,,49,without
screen,html.Screen,2_1_1_1_50,2022-02-15T15:56:55.313Z,,,,,,,,,,,,,,,,,54,,,,,,,,,,,,,,472.58499999926426,,response,,,,100,,,,,,,Space,keypress(Space),,,,,,,,-- --- ---- --- ------ ----- ------- ---- -- --- ------- --<br>------- ---------- ------ -- ----- -- ----- -- ---- ------<br>--- ----- --- --- ------ -------- ----- --- ------ ----- --<br>----- ----- ---------- --- --- ------ ------ ---- -- ------<br>------- --- ------ ----- --- ---- ------- an ---- --- --<br>------- ------,188655.59999999963,188650.19999999925,188160.949,188167.69999999925,188177.615,188660.929,,50,an
screen,html.Screen,2_1_1_1_51,2022-02-15T15:56:55.845Z,,,,,,,,,,,,,,,,,54,,,,,,,,,,,,,,521.2709999992512,,response,,,,100,,,,,,,Space,keypress(Space),,,,,,,,-- --- ---- --- ------ ----- ------- ---- -- --- ------- --<br>------- ---------- ------ -- ----- -- ----- -- ---- ------<br>--- ----- --- --- ------ -------- ----- --- ------ ----- --<br>----- ----- ---------- --- --- ------ ------ ---- -- ------<br>------- --- ------ ----- --- ---- ------- -- easy --- --<br>------- ------,189187.40000000037,189182.19999999925,188644.263,188655.59999999963,188660.929,189194.241,,51,easy
screen,html.Screen,2_1_1_1_52,2022-02-15T15:56:56.372Z,,,,,,,,,,,,,,,,,54,,,,,,,,,,,,,,515.8589999996184,,response,,,,100,,,,,,,Space,keypress(Space),,,,,,,,-- --- ---- --- ------ ----- ------- ---- -- --- ------- --<br>------- ---------- ------ -- ----- -- ----- -- ---- ------<br>--- ----- --- --- ------ -------- ----- --- ------ ----- --<br>----- ----- ---------- --- --- ------ ------ ---- -- ------<br>------- --- ------ ----- --- ---- ------- -- ---- way --<br>------- ------,189715.40000000037,189710.09999999963,189177.575,189187.59999999963,189194.241,189727.553,,52,way
screen,html.Screen,2_1_1_1_53,2022-02-15T15:56:56.935Z,,,,,,,,,,,,,,,,,54,,,,,,,,,,,,,,545.046999999613,,response,,,,100,,,,,,,Space,keypress(Space),,,,,,,,-- --- ---- --- ------ ----- ------- ---- -- --- ------- --<br>------- ---------- ------ -- ----- -- ----- -- ---- ------<br>--- ----- --- --- ------ -------- ----- --- ------ ----- --<br>----- ----- ---------- --- --- ------ ------ ---- -- ------<br>------- --- ------ ----- --- ---- ------- -- ---- --- of<br>------- ------,190277.59999999963,190272.59999999963,189710.887,189715.59999999963,189727.553,190294.197,,53,of
screen,html.Screen,2_1_1_1_54,2022-02-15T15:56:57.466Z,,,,,,,,,,,,,,,,,54,,,,,,,,,,,,,,509.0029999992694,,response,,,,100,,,,,,,Space,keypress(Space),,,,,,,,-- --- ---- --- ------ ----- ------- ---- -- --- ------- --<br>------- ---------- ------ -- ----- -- ----- -- ---- ------<br>--- ----- --- --- ------ -------- ----- --- ------ ----- --<br>----- ----- ---------- --- --- ------ ------ ---- -- ------<br>------- --- ------ ----- --- ---- ------- -- ---- --- --<br>raising ------,190808.90000000037,190803.19999999925,190277.531,190277.80000000075,190294.197,190810.843,,54,raising
screen,html.Screen,2_1_1_1_55,2022-02-15T15:56:58.257Z,,,,,,,,,,,,,,,,,54,,,,,,,,,,,,,,784.1570000000065,,response,,,,100,,,,,,,Space,keypress(Space),,,,,,,,-- --- ---- --- ------ ----- ------- ---- -- --- ------- --<br>------- ---------- ------ -- ----- -- ----- -- ---- ------<br>--- ----- --- --- ------ -------- ----- --- ------ ----- --<br>----- ----- ---------- --- --- ------ ------ ---- -- ------<br>------- --- ------ ----- --- ---- ------- -- ---- --- --<br>------- money.,191599.80000000075,191595,190794.177,190809,190810.843,191610.811,,55,money.
Item 100,flow.Loop,2_1_1_1,2022-02-15T15:56:58.257Z,,,,,,,,,,,,,,,,,,,,,,,,,,,,,,,37982.668999999994,,completion,,,,,A,,,,,,,,,,,silence,,,,,191600.09999999963,191595,153595.665,153598.19999999925,153612.331,191610.811,,,
Question 1,html.Screen,2_1_1_2,2022-02-15T15:57:00.331Z,,,,,,,,,,,,,,,,,,,,,,,,,,,,true,TRUE,,2040.888999999268,,response,,,,100,A,,,,,,TRUE,click #choice-1,,,,silence,,,,,193673.80000000075,193651.69999999925,191594.145,191600.19999999925,191610.811,193677.395,,,
Question 2,html.Screen,2_1_1_3,2022-02-15T15:57:02.708Z,,,,,,,,,,,,,,,,,,,,,,,,,,,,true,FALSE,,2351.505000000383,,response,,,,100,A,,,,,,FALSE,click #choice-2,,,,silence,,,,,196050.90000000037,196028.90000000037,193660.729,193673.90000000037,193677.395,196060.633,,,
Item 100,flow.Sequence,2_1_1,2022-02-15T15:57:02.708Z,,,,,,,,,,,,,,,,,,,,,,,,,,,,,,,52416.16900000037,,completion,,,,,,,,,,,,,,,,,,,,,196051.19999999925,196028.90000000037,143596.065,143595.59999999963,143612.731,196060.633,,,
End of Practice,html.Page,2_1_2,2022-02-15T15:57:05.542Z,,,,,,,,,,,,,,,,,,,,,,,,,,,,,,,2822.6670000007434,,form submission,,,,,,,,,,,,,,,,,,,,,198884.5,198883.30000000075,196043.967,196051.19999999925,196060.633,198893.853,,,
Practice,flow.Sequence,2_1,2022-02-15T15:57:05.542Z,,,,,,,,,,,,,,,,,,,,,,,,,,,,,,,111101.66900000075,,completion,,,,,,,,,,,,,,,,,,,,,198884.69999999925,198883.30000000075,87764.965,87778.59999999963,87781.631,198893.853,,,
Trap_instruction,html.Page,2_2_0,2022-02-15T15:57:07.796Z,,,,,,,,,,,,,,,,,,,,,,,,,,,,,,,2242.646999999997,,form submission,,,,,,,,,,,,,,,,,,,,,201138.40000000037,201136.5,198877.187,198886,198893.853,201160.429,,,
trap_trial,html.Screen,2_2_1,2022-02-15T15:57:10.477Z,,,,,,,,,,,,,,,,,,,,,,,,,,,,true,1,,2647.770999999251,,response,,,,,,,,,,,1,click #choice-1,,,,,,,,,203819.30000000075,203808.19999999925,201127.097,201138.69999999925,201160.429,203826.989,,,
end of trap trial,html.Page,2_2_2,2022-02-15T15:57:12.054Z,,,,,,,,,,,,,,,,,,,,,,,,,,,,,,,1567.610999999626,,form submission,,,,,,,,,,,,,,,,,,,,,205396,205394.59999999963,203810.323,203819.5,203826.989,205393.593,,,
Trap 1,flow.Sequence,2_2,2022-02-15T15:57:12.054Z,,,,,,,,,,,,,,,,,,,,,,,,,,,,,,,6500.746999999625,,completion,,,,,,,,,,,,,,,,,,,,,205396.19999999925,205394.59999999963,198877.187,198884.69999999925,198893.853,205393.593,,,
Standby,html.Page,2_3_0,2022-02-15T15:57:20.036Z,,,,,,,,,,,,,,,,,,,,,,,,,,,,,,,7999.679999999993,,timeout,,,,,,,,,,,,,,,,,,,,,213378.59999999963,213376.607,205376.927,205396.40000000037,205393.593,213393.273,,,
Holding screen,html.Screen,2_3_1_0_0,2022-02-15T15:57:27.037Z,,,,,,,,,,,,,,,,,,,,,,,,,,,,,,,6999.720000000001,,timeout,,,,,,,,,,,,,,,,,,,,,220379.19999999925,220376.327,213376.607,213378.80000000075,213393.273,220392.993,,,
screen,html.Screen,2_3_1_0_1_0,2022-02-15T15:57:27.964Z,,,,,,,,,,,,,,,,,15,,,,,,,,,,,,,,909.2069999992673,,response,,,,7,A,,,,,,Space,keypress(Space),,,,silence,,,,Greg --------- ---------- - --- ------- -- --- ------------<br>----- -- -------- ------- ---- ------ - -------- ---- -----<br>--- ------- ---- -- --- -------- --- - ----- ------ ---- --<br>-------- --- -------- -------- --- -------- ---- -- ----- -<br>-------- ---- --- ---------- --------- -- ------- ------ -<br>--------- ----- -----,221306.40000000037,221302.19999999925,220376.327,220379.5,220392.993,221309.623,,0,Greg
screen,html.Screen,2_3_1_0_1_1,2022-02-15T15:57:28.930Z,,,,,,,,,,,,,,,,,15,,,,,,,,,,,,,,956.6770000007527,,response,,,,7,A,,,,,,Space,keypress(Space),,,,silence,,,,"---- Anderson, ---------- - --- ------- -- --- ------------<br>----- -- -------- ------- ---- ------ - -------- ---- -----<br>--- ------- ---- -- --- -------- --- - ----- ------ ---- --<br>-------- --- -------- -------- --- -------- ---- -- ----- -<br>-------- ---- --- ---------- --------- -- ------- ------ -<br>--------- ----- -----",222272.30000000075,222266.30000000075,221292.957,221306.5,221309.623,222276.251,,1,"Anderson,"
screen,html.Screen,2_3_1_0_1_2,2022-02-15T15:57:29.801Z,,,,,,,,,,,,,,,,,15,,,,,,,,,,,,,,861.0490000007558,,response,,,,7,A,,,,,,Space,keypress(Space),,,,silence,,,,---- --------- considered - --- ------- -- --- ------------<br>----- -- -------- ------- ---- ------ - -------- ---- -----<br>--- ------- ---- -- --- -------- --- - ----- ------ ---- --<br>-------- --- -------- -------- --- -------- ---- -- ----- -<br>-------- ---- --- ---------- --------- -- ------- ------ -<br>--------- ----- -----,223142.59999999963,223137.30000000075,222259.585,222272.59999999963,222276.251,223159.549,,2,considered
screen,html.Screen,2_3_1_0_1_3,2022-02-15T15:57:30.564Z,,,,,,,,,,,,,,,,,15,,,,,,,,,,,,,,740.751000000746,,response,,,,7,A,,,,,,Space,keypress(Space),,,,silence,,,,---- --------- ---------- a --- ------- -- --- ------------<br>----- -- -------- ------- ---- ------ - -------- ---- -----<br>--- ------- ---- -- --- -------- --- - ----- ------ ---- --<br>-------- --- -------- -------- --- -------- ---- -- ----- -<br>-------- ---- --- ---------- --------- -- ------- ------ -<br>--------- ----- -----,223905.5,223900.30000000075,223142.883,223142.80000000075,223159.549,223909.519,,3,a
screen,html.Screen,2_3_1_0_1_4,2022-02-15T15:57:31.426Z,,,,,,,,,,,,,,,,,15,,,,,,,,,,,,,,852.7810000007448,,response,,,,7,A,,,,,,Space,keypress(Space),,,,silence,,,,---- --------- ---------- - key ------- -- --- ------------<br>----- -- -------- ------- ---- ------ - -------- ---- -----<br>--- ------- ---- -- --- -------- --- - ----- ------ ---- --<br>-------- --- -------- -------- --- -------- ---- -- ----- -<br>-------- ---- --- ---------- --------- -- ------- ------ -<br>--------- ----- -----,224767.59999999963,224762.30000000075,223892.853,223905.59999999963,223909.519,224776.151,,4,key
screen,html.Screen,2_3_1_0_1_5,2022-02-15T15:57:32.251Z,,,,,,,,,,,,,,,,,15,,,,,,,,,,,,,,811.9489999996149,,response,,,,7,A,,,,,,Space,keypress(Space),,,,silence,,,,---- --------- ---------- - --- witness -- --- ------------<br>----- -- -------- ------- ---- ------ - -------- ---- -----<br>--- ------- ---- -- --- -------- --- - ----- ------ ---- --<br>-------- --- -------- -------- --- -------- ---- -- ----- -<br>-------- ---- --- ---------- --------- -- ------- ------ -<br>--------- ----- -----,225593.19999999925,225588.09999999963,224759.485,224767.80000000075,224776.151,225609.451,,5,witness
screen,html.Screen,2_3_1_0_1_6,2022-02-15T15:57:33.033Z,,,,,,,,,,,,,,,,,15,,,,,,,,,,,,,,759.8490000007441,,response,,,,7,A,,,,,,Space,keypress(Space),,,,silence,,,,---- --------- ---------- - --- ------- by --- ------------<br>----- -- -------- ------- ---- ------ - -------- ---- -----<br>--- ------- ---- -- --- -------- --- - ----- ------ ---- --<br>-------- --- -------- -------- --- -------- ---- -- ----- -<br>-------- ---- --- ---------- --------- -- ------- ------ -<br>--------- ----- -----,226374.59999999963,226369.30000000075,225592.785,225593.30000000075,225609.451,226376.087,,6,by
screen,html.Screen,2_3_1_0_1_7,2022-02-15T15:57:33.810Z,,,,,,,,,,,,,,,,,15,,,,,,,,,,,,,,771.4130000000005,,response,,,,7,A,,,,,,Space,keypress(Space),,,,silence,,,,---- --------- ---------- - --- ------- -- the ------------<br>----- -- -------- ------- ---- ------ - -------- ---- -----<br>--- ------- ---- -- --- -------- --- - ----- ------ ---- --<br>-------- --- -------- -------- --- -------- ---- -- ----- -<br>-------- ---- --- ---------- --------- -- ------- ------ -<br>--------- ----- -----,227151.80000000075,227147.5,226359.421,226374.69999999925,226376.087,227159.389,,7,the
screen,html.Screen,2_3_1_0_1_8,2022-02-15T15:57:34.720Z,,,,,,,,,,,,,,,,,15,,,,,,,,,,,,,,897.7109999996319,,response,,,,7,A,,,,,,Space,keypress(Space),,,,silence,,,,"---- --------- ---------- - --- ------- -- --- prosecution,<br>----- -- -------- ------- ---- ------ - -------- ---- -----<br>--- ------- ---- -- --- -------- --- - ----- ------ ---- --<br>-------- --- -------- -------- --- -------- ---- -- ----- -<br>-------- ---- --- ---------- --------- -- ------- ------ -<br>--------- ----- -----",228062.30000000075,228057.09999999963,227142.723,227151.90000000037,227159.389,228076.019,,8,"prosecution,"
screen,html.Screen,2_3_1_0_1_9,2022-02-15T15:57:35.472Z,,,,,,,,,,,,,,,,,15,,,,,,,,,,,,,,732.0809999996272,,response,,,,7,A,,,,,,Space,keypress(Space),,,,silence,,,,---- --------- ---------- - --- ------- -- --- ------------<br>vowed -- -------- ------- ---- ------ - -------- ---- -----<br>--- ------- ---- -- --- -------- --- - ----- ------ ---- --<br>-------- --- -------- -------- --- -------- ---- -- ----- -<br>-------- ---- --- ---------- --------- -- ------- ------ -<br>--------- ----- -----,228813.59999999963,228808.09999999963,228059.353,228062.40000000037,228076.019,228825.989,,9,vowed
screen,html.Screen,2_3_1_0_1_10,2022-02-15T15:57:36.183Z,,,,,,,,,,,,,,,,,15,,,,,,,,,,,,,,693.1109999996261,,response,,,,7,A,,,,,,Space,keypress(Space),,,,silence,,,,---- --------- ---------- - --- ------- -- --- ------------<br>----- he -------- ------- ---- ------ - -------- ---- -----<br>--- ------- ---- -- --- -------- --- - ----- ------ ---- --<br>-------- --- -------- -------- --- -------- ---- -- ----- -<br>-------- ---- --- ---------- --------- -- ------- ------ -<br>--------- ----- -----,229524.30000000075,229519.09999999963,228809.323,228813.69999999925,228825.989,229525.961,,10,he
screen,html.Screen,2_3_1_0_1_11,2022-02-15T15:57:36.861Z,,,,,,,,,,,,,,,,,15,,,,,,,,,,,,,,671.1389999996172,,response,,,,7,A,,,,,,Space,keypress(Space),,,,silence,,,,---- --------- ---------- - --- ------- -- --- ------------<br>----- -- wouldn't ------- ---- ------ - -------- ---- -----<br>--- ------- ---- -- --- -------- --- - ----- ------ ---- --<br>-------- --- -------- -------- --- -------- ---- -- ----- -<br>-------- ---- --- ---------- --------- -- ------- ------ -<br>--------- ----- -----,230202.80000000075,230197.09999999963,229509.295,229524.5,229525.961,230209.267,,11,wouldn't
screen,html.Screen,2_3_1_0_1_12,2022-02-15T15:57:37.573Z,,,,,,,,,,,,,,,,,15,,,,,,,,,,,,,,699.7330000000075,,response,,,,7,A,,,,,,Space,keypress(Space),,,,silence,,,,---- --------- ---------- - --- ------- -- --- ------------<br>----- -- -------- testify ---- ------ - -------- ---- -----<br>--- ------- ---- -- --- -------- --- - ----- ------ ---- --<br>-------- --- -------- -------- --- -------- ---- -- ----- -<br>-------- ---- --- ---------- --------- -- ------- ------ -<br>--------- ----- -----,230914.40000000037,230909,230192.601,230202.90000000037,230209.267,230925.905,,12,testify
screen,html.Screen,2_3_1_0_1_13,2022-02-15T15:57:38.308Z,,,,,,,,,,,,,,,,,15,,,,,,,,,,,,,,716.9950000003737,,response,,,,7,A,,,,,,Space,keypress(Space),,,,silence,,,,---- --------- ---------- - --- ------- -- --- ------------<br>----- -- -------- ------- when ------ - -------- ---- -----<br>--- ------- ---- -- --- -------- --- - ----- ------ ---- --<br>-------- --- -------- -------- --- -------- ---- -- ----- -<br>-------- ---- --- ---------- --------- -- ------- ------ -<br>--------- ----- -----,231649.19999999925,231642.90000000037,230909.239,230914.59999999963,230925.905,231659.209,,13,when
screen,html.Screen,2_3_1_0_1_14,2022-02-15T15:57:39.008Z,,,,,,,,,,,,,,,,,15,,,,,,,,,,,,,,684.7909999999974,,response,,,,7,A,,,,,,Space,keypress(Space),,,,silence,,,,---- --------- ---------- - --- ------- -- --- ------------<br>----- -- -------- ------- ---- served - -------- ---- -----<br>--- ------- ---- -- --- -------- --- - ----- ------ ---- --<br>-------- --- -------- -------- --- -------- ---- -- ----- -<br>-------- ---- --- ---------- --------- -- ------- ------ -<br>--------- ----- -----,232349.5,232344,231642.543,231649.40000000037,231659.209,232359.181,,14,served
screen,html.Screen,2_3_1_0_1_15,2022-02-15T15:57:39.665Z,,,,,,,,,,,,,,,,,15,,,,,,,,,,,,,,641.8189999999886,,response,,,,7,A,,,,,,Space,keypress(Space),,,,silence,,,,---- --------- ---------- - --- ------- -- --- ------------<br>----- -- -------- ------- ---- ------ a -------- ---- -----<br>--- ------- ---- -- --- -------- --- - ----- ------ ---- --<br>-------- --- -------- -------- --- -------- ---- -- ----- -<br>-------- ---- --- ---------- --------- -- ------- ------ -<br>--------- ----- -----,233006.30000000075,233001,232342.515,232349.69999999925,232359.181,233009.155,,15,a
screen,html.Screen,2_3_1_0_1_16,2022-02-15T15:57:41.471Z,,,,,,,,,,,,,,,,,15,,,,,,,,,,,,,,1797.8450000000012,,response,,,,7,A,,,,,,Space,keypress(Space),,,,silence,,,,---- --------- ---------- - --- ------- -- --- ------------<br>----- -- -------- ------- ---- ------ - subpoena ---- -----<br>--- ------- ---- -- --- -------- --- - ----- ------ ---- --<br>-------- --- -------- -------- --- -------- ---- -- ----- -<br>-------- ---- --- ---------- --------- -- ------- ------ -<br>--------- ----- -----,234812.90000000037,234807,232992.489,233006.40000000037,233009.155,234825.749,,16,subpoena
screen,html.Screen,2_3_1_0_1_17,2022-02-15T15:57:42.110Z,,,,,,,,,,,,,,,,,15,,,,,,,,,,,,,,620.1510000003618,,response,,,,7,A,,,,,,Space,keypress(Space),,,,silence,,,,---- --------- ---------- - --- ------- -- --- ------------<br>----- -- -------- ------- ---- ------ - -------- last -----<br>--- ------- ---- -- --- -------- --- - ----- ------ ---- --<br>-------- --- -------- -------- --- -------- ---- -- ----- -<br>-------- ---- --- ---------- --------- -- ------- ------ -<br>--------- ----- -----,235451.09999999963,235445.90000000037,234809.083,234813,234825.749,235459.057,,17,last
screen,html.Screen,2_3_1_0_1_18,2022-02-15T15:57:42.856Z,,,,,,,,,,,,,,,,,15,,,,,,,,,,,,,,732.7430000007444,,response,,,,7,A,,,,,,Space,keypress(Space),,,,silence,,,,---- --------- ---------- - --- ------- -- --- ------------<br>----- -- -------- ------- ---- ------ - -------- ---- week.<br>--- ------- ---- -- --- -------- --- - ----- ------ ---- --<br>-------- --- -------- -------- --- -------- ---- -- ----- -<br>-------- ---- --- ---------- --------- -- ------- ------ -<br>--------- ----- -----,236197.90000000037,236191.80000000075,235442.391,235451.30000000075,235459.057,236209.027,,18,week.
screen,html.Screen,2_3_1_0_1_19,2022-02-15T15:57:43.475Z,,,,,,,,,,,,,,,,,15,,,,,,,,,,,,,,601.7730000007432,,response,,,,7,A,,,,,,Space,keypress(Space),,,,silence,,,,---- --------- ---------- - --- ------- -- --- ------------<br>----- -- -------- ------- ---- ------ - -------- ---- -----<br>His ------- ---- -- --- -------- --- - ----- ------ ---- --<br>-------- --- -------- -------- --- -------- ---- -- ----- -<br>-------- ---- --- ---------- --------- -- ------- ------ -<br>--------- ----- -----,236816.19999999925,236810.80000000075,236192.361,236197.90000000037,236209.027,236825.669,,19,His
screen,html.Screen,2_3_1_0_1_20,2022-02-15T15:57:44.053Z,,,,,,,,,,,,,,,,,15,,,,,,,,,,,,,,563.0309999992605,,response,,,,7,A,,,,,,Space,keypress(Space),,,,silence,,,,---- --------- ---------- - --- ------- -- --- ------------<br>----- -- -------- ------- ---- ------ - -------- ---- -----<br>--- lawyers ---- -- --- -------- --- - ----- ------ ---- --<br>-------- --- -------- -------- --- -------- ---- -- ----- -<br>-------- ---- --- ---------- --------- -- ------- ------ -<br>--------- ----- -----,237394.19999999925,237388.69999999925,236809.003,236816.40000000037,236825.669,237408.979,,20,lawyers
screen,html.Screen,2_3_1_0_1_21,2022-02-15T15:57:44.658Z,,,,,,,,,,,,,,,,,15,,,,,,,,,,,,,,585.821000000753,,response,,,,7,A,,,,,,Space,keypress(Space),,,,silence,,,,---- --------- ---------- - --- ------- -- --- ------------<br>----- -- -------- ------- ---- ------ - -------- ---- -----<br>--- ------- said -- --- -------- --- - ----- ------ ---- --<br>-------- --- -------- -------- --- -------- ---- -- ----- -<br>-------- ---- --- ---------- --------- -- ------- ------ -<br>--------- ----- -----,237999.80000000075,237994.80000000075,237392.313,237394.40000000037,237408.979,238008.955,,21,said
screen,html.Screen,2_3_1_0_1_22,2022-02-15T15:57:45.271Z,,,,,,,,,,,,,,,,,15,,,,,,,,,,,,,,597.8450000007579,,response,,,,7,A,,,,,,Space,keypress(Space),,,,silence,,,,---- --------- ---------- - --- ------- -- --- ------------<br>----- -- -------- ------- ---- ------ - -------- ---- -----<br>--- ------- ---- he --- -------- --- - ----- ------ ---- --<br>-------- --- -------- -------- --- -------- ---- -- ----- -<br>-------- ---- --- ---------- --------- -- ------- ------ -<br>--------- ----- -----,238612,238606.80000000075,237992.289,238000,238008.955,238625.597,,22,he
screen,html.Screen,2_3_1_0_1_23,2022-02-15T15:57:45.915Z,,,,,,,,,,,,,,,,,15,,,,,,,,,,,,,,626.1029999992461,,response,,,,7,A,,,,,,Space,keypress(Space),,,,silence,,,,---- --------- ---------- - --- ------- -- --- ------------<br>----- -- -------- ------- ---- ------ - -------- ---- -----<br>--- ------- ---- -- was -------- --- - ----- ------ ---- --<br>-------- --- -------- -------- --- -------- ---- -- ----- -<br>-------- ---- --- ---------- --------- -- ------- ------ -<br>--------- ----- -----,239256.80000000075,239251.69999999925,238608.931,238612.19999999925,238625.597,239258.905,,23,was
screen,html.Screen,2_3_1_0_1_24,2022-02-15T15:57:46.437Z,,,,,,,,,,,,,,,,,15,,,,,,,,,,,,,,514.8950000007462,,response,,,,7,A,,,,,,Space,keypress(Space),,,,silence,,,,---- --------- ---------- - --- ------- -- --- ------------<br>----- -- -------- ------- ---- ------ - -------- ---- -----<br>--- ------- ---- -- --- prepared --- - ----- ------ ---- --<br>-------- --- -------- -------- --- -------- ---- -- ----- -<br>-------- ---- --- ---------- --------- -- ------- ------ -<br>--------- ----- -----,239778.80000000075,239773.80000000075,239242.239,239256.90000000037,239258.905,239792.217,,24,prepared
screen,html.Screen,2_3_1_0_1_25,2022-02-15T15:57:47.022Z,,,,,,,,,,,,,,,,,15,,,,,,,,,,,,,,566.9829999992508,,response,,,,7,A,,,,,,Space,keypress(Space),,,,silence,,,,---- --------- ---------- - --- ------- -- --- ------------<br>----- -- -------- ------- ---- ------ - -------- ---- -----<br>--- ------- ---- -- --- -------- for - ----- ------ ---- --<br>-------- --- -------- -------- --- -------- ---- -- ----- -<br>-------- ---- --- ---------- --------- -- ------- ------ -<br>--------- ----- -----,240363.59999999963,240359.19999999925,239775.551,239778.90000000037,239792.217,240375.527,,25,for
screen,html.Screen,2_3_1_0_1_26,2022-02-15T15:57:47.553Z,,,,,,,,,,,,,,,,,15,,,,,,,,,,,,,,513.2730000007432,,response,,,,7,A,,,,,,Space,keypress(Space),,,,silence,,,,---- --------- ---------- - --- ------- -- --- ------------<br>----- -- -------- ------- ---- ------ - -------- ---- -----<br>--- ------- ---- -- --- -------- --- a ----- ------ ---- --<br>-------- --- -------- -------- --- -------- ---- -- ----- -<br>-------- ---- --- ---------- --------- -- ------- ------ -<br>--------- ----- -----,240894.09999999963,240888.80000000075,240358.861,240363.69999999925,240375.527,240908.839,,26,a
screen,html.Screen,2_3_1_0_1_27,2022-02-15T15:57:48.076Z,,,,,,,,,,,,,,,,,15,,,,,,,,,,,,,,503.8609999992477,,response,,,,7,A,,,,,,Space,keypress(Space),,,,silence,,,,---- --------- ---------- - --- ------- -- --- ------------<br>----- -- -------- ------- ---- ------ - -------- ---- -----<br>--- ------- ---- -- --- -------- --- - third ------ ---- --<br>-------- --- -------- -------- --- -------- ---- -- ----- -<br>-------- ---- --- ---------- --------- -- ------- ------ -<br>--------- ----- -----,241417.90000000037,241412.69999999925,240892.173,240894.30000000075,240908.839,241425.485,,27,third
screen,html.Screen,2_3_1_0_1_28,2022-02-15T15:57:48.628Z,,,,,,,,,,,,,,,,,15,,,,,,,,,,,,,,538.2149999992689,,response,,,,7,A,,,,,,Space,keypress(Space),,,,silence,,,,---- --------- ---------- - --- ------- -- --- ------------<br>----- -- -------- ------- ---- ------ - -------- ---- -----<br>--- ------- ---- -- --- -------- --- - ----- prison ---- --<br>-------- --- -------- -------- --- -------- ---- -- ----- -<br>-------- ---- --- ---------- --------- -- ------- ------ -<br>--------- ----- -----,241969.19999999925,241963.69999999925,241408.819,241418,241425.485,241975.463,,28,prison
screen,html.Screen,2_3_1_0_1_29,2022-02-15T15:57:49.243Z,,,,,,,,,,,,,,,,,15,,,,,,,,,,,,,,604.1369999996386,,response,,,,7,A,,,,,,Space,keypress(Space),,,,silence,,,,---- --------- ---------- - --- ------- -- --- ------------<br>----- -- -------- ------- ---- ------ - -------- ---- -----<br>--- ------- ---- -- --- -------- --- - ----- ------ stay --<br>-------- --- -------- -------- --- -------- ---- -- ----- -<br>-------- ---- --- ---------- --------- -- ------- ------ -<br>--------- ----- -----,242584.59999999963,242579.59999999963,241958.797,241969.40000000037,241975.463,242592.105,,29,stay
screen,html.Screen,2_3_1_0_1_30,2022-02-15T15:57:49.902Z,,,,,,,,,,,,,,,,,15,,,,,,,,,,,,,,646.5949999992445,,response,,,,7,A,,,,,,Space,keypress(Space),,,,silence,,,,---- --------- ---------- - --- ------- -- --- ------------<br>----- -- -------- ------- ---- ------ - -------- ---- -----<br>--- ------- ---- -- --- -------- --- - ----- ------ ---- to<br>-------- --- -------- -------- --- -------- ---- -- ----- -<br>-------- ---- --- ---------- --------- -- ------- ------ -<br>--------- ----- -----,243243.69999999925,243238.69999999925,242575.439,242584.69999999925,242592.105,243258.745,,30,to
screen,html.Screen,2_3_1_0_1_31,2022-02-15T15:57:50.530Z,,,,,,,,,,,,,,,,,15,,,,,,,,,,,,,,606.7550000000047,,response,,,,7,A,,,,,,Space,keypress(Space),,,,silence,,,,---- --------- ---------- - --- ------- -- --- ------------<br>----- -- -------- ------- ---- ------ - -------- ---- -----<br>--- ------- ---- -- --- -------- --- - ----- ------ ---- --<br>maintain --- -------- -------- --- -------- ---- -- ----- -<br>-------- ---- --- ---------- --------- -- ------- ------ -<br>--------- ----- -----,243871.59999999963,243865.5,243242.079,243243.80000000075,243258.745,243875.387,,31,maintain
screen,html.Screen,2_3_1_0_1_32,2022-02-15T15:57:51.078Z,,,,,,,,,,,,,,,,,15,,,,,,,,,,,,,,539.2129999996396,,response,,,,7,A,,,,,,Space,keypress(Space),,,,silence,,,,---- --------- ---------- - --- ------- -- --- ------------<br>----- -- -------- ------- ---- ------ - -------- ---- -----<br>--- ------- ---- -- --- -------- --- - ----- ------ ---- --<br>-------- his -------- -------- --- -------- ---- -- ----- -<br>-------- ---- --- ---------- --------- -- ------- ------ -<br>--------- ----- -----,244419.5,244414.59999999963,243858.721,243871.80000000075,243875.387,244425.365,,32,his
screen,html.Screen,2_3_1_0_1_33,2022-02-15T15:57:51.720Z,,,,,,,,,,,,,,,,,15,,,,,,,,,,,,,,630.7349999996368,,response,,,,7,A,,,,,,Space,keypress(Space),,,,silence,,,,---- --------- ---------- - --- ------- -- --- ------------<br>----- -- -------- ------- ---- ------ - -------- ---- -----<br>--- ------- ---- -- --- -------- --- - ----- ------ ---- --<br>-------- --- silence. -------- --- -------- ---- -- ----- -<br>-------- ---- --- ---------- --------- -- ------- ------ -<br>--------- ----- -----,245061,245056.09999999963,244408.699,244419.80000000075,244425.365,245075.339,,33,silence.
screen,html.Screen,2_3_1_0_1_34,2022-02-15T15:57:52.379Z,,,,,,,,,,,,,,,,,15,,,,,,,,,,,,,,640.3609999992477,,response,,,,7,A,,,,,,Space,keypress(Space),,,,silence,,,,---- --------- ---------- - --- ------- -- --- ------------<br>----- -- -------- ------- ---- ------ - -------- ---- -----<br>--- ------- ---- -- --- -------- --- - ----- ------ ---- --<br>-------- --- -------- Anderson --- -------- ---- -- ----- -<br>-------- ---- --- ---------- --------- -- ------- ------ -<br>--------- ----- -----,245720.59999999963,245715.69999999925,245058.673,245061.19999999925,245075.339,245725.313,,34,Anderson
screen,html.Screen,2_3_1_0_1_35,2022-02-15T15:57:52.910Z,,,,,,,,,,,,,,,,,15,,,,,,,,,,,,,,521.1870000000054,,response,,,,7,A,,,,,,Space,keypress(Space),,,,silence,,,,---- --------- ---------- - --- ------- -- --- ------------<br>----- -- -------- ------- ---- ------ - -------- ---- -----<br>--- ------- ---- -- --- -------- --- - ----- ------ ---- --<br>-------- --- -------- -------- was -------- ---- -- ----- -<br>-------- ---- --- ---------- --------- -- ------- ------ -<br>--------- ----- -----,246251.59999999963,246246.5,245708.647,245720.80000000075,245725.313,246258.625,,35,was
screen,html.Screen,2_3_1_0_1_36,2022-02-15T15:57:53.513Z,,,,,,,,,,,,,,,,,15,,,,,,,,,,,,,,590.9749999996275,,response,,,,7,A,,,,,,Space,keypress(Space),,,,silence,,,,---- --------- ---------- - --- ------- -- --- ------------<br>----- -- -------- ------- ---- ------ - -------- ---- -----<br>--- ------- ---- -- --- -------- --- - ----- ------ ---- --<br>-------- --- -------- -------- --- released ---- -- ----- -<br>-------- ---- --- ---------- --------- -- ------- ------ -<br>--------- ----- -----,246854.5,246849.59999999963,246241.959,246251.69999999925,246258.625,246858.601,,36,released
screen,html.Screen,2_3_1_0_1_37,2022-02-15T15:57:54.094Z,,,,,,,,,,,,,,,,,15,,,,,,,,,,,,,,570.8990000000049,,response,,,,7,A,,,,,,Space,keypress(Space),,,,silence,,,,---- --------- ---------- - --- ------- -- --- ------------<br>----- -- -------- ------- ---- ------ - -------- ---- -----<br>--- ------- ---- -- --- -------- --- - ----- ------ ---- --<br>-------- --- -------- -------- --- -------- July -- ----- -<br>-------- ---- --- ---------- --------- -- ------- ------ -<br>--------- ----- -----,247434.69999999925,247429.5,246841.935,246854.69999999925,246858.601,247441.911,,37,July
screen,html.Screen,2_3_1_0_1_38,2022-02-15T15:57:54.678Z,,,,,,,,,,,,,,,,,15,,,,,,,,,,,,,,572.5890000000072,,response,,,,7,A,,,,,,Space,keypress(Space),,,,silence,,,,---- --------- ---------- - --- ------- -- --- ------------<br>----- -- -------- ------- ---- ------ - -------- ---- -----<br>--- ------- ---- -- --- -------- --- - ----- ------ ---- --<br>-------- --- -------- -------- --- -------- ---- 20 ----- -<br>-------- ---- --- ---------- --------- -- ------- ------ -<br>--------- ----- -----,248019.40000000037,248014.5,247425.245,247434.90000000037,247441.911,248025.221,,38,20
screen,html.Screen,2_3_1_0_1_39,2022-02-15T15:57:55.264Z,,,,,,,,,,,,,,,,,15,,,,,,,,,,,,,,575.2790000000095,,response,,,,7,A,,,,,,Space,keypress(Space),,,,silence,,,,---- --------- ---------- - --- ------- -- --- ------------<br>----- -- -------- ------- ---- ------ - -------- ---- -----<br>--- ------- ---- -- --- -------- --- - ----- ------ ---- --<br>-------- --- -------- -------- --- -------- ---- -- after -<br>-------- ---- --- ---------- --------- -- ------- ------ -<br>--------- ----- -----,248605.40000000037,248600.5,248008.555,248019.59999999963,248025.221,248608.531,,39,after
screen,html.Screen,2_3_1_0_1_40,2022-02-15T15:57:55.868Z,,,,,,,,,,,,,,,,,15,,,,,,,,,,,,,,595.0689999996393,,response,,,,7,A,,,,,,Space,keypress(Space),,,,silence,,,,---- --------- ---------- - --- ------- -- --- ------------<br>----- -- -------- ------- ---- ------ - -------- ---- -----<br>--- ------- ---- -- --- -------- --- - ----- ------ ---- --<br>-------- --- -------- -------- --- -------- ---- -- ----- a<br>-------- ---- --- ---------- --------- -- ------- ------ -<br>--------- ----- -----,249208.90000000037,249203.59999999963,248591.865,248605.5,248608.531,249225.173,,40,a
