sender,sender_type,sender_id,timestamp,meta,,Blues,Classical,Country,Dance,Electronic,Folk,Gospel,Hip-Hop,Jazz,Latin,Musical/Film,New-age,Pop,Prolific_id,Provo_ID,R&B,Rap,Reggae,Religious,Rock,Soul,Swing,Traditional,age,artist_name,correct,correctResponse,distraction,duration,education,ended_on,familiarity,gender,headphone_check_performance,item,list,music_frequency,offensiveness,pleasantness,position_correct,preference,response,response_action,snippet_file,song_name,song_rating,sound,stimulus_1,stimulus_2,stimulus_3,text,time_commit,time_end,time_render,time_run,time_show,time_switch,url,word,word_ID
Prolific ID,html.Form,0,2022-02-21T10:55:12.327Z,"{""labjs_version"":""20.2.2"",""labjs_build"":{""flavor"":""production"",""commit"":""a25486e0c714a0ae2ce03ff94b7bb6896854dcfa""},""location"":""https://run.pavlovia.org/mvasilev/prolific2_music_b/"",""userAgent"":""Mozilla/5.0 (Windows NT 10.0; Win64; x64; rv:97.0) Gecko/20100101 Firefox/97.0"",""platform"":""Win32"",""language"":""en-GB"",""locale"":""en-GB"",""timeZone"":""Europe/London"",""timezoneOffset"":0,""screen_width"":1536,""screen_height"":864,""scroll_width"":1458,""scroll_height"":703,""window_innerWidth"":1458,""window_innerHeight"":751,""devicePixelRatio"":1.25}",,,,,,,,,,,,,,,5a9dd20b4eecca0001dd9f1d,,,,,,,,,,,,,,,5245.26,,form submission,,,,,,,,,,,,,,,,,,,,,15124,15124,9249.5,9249,9878.74,15133.5,{},,
Introduction,html.Screen,1_0,2022-02-21T10:55:24.961Z,,,,,,,,,,,,,,,,,,,,,,,,,,,,,,,12609.5,,response,,,,,,,,,,,continue,click button,,,,,,,,,27759,27743,15118.66,15126,15133.5,27767.76,,,
Volume calibration,html.Screen,1_1,2022-02-21T10:56:06.072Z,,,,,,,,,,,,,,,,,,,,,,,,,,,,,,,41084.240000000005,,response,,,,,,,,,,,continue,click button,,,,,,,,,68869,68852,27757.44,27759,27767.76,68869.52,,,
Task instructions,html.Screen,1_2,2022-02-21T10:56:21.207Z,,,,,,,,,,,,,,,,,,,,,,,,,,,,,,,15122.479999999996,,response,,,,,,,,,,,continue,click button,,,,,,,,,84005,83992,68868.42,68869,68869.52,84020.54,,,
Sounds,html.Screen,1_3_0_0,2022-02-21T10:56:25.457Z,,,,,,,,,,,,,,,,,,,,,,,,,,,,,,,4250.1600000000035,,timeout,,,,,,,,,3,,,,,,,,O,I,S,,88255,88254.04,84003.54,84006,84020.54,88270.7,,,
Judgement,html.Screen,1_3_0_1,2022-02-21T10:56:26.568Z,,,,,,,,,,,,,,,,,,,,,,,,,,,,true,3,,1080.300000000003,,response,,,,,,,,,3,,3,click #choice-3,,,,,O,I,S,,89367,89351,88254.04,88255,88270.7,89370.76,,,
Trial,flow.Sequence,1_3_0,2022-02-21T10:56:26.569Z,,,,,,,,,,,,,,,,,,,,,,,,,,,,,,,5330.460000000006,,completion,,,,,,,,,3,,,,,,,,O,I,S,,89367,89351,84003.54,84006,84020.54,89370.76,,,
Sounds,html.Screen,1_3_1_0,2022-02-21T10:56:30.807Z,,,,,,,,,,,,,,,,,,,,,,,,,,,,,,,4250.240000000005,,timeout,,,,,,,,,2,,,,,,,,I,S,O,,93605,93604.32,89365.54,89368,89370.76,93621,,,
Judgement,html.Screen,1_3_1_1,2022-02-21T10:56:31.582Z,,,,,,,,,,,,,,,,,,,,,,,,,,,,true,2,,746,,response,,,,,,,,,2,,2,click #choice-2,,,,,I,S,O,,94379,94367,93604.32,93606,93621,94387.7,,,
Trial,flow.Sequence,1_3_1,2022-02-21T10:56:31.582Z,,,,,,,,,,,,,,,,,,,,,,,,,,,,,,,4996.240000000005,,completion,,,,,,,,,2,,,,,,,,I,S,O,,94379,94367,89365.54,89367,89370.76,94387.7,,,
Sounds,html.Screen,1_3_2_0,2022-02-21T10:56:35.825Z,,,,,,,,,,,,,,,,,,,,,,,,,,,,,,,4250.240000000005,,timeout,,,,,,,,,1,,,,,,,,S,I,O,,98623,98621.28,94378.28,94380,94387.7,98637.94,,,
Judgement,html.Screen,1_3_2_1,2022-02-21T10:56:36.719Z,,,,,,,,,,,,,,,,,,,,,,,,,,,,true,1,,870.0599999999977,,response,,,,,,,,,1,,1,click #choice-1,,,,,S,I,O,,99516,99508,98621.28,98623,98637.94,99521.3,,,
Trial,flow.Sequence,1_3_2,2022-02-21T10:56:36.720Z,,,,,,,,,,,,,,,,,,,,,,,,,,,,,,,5120.300000000003,,completion,,,,,,,,,1,,,,,,,,S,I,O,,99517,99508,94378.28,94380,94387.7,99521.3,,,
Sounds,html.Screen,1_3_3_0,2022-02-21T10:56:40.957Z,,,,,,,,,,,,,,,,,,,,,,,,,,,,,,,4250.239999999991,,timeout,,,,,,,,,1,,,,,,,,S,O,I,,103756,103754.88,99515.7,99517,99521.3,103771.54,,,
Judgement,html.Screen,1_3_3_1,2022-02-21T10:56:41.436Z,,,,,,,,,,,,,,,,,,,,,,,,,,,,true,1,,454.4600000000064,,response,,,,,,,,,1,,1,click #choice-1,,,,,S,O,I,,104234,104226,103754.88,103756,103771.54,104238.26,,,
Trial,flow.Sequence,1_3_3,2022-02-21T10:56:41.437Z,,,,,,,,,,,,,,,,,,,,,,,,,,,,,,,4704.699999999997,,completion,,,,,,,,,1,,,,,,,,S,O,I,,104235,104226,99515.7,99517,99521.3,104238.26,,,
Sounds,html.Screen,1_3_4_0,2022-02-21T10:56:45.675Z,,,,,,,,,,,,,,,,,,,,,,,,,,,,,,,4250.1600000000035,,timeout,,,,,,,,,3,,,,,,,,I,O,S,,108472,108471.76,104233.52,104235,104238.26,108488.42,,,
Judgement,html.Screen,1_3_4_1,2022-02-21T10:56:46.179Z,,,,,,,,,,,,,,,,,,,,,,,,,,,,true,3,,473.58000000000175,,response,,,,,,,,,3,,3,click #choice-3,,,,,I,O,S,,108976,108962,108471.76,108472,108488.42,108988.64,,,
Trial,flow.Sequence,1_3_4,2022-02-21T10:56:46.179Z,,,,,,,,,,,,,,,,,,,,,,,,,,,,,,,4723.740000000005,,completion,,,,,,,,,3,,,,,,,,I,O,S,,108977,108962,104233.52,104235,104238.26,108988.64,,,
Sounds,html.Screen,1_3_5_0,2022-02-21T10:56:50.425Z,,,,,,,,,,,,,,,,,,,,,,,,,,,,,,,4250.100000000006,,timeout,,,,,,,,,2,,,,,,,,O,S,I,,113223,113222.06,108975.9,108977,108988.64,113238.74,,,
Judgement,html.Screen,1_3_5_1,2022-02-21T10:56:50.988Z,,,,,,,,,,,,,,,,,,,,,,,,,,,,true,2,,535.2599999999948,,response,,,,,,,,,2,,2,click #choice-2,,,,,O,S,I,,113786,113774,113222.06,113223,113238.74,113788.8,,,
Trial,flow.Sequence,1_3_5,2022-02-21T10:56:50.989Z,,,,,,,,,,,,,,,,,,,,,,,,,,,,,,,4785.360000000001,,completion,,,,,,,,,2,,,,,,,,O,S,I,,113787,113774,108975.9,108977,108988.64,113788.8,,,
Task,flow.Loop,1_3,2022-02-21T10:56:50.989Z,,,,,,,,,,,,,,,,,,,,,,,,,,,,,,,29753.460000000006,,completion,,,1,,,,,,,,,,,,,,,,,,113787,113774,84003.54,84006,84020.54,113788.8,,,
Trap,html.Screen,1_4,2022-02-21T10:56:50.991Z,,,,,,,,,,,,,,,,,,,,,,,,,,,,,,,NaN,,skipped,,,,,,,,,,,,,,,,,,,,,113789,113774,,113789,,113788.8,,,
Thanks,html.Screen,1_5,2022-02-21T10:56:55.337Z,,,,,,,,,,,,,,,,,,,,,,,,,,,,,,,4345.199999999997,,response,,,,,,,,,,,continue,click button,,,,,,,,,118135,118134,113785.62,113789,113788.8,124955.98,,,
Headphone screening,flow.Sequence,1,2022-02-21T10:56:55.338Z,,,,,,,,,,,,,,,,,,,,,,,,,,,,,,,103000.5,,completion,,,,,,,,,,,,,,,,,,,,,118135,118134,15118.66,15126,15133.5,124955.98,,,
Instructions,html.Page,2_0,2022-02-21T10:57:38.786Z,,,,,,,,,,,,,,,,,,,,,,,,,,,,,,,36628.020000000004,,form submission,,,,,,,,,,,,,,,,,,,,,161585,161584,124939.32,124937,124955.98,161591.3,,,
Holding screen,html.Screen,2_1_0_0,2022-02-21T10:57:48.778Z,,,,,,,,,,,,,,,,,,,,,,,,,,,,,,,10000.540000000008,,timeout,,,,,,,,,,,,,,,,,,,,,171576,171575.16,161581.56,161585,161591.3,171591.84,,,
screen,html.Screen,2_1_0_1_0,2022-02-21T10:57:49.528Z,,,,,,,,,,,,,,,,,53,,,,,,,,,,,,,,728.1600000000035,,response,,,,99,,,,,,,Space,keypress(Space),,,,,,,,When -- ----- -- ------ - ------- --- ----------<br>------------- ------ ------ ---- ---- ------- ----- -- ----<br>-------- ------- -- ---------- --- - --- ----- ----- ----<br>---- --- --- ----- --- ---- ---- ------- ----- ---- -------<br>--- --- -- ----- -- --- ---- -- --- ---- -- ------ ------<br>--- ----- -- ----,172327,172320,171575.16,171577,171591.84,172326.76,,0,When
screen,html.Screen,2_1_0_1_1,2022-02-21T10:57:49.928Z,,,,,,,,,,,,,,,,,53,,,,,,,,,,,,,,385.2399999999907,,response,,,,99,,,,,,,Space,keypress(Space),,,,,,,,---- it ----- -- ------ - ------- --- ----------<br>------------- ------ ------ ---- ---- ------- ----- -- ----<br>-------- ------- -- ---------- --- - --- ----- ----- ----<br>---- --- --- ----- --- ---- ---- ------- ----- ---- -------<br>--- --- -- ----- -- --- ---- -- --- ---- -- ------ ------<br>--- ----- -- ----,172727,172712,172326.62,172327,172326.76,172726.72,,1,it
screen,html.Screen,2_1_0_1_2,2022-02-21T10:57:50.479Z,,,,,,,,,,,,,,,,,53,,,,,,,,,,,,,,546.2799999999988,,response,,,,99,,,,,,,Space,keypress(Space),,,,,,,,---- -- comes -- ------ - ------- --- ----------<br>------------- ------ ------ ---- ---- ------- ----- -- ----<br>-------- ------- -- ---------- --- - --- ----- ----- ----<br>---- --- --- ----- --- ---- ---- ------- ----- ---- -------<br>--- --- -- ----- -- --- ---- -- --- ---- -- ------ ------<br>--- ----- -- ----,173276,173273,172726.54,172727,172726.72,173276.58,,2,comes
screen,html.Screen,2_1_0_1_3,2022-02-21T10:57:50.904Z,,,,,,,,,,,,,,,,,53,,,,,,,,,,,,,,418.4200000000128,,response,,,,99,,,,,,,Space,keypress(Space),,,,,,,,---- -- ----- to ------ - ------- --- ----------<br>------------- ------ ------ ---- ---- ------- ----- -- ----<br>-------- ------- -- ---------- --- - --- ----- ----- ----<br>---- --- --- ----- --- ---- ---- ------- ----- ---- -------<br>--- --- -- ----- -- --- ---- -- --- ---- -- ------ ------<br>--- ----- -- ----,173701,173695,173276.34,173276,173276.58,173701.68,,3,to
screen,html.Screen,2_1_0_1_4,2022-02-21T10:57:51.278Z,,,,,,,,,,,,,,,,,53,,,,,,,,,,,,,,368.320000000007,,response,,,,99,,,,,,,Space,keypress(Space),,,,,,,,---- -- ----- -- having - ------- --- ----------<br>------------- ------ ------ ---- ---- ------- ----- -- ----<br>-------- ------- -- ---------- --- - --- ----- ----- ----<br>---- --- --- ----- --- ---- ---- ------- ----- ---- -------<br>--- --- -- ----- -- --- ---- -- --- ---- -- ------ ------<br>--- ----- -- ----,174076,174070,173701.48,173702,173701.68,174076.72,,4,having
screen,html.Screen,2_1_0_1_5,2022-02-21T10:57:51.679Z,,,,,,,,,,,,,,,,,53,,,,,,,,,,,,,,385.27999999999884,,response,,,,99,,,,,,,Space,keypress(Space),,,,,,,,---- -- ----- -- ------ a ------- --- ----------<br>------------- ------ ------ ---- ---- ------- ----- -- ----<br>-------- ------- -- ---------- --- - --- ----- ----- ----<br>---- --- --- ----- --- ---- ---- ------- ----- ---- -------<br>--- --- -- ----- -- --- ---- -- --- ---- -- ------ ------<br>--- ----- -- ----,174476,174462,174076.34,174077,174076.72,174476.58,,5,a
screen,html.Screen,2_1_0_1_6,2022-02-21T10:57:52.079Z,,,,,,,,,,,,,,,,,53,,,,,,,,,,,,,,390.4200000000128,,response,,,,99,,,,,,,Space,keypress(Space),,,,,,,,---- -- ----- -- ------ - lasting --- ----------<br>------------- ------ ------ ---- ---- ------- ----- -- ----<br>-------- ------- -- ---------- --- - --- ----- ----- ----<br>---- --- --- ----- --- ---- ---- ------- ----- ---- -------<br>--- --- -- ----- -- --- ---- -- --- ---- -- ------ ------<br>--- ----- -- ----,174876,174867,174476.34,174476,174476.58,174876.54,,6,lasting
screen,html.Screen,2_1_0_1_7,2022-02-21T10:57:52.453Z,,,,,,,,,,,,,,,,,53,,,,,,,,,,,,,,366.45999999999185,,response,,,,99,,,,,,,Space,keypress(Space),,,,,,,,---- -- ----- -- ------ - ------- and ----------<br>------------- ------ ------ ---- ---- ------- ----- -- ----<br>-------- ------- -- ---------- --- - --- ----- ----- ----<br>---- --- --- ----- --- ---- ---- ------- ----- ---- -------<br>--- --- -- ----- -- --- ---- -- --- ---- -- ------ ------<br>--- ----- -- ----,175252,175243,174876.3,174876,174876.54,175251.58,,7,and
screen,html.Screen,2_1_0_1_8,2022-02-21T10:57:52.803Z,,,,,,,,,,,,,,,,,53,,,,,,,,,,,,,,335.4200000000128,,response,,,,99,,,,,,,Space,keypress(Space),,,,,,,,---- -- ----- -- ------ - ------- --- fulfilling<br>------------- ------ ------ ---- ---- ------- ----- -- ----<br>-------- ------- -- ---------- --- - --- ----- ----- ----<br>---- --- --- ----- --- ---- ---- ------- ----- ---- -------<br>--- --- -- ----- -- --- ---- -- --- ---- -- ------ ------<br>--- ----- -- ----,175601,175587,175251.46,175252,175251.58,175601.32,,8,fulfilling
screen,html.Screen,2_1_0_1_9,2022-02-21T10:57:53.203Z,,,,,,,,,,,,,,,,,53,,,,,,,,,,,,,,390.679999999993,,response,,,,99,,,,,,,Space,keypress(Space),,,,,,,,"---- -- ----- -- ------ - ------- --- ----------<br>relationship, ------ ------ ---- ---- ------- ----- -- ----<br>-------- ------- -- ---------- --- - --- ----- ----- ----<br>---- --- --- ----- --- ---- ---- ------- ----- ---- -------<br>--- --- -- ----- -- --- ---- -- --- ---- -- ------ ------<br>--- ----- -- ----",176001,175992,175601.08,175601,175601.32,176001.74,,9,"relationship,"
screen,html.Screen,2_1_0_1_10,2022-02-21T10:57:53.778Z,,,,,,,,,,,,,,,,,53,,,,,,,,,,,,,,569.2600000000093,,response,,,,99,,,,,,,Space,keypress(Space),,,,,,,,---- -- ----- -- ------ - ------- --- ----------<br>------------- common ------ ---- ---- ------- ----- -- ----<br>-------- ------- -- ---------- --- - --- ----- ----- ----<br>---- --- --- ----- --- ---- ---- ------- ----- ---- -------<br>--- --- -- ----- -- --- ---- -- --- ---- -- ------ ------<br>--- ----- -- ----,176576,176571,176001.46,176001,176001.74,176576.58,,10,common
screen,html.Screen,2_1_0_1_11,2022-02-21T10:57:54.204Z,,,,,,,,,,,,,,,,,53,,,,,,,,,,,,,,416.4200000000128,,response,,,,99,,,,,,,Space,keypress(Space),,,,,,,,---- -- ----- -- ------ - ------- --- ----------<br>------------- ------ wisdom ---- ---- ------- ----- -- ----<br>-------- ------- -- ---------- --- - --- ----- ----- ----<br>---- --- --- ----- --- ---- ---- ------- ----- ---- -------<br>--- --- -- ----- -- --- ---- -- --- ---- -- ------ ------<br>--- ----- -- ----,177002,176993,176576.26,176576,176576.58,177001.74,,11,wisdom
screen,html.Screen,2_1_0_1_12,2022-02-21T10:57:54.604Z,,,,,,,,,,,,,,,,,53,,,,,,,,,,,,,,396.2600000000093,,response,,,,99,,,,,,,Space,keypress(Space),,,,,,,,---- -- ----- -- ------ - ------- --- ----------<br>------------- ------ ------ says ---- ------- ----- -- ----<br>-------- ------- -- ---------- --- - --- ----- ----- ----<br>---- --- --- ----- --- ---- ---- ------- ----- ---- -------<br>--- --- -- ----- -- --- ---- -- --- ---- -- ------ ------<br>--- ----- -- ----,177401,177398,177001.52,177002,177001.74,177401.42,,12,says
screen,html.Screen,2_1_0_1_13,2022-02-21T10:57:55.153Z,,,,,,,,,,,,,,,,,53,,,,,,,,,,,,,,544.5799999999872,,response,,,,99,,,,,,,Space,keypress(Space),,,,,,,,---- -- ----- -- ------ - ------- --- ----------<br>------------- ------ ------ ---- that ------- ----- -- ----<br>-------- ------- -- ---------- --- - --- ----- ----- ----<br>---- --- --- ----- --- ---- ---- ------- ----- ---- -------<br>--- --- -- ----- -- --- ---- -- --- ---- -- ------ ------<br>--- ----- -- ----,177951,177946,177401.3,177401,177401.42,177951.84,,13,that
screen,html.Screen,2_1_0_1_14,2022-02-21T10:57:56.679Z,,,,,,,,,,,,,,,,,53,,,,,,,,,,,,,,1510.1600000000035,,response,,,,99,,,,,,,Space,keypress(Space),,,,,,,,---- -- ----- -- ------ - ------- --- ----------<br>------------- ------ ------ ---- ---- feeling ----- -- ----<br>-------- ------- -- ---------- --- - --- ----- ----- ----<br>---- --- --- ----- --- ---- ---- ------- ----- ---- -------<br>--- --- -- ----- -- --- ---- -- --- ---- -- ------ ------<br>--- ----- -- ----,179476,179462,177951.52,177951,177951.84,179476.64,,14,feeling
screen,html.Screen,2_1_0_1_15,2022-02-21T10:57:57.279Z,,,,,,,,,,,,,,,,,53,,,,,,,,,,,,,,593.359999999986,,response,,,,99,,,,,,,Space,keypress(Space),,,,,,,,---- -- ----- -- ------ - ------- --- ----------<br>------------- ------ ------ ---- ---- ------- close -- ----<br>-------- ------- -- ---------- --- - --- ----- ----- ----<br>---- --- --- ----- --- ---- ---- ------- ----- ---- -------<br>--- --- -- ----- -- --- ---- -- --- ---- -- ------ ------<br>--- ----- -- ----,180076,180070,179476.5,179477,179476.64,180076.78,,15,close
screen,html.Screen,2_1_0_1_16,2022-02-21T10:57:57.678Z,,,,,,,,,,,,,,,,,53,,,,,,,,,,,,,,385.22000000000116,,response,,,,99,,,,,,,Space,keypress(Space),,,,,,,,---- -- ----- -- ------ - ------- --- ----------<br>------------- ------ ------ ---- ---- ------- ----- to ----<br>-------- ------- -- ---------- --- - --- ----- ----- ----<br>---- --- --- ----- --- ---- ---- ------- ----- ---- -------<br>--- --- -- ----- -- --- ---- -- --- ---- -- ------ ------<br>--- ----- -- ----,180476,180462,180076.58,180077,180076.78,180476.38,,16,to
screen,html.Screen,2_1_0_1_17,2022-02-21T10:57:58.103Z,,,,,,,,,,,,,,,,,53,,,,,,,,,,,,,,421.61999999999534,,response,,,,99,,,,,,,Space,keypress(Space),,,,,,,,---- -- ----- -- ------ - ------- --- ----------<br>------------- ------ ------ ---- ---- ------- ----- -- your<br>-------- ------- -- ---------- --- - --- ----- ----- ----<br>---- --- --- ----- --- ---- ---- ------- ----- ---- -------<br>--- --- -- ----- -- --- ---- -- --- ---- -- ------ ------<br>--- ----- -- ----,180901,180898,180476.12,180476,180476.38,180901.86,,17,your
screen,html.Screen,2_1_0_1_18,2022-02-21T10:57:58.578Z,,,,,,,,,,,,,,,,,53,,,,,,,,,,,,,,465.14000000001397,,response,,,,99,,,,,,,Space,keypress(Space),,,,,,,,---- -- ----- -- ------ - ------- --- ----------<br>------------- ------ ------ ---- ---- ------- ----- -- ----<br>romantic ------- -- ---------- --- - --- ----- ----- ----<br>---- --- --- ----- --- ---- ---- ------- ----- ---- -------<br>--- --- -- ----- -- --- ---- -- --- ---- -- ------ ------<br>--- ----- -- ----,181376,181367,180901.6,180901,180901.86,181376.36,,18,romantic
screen,html.Screen,2_1_0_1_19,2022-02-21T10:57:59.129Z,,,,,,,,,,,,,,,,,53,,,,,,,,,,,,,,538.640000000014,,response,,,,99,,,,,,,Space,keypress(Space),,,,,,,,---- -- ----- -- ------ - ------- --- ----------<br>------------- ------ ------ ---- ---- ------- ----- -- ----<br>-------- partner -- ---------- --- - --- ----- ----- ----<br>---- --- --- ----- --- ---- ---- ------- ----- ---- -------<br>--- --- -- ----- -- --- ---- -- --- ---- -- ------ ------<br>--- ----- -- ----,181926,181915,181376.12,181376,181376.36,181926.74,,19,partner
screen,html.Screen,2_1_0_1_20,2022-02-21T10:57:59.528Z,,,,,,,,,,,,,,,,,53,,,,,,,,,,,,,,393.2600000000093,,response,,,,99,,,,,,,Space,keypress(Space),,,,,,,,---- -- ----- -- ------ - ------- --- ----------<br>------------- ------ ------ ---- ---- ------- ----- -- ----<br>-------- ------- is ---------- --- - --- ----- ----- ----<br>---- --- --- ----- --- ---- ---- ------- ----- ---- -------<br>--- --- -- ----- -- --- ---- -- --- ---- -- ------ ------<br>--- ----- -- ----,182326,182320,181926.5,181927,181926.74,182326.48,,20,is
screen,html.Screen,2_1_0_1_21,2022-02-21T10:57:59.929Z,,,,,,,,,,,,,,,,,53,,,,,,,,,,,,,,385.5199999999895,,response,,,,99,,,,,,,Space,keypress(Space),,,,,,,,---- -- ----- -- ------ - ------- --- ----------<br>------------- ------ ------ ---- ---- ------- ----- -- ----<br>-------- ------- -- paramount. --- - --- ----- ----- ----<br>---- --- --- ----- --- ---- ---- ------- ----- ---- -------<br>--- --- -- ----- -- --- ---- -- --- ---- -- ------ ------<br>--- ----- -- ----,182726,182712,182326.14,182326,182326.48,182726.72,,21,paramount.
screen,html.Screen,2_1_0_1_22,2022-02-21T10:58:01.203Z,,,,,,,,,,,,,,,,,53,,,,,,,,,,,,,,1266.2799999999988,,response,,,,99,,,,,,,Space,keypress(Space),,,,,,,,---- -- ----- -- ------ - ------- --- ----------<br>------------- ------ ------ ---- ---- ------- ----- -- ----<br>-------- ------- -- ---------- But - --- ----- ----- ----<br>---- --- --- ----- --- ---- ---- ------- ----- ---- -------<br>--- --- -- ----- -- --- ---- -- --- ---- -- ------ ------<br>--- ----- -- ----,184001,183993,182726.56,182726,182726.72,184001.74,,22,But
screen,html.Screen,2_1_0_1_23,2022-02-21T10:58:01.604Z,,,,,,,,,,,,,,,,,53,,,,,,,,,,,,,,396.2600000000093,,response,,,,99,,,,,,,Space,keypress(Space),,,,,,,,---- -- ----- -- ------ - ------- --- ----------<br>------------- ------ ------ ---- ---- ------- ----- -- ----<br>-------- ------- -- ---------- --- a --- ----- ----- ----<br>---- --- --- ----- --- ---- ---- ------- ----- ---- -------<br>--- --- -- ----- -- --- ---- -- --- ---- -- ------ ------<br>--- ----- -- ----,184401,184398,184001.46,184002,184001.74,184401.5,,23,a
screen,html.Screen,2_1_0_1_24,2022-02-21T10:58:02.228Z,,,,,,,,,,,,,,,,,53,,,,,,,,,,,,,,622.5,,response,,,,99,,,,,,,Space,keypress(Space),,,,,,,,---- -- ----- -- ------ - ------- --- ----------<br>------------- ------ ------ ---- ---- ------- ----- -- ----<br>-------- ------- -- ---------- --- - new ----- ----- ----<br>---- --- --- ----- --- ---- ---- ------- ----- ---- -------<br>--- --- -- ----- -- --- ---- -- --- ---- -- ------ ------<br>--- ----- -- ----,185026,185024,184401.3,184401,184401.5,185026.54,,24,new
screen,html.Screen,2_1_0_1_25,2022-02-21T10:58:02.629Z,,,,,,,,,,,,,,,,,53,,,,,,,,,,,,,,387.45999999999185,,response,,,,99,,,,,,,Space,keypress(Space),,,,,,,,---- -- ----- -- ------ - ------- --- ----------<br>------------- ------ ------ ---- ---- ------- ----- -- ----<br>-------- ------- -- ---------- --- - --- study ----- ----<br>---- --- --- ----- --- ---- ---- ------- ----- ---- -------<br>--- --- -- ----- -- --- ---- -- --- ---- -- ------ ------<br>--- ----- -- ----,185426,185414,185026.36,185027,185026.54,185426.5,,25,study
screen,html.Screen,2_1_0_1_26,2022-02-21T10:58:03.004Z,,,,,,,,,,,,,,,,,53,,,,,,,,,,,,,,362.5,,response,,,,99,,,,,,,Space,keypress(Space),,,,,,,,---- -- ----- -- ------ - ------- --- ----------<br>------------- ------ ------ ---- ---- ------- ----- -- ----<br>-------- ------- -- ---------- --- - --- ----- finds ----<br>---- --- --- ----- --- ---- ---- ------- ----- ---- -------<br>--- --- -- ----- -- --- ---- -- --- ---- -- ------ ------<br>--- ----- -- ----,185802,185789,185426.32,185426,185426.5,185801.68,,26,finds
screen,html.Screen,2_1_0_1_27,2022-02-21T10:58:03.229Z,,,,,,,,,,,,,,,,,53,,,,,,,,,,,,,,222.32000000000698,,response,,,,99,,,,,,,Space,keypress(Space),,,,,,,,---- -- ----- -- ------ - ------- --- ----------<br>------------- ------ ------ ---- ---- ------- ----- -- ----<br>-------- ------- -- ---------- --- - --- ----- ----- that<br>---- --- --- ----- --- ---- ---- ------- ----- ---- -------<br>--- --- -- ----- -- --- ---- -- --- ---- -- ------ ------<br>--- ----- -- ----,186026,186024,185801.4,185802,185801.68,186026.72,,27,that
screen,html.Screen,2_1_0_1_28,2022-02-21T10:58:03.504Z,,,,,,,,,,,,,,,,,53,,,,,,,,,,,,,,263.27999999999884,,response,,,,99,,,,,,,Space,keypress(Space),,,,,,,,---- -- ----- -- ------ - ------- --- ----------<br>------------- ------ ------ ---- ---- ------- ----- -- ----<br>-------- ------- -- ---------- --- - --- ----- ----- ----<br>it's --- --- ----- --- ---- ---- ------- ----- ---- -------<br>--- --- -- ----- -- --- ---- -- --- ---- -- ------ ------<br>--- ----- -- ----,186301,186290,186026.58,186027,186026.72,186301.5,,28,it's
screen,html.Screen,2_1_0_1_29,2022-02-21T10:58:03.779Z,,,,,,,,,,,,,,,,,53,,,,,,,,,,,,,,268.5,,response,,,,99,,,,,,,Space,keypress(Space),,,,,,,,---- -- ----- -- ------ - ------- --- ----------<br>------------- ------ ------ ---- ---- ------- ----- -- ----<br>-------- ------- -- ---------- --- - --- ----- ----- ----<br>---- not --- ----- --- ---- ---- ------- ----- ---- -------<br>--- --- -- ----- -- --- ---- -- --- ---- -- ------ ------<br>--- ----- -- ----,186576,186570,186301.26,186301,186301.5,186576.84,,29,not
screen,html.Screen,2_1_0_1_30,2022-02-21T10:58:04.054Z,,,,,,,,,,,,,,,,,53,,,,,,,,,,,,,,260.1600000000035,,response,,,,99,,,,,,,Space,keypress(Space),,,,,,,,---- -- ----- -- ------ - ------- --- ----------<br>------------- ------ ------ ---- ---- ------- ----- -- ----<br>-------- ------- -- ---------- --- - --- ----- ----- ----<br>---- --- how ----- --- ---- ---- ------- ----- ---- -------<br>--- --- -- ----- -- --- ---- -- --- ---- -- ------ ------<br>--- ----- -- ----,186851,186837,186576.56,186576,186576.84,186851.6,,30,how
screen,html.Screen,2_1_0_1_31,2022-02-21T10:58:04.353Z,,,,,,,,,,,,,,,,,53,,,,,,,,,,,,,,297.3999999999942,,response,,,,99,,,,,,,Space,keypress(Space),,,,,,,,---- -- ----- -- ------ - ------- --- ----------<br>------------- ------ ------ ---- ---- ------- ----- -- ----<br>-------- ------- -- ---------- --- - --- ----- ----- ----<br>---- --- --- close --- ---- ---- ------- ----- ---- -------<br>--- --- -- ----- -- --- ---- -- --- ---- -- ------ ------<br>--- ----- -- ----,187151,187149,186851.42,186851,186851.6,187151.26,,31,close
screen,html.Screen,2_1_0_1_32,2022-02-21T10:58:04.678Z,,,,,,,,,,,,,,,,,53,,,,,,,,,,,,,,309.7399999999907,,response,,,,99,,,,,,,Space,keypress(Space),,,,,,,,---- -- ----- -- ------ - ------- --- ----------<br>------------- ------ ------ ---- ---- ------- ----- -- ----<br>-------- ------- -- ---------- --- - --- ----- ----- ----<br>---- --- --- ----- you ---- ---- ------- ----- ---- -------<br>--- --- -- ----- -- --- ---- -- --- ---- -- ------ ------<br>--- ----- -- ----,187475,187461,187151.08,187151,187151.26,187476.2,,32,you
screen,html.Screen,2_1_0_1_33,2022-02-21T10:58:05.204Z,,,,,,,,,,,,,,,,,53,,,,,,,,,,,,,,516.7999999999884,,response,,,,99,,,,,,,Space,keypress(Space),,,,,,,,---- -- ----- -- ------ - ------- --- ----------<br>------------- ------ ------ ---- ---- ------- ----- -- ----<br>-------- ------- -- ---------- --- - --- ----- ----- ----<br>---- --- --- ----- --- feel ---- ------- ----- ---- -------<br>--- --- -- ----- -- --- ---- -- --- ---- -- ------ ------<br>--- ----- -- ----,188002,187993,187476.08,187476,187476.2,188001.72,,33,feel
screen,html.Screen,2_1_0_1_34,2022-02-21T10:58:05.529Z,,,,,,,,,,,,,,,,,53,,,,,,,,,,,,,,318.27999999999884,,response,,,,99,,,,,,,Space,keypress(Space),,,,,,,,---- -- ----- -- ------ - ------- --- ----------<br>------------- ------ ------ ---- ---- ------- ----- -- ----<br>-------- ------- -- ---------- --- - --- ----- ----- ----<br>---- --- --- ----- --- ---- that ------- ----- ---- -------<br>--- --- -- ----- -- --- ---- -- --- ---- -- ------ ------<br>--- ----- -- ----,188326,188320,188001.54,188002,188001.72,188326.42,,34,that
screen,html.Screen,2_1_0_1_35,2022-02-21T10:58:05.854Z,,,,,,,,,,,,,,,,,53,,,,,,,,,,,,,,321.5799999999872,,response,,,,99,,,,,,,Space,keypress(Space),,,,,,,,---- -- ----- -- ------ - ------- --- ----------<br>------------- ------ ------ ---- ---- ------- ----- -- ----<br>-------- ------- -- ---------- --- - --- ----- ----- ----<br>---- --- --- ----- --- ---- ---- matters ----- ---- -------<br>--- --- -- ----- -- --- ---- -- --- ---- -- ------ ------<br>--- ----- -- ----,188651,188648,188326.16,188326,188326.42,188651.66,,35,matters
screen,html.Screen,2_1_0_1_36,2022-02-21T10:58:06.178Z,,,,,,,,,,,,,,,,,53,,,,,,,,,,,,,,309.3399999999965,,response,,,,99,,,,,,,Space,keypress(Space),,,,,,,,"---- -- ----- -- ------ - ------- --- ----------<br>------------- ------ ------ ---- ---- ------- ----- -- ----<br>-------- ------- -- ---------- --- - --- ----- ----- ----<br>---- --- --- ----- --- ---- ---- ------- most, ---- -------<br>--- --- -- ----- -- --- ---- -- --- ---- -- ------ ------<br>--- ----- -- ----",188976,188961,188651.48,188651,188651.66,188976.46,,36,"most,"
screen,html.Screen,2_1_0_1_37,2022-02-21T10:58:06.629Z,,,,,,,,,,,,,,,,,53,,,,,,,,,,,,,,438.54000000000815,,response,,,,99,,,,,,,Space,keypress(Space),,,,,,,,---- -- ----- -- ------ - ------- --- ----------<br>------------- ------ ------ ---- ---- ------- ----- -- ----<br>-------- ------- -- ---------- --- - --- ----- ----- ----<br>---- --- --- ----- --- ---- ---- ------- ----- it's -------<br>--- --- -- ----- -- --- ---- -- --- ---- -- ------ ------<br>--- ----- -- ----,189426,189415,188976.3,188976,188976.46,189426.54,,37,it's
screen,html.Screen,2_1_0_1_38,2022-02-21T10:58:07.054Z,,,,,,,,,,,,,,,,,53,,,,,,,,,,,,,,409.45999999999185,,response,,,,99,,,,,,,Space,keypress(Space),,,,,,,,---- -- ----- -- ------ - ------- --- ----------<br>------------- ------ ------ ---- ---- ------- ----- -- ----<br>-------- ------- -- ---------- --- - --- ----- ----- ----<br>---- --- --- ----- --- ---- ---- ------- ----- ---- whether<br>--- --- -- ----- -- --- ---- -- --- ---- -- ------ ------<br>--- ----- -- ----,189851,189836,189426.32,189426,189426.54,189851.42,,38,whether
screen,html.Screen,2_1_0_1_39,2022-02-21T10:58:07.403Z,,,,,,,,,,,,,,,,,53,,,,,,,,,,,,,,344.5799999999872,,response,,,,99,,,,,,,Space,keypress(Space),,,,,,,,---- -- ----- -- ------ - ------- --- ----------<br>------------- ------ ------ ---- ---- ------- ----- -- ----<br>-------- ------- -- ---------- --- - --- ----- ----- ----<br>---- --- --- ----- --- ---- ---- ------- ----- ---- -------<br>you --- -- ----- -- --- ---- -- --- ---- -- ------ ------<br>--- ----- -- ----,190202,190196,189851.22,189852,189851.42,190201.66,,39,you
screen,html.Screen,2_1_0_1_40,2022-02-21T10:58:07.754Z,,,,,,,,,,,,,,,,,53,,,,,,,,,,,,,,338.3399999999965,,response,,,,99,,,,,,,Space,keypress(Space),,,,,,,,---- -- ----- -- ------ - ------- --- ----------<br>------------- ------ ------ ---- ---- ------- ----- -- ----<br>-------- ------- -- ---------- --- - --- ----- ----- ----<br>---- --- --- ----- --- ---- ---- ------- ----- ---- -------<br>--- are -- ----- -- --- ---- -- --- ---- -- ------ ------<br>--- ----- -- ----,190551,190540,190201.32,190202,190201.66,190551.68,,40,are
screen,html.Screen,2_1_0_1_41,2022-02-21T10:58:08.003Z,,,,,,,,,,,,,,,,,53,,,,,,,,,,,,,,237.32000000000698,,response,,,,99,,,,,,,Space,keypress(Space),,,,,,,,---- -- ----- -- ------ - ------- --- ----------<br>------------- ------ ------ ---- ---- ------- ----- -- ----<br>-------- ------- -- ---------- --- - --- ----- ----- ----<br>---- --- --- ----- --- ---- ---- ------- ----- ---- -------<br>--- --- as ----- -- --- ---- -- --- ---- -- ------ ------<br>--- ----- -- ----,190801,190789,190551.4,190552,190551.68,190801.52,,41,as
screen,html.Screen,2_1_0_1_42,2022-02-21T10:58:08.428Z,,,,,,,,,,,,,,,,,53,,,,,,,,,,,,,,410.4800000000105,,response,,,,99,,,,,,,Space,keypress(Space),,,,,,,,---- -- ----- -- ------ - ------- --- ----------<br>------------- ------ ------ ---- ---- ------- ----- -- ----<br>-------- ------- -- ---------- --- - --- ----- ----- ----<br>---- --- --- ----- --- ---- ---- ------- ----- ---- -------<br>--- --- -- close -- --- ---- -- --- ---- -- ------ ------<br>--- ----- -- ----,191226,191212,190801.24,190801,190801.52,191226.48,,42,close
screen,html.Screen,2_1_0_1_43,2022-02-21T10:58:09.029Z,,,,,,,,,,,,,,,,,53,,,,,,,,,,,,,,593.5199999999895,,response,,,,99,,,,,,,Space,keypress(Space),,,,,,,,---- -- ----- -- ------ - ------- --- ----------<br>------------- ------ ------ ---- ---- ------- ----- -- ----<br>-------- ------- -- ---------- --- - --- ----- ----- ----<br>---- --- --- ----- --- ---- ---- ------- ----- ---- -------<br>--- --- -- ----- as --- ---- -- --- ---- -- ------ ------<br>--- ----- -- ----,191826,191820,191226.22,191226,191226.48,191826.76,,43,as
screen,html.Screen,2_1_0_1_44,2022-02-21T10:58:09.379Z,,,,,,,,,,,,,,,,,53,,,,,,,,,,,,,,338.2399999999907,,response,,,,99,,,,,,,Space,keypress(Space),,,,,,,,---- -- ----- -- ------ - ------- --- ----------<br>------------- ------ ------ ---- ---- ------- ----- -- ----<br>-------- ------- -- ---------- --- - --- ----- ----- ----<br>---- --- --- ----- --- ---- ---- ------- ----- ---- -------<br>--- --- -- ----- -- you ---- -- --- ---- -- ------ ------<br>--- ----- -- ----,192177,192165,191826.52,191826,191826.76,192176.64,,44,you
screen,html.Screen,2_1_0_1_45,2022-02-21T10:58:09.803Z,,,,,,,,,,,,,,,,,53,,,,,,,,,,,,,,409.35999999998603,,response,,,,99,,,,,,,Space,keypress(Space),,,,,,,,---- -- ----- -- ------ - ------- --- ----------<br>------------- ------ ------ ---- ---- ------- ----- -- ----<br>-------- ------- -- ---------- --- - --- ----- ----- ----<br>---- --- --- ----- --- ---- ---- ------- ----- ---- -------<br>--- --- -- ----- -- --- want -- --- ---- -- ------ ------<br>--- ----- -- ----,192601,192586,192176.52,192177,192176.64,192601.46,,45,want
screen,html.Screen,2_1_0_1_46,2022-02-21T10:58:10.178Z,,,,,,,,,,,,,,,,,53,,,,,,,,,,,,,,360.54000000000815,,response,,,,99,,,,,,,Space,keypress(Space),,,,,,,,---- -- ----- -- ------ - ------- --- ----------<br>------------- ------ ------ ---- ---- ------- ----- -- ----<br>-------- ------- -- ---------- --- - --- ----- ----- ----<br>---- --- --- ----- --- ---- ---- ------- ----- ---- -------<br>--- --- -- ----- -- --- ---- to --- ---- -- ------ ------<br>--- ----- -- ----,192976,192962,192601.22,192601,192601.46,192976.46,,46,to
screen,html.Screen,2_1_0_1_47,2022-02-21T10:58:10.479Z,,,,,,,,,,,,,,,,,53,,,,,,,,,,,,,,297.54000000000815,,response,,,,99,,,,,,,Space,keypress(Space),,,,,,,,"---- -- ----- -- ------ - ------- --- ----------<br>------------- ------ ------ ---- ---- ------- ----- -- ----<br>-------- ------- -- ---------- --- - --- ----- ----- ----<br>---- --- --- ----- --- ---- ---- ------- ----- ---- -------<br>--- --- -- ----- -- --- ---- -- be, ---- -- ------ ------<br>--- ----- -- ----",193276,193274,192976.28,192976,192976.46,193276.58,,47,"be,"
screen,html.Screen,2_1_0_1_48,2022-02-21T10:58:11.054Z,,,,,,,,,,,,,,,,,53,,,,,,,,,,,,,,559.4200000000128,,response,,,,99,,,,,,,Space,keypress(Space),,,,,,,,---- -- ----- -- ------ - ------- --- ----------<br>------------- ------ ------ ---- ---- ------- ----- -- ----<br>-------- ------- -- ---------- --- - --- ----- ----- ----<br>---- --- --- ----- --- ---- ---- ------- ----- ---- -------<br>--- --- -- ----- -- --- ---- -- --- even -- ------ ------<br>--- ----- -- ----,193851,193836,193276.26,193276,193276.58,193851.8,,48,even
screen,html.Screen,2_1_0_1_49,2022-02-21T10:58:11.529Z,,,,,,,,,,,,,,,,,53,,,,,,,,,,,,,,468.20000000001164,,response,,,,99,,,,,,,Space,keypress(Space),,,,,,,,---- -- ----- -- ------ - ------- --- ----------<br>------------- ------ ------ ---- ---- ------- ----- -- ----<br>-------- ------- -- ---------- --- - --- ----- ----- ----<br>---- --- --- ----- --- ---- ---- ------- ----- ---- -------<br>--- --- -- ----- -- --- ---- -- --- ---- if ------ ------<br>--- ----- -- ----,194327,194320,193851.54,193851,193851.8,194326.74,,49,if
screen,html.Screen,2_1_0_1_50,2022-02-21T10:58:11.878Z,,,,,,,,,,,,,,,,,53,,,,,,,,,,,,,,337.2600000000093,,response,,,,99,,,,,,,Space,keypress(Space),,,,,,,,---- -- ----- -- ------ - ------- --- ----------<br>------------- ------ ------ ---- ---- ------- ----- -- ----<br>-------- ------- -- ---------- --- - --- ----- ----- ----<br>---- --- --- ----- --- ---- ---- ------- ----- ---- -------<br>--- --- -- ----- -- --- ---- -- --- ---- -- that's ------<br>--- ----- -- ----,194676,194664,194326.58,194327,194326.74,194676.74,,50,that's
screen,html.Screen,2_1_0_1_51,2022-02-21T10:58:12.304Z,,,,,,,,,,,,,,,,,53,,,,,,,,,,,,,,410.2600000000093,,response,,,,99,,,,,,,Space,keypress(Space),,,,,,,,---- -- ----- -- ------ - ------- --- ----------<br>------------- ------ ------ ---- ---- ------- ----- -- ----<br>-------- ------- -- ---------- --- - --- ----- ----- ----<br>---- --- --- ----- --- ---- ---- ------- ----- ---- -------<br>--- --- -- ----- -- --- ---- -- --- ---- -- ------ really<br>--- ----- -- ----,195101,195087,194676.56,194676,194676.74,195101.62,,51,really
screen,html.Screen,2_1_0_1_52,2022-02-21T10:58:12.703Z,,,,,,,,,,,,,,,,,53,,,,,,,,,,,,,,391.38000000000466,,response,,,,99,,,,,,,Space,keypress(Space),,,,,,,,---- -- ----- -- ------ - ------- --- ----------<br>------------- ------ ------ ---- ---- ------- ----- -- ----<br>-------- ------- -- ---------- --- - --- ----- ----- ----<br>---- --- --- ----- --- ---- ---- ------- ----- ---- -------<br>--- --- -- ----- -- --- ---- -- --- ---- -- ------ ------<br>not ----- -- ----,195501,195493,195101.48,195102,195101.62,195501.52,,52,not
screen,html.Screen,2_1_0_1_53,2022-02-21T10:58:13.104Z,,,,,,,,,,,,,,,,,53,,,,,,,,,,,,,,396.4800000000105,,response,,,,99,,,,,,,Space,keypress(Space),,,,,,,,---- -- ----- -- ------ - ------- --- ----------<br>------------- ------ ------ ---- ---- ------- ----- -- ----<br>-------- ------- -- ---------- --- - --- ----- ----- ----<br>---- --- --- ----- --- ---- ---- ------- ----- ---- -------<br>--- --- -- ----- -- --- ---- -- --- ---- -- ------ ------<br>--- close -- ----,195901,195898,195501.36,195502,195501.52,195901.88,,53,close
screen,html.Screen,2_1_0_1_54,2022-02-21T10:58:13.454Z,,,,,,,,,,,,,,,,,53,,,,,,,,,,,,,,341.11999999999534,,response,,,,99,,,,,,,Space,keypress(Space),,,,,,,,---- -- ----- -- ------ - ------- --- ----------<br>------------- ------ ------ ---- ---- ------- ----- -- ----<br>-------- ------- -- ---------- --- - --- ----- ----- ----<br>---- --- --- ----- --- ---- ---- ------- ----- ---- -------<br>--- --- -- ----- -- --- ---- -- --- ---- -- ------ ------<br>--- ----- at ----,196252,196243,195901.68,195902,195901.88,196251.6,,54,at
screen,html.Screen,2_1_0_1_55,2022-02-21T10:58:15.454Z,,,,,,,,,,,,,,,,,53,,,,,,,,,,,,,,1991.3999999999942,,response,,,,99,,,,,,,Space,keypress(Space),,,,,,,,---- -- ----- -- ------ - ------- --- ----------<br>------------- ------ ------ ---- ---- ------- ----- -- ----<br>-------- ------- -- ---------- --- - --- ----- ----- ----<br>---- --- --- ----- --- ---- ---- ------- ----- ---- -------<br>--- --- -- ----- -- --- ---- -- --- ---- -- ------ ------<br>--- ----- -- all.,198252,198243,196251.42,196252,196251.6,198252.14,,55,all.
Item 99,flow.Loop,2_1_0_1,2022-02-21T10:58:15.455Z,,,,,,,,,,,,,,,,,,,,,,,,,,,,,,,26651.160000000003,,completion,,,,,B,,,,,,,,,,,silence,,,,,198252,198243,171575.16,171577,171591.84,198252.14,,,
Question 1,html.Screen,2_1_0_2,2022-02-21T10:58:18.909Z,,,,,,,,,,,,,,,,,,,,,,,,,,,,true,FALSE,,3443.859999999986,,response,,,,99,B,,,,,,FALSE,click #choice-2,,,,silence,,,,,201707,201696,198251.96,198252,198252.14,201710.1,,,
Question 2,html.Screen,2_1_0_3,2022-02-21T10:58:23.999Z,,,,,,,,,,,,,,,,,,,,,,,,,,,,true,TRUE,,5079.899999999994,,response,,,,99,B,,,,,,TRUE,click #choice-1,,,,silence,,,,,206796,206790,201706.06,201707,201710.1,206810.38,,,
Item 99,flow.Sequence,2_1_0,2022-02-21T10:58:23.999Z,,,,,,,,,,,,,,,,,,,,,,,,,,,,,,,45198.70000000001,,completion,,,,,,,,,,,,,,,,,,,,,206797,206790,161581.56,161585,161591.3,206810.38,,,
Holding screen,html.Screen,2_1_1_0,2022-02-21T10:58:33.998Z,,,,,,,,,,,,,,,,,,,,,,,,,,,,,,,10000.540000000008,,timeout,,,,,,,,,,,,,,,,,,,,,216795,216794.26,206795.66,206797,206810.38,216810.92,,,
screen,html.Screen,2_1_1_1_0,2022-02-21T10:58:34.755Z,,,,,,,,,,,,,,,,,54,,,,,,,,,,,,,,728.0799999999872,,response,,,,100,,,,,,,Space,keypress(Space),,,,,,,,At --- ---- --- ------ ----- ------- ---- -- --- ------- --<br>------- ---------- ------ -- ----- -- ----- -- ---- ------<br>--- ----- --- --- ------ -------- ----- --- ------ ----- --<br>----- ----- ---------- --- --- ------ ------ ---- -- ------<br>------- --- ------ ----- --- ---- ------- -- ---- --- --<br>------- ------,217553,217539,216794.26,216795,216810.92,217552.64,,0,At
screen,html.Screen,2_1_1_1_1,2022-02-21T10:58:35.030Z,,,,,,,,,,,,,,,,,54,,,,,,,,,,,,,,268.35999999998603,,response,,,,100,,,,,,,Space,keypress(Space),,,,,,,,-- the ---- --- ------ ----- ------- ---- -- --- ------- --<br>------- ---------- ------ -- ----- -- ----- -- ---- ------<br>--- ----- --- --- ------ -------- ----- --- ------ ----- --<br>----- ----- ---------- --- --- ------ ------ ---- -- ------<br>------- --- ------ ----- --- ---- ------- -- ---- --- --<br>------- ------,217828,217821,217552.52,217553,217552.64,217827.74,,1,the
screen,html.Screen,2_1_1_1_2,2022-02-21T10:58:35.355Z,,,,,,,,,,,,,,,,,54,,,,,,,,,,,,,,320.2600000000093,,response,,,,100,,,,,,,Space,keypress(Space),,,,,,,,-- --- time --- ------ ----- ------- ---- -- --- ------- --<br>------- ---------- ------ -- ----- -- ----- -- ---- ------<br>--- ----- --- --- ------ -------- ----- --- ------ ----- --<br>----- ----- ---------- --- --- ------ ------ ---- -- ------<br>------- --- ------ ----- --- ---- ------- -- ---- --- --<br>------- ------,218152,218148,217827.56,217828,217827.74,218152.96,,2,time
screen,html.Screen,2_1_1_1_3,2022-02-21T10:58:35.655Z,,,,,,,,,,,,,,,,,54,,,,,,,,,,,,,,292.04000000000815,,response,,,,100,,,,,,,Space,keypress(Space),,,,,,,,-- --- ---- the ------ ----- ------- ---- -- --- ------- --<br>------- ---------- ------ -- ----- -- ----- -- ---- ------<br>--- ----- --- --- ------ -------- ----- --- ------ ----- --<br>----- ----- ---------- --- --- ------ ------ ---- -- ------<br>------- --- ------ ----- --- ---- ------- -- ---- --- --<br>------- ------,218452,218445,218152.84,218153,218152.96,218452.36,,3,the
screen,html.Screen,2_1_1_1_4,2022-02-21T10:58:35.930Z,,,,,,,,,,,,,,,,,54,,,,,,,,,,,,,,258.64000000001397,,response,,,,100,,,,,,,Space,keypress(Space),,,,,,,,-- --- ---- --- French ----- ------- ---- -- --- ------- --<br>------- ---------- ------ -- ----- -- ----- -- ---- ------<br>--- ----- --- --- ------ -------- ----- --- ------ ----- --<br>----- ----- ---------- --- --- ------ ------ ---- -- ------<br>------- --- ------ ----- --- ---- ------- -- ---- --- --<br>------- ------,218728,218711,218452.22,218453,218452.36,218727.9,,4,French
screen,html.Screen,2_1_1_1_5,2022-02-21T10:58:36.255Z,,,,,,,,,,,,,,,,,54,,,,,,,,,,,,,,311.1000000000058,,response,,,,100,,,,,,,Space,keypress(Space),,,,,,,,-- --- ---- --- ------ crown ------- ---- -- --- ------- --<br>------- ---------- ------ -- ----- -- ----- -- ---- ------<br>--- ----- --- --- ------ -------- ----- --- ------ ----- --<br>----- ----- ---------- --- --- ------ ------ ---- -- ------<br>------- --- ------ ----- --- ---- ------- -- ---- --- --<br>------- ------,219053,219039,218727.64,218728,218727.9,219052.68,,5,crown
screen,html.Screen,2_1_1_1_6,2022-02-21T10:58:36.705Z,,,,,,,,,,,,,,,,,54,,,,,,,,,,,,,,439.320000000007,,response,,,,100,,,,,,,Space,keypress(Space),,,,,,,,-- --- ---- --- ------ ----- secured ---- -- --- ------- --<br>------- ---------- ------ -- ----- -- ----- -- ---- ------<br>--- ----- --- --- ------ -------- ----- --- ------ ----- --<br>----- ----- ---------- --- --- ------ ------ ---- -- ------<br>------- --- ------ ----- --- ---- ------- -- ---- --- --<br>------- ------,219502,219492,219052.42,219053,219052.68,219502.82,,6,secured
screen,html.Screen,2_1_1_1_7,2022-02-21T10:58:36.955Z,,,,,,,,,,,,,,,,,54,,,,,,,,,,,,,,240.17999999999302,,response,,,,100,,,,,,,Space,keypress(Space),,,,,,,,-- --- ---- --- ------ ----- ------- much -- --- ------- --<br>------- ---------- ------ -- ----- -- ----- -- ---- ------<br>--- ----- --- --- ------ -------- ----- --- ------ ----- --<br>----- ----- ---------- --- --- ------ ------ ---- -- ------<br>------- --- ------ ----- --- ---- ------- -- ---- --- --<br>------- ------,219752,219743,219502.6,219502,219502.82,219752.48,,7,much
screen,html.Screen,2_1_1_1_8,2022-02-21T10:58:37.280Z,,,,,,,,,,,,,,,,,54,,,,,,,,,,,,,,318.5199999999895,,response,,,,100,,,,,,,Space,keypress(Space),,,,,,,,-- --- ---- --- ------ ----- ------- ---- of --- ------- --<br>------- ---------- ------ -- ----- -- ----- -- ---- ------<br>--- ----- --- --- ------ -------- ----- --- ------ ----- --<br>----- ----- ---------- --- --- ------ ------ ---- -- ------<br>------- --- ------ ----- --- ---- ------- -- ---- --- --<br>------- ------,220078,220071,219752.34,219753,219752.48,220078.08,,8,of
screen,html.Screen,2_1_1_1_9,2022-02-21T10:58:37.555Z,,,,,,,,,,,,,,,,,54,,,,,,,,,,,,,,258.9200000000128,,response,,,,100,,,,,,,Space,keypress(Space),,,,,,,,-- --- ---- --- ------ ----- ------- ---- -- its ------- --<br>------- ---------- ------ -- ----- -- ----- -- ---- ------<br>--- ----- --- --- ------ -------- ----- --- ------ ----- --<br>----- ----- ---------- --- --- ------ ------ ---- -- ------<br>------- --- ------ ----- --- ---- ------- -- ---- --- --<br>------- ------,220352,220337,220077.84,220078,220078.08,220352.52,,9,its
screen,html.Screen,2_1_1_1_10,2022-02-21T10:58:38.055Z,,,,,,,,,,,,,,,,,54,,,,,,,,,,,,,,484.4800000000105,,response,,,,100,,,,,,,Space,keypress(Space),,,,,,,,-- --- ---- --- ------ ----- ------- ---- -- --- revenue --<br>------- ---------- ------ -- ----- -- ----- -- ---- ------<br>--- ----- --- --- ------ -------- ----- --- ------ ----- --<br>----- ----- ---------- --- --- ------ ------ ---- -- ------<br>------- --- ------ ----- --- ---- ------- -- ---- --- --<br>------- ------,220853,220837,220352.26,220352,220352.52,220852.9,,10,revenue
screen,html.Screen,2_1_1_1_11,2022-02-21T10:58:38.155Z,,,,,,,,,,,,,,,,,54,,,,,,,,,,,,,,92.10000000000582,,response,,,,100,,,,,,,Space,keypress(Space),,,,,,,,-- --- ---- --- ------ ----- ------- ---- -- --- ------- by<br>------- ---------- ------ -- ----- -- ----- -- ---- ------<br>--- ----- --- --- ------ -------- ----- --- ------ ----- --<br>----- ----- ---------- --- --- ------ ------ ---- -- ------<br>------- --- ------ ----- --- ---- ------- -- ---- --- --<br>------- ------,220952,220945,220852.76,220853,220852.9,220961.12,,11,by
screen,html.Screen,2_1_1_1_12,2022-02-21T10:58:38.730Z,,,,,,,,,,,,,,,,,54,,,,,,,,,,,,,,562.8800000000047,,response,,,,100,,,,,,,Space,keypress(Space),,,,,,,,-- --- ---- --- ------ ----- ------- ---- -- --- ------- --<br>issuing ---------- ------ -- ----- -- ----- -- ---- ------<br>--- ----- --- --- ------ -------- ----- --- ------ ----- --<br>----- ----- ---------- --- --- ------ ------ ---- -- ------<br>------- --- ------ ----- --- ---- ------- -- ---- --- --<br>------- ------,221527,221524,220952.5,220952,220961.12,221527.88,,12,issuing
screen,html.Screen,2_1_1_1_13,2022-02-21T10:58:39.105Z,,,,,,,,,,,,,,,,,54,,,,,,,,,,,,,,371.11999999999534,,response,,,,100,,,,,,,Space,keypress(Space),,,,,,,,-- --- ---- --- ------ ----- ------- ---- -- --- ------- --<br>------- government ------ -- ----- -- ----- -- ---- ------<br>--- ----- --- --- ------ -------- ----- --- ------ ----- --<br>----- ----- ---------- --- --- ------ ------ ---- -- ------<br>------- --- ------ ----- --- ---- ------- -- ---- --- --<br>------- ------,221903,221899,221527.56,221527,221527.88,221902.86,,13,government
screen,html.Screen,2_1_1_1_14,2022-02-21T10:58:39.479Z,,,,,,,,,,,,,,,,,54,,,,,,,,,,,,,,370.14000000001397,,response,,,,100,,,,,,,Space,keypress(Space),,,,,,,,-- --- ---- --- ------ ----- ------- ---- -- --- ------- --<br>------- ---------- bonds. -- ----- -- ----- -- ---- ------<br>--- ----- --- --- ------ -------- ----- --- ------ ----- --<br>----- ----- ---------- --- --- ------ ------ ---- -- ------<br>------- --- ------ ----- --- ---- ------- -- ---- --- --<br>------- ------,222277,222273,221902.48,221903,221902.86,222277.48,,14,bonds.
screen,html.Screen,2_1_1_1_15,2022-02-21T10:58:40.154Z,,,,,,,,,,,,,,,,,54,,,,,,,,,,,,,,667.5199999999895,,response,,,,100,,,,,,,Space,keypress(Space),,,,,,,,-- --- ---- --- ------ ----- ------- ---- -- --- ------- --<br>------- ---------- ------ In ----- -- ----- -- ---- ------<br>--- ----- --- --- ------ -------- ----- --- ------ ----- --<br>----- ----- ---------- --- --- ------ ------ ---- -- ------<br>------- --- ------ ----- --- ---- ------- -- ---- --- --<br>------- ------,222953,222945,222277.22,222278,222277.48,222952.66,,15,In
screen,html.Screen,2_1_1_1_16,2022-02-21T10:58:40.655Z,,,,,,,,,,,,,,,,,54,,,,,,,,,,,,,,492.3399999999965,,response,,,,100,,,,,,,Space,keypress(Space),,,,,,,,"-- --- ---- --- ------ ----- ------- ---- -- --- ------- --<br>------- ---------- ------ -- 1727, -- ----- -- ---- ------<br>--- ----- --- --- ------ -------- ----- --- ------ ----- --<br>----- ----- ---------- --- --- ------ ------ ---- -- ------<br>------- --- ------ ----- --- ---- ------- -- ---- --- --<br>------- ------",223452,223445,222952.52,222953,222952.66,223452.52,,16,"1727,"
screen,html.Screen,2_1_1_1_17,2022-02-21T10:58:41.205Z,,,,,,,,,,,,,,,,,54,,,,,,,,,,,,,,539.4800000000105,,response,,,,100,,,,,,,Space,keypress(Space),,,,,,,,-- --- ---- --- ------ ----- ------- ---- -- --- ------- --<br>------- ---------- ------ -- ----- in ----- -- ---- ------<br>--- ----- --- --- ------ -------- ----- --- ------ ----- --<br>----- ----- ---------- --- --- ------ ------ ---- -- ------<br>------- --- ------ ----- --- ---- ------- -- ---- --- --<br>------- ------,224002,223992,223452.4,223452,223452.52,224002.96,,17,in
screen,html.Screen,2_1_1_1_18,2022-02-21T10:58:42.305Z,,,,,,,,,,,,,,,,,54,,,,,,,,,,,,,,1084.0400000000081,,response,,,,100,,,,,,,Space,keypress(Space),,,,,,,,-- --- ---- --- ------ ----- ------- ---- -- --- ------- --<br>------- ---------- ------ -- ----- -- order -- ---- ------<br>--- ----- --- --- ------ -------- ----- --- ------ ----- --<br>----- ----- ---------- --- --- ------ ------ ---- -- ------<br>------- --- ------ ----- --- ---- ------- -- ---- --- --<br>------- ------,225102,225087,224002.78,224002,224002.96,225102.86,,18,order
screen,html.Screen,2_1_1_1_19,2022-02-21T10:58:42.704Z,,,,,,,,,,,,,,,,,54,,,,,,,,,,,,,,389.14000000001397,,response,,,,100,,,,,,,Space,keypress(Space),,,,,,,,-- --- ---- --- ------ ----- ------- ---- -- --- ------- --<br>------- ---------- ------ -- ----- -- ----- to ---- ------<br>--- ----- --- --- ------ -------- ----- --- ------ ----- --<br>----- ----- ---------- --- --- ------ ------ ---- -- ------<br>------- --- ------ ----- --- ---- ------- -- ---- --- --<br>------- ------,225502,225492,225102.68,225102,225102.86,225502.74,,19,to
screen,html.Screen,2_1_1_1_20,2022-02-21T10:58:43.030Z,,,,,,,,,,,,,,,,,54,,,,,,,,,,,,,,317.2600000000093,,response,,,,100,,,,,,,Space,keypress(Space),,,,,,,,-- --- ---- --- ------ ----- ------- ---- -- --- ------- --<br>------- ---------- ------ -- ----- -- ----- -- save ------<br>--- ----- --- --- ------ -------- ----- --- ------ ----- --<br>----- ----- ---------- --- --- ------ ------ ---- -- ------<br>------- --- ------ ----- --- ---- ------- -- ---- --- --<br>------- ------,225827,225820,225502.56,225502,225502.74,225827.76,,20,save
screen,html.Screen,2_1_1_1_21,2022-02-21T10:58:43.355Z,,,,,,,,,,,,,,,,,54,,,,,,,,,,,,,,320.2399999999907,,response,,,,100,,,,,,,Space,keypress(Space),,,,,,,,"-- --- ---- --- ------ ----- ------- ---- -- --- ------- --<br>------- ---------- ------ -- ----- -- ----- -- ---- money,<br>--- ----- --- --- ------ -------- ----- --- ------ ----- --<br>----- ----- ---------- --- --- ------ ------ ---- -- ------<br>------- --- ------ ----- --- ---- ------- -- ---- --- --<br>------- ------",226153,226148,225827.52,225827,225827.76,226152.7,,21,"money,"
screen,html.Screen,2_1_1_1_22,2022-02-21T10:58:43.830Z,,,,,,,,,,,,,,,,,54,,,,,,,,,,,,,,464.29999999998836,,response,,,,100,,,,,,,Space,keypress(Space),,,,,,,,-- --- ---- --- ------ ----- ------- ---- -- --- ------- --<br>------- ---------- ------ -- ----- -- ----- -- ---- ------<br>the ----- --- --- ------ -------- ----- --- ------ ----- --<br>----- ----- ---------- --- --- ------ ------ ---- -- ------<br>------- --- ------ ----- --- ---- ------- -- ---- --- --<br>------- ------,226627,226617,226152.52,226153,226152.7,226627.98,,22,the
screen,html.Screen,2_1_1_1_23,2022-02-21T10:58:44.105Z,,,,,,,,,,,,,,,,,54,,,,,,,,,,,,,,271.0199999999895,,response,,,,100,,,,,,,Space,keypress(Space),,,,,,,,-- --- ---- --- ------ ----- ------- ---- -- --- ------- --<br>------- ---------- ------ -- ----- -- ----- -- ---- ------<br>--- state --- --- ------ -------- ----- --- ------ ----- --<br>----- ----- ---------- --- --- ------ ------ ---- -- ------<br>------- --- ------ ----- --- ---- ------- -- ---- --- --<br>------- ------,226902,226899,226627.72,226628,226627.98,226902.86,,23,state
screen,html.Screen,2_1_1_1_24,2022-02-21T10:58:44.330Z,,,,,,,,,,,,,,,,,54,,,,,,,,,,,,,,215.14000000001397,,response,,,,100,,,,,,,Space,keypress(Space),,,,,,,,-- --- ---- --- ------ ----- ------- ---- -- --- ------- --<br>------- ---------- ------ -- ----- -- ----- -- ---- ------<br>--- ----- cut --- ------ -------- ----- --- ------ ----- --<br>----- ----- ---------- --- --- ------ ------ ---- -- ------<br>------- --- ------ ----- --- ---- ------- -- ---- --- --<br>------- ------,227127,227118,226902.72,226902,226902.86,227127.48,,24,cut
screen,html.Screen,2_1_1_1_25,2022-02-21T10:58:44.680Z,,,,,,,,,,,,,,,,,54,,,,,,,,,,,,,,333.5199999999895,,response,,,,100,,,,,,,Space,keypress(Space),,,,,,,,-- --- ---- --- ------ ----- ------- ---- -- --- ------- --<br>------- ---------- ------ -- ----- -- ----- -- ---- ------<br>--- ----- --- the ------ -------- ----- --- ------ ----- --<br>----- ----- ---------- --- --- ------ ------ ---- -- ------<br>------- --- ------ ----- --- ---- ------- -- ---- --- --<br>------- ------,227477,227461,227127.26,227128,227127.48,227477.62,,25,the
screen,html.Screen,2_1_1_1_26,2022-02-21T10:58:44.980Z,,,,,,,,,,,,,,,,,54,,,,,,,,,,,,,,295.38000000000466,,response,,,,100,,,,,,,Space,keypress(Space),,,,,,,,-- --- ---- --- ------ ----- ------- ---- -- --- ------- --<br>------- ---------- ------ -- ----- -- ----- -- ---- ------<br>--- ----- --- --- bonds' -------- ----- --- ------ ----- --<br>----- ----- ---------- --- --- ------ ------ ---- -- ------<br>------- --- ------ ----- --- ---- ------- -- ---- --- --<br>------- ------,227777,227773,227477.42,227477,227477.62,227777.68,,26,bonds'
screen,html.Screen,2_1_1_1_27,2022-02-21T10:58:45.405Z,,,,,,,,,,,,,,,,,54,,,,,,,,,,,,,,418.320000000007,,response,,,,100,,,,,,,Space,keypress(Space),,,,,,,,-- --- ---- --- ------ ----- ------- ---- -- --- ------- --<br>------- ---------- ------ -- ----- -- ----- -- ---- ------<br>--- ----- --- --- ------ interest ----- --- ------ ----- --<br>----- ----- ---------- --- --- ------ ------ ---- -- ------<br>------- --- ------ ----- --- ---- ------- -- ---- --- --<br>------- ------,228202,228196,227777.46,227777,227777.68,228202.68,,27,interest
screen,html.Screen,2_1_1_1_28,2022-02-21T10:58:45.754Z,,,,,,,,,,,,,,,,,54,,,,,,,,,,,,,,337.320000000007,,response,,,,100,,,,,,,Space,keypress(Space),,,,,,,,-- --- ---- --- ------ ----- ------- ---- -- --- ------- --<br>------- ---------- ------ -- ----- -- ----- -- ---- ------<br>--- ----- --- --- ------ -------- rate. --- ------ ----- --<br>----- ----- ---------- --- --- ------ ------ ---- -- ------<br>------- --- ------ ----- --- ---- ------- -- ---- --- --<br>------- ------,228552,228540,228202.46,228202,228202.68,228552.42,,28,rate.
screen,html.Screen,2_1_1_1_29,2022-02-21T10:58:46.204Z,,,,,,,,,,,,,,,,,54,,,,,,,,,,,,,,440.5799999999872,,response,,,,100,,,,,,,Space,keypress(Space),,,,,,,,-- --- ---- --- ------ ----- ------- ---- -- --- ------- --<br>------- ---------- ------ -- ----- -- ----- -- ---- ------<br>--- ----- --- --- ------ -------- ----- The ------ ----- --<br>----- ----- ---------- --- --- ------ ------ ---- -- ------<br>------- --- ------ ----- --- ---- ------- -- ---- --- --<br>------- ------,229002,228993,228552.24,228552,228552.42,229002.5,,29,The
screen,html.Screen,2_1_1_1_30,2022-02-21T10:58:46.630Z,,,,,,,,,,,,,,,,,54,,,,,,,,,,,,,,411.5,,response,,,,100,,,,,,,Space,keypress(Space),,,,,,,,-- --- ---- --- ------ ----- ------- ---- -- --- ------- --<br>------- ---------- ------ -- ----- -- ----- -- ---- ------<br>--- ----- --- --- ------ -------- ----- --- market ----- --<br>----- ----- ---------- --- --- ------ ------ ---- -- ------<br>------- --- ------ ----- --- ---- ------- -- ---- --- --<br>------- ------,229427,229414,229002.36,229003,229002.5,229427.78,,30,market
screen,html.Screen,2_1_1_1_31,2022-02-21T10:58:46.904Z,,,,,,,,,,,,,,,,,54,,,,,,,,,,,,,,268.22000000000116,,response,,,,100,,,,,,,Space,keypress(Space),,,,,,,,-- --- ---- --- ------ ----- ------- ---- -- --- ------- --<br>------- ---------- ------ -- ----- -- ----- -- ---- ------<br>--- ----- --- --- ------ -------- ----- --- ------ value --<br>----- ----- ---------- --- --- ------ ------ ---- -- ------<br>------- --- ------ ----- --- ---- ------- -- ---- --- --<br>------- ------,229702,229696,229427.64,229427,229427.78,229702.34,,31,value
screen,html.Screen,2_1_1_1_32,2022-02-21T10:58:47.205Z,,,,,,,,,,,,,,,,,54,,,,,,,,,,,,,,290.6600000000035,,response,,,,100,,,,,,,Space,keypress(Space),,,,,,,,-- --- ---- --- ------ ----- ------- ---- -- --- ------- --<br>------- ---------- ------ -- ----- -- ----- -- ---- ------<br>--- ----- --- --- ------ -------- ----- --- ------ ----- of<br>----- ----- ---------- --- --- ------ ------ ---- -- ------<br>------- --- ------ ----- --- ---- ------- -- ---- --- --<br>------- ------,230003,229993,229702.14,229702,229702.34,230002.72,,32,of
screen,html.Screen,2_1_1_1_33,2022-02-21T10:58:47.504Z,,,,,,,,,,,,,,,,,54,,,,,,,,,,,,,,287.27999999999884,,response,,,,100,,,,,,,Space,keypress(Space),,,,,,,,-- --- ---- --- ------ ----- ------- ---- -- --- ------- --<br>------- ---------- ------ -- ----- -- ----- -- ---- ------<br>--- ----- --- --- ------ -------- ----- --- ------ ----- --<br>these ----- ---------- --- --- ------ ------ ---- -- ------<br>------- --- ------ ----- --- ---- ------- -- ---- --- --<br>------- ------,230302,230290,230002.54,230003,230002.72,230311.74,,33,these
screen,html.Screen,2_1_1_1_34,2022-02-21T10:58:47.854Z,,,,,,,,,,,,,,,,,54,,,,,,,,,,,,,,337.2600000000093,,response,,,,100,,,,,,,Space,keypress(Space),,,,,,,,-- --- ---- --- ------ ----- ------- ---- -- --- ------- --<br>------- ---------- ------ -- ----- -- ----- -- ---- ------<br>--- ----- --- --- ------ -------- ----- --- ------ ----- --<br>----- bonds ---------- --- --- ------ ------ ---- -- ------<br>------- --- ------ ----- --- ---- ------- -- ---- --- --<br>------- ------,230652,230649,230302.3,230302,230311.74,230652.46,,34,bonds
screen,html.Screen,2_1_1_1_35,2022-02-21T10:58:48.130Z,,,,,,,,,,,,,,,,,54,,,,,,,,,,,,,,261.54000000000815,,response,,,,100,,,,,,,Space,keypress(Space),,,,,,,,"-- --- ---- --- ------ ----- ------- ---- -- --- ------- --<br>------- ---------- ------ -- ----- -- ----- -- ---- ------<br>--- ----- --- --- ------ -------- ----- --- ------ ----- --<br>----- ----- plummeted, --- --- ------ ------ ---- -- ------<br>------- --- ------ ----- --- ---- ------- -- ---- --- --<br>------- ------",230927,230914,230652.32,230652,230652.46,230927.8,,35,"plummeted,"
screen,html.Screen,2_1_1_1_36,2022-02-21T10:58:48.730Z,,,,,,,,,,,,,,,,,54,,,,,,,,,,,,,,595.2000000000116,,response,,,,100,,,,,,,Space,keypress(Space),,,,,,,,-- --- ---- --- ------ ----- ------- ---- -- --- ------- --<br>------- ---------- ------ -- ----- -- ----- -- ---- ------<br>--- ----- --- --- ------ -------- ----- --- ------ ----- --<br>----- ----- ---------- and --- ------ ------ ---- -- ------<br>------- --- ------ ----- --- ---- ------- -- ---- --- --<br>------- ------,231527,231523,230927.5,230927,230927.8,231527.78,,36,and
screen,html.Screen,2_1_1_1_37,2022-02-21T10:58:49.080Z,,,,,,,,,,,,,,,,,54,,,,,,,,,,,,,,339.22000000000116,,response,,,,100,,,,,,,Space,keypress(Space),,,,,,,,-- --- ---- --- ------ ----- ------- ---- -- --- ------- --<br>------- ---------- ------ -- ----- -- ----- -- ---- ------<br>--- ----- --- --- ------ -------- ----- --- ------ ----- --<br>----- ----- ---------- --- the ------ ------ ---- -- ------<br>------- --- ------ ----- --- ---- ------- -- ---- --- --<br>------- ------,231877,231867,231527.6,231527,231527.78,231877.92,,37,the
screen,html.Screen,2_1_1_1_38,2022-02-21T10:58:49.380Z,,,,,,,,,,,,,,,,,54,,,,,,,,,,,,,,286.0799999999872,,response,,,,100,,,,,,,Space,keypress(Space),,,,,,,,-- --- ---- --- ------ ----- ------- ---- -- --- ------- --<br>------- ---------- ------ -- ----- -- ----- -- ---- ------<br>--- ----- --- --- ------ -------- ----- --- ------ ----- --<br>----- ----- ---------- --- --- market ------ ---- -- ------<br>------- --- ------ ----- --- ---- ------- -- ---- --- --<br>------- ------,232178,232164,231877.72,231878,231877.92,232177.74,,38,market
screen,html.Screen,2_1_1_1_39,2022-02-21T10:58:50.680Z,,,,,,,,,,,,,,,,,54,,,,,,,,,,,,,,1284.2600000000093,,response,,,,100,,,,,,,Space,keypress(Space),,,,,,,,-- --- ---- --- ------ ----- ------- ---- -- --- ------- --<br>------- ---------- ------ -- ----- -- ----- -- ---- ------<br>--- ----- --- --- ------ -------- ----- --- ------ ----- --<br>----- ----- ---------- --- --- ------ became ---- -- ------<br>------- --- ------ ----- --- ---- ------- -- ---- --- --<br>------- ------,233478,233462,232177.56,232178,232177.74,233477.56,,39,became
screen,html.Screen,2_1_1_1_40,2022-02-21T10:58:50.955Z,,,,,,,,,,,,,,,,,54,,,,,,,,,,,,,,265.4400000000023,,response,,,,100,,,,,,,Space,keypress(Space),,,,,,,,-- --- ---- --- ------ ----- ------- ---- -- --- ------- --<br>------- ---------- ------ -- ----- -- ----- -- ---- ------<br>--- ----- --- --- ------ -------- ----- --- ------ ----- --<br>----- ----- ---------- --- --- ------ ------ wary -- ------<br>------- --- ------ ----- --- ---- ------- -- ---- --- --<br>------- ------,233752,233743,233477.4,233478,233477.56,233752.64,,40,wary
screen,html.Screen,2_1_1_1_41,2022-02-21T10:58:51.330Z,,,,,,,,,,,,,,,,,54,,,,,,,,,,,,,,365.35999999998603,,response,,,,100,,,,,,,Space,keypress(Space),,,,,,,,-- --- ---- --- ------ ----- ------- ---- -- --- ------- --<br>------- ---------- ------ -- ----- -- ----- -- ---- ------<br>--- ----- --- --- ------ -------- ----- --- ------ ----- --<br>----- ----- ---------- --- --- ------ ------ ---- of ------<br>------- --- ------ ----- --- ---- ------- -- ---- --- --<br>------- ------,234128,234118,233752.4,233753,233752.64,234127.98,,41,of
screen,html.Screen,2_1_1_1_42,2022-02-21T10:58:51.505Z,,,,,,,,,,,,,,,,,54,,,,,,,,,,,,,,162.01999999998952,,response,,,,100,,,,,,,Space,keypress(Space),,,,,,,,-- --- ---- --- ------ ----- ------- ---- -- --- ------- --<br>------- ---------- ------ -- ----- -- ----- -- ---- ------<br>--- ----- --- --- ------ -------- ----- --- ------ ----- --<br>----- ----- ---------- --- --- ------ ------ ---- -- French<br>------- --- ------ ----- --- ---- ------- -- ---- --- --<br>------- ------,234303,234290,234127.78,234128,234127.98,234311.84,,42,French
screen,html.Screen,2_1_1_1_43,2022-02-21T10:58:51.830Z,,,,,,,,,,,,,,,,,54,,,,,,,,,,,,,,306.1600000000035,,response,,,,100,,,,,,,Space,keypress(Space),,,,,,,,-- --- ---- --- ------ ----- ------- ---- -- --- ------- --<br>------- ---------- ------ -- ----- -- ----- -- ---- ------<br>--- ----- --- --- ------ -------- ----- --- ------ ----- --<br>----- ----- ---------- --- --- ------ ------ ---- -- ------<br>credit. --- ------ ----- --- ---- ------- -- ---- --- --<br>------- ------,234628,234618,234302.44,234303,234311.84,234627.86,,43,credit.
screen,html.Screen,2_1_1_1_44,2022-02-21T10:58:52.230Z,,,,,,,,,,,,,,,,,54,,,,,,,,,,,,,,395.14000000001397,,response,,,,100,,,,,,,Space,keypress(Space),,,,,,,,-- --- ---- --- ------ ----- ------- ---- -- --- ------- --<br>------- ---------- ------ -- ----- -- ----- -- ---- ------<br>--- ----- --- --- ------ -------- ----- --- ------ ----- --<br>----- ----- ---------- --- --- ------ ------ ---- -- ------<br>------- The ------ ----- --- ---- ------- -- ---- --- --<br>------- ------,235027,235023,234627.64,234628,234627.86,235028,,44,The
screen,html.Screen,2_1_1_1_45,2022-02-21T10:58:52.605Z,,,,,,,,,,,,,,,,,54,,,,,,,,,,,,,,371,,response,,,,100,,,,,,,Space,keypress(Space),,,,,,,,-- --- ---- --- ------ ----- ------- ---- -- --- ------- --<br>------- ---------- ------ -- ----- -- ----- -- ---- ------<br>--- ----- --- --- ------ -------- ----- --- ------ ----- --<br>----- ----- ---------- --- --- ------ ------ ---- -- ------<br>------- --- French ----- --- ---- ------- -- ---- --- --<br>------- ------,235403,235399,235027.72,235027,235028,235402.62,,45,French
screen,html.Screen,2_1_1_1_46,2022-02-21T10:58:52.830Z,,,,,,,,,,,,,,,,,54,,,,,,,,,,,,,,214.38000000000466,,response,,,,100,,,,,,,Space,keypress(Space),,,,,,,,-- --- ---- --- ------ ----- ------- ---- -- --- ------- --<br>------- ---------- ------ -- ----- -- ----- -- ---- ------<br>--- ----- --- --- ------ -------- ----- --- ------ ----- --<br>----- ----- ---------- --- --- ------ ------ ---- -- ------<br>------- --- ------ state --- ---- ------- -- ---- --- --<br>------- ------,235627,235617,235402.5,235403,235402.62,235627.9,,46,state
screen,html.Screen,2_1_1_1_47,2022-02-21T10:58:53.154Z,,,,,,,,,,,,,,,,,54,,,,,,,,,,,,,,317.1000000000058,,response,,,,100,,,,,,,Space,keypress(Space),,,,,,,,-- --- ---- --- ------ ----- ------- ---- -- --- ------- --<br>------- ---------- ------ -- ----- -- ----- -- ---- ------<br>--- ----- --- --- ------ -------- ----- --- ------ ----- --<br>----- ----- ---------- --- --- ------ ------ ---- -- ------<br>------- --- ------ ----- was ---- ------- -- ---- --- --<br>------- ------,235952,235945,235627.76,235627,235627.9,235952.68,,47,was
screen,html.Screen,2_1_1_1_48,2022-02-21T10:58:53.429Z,,,,,,,,,,,,,,,,,54,,,,,,,,,,,,,,259.320000000007,,response,,,,100,,,,,,,Space,keypress(Space),,,,,,,,-- --- ---- --- ------ ----- ------- ---- -- --- ------- --<br>------- ---------- ------ -- ----- -- ----- -- ---- ------<br>--- ----- --- --- ------ -------- ----- --- ------ ----- --<br>----- ----- ---------- --- --- ------ ------ ---- -- ------<br>------- --- ------ ----- --- left ------- -- ---- --- --<br>------- ------,236227,236212,235952.5,235952,235952.68,236227.74,,48,left
screen,html.Screen,2_1_1_1_49,2022-02-21T10:58:53.754Z,,,,,,,,,,,,,,,,,54,,,,,,,,,,,,,,312.2600000000093,,response,,,,100,,,,,,,Space,keypress(Space),,,,,,,,-- --- ---- --- ------ ----- ------- ---- -- --- ------- --<br>------- ---------- ------ -- ----- -- ----- -- ---- ------<br>--- ----- --- --- ------ -------- ----- --- ------ ----- --<br>----- ----- ---------- --- --- ------ ------ ---- -- ------<br>------- --- ------ ----- --- ---- without -- ---- --- --<br>------- ------,236552,236540,236227.44,236227,236227.74,236552.46,,49,without
screen,html.Screen,2_1_1_1_50,2022-02-21T10:58:54.079Z,,,,,,,,,,,,,,,,,54,,,,,,,,,,,,,,315.54000000000815,,response,,,,100,,,,,,,Space,keypress(Space),,,,,,,,-- --- ---- --- ------ ----- ------- ---- -- --- ------- --<br>------- ---------- ------ -- ----- -- ----- -- ---- ------<br>--- ----- --- --- ------ -------- ----- --- ------ ----- --<br>----- ----- ---------- --- --- ------ ------ ---- -- ------<br>------- --- ------ ----- --- ---- ------- an ---- --- --<br>------- ------,236878,236868,236552.32,236553,236552.46,236877.82,,50,an
screen,html.Screen,2_1_1_1_51,2022-02-21T10:58:54.405Z,,,,,,,,,,,,,,,,,54,,,,,,,,,,,,,,318.179999999993,,response,,,,100,,,,,,,Space,keypress(Space),,,,,,,,-- --- ---- --- ------ ----- ------- ---- -- --- ------- --<br>------- ---------- ------ -- ----- -- ----- -- ---- ------<br>--- ----- --- --- ------ -------- ----- --- ------ ----- --<br>----- ----- ---------- --- --- ------ ------ ---- -- ------<br>------- --- ------ ----- --- ---- ------- -- easy --- --<br>------- ------,237202,237196,236877.5,236878,236877.82,237202.54,,51,easy
screen,html.Screen,2_1_1_1_52,2022-02-21T10:58:54.655Z,,,,,,,,,,,,,,,,,54,,,,,,,,,,,,,,242.45999999999185,,response,,,,100,,,,,,,Space,keypress(Space),,,,,,,,-- --- ---- --- ------ ----- ------- ---- -- --- ------- --<br>------- ---------- ------ -- ----- -- ----- -- ---- ------<br>--- ----- --- --- ------ -------- ----- --- ------ ----- --<br>----- ----- ---------- --- --- ------ ------ ---- -- ------<br>------- --- ------ ----- --- ---- ------- -- ---- way --<br>------- ------,237452,237445,237202.4,237202,237202.54,237452.6,,52,way
screen,html.Screen,2_1_1_1_53,2022-02-21T10:58:55.004Z,,,,,,,,,,,,,,,,,54,,,,,,,,,,,,,,336.3999999999942,,response,,,,100,,,,,,,Space,keypress(Space),,,,,,,,-- --- ---- --- ------ ----- ------- ---- -- --- ------- --<br>------- ---------- ------ -- ----- -- ----- -- ---- ------<br>--- ----- --- --- ------ -------- ----- --- ------ ----- --<br>----- ----- ---------- --- --- ------ ------ ---- -- ------<br>------- --- ------ ----- --- ---- ------- -- ---- --- of<br>------- ------,237802,237789,237452.4,237452,237452.6,237802.5,,53,of
screen,html.Screen,2_1_1_1_54,2022-02-21T10:58:55.330Z,,,,,,,,,,,,,,,,,54,,,,,,,,,,,,,,314.5,,response,,,,100,,,,,,,Space,keypress(Space),,,,,,,,-- --- ---- --- ------ ----- ------- ---- -- --- ------- --<br>------- ---------- ------ -- ----- -- ----- -- ---- ------<br>--- ----- --- --- ------ -------- ----- --- ------ ----- --<br>----- ----- ---------- --- --- ------ ------ ---- -- ------<br>------- --- ------ ----- --- ---- ------- -- ---- --- --<br>raising ------,238127,238117,237802.36,237802,237802.5,238128,,54,raising
screen,html.Screen,2_1_1_1_55,2022-02-21T10:58:55.780Z,,,,,,,,,,,,,,,,,54,,,,,,,,,,,,,,443,,response,,,,100,,,,,,,Space,keypress(Space),,,,,,,,-- --- ---- --- ------ ----- ------- ---- -- --- ------- --<br>------- ---------- ------ -- ----- -- ----- -- ---- ------<br>--- ----- --- --- ------ -------- ----- --- ------ ----- --<br>----- ----- ---------- --- --- ------ ------ ---- -- ------<br>------- --- ------ ----- --- ---- ------- -- ---- --- --<br>------- money.,238578,238571,238127.68,238127,238128,238577.98,,55,money.
Item 100,flow.Loop,2_1_1_1,2022-02-21T10:58:55.780Z,,,,,,,,,,,,,,,,,,,,,,,,,,,,,,,21760.079999999987,,completion,,,,,B,,,,,,,,,,,silence,,,,,238578,238571,216794.26,216795,216810.92,238577.98,,,
Question 1,html.Screen,2_1_1_2,2022-02-21T10:58:58.365Z,,,,,,,,,,,,,,,,,,,,,,,,,,,,true,TRUE,,2570.0199999999895,,response,,,,100,B,,,,,,TRUE,click #choice-1,,,,silence,,,,,241162,241148,238577.78,238578,238577.98,241178.88,,,
Question 2,html.Screen,2_1_1_3,2022-02-21T10:59:02.227Z,,,,,,,,,,,,,,,,,,,,,,,,,,,,true,FALSE,,3830.1199999999953,,response,,,,100,B,,,,,,FALSE,click #choice-2,,,,silence,,,,,245024,245009,241161.88,241162,241178.88,245029.08,,,
Item 100,flow.Sequence,2_1_1,2022-02-21T10:59:02.227Z,,,,,,,,,,,,,,,,,,,,,,,,,,,,,,,38198.619999999995,,completion,,,,,,,,,,,,,,,,,,,,,245024,245009,206795.66,206797,206810.38,245029.08,,,
End of Practice,html.Page,2_1_2,2022-02-21T10:59:06.503Z,,,,,,,,,,,,,,,,,,,,,,,,,,,,,,,4270.920000000013,,form submission,,,,,,,,,,,,,,,,,,,,,249301,249300,245023.68,245024,245029.08,249312.66,,,
Practice,flow.Sequence,2_1,2022-02-21T10:59:06.503Z,,,,,,,,,,,,,,,,,,,,,,,,,,,,,,,87708.70000000001,,completion,,,,,,,,,,,,,,,,,,,,,249301,249300,161581.56,161585,161591.3,249312.66,,,
Trap_instruction,html.Page,2_2_0,2022-02-21T10:59:12.111Z,,,,,,,,,,,,,,,,,,,,,,,,,,,,,,,5595.3399999999965,,form submission,,,,,,,,,,,,,,,,,,,,,254908,254908,249299.08,249301,249312.66,254912.96,,,
trap_trial,html.Screen,2_2_1,2022-02-21T10:59:15.667Z,,,,,,,,,,,,,,,,,,,,,,,,,,,,true,1,,3548.040000000008,,response,,,,,,,,,,,1,click #choice-1,,,,,,,,,258465,258461,254906.78,254908,254912.96,258479.96,,,
end of trap trial,html.Page,2_2_2,2022-02-21T10:59:19.664Z,,,,,,,,,,,,,,,,,,,,,,,,,,,,,,,3981.040000000008,,form submission,,,,,,,,,,,,,,,,,,,,,262461,262461,258464.22,258465,258479.96,262463.36,,,
Trap 1,flow.Sequence,2_2,2022-02-21T10:59:19.664Z,,,,,,,,,,,,,,,,,,,,,,,,,,,,,,,13148.339999999997,,completion,,,,,,,,,,,,,,,,,,,,,262461,262461,249299.08,249301,249312.66,262463.36,,,
Standby,html.Page,2_3_0,2022-02-21T10:59:27.650Z,,,,,,,,,,,,,,,,,,,,,,,,,,,,,,,8000.400000000023,,timeout,,,,,,,,,,,,,,,,,,,,,270447,270447.08,262459.02,262461,262463.36,270463.76,,,
Holding screen,html.Screen,2_3_1_0_0,2022-02-21T10:59:34.650Z,,,,,,,,,,,,,,,,,,,,,,,,,,,,,,,7000.359999999986,,timeout,,,,,,,,,,,,,,,,,,,,,277448,277447.46,270447.08,270448,270463.76,277464.12,,,
screen,html.Screen,2_3_1_0_1_0,2022-02-21T10:59:37.206Z,,,,,,,,,,,,,,,,,11,,,,,,,,,,,,,,2528.8800000000047,,response,,,,4,B,,,,,,Space,keypress(Space),,,,lyrical,,,,Known -- ---- --- -- --- -------- ------------ ---------- --<br>- ------- ------ --------- -- ------------ -- --- ---- -----<br>------ ---- ---- ------ ------ ------- --- ----- ---------<br>---- --- -------- -------- --- --- -- ------- --- --- -----<br>-- --- ------ ------- --- --- -------- ---- --------- --<br>---------- -- -------- ----------------,280004,279993,277447.46,277448,277464.12,280003.82,,0,Known
screen,html.Screen,2_3_1_0_1_1,2022-02-21T10:59:38.107Z,,,,,,,,,,,,,,,,,11,,,,,,,,,,,,,,894.179999999993,,response,,,,4,B,,,,,,Space,keypress(Space),,,,lyrical,,,,----- as ---- --- -- --- -------- ------------ ---------- --<br>- ------- ------ --------- -- ------------ -- --- ---- -----<br>------ ---- ---- ------ ------ ------- --- ----- ---------<br>---- --- -------- -------- --- --- -- ------- --- --- -----<br>-- --- ------ ------- --- --- -------- ---- --------- --<br>---------- -- -------- ----------------,280903,280898,280003.58,280004,280003.82,280904.04,,1,as
screen,html.Screen,2_3_1_0_1_2,2022-02-21T10:59:38.456Z,,,,,,,,,,,,,,,,,11,,,,,,,,,,,,,,337.96000000002095,,response,,,,4,B,,,,,,Space,keypress(Space),,,,lyrical,,,,----- -- Rapa --- -- --- -------- ------------ ---------- --<br>- ------- ------ --------- -- ------------ -- --- ---- -----<br>------ ---- ---- ------ ------ ------- --- ----- ---------<br>---- --- -------- -------- --- --- -- ------- --- --- -----<br>-- --- ------ ------- --- --- -------- ---- --------- --<br>---------- -- -------- ----------------,281254,281242,280903.88,280904,280904.04,281253.86,,2,Rapa
screen,html.Screen,2_3_1_0_1_3,2022-02-21T10:59:38.981Z,,,,,,,,,,,,,,,,,11,,,,,,,,,,,,,,520.140000000014,,response,,,,4,B,,,,,,Space,keypress(Space),,,,lyrical,,,,----- -- ---- Nui -- --- -------- ------------ ---------- --<br>- ------- ------ --------- -- ------------ -- --- ---- -----<br>------ ---- ---- ------ ------ ------- --- ----- ---------<br>---- --- -------- -------- --- --- -- ------- --- --- -----<br>-- --- ------ ------- --- --- -------- ---- --------- --<br>---------- -- -------- ----------------,281778,281774,281253.58,281254,281253.86,281778.88,,3,Nui
screen,html.Screen,2_3_1_0_1_4,2022-02-21T10:59:39.505Z,,,,,,,,,,,,,,,,,11,,,,,,,,,,,,,,511.11999999999534,,response,,,,4,B,,,,,,Space,keypress(Space),,,,lyrical,,,,----- -- ---- --- to --- -------- ------------ ---------- --<br>- ------- ------ --------- -- ------------ -- --- ---- -----<br>------ ---- ---- ------ ------ ------- --- ----- ---------<br>---- --- -------- -------- --- --- -- ------- --- --- -----<br>-- --- ------ ------- --- --- -------- ---- --------- --<br>---------- -- -------- ----------------,282304,282290,281778.74,281779,281778.88,282303.54,,4,to
screen,html.Screen,2_3_1_0_1_5,2022-02-21T10:59:39.956Z,,,,,,,,,,,,,,,,,11,,,,,,,,,,,,,,439.46000000002095,,response,,,,4,B,,,,,,Space,keypress(Space),,,,lyrical,,,,----- -- ---- --- -- the -------- ------------ ---------- --<br>- ------- ------ --------- -- ------------ -- --- ---- -----<br>------ ---- ---- ------ ------ ------- --- ----- ---------<br>---- --- -------- -------- --- --- -- ------- --- --- -----<br>-- --- ------ ------- --- --- -------- ---- --------- --<br>---------- -- -------- ----------------,282754,282743,282303.4,282304,282303.54,282753.86,,5,the
screen,html.Screen,2_3_1_0_1_6,2022-02-21T10:59:40.231Z,,,,,,,,,,,,,,,,,11,,,,,,,,,,,,,,269.14000000001397,,response,,,,4,B,,,,,,Space,keypress(Space),,,,lyrical,,,,----- -- ---- --- -- --- island's ------------ ---------- --<br>- ------- ------ --------- -- ------------ -- --- ---- -----<br>------ ---- ---- ------ ------ ------- --- ----- ---------<br>---- --- -------- -------- --- --- -- ------- --- --- -----<br>-- --- ------ ------- --- --- -------- ---- --------- --<br>---------- -- -------- ----------------,283028,283023,282753.58,282754,282753.86,283028.64,,6,island's
screen,html.Screen,2_3_1_0_1_7,2022-02-21T10:59:40.731Z,,,,,,,,,,,,,,,,,11,,,,,,,,,,,,,,495.35999999998603,,response,,,,4,B,,,,,,Space,keypress(Space),,,,lyrical,,,,"----- -- ---- --- -- --- -------- inhabitants, ---------- --<br>- ------- ------ --------- -- ------------ -- --- ---- -----<br>------ ---- ---- ------ ------ ------- --- ----- ---------<br>---- --- -------- -------- --- --- -- ------- --- --- -----<br>-- --- ------ ------- --- --- -------- ---- --------- --<br>---------- -- -------- ----------------",283529,283524,283028.4,283028,283028.64,283528.84,,7,"inhabitants,"
screen,html.Screen,2_3_1_0_1_8,2022-02-21T10:59:41.206Z,,,,,,,,,,,,,,,,,11,,,,,,,,,,,,,,463.1599999999744,,response,,,,4,B,,,,,,Space,keypress(Space),,,,lyrical,,,,----- -- ---- --- -- --- -------- ------------ Rongorongo --<br>- ------- ------ --------- -- ------------ -- --- ---- -----<br>------ ---- ---- ------ ------ ------- --- ----- ---------<br>---- --- -------- -------- --- --- -- ------- --- --- -----<br>-- --- ------ ------- --- --- -------- ---- --------- --<br>---------- -- -------- ----------------,284003,283992,283528.6,283529,283528.84,284003.94,,8,Rongorongo
screen,html.Screen,2_3_1_0_1_9,2022-02-21T10:59:42.231Z,,,,,,,,,,,,,,,,,11,,,,,,,,,,,,,,1020.0599999999977,,response,,,,4,B,,,,,,Space,keypress(Space),,,,lyrical,,,,----- -- ---- --- -- --- -------- ------------ ---------- is<br>- ------- ------ --------- -- ------------ -- --- ---- -----<br>------ ---- ---- ------ ------ ------- --- ----- ---------<br>---- --- -------- -------- --- --- -- ------- --- --- -----<br>-- --- ------ ------- --- --- -------- ---- --------- --<br>---------- -- -------- ----------------,285028,285024,284003.76,284003,284003.94,285028.74,,9,is
screen,html.Screen,2_3_1_0_1_10,2022-02-21T10:59:42.681Z,,,,,,,,,,,,,,,,,11,,,,,,,,,,,,,,448.2600000000093,,response,,,,4,B,,,,,,Space,keypress(Space),,,,lyrical,,,,----- -- ---- --- -- --- -------- ------------ ---------- --<br>a ------- ------ --------- -- ------------ -- --- ---- -----<br>------ ---- ---- ------ ------ ------- --- ----- ---------<br>---- --- -------- -------- --- --- -- ------- --- --- -----<br>-- --- ------ ------- --- --- -------- ---- --------- --<br>---------- -- -------- ----------------,285479,285477,285028.56,285028,285028.74,285479.02,,10,a
screen,html.Screen,2_3_1_0_1_11,2022-02-21T10:59:43.056Z,,,,,,,,,,,,,,,,,11,,,,,,,,,,,,,,372.9799999999814,,response,,,,4,B,,,,,,Space,keypress(Space),,,,lyrical,,,,----- -- ---- --- -- --- -------- ------------ ---------- --<br>- writing ------ --------- -- ------------ -- --- ---- -----<br>------ ---- ---- ------ ------ ------- --- ----- ---------<br>---- --- -------- -------- --- --- -- ------- --- --- -----<br>-- --- ------ ------- --- --- -------- ---- --------- --<br>---------- -- -------- ----------------,285854,285852,285478.62,285479,285479.02,285853.94,,11,writing
screen,html.Screen,2_3_1_0_1_12,2022-02-21T10:59:43.456Z,,,,,,,,,,,,,,,,,11,,,,,,,,,,,,,,389.0599999999977,,response,,,,4,B,,,,,,Space,keypress(Space),,,,lyrical,,,,----- -- ---- --- -- --- -------- ------------ ---------- --<br>- ------- system --------- -- ------------ -- --- ---- -----<br>------ ---- ---- ------ ------ ------- --- ----- ---------<br>---- --- -------- -------- --- --- -- ------- --- --- -----<br>-- --- ------ ------- --- --- -------- ---- --------- --<br>---------- -- -------- ----------------,286254,286243,285853.8,285854,285853.94,286253.86,,12,system
screen,html.Screen,2_3_1_0_1_13,2022-02-21T10:59:44.256Z,,,,,,,,,,,,,,,,,11,,,,,,,,,,,,,,786.140000000014,,response,,,,4,B,,,,,,Space,keypress(Space),,,,lyrical,,,,----- -- ---- --- -- --- -------- ------------ ---------- --<br>- ------- ------ comprised -- ------------ -- --- ---- -----<br>------ ---- ---- ------ ------ ------- --- ----- ---------<br>---- --- -------- -------- --- --- -- ------- --- --- -----<br>-- --- ------ ------- --- --- -------- ---- --------- --<br>---------- -- -------- ----------------,287053,287040,286253.58,286254,286253.86,287054.02,,13,comprised
screen,html.Screen,2_3_1_0_1_14,2022-02-21T10:59:44.681Z,,,,,,,,,,,,,,,,,11,,,,,,,,,,,,,,421.9799999999814,,response,,,,4,B,,,,,,Space,keypress(Space),,,,lyrical,,,,----- -- ---- --- -- --- -------- ------------ ---------- --<br>- ------- ------ --------- of ------------ -- --- ---- -----<br>------ ---- ---- ------ ------ ------- --- ----- ---------<br>---- --- -------- -------- --- --- -- ------- --- --- -----<br>-- --- ------ ------- --- --- -------- ---- --------- --<br>---------- -- -------- ----------------,287478,287476,287053.66,287054,287054.02,287478.84,,14,of
screen,html.Screen,2_3_1_0_1_15,2022-02-21T10:59:45.931Z,,,,,,,,,,,,,,,,,11,,,,,,,,,,,,,,1247.1599999999744,,response,,,,4,B,,,,,,Space,keypress(Space),,,,lyrical,,,,----- -- ---- --- -- --- -------- ------------ ---------- --<br>- ------- ------ --------- -- pictographs. -- --- ---- -----<br>------ ---- ---- ------ ------ ------- --- ----- ---------<br>---- --- -------- -------- --- --- -- ------- --- --- -----<br>-- --- ------ ------- --- --- -------- ---- --------- --<br>---------- -- -------- ----------------,288729,288726,287478.7,287479,287478.84,288728.94,,15,pictographs.
screen,html.Screen,2_3_1_0_1_16,2022-02-21T10:59:46.481Z,,,,,,,,,,,,,,,,,11,,,,,,,,,,,,,,544.0599999999977,,response,,,,4,B,,,,,,Space,keypress(Space),,,,lyrical,,,,----- -- ---- --- -- --- -------- ------------ ---------- --<br>- ------- ------ --------- -- ------------ It --- ---- -----<br>------ ---- ---- ------ ------ ------- --- ----- ---------<br>---- --- -------- -------- --- --- -- ------- --- --- -----<br>-- --- ------ ------- --- --- -------- ---- --------- --<br>---------- -- -------- ----------------,289278,289273,288728.7,288729,288728.94,289278.82,,16,It
screen,html.Screen,2_3_1_0_1_17,2022-02-21T10:59:46.906Z,,,,,,,,,,,,,,,,,11,,,,,,,,,,,,,,416.179999999993,,response,,,,4,B,,,,,,Space,keypress(Space),,,,lyrical,,,,----- -- ---- --- -- --- -------- ------------ ---------- --<br>- ------- ------ --------- -- ------------ -- has ---- -----<br>------ ---- ---- ------ ------ ------- --- ----- ---------<br>---- --- -------- -------- --- --- -- ------- --- --- -----<br>-- --- ------ ------- --- --- -------- ---- --------- --<br>---------- -- -------- ----------------,289704,289695,289278.62,289278,289278.82,289703.88,,17,has
screen,html.Screen,2_3_1_0_1_18,2022-02-21T10:59:47.206Z,,,,,,,,,,,,,,,,,11,,,,,,,,,,,,,,289.11999999999534,,response,,,,4,B,,,,,,Space,keypress(Space),,,,lyrical,,,,----- -- ---- --- -- --- -------- ------------ ---------- --<br>- ------- ------ --------- -- ------------ -- --- been -----<br>------ ---- ---- ------ ------ ------- --- ----- ---------<br>---- --- -------- -------- --- --- -- ------- --- --- -----<br>-- --- ------ ------- --- --- -------- ---- --------- --<br>---------- -- -------- ----------------,290003,289993,289703.54,289704,289703.88,290003.76,,18,been
screen,html.Screen,2_3_1_0_1_19,2022-02-21T10:59:47.806Z,,,,,,,,,,,,,,,,,11,,,,,,,,,,,,,,582.2399999999907,,response,,,,4,B,,,,,,Space,keypress(Space),,,,lyrical,,,,----- -- ---- --- -- --- -------- ------------ ---------- --<br>- ------- ------ --------- -- ------------ -- --- ---- found<br>------ ---- ---- ------ ------ ------- --- ----- ---------<br>---- --- -------- -------- --- --- -- ------- --- --- -----<br>-- --- ------ ------- --- --- -------- ---- --------- --<br>---------- -- -------- ----------------,290603,290586,290003.6,290004,290003.76,290603.74,,19,found
screen,html.Screen,2_3_1_0_1_20,2022-02-21T10:59:48.356Z,,,,,,,,,,,,,,,,,11,,,,,,,,,,,,,,545.2600000000093,,response,,,,4,B,,,,,,Space,keypress(Space),,,,lyrical,,,,----- -- ---- --- -- --- -------- ------------ ---------- --<br>- ------- ------ --------- -- ------------ -- --- ---- -----<br>carved ---- ---- ------ ------ ------- --- ----- ---------<br>---- --- -------- -------- --- --- -- ------- --- --- -----<br>-- --- ------ ------- --- --- -------- ---- --------- --<br>---------- -- -------- ----------------,291154,291149,290603.6,290604,290603.74,291153.94,,20,carved
screen,html.Screen,2_3_1_0_1_21,2022-02-21T10:59:48.605Z,,,,,,,,,,,,,,,,,11,,,,,,,,,,,,,,244.05999999999767,,response,,,,4,B,,,,,,Space,keypress(Space),,,,lyrical,,,,----- -- ---- --- -- --- -------- ------------ ---------- --<br>- ------- ------ --------- -- ------------ -- --- ---- -----<br>------ into ---- ------ ------ ------- --- ----- ---------<br>---- --- -------- -------- --- --- -- ------- --- --- -----<br>-- --- ------ ------- --- --- -------- ---- --------- --<br>---------- -- -------- ----------------,291404,291398,291153.68,291154,291153.94,291403.74,,21,into
screen,html.Screen,2_3_1_0_1_22,2022-02-21T10:59:49.006Z,,,,,,,,,,,,,,,,,11,,,,,,,,,,,,,,386.2600000000093,,response,,,,4,B,,,,,,Space,keypress(Space),,,,lyrical,,,,----- -- ---- --- -- --- -------- ------------ ---------- --<br>- ------- ------ --------- -- ------------ -- --- ---- -----<br>------ ---- many ------ ------ ------- --- ----- ---------<br>---- --- -------- -------- --- --- -- ------- --- --- -----<br>-- --- ------ ------- --- --- -------- ---- --------- --<br>---------- -- -------- ----------------,291804,291790,291403.58,291404,291403.74,291804.08,,22,many
screen,html.Screen,2_3_1_0_1_23,2022-02-21T10:59:49.406Z,,,,,,,,,,,,,,,,,11,,,,,,,,,,,,,,391.9199999999837,,response,,,,4,B,,,,,,Space,keypress(Space),,,,lyrical,,,,----- -- ---- --- -- --- -------- ------------ ---------- --<br>- ------- ------ --------- -- ------------ -- --- ---- -----<br>------ ---- ---- oblong ------ ------- --- ----- ---------<br>---- --- -------- -------- --- --- -- ------- --- --- -----<br>-- --- ------ ------- --- --- -------- ---- --------- --<br>---------- -- -------- ----------------,292203,292196,291803.86,291804,291804.08,292204.14,,23,oblong
screen,html.Screen,2_3_1_0_1_24,2022-02-21T10:59:49.780Z,,,,,,,,,,,,,,,,,11,,,,,,,,,,,,,,365.85999999998603,,response,,,,4,B,,,,,,Space,keypress(Space),,,,lyrical,,,,----- -- ---- --- -- --- -------- ------------ ---------- --<br>- ------- ------ --------- -- ------------ -- --- ---- -----<br>------ ---- ---- ------ wooden ------- --- ----- ---------<br>---- --- -------- -------- --- --- -- ------- --- --- -----<br>-- --- ------ ------- --- --- -------- ---- --------- --<br>---------- -- -------- ----------------,292578,292570,292203.66,292203,292204.14,292578.74,,24,wooden
screen,html.Screen,2_3_1_0_1_25,2022-02-21T10:59:50.256Z,,,,,,,,,,,,,,,,,11,,,,,,,,,,,,,,461.2600000000093,,response,,,,4,B,,,,,,Space,keypress(Space),,,,lyrical,,,,----- -- ---- --- -- --- -------- ------------ ---------- --<br>- ------- ------ --------- -- ------------ -- --- ---- -----<br>------ ---- ---- ------ ------ tablets --- ----- ---------<br>---- --- -------- -------- --- --- -- ------- --- --- -----<br>-- --- ------ ------- --- --- -------- ---- --------- --<br>---------- -- -------- ----------------,293054,293040,292578.46,292578,292578.74,293053.92,,25,tablets
screen,html.Screen,2_3_1_0_1_26,2022-02-21T10:59:50.631Z,,,,,,,,,,,,,,,,,11,,,,,,,,,,,,,,360.0800000000163,,response,,,,4,B,,,,,,Space,keypress(Space),,,,lyrical,,,,----- -- ---- --- -- --- -------- ------------ ---------- --<br>- ------- ------ --------- -- ------------ -- --- ---- -----<br>------ ---- ---- ------ ------ ------- and ----- ---------<br>---- --- -------- -------- --- --- -- ------- --- --- -----<br>-- --- ------ ------- --- --- -------- ---- --------- --<br>---------- -- -------- ----------------,293428,293414,293053.76,293054,293053.92,293428.66,,26,and
screen,html.Screen,2_3_1_0_1_27,2022-02-21T10:59:50.931Z,,,,,,,,,,,,,,,,,11,,,,,,,,,,,,,,298.3400000000256,,response,,,,4,B,,,,,,Space,keypress(Space),,,,lyrical,,,,----- -- ---- --- -- --- -------- ------------ ---------- --<br>- ------- ------ --------- -- ------------ -- --- ---- -----<br>------ ---- ---- ------ ------ ------- --- other ---------<br>---- --- -------- -------- --- --- -- ------- --- --- -----<br>-- --- ------ ------- --- --- -------- ---- --------- --<br>---------- -- -------- ----------------,293728,293727,293428.42,293428,293428.66,293728.7,,27,other
screen,html.Screen,2_3_1_0_1_28,2022-02-21T10:59:51.406Z,,,,,,,,,,,,,,,,,11,,,,,,,,,,,,,,466.29999999998836,,response,,,,4,B,,,,,,Space,keypress(Space),,,,lyrical,,,,----- -- ---- --- -- --- -------- ------------ ---------- --<br>- ------- ------ --------- -- ------------ -- --- ---- -----<br>------ ---- ---- ------ ------ ------- --- ----- artifacts<br>---- --- -------- -------- --- --- -- ------- --- --- -----<br>-- --- ------ ------- --- --- -------- ---- --------- --<br>---------- -- -------- ----------------,294203,294195,293728.52,293729,293728.7,294203.72,,28,artifacts
screen,html.Screen,2_3_1_0_1_29,2022-02-21T10:59:52.031Z,,,,,,,,,,,,,,,,,11,,,,,,,,,,,,,,616.2800000000279,,response,,,,4,B,,,,,,Space,keypress(Space),,,,lyrical,,,,----- -- ---- --- -- --- -------- ------------ ---------- --<br>- ------- ------ --------- -- ------------ -- --- ---- -----<br>------ ---- ---- ------ ------ ------- --- ----- ---------<br>from --- -------- -------- --- --- -- ------- --- --- -----<br>-- --- ------ ------- --- --- -------- ---- --------- --<br>---------- -- -------- ----------------,294828,294820,294203.54,294203,294203.72,294828.7,,29,from
screen,html.Screen,2_3_1_0_1_30,2022-02-21T10:59:52.381Z,,,,,,,,,,,,,,,,,11,,,,,,,,,,,,,,336.29999999998836,,response,,,,4,B,,,,,,Space,keypress(Space),,,,lyrical,,,,----- -- ---- --- -- --- -------- ------------ ---------- --<br>- ------- ------ --------- -- ------------ -- --- ---- -----<br>------ ---- ---- ------ ------ ------- --- ----- ---------<br>---- the -------- -------- --- --- -- ------- --- --- -----<br>-- --- ------ ------- --- --- -------- ---- --------- --<br>---------- -- -------- ----------------,295178,295165,294828.58,294828,294828.7,295178.92,,30,the
screen,html.Screen,2_3_1_0_1_31,2022-02-21T10:59:53.006Z,,,,,,,,,,,,,,,,,11,,,,,,,,,,,,,,611.0800000000163,,response,,,,4,B,,,,,,Space,keypress(Space),,,,lyrical,,,,----- -- ---- --- -- --- -------- ------------ ---------- --<br>- ------- ------ --------- -- ------------ -- --- ---- -----<br>------ ---- ---- ------ ------ ------- --- ----- ---------<br>---- --- island's -------- --- --- -- ------- --- --- -----<br>-- --- ------ ------- --- --- -------- ---- --------- --<br>---------- -- -------- ----------------,295804,295790,295178.7,295178,295178.92,295804.08,,31,island's
screen,html.Screen,2_3_1_0_1_32,2022-02-21T10:59:53.231Z,,,,,,,,,,,,,,,,,11,,,,,,,,,,,,,,219.9199999999837,,response,,,,4,B,,,,,,Space,keypress(Space),,,,lyrical,,,,----- -- ---- --- -- --- -------- ------------ ---------- --<br>- ------- ------ --------- -- ------------ -- --- ---- -----<br>------ ---- ---- ------ ------ ------- --- ----- ---------<br>---- --- -------- history. --- --- -- ------- --- --- -----<br>-- --- ------ ------- --- --- -------- ---- --------- --<br>---------- -- -------- ----------------,296029,296024,295803.78,295804,295804.08,296028.92,,32,history.
screen,html.Screen,2_3_1_0_1_33,2022-02-21T10:59:53.706Z,,,,,,,,,,,,,,,,,11,,,,,,,,,,,,,,463.0800000000163,,response,,,,4,B,,,,,,Space,keypress(Space),,,,lyrical,,,,----- -- ---- --- -- --- -------- ------------ ---------- --<br>- ------- ------ --------- -- ------------ -- --- ---- -----<br>------ ---- ---- ------ ------ ------- --- ----- ---------<br>---- --- -------- -------- The --- -- ------- --- --- -----<br>-- --- ------ ------- --- --- -------- ---- --------- --<br>---------- -- -------- ----------------,296503,296492,296028.72,296029,296028.92,296504.04,,33,The
screen,html.Screen,2_3_1_0_1_34,2022-02-21T10:59:54.306Z,,,,,,,,,,,,,,,,,11,,,,,,,,,,,,,,597.960000000021,,response,,,,4,B,,,,,,Space,keypress(Space),,,,lyrical,,,,----- -- ---- --- -- --- -------- ------------ ---------- --<br>- ------- ------ --------- -- ------------ -- --- ---- -----<br>------ ---- ---- ------ ------ ------- --- ----- ---------<br>---- --- -------- -------- --- art -- ------- --- --- -----<br>-- --- ------ ------- --- --- -------- ---- --------- --<br>---------- -- -------- ----------------,297104,297102,296503.82,296504,296504.04,297103.76,,34,art
screen,html.Screen,2_3_1_0_1_35,2022-02-21T10:59:54.756Z,,,,,,,,,,,,,,,,,11,,,,,,,,,,,,,,435.2399999999907,,response,,,,4,B,,,,,,Space,keypress(Space),,,,lyrical,,,,----- -- ---- --- -- --- -------- ------------ ---------- --<br>- ------- ------ --------- -- ------------ -- --- ---- -----<br>------ ---- ---- ------ ------ ------- --- ----- ---------<br>---- --- -------- -------- --- --- of ------- --- --- -----<br>-- --- ------ ------- --- --- -------- ---- --------- --<br>---------- -- -------- ----------------,297553,297539,297103.56,297104,297103.76,297553.6,,35,of
screen,html.Screen,2_3_1_0_1_36,2022-02-21T10:59:54.981Z,,,,,,,,,,,,,,,,,11,,,,,,,,,,,,,,219.40000000002328,,response,,,,4,B,,,,,,Space,keypress(Space),,,,lyrical,,,,----- -- ---- --- -- --- -------- ------------ ---------- --<br>- ------- ------ --------- -- ------------ -- --- ---- -----<br>------ ---- ---- ------ ------ ------- --- ----- ---------<br>---- --- -------- -------- --- --- -- writing --- --- -----<br>-- --- ------ ------- --- --- -------- ---- --------- --<br>---------- -- -------- ----------------,297778,297773,297553.32,297553,297553.6,297778.94,,36,writing
screen,html.Screen,2_3_1_0_1_37,2022-02-21T10:59:55.281Z,,,,,,,,,,,,,,,,,11,,,,,,,,,,,,,,292.0599999999977,,response,,,,4,B,,,,,,Space,keypress(Space),,,,lyrical,,,,----- -- ---- --- -- --- -------- ------------ ---------- --<br>- ------- ------ --------- -- ------------ -- --- ---- -----<br>------ ---- ---- ------ ------ ------- --- ----- ---------<br>---- --- -------- -------- --- --- -- ------- was --- -----<br>-- --- ------ ------- --- --- -------- ---- --------- --<br>---------- -- -------- ----------------,298078,298071,297778.8,297778,297778.94,298078.74,,37,was
screen,html.Screen,2_3_1_0_1_38,2022-02-21T10:59:55.631Z,,,,,,,,,,,,,,,,,11,,,,,,,,,,,,,,336.2600000000093,,response,,,,4,B,,,,,,Space,keypress(Space),,,,lyrical,,,,----- -- ---- --- -- --- -------- ------------ ---------- --<br>- ------- ------ --------- -- ------------ -- --- ---- -----<br>------ ---- ---- ------ ------ ------- --- ----- ---------<br>---- --- -------- -------- --- --- -- ------- --- not -----<br>-- --- ------ ------- --- --- -------- ---- --------- --<br>---------- -- -------- ----------------,298428,298415,298078.56,298078,298078.74,298428.66,,38,not
screen,html.Screen,2_3_1_0_1_39,2022-02-21T10:59:55.981Z,,,,,,,,,,,,,,,,,11,,,,,,,,,,,,,,344.3400000000256,,response,,,,4,B,,,,,,Space,keypress(Space),,,,lyrical,,,,----- -- ---- --- -- --- -------- ------------ ---------- --<br>- ------- ------ --------- -- ------------ -- --- ---- -----<br>------ ---- ---- ------ ------ ------- --- ----- ---------<br>---- --- -------- -------- --- --- -- ------- --- --- known<br>-- --- ------ ------- --- --- -------- ---- --------- --<br>---------- -- -------- ----------------,298778,298773,298428.5,298428,298428.66,298778.9,,39,known
screen,html.Screen,2_3_1_0_1_40,2022-02-21T10:59:56.356Z,,,,,,,,,,,,,,,,,11,,,,,,,,,,,,,,370.0999999999767,,response,,,,4,B,,,,,,Space,keypress(Space),,,,lyrical,,,,----- -- ---- --- -- --- -------- ------------ ---------- --<br>- ------- ------ --------- -- ------------ -- --- ---- -----<br>------ ---- ---- ------ ------ ------- --- ----- ---------<br>---- --- -------- -------- --- --- -- ------- --- --- -----<br>in --- ------ ------- --- --- -------- ---- --------- --<br>---------- -- -------- ----------------,299153,299149,298778.74,298779,298778.9,299153.68,,40,in
screen,html.Screen,2_3_1_0_1_41,2022-02-21T10:59:56.656Z,,,,,,,,,,,,,,,,,11,,,,,,,,,,,,,,291.320000000007,,response,,,,4,B,,,,,,Space,keypress(Space),,,,lyrical,,,,----- -- ---- --- -- --- -------- ------------ ---------- --<br>- ------- ------ --------- -- ------------ -- --- ---- -----<br>------ ---- ---- ------ ------ ------- --- ----- ---------<br>---- --- -------- -------- --- --- -- ------- --- --- -----<br>-- any ------ ------- --- --- -------- ---- --------- --<br>---------- -- -------- ----------------,299453,299445,299153.52,299153,299153.68,299453.88,,41,any
screen,html.Screen,2_3_1_0_1_42,2022-02-21T10:59:57.081Z,,,,,,,,,,,,,,,,,11,,,,,,,,,,,,,,413.11999999999534,,response,,,,4,B,,,,,,Space,keypress(Space),,,,lyrical,,,,----- -- ---- --- -- --- -------- ------------ ---------- --<br>- ------- ------ --------- -- ------------ -- --- ---- -----<br>------ ---- ---- ------ ------ ------- --- ----- ---------<br>---- --- -------- -------- --- --- -- ------- --- --- -----<br>-- --- nearby ------- --- --- -------- ---- --------- --<br>---------- -- -------- ----------------,299878,299867,299453.66,299453,299453.88,299878.82,,42,nearby
screen,html.Screen,2_3_1_0_1_43,2022-02-21T10:59:57.481Z,,,,,,,,,,,,,,,,,11,,,,,,,,,,,,,,395.179999999993,,response,,,,4,B,,,,,,Space,keypress(Space),,,,lyrical,,,,----- -- ---- --- -- --- -------- ------------ ---------- --<br>- ------- ------ --------- -- ------------ -- --- ---- -----<br>------ ---- ---- ------ ------ ------- --- ----- ---------<br>---- --- -------- -------- --- --- -- ------- --- --- -----<br>-- --- ------ islands --- --- -------- ---- --------- --<br>---------- -- -------- ----------------,300279,300274,299878.66,299878,299878.82,300279,,43,islands
screen,html.Screen,2_3_1_0_1_44,2022-02-21T10:59:58.281Z,,,,,,,,,,,,,,,,,11,,,,,,,,,,,,,,792,,response,,,,4,B,,,,,,Space,keypress(Space),,,,lyrical,,,,----- -- ---- --- -- --- -------- ------------ ---------- --<br>- ------- ------ --------- -- ------------ -- --- ---- -----<br>------ ---- ---- ------ ------ ------- --- ----- ---------<br>---- --- -------- -------- --- --- -- ------- --- --- -----<br>-- --- ------ ------- and --- -------- ---- --------- --<br>---------- -- -------- ----------------,301078,301071,300278.88,300279,300279,301078.96,,44,and
screen,html.Screen,2_3_1_0_1_45,2022-02-21T10:59:58.631Z,,,,,,,,,,,,,,,,,11,,,,,,,,,,,,,,336.03999999997905,,response,,,,4,B,,,,,,Space,keypress(Space),,,,lyrical,,,,----- -- ---- --- -- --- -------- ------------ ---------- --<br>- ------- ------ --------- -- ------------ -- --- ---- -----<br>------ ---- ---- ------ ------ ------- --- ----- ---------<br>---- --- -------- -------- --- --- -- ------- --- --- -----<br>-- --- ------ ------- --- the -------- ---- --------- --<br>---------- -- -------- ----------------,301428,301415,301078.78,301078,301078.96,301428.7,,45,the
screen,html.Screen,2_3_1_0_1_46,2022-02-21T10:59:58.981Z,,,,,,,,,,,,,,,,,11,,,,,,,,,,,,,,344.29999999998836,,response,,,,4,B,,,,,,Space,keypress(Space),,,,lyrical,,,,----- -- ---- --- -- --- -------- ------------ ---------- --<br>- ------- ------ --------- -- ------------ -- --- ---- -----<br>------ ---- ---- ------ ------ ------- --- ----- ---------<br>---- --- -------- -------- --- --- -- ------- --- --- -----<br>-- --- ------ ------- --- --- script's ---- --------- --<br>---------- -- -------- ----------------,301779,301773,301428.44,301428,301428.7,301778.6,,46,script's
screen,html.Screen,2_3_1_0_1_47,2022-02-21T10:59:59.356Z,,,,,,,,,,,,,,,,,11,,,,,,,,,,,,,,369.4000000000233,,response,,,,4,B,,,,,,Space,keypress(Space),,,,lyrical,,,,----- -- ---- --- -- --- -------- ------------ ---------- --<br>- ------- ------ --------- -- ------------ -- --- ---- -----<br>------ ---- ---- ------ ------ ------- --- ----- ---------<br>---- --- -------- -------- --- --- -- ------- --- --- -----<br>-- --- ------ ------- --- --- -------- mere --------- --<br>---------- -- -------- ----------------,302154,302148,301778.5,301779,301778.6,302154.04,,47,mere
screen,html.Screen,2_3_1_0_1_48,2022-02-21T10:59:59.731Z,,,,,,,,,,,,,,,,,11,,,,,,,,,,,,,,368.96000000002095,,response,,,,4,B,,,,,,Space,keypress(Space),,,,lyrical,,,,----- -- ---- --- -- --- -------- ------------ ---------- --<br>- ------- ------ --------- -- ------------ -- --- ---- -----<br>------ ---- ---- ------ ------ ------- --- ----- ---------<br>---- --- -------- -------- --- --- -- ------- --- --- -----<br>-- --- ------ ------- --- --- -------- ---- existence --<br>---------- -- -------- ----------------,302528,302523,302153.76,302154,302154.04,302529.06,,48,existence
screen,html.Screen,2_3_1_0_1_49,2022-02-21T11:00:00.106Z,,,,,,,,,,,,,,,,,11,,,,,,,,,,,,,,368.9400000000023,,response,,,,4,B,,,,,,Space,keypress(Space),,,,lyrical,,,,----- -- ---- --- -- --- -------- ------------ ---------- --<br>- ------- ------ --------- -- ------------ -- --- ---- -----<br>------ ---- ---- ------ ------ ------- --- ----- ---------<br>---- --- -------- -------- --- --- -- ------- --- --- -----<br>-- --- ------ ------- --- --- -------- ---- --------- is<br>---------- -- -------- ----------------,302904,302898,302528.88,302529,302529.06,302904.24,,49,is
screen,html.Screen,2_3_1_0_1_50,2022-02-21T11:00:00.381Z,,,,,,,,,,,,,,,,,11,,,,,,,,,,,,,,260.7600000000093,,response,,,,4,B,,,,,,Space,keypress(Space),,,,lyrical,,,,----- -- ---- --- -- --- -------- ------------ ---------- --<br>- ------- ------ --------- -- ------------ -- --- ---- -----<br>------ ---- ---- ------ ------ ------- --- ----- ---------<br>---- --- -------- -------- --- --- -- ------- --- --- -----<br>-- --- ------ ------- --- --- -------- ---- --------- --<br>sufficient -- -------- ----------------,303179,303165,302904.1,302904,302904.24,303179.1,,50,sufficient
