sender,sender_type,sender_id,timestamp,meta,,Blues,Classical,Country,Dance,Electronic,Folk,Gospel,Hip-Hop,Jazz,Latin,Musical/Film,New-age,Pop,Prolific_id,Provo_ID,R&B,Rap,Reggae,Religious,Rock,Soul,Swing,Traditional,age,artist_name,correct,correctResponse,distraction,duration,education,ended_on,familiarity,gender,headphone_check_performance,item,list,music_frequency,offensiveness,pleasantness,position_correct,preference,response,response_action,snippet_file,song_name,song_rating,sound,stimulus_1,stimulus_2,stimulus_3,text,time_commit,time_end,time_render,time_run,time_show,time_switch,url,word,word_ID
Prolific ID,html.Form,0,2022-02-18T13:04:17.464Z,"{""labjs_version"":""20.2.2"",""labjs_build"":{""flavor"":""production"",""commit"":""a25486e0c714a0ae2ce03ff94b7bb6896854dcfa""},""location"":""https://run.pavlovia.org/mvasilev/prolific2_music_f/"",""userAgent"":""Mozilla/5.0 (Macintosh; Intel Mac OS X 10_11_6) AppleWebKit/537.36 (KHTML, like Gecko) Chrome/97.0.4692.71 Safari/537.36"",""platform"":""MacIntel"",""language"":""en-US"",""locale"":""en-US"",""timeZone"":""Europe/London"",""timezoneOffset"":0,""screen_width"":1440,""screen_height"":900,""scroll_width"":1440,""scroll_height"":741,""window_innerWidth"":1440,""window_innerHeight"":789,""devicePixelRatio"":1}",,,,,,,,,,,,,,,5c05c339b3ea3800017ae156,,,,,,,,,,,,,,,4657.5930000007465,,form submission,,,,,,,,,,,,,,,,,,,,,25037.800000000745,25036.800000000745,20345.785,20345.099999999627,20379.207,25058.41,{},,
Introduction,html.Screen,1_0,2022-02-18T13:04:21.149Z,,,,,,,,,,,,,,,,,,,,,,,,,,,,,,,3660.09,,response,,,,,,,,,,,continue,click button,,,,,,,,,28723.099999999627,28718.5,25041.699,25039.300000000745,25058.41,28734.83,,,
Volume calibration,html.Screen,1_1,2022-02-18T13:04:30.051Z,,,,,,,,,,,,,,,,,,,,,,,,,,,,,,,8883.67000000186,,response,,,,,,,,,,,continue,click button,,,,,,,,,37624.59999999963,37618.50000000186,28718.119,28723.400000000373,28734.83,37625.237,,,
Task instructions,html.Screen,1_2,2022-02-18T13:04:34.559Z,,,,,,,,,,,,,,,,,,,,,,,,,,,,,,,4505.062999998881,,response,,,,,,,,,,,continue,click button,,,,,,,,,42132.09999999963,42130.29999999888,37608.526,37625.00000000186,37625.237,42137.207,,,
Sounds,html.Screen,1_3_0_0,2022-02-18T13:04:38.797Z,,,,,,,,,,,,,,,,,,,,,,,,,,,,,,,4244.593999999997,,timeout,,,,,,,,,2,,,,,,,,O,S,I,,46370.20000000112,46365.09,42120.496,42132.40000000037,42137.207,46381.801,,,
Judgement,html.Screen,1_3_0_1,2022-02-18T13:04:40.909Z,,,,,,,,,,,,,,,,,,,,,,,,,,,,true,2,,2097.798999999628,,response,,,,,,,,,2,,2,click #choice-2,,,,,O,S,I,,48481.90000000037,48479.59999999963,46365.09,46370.50000000186,46381.801,48487.702,,,
Trial,flow.Sequence,1_3_0,2022-02-18T13:04:40.910Z,,,,,,,,,,,,,,,,,,,,,,,,,,,,,,,6342.392999999625,,completion,,,,,,,,,2,,,,,,,,O,S,I,,48482.40000000037,48479.59999999963,42120.496,42132.29999999888,42137.207,48487.702,,,
Sounds,html.Screen,1_3_1_0,2022-02-18T13:04:45.146Z,,,,,,,,,,,,,,,,,,,,,,,,,,,,,,,4244.594000000005,,timeout,,,,,,,,,1,,,,,,,,S,I,O,,52718.29999999888,52715.585,48470.991,48482.90000000037,48487.702,52732.296,,,
Judgement,html.Screen,1_3_1_1,2022-02-18T13:04:45.971Z,,,,,,,,,,,,,,,,,,,,,,,,,,,,true,1,,809.4040000011155,,response,,,,,,,,,1,,1,click #choice-1,,,,,S,I,O,,53544.00000000186,53541.70000000112,52715.585,52718.50000000186,52732.296,53551.135,,,
Trial,flow.Sequence,1_3_1,2022-02-18T13:04:45.972Z,,,,,,,,,,,,,,,,,,,,,,,,,,,,,,,5053.99800000112,,completion,,,,,,,,,1,,,,,,,,S,I,O,,53544.50000000186,53541.70000000112,48470.991,48482.50000000186,48487.702,53551.135,,,
Sounds,html.Screen,1_3_2_0,2022-02-18T13:04:50.209Z,,,,,,,,,,,,,,,,,,,,,,,,,,,,,,,4244.593999999997,,timeout,,,,,,,,,1,,,,,,,,S,O,I,,57781.09999999963,57779.018,53534.424,53544.79999999888,53551.135,57795.729,,,
Judgement,html.Screen,1_3_2_1,2022-02-18T13:04:50.666Z,,,,,,,,,,,,,,,,,,,,,,,,,,,,true,1,,440.9710000011182,,response,,,,,,,,,1,,1,click #choice-1,,,,,S,O,I,,58238.79999999888,58236.70000000112,57779.018,57781.29999999888,57795.729,58246.926,,,
Trial,flow.Sequence,1_3_2,2022-02-18T13:04:50.667Z,,,,,,,,,,,,,,,,,,,,,,,,,,,,,,,4685.565000001116,,completion,,,,,,,,,1,,,,,,,,S,O,I,,58239.29999999888,58236.70000000112,53534.424,53544.70000000112,53551.135,58246.926,,,
Sounds,html.Screen,1_3_3_0,2022-02-18T13:04:54.905Z,,,,,,,,,,,,,,,,,,,,,,,,,,,,,,,4244.7980000000025,,timeout,,,,,,,,,3,,,,,,,,I,O,S,,62477.29999999888,62475.013,58230.215,58239.50000000186,58246.926,62491.724,,,
Judgement,html.Screen,1_3_3_1,2022-02-18T13:04:55.441Z,,,,,,,,,,,,,,,,,,,,,,,,,,,,true,3,,518.7760000018607,,response,,,,,,,,,3,,3,click #choice-3,,,,,I,O,S,,63012.79999999888,63010.50000000186,62475.013,62477.59999999963,62491.724,63026.476,,,
Trial,flow.Sequence,1_3_3,2022-02-18T13:04:55.441Z,,,,,,,,,,,,,,,,,,,,,,,,,,,,,,,4763.574000001863,,completion,,,,,,,,,3,,,,,,,,I,O,S,,63013.20000000112,63010.50000000186,58230.215,58239.40000000037,58246.926,63026.476,,,
Sounds,html.Screen,1_3_4_0,2022-02-18T13:04:59.685Z,,,,,,,,,,,,,,,,,,,,,,,,,,,,,,,4244.594000000005,,timeout,,,,,,,,,2,,,,,,,,I,S,O,,67256.79999999888,67254.359,63009.765,63013.40000000037,63026.476,67271.07,,,
Judgement,html.Screen,1_3_4_1,2022-02-18T13:05:00.110Z,,,,,,,,,,,,,,,,,,,,,,,,,,,,true,2,,408.93000000185566,,response,,,,,,,,,2,,2,click #choice-2,,,,,I,S,O,,67681.79999999888,67680.00000000186,67254.359,67256.90000000037,67271.07,67688.845,,,
Trial,flow.Sequence,1_3_4,2022-02-18T13:05:00.110Z,,,,,,,,,,,,,,,,,,,,,,,,,,,,,,,4653.52400000186,,completion,,,,,,,,,2,,,,,,,,I,S,O,,67682.09999999963,67680.00000000186,63009.765,63013.29999999888,63026.476,67688.845,,,
Sounds,html.Screen,1_3_5_0,2022-02-18T13:05:04.347Z,,,,,,,,,,,,,,,,,,,,,,,,,,,,,,,4244.593999999997,,timeout,,,,,,,,,3,,,,,,,,O,I,S,,71919.20000000112,71916.728,67672.134,67682.20000000112,67688.845,71933.439,,,
Judgement,html.Screen,1_3_5_1,2022-02-18T13:05:04.755Z,,,,,,,,,,,,,,,,,,,,,,,,,,,,true,3,,391.06100000186416,,response,,,,,,,,,3,,3,click #choice-3,,,,,O,I,S,,72326.50000000186,72324.50000000186,71916.728,71919.29999999888,71933.439,72334.503,,,
Trial,flow.Sequence,1_3_5,2022-02-18T13:05:04.755Z,,,,,,,,,,,,,,,,,,,,,,,,,,,,,,,4635.6550000018615,,completion,,,,,,,,,3,,,,,,,,O,I,S,,72326.79999999888,72324.50000000186,67672.134,67682.20000000112,67688.845,72334.503,,,
Task,flow.Loop,1_3,2022-02-18T13:05:04.763Z,,,,,,,,,,,,,,,,,,,,,,,,,,,,,,,30187.29300000186,,completion,,,1,,,,,,,,,,,,,,,,,,72334.59999999963,72324.50000000186,42120.496,42132.29999999888,42137.207,72334.503,,,
Trap,html.Screen,1_4,2022-02-18T13:05:04.765Z,,,,,,,,,,,,,,,,,,,,,,,,,,,,,,,NaN,,skipped,,,,,,,,,,,,,,,,,,,,,72337.09999999963,72324.50000000186,,72336.79999999888,,72334.503,,,
Thanks,html.Screen,1_5,2022-02-18T13:05:07.549Z,,,,,,,,,,,,,,,,,,,,,,,,,,,,,,,2784.7969999988854,,response,,,,,,,,,,,continue,click button,,,,,,,,,75121.20000000112,75119.29999999888,72317.792,72337.40000000037,72334.503,78317.301,,,
Headphone screening,flow.Sequence,1,2022-02-18T13:05:07.550Z,,,,,,,,,,,,,,,,,,,,,,,,,,,,,,,50060.88999999888,,completion,,,,,,,,,,,,,,,,,,,,,75121.50000000186,75119.29999999888,25041.699,25039,25058.41,78317.301,,,
Instructions,html.Page,2_0,2022-02-18T13:05:28.153Z,,,,,,,,,,,,,,,,,,,,,,,,,,,,,,,17406.498999998876,,form submission,,,,,,,,,,,,,,,,,,,,,95724.29999999888,95723.79999999888,78300.59,78311.79999999888,78317.301,95730.163,,,
Holding screen,html.Screen,2_1_0_0,2022-02-18T13:05:38.138Z,,,,,,,,,,,,,,,,,,,,,,,,,,,,,,,9993.569999999992,,timeout,,,,,,,,,,,,,,,,,,,,,105709.00000000186,105707.022,95713.452,95724.59999999963,95730.163,105723.733,,,
screen,html.Screen,2_1_0_1_0,2022-02-18T13:05:39.418Z,,,,,,,,,,,,,,,,,53,,,,,,,,,,,,,,1259.2670000018697,,response,,,,99,,,,,,,Space,keypress(Space),,,,,,,,When -- ----- -- ------ - ------- --- ----------<br>------------- ------ ------ ---- ---- ------- ----- -- ----<br>-------- ------- -- ---------- --- - --- ----- ----- ----<br>---- --- --- ----- --- ---- ---- ------- ----- ---- -------<br>--- --- -- ----- -- --- ---- -- --- ---- -- ------ ------<br>--- ----- -- ----,106989.00000000186,106983.00000000186,105707.022,105709.29999999888,105723.733,106993.964,,0,When
screen,html.Screen,2_1_0_1_1,2022-02-18T13:05:40.055Z,,,,,,,,,,,,,,,,,53,,,,,,,,,,,,,,629.6359999996203,,response,,,,99,,,,,,,Space,keypress(Space),,,,,,,,---- it ----- -- ------ - ------- --- ----------<br>------------- ------ ------ ---- ---- ------- ----- -- ----<br>-------- ------- -- ---------- --- - --- ----- ----- ----<br>---- --- --- ----- --- ---- ---- ------- ----- ---- -------<br>--- --- -- ----- -- --- ---- -- --- ---- -- ------ ------<br>--- ----- -- ----,107625.70000000112,107623.59999999963,106977.253,106989.20000000112,106993.964,107628.982,,1,it
screen,html.Screen,2_1_0_1_2,2022-02-18T13:05:40.356Z,,,,,,,,,,,,,,,,,53,,,,,,,,,,,,,,295.718000001114,,response,,,,99,,,,,,,Space,keypress(Space),,,,,,,,---- -- comes -- ------ - ------- --- ----------<br>------------- ------ ------ ---- ---- ------- ----- -- ----<br>-------- ------- -- ---------- --- - --- ----- ----- ----<br>---- --- --- ----- --- ---- ---- ------- ----- ---- -------<br>--- --- -- ----- -- --- ---- -- --- ---- -- ------ ------<br>--- ----- -- ----,107926.90000000037,107924.70000000112,107612.271,107625.90000000037,107628.982,107929.78,,2,comes
screen,html.Screen,2_1_0_1_3,2022-02-18T13:05:40.606Z,,,,,,,,,,,,,,,,,53,,,,,,,,,,,,,,243.92000000111875,,response,,,,99,,,,,,,Space,keypress(Space),,,,,,,,---- -- ----- to ------ - ------- --- ----------<br>------------- ------ ------ ---- ---- ------- ----- -- ----<br>-------- ------- -- ---------- --- - --- ----- ----- ----<br>---- --- --- ----- --- ---- ---- ------- ----- ---- -------<br>--- --- -- ----- -- --- ---- -- --- ---- -- ------ ------<br>--- ----- -- ----,108176.09999999963,108173.70000000112,107913.069,107927.20000000112,107929.78,108180.445,,3,to
screen,html.Screen,2_1_0_1_4,2022-02-18T13:05:41.934Z,,,,,,,,,,,,,,,,,53,,,,,,,,,,,,,,1321.1549999996205,,response,,,,99,,,,,,,Space,keypress(Space),,,,,,,,---- -- ----- -- having - ------- --- ----------<br>------------- ------ ------ ---- ---- ------- ----- -- ----<br>-------- ------- -- ---------- --- - --- ----- ----- ----<br>---- --- --- ----- --- ---- ---- ------- ----- ---- -------<br>--- --- -- ----- -- --- ---- -- --- ---- -- ------ ------<br>--- ----- -- ----,109504.09999999963,109501.59999999963,108163.734,108176.29999999888,108180.445,109517.325,,4,having
screen,html.Screen,2_1_0_1_5,2022-02-18T13:05:42.339Z,,,,,,,,,,,,,,,,,53,,,,,,,,,,,,,,390.2749999996304,,response,,,,99,,,,,,,Space,keypress(Space),,,,,,,,---- -- ----- -- ------ a ------- --- ----------<br>------------- ------ ------ ---- ---- ------- ----- -- ----<br>-------- ------- -- ---------- --- - --- ----- ----- ----<br>---- --- --- ----- --- ---- ---- ------- ----- ---- -------<br>--- --- -- ----- -- --- ---- -- --- ---- -- ------ ------<br>--- ----- -- ----,109909.90000000037,109907.59999999963,109500.614,109504.29999999888,109517.325,109918.389,,5,a
screen,html.Screen,2_1_0_1_6,2022-02-18T13:05:42.607Z,,,,,,,,,,,,,,,,,53,,,,,,,,,,,,,,256.2109999996319,,response,,,,99,,,,,,,Space,keypress(Space),,,,,,,,---- -- ----- -- ------ - lasting --- ----------<br>------------- ------ ------ ---- ---- ------- ----- -- ----<br>-------- ------- -- ---------- --- - --- ----- ----- ----<br>---- --- --- ----- --- ---- ---- ------- ----- ---- -------<br>--- --- -- ----- -- --- ---- -- --- ---- -- ------ ------<br>--- ----- -- ----,110177.00000000186,110174.59999999963,109901.678,109910.00000000186,109918.389,110185.765,,6,lasting
screen,html.Screen,2_1_0_1_7,2022-02-18T13:05:42.939Z,,,,,,,,,,,,,,,,,53,,,,,,,,,,,,,,320.83499999962805,,response,,,,99,,,,,,,Space,keypress(Space),,,,,,,,---- -- ----- -- ------ - ------- and ----------<br>------------- ------ ------ ---- ---- ------- ----- -- ----<br>-------- ------- -- ---------- --- - --- ----- ----- ----<br>---- --- --- ----- --- ---- ---- ------- ----- ---- -------<br>--- --- -- ----- -- --- ---- -- --- ---- -- ------ ------<br>--- ----- -- ----,110509.00000000186,110506.59999999963,110169.054,110177.29999999888,110185.765,110519.985,,7,and
screen,html.Screen,2_1_0_1_8,2022-02-18T13:05:43.245Z,,,,,,,,,,,,,,,,,53,,,,,,,,,,,,,,293.51500000186206,,response,,,,99,,,,,,,Space,keypress(Space),,,,,,,,---- -- ----- -- ------ - ------- --- fulfilling<br>------------- ------ ------ ---- ---- ------- ----- -- ----<br>-------- ------- -- ---------- --- - --- ----- ----- ----<br>---- --- --- ----- --- ---- ---- ------- ----- ---- -------<br>--- --- -- ----- -- --- ---- -- --- ---- -- ------ ------<br>--- ----- -- ----,110815.79999999888,110813.50000000186,110503.274,110509.29999999888,110519.985,110820.783,,8,fulfilling
screen,html.Screen,2_1_0_1_9,2022-02-18T13:05:43.651Z,,,,,,,,,,,,,,,,,53,,,,,,,,,,,,,,397.71700000186684,,response,,,,99,,,,,,,Space,keypress(Space),,,,,,,,"---- -- ----- -- ------ - ------- --- ----------<br>relationship, ------ ------ ---- ---- ------- ----- -- ----<br>-------- ------- -- ---------- --- - --- ----- ----- ----<br>---- --- --- ----- --- ---- ---- ------- ----- ---- -------<br>--- --- -- ----- -- --- ---- -- --- ---- -- ------ ------<br>--- ----- -- ----",111221.29999999888,111218.50000000186,110804.072,110816.00000000186,110820.783,111238.558,,9,"relationship,"
screen,html.Screen,2_1_0_1_10,2022-02-18T13:05:44.032Z,,,,,,,,,,,,,,,,,53,,,,,,,,,,,,,,361.842000000368,,response,,,,99,,,,,,,Space,keypress(Space),,,,,,,,---- -- ----- -- ------ - ------- --- ----------<br>------------- common ------ ---- ---- ------- ----- -- ----<br>-------- ------- -- ---------- --- - --- ----- ----- ----<br>---- --- --- ----- --- ---- ---- ------- ----- ---- -------<br>--- --- -- ----- -- --- ---- -- --- ---- -- ------ ------<br>--- ----- -- ----,111602.79999999888,111600.40000000037,111221.847,111221.59999999963,111238.558,111606.2,,10,common
screen,html.Screen,2_1_0_1_11,2022-02-18T13:05:44.396Z,,,,,,,,,,,,,,,,,53,,,,,,,,,,,,,,357.20000000037544,,response,,,,99,,,,,,,Space,keypress(Space),,,,,,,,---- -- ----- -- ------ - ------- --- ----------<br>------------- ------ wisdom ---- ---- ------- ----- -- ----<br>-------- ------- -- ---------- --- - --- ----- ----- ----<br>---- --- --- ----- --- ---- ---- ------- ----- ---- -------<br>--- --- -- ----- -- --- ---- -- --- ---- -- ------ ------<br>--- ----- -- ----,111966.00000000186,111963.40000000037,111589.489,111603.00000000186,111606.2,111973.842,,11,wisdom
screen,html.Screen,2_1_0_1_12,2022-02-18T13:05:44.784Z,,,,,,,,,,,,,,,,,53,,,,,,,,,,,,,,377.55800000036834,,response,,,,99,,,,,,,Space,keypress(Space),,,,,,,,---- -- ----- -- ------ - ------- --- ----------<br>------------- ------ ------ says ---- ------- ----- -- ----<br>-------- ------- -- ---------- --- - --- ----- ----- ----<br>---- --- --- ----- --- ---- ---- ------- ----- ---- -------<br>--- --- -- ----- -- --- ---- -- --- ---- -- ------ ------<br>--- ----- -- ----,112354.09999999963,112351.40000000037,111957.131,111966.20000000112,111973.842,112358.195,,12,says
screen,html.Screen,2_1_0_1_13,2022-02-18T13:05:45.178Z,,,,,,,,,,,,,,,,,53,,,,,,,,,,,,,,388.20500000036554,,response,,,,99,,,,,,,Space,keypress(Space),,,,,,,,---- -- ----- -- ------ - ------- --- ----------<br>------------- ------ ------ ---- that ------- ----- -- ----<br>-------- ------- -- ---------- --- - --- ----- ----- ----<br>---- --- --- ----- --- ---- ---- ------- ----- ---- -------<br>--- --- -- ----- -- --- ---- -- --- ---- -- ------ ------<br>--- ----- -- ----,112748.90000000037,112746.40000000037,112341.484,112354.40000000037,112358.195,112759.259,,13,that
screen,html.Screen,2_1_0_1_14,2022-02-18T13:05:45.556Z,,,,,,,,,,,,,,,,,53,,,,,,,,,,,,,,365.14100000036706,,response,,,,99,,,,,,,Space,keypress(Space),,,,,,,,---- -- ----- -- ------ - ------- --- ----------<br>------------- ------ ------ ---- ---- feeling ----- -- ----<br>-------- ------- -- ---------- --- - --- ----- ----- ----<br>---- --- --- ----- --- ---- ---- ------- ----- ---- -------<br>--- --- -- ----- -- --- ---- -- --- ---- -- ------ ------<br>--- ----- -- ----,113126.59999999963,113124.40000000037,112742.548,112749.20000000112,112759.259,113143.612,,14,feeling
screen,html.Screen,2_1_0_1_15,2022-02-18T13:05:45.892Z,,,,,,,,,,,,,,,,,53,,,,,,,,,,,,,,316.7880000003788,,response,,,,99,,,,,,,Space,keypress(Space),,,,,,,,---- -- ----- -- ------ - ------- --- ----------<br>------------- ------ ------ ---- ---- ------- close -- ----<br>-------- ------- -- ---------- --- - --- ----- ----- ----<br>---- --- --- ----- --- ---- ---- ------- ----- ---- -------<br>--- --- -- ----- -- --- ---- -- --- ---- -- ------ ------<br>--- ----- -- ----,113462.59999999963,113460.40000000037,113126.901,113126.90000000037,113143.612,113477.832,,15,close
screen,html.Screen,2_1_0_1_16,2022-02-18T13:05:46.517Z,,,,,,,,,,,,,,,,,53,,,,,,,,,,,,,,607.2679999996326,,response,,,,99,,,,,,,Space,keypress(Space),,,,,,,,---- -- ----- -- ------ - ------- --- ----------<br>------------- ------ ------ ---- ---- ------- ----- to ----<br>-------- ------- -- ---------- --- - --- ----- ----- ----<br>---- --- --- ----- --- ---- ---- ------- ----- ---- -------<br>--- --- -- ----- -- --- ---- -- --- ---- -- ------ ------<br>--- ----- -- ----,114087.79999999888,114085.09999999963,113461.121,113462.90000000037,113477.832,114096.139,,16,to
screen,html.Screen,2_1_0_1_17,2022-02-18T13:05:46.819Z,,,,,,,,,,,,,,,,,53,,,,,,,,,,,,,,291.16099999888684,,response,,,,99,,,,,,,Space,keypress(Space),,,,,,,,---- -- ----- -- ------ - ------- --- ----------<br>------------- ------ ------ ---- ---- ------- ----- -- your<br>-------- ------- -- ---------- --- - --- ----- ----- ----<br>---- --- --- ----- --- ---- ---- ------- ----- ---- -------<br>--- --- -- ----- -- --- ---- -- --- ---- -- ------ ------<br>--- ----- -- ----,114389.70000000112,114387.29999999888,114079.428,114088.00000000186,114096.139,114396.937,,17,your
screen,html.Screen,2_1_0_1_18,2022-02-18T13:05:47.109Z,,,,,,,,,,,,,,,,,53,,,,,,,,,,,,,,280.26300000111223,,response,,,,99,,,,,,,Space,keypress(Space),,,,,,,,---- -- ----- -- ------ - ------- --- ----------<br>------------- ------ ------ ---- ---- ------- ----- -- ----<br>romantic ------- -- ---------- --- - --- ----- ----- ----<br>---- --- --- ----- --- ---- ---- ------- ----- ---- -------<br>--- --- -- ----- -- --- ---- -- --- ---- -- ------ ------<br>--- ----- -- ----,114679.50000000186,114677.20000000112,114380.226,114390.00000000186,114396.937,114681.024,,18,romantic
screen,html.Screen,2_1_0_1_19,2022-02-18T13:05:47.481Z,,,,,,,,,,,,,,,,,53,,,,,,,,,,,,,,368.1760000011127,,response,,,,99,,,,,,,Space,keypress(Space),,,,,,,,---- -- ----- -- ------ - ------- --- ----------<br>------------- ------ ------ ---- ---- ------- ----- -- ----<br>-------- partner -- ---------- --- - --- ----- ----- ----<br>---- --- --- ----- --- ---- ---- ------- ----- ---- -------<br>--- --- -- ----- -- --- ---- -- --- ---- -- ------ ------<br>--- ----- -- ----,115051.70000000112,115049.20000000112,114664.313,114679.79999999888,114681.024,115065.377,,19,partner
screen,html.Screen,2_1_0_1_20,2022-02-18T13:05:47.803Z,,,,,,,,,,,,,,,,,53,,,,,,,,,,,,,,305.82300000112446,,response,,,,99,,,,,,,Space,keypress(Space),,,,,,,,---- -- ----- -- ------ - ------- --- ----------<br>------------- ------ ------ ---- ---- ------- ----- -- ----<br>-------- ------- is ---------- --- - --- ----- ----- ----<br>---- --- --- ----- --- ---- ---- ------- ----- ---- -------<br>--- --- -- ----- -- --- ---- -- --- ---- -- ------ ------<br>--- ----- -- ----,115373.70000000112,115371.20000000112,115048.666,115052.00000000186,115065.377,115382.886,,20,is
screen,html.Screen,2_1_0_1_21,2022-02-18T13:05:48.129Z,,,,,,,,,,,,,,,,,53,,,,,,,,,,,,,,314.314000001119,,response,,,,99,,,,,,,Space,keypress(Space),,,,,,,,---- -- ----- -- ------ - ------- --- ----------<br>------------- ------ ------ ---- ---- ------- ----- -- ----<br>-------- ------- -- paramount. --- - --- ----- ----- ----<br>---- --- --- ----- --- ---- ---- ------- ----- ---- -------<br>--- --- -- ----- -- --- ---- -- --- ---- -- ------ ------<br>--- ----- -- ----,115699.70000000112,115697.20000000112,115366.175,115373.90000000037,115382.886,115717.293,,21,paramount.
screen,html.Screen,2_1_0_1_22,2022-02-18T13:05:48.496Z,,,,,,,,,,,,,,,,,53,,,,,,,,,,,,,,346.80699999962235,,response,,,,99,,,,,,,Space,keypress(Space),,,,,,,,---- -- ----- -- ------ - ------- --- ----------<br>------------- ------ ------ ---- ---- ------- ----- -- ----<br>-------- ------- -- ---------- But - --- ----- ----- ----<br>---- --- --- ----- --- ---- ---- ------- ----- ---- -------<br>--- --- -- ----- -- --- ---- -- --- ---- -- ------ ------<br>--- ----- -- ----,116066.50000000186,116064.09999999963,115700.582,115699.90000000037,115717.293,116068.224,,22,But
screen,html.Screen,2_1_0_1_23,2022-02-18T13:05:48.841Z,,,,,,,,,,,,,,,,,53,,,,,,,,,,,,,,340.9760000011156,,response,,,,99,,,,,,,Space,keypress(Space),,,,,,,,---- -- ----- -- ------ - ------- --- ----------<br>------------- ------ ------ ---- ---- ------- ----- -- ----<br>-------- ------- -- ---------- --- a --- ----- ----- ----<br>---- --- --- ----- --- ---- ---- ------- ----- ---- -------<br>--- --- -- ----- -- --- ---- -- --- ---- -- ------ ------<br>--- ----- -- ----,116411.59999999963,116409.20000000112,116051.513,116066.79999999888,116068.224,116419.155,,23,a
screen,html.Screen,2_1_0_1_24,2022-02-18T13:05:49.141Z,,,,,,,,,,,,,,,,,53,,,,,,,,,,,,,,290.04500000111875,,response,,,,99,,,,,,,Space,keypress(Space),,,,,,,,---- -- ----- -- ------ - ------- --- ----------<br>------------- ------ ------ ---- ---- ------- ----- -- ----<br>-------- ------- -- ---------- --- - new ----- ----- ----<br>---- --- --- ----- --- ---- ---- ------- ----- ---- -------<br>--- --- -- ----- -- --- ---- -- --- ---- -- ------ ------<br>--- ----- -- ----,116711.59999999963,116709.20000000112,116402.444,116411.90000000037,116419.155,116719.953,,24,new
screen,html.Screen,2_1_0_1_25,2022-02-18T13:05:49.415Z,,,,,,,,,,,,,,,,,53,,,,,,,,,,,,,,263.0470000018686,,response,,,,99,,,,,,,Space,keypress(Space),,,,,,,,---- -- ----- -- ------ - ------- --- ----------<br>------------- ------ ------ ---- ---- ------- ----- -- ----<br>-------- ------- -- ---------- --- - --- study ----- ----<br>---- --- --- ----- --- ---- ---- ------- ----- ---- -------<br>--- --- -- ----- -- --- ---- -- --- ---- -- ------ ------<br>--- ----- -- ----,116985.40000000037,116983.00000000186,116703.242,116711.79999999888,116719.953,116987.329,,25,study
screen,html.Screen,2_1_0_1_26,2022-02-18T13:05:49.678Z,,,,,,,,,,,,,,,,,53,,,,,,,,,,,,,,257.77099999962957,,response,,,,99,,,,,,,Space,keypress(Space),,,,,,,,---- -- ----- -- ------ - ------- --- ----------<br>------------- ------ ------ ---- ---- ------- ----- -- ----<br>-------- ------- -- ---------- --- - --- ----- finds ----<br>---- --- --- ----- --- ---- ---- ------- ----- ---- -------<br>--- --- -- ----- -- --- ---- -- --- ---- -- ------ ------<br>--- ----- -- ----,117247.90000000037,117245.09999999963,116970.618,116985.70000000112,116987.329,117254.705,,26,finds
screen,html.Screen,2_1_0_1_27,2022-02-18T13:05:49.965Z,,,,,,,,,,,,,,,,,53,,,,,,,,,,,,,,278.3949999996257,,response,,,,99,,,,,,,Space,keypress(Space),,,,,,,,---- -- ----- -- ------ - ------- --- ----------<br>------------- ------ ------ ---- ---- ------- ----- -- ----<br>-------- ------- -- ---------- --- - --- ----- ----- that<br>---- --- --- ----- --- ---- ---- ------- ----- ---- -------<br>--- --- -- ----- -- --- ---- -- --- ---- -- ------ ------<br>--- ----- -- ----,117535.50000000186,117533.09999999963,117237.994,117248.29999999888,117254.705,117538.792,,27,that
screen,html.Screen,2_1_0_1_28,2022-02-18T13:05:50.299Z,,,,,,,,,,,,,,,,,53,,,,,,,,,,,,,,328.20800000186136,,response,,,,99,,,,,,,Space,keypress(Space),,,,,,,,---- -- ----- -- ------ - ------- --- ----------<br>------------- ------ ------ ---- ---- ------- ----- -- ----<br>-------- ------- -- ---------- --- - --- ----- ----- ----<br>it's --- --- ----- --- ---- ---- ------- ----- ---- -------<br>--- --- -- ----- -- --- ---- -- --- ---- -- ------ ------<br>--- ----- -- ----,117869.20000000112,117867.00000000186,117522.081,117535.79999999888,117538.792,117873.012,,28,it's
screen,html.Screen,2_1_0_1_29,2022-02-18T13:05:50.614Z,,,,,,,,,,,,,,,,,53,,,,,,,,,,,,,,309.087999999625,,response,,,,99,,,,,,,Space,keypress(Space),,,,,,,,---- -- ----- -- ------ - ------- --- ----------<br>------------- ------ ------ ---- ---- ------- ----- -- ----<br>-------- ------- -- ---------- --- - --- ----- ----- ----<br>---- not --- ----- --- ---- ---- ------- ----- ---- -------<br>--- --- -- ----- -- --- ---- -- --- ---- -- ------ ------<br>--- ----- -- ----,118184.50000000186,118182.09999999963,117856.301,117869.59999999963,117873.012,118190.521,,29,not
screen,html.Screen,2_1_0_1_30,2022-02-18T13:05:50.910Z,,,,,,,,,,,,,,,,,53,,,,,,,,,,,,,,287.37900000037916,,response,,,,99,,,,,,,Space,keypress(Space),,,,,,,,---- -- ----- -- ------ - ------- --- ----------<br>------------- ------ ------ ---- ---- ------- ----- -- ----<br>-------- ------- -- ---------- --- - --- ----- ----- ----<br>---- --- how ----- --- ---- ---- ------- ----- ---- -------<br>--- --- -- ----- -- --- ---- -- --- ---- -- ------ ------<br>--- ----- -- ----,118480.40000000037,118477.90000000037,118173.81,118184.79999999888,118190.521,118491.319,,30,how
screen,html.Screen,2_1_0_1_31,2022-02-18T13:05:51.243Z,,,,,,,,,,,,,,,,,53,,,,,,,,,,,,,,319.6810000018595,,response,,,,99,,,,,,,Space,keypress(Space),,,,,,,,---- -- ----- -- ------ - ------- --- ----------<br>------------- ------ ------ ---- ---- ------- ----- -- ----<br>-------- ------- -- ---------- --- - --- ----- ----- ----<br>---- --- --- close --- ---- ---- ------- ----- ---- -------<br>--- --- -- ----- -- --- ---- -- --- ---- -- ------ ------<br>--- ----- -- ----,118813.29999999888,118811.00000000186,118474.608,118480.59999999963,118491.319,118825.539,,31,close
screen,html.Screen,2_1_0_1_32,2022-02-18T13:05:51.573Z,,,,,,,,,,,,,,,,,53,,,,,,,,,,,,,,315.3610000003682,,response,,,,99,,,,,,,Space,keypress(Space),,,,,,,,---- -- ----- -- ------ - ------- --- ----------<br>------------- ------ ------ ---- ---- ------- ----- -- ----<br>-------- ------- -- ---------- --- - --- ----- ----- ----<br>---- --- --- ----- you ---- ---- ------- ----- ---- -------<br>--- --- -- ----- -- --- ---- -- --- ---- -- ------ ------<br>--- ----- -- ----,119143.50000000186,119140.90000000037,118808.828,118813.59999999963,118825.539,119159.759,,32,you
screen,html.Screen,2_1_0_1_33,2022-02-18T13:05:51.937Z,,,,,,,,,,,,,,,,,53,,,,,,,,,,,,,,345.14100000036706,,response,,,,99,,,,,,,Space,keypress(Space),,,,,,,,---- -- ----- -- ------ - ------- --- ----------<br>------------- ------ ------ ---- ---- ------- ----- -- ----<br>-------- ------- -- ---------- --- - --- ----- ----- ----<br>---- --- --- ----- --- feel ---- ------- ----- ---- -------<br>--- --- -- ----- -- --- ---- -- --- ---- -- ------ ------<br>--- ----- -- ----,119507.29999999888,119504.90000000037,119143.048,119143.59999999963,119159.759,119510.69,,33,feel
screen,html.Screen,2_1_0_1_34,2022-02-18T13:05:52.237Z,,,,,,,,,,,,,,,,,53,,,,,,,,,,,,,,293.2100000003702,,response,,,,99,,,,,,,Space,keypress(Space),,,,,,,,---- -- ----- -- ------ - ------- --- ----------<br>------------- ------ ------ ---- ---- ------- ----- -- ----<br>-------- ------- -- ---------- --- - --- ----- ----- ----<br>---- --- --- ----- --- ---- that ------- ----- ---- -------<br>--- --- -- ----- -- --- ---- -- --- ---- -- ------ ------<br>--- ----- -- ----,119806.70000000112,119803.90000000037,119493.979,119507.59999999963,119510.69,119811.488,,34,that
screen,html.Screen,2_1_0_1_35,2022-02-18T13:05:52.621Z,,,,,,,,,,,,,,,,,53,,,,,,,,,,,,,,377.412000000375,,response,,,,99,,,,,,,Space,keypress(Space),,,,,,,,---- -- ----- -- ------ - ------- --- ----------<br>------------- ------ ------ ---- ---- ------- ----- -- ----<br>-------- ------- -- ---------- --- - --- ----- ----- ----<br>---- --- --- ----- --- ---- ---- matters ----- ---- -------<br>--- --- -- ----- -- --- ---- -- --- ---- -- ------ ------<br>--- ----- -- ----,120191.40000000037,120188.90000000037,119794.777,119807.00000000186,119811.488,120195.841,,35,matters
screen,html.Screen,2_1_0_1_36,2022-02-18T13:05:52.974Z,,,,,,,,,,,,,,,,,53,,,,,,,,,,,,,,346.0590000003722,,response,,,,99,,,,,,,Space,keypress(Space),,,,,,,,"---- -- ----- -- ------ - ------- --- ----------<br>------------- ------ ------ ---- ---- ------- ----- -- ----<br>-------- ------- -- ---------- --- - --- ----- ----- ----<br>---- --- --- ----- --- ---- ---- ------- most, ---- -------<br>--- --- -- ----- -- --- ---- -- --- ---- -- ------ ------<br>--- ----- -- ----",120544.50000000186,120541.90000000037,120179.13,120191.79999999888,120195.841,120546.772,,36,"most,"
screen,html.Screen,2_1_0_1_37,2022-02-18T13:05:53.321Z,,,,,,,,,,,,,,,,,53,,,,,,,,,,,,,,342.1280000003753,,response,,,,99,,,,,,,Space,keypress(Space),,,,,,,,---- -- ----- -- ------ - ------- --- ----------<br>------------- ------ ------ ---- ---- ------- ----- -- ----<br>-------- ------- -- ---------- --- - --- ----- ----- ----<br>---- --- --- ----- --- ---- ---- ------- ----- it's -------<br>--- --- -- ----- -- --- ---- -- --- ---- -- ------ ------<br>--- ----- -- ----,120891.59999999963,120888.90000000037,120530.061,120544.59999999963,120546.772,120897.703,,37,it's
screen,html.Screen,2_1_0_1_38,2022-02-18T13:05:53.663Z,,,,,,,,,,,,,,,,,53,,,,,,,,,,,,,,333.09699999888835,,response,,,,99,,,,,,,Space,keypress(Space),,,,,,,,---- -- ----- -- ------ - ------- --- ----------<br>------------- ------ ------ ---- ---- ------- ----- -- ----<br>-------- ------- -- ---------- --- - --- ----- ----- ----<br>---- --- --- ----- --- ---- ---- ------- ----- ---- whether<br>--- --- -- ----- -- --- ---- -- --- ---- -- ------ ------<br>--- ----- -- ----,121233.29999999888,121230.79999999888,120880.992,120891.79999999888,120897.703,121248.634,,38,whether
screen,html.Screen,2_1_0_1_39,2022-02-18T13:05:53.997Z,,,,,,,,,,,,,,,,,53,,,,,,,,,,,,,,315.16599999887694,,response,,,,99,,,,,,,Space,keypress(Space),,,,,,,,---- -- ----- -- ------ - ------- --- ----------<br>------------- ------ ------ ---- ---- ------- ----- -- ----<br>-------- ------- -- ---------- --- - --- ----- ----- ----<br>---- --- --- ----- --- ---- ---- ------- ----- ---- -------<br>you --- -- ----- -- --- ---- -- --- ---- -- ------ ------<br>--- ----- -- ----,121567.50000000186,121563.79999999888,121231.923,121233.50000000186,121248.634,121582.854,,39,you
screen,html.Screen,2_1_0_1_40,2022-02-18T13:05:54.314Z,,,,,,,,,,,,,,,,,53,,,,,,,,,,,,,,298.9459999988758,,response,,,,99,,,,,,,Space,keypress(Space),,,,,,,,---- -- ----- -- ------ - ------- --- ----------<br>------------- ------ ------ ---- ---- ------- ----- -- ----<br>-------- ------- -- ---------- --- - --- ----- ----- ----<br>---- --- --- ----- --- ---- ---- ------- ----- ---- -------<br>--- are -- ----- -- --- ---- -- --- ---- -- ------ ------<br>--- ----- -- ----,121884.20000000112,121881.79999999888,121566.143,121567.70000000112,121582.854,121900.363,,40,are
screen,html.Screen,2_1_0_1_41,2022-02-18T13:05:54.648Z,,,,,,,,,,,,,,,,,53,,,,,,,,,,,,,,315.33700000112003,,response,,,,99,,,,,,,Space,keypress(Space),,,,,,,,---- -- ----- -- ------ - ------- --- ----------<br>------------- ------ ------ ---- ---- ------- ----- -- ----<br>-------- ------- -- ---------- --- - --- ----- ----- ----<br>---- --- --- ----- --- ---- ---- ------- ----- ---- -------<br>--- --- as ----- -- --- ---- -- --- ---- -- ------ ------<br>--- ----- -- ----,122218.20000000112,122215.70000000112,121883.652,121884.40000000037,121900.363,122234.583,,41,as
screen,html.Screen,2_1_0_1_42,2022-02-18T13:05:54.984Z,,,,,,,,,,,,,,,,,53,,,,,,,,,,,,,,317.11700000111887,,response,,,,99,,,,,,,Space,keypress(Space),,,,,,,,---- -- ----- -- ------ - ------- --- ----------<br>------------- ------ ------ ---- ---- ------- ----- -- ----<br>-------- ------- -- ---------- --- - --- ----- ----- ----<br>---- --- --- ----- --- ---- ---- ------- ----- ---- -------<br>--- --- -- close -- --- ---- -- --- ---- -- ------ ------<br>--- ----- -- ----,122554.40000000037,122551.70000000112,122217.872,122218.29999999888,122234.583,122568.803,,42,close
screen,html.Screen,2_1_0_1_43,2022-02-18T13:05:55.367Z,,,,,,,,,,,,,,,,,53,,,,,,,,,,,,,,365.8970000011177,,response,,,,99,,,,,,,Space,keypress(Space),,,,,,,,---- -- ----- -- ------ - ------- --- ----------<br>------------- ------ ------ ---- ---- ------- ----- -- ----<br>-------- ------- -- ---------- --- - --- ----- ----- ----<br>---- --- --- ----- --- ---- ---- ------- ----- ---- -------<br>--- --- -- ----- as --- ---- -- --- ---- -- ------ ------<br>--- ----- -- ----,122937.29999999888,122934.70000000112,122552.092,122554.59999999963,122568.803,122953.156,,43,as
screen,html.Screen,2_1_0_1_44,2022-02-18T13:05:55.645Z,,,,,,,,,,,,,,,,,53,,,,,,,,,,,,,,259.5440000011149,,response,,,,99,,,,,,,Space,keypress(Space),,,,,,,,---- -- ----- -- ------ - ------- --- ----------<br>------------- ------ ------ ---- ---- ------- ----- -- ----<br>-------- ------- -- ---------- --- - --- ----- ----- ----<br>---- --- --- ----- --- ---- ---- ------- ----- ---- -------<br>--- --- -- ----- -- you ---- -- --- ---- -- ------ ------<br>--- ----- -- ----,123215.29999999888,123212.70000000112,122936.445,122937.59999999963,122953.156,123220.532,,44,you
screen,html.Screen,2_1_0_1_45,2022-02-18T13:05:55.921Z,,,,,,,,,,,,,,,,,53,,,,,,,,,,,,,,268.06799999962095,,response,,,,99,,,,,,,Space,keypress(Space),,,,,,,,---- -- ----- -- ------ - ------- --- ----------<br>------------- ------ ------ ---- ---- ------- ----- -- ----<br>-------- ------- -- ---------- --- - --- ----- ----- ----<br>---- --- --- ----- --- ---- ---- ------- ----- ---- -------<br>--- --- -- ----- -- --- want -- --- ---- -- ------ ------<br>--- ----- -- ----,123491.00000000186,123488.59999999963,123203.821,123215.50000000186,123220.532,123504.619,,45,want
screen,html.Screen,2_1_0_1_46,2022-02-18T13:05:56.259Z,,,,,,,,,,,,,,,,,53,,,,,,,,,,,,,,322.08100000111153,,response,,,,99,,,,,,,Space,keypress(Space),,,,,,,,---- -- ----- -- ------ - ------- --- ----------<br>------------- ------ ------ ---- ---- ------- ----- -- ----<br>-------- ------- -- ---------- --- - --- ----- ----- ----<br>---- --- --- ----- --- ---- ---- ------- ----- ---- -------<br>--- --- -- ----- -- --- ---- to --- ---- -- ------ ------<br>--- ----- -- ----,123829.09999999963,123826.70000000112,123487.908,123491.09999999963,123504.619,123838.839,,46,to
screen,html.Screen,2_1_0_1_47,2022-02-18T13:05:56.547Z,,,,,,,,,,,,,,,,,53,,,,,,,,,,,,,,275.76099999962025,,response,,,,99,,,,,,,Space,keypress(Space),,,,,,,,"---- -- ----- -- ------ - ------- --- ----------<br>------------- ------ ------ ---- ---- ------- ----- -- ----<br>-------- ------- -- ---------- --- - --- ----- ----- ----<br>---- --- --- ----- --- ---- ---- ------- ----- ---- -------<br>--- --- -- ----- -- --- ---- -- be, ---- -- ------ ------<br>--- ----- -- ----",124117.09999999963,124114.59999999963,123822.128,123829.20000000112,123838.839,124122.926,,47,"be,"
screen,html.Screen,2_1_0_1_48,2022-02-18T13:05:56.864Z,,,,,,,,,,,,,,,,,53,,,,,,,,,,,,,,308.6739999996207,,response,,,,99,,,,,,,Space,keypress(Space),,,,,,,,---- -- ----- -- ------ - ------- --- ----------<br>------------- ------ ------ ---- ---- ------- ----- -- ----<br>-------- ------- -- ---------- --- - --- ----- ----- ----<br>---- --- --- ----- --- ---- ---- ------- ----- ---- -------<br>--- --- -- ----- -- --- ---- -- --- even -- ------ ------<br>--- ----- -- ----,124434.00000000186,124431.59999999963,124106.215,124117.29999999888,124122.926,124440.435,,48,even
screen,html.Screen,2_1_0_1_49,2022-02-18T13:05:57.188Z,,,,,,,,,,,,,,,,,53,,,,,,,,,,,,,,315.1649999996298,,response,,,,99,,,,,,,Space,keypress(Space),,,,,,,,---- -- ----- -- ------ - ------- --- ----------<br>------------- ------ ------ ---- ---- ------- ----- -- ----<br>-------- ------- -- ---------- --- - --- ----- ----- ----<br>---- --- --- ----- --- ---- ---- ------- ----- ---- -------<br>--- --- -- ----- -- --- ---- -- --- ---- if ------ ------<br>--- ----- -- ----,124757.90000000037,124755.59999999963,124423.724,124434.29999999888,124440.435,124774.655,,49,if
screen,html.Screen,2_1_0_1_50,2022-02-18T13:05:57.494Z,,,,,,,,,,,,,,,,,53,,,,,,,,,,,,,,286.94499999962864,,response,,,,99,,,,,,,Space,keypress(Space),,,,,,,,---- -- ----- -- ------ - ------- --- ----------<br>------------- ------ ------ ---- ---- ------- ----- -- ----<br>-------- ------- -- ---------- --- - --- ----- ----- ----<br>---- --- --- ----- --- ---- ---- ------- ----- ---- -------<br>--- --- -- ----- -- --- ---- -- --- ---- -- that's ------<br>--- ----- -- ----,125064.00000000186,125061.59999999963,124757.944,124758.20000000112,124774.655,125075.453,,50,that's
screen,html.Screen,2_1_0_1_51,2022-02-18T13:05:57.804Z,,,,,,,,,,,,,,,,,53,,,,,,,,,,,,,,296.1469999996334,,response,,,,99,,,,,,,Space,keypress(Space),,,,,,,,---- -- ----- -- ------ - ------- --- ----------<br>------------- ------ ------ ---- ---- ------- ----- -- ----<br>-------- ------- -- ---------- --- - --- ----- ----- ----<br>---- --- --- ----- --- ---- ---- ------- ----- ---- -------<br>--- --- -- ----- -- --- ---- -- --- ---- -- ------ really<br>--- ----- -- ----,125374.00000000186,125371.59999999963,125058.742,125064.20000000112,125075.453,125376.251,,51,really
screen,html.Screen,2_1_0_1_52,2022-02-18T13:05:58.179Z,,,,,,,,,,,,,,,,,53,,,,,,,,,,,,,,370.2490000018588,,response,,,,99,,,,,,,Space,keypress(Space),,,,,,,,---- -- ----- -- ------ - ------- --- ----------<br>------------- ------ ------ ---- ---- ------- ----- -- ----<br>-------- ------- -- ---------- --- - --- ----- ----- ----<br>---- --- --- ----- --- ---- ---- ------- ----- ---- -------<br>--- --- -- ----- -- --- ---- -- --- ---- -- ------ ------<br>not ----- -- ----,125749.00000000186,125746.50000000186,125359.54,125374.20000000112,125376.251,125760.78,,52,not
screen,html.Screen,2_1_0_1_53,2022-02-18T13:05:58.482Z,,,,,,,,,,,,,,,,,53,,,,,,,,,,,,,,288.7200000018638,,response,,,,99,,,,,,,Space,keypress(Space),,,,,,,,---- -- ----- -- ------ - ------- --- ----------<br>------------- ------ ------ ---- ---- ------- ----- -- ----<br>-------- ------- -- ---------- --- - --- ----- ----- ----<br>---- --- --- ----- --- ---- ---- ------- ----- ---- -------<br>--- --- -- ----- -- --- ---- -- --- ---- -- ------ ------<br>--- close -- ----,126052.00000000186,126049.50000000186,125744.069,125749.20000000112,125760.78,126061.578,,53,close
screen,html.Screen,2_1_0_1_54,2022-02-18T13:05:59.133Z,,,,,,,,,,,,,,,,,53,,,,,,,,,,,,,,638.9220000018686,,response,,,,99,,,,,,,Space,keypress(Space),,,,,,,,---- -- ----- -- ------ - ------- --- ----------<br>------------- ------ ------ ---- ---- ------- ----- -- ----<br>-------- ------- -- ---------- --- - --- ----- ----- ----<br>---- --- --- ----- --- ---- ---- ------- ----- ---- -------<br>--- --- -- ----- -- --- ---- -- --- ---- -- ------ ------<br>--- ----- at ----,126702.90000000037,126700.50000000186,126044.867,126052.09999999963,126061.578,126713.307,,54,at
screen,html.Screen,2_1_0_1_55,2022-02-18T13:05:59.355Z,,,,,,,,,,,,,,,,,53,,,,,,,,,,,,,,209.19300000186195,,response,,,,99,,,,,,,Space,keypress(Space),,,,,,,,---- -- ----- -- ------ - ------- --- ----------<br>------------- ------ ------ ---- ---- ------- ----- -- ----<br>-------- ------- -- ---------- --- - --- ----- ----- ----<br>---- --- --- ----- --- ---- ---- ------- ----- ---- -------<br>--- --- -- ----- -- --- ---- -- --- ---- -- ------ ------<br>--- ----- -- all.,126924.59999999963,126922.50000000186,126696.596,126703.09999999963,126713.307,126930.55,,55,all.
Item 99,flow.Loop,2_1_0_1,2022-02-18T13:05:59.355Z,,,,,,,,,,,,,,,,,,,,,,,,,,,,,,,21198.76700000187,,completion,,,,,F,,,,,,,,,,,silence,,,,,126925.09999999963,126922.50000000186,105707.022,105709.20000000112,105723.733,126930.55,,,
Question 1,html.Screen,2_1_0_2,2022-02-18T13:06:04.366Z,,,,,,,,,,,,,,,,,,,,,,,,,,,,true,FALSE,,5003.35000000037,,response,,,,99,F,,,,,,FALSE,click #choice-2,,,,silence,,,,,131936.09999999963,131933.90000000037,126913.839,126925.20000000112,126930.55,131960.561,,,
Question 2,html.Screen,2_1_0_3,2022-02-18T13:06:09.158Z,,,,,,,,,,,,,,,,,,,,,,,,,,,,true,TRUE,,4765.439000001876,,response,,,,99,F,,,,,,TRUE,click #choice-1,,,,silence,,,,,136727.79999999888,136726.00000000186,131943.85,131936.29999999888,131960.561,136740.109,,,
Item 99,flow.Sequence,2_1_0,2022-02-18T13:06:09.159Z,,,,,,,,,,,,,,,,,,,,,,,,,,,,,,,40995.83700000186,,completion,,,,,,,,,,,,,,,,,,,,,136728.09999999963,136726.00000000186,95713.452,95724.59999999963,95730.163,136740.109,,,
Holding screen,html.Screen,2_1_1_0,2022-02-18T13:06:19.150Z,,,,,,,,,,,,,,,,,,,,,,,,,,,,,,,9993.178000000014,,timeout,,,,,,,,,,,,,,,,,,,,,146719.09999999963,146716.576,136723.398,136728.20000000112,136740.109,146733.287,,,
screen,html.Screen,2_1_1_1_0,2022-02-18T13:06:20.077Z,,,,,,,,,,,,,,,,,54,,,,,,,,,,,,,,909.7130000018515,,response,,,,100,,,,,,,Space,keypress(Space),,,,,,,,At --- ---- --- ------ ----- ------- ---- -- --- ------- --<br>------- ---------- ------ -- ----- -- ----- -- ---- ------<br>--- ----- --- --- ------ -------- ----- --- ------ ----- --<br>----- ----- ---------- --- --- ------ ------ ---- -- ------<br>------- --- ------ ----- --- ---- ------- -- ---- --- --<br>------- ------,147646.00000000186,147643.00000000186,146716.576,146719.20000000112,146733.287,147652.55,,0,At
screen,html.Screen,2_1_1_1_1,2022-02-18T13:06:20.681Z,,,,,,,,,,,,,,,,,54,,,,,,,,,,,,,,595.3500000003842,,response,,,,100,,,,,,,Space,keypress(Space),,,,,,,,-- the ---- --- ------ ----- ------- ---- -- --- ------- --<br>------- ---------- ------ -- ----- -- ----- -- ---- ------<br>--- ----- --- --- ------ -------- ----- --- ------ ----- --<br>----- ----- ---------- --- --- ------ ------ ---- -- ------<br>------- --- ------ ----- --- ---- ------- -- ---- --- --<br>------- ------,148250.29999999888,148247.90000000037,147635.839,147646.09999999963,147652.55,148254.146,,1,the
screen,html.Screen,2_1_1_1_2,2022-02-18T13:06:21.098Z,,,,,,,,,,,,,,,,,54,,,,,,,,,,,,,,411.45399999961955,,response,,,,100,,,,,,,Space,keypress(Space),,,,,,,,-- --- time --- ------ ----- ------- ---- -- --- ------- --<br>------- ---------- ------ -- ----- -- ----- -- ---- ------<br>--- ----- --- --- ------ -------- ----- --- ------ ----- --<br>----- ----- ---------- --- --- ------ ------ ---- -- ------<br>------- --- ------ ----- --- ---- ------- -- ---- --- --<br>------- ------,148667.40000000037,148665.59999999963,148237.435,148250.50000000186,148254.146,148671.921,,2,time
screen,html.Screen,2_1_1_1_3,2022-02-18T13:06:21.448Z,,,,,,,,,,,,,,,,,54,,,,,,,,,,,,,,342.8789999988803,,response,,,,100,,,,,,,Space,keypress(Space),,,,,,,,-- --- ---- the ------ ----- ------- ---- -- --- ------- --<br>------- ---------- ------ -- ----- -- ----- -- ---- ------<br>--- ----- --- --- ------ -------- ----- --- ------ ----- --<br>----- ----- ---------- --- --- ------ ------ ---- -- ------<br>------- --- ------ ----- --- ---- ------- -- ---- --- --<br>------- ------,149017.20000000112,149014.79999999888,148655.21,148667.59999999963,148671.921,149022.852,,3,the
screen,html.Screen,2_1_1_1_4,2022-02-18T13:06:21.790Z,,,,,,,,,,,,,,,,,54,,,,,,,,,,,,,,333.9479999988689,,response,,,,100,,,,,,,Space,keypress(Space),,,,,,,,-- --- ---- --- French ----- ------- ---- -- --- ------- --<br>------- ---------- ------ -- ----- -- ----- -- ---- ------<br>--- ----- --- --- ------ -------- ----- --- ------ ----- --<br>----- ----- ---------- --- --- ------ ------ ---- -- ------<br>------- --- ------ ----- --- ---- ------- -- ---- --- --<br>------- ------,149359.29999999888,149356.79999999888,149006.141,149017.29999999888,149022.852,149373.783,,4,French
screen,html.Screen,2_1_1_1_5,2022-02-18T13:06:22.103Z,,,,,,,,,,,,,,,,,54,,,,,,,,,,,,,,296.0169999988866,,response,,,,100,,,,,,,Space,keypress(Space),,,,,,,,-- --- ---- --- ------ crown ------- ---- -- --- ------- --<br>------- ---------- ------ -- ----- -- ----- -- ---- ------<br>--- ----- --- --- ------ -------- ----- --- ------ ----- --<br>----- ----- ---------- --- --- ------ ------ ---- -- ------<br>------- --- ------ ----- --- ---- ------- -- ---- --- --<br>------- ------,149672.09999999963,149669.79999999888,149357.072,149359.50000000186,149373.783,149674.581,,5,crown
screen,html.Screen,2_1_1_1_6,2022-02-18T13:06:22.443Z,,,,,,,,,,,,,,,,,54,,,,,,,,,,,,,,335.2189999988768,,response,,,,100,,,,,,,Space,keypress(Space),,,,,,,,-- --- ---- --- ------ ----- secured ---- -- --- ------- --<br>------- ---------- ------ -- ----- -- ----- -- ---- ------<br>--- ----- --- --- ------ -------- ----- --- ------ ----- --<br>----- ----- ---------- --- --- ------ ------ ---- -- ------<br>------- --- ------ ----- --- ---- ------- -- ---- --- --<br>------- ------,150012.09999999963,150009.79999999888,149657.87,149672.29999999888,149674.581,150025.512,,6,secured
screen,html.Screen,2_1_1_1_7,2022-02-18T13:06:22.830Z,,,,,,,,,,,,,,,,,54,,,,,,,,,,,,,,371.1880000011297,,response,,,,100,,,,,,,Space,keypress(Space),,,,,,,,-- --- ---- --- ------ ----- ------- much -- --- ------- --<br>------- ---------- ------ -- ----- -- ----- -- ---- ------<br>--- ----- --- --- ------ -------- ----- --- ------ ----- --<br>----- ----- ---------- --- --- ------ ------ ---- -- ------<br>------- --- ------ ----- --- ---- ------- -- ---- --- --<br>------- ------,150399.09999999963,150396.70000000112,150008.801,150012.50000000186,150025.512,150409.865,,7,much
screen,html.Screen,2_1_1_1_8,2022-02-18T13:06:23.208Z,,,,,,,,,,,,,,,,,54,,,,,,,,,,,,,,364.9349999988917,,response,,,,100,,,,,,,Space,keypress(Space),,,,,,,,-- --- ---- --- ------ ----- ------- ---- of --- ------- --<br>------- ---------- ------ -- ----- -- ----- -- ---- ------<br>--- ----- --- --- ------ -------- ----- --- ------ ----- --<br>----- ----- ---------- --- --- ------ ------ ---- -- ------<br>------- --- ------ ----- --- ---- ------- -- ---- --- --<br>------- ------,150777.29999999888,150774.79999999888,150393.154,150399.29999999888,150409.865,150794.218,,8,of
screen,html.Screen,2_1_1_1_9,2022-02-18T13:06:23.588Z,,,,,,,,,,,,,,,,,54,,,,,,,,,,,,,,360.4820000011241,,response,,,,100,,,,,,,Space,keypress(Space),,,,,,,,-- --- ---- --- ------ ----- ------- ---- -- its ------- --<br>------- ---------- ------ -- ----- -- ----- -- ---- ------<br>--- ----- --- --- ------ -------- ----- --- ------ ----- --<br>----- ----- ---------- --- --- ------ ------ ---- -- ------<br>------- --- ------ ----- --- ---- ------- -- ---- --- --<br>------- ------,151157.09999999963,151154.70000000112,150777.507,150777.70000000112,150794.218,151161.86,,9,its
screen,html.Screen,2_1_1_1_10,2022-02-18T13:06:23.943Z,,,,,,,,,,,,,,,,,54,,,,,,,,,,,,,,347.73999999964144,,response,,,,100,,,,,,,Space,keypress(Space),,,,,,,,-- --- ---- --- ------ ----- ------- ---- -- --- revenue --<br>------- ---------- ------ -- ----- -- ----- -- ---- ------<br>--- ----- --- --- ------ -------- ----- --- ------ ----- --<br>----- ----- ---------- --- --- ------ ------ ---- -- ------<br>------- --- ------ ----- --- ---- ------- -- ---- --- --<br>------- ------,151512.09999999963,151509.59999999963,151145.149,151157.40000000037,151161.86,151529.502,,10,revenue
screen,html.Screen,2_1_1_1_11,2022-02-18T13:06:26.521Z,,,,,,,,,,,,,,,,,54,,,,,,,,,,,,,,2558.09799999962,,response,,,,100,,,,,,,Space,keypress(Space),,,,,,,,-- --- ---- --- ------ ----- ------- ---- -- --- ------- by<br>------- ---------- ------ -- ----- -- ----- -- ---- ------<br>--- ----- --- --- ------ -------- ----- --- ------ ----- --<br>----- ----- ---------- --- --- ------ ------ ---- -- ------<br>------- --- ------ ----- --- ---- ------- -- ---- --- --<br>------- ------,154089.90000000037,154087.59999999963,151512.791,151512.29999999888,151529.502,154102.996,,11,by
screen,html.Screen,2_1_1_1_12,2022-02-18T13:06:26.908Z,,,,,,,,,,,,,,,,,54,,,,,,,,,,,,,,371.4040000003588,,response,,,,100,,,,,,,Space,keypress(Space),,,,,,,,-- --- ---- --- ------ ----- ------- ---- -- --- ------- --<br>issuing ---------- ------ -- ----- -- ----- -- ---- ------<br>--- ----- --- --- ------ -------- ----- --- ------ ----- --<br>----- ----- ---------- --- --- ------ ------ ---- -- ------<br>------- --- ------ ----- --- ---- ------- -- ---- --- --<br>------- ------,154476.90000000037,154474.40000000037,154086.285,154090.20000000112,154102.996,154487.349,,12,issuing
screen,html.Screen,2_1_1_1_13,2022-02-18T13:06:27.407Z,,,,,,,,,,,,,,,,,54,,,,,,,,,,,,,,485.0510000003851,,response,,,,100,,,,,,,Space,keypress(Space),,,,,,,,-- --- ---- --- ------ ----- ------- ---- -- --- ------- --<br>------- government ------ -- ----- -- ----- -- ---- ------<br>--- ----- --- --- ------ -------- ----- --- ------ ----- --<br>----- ----- ---------- --- --- ------ ------ ---- -- ------<br>------- --- ------ ----- --- ---- ------- -- ---- --- --<br>------- ------,154976.09999999963,154972.40000000037,154470.638,154477.09999999963,154487.349,154988.679,,13,government
screen,html.Screen,2_1_1_1_14,2022-02-18T13:06:27.827Z,,,,,,,,,,,,,,,,,54,,,,,,,,,,,,,,404.7210000003688,,response,,,,100,,,,,,,Space,keypress(Space),,,,,,,,-- --- ---- --- ------ ----- ------- ---- -- --- ------- --<br>------- ---------- bonds. -- ----- -- ----- -- ---- ------<br>--- ----- --- --- ------ -------- ----- --- ------ ----- --<br>----- ----- ---------- --- --- ------ ------ ---- -- ------<br>------- --- ------ ----- --- ---- ------- -- ---- --- --<br>------- ------,155395.79999999888,155393.40000000037,154971.968,154976.29999999888,154988.679,155406.454,,14,bonds.
screen,html.Screen,2_1_1_1_15,2022-02-18T13:06:28.296Z,,,,,,,,,,,,,,,,,54,,,,,,,,,,,,,,455.9460000003746,,response,,,,100,,,,,,,Space,keypress(Space),,,,,,,,-- --- ---- --- ------ ----- ------- ---- -- --- ------- --<br>------- ---------- ------ In ----- -- ----- -- ---- ------<br>--- ----- --- --- ------ -------- ----- --- ------ ----- --<br>----- ----- ---------- --- --- ------ ------ ---- -- ------<br>------- --- ------ ----- --- ---- ------- -- ---- --- --<br>------- ------,155864.90000000037,155862.40000000037,155389.743,155396.09999999963,155406.454,155874.362,,15,In
screen,html.Screen,2_1_1_1_16,2022-02-18T13:06:28.659Z,,,,,,,,,,,,,,,,,54,,,,,,,,,,,,,,351.0380000003788,,response,,,,100,,,,,,,Space,keypress(Space),,,,,,,,"-- --- ---- --- ------ ----- ------- ---- -- --- ------- --<br>------- ---------- ------ -- 1727, -- ----- -- ---- ------<br>--- ----- --- --- ------ -------- ----- --- ------ ----- --<br>----- ----- ---------- --- --- ------ ------ ---- -- ------<br>------- --- ------ ----- --- ---- ------- -- ---- --- --<br>------- ------",156227.90000000037,156225.40000000037,155857.651,155865.09999999963,155874.362,156242.004,,16,"1727,"
screen,html.Screen,2_1_1_1_17,2022-02-18T13:06:29.153Z,,,,,,,,,,,,,,,,,54,,,,,,,,,,,,,,477.29599999889615,,response,,,,100,,,,,,,Space,keypress(Space),,,,,,,,-- --- ---- --- ------ ----- ------- ---- -- --- ------- --<br>------- ---------- ------ -- ----- in ----- -- ---- ------<br>--- ----- --- --- ------ -------- ----- --- ------ ----- --<br>----- ----- ---------- --- --- ------ ------ ---- -- ------<br>------- --- ------ ----- --- ---- ------- -- ---- --- --<br>------- ------,156721.90000000037,156719.29999999888,156225.293,156228.09999999963,156242.004,156726.783,,17,in
screen,html.Screen,2_1_1_1_18,2022-02-18T13:06:29.529Z,,,,,,,,,,,,,,,,,54,,,,,,,,,,,,,,368.6170000003767,,response,,,,100,,,,,,,Space,keypress(Space),,,,,,,,-- --- ---- --- ------ ----- ------- ---- -- --- ------- --<br>------- ---------- ------ -- ----- -- order -- ---- ------<br>--- ----- --- --- ------ -------- ----- --- ------ ----- --<br>----- ----- ---------- --- --- ------ ------ ---- -- ------<br>------- --- ------ ----- --- ---- ------- -- ---- --- --<br>------- ------,157098.00000000186,157095.40000000037,156710.072,156722.09999999963,156726.783,157111.136,,18,order
screen,html.Screen,2_1_1_1_19,2022-02-18T13:06:29.844Z,,,,,,,,,,,,,,,,,54,,,,,,,,,,,,,,299.1639999988838,,response,,,,100,,,,,,,Space,keypress(Space),,,,,,,,-- --- ---- --- ------ ----- ------- ---- -- --- ------- --<br>------- ---------- ------ -- ----- -- ----- to ---- ------<br>--- ----- --- --- ------ -------- ----- --- ------ ----- --<br>----- ----- ---------- --- --- ------ ------ ---- -- ------<br>------- --- ------ ----- --- ---- ------- -- ---- --- --<br>------- ------,157412.90000000037,157410.29999999888,157094.425,157098.20000000112,157111.136,157428.645,,19,to
screen,html.Screen,2_1_1_1_20,2022-02-18T13:06:30.122Z,,,,,,,,,,,,,,,,,54,,,,,,,,,,,,,,258.55500000112806,,response,,,,100,,,,,,,Space,keypress(Space),,,,,,,,-- --- ---- --- ------ ----- ------- ---- -- --- ------- --<br>------- ---------- ------ -- ----- -- ----- -- save ------<br>--- ----- --- --- ------ -------- ----- --- ------ ----- --<br>----- ----- ---------- --- --- ------ ------ ---- -- ------<br>------- --- ------ ----- --- ---- ------- -- ---- --- --<br>------- ------,157690.29999999888,157687.20000000112,157411.934,157413.09999999963,157428.645,157696.021,,20,save
screen,html.Screen,2_1_1_1_21,2022-02-18T13:06:30.413Z,,,,,,,,,,,,,,,,,54,,,,,,,,,,,,,,283.2789999988745,,response,,,,100,,,,,,,Space,keypress(Space),,,,,,,,"-- --- ---- --- ------ ----- ------- ---- -- --- ------- --<br>------- ---------- ------ -- ----- -- ----- -- ---- money,<br>--- ----- --- --- ------ -------- ----- --- ------ ----- --<br>----- ----- ---------- --- --- ------ ------ ---- -- ------<br>------- --- ------ ----- --- ---- ------- -- ---- --- --<br>------- ------",157981.59999999963,157979.29999999888,157679.31,157690.50000000186,157696.021,157996.819,,21,"money,"
screen,html.Screen,2_1_1_1_22,2022-02-18T13:06:30.714Z,,,,,,,,,,,,,,,,,54,,,,,,,,,,,,,,283.58100000038394,,response,,,,100,,,,,,,Space,keypress(Space),,,,,,,,-- --- ---- --- ------ ----- ------- ---- -- --- ------- --<br>------- ---------- ------ -- ----- -- ----- -- ---- ------<br>the ----- --- --- ------ -------- ----- --- ------ ----- --<br>----- ----- ---------- --- --- ------ ------ ---- -- ------<br>------- --- ------ ----- --- ---- ------- -- ---- --- --<br>------- ------,158282.90000000037,158280.40000000037,157980.108,157981.70000000112,157996.819,158297.617,,22,the
screen,html.Screen,2_1_1_1_23,2022-02-18T13:06:30.998Z,,,,,,,,,,,,,,,,,54,,,,,,,,,,,,,,266.5830000011192,,response,,,,100,,,,,,,Space,keypress(Space),,,,,,,,-- --- ---- --- ------ ----- ------- ---- -- --- ------- --<br>------- ---------- ------ -- ----- -- ----- -- ---- ------<br>--- state --- --- ------ -------- ----- --- ------ ----- --<br>----- ----- ---------- --- --- ------ ------ ---- -- ------<br>------- --- ------ ----- --- ---- ------- -- ---- --- --<br>------- ------,158566.90000000037,158564.20000000112,158280.906,158283.09999999963,158297.617,158581.704,,23,state
screen,html.Screen,2_1_1_1_24,2022-02-18T13:06:31.272Z,,,,,,,,,,,,,,,,,54,,,,,,,,,,,,,,255.29600000186474,,response,,,,100,,,,,,,Space,keypress(Space),,,,,,,,-- --- ---- --- ------ ----- ------- ---- -- --- ------- --<br>------- ---------- ------ -- ----- -- ----- -- ---- ------<br>--- ----- cut --- ------ -------- ----- --- ------ ----- --<br>----- ----- ---------- --- --- ------ ------ ---- -- ------<br>------- --- ------ ----- --- ---- ------- -- ---- --- --<br>------- ------,158840.59999999963,158837.00000000186,158564.993,158567.09999999963,158581.704,158849.08,,24,cut
screen,html.Screen,2_1_1_1_25,2022-02-18T13:06:31.526Z,,,,,,,,,,,,,,,,,54,,,,,,,,,,,,,,243.01999999964028,,response,,,,100,,,,,,,Space,keypress(Space),,,,,,,,-- --- ---- --- ------ ----- ------- ---- -- --- ------- --<br>------- ---------- ------ -- ----- -- ----- -- ---- ------<br>--- ----- --- the ------ -------- ----- --- ------ ----- --<br>----- ----- ---------- --- --- ------ ------ ---- -- ------<br>------- --- ------ ----- --- ---- ------- -- ---- --- --<br>------- ------,159094.70000000112,159092.09999999963,158832.369,158840.90000000037,158849.08,159099.745,,25,the
screen,html.Screen,2_1_1_1_26,2022-02-18T13:06:31.767Z,,,,,,,,,,,,,,,,,54,,,,,,,,,,,,,,233.45500000112224,,response,,,,100,,,,,,,Space,keypress(Space),,,,,,,,-- --- ---- --- ------ ----- ------- ---- -- --- ------- --<br>------- ---------- ------ -- ----- -- ----- -- ---- ------<br>--- ----- --- --- bonds' -------- ----- --- ------ ----- --<br>----- ----- ---------- --- --- ------ ------ ---- -- ------<br>------- --- ------ ----- --- ---- ------- -- ---- --- --<br>------- ------,159336.00000000186,159333.20000000112,159083.034,159094.90000000037,159099.745,159350.41,,26,bonds'
screen,html.Screen,2_1_1_1_27,2022-02-18T13:06:32.012Z,,,,,,,,,,,,,,,,,54,,,,,,,,,,,,,,227.68999999962398,,response,,,,100,,,,,,,Space,keypress(Space),,,,,,,,-- --- ---- --- ------ ----- ------- ---- -- --- ------- --<br>------- ---------- ------ -- ----- -- ----- -- ---- ------<br>--- ----- --- --- ------ interest ----- --- ------ ----- --<br>----- ----- ---------- --- --- ------ ------ ---- -- ------<br>------- --- ------ ----- --- ---- ------- -- ---- --- --<br>------- ------,159580.70000000112,159578.09999999963,159333.699,159336.20000000112,159350.41,159584.364,,27,interest
screen,html.Screen,2_1_1_1_28,2022-02-18T13:06:32.290Z,,,,,,,,,,,,,,,,,54,,,,,,,,,,,,,,271.7359999996261,,response,,,,100,,,,,,,Space,keypress(Space),,,,,,,,-- --- ---- --- ------ ----- ------- ---- -- --- ------- --<br>------- ---------- ------ -- ----- -- ----- -- ---- ------<br>--- ----- --- --- ------ -------- rate. --- ------ ----- --<br>----- ----- ---------- --- --- ------ ------ ---- -- ------<br>------- --- ------ ----- --- ---- ------- -- ---- --- --<br>------- ------,159858.50000000186,159856.09999999963,159567.653,159580.90000000037,159584.364,159868.451,,28,rate.
screen,html.Screen,2_1_1_1_29,2022-02-18T13:06:32.561Z,,,,,,,,,,,,,,,,,54,,,,,,,,,,,,,,258.74900000111666,,response,,,,100,,,,,,,Space,keypress(Space),,,,,,,,-- --- ---- --- ------ ----- ------- ---- -- --- ------- --<br>------- ---------- ------ -- ----- -- ----- -- ---- ------<br>--- ----- --- --- ------ -------- ----- The ------ ----- --<br>----- ----- ---------- --- --- ------ ------ ---- -- ------<br>------- --- ------ ----- --- ---- ------- -- ---- --- --<br>------- ------,160129.29999999888,160127.20000000112,159851.74,159858.79999999888,159868.451,160135.827,,29,The
screen,html.Screen,2_1_1_1_30,2022-02-18T13:06:32.845Z,,,,,,,,,,,,,,,,,54,,,,,,,,,,,,,,275.1730000018724,,response,,,,100,,,,,,,Space,keypress(Space),,,,,,,,-- --- ---- --- ------ ----- ------- ---- -- --- ------- --<br>------- ---------- ------ -- ----- -- ----- -- ---- ------<br>--- ----- --- --- ------ -------- ----- --- market ----- --<br>----- ----- ---------- --- --- ------ ------ ---- -- ------<br>------- --- ------ ----- --- ---- ------- -- ---- --- --<br>------- ------,160413.20000000112,160411.00000000186,160119.116,160129.50000000186,160135.827,160419.914,,30,market
screen,html.Screen,2_1_1_1_31,2022-02-18T13:06:33.142Z,,,,,,,,,,,,,,,,,54,,,,,,,,,,,,,,288.1859999996377,,response,,,,100,,,,,,,Space,keypress(Space),,,,,,,,-- --- ---- --- ------ ----- ------- ---- -- --- ------- --<br>------- ---------- ------ -- ----- -- ----- -- ---- ------<br>--- ----- --- --- ------ -------- ----- --- ------ value --<br>----- ----- ---------- --- --- ------ ------ ---- -- ------<br>------- --- ------ ----- --- ---- ------- -- ---- --- --<br>------- ------,160710.29999999888,160708.09999999963,160403.203,160413.50000000186,160419.914,160720.712,,31,value
screen,html.Screen,2_1_1_1_32,2022-02-18T13:06:33.562Z,,,,,,,,,,,,,,,,,54,,,,,,,,,,,,,,407.188000000373,,response,,,,100,,,,,,,Space,keypress(Space),,,,,,,,-- --- ---- --- ------ ----- ------- ---- -- --- ------- --<br>------- ---------- ------ -- ----- -- ----- -- ---- ------<br>--- ----- --- --- ------ -------- ----- --- ------ ----- of<br>----- ----- ---------- --- --- ------ ------ ---- -- ------<br>------- --- ------ ----- --- ---- ------- -- ---- --- --<br>------- ------,161130.50000000186,161127.90000000037,160704.001,160710.40000000037,160720.712,161138.487,,32,of
screen,html.Screen,2_1_1_1_33,2022-02-18T13:06:33.839Z,,,,,,,,,,,,,,,,,54,,,,,,,,,,,,,,266.51300000186893,,response,,,,100,,,,,,,Space,keypress(Space),,,,,,,,-- --- ---- --- ------ ----- ------- ---- -- --- ------- --<br>------- ---------- ------ -- ----- -- ----- -- ---- ------<br>--- ----- --- --- ------ -------- ----- --- ------ ----- --<br>these ----- ---------- --- --- ------ ------ ---- -- ------<br>------- --- ------ ----- --- ---- ------- -- ---- --- --<br>------- ------,161407.50000000186,161405.00000000186,161121.776,161130.90000000037,161138.487,161422.574,,33,these
screen,html.Screen,2_1_1_1_34,2022-02-18T13:06:34.172Z,,,,,,,,,,,,,,,,,54,,,,,,,,,,,,,,315.3260000003793,,response,,,,100,,,,,,,Space,keypress(Space),,,,,,,,-- --- ---- --- ------ ----- ------- ---- -- --- ------- --<br>------- ---------- ------ -- ----- -- ----- -- ---- ------<br>--- ----- --- --- ------ -------- ----- --- ------ ----- --<br>----- bonds ---------- --- --- ------ ------ ---- -- ------<br>------- --- ------ ----- --- ---- ------- -- ---- --- --<br>------- ------,161740.40000000037,161737.90000000037,161405.863,161407.59999999963,161422.574,161756.794,,34,bonds
screen,html.Screen,2_1_1_1_35,2022-02-18T13:06:34.431Z,,,,,,,,,,,,,,,,,54,,,,,,,,,,,,,,240.20600000186823,,response,,,,100,,,,,,,Space,keypress(Space),,,,,,,,"-- --- ---- --- ------ ----- ------- ---- -- --- ------- --<br>------- ---------- ------ -- ----- -- ----- -- ---- ------<br>--- ----- --- --- ------ -------- ----- --- ------ ----- --<br>----- ----- plummeted, --- --- ------ ------ ---- -- ------<br>------- --- ------ ----- --- ---- ------- -- ---- --- --<br>------- ------",161999.40000000037,161997.00000000186,161740.083,161740.50000000186,161756.794,162007.459,,35,"plummeted,"
screen,html.Screen,2_1_1_1_36,2022-02-18T13:06:34.734Z,,,,,,,,,,,,,,,,,54,,,,,,,,,,,,,,292.44100000036997,,response,,,,100,,,,,,,Space,keypress(Space),,,,,,,,-- --- ---- --- ------ ----- ------- ---- -- --- ------- --<br>------- ---------- ------ -- ----- -- ----- -- ---- ------<br>--- ----- --- --- ------ -------- ----- --- ------ ----- --<br>----- ----- ---------- and --- ------ ------ ---- -- ------<br>------- --- ------ ----- --- ---- ------- -- ---- --- --<br>------- ------,162302.09999999963,162299.90000000037,161990.748,161999.59999999963,162007.459,162308.257,,36,and
screen,html.Screen,2_1_1_1_37,2022-02-18T13:06:35.023Z,,,,,,,,,,,,,,,,,54,,,,,,,,,,,,,,280.6430000003602,,response,,,,100,,,,,,,Space,keypress(Space),,,,,,,,-- --- ---- --- ------ ----- ------- ---- -- --- ------- --<br>------- ---------- ------ -- ----- -- ----- -- ---- ------<br>--- ----- --- --- ------ -------- ----- --- ------ ----- --<br>----- ----- ---------- --- the ------ ------ ---- -- ------<br>------- --- ------ ----- --- ---- ------- -- ---- --- --<br>------- ------,162591.59999999963,162588.90000000037,162291.546,162302.29999999888,162308.257,162609.055,,37,the
screen,html.Screen,2_1_1_1_38,2022-02-18T13:06:35.289Z,,,,,,,,,,,,,,,,,54,,,,,,,,,,,,,,245.8450000003795,,response,,,,100,,,,,,,Space,keypress(Space),,,,,,,,-- --- ---- --- ------ ----- ------- ---- -- --- ------- --<br>------- ---------- ------ -- ----- -- ----- -- ---- ------<br>--- ----- --- --- ------ -------- ----- --- ------ ----- --<br>----- ----- ---------- --- --- market ------ ---- -- ------<br>------- --- ------ ----- --- ---- ------- -- ---- --- --<br>------- ------,162857.59999999963,162854.90000000037,162592.344,162591.79999999888,162609.055,162859.72,,38,market
screen,html.Screen,2_1_1_1_39,2022-02-18T13:06:35.551Z,,,,,,,,,,,,,,,,,54,,,,,,,,,,,,,,257.18000000037136,,response,,,,100,,,,,,,Space,keypress(Space),,,,,,,,-- --- ---- --- ------ ----- ------- ---- -- --- ------- --<br>------- ---------- ------ -- ----- -- ----- -- ---- ------<br>--- ----- --- --- ------ -------- ----- --- ------ ----- --<br>----- ----- ---------- --- --- ------ became ---- -- ------<br>------- --- ------ ----- --- ---- ------- -- ---- --- --<br>------- ------,163119.20000000112,163116.90000000037,162843.009,162857.90000000037,162859.72,163127.096,,39,became
screen,html.Screen,2_1_1_1_40,2022-02-18T13:06:35.834Z,,,,,,,,,,,,,,,,,54,,,,,,,,,,,,,,272.8040000003821,,response,,,,100,,,,,,,Space,keypress(Space),,,,,,,,-- --- ---- --- ------ ----- ------- ---- -- --- ------- --<br>------- ---------- ------ -- ----- -- ----- -- ---- ------<br>--- ----- --- --- ------ -------- ----- --- ------ ----- --<br>----- ----- ---------- --- --- ------ ------ wary -- ------<br>------- --- ------ ----- --- ---- ------- -- ---- --- --<br>------- ------,163402.40000000037,163399.90000000037,163110.385,163119.40000000037,163127.096,163411.183,,40,wary
screen,html.Screen,2_1_1_1_41,2022-02-18T13:06:36.150Z,,,,,,,,,,,,,,,,,54,,,,,,,,,,,,,,304.71700000038254,,response,,,,100,,,,,,,Space,keypress(Space),,,,,,,,-- --- ---- --- ------ ----- ------- ---- -- --- ------- --<br>------- ---------- ------ -- ----- -- ----- -- ---- ------<br>--- ----- --- --- ------ -------- ----- --- ------ ----- --<br>----- ----- ---------- --- --- ------ ------ ---- of ------<br>------- --- ------ ----- --- ---- ------- -- ---- --- --<br>------- ------,163718.59999999963,163715.90000000037,163394.472,163402.50000000186,163411.183,163728.692,,41,of
screen,html.Screen,2_1_1_1_42,2022-02-18T13:06:36.516Z,,,,,,,,,,,,,,,,,54,,,,,,,,,,,,,,353.2080000003625,,response,,,,100,,,,,,,Space,keypress(Space),,,,,,,,-- --- ---- --- ------ ----- ------- ---- -- --- ------- --<br>------- ---------- ------ -- ----- -- ----- -- ---- ------<br>--- ----- --- --- ------ -------- ----- --- ------ ----- --<br>----- ----- ---------- --- --- ------ ------ ---- -- French<br>------- --- ------ ----- --- ---- ------- -- ---- --- --<br>------- ------,164084.00000000186,164081.90000000037,163711.981,163718.79999999888,163728.692,164096.334,,42,French
screen,html.Screen,2_1_1_1_43,2022-02-18T13:06:37.286Z,,,,,,,,,,,,,,,,,54,,,,,,,,,,,,,,755.4659999988799,,response,,,,100,,,,,,,Space,keypress(Space),,,,,,,,-- --- ---- --- ------ ----- ------- ---- -- --- ------- --<br>------- ---------- ------ -- ----- -- ----- -- ---- ------<br>--- ----- --- --- ------ -------- ----- --- ------ ----- --<br>----- ----- ---------- --- --- ------ ------ ---- -- ------<br>credit. --- ------ ----- --- ---- ------- -- ---- --- --<br>------- ------,164854.20000000112,164851.79999999888,164079.623,164084.20000000112,164096.334,164865.04,,43,credit.
screen,html.Screen,2_1_1_1_44,2022-02-18T13:06:37.705Z,,,,,,,,,,,,,,,,,54,,,,,,,,,,,,,,405.75999999887426,,response,,,,100,,,,,,,Space,keypress(Space),,,,,,,,-- --- ---- --- ------ ----- ------- ---- -- --- ------- --<br>------- ---------- ------ -- ----- -- ----- -- ---- ------<br>--- ----- --- --- ------ -------- ----- --- ------ ----- --<br>----- ----- ---------- --- --- ------ ------ ---- -- ------<br>------- The ------ ----- --- ---- ------- -- ---- --- --<br>------- ------,165273.29999999888,165270.79999999888,164848.329,164854.50000000186,164865.04,165282.815,,44,The
screen,html.Screen,2_1_1_1_45,2022-02-18T13:06:38.126Z,,,,,,,,,,,,,,,,,54,,,,,,,,,,,,,,405.88500000111526,,response,,,,100,,,,,,,Space,keypress(Space),,,,,,,,-- --- ---- --- ------ ----- ------- ---- -- --- ------- --<br>------- ---------- ------ -- ----- -- ----- -- ---- ------<br>--- ----- --- --- ------ -------- ----- --- ------ ----- --<br>----- ----- ---------- --- --- ------ ------ ---- -- ------<br>------- --- French ----- --- ---- ------- -- ---- --- --<br>------- ------,165694.09999999963,165688.70000000112,165266.104,165273.50000000186,165282.815,165700.59,,45,French
screen,html.Screen,2_1_1_1_46,2022-02-18T13:06:38.469Z,,,,,,,,,,,,,,,,,54,,,,,,,,,,,,,,334.1100000011211,,response,,,,100,,,,,,,Space,keypress(Space),,,,,,,,-- --- ---- --- ------ ----- ------- ---- -- --- ------- --<br>------- ---------- ------ -- ----- -- ----- -- ---- ------<br>--- ----- --- --- ------ -------- ----- --- ------ ----- --<br>----- ----- ---------- --- --- ------ ------ ---- -- ------<br>------- --- ------ state --- ---- ------- -- ---- --- --<br>------- ------,166037.40000000037,166034.70000000112,165683.879,165694.29999999888,165700.59,166051.521,,46,state
screen,html.Screen,2_1_1_1_47,2022-02-18T13:06:38.862Z,,,,,,,,,,,,,,,,,54,,,,,,,,,,,,,,376.17900000110967,,response,,,,100,,,,,,,Space,keypress(Space),,,,,,,,-- --- ---- --- ------ ----- ------- ---- -- --- ------- --<br>------- ---------- ------ -- ----- -- ----- -- ---- ------<br>--- ----- --- --- ------ -------- ----- --- ------ ----- --<br>----- ----- ---------- --- --- ------ ------ ---- -- ------<br>------- --- ------ ----- was ---- ------- -- ---- --- --<br>------- ------,166429.79999999888,166427.70000000112,166034.81,166037.59999999963,166051.521,166435.874,,47,was
screen,html.Screen,2_1_1_1_48,2022-02-18T13:06:39.331Z,,,,,,,,,,,,,,,,,54,,,,,,,,,,,,,,460.72599999961676,,response,,,,100,,,,,,,Space,keypress(Space),,,,,,,,-- --- ---- --- ------ ----- ------- ---- -- --- ------- --<br>------- ---------- ------ -- ----- -- ----- -- ---- ------<br>--- ----- --- --- ------ -------- ----- --- ------ ----- --<br>----- ----- ---------- --- --- ------ ------ ---- -- ------<br>------- --- ------ ----- --- left ------- -- ---- --- --<br>------- ------,166899.70000000112,166896.59999999963,166419.163,166430.00000000186,166435.874,166903.987,,48,left
screen,html.Screen,2_1_1_1_49,2022-02-18T13:06:39.764Z,,,,,,,,,,,,,,,,,54,,,,,,,,,,,,,,425.61299999963376,,response,,,,100,,,,,,,Space,keypress(Space),,,,,,,,-- --- ---- --- ------ ----- ------- ---- -- --- ------- --<br>------- ---------- ------ -- ----- -- ----- -- ---- ------<br>--- ----- --- --- ------ -------- ----- --- ------ ----- --<br>----- ----- ---------- --- --- ------ ------ ---- -- ------<br>------- --- ------ ----- --- ---- without -- ---- --- --<br>------- ------,167332.00000000186,167329.59999999963,166887.276,166899.79999999888,166903.987,167338.473,,49,without
screen,html.Screen,2_1_1_1_50,2022-02-18T13:06:40.075Z,,,,,,,,,,,,,,,,,54,,,,,,,,,,,,,,302.22700000111945,,response,,,,100,,,,,,,Space,keypress(Space),,,,,,,,-- --- ---- --- ------ ----- ------- ---- -- --- ------- --<br>------- ---------- ------ -- ----- -- ----- -- ---- ------<br>--- ----- --- --- ------ -------- ----- --- ------ ----- --<br>----- ----- ---------- --- --- ------ ------ ---- -- ------<br>------- --- ------ ----- --- ---- ------- an ---- --- --<br>------- ------,167642.79999999888,167640.70000000112,167321.762,167332.29999999888,167338.473,167655.982,,50,an
screen,html.Screen,2_1_1_1_51,2022-02-18T13:06:40.454Z,,,,,,,,,,,,,,,,,54,,,,,,,,,,,,,,363.6179999996384,,response,,,,100,,,,,,,Space,keypress(Space),,,,,,,,-- --- ---- --- ------ ----- ------- ---- -- --- ------- --<br>------- ---------- ------ -- ----- -- ----- -- ---- ------<br>--- ----- --- --- ------ -------- ----- --- ------ ----- --<br>----- ----- ---------- --- --- ------ ------ ---- -- ------<br>------- --- ------ ----- --- ---- ------- -- easy --- --<br>------- ------,168022.40000000037,168019.59999999963,167639.271,167642.90000000037,167655.982,168040.335,,51,easy
screen,html.Screen,2_1_1_1_52,2022-02-18T13:06:40.832Z,,,,,,,,,,,,,,,,,54,,,,,,,,,,,,,,357.2649999996356,,response,,,,100,,,,,,,Space,keypress(Space),,,,,,,,-- --- ---- --- ------ ----- ------- ---- -- --- ------- --<br>------- ---------- ------ -- ----- -- ----- -- ---- ------<br>--- ----- --- --- ------ -------- ----- --- ------ ----- --<br>----- ----- ---------- --- --- ------ ------ ---- -- ------<br>------- --- ------ ----- --- ---- ------- -- ---- way --<br>------- ------,168400.09999999963,168397.59999999963,168023.624,168022.70000000112,168040.335,168407.977,,52,way
screen,html.Screen,2_1_1_1_53,2022-02-18T13:06:41.132Z,,,,,,,,,,,,,,,,,54,,,,,,,,,,,,,,288.7230000011041,,response,,,,100,,,,,,,Space,keypress(Space),,,,,,,,-- --- ---- --- ------ ----- ------- ---- -- --- ------- --<br>------- ---------- ------ -- ----- -- ----- -- ---- ------<br>--- ----- --- --- ------ -------- ----- --- ------ ----- --<br>----- ----- ---------- --- --- ------ ------ ---- -- ------<br>------- --- ------ ----- --- ---- ------- -- ---- --- of<br>------- ------,168700.29999999888,168696.70000000112,168391.266,168400.20000000112,168407.977,168708.775,,53,of
screen,html.Screen,2_1_1_1_54,2022-02-18T13:06:41.517Z,,,,,,,,,,,,,,,,,54,,,,,,,,,,,,,,373.72500000186847,,response,,,,100,,,,,,,Space,keypress(Space),,,,,,,,-- --- ---- --- ------ ----- ------- ---- -- --- ------- --<br>------- ---------- ------ -- ----- -- ----- -- ---- ------<br>--- ----- --- --- ------ -------- ----- --- ------ ----- --<br>----- ----- ---------- --- --- ------ ------ ---- -- ------<br>------- --- ------ ----- --- ---- ------- -- ---- --- --<br>raising ------,169084.90000000037,169082.50000000186,168692.064,168700.59999999963,168708.775,169093.128,,54,raising
screen,html.Screen,2_1_1_1_55,2022-02-18T13:06:41.832Z,,,,,,,,,,,,,,,,,54,,,,,,,,,,,,,,304.3720000018657,,response,,,,100,,,,,,,Space,keypress(Space),,,,,,,,-- --- ---- --- ------ ----- ------- ---- -- --- ------- --<br>------- ---------- ------ -- ----- -- ----- -- ---- ------<br>--- ----- --- --- ------ -------- ----- --- ------ ----- --<br>----- ----- ---------- --- --- ------ ------ ---- -- ------<br>------- --- ------ ----- --- ---- ------- -- ---- --- --<br>------- money.,169400.50000000186,169397.50000000186,169076.417,169085.20000000112,169093.128,169410.637,,55,money.
Item 100,flow.Loop,2_1_1_1,2022-02-18T13:06:41.833Z,,,,,,,,,,,,,,,,,,,,,,,,,,,,,,,22664.21300000185,,completion,,,,,F,,,,,,,,,,,silence,,,,,169400.90000000037,169397.50000000186,146716.576,146719.09999999963,146733.287,169410.637,,,
Question 1,html.Screen,2_1_1_2,2022-02-18T13:06:45.461Z,,,,,,,,,,,,,,,,,,,,,,,,,,,,true,TRUE,,3616.7630000003846,,response,,,,100,F,,,,,,TRUE,click #choice-1,,,,silence,,,,,173029.09999999963,173027.40000000037,169393.926,169401.00000000186,169410.637,173036.924,,,
Question 2,html.Screen,2_1_1_3,2022-02-18T13:06:47.615Z,,,,,,,,,,,,,,,,,,,,,,,,,,,,true,FALSE,,2144.3759999988833,,response,,,,100,F,,,,,,FALSE,click #choice-2,,,,silence,,,,,175183.00000000186,175181.29999999888,173020.213,173029.29999999888,173036.924,175192.643,,,
Item 100,flow.Sequence,2_1_1,2022-02-18T13:06:47.615Z,,,,,,,,,,,,,,,,,,,,,,,,,,,,,,,38441.190999998886,,completion,,,,,,,,,,,,,,,,,,,,,175183.20000000112,175181.29999999888,136723.398,136728.09999999963,136740.109,175192.643,,,
End of Practice,html.Page,2_1_2,2022-02-18T13:06:51.294Z,,,,,,,,,,,,,,,,,,,,,,,,,,,,,,,3668.7570000003616,,form submission,,,,,,,,,,,,,,,,,,,,,178861.79999999888,178861.40000000037,175175.932,175183.40000000037,175192.643,178869.063,,,
Practice,flow.Sequence,2_1,2022-02-18T13:06:51.294Z,,,,,,,,,,,,,,,,,,,,,,,,,,,,,,,83131.23700000037,,completion,,,,,,,,,,,,,,,,,,,,,178862.09999999963,178861.40000000037,95713.452,95724.50000000186,95730.163,178869.063,,,
Trap_instruction,html.Page,2_2_0,2022-02-18T13:06:54.960Z,,,,,,,,,,,,,,,,,,,,,,,,,,,,,,,3657.437000001868,,form submission,,,,,,,,,,,,,,,,,,,,,182527.09999999963,182526.50000000186,178852.352,178862.20000000112,178869.063,182562.329,,,
trap_trial,html.Screen,2_2_1,2022-02-18T13:06:58.460Z,,,,,,,,,,,,,,,,,,,,,,,,,,,,true,1,,3462.6710000018647,,response,,,,,,,,,,,1,click #choice-1,,,,,,,,,186026.90000000037,186025.00000000186,182512.196,182527.29999999888,182562.329,186038.217,,,
end of trap trial,html.Page,2_2_2,2022-02-18T13:07:00.141Z,,,,,,,,,,,,,,,,,,,,,,,,,,,,,,,1669.2830000018585,,form submission,,,,,,,,,,,,,,,,,,,,,187708.00000000186,187707.50000000186,186021.506,186027.09999999963,186038.217,187709.317,,,
Trap 1,flow.Sequence,2_2,2022-02-18T13:07:00.141Z,,,,,,,,,,,,,,,,,,,,,,,,,,,,,,,8838.437000001868,,completion,,,,,,,,,,,,,,,,,,,,,187708.29999999888,187707.50000000186,178852.352,178862.20000000112,178869.063,187709.317,,,
Standby,html.Page,2_3_0,2022-02-18T13:07:08.133Z,,,,,,,,,,,,,,,,,,,,,,,,,,,,,,,8004.568999999989,,timeout,,,,,,,,,,,,,,,,,,,,,195699.90000000037,195697.175,187692.606,187708.40000000037,187709.317,195713.886,,,
Holding screen,html.Screen,2_3_1_0_0,2022-02-18T13:07:15.135Z,,,,,,,,,,,,,,,,,,,,,,,,,,,,,,,7002.323000000004,,timeout,,,,,,,,,,,,,,,,,,,,,202701.79999999888,202699.498,195697.175,195700.09999999963,195713.886,202716.209,,,
screen,html.Screen,2_3_1_0_1_0,2022-02-18T13:07:15.897Z,,,,,,,,,,,,,,,,,2,,,,,,,,,,,,,,744.2910000018601,,response,,,,1,F,,,,,,Space,keypress(Space),,,,instrumental,,,,Two ---- ------ --- ------- ---------- ------- ----------<br>--- --------- --- ----------- ------- ----- ------- ---<br>--------- ---- -- --- ---- -- --------- -- ---- -------<br>-- --------- ------ --- ----- ------ ---- --- --------- --<br>------ - ---- -- --- ----------- ------- ---- ----- -----<br>--- -------- - ------ ---- -- ----- ---- --- --- -----------<br>-- -------,203463.70000000112,203460.50000000186,202699.498,202702.09999999963,202716.209,203468.204,,0,Two
screen,html.Screen,2_3_1_0_1_1,2022-02-18T13:07:16.670Z,,,,,,,,,,,,,,,,,2,,,,,,,,,,,,,,766.0959999988845,,response,,,,1,F,,,,,,Space,keypress(Space),,,,instrumental,,,,--- days ------ --- ------- ---------- ------- ----------<br>--- --------- --- ----------- ------- ----- ------- ---<br>--------- ---- -- --- ---- -- --------- -- ---- -------<br>-- --------- ------ --- ----- ------ ---- --- --------- --<br>------ - ---- -- --- ----------- ------- ---- ----- -----<br>--- -------- - ------ ---- -- ----- ---- --- --- -----------<br>-- -------,204236.59999999963,204234.29999999888,203451.493,203463.90000000037,203468.204,204253.621,,1,days
screen,html.Screen,2_3_1_0_1_2,2022-02-18T13:07:17.025Z,,,,,,,,,,,,,,,,,2,,,,,,,,,,,,,,336.1789999988687,,response,,,,1,F,,,,,,Space,keypress(Space),,,,instrumental,,,,"--- ---- later, --- ------- ---------- ------- ----------<br>--- --------- --- ----------- ------- ----- ------- ---<br>--------- ---- -- --- ---- -- --------- -- ---- -------<br>-- --------- ------ --- ----- ------ ---- --- --------- --<br>------ - ---- -- --- ----------- ------- ---- ----- -----<br>--- -------- - ------ ---- -- ----- ---- --- --- -----------<br>-- -------",204591.40000000037,204589.79999999888,204236.91,204236.79999999888,204253.621,204604.552,,2,"later,"
screen,html.Screen,2_3_1_0_1_3,2022-02-18T13:07:17.369Z,,,,,,,,,,,,,,,,,2,,,,,,,,,,,,,,328.54799999963143,,response,,,,1,F,,,,,,Space,keypress(Space),,,,instrumental,,,,--- ---- ------ the ------- ---------- ------- ----------<br>--- --------- --- ----------- ------- ----- ------- ---<br>--------- ---- -- --- ---- -- --------- -- ---- -------<br>-- --------- ------ --- ----- ------ ---- --- --------- --<br>------ - ---- -- --- ----------- ------- ---- ----- -----<br>--- -------- - ------ ---- -- ----- ---- --- --- -----------<br>-- -------,204935.50000000186,204933.09999999963,204587.841,204591.50000000186,204604.552,204938.772,,3,the
screen,html.Screen,2_3_1_0_1_4,2022-02-18T13:07:17.688Z,,,,,,,,,,,,,,,,,2,,,,,,,,,,,,,,311.32799999963026,,response,,,,1,F,,,,,,Space,keypress(Space),,,,instrumental,,,,--- ---- ------ --- British ---------- ------- ----------<br>--- --------- --- ----------- ------- ----- ------- ---<br>--------- ---- -- --- ---- -- --------- -- ---- -------<br>-- --------- ------ --- ----- ------ ---- --- --------- --<br>------ - ---- -- --- ----------- ------- ---- ----- -----<br>--- -------- - ------ ---- -- ----- ---- --- --- -----------<br>-- -------,205254.70000000112,205250.09999999963,204922.061,204935.59999999963,204938.772,205272.992,,4,British
screen,html.Screen,2_3_1_0_1_5,2022-02-18T13:07:17.960Z,,,,,,,,,,,,,,,,,2,,,,,,,,,,,,,,251.1079999996291,,response,,,,1,F,,,,,,Space,keypress(Space),,,,instrumental,,,,--- ---- ------ --- ------- astronomer ------- ----------<br>--- --------- --- ----------- ------- ----- ------- ---<br>--------- ---- -- --- ---- -- --------- -- ---- -------<br>-- --------- ------ --- ----- ------ ---- --- --------- --<br>------ - ---- -- --- ----------- ------- ---- ----- -----<br>--- -------- - ------ ---- -- ----- ---- --- --- -----------<br>-- -------,205526.59999999963,205524.09999999963,205256.281,205254.90000000037,205272.992,205540.368,,5,astronomer
screen,html.Screen,2_3_1_0_1_6,2022-02-18T13:07:18.243Z,,,,,,,,,,,,,,,,,2,,,,,,,,,,,,,,266.632000001875,,response,,,,1,F,,,,,,Space,keypress(Space),,,,instrumental,,,,--- ---- ------ --- ------- ---------- Richard ----------<br>--- --------- --- ----------- ------- ----- ------- ---<br>--------- ---- -- --- ---- -- --------- -- ---- -------<br>-- --------- ------ --- ----- ------ ---- --- --------- --<br>------ - ---- -- --- ----------- ------- ---- ----- -----<br>--- -------- - ------ ---- -- ----- ---- --- --- -----------<br>-- -------,205809.59999999963,205807.00000000186,205523.657,205526.70000000112,205540.368,205824.455,,6,Richard
screen,html.Screen,2_3_1_0_1_7,2022-02-18T13:07:18.848Z,,,,,,,,,,,,,,,,,2,,,,,,,,,,,,,,587.4450000003853,,response,,,,1,F,,,,,,Space,keypress(Space),,,,instrumental,,,,--- ---- ------ --- ------- ---------- ------- Carrington<br>--- --------- --- ----------- ------- ----- ------- ---<br>--------- ---- -- --- ---- -- --------- -- ---- -------<br>-- --------- ------ --- ----- ------ ---- --- --------- --<br>------ - ---- -- --- ----------- ------- ---- ----- -----<br>--- -------- - ------ ---- -- ----- ---- --- --- -----------<br>-- -------,206414.40000000037,206411.90000000037,205807.744,205809.79999999888,205824.455,206426.051,,7,Carrington
screen,html.Screen,2_3_1_0_1_8,2022-02-18T13:07:19.253Z,,,,,,,,,,,,,,,,,2,,,,,,,,,,,,,,390.9490000018559,,response,,,,1,F,,,,,,Space,keypress(Space),,,,instrumental,,,,--- ---- ------ --- ------- ---------- ------- ----------<br>was --------- --- ----------- ------- ----- ------- ---<br>--------- ---- -- --- ---- -- --------- -- ---- -------<br>-- --------- ------ --- ----- ------ ---- --- --------- --<br>------ - ---- -- --- ----------- ------- ---- ----- -----<br>--- -------- - ------ ---- -- ----- ---- --- --- -----------<br>-- -------,206819.40000000037,206817.00000000186,206409.34,206414.59999999963,206426.051,206827.298,,8,was
screen,html.Screen,2_3_1_0_1_9,2022-02-18T13:07:19.556Z,,,,,,,,,,,,,,,,,2,,,,,,,,,,,,,,292.60200000036275,,response,,,,1,F,,,,,,Space,keypress(Space),,,,instrumental,,,,--- ---- ------ --- ------- ---------- ------- ----------<br>--- observing --- ----------- ------- ----- ------- ---<br>--------- ---- -- --- ---- -- --------- -- ---- -------<br>-- --------- ------ --- ----- ------ ---- --- --------- --<br>------ - ---- -- --- ----------- ------- ---- ----- -----<br>--- -------- - ------ ---- -- ----- ---- --- --- -----------<br>-- -------,207122.29999999888,207119.90000000037,206810.587,206819.50000000186,206827.298,207128.096,,9,observing
screen,html.Screen,2_3_1_0_1_10,2022-02-18T13:07:19.868Z,,,,,,,,,,,,,,,,,2,,,,,,,,,,,,,,303.9040000018722,,response,,,,1,F,,,,,,Space,keypress(Space),,,,instrumental,,,,--- ---- ------ --- ------- ---------- ------- ----------<br>--- --------- the ----------- ------- ----- ------- ---<br>--------- ---- -- --- ---- -- --------- -- ---- -------<br>-- --------- ------ --- ----- ------ ---- --- --------- --<br>------ - ---- -- --- ----------- ------- ---- ----- -----<br>--- -------- - ------ ---- -- ----- ---- --- --- -----------<br>-- -------,207434.50000000186,207432.00000000186,207111.385,207122.50000000186,207128.096,207445.605,,10,the
screen,html.Screen,2_3_1_0_1_11,2022-02-18T13:07:20.145Z,,,,,,,,,,,,,,,,,2,,,,,,,,,,,,,,263.39500000185217,,response,,,,1,F,,,,,,Space,keypress(Space),,,,instrumental,,,,--- ---- ------ --- ------- ---------- ------- ----------<br>--- --------- --- interesting ------- ----- ------- ---<br>--------- ---- -- --- ---- -- --------- -- ---- -------<br>-- --------- ------ --- ----- ------ ---- --- --------- --<br>------ - ---- -- --- ----------- ------- ---- ----- -----<br>--- -------- - ------ ---- -- ----- ---- --- --- -----------<br>-- -------,207711.40000000037,207709.00000000186,207428.894,207434.70000000112,207445.605,207712.981,,11,interesting
screen,html.Screen,2_3_1_0_1_12,2022-02-18T13:07:20.502Z,,,,,,,,,,,,,,,,,2,,,,,,,,,,,,,,352.91900000037276,,response,,,,1,F,,,,,,Space,keypress(Space),,,,instrumental,,,,--- ---- ------ --- ------- ---------- ------- ----------<br>--- --------- --- ----------- sunspot ----- ------- ---<br>--------- ---- -- --- ---- -- --------- -- ---- -------<br>-- --------- ------ --- ----- ------ ---- --- --------- --<br>------ - ---- -- --- ----------- ------- ---- ----- -----<br>--- -------- - ------ ---- -- ----- ---- --- --- -----------<br>-- -------,208068.40000000037,208065.90000000037,207696.27,207711.70000000112,207712.981,208080.623,,12,sunspot
screen,html.Screen,2_3_1_0_1_13,2022-02-18T13:07:20.877Z,,,,,,,,,,,,,,,,,2,,,,,,,,,,,,,,360.1769999988901,,response,,,,1,F,,,,,,Space,keypress(Space),,,,instrumental,,,,--- ---- ------ --- ------- ---------- ------- ----------<br>--- --------- --- ----------- ------- group ------- ---<br>--------- ---- -- --- ---- -- --------- -- ---- -------<br>-- --------- ------ --- ----- ------ ---- --- --------- --<br>------ - ---- -- --- ----------- ------- ---- ----- -----<br>--- -------- - ------ ---- -- ----- ---- --- --- -----------<br>-- -------,208443.20000000112,208440.79999999888,208063.912,208068.50000000186,208080.623,208448.265,,13,group
screen,html.Screen,2_3_1_0_1_14,2022-02-18T13:07:21.223Z,,,,,,,,,,,,,,,,,2,,,,,,,,,,,,,,338.53499999886844,,response,,,,1,F,,,,,,Space,keypress(Space),,,,instrumental,,,,--- ---- ------ --- ------- ---------- ------- ----------<br>--- --------- --- ----------- ------- ----- through ---<br>--------- ---- -- --- ---- -- --------- -- ---- -------<br>-- --------- ------ --- ----- ------ ---- --- --------- --<br>------ - ---- -- --- ----------- ------- ---- ----- -----<br>--- -------- - ------ ---- -- ----- ---- --- --- -----------<br>-- -------,208789.29999999888,208786.79999999888,208431.554,208443.59999999963,208448.265,208799.196,,14,through
screen,html.Screen,2_3_1_0_1_15,2022-02-18T13:07:21.513Z,,,,,,,,,,,,,,,,,2,,,,,,,,,,,,,,278.60399999888614,,response,,,,1,F,,,,,,Space,keypress(Space),,,,instrumental,,,,--- ---- ------ --- ------- ---------- ------- ----------<br>--- --------- --- ----------- ------- ----- ------- his<br>--------- ---- -- --- ---- -- --------- -- ---- -------<br>-- --------- ------ --- ----- ------ ---- --- --------- --<br>------ - ---- -- --- ----------- ------- ---- ----- -----<br>--- -------- - ------ ---- -- ----- ---- --- --- -----------<br>-- -------,209080.00000000186,209077.79999999888,208782.485,208789.40000000037,208799.196,209083.283,,15,his
screen,html.Screen,2_3_1_0_1_16,2022-02-18T13:07:21.853Z,,,,,,,,,,,,,,,,,2,,,,,,,,,,,,,,333.5169999988866,,response,,,,1,F,,,,,,Space,keypress(Space),,,,instrumental,,,,--- ---- ------ --- ------- ---------- ------- ----------<br>--- --------- --- ----------- ------- ----- ------- ---<br>telescope ---- -- --- ---- -- --------- -- ---- -------<br>-- --------- ------ --- ----- ------ ---- --- --------- --<br>------ - ---- -- --- ----------- ------- ---- ----- -----<br>--- -------- - ------ ---- -- ----- ---- --- --- -----------<br>-- -------,209419.29999999888,209416.79999999888,209066.572,209080.20000000112,209083.283,209434.214,,16,telescope
screen,html.Screen,2_3_1_0_1_17,2022-02-18T13:07:22.285Z,,,,,,,,,,,,,,,,,2,,,,,,,,,,,,,,414.6860000003653,,response,,,,1,F,,,,,,Space,keypress(Space),,,,instrumental,,,,--- ---- ------ --- ------- ---------- ------- ----------<br>--- --------- --- ----------- ------- ----- ------- ---<br>--------- when -- --- ---- -- --------- -- ---- -------<br>-- --------- ------ --- ----- ------ ---- --- --------- --<br>------ - ---- -- --- ----------- ------- ---- ----- -----<br>--- -------- - ------ ---- -- ----- ---- --- --- -----------<br>-- -------,209851.09999999963,209848.90000000037,209417.503,209419.50000000186,209434.214,209851.989,,17,when
screen,html.Screen,2_3_1_0_1_18,2022-02-18T13:07:22.614Z,,,,,,,,,,,,,,,,,2,,,,,,,,,,,,,,325.810999998881,,response,,,,1,F,,,,,,Space,keypress(Space),,,,instrumental,,,,--- ---- ------ --- ------- ---------- ------- ----------<br>--- --------- --- ----------- ------- ----- ------- ---<br>--------- ---- he --- ---- -- --------- -- ---- -------<br>-- --------- ------ --- ----- ------ ---- --- --------- --<br>------ - ---- -- --- ----------- ------- ---- ----- -----<br>--- -------- - ------ ---- -- ----- ---- --- --- -----------<br>-- -------,210180.20000000112,210177.79999999888,209835.278,209851.29999999888,209851.989,210186.209,,18,he
screen,html.Screen,2_3_1_0_1_19,2022-02-18T13:07:22.895Z,,,,,,,,,,,,,,,,,2,,,,,,,,,,,,,,272.491000001115,,response,,,,1,F,,,,,,Space,keypress(Space),,,,instrumental,,,,--- ---- ------ --- ------- ---------- ------- ----------<br>--- --------- --- ----------- ------- ----- ------- ---<br>--------- ---- -- saw ---- -- --------- -- ---- -------<br>-- --------- ------ --- ----- ------ ---- --- --------- --<br>------ - ---- -- --- ----------- ------- ---- ----- -----<br>--- -------- - ------ ---- -- ----- ---- --- --- -----------<br>-- -------,210461.20000000112,210458.70000000112,210169.498,210180.40000000037,210186.209,210470.296,,19,saw
screen,html.Screen,2_3_1_0_1_20,2022-02-18T13:07:23.208Z,,,,,,,,,,,,,,,,,2,,,,,,,,,,,,,,301.4040000011155,,response,,,,1,F,,,,,,Space,keypress(Space),,,,instrumental,,,,--- ---- ------ --- ------- ---------- ------- ----------<br>--- --------- --- ----------- ------- ----- ------- ---<br>--------- ---- -- --- what -- --------- -- ---- -------<br>-- --------- ------ --- ----- ------ ---- --- --------- --<br>------ - ---- -- --- ----------- ------- ---- ----- -----<br>--- -------- - ------ ---- -- ----- ---- --- --- -----------<br>-- -------,210774.70000000112,210771.70000000112,210453.585,210461.29999999888,210470.296,210787.805,,20,what
screen,html.Screen,2_3_1_0_1_21,2022-02-18T13:07:23.516Z,,,,,,,,,,,,,,,,,2,,,,,,,,,,,,,,291.8950000011246,,response,,,,1,F,,,,,,Space,keypress(Space),,,,instrumental,,,,--- ---- ------ --- ------- ---------- ------- ----------<br>--- --------- --- ----------- ------- ----- ------- ---<br>--------- ---- -- --- ---- he --------- -- ---- -------<br>-- --------- ------ --- ----- ------ ---- --- --------- --<br>------ - ---- -- --- ----------- ------- ---- ----- -----<br>--- -------- - ------ ---- -- ----- ---- --- --- -----------<br>-- -------,211082.09999999963,211079.70000000112,210771.094,210774.79999999888,210787.805,211088.603,,21,he
screen,html.Screen,2_3_1_0_1_22,2022-02-18T13:07:23.959Z,,,,,,,,,,,,,,,,,2,,,,,,,,,,,,,,434.0970000011148,,response,,,,1,F,,,,,,Space,keypress(Space),,,,instrumental,,,,--- ---- ------ --- ------- ---------- ------- ----------<br>--- --------- --- ----------- ------- ----- ------- ---<br>--------- ---- -- --- ---- -- described -- ---- -------<br>-- --------- ------ --- ----- ------ ---- --- --------- --<br>------ - ---- -- --- ----------- ------- ---- ----- -----<br>--- -------- - ------ ---- -- ----- ---- --- --- -----------<br>-- -------,211525.29999999888,211522.70000000112,211071.892,211082.29999999888,211088.603,211539.8,,22,described
screen,html.Screen,2_3_1_0_1_23,2022-02-18T13:07:24.266Z,,,,,,,,,,,,,,,,,2,,,,,,,,,,,,,,289.90000000112923,,response,,,,1,F,,,,,,Space,keypress(Space),,,,instrumental,,,,--- ---- ------ --- ------- ---------- ------- ----------<br>--- --------- --- ----------- ------- ----- ------- ---<br>--------- ---- -- --- ---- -- --------- as ---- -------<br>-- --------- ------ --- ----- ------ ---- --- --------- --<br>------ - ---- -- --- ----------- ------- ---- ----- -----<br>--- -------- - ------ ---- -- ----- ---- --- --- -----------<br>-- -------,211832.09999999963,211829.70000000112,211523.089,211525.40000000037,211539.8,211840.598,,23,as
screen,html.Screen,2_3_1_0_1_24,2022-02-18T13:07:24.571Z,,,,,,,,,,,,,,,,,2,,,,,,,,,,,,,,294.9020000018645,,response,,,,1,F,,,,,,Space,keypress(Space),,,,instrumental,,,,"--- ---- ------ --- ------- ---------- ------- ----------<br>--- --------- --- ----------- ------- ----- ------- ---<br>--------- ---- -- --- ---- -- --------- -- ""two -------<br>-- --------- ------ --- ----- ------ ---- --- --------- --<br>------ - ---- -- --- ----------- ------- ---- ----- -----<br>--- -------- - ------ ---- -- ----- ---- --- --- -----------<br>-- -------",212137.59999999963,212135.50000000186,211823.887,211832.29999999888,211840.598,212141.396,,24,"""two"
screen,html.Screen,2_3_1_0_1_25,2022-02-18T13:07:24.889Z,,,,,,,,,,,,,,,,,2,,,,,,,,,,,,,,311.20399999961955,,response,,,,1,F,,,,,,Space,keypress(Space),,,,instrumental,,,,--- ---- ------ --- ------- ---------- ------- ----------<br>--- --------- --- ----------- ------- ----- ------- ---<br>--------- ---- -- --- ---- -- --------- -- ---- patches<br>-- --------- ------ --- ----- ------ ---- --- --------- --<br>------ - ---- -- --- ----------- ------- ---- ----- -----<br>--- -------- - ------ ---- -- ----- ---- --- --- -----------<br>-- -------,212455.20000000112,212452.59999999963,212124.685,212137.79999999888,212141.396,212458.905,,25,patches
screen,html.Screen,2_3_1_0_1_26,2022-02-18T13:07:25.249Z,,,,,,,,,,,,,,,,,2,,,,,,,,,,,,,,353.5950000018638,,response,,,,1,F,,,,,,Space,keypress(Space),,,,instrumental,,,,--- ---- ------ --- ------- ---------- ------- ----------<br>--- --------- --- ----------- ------- ----- ------- ---<br>--------- ---- -- --- ---- -- --------- -- ---- -------<br>of --------- ------ --- ----- ------ ---- --- --------- --<br>------ - ---- -- --- ----------- ------- ---- ----- -----<br>--- -------- - ------ ---- -- ----- ---- --- --- -----------<br>-- -------,212815.29999999888,212812.50000000186,212442.194,212455.50000000186,212458.905,212826.547,,26,of
screen,html.Screen,2_3_1_0_1_27,2022-02-18T13:07:25.560Z,,,,,,,,,,,,,,,,,2,,,,,,,,,,,,,,297.0529999996361,,response,,,,1,F,,,,,,Space,keypress(Space),,,,instrumental,,,,--- ---- ------ --- ------- ---------- ------- ----------<br>--- --------- --- ----------- ------- ----- ------- ---<br>--------- ---- -- --- ---- -- --------- -- ---- -------<br>-- intensely ------ --- ----- ------ ---- --- --------- --<br>------ - ---- -- --- ----------- ------- ---- ----- -----<br>--- -------- - ------ ---- -- ----- ---- --- --- -----------<br>-- -------,213126.00000000186,213123.59999999963,212809.836,212815.40000000037,212826.547,213127.345,,27,intensely
screen,html.Screen,2_3_1_0_1_28,2022-02-18T13:07:25.943Z,,,,,,,,,,,,,,,,,2,,,,,,,,,,,,,,379.1550000018615,,response,,,,1,F,,,,,,Space,keypress(Space),,,,instrumental,,,,--- ---- ------ --- ------- ---------- ------- ----------<br>--- --------- --- ----------- ------- ----- ------- ---<br>--------- ---- -- --- ---- -- --------- -- ---- -------<br>-- --------- bright --- ----- ------ ---- --- --------- --<br>------ - ---- -- --- ----------- ------- ---- ----- -----<br>--- -------- - ------ ---- -- ----- ---- --- --- -----------<br>-- -------,213509.29999999888,213506.50000000186,213110.634,213126.20000000112,213127.345,213511.698,,28,bright
screen,html.Screen,2_3_1_0_1_29,2022-02-18T13:07:26.308Z,,,,,,,,,,,,,,,,,2,,,,,,,,,,,,,,359.8020000018587,,response,,,,1,F,,,,,,Space,keypress(Space),,,,instrumental,,,,--- ---- ------ --- ------- ---------- ------- ----------<br>--- --------- --- ----------- ------- ----- ------- ---<br>--------- ---- -- --- ---- -- --------- -- ---- -------<br>-- --------- ------ and ----- ------ ---- --- --------- --<br>------ - ---- -- --- ----------- ------- ---- ----- -----<br>--- -------- - ------ ---- -- ----- ---- --- --- -----------<br>-- -------,213874.00000000186,213871.50000000186,213494.987,213509.40000000037,213511.698,213879.34,,29,and
screen,html.Screen,2_3_1_0_1_30,2022-02-18T13:07:26.614Z,,,,,,,,,,,,,,,,,2,,,,,,,,,,,,,,298.16000000186614,,response,,,,1,F,,,,,,Space,keypress(Space),,,,instrumental,,,,--- ---- ------ --- ------- ---------- ------- ----------<br>--- --------- --- ----------- ------- ----- ------- ---<br>--------- ---- -- --- ---- -- --------- -- ---- -------<br>-- --------- ------ --- white ------ ---- --- --------- --<br>------ - ---- -- --- ----------- ------- ---- ----- -----<br>--- -------- - ------ ---- -- ----- ---- --- --- -----------<br>-- -------,214180.00000000186,214177.50000000186,213862.629,213874.09999999963,213879.34,214196.849,,30,white
screen,html.Screen,2_3_1_0_1_31,2022-02-18T13:07:26.972Z,,,,,,,,,,,,,,,,,2,,,,,,,,,,,,,,339.5510000003851,,response,,,,1,F,,,,,,Space,keypress(Space),,,,instrumental,,,,"--- ---- ------ --- ------- ---------- ------- ----------<br>--- --------- --- ----------- ------- ----- ------- ---<br>--------- ---- -- --- ---- -- --------- -- ---- -------<br>-- --------- ------ --- ----- light"" ---- --- --------- --<br>------ - ---- -- --- ----------- ------- ---- ----- -----<br>--- -------- - ------ ---- -- ----- ---- --- --- -----------<br>-- -------",214538.70000000112,214536.40000000037,214180.138,214180.20000000112,214196.849,214547.78,,31,"light"""
screen,html.Screen,2_3_1_0_1_32,2022-02-18T13:07:27.414Z,,,,,,,,,,,,,,,,,2,,,,,,,,,,,,,,429.6200000003737,,response,,,,1,F,,,,,,Space,keypress(Space),,,,instrumental,,,,--- ---- ------ --- ------- ---------- ------- ----------<br>--- --------- --- ----------- ------- ----- ------- ---<br>--------- ---- -- --- ---- -- --------- -- ---- -------<br>-- --------- ------ --- ----- ------ over --- --------- --<br>------ - ---- -- --- ----------- ------- ---- ----- -----<br>--- -------- - ------ ---- -- ----- ---- --- --- -----------<br>-- -------,214979.90000000037,214977.40000000037,214531.069,214538.90000000037,214547.78,214982.266,,32,over
screen,html.Screen,2_3_1_0_1_33,2022-02-18T13:07:27.762Z,,,,,,,,,,,,,,,,,2,,,,,,,,,,,,,,342.2340000018594,,response,,,,1,F,,,,,,Space,keypress(Space),,,,instrumental,,,,--- ---- ------ --- ------- ---------- ------- ----------<br>--- --------- --- ----------- ------- ----- ------- ---<br>--------- ---- -- --- ---- -- --------- -- ---- -------<br>-- --------- ------ --- ----- ------ ---- the --------- --<br>------ - ---- -- --- ----------- ------- ---- ----- -----<br>--- -------- - ------ ---- -- ----- ---- --- --- -----------<br>-- -------,215328.20000000112,215324.50000000186,214965.555,214980.09999999963,214982.266,215333.197,,33,the
screen,html.Screen,2_3_1_0_1_34,2022-02-18T13:07:28.017Z,,,,,,,,,,,,,,,,,2,,,,,,,,,,,,,,248.20300000038696,,response,,,,1,F,,,,,,Space,keypress(Space),,,,instrumental,,,,--- ---- ------ --- ------- ---------- ------- ----------<br>--- --------- --- ----------- ------- ----- ------- ---<br>--------- ---- -- --- ---- -- --------- -- ---- -------<br>-- --------- ------ --- ----- ------ ---- --- sunspots. --<br>------ - ---- -- --- ----------- ------- ---- ----- -----<br>--- -------- - ------ ---- -- ----- ---- --- --- -----------<br>-- -------,215583.59999999963,215581.40000000037,215316.486,215328.50000000186,215333.197,215600.573,,34,sunspots.
screen,html.Screen,2_3_1_0_1_35,2022-02-18T13:07:28.587Z,,,,,,,,,,,,,,,,,2,,,,,,,,,,,,,,550.8270000003686,,response,,,,1,F,,,,,,Space,keypress(Space),,,,instrumental,,,,--- ---- ------ --- ------- ---------- ------- ----------<br>--- --------- --- ----------- ------- ----- ------- ---<br>--------- ---- -- --- ---- -- --------- -- ---- -------<br>-- --------- ------ --- ----- ------ ---- --- --------- He<br>------ - ---- -- --- ----------- ------- ---- ----- -----<br>--- -------- - ------ ---- -- ----- ---- --- --- -----------<br>-- -------,216153.79999999888,216151.40000000037,215583.862,215583.79999999888,215600.573,216168.747,,35,He
