sender,sender_type,sender_id,timestamp,meta,,Blues,Classical,Country,Dance,Electronic,Folk,Gospel,Hip-Hop,Jazz,Latin,Musical/Film,New-age,Pop,Prolific_id,Provo_ID,R&B,Rap,Reggae,Religious,Rock,Soul,Swing,Traditional,age,artist_name,correct,correctResponse,distraction,duration,education,ended_on,familiarity,gender,headphone_check_performance,item,list,music_frequency,offensiveness,pleasantness,position_correct,preference,response,response_action,snippet_file,song_name,song_rating,sound,stimulus_1,stimulus_2,stimulus_3,text,time_commit,time_end,time_render,time_run,time_show,time_switch,url,word,word_ID
Prolific ID,html.Form,0,2022-02-15T16:27:20.064Z,"{""labjs_version"":""20.2.2"",""labjs_build"":{""flavor"":""production"",""commit"":""a25486e0c714a0ae2ce03ff94b7bb6896854dcfa""},""location"":""https://run.pavlovia.org/mvasilev/prolific2_music_b/"",""userAgent"":""Mozilla/5.0 (Windows NT 10.0; Win64; x64) AppleWebKit/537.36 (KHTML, like Gecko) Chrome/98.0.4758.80 Safari/537.36 Edg/98.0.1108.50"",""platform"":""Win32"",""language"":""en-GB"",""locale"":""en-GB"",""timeZone"":""Europe/London"",""timezoneOffset"":0,""screen_width"":1707,""screen_height"":960,""scroll_width"":1626,""scroll_height"":841,""window_innerWidth"":1626,""window_innerHeight"":889,""devicePixelRatio"":2.25}",,,,,,,,,,,,,,,6102bbdba4dd279363094fca,,,,,,,,,,,,,,,4227.583999988079,,form submission,,,,,,,,,,,,,,,,,,,,,13720.59999999404,13720.199999988079,9475.716,9478.699999988079,9492.616,13741.003,{},,
Introduction,html.Screen,1_0,2022-02-15T16:27:23.495Z,,,,,,,,,,,,,,,,,,,,,,,,,,,,,,,3408.6969999880785,,response,,,,,,,,,,,continue,click button,,,,,,,,,17151.69999998808,17149.69999998808,13724.145,13720.800000011921,13741.003,17156.06,,,
Volume calibration,html.Screen,1_1,2022-02-15T16:27:50.079Z,,,,,,,,,,,,,,,,,,,,,,,,,,,,,,,26577.44,,response,,,,,,,,,,,continue,click button,,,,,,,,,43736.30000001192,43733.5,17139.603,17151.90000000596,17156.06,43745.073,,,
Task instructions,html.Screen,1_2,2022-02-15T16:28:00.757Z,,,,,,,,,,,,,,,,,,,,,,,,,,,,,,,10668.526999994043,,response,,,,,,,,,,,continue,click button,,,,,,,,,54414.30000001192,54413.59999999404,43728.627,43736.40000000596,43745.073,54424.006,,,
Sounds,html.Screen,1_3_0_0,2022-02-15T16:28:05.006Z,,,,,,,,,,,,,,,,,,,,,,,,,,,,,,,4248.2249999999985,,timeout,,,,,,,,,2,,,,,,,,O,S,I,,58662.90000000596,58655.775,54407.378,54414.40000000596,54424.006,58672.231,,,
Judgement,html.Screen,1_3_0_1,2022-02-15T16:28:06.606Z,,,,,,,,,,,,,,,,,,,,,,,,,,,,true,2,,1589.3689999940398,,response,,,,,,,,,2,,2,click #choice-2,,,,,O,S,I,,60262.40000000596,60261.59999999404,58655.775,58663.30000001192,58672.231,60271.575,,,
Trial,flow.Sequence,1_3_0,2022-02-15T16:28:06.606Z,,,,,,,,,,,,,,,,,,,,,,,,,,,,,,,5837.593999994038,,completion,,,,,,,,,2,,,,,,,,O,S,I,,60262.59999999404,60261.59999999404,54407.378,54414.40000000596,54424.006,60271.575,,,
Sounds,html.Screen,1_3_1_0,2022-02-15T16:28:10.849Z,,,,,,,,,,,,,,,,,,,,,,,,,,,,,,,4248.340000000004,,timeout,,,,,,,,,3,,,,,,,,O,I,S,,64505.5,64503.189,60254.969,60262.69999998808,60271.575,64519.915,,,
Judgement,html.Screen,1_3_1_1,2022-02-15T16:28:13.822Z,,,,,,,,,,,,,,,,,,,,,,,,,,,,true,3,,2957.4850000059596,,response,,,,,,,,,3,,3,click #choice-3,,,,,O,I,S,,67478.19999998808,67477.40000000596,64503.189,64505.90000000596,64519.915,67485.195,,,
Trial,flow.Sequence,1_3_1,2022-02-15T16:28:13.822Z,,,,,,,,,,,,,,,,,,,,,,,,,,,,,,,7205.825000005963,,completion,,,,,,,,,3,,,,,,,,O,I,S,,67478.40000000596,67477.40000000596,60254.969,60262.69999998808,60271.575,67485.195,,,
Sounds,html.Screen,1_3_2_0,2022-02-15T16:28:18.062Z,,,,,,,,,,,,,,,,,,,,,,,,,,,,,,,4248.476999999999,,timeout,,,,,,,,,1,,,,,,,,S,O,I,,71718.30000001192,71716.867,67468.669,67478.5,67485.195,71733.672,,,
Judgement,html.Screen,1_3_2_1,2022-02-15T16:28:18.926Z,,,,,,,,,,,,,,,,,,,,,,,,,,,,true,1,,847.8279999999941,,response,,,,,,,,,1,,1,click #choice-1,,,,,S,O,I,,72582.19999998808,72581.5,71716.867,71718.59999999404,71733.672,72606.121,,,
Trial,flow.Sequence,1_3_2,2022-02-15T16:28:18.926Z,,,,,,,,,,,,,,,,,,,,,,,,,,,,,,,5096.304999999993,,completion,,,,,,,,,1,,,,,,,,S,O,I,,72582.30000001192,72581.5,67468.669,67478.5,67485.195,72606.121,,,
Sounds,html.Screen,1_3_3_0,2022-02-15T16:28:23.176Z,,,,,,,,,,,,,,,,,,,,,,,,,,,,,,,4241.960999999996,,timeout,,,,,,,,,1,,,,,,,,S,I,O,,76832.90000000596,76831.561,72566.652,72582.40000000596,72606.121,76848.082,,,
Judgement,html.Screen,1_3_3_1,2022-02-15T16:28:23.893Z,,,,,,,,,,,,,,,,,,,,,,,,,,,,true,1,,701.3180000059656,,response,,,,,,,,,1,,1,click #choice-1,,,,,S,I,O,,77549.90000000596,77549.40000000596,76831.561,76833.19999998808,76848.082,77564.443,,,
Trial,flow.Sequence,1_3_3,2022-02-15T16:28:23.893Z,,,,,,,,,,,,,,,,,,,,,,,,,,,,,,,4943.279000005961,,completion,,,,,,,,,1,,,,,,,,S,I,O,,77550.09999999404,77549.40000000596,72566.652,72582.40000000596,72606.121,77564.443,,,
Sounds,html.Screen,1_3_4_0,2022-02-15T16:28:28.141Z,,,,,,,,,,,,,,,,,,,,,,,,,,,,,,,4248.370999999999,,timeout,,,,,,,,,3,,,,,,,,I,O,S,,81797.5,81796.106,77547.921,77550.19999998808,77564.443,81812.814,,,
Judgement,html.Screen,1_3_4_1,2022-02-15T16:28:28.793Z,,,,,,,,,,,,,,,,,,,,,,,,,,,,true,3,,636.4860000119224,,response,,,,,,,,,3,,3,click #choice-3,,,,,I,O,S,,82449.90000000596,82449.30000001192,81796.106,81797.80000001192,81812.814,82462.537,,,
Trial,flow.Sequence,1_3_4,2022-02-15T16:28:28.793Z,,,,,,,,,,,,,,,,,,,,,,,,,,,,,,,4884.857000011922,,completion,,,,,,,,,3,,,,,,,,I,O,S,,82450,82449.30000001192,77547.921,77550.09999999404,77564.443,82462.537,,,
Sounds,html.Screen,1_3_5_0,2022-02-15T16:28:33.039Z,,,,,,,,,,,,,,,,,,,,,,,,,,,,,,,4248.142999999996,,timeout,,,,,,,,,2,,,,,,,,I,S,O,,86695.80000001192,86694.102,82445.904,82450.09999999404,82462.537,86710.68,,,
Judgement,html.Screen,1_3_5_1,2022-02-15T16:28:33.522Z,,,,,,,,,,,,,,,,,,,,,,,,,,,,true,2,,466.6200000119279,,response,,,,,,,,,2,,2,click #choice-2,,,,,I,S,O,,87178.09999999404,87177.30000001192,86694.102,86695.90000000596,86710.68,87193.781,,,
Trial,flow.Sequence,1_3_5,2022-02-15T16:28:33.522Z,,,,,,,,,,,,,,,,,,,,,,,,,,,,,,,4714.763000011924,,completion,,,,,,,,,2,,,,,,,,I,S,O,,87178.19999998808,87177.30000001192,82445.904,82450.09999999404,82462.537,87193.781,,,
Task,flow.Loop,1_3,2022-02-15T16:28:33.525Z,,,,,,,,,,,,,,,,,,,,,,,,,,,,,,,32753.29400001192,,completion,,,1,,,,,,,,,,,,,,,,,,87181.5,87177.30000001192,54407.378,54414.40000000596,54424.006,87193.781,,,
Trap,html.Screen,1_4,2022-02-15T16:28:33.526Z,,,,,,,,,,,,,,,,,,,,,,,,,,,,,,,NaN,,skipped,,,,,,,,,,,,,,,,,,,,,87182.40000000596,87177.30000001192,,87182.30000001192,,87193.781,,,
Thanks,html.Screen,1_5,2022-02-15T16:28:36.966Z,,,,,,,,,,,,,,,,,,,,,,,,,,,,,,,3427.7189999999973,,response,,,,,,,,,,,continue,click button,,,,,,,,,90622.09999999404,90621.5,87177.094,87182.40000000596,87193.781,95490.36,,,
Headphone screening,flow.Sequence,1,2022-02-15T16:28:36.966Z,,,,,,,,,,,,,,,,,,,,,,,,,,,,,,,76880.497,,completion,,,,,,,,,,,,,,,,,,,,,90622.30000001192,90621.5,13724.145,13720.800000011921,13741.003,95490.36,,,
Instructions,html.Page,2_0,2022-02-15T16:29:09.838Z,,,,,,,,,,,,,,,,,,,,,,,,,,,,,,,28003.73999999404,,form submission,,,,,,,,,,,,,,,,,,,,,123494.40000000596,123494.09999999404,95456.903,95483,95490.36,123495.313,,,
Holding screen,html.Screen,2_1_0_0,2022-02-15T16:29:19.819Z,,,,,,,,,,,,,,,,,,,,,,,,,,,,,,,10012.594000000012,,timeout,,,,,,,,,,,,,,,,,,,,,133475.80000001192,133474.565,123478.879,123494.5,123495.313,133507.907,,,
screen,html.Screen,2_1_0_1_0,2022-02-15T16:29:22.445Z,,,,,,,,,,,,,,,,,53,,,,,,,,,,,,,,2587.993000005954,,response,,,,99,,,,,,,Space,keypress(Space),,,,,,,,When -- ----- -- ------ - ------- --- ----------<br>------------- ------ ------ ---- ---- ------- ----- -- ----<br>-------- ------- -- ---------- --- - --- ----- ----- ----<br>---- --- --- ----- --- ---- ---- ------- ----- ---- -------<br>--- --- -- ----- -- --- ---- -- --- ---- -- ------ ------<br>--- ----- -- ----,136102.09999999404,136095.90000000596,133474.565,133476.09999999404,133507.907,136106.826,,0,When
screen,html.Screen,2_1_0_1_1,2022-02-15T16:29:23.306Z,,,,,,,,,,,,,,,,,53,,,,,,,,,,,,,,855.1739999999991,,response,,,,99,,,,,,,Space,keypress(Space),,,,,,,,---- it ----- -- ------ - ------- --- ----------<br>------------- ------ ------ ---- ---- ------- ----- -- ----<br>-------- ------- -- ---------- --- - --- ----- ----- ----<br>---- --- --- ----- --- ---- ---- ------- ----- ---- -------<br>--- --- -- ----- -- --- ---- -- --- ---- -- ------ ------<br>--- ----- -- ----,136962.80000001192,136962,136090.05,136102.30000001192,136106.826,136973.118,,1,it
screen,html.Screen,2_1_0_1_2,2022-02-15T16:29:23.881Z,,,,,,,,,,,,,,,,,53,,,,,,,,,,,,,,564.5819999880914,,response,,,,99,,,,,,,Space,keypress(Space),,,,,,,,---- -- comes -- ------ - ------- --- ----------<br>------------- ------ ------ ---- ---- ------- ----- -- ----<br>-------- ------- -- ---------- --- - --- ----- ----- ----<br>---- --- --- ----- --- ---- ---- ------- ----- ---- -------<br>--- --- -- ----- -- --- ---- -- --- ---- -- ------ ------<br>--- ----- -- ----,137538.59999999404,137537.69999998808,136956.434,136963.09999999404,136973.118,137573.118,,2,comes
screen,html.Screen,2_1_0_1_3,2022-02-15T16:29:24.588Z,,,,,,,,,,,,,,,,,53,,,,,,,,,,,,,,670.7820000059728,,response,,,,99,,,,,,,Space,keypress(Space),,,,,,,,---- -- ----- to ------ - ------- --- ----------<br>------------- ------ ------ ---- ---- ------- ----- -- ----<br>-------- ------- -- ---------- --- - --- ----- ----- ----<br>---- --- --- ----- --- ---- ---- ------- ----- ---- -------<br>--- --- -- ----- -- --- ---- -- --- ---- -- ------ ------<br>--- ----- -- ----,138245,138243.90000000596,137556.403,137538.90000000596,137573.118,138255.962,,3,to
screen,html.Screen,2_1_0_1_4,2022-02-15T16:29:25.200Z,,,,,,,,,,,,,,,,,53,,,,,,,,,,,,,,600.0380000000005,,response,,,,99,,,,,,,Space,keypress(Space),,,,,,,,---- -- ----- -- having - ------- --- ----------<br>------------- ------ ------ ---- ---- ------- ----- -- ----<br>-------- ------- -- ---------- --- - --- ----- ----- ----<br>---- --- --- ----- --- ---- ---- ------- ----- ---- -------<br>--- --- -- ----- -- --- ---- -- --- ---- -- ------ ------<br>--- ----- -- ----,138856.80000001192,138856,138239.426,138245.19999998808,138255.962,138872.561,,4,having
screen,html.Screen,2_1_0_1_5,2022-02-15T16:29:25.691Z,,,,,,,,,,,,,,,,,53,,,,,,,,,,,,,,475.1389999880921,,response,,,,99,,,,,,,Space,keypress(Space),,,,,,,,---- -- ----- -- ------ a ------- --- ----------<br>------------- ------ ------ ---- ---- ------- ----- -- ----<br>-------- ------- -- ---------- --- - --- ----- ----- ----<br>---- --- --- ----- --- ---- ---- ------- ----- ---- -------<br>--- --- -- ----- -- --- ---- -- --- ---- -- ------ ------<br>--- ----- -- ----,139348.69999998808,139347.69999998808,138855.678,138857.19999998808,138872.561,139355.412,,5,a
screen,html.Screen,2_1_0_1_6,2022-02-15T16:29:26.207Z,,,,,,,,,,,,,,,,,53,,,,,,,,,,,,,,507.88800001190975,,response,,,,99,,,,,,,Space,keypress(Space),,,,,,,,---- -- ----- -- ------ - lasting --- ----------<br>------------- ------ ------ ---- ---- ------- ----- -- ----<br>-------- ------- -- ---------- --- - --- ----- ----- ----<br>---- --- --- ----- --- ---- ---- ------- ----- ---- -------<br>--- --- -- ----- -- --- ---- -- --- ---- -- ------ ------<br>--- ----- -- ----,139864.19999998808,139863.30000001192,139338.953,139349,139355.412,139872.004,,6,lasting
screen,html.Screen,2_1_0_1_7,2022-02-15T16:29:26.709Z,,,,,,,,,,,,,,,,,53,,,,,,,,,,,,,,493.8960000059742,,response,,,,99,,,,,,,Space,keypress(Space),,,,,,,,---- -- ----- -- ------ - ------- and ----------<br>------------- ------ ------ ---- ---- ------- ----- -- ----<br>-------- ------- -- ---------- --- - --- ----- ----- ----<br>---- --- --- ----- --- ---- ---- ------- ----- ---- -------<br>--- --- -- ----- -- --- ---- -- --- ---- -- ------ ------<br>--- ----- -- ----,140366.69999998808,140365.90000000596,139855.257,139864.5,139872.004,140371.727,,7,and
screen,html.Screen,2_1_0_1_8,2022-02-15T16:29:27.451Z,,,,,,,,,,,,,,,,,53,,,,,,,,,,,,,,734.673000005947,,response,,,,99,,,,,,,Space,keypress(Space),,,,,,,,---- -- ----- -- ------ - ------- --- fulfilling<br>------------- ------ ------ ---- ---- ------- ----- -- ----<br>-------- ------- -- ---------- --- - --- ----- ----- ----<br>---- --- --- ----- --- ---- ---- ------- ----- ---- -------<br>--- --- -- ----- -- --- ---- -- --- ---- -- ------ ------<br>--- ----- -- ----,141107.90000000596,141106.40000000596,140355.038,140367,140371.727,141121.479,,8,fulfilling
screen,html.Screen,2_1_0_1_9,2022-02-15T16:29:30.283Z,,,,,,,,,,,,,,,,,53,,,,,,,,,,,,,,2818.021000000008,,response,,,,99,,,,,,,Space,keypress(Space),,,,,,,,"---- -- ----- -- ------ - ------- --- ----------<br>relationship, ------ ------ ---- ---- ------- ----- -- ----<br>-------- ------- -- ---------- --- - --- ----- ----- ----<br>---- --- --- ----- --- ---- ---- ------- ----- ---- -------<br>--- --- -- ----- -- --- ---- -- --- ---- -- ------ ------<br>--- ----- -- ----",143940.30000001192,143939.5,141104.872,141108.09999999404,141121.479,143953.575,,9,"relationship,"
screen,html.Screen,2_1_0_1_10,2022-02-15T16:29:31.499Z,,,,,,,,,,,,,,,,,53,,,,,,,,,,,,,,1201.524999994028,,response,,,,99,,,,,,,Space,keypress(Space),,,,,,,,---- -- ----- -- ------ - ------- --- ----------<br>------------- common ------ ---- ---- ------- ----- -- ----<br>-------- ------- -- ---------- --- - --- ----- ----- ----<br>---- --- --- ----- --- ---- ---- ------- ----- ---- -------<br>--- --- -- ----- -- --- ---- -- --- ---- -- ------ ------<br>--- ----- -- ----,145156.09999999404,145155.09999999404,143936.928,143940.69999998808,143953.575,145169.782,,10,common
screen,html.Screen,2_1_0_1_11,2022-02-15T16:29:32.185Z,,,,,,,,,,,,,,,,,53,,,,,,,,,,,,,,671.817999994033,,response,,,,99,,,,,,,Space,keypress(Space),,,,,,,,---- -- ----- -- ------ - ------- --- ----------<br>------------- ------ wisdom ---- ---- ------- ----- -- ----<br>-------- ------- -- ---------- --- - --- ----- ----- ----<br>---- --- --- ----- --- ---- ---- ------- ----- ---- -------<br>--- --- -- ----- -- --- ---- -- --- ---- -- ------ ------<br>--- ----- -- ----,145842.5,145841.59999999404,145153.18,145156.40000000596,145169.782,145852.828,,11,wisdom
screen,html.Screen,2_1_0_1_12,2022-02-15T16:29:32.701Z,,,,,,,,,,,,,,,,,53,,,,,,,,,,,,,,504.37199998807046,,response,,,,99,,,,,,,Space,keypress(Space),,,,,,,,---- -- ----- -- ------ - ------- --- ----------<br>------------- ------ ------ says ---- ------- ----- -- ----<br>-------- ------- -- ---------- --- - --- ----- ----- ----<br>---- --- --- ----- --- ---- ---- ------- ----- ---- -------<br>--- --- -- ----- -- --- ---- -- --- ---- -- ------ ------<br>--- ----- -- ----,146358.09999999404,146357.19999998808,145836.235,145842.69999998808,145852.828,146369.376,,12,says
screen,html.Screen,2_1_0_1_13,2022-02-15T16:29:33.438Z,,,,,,,,,,,,,,,,,53,,,,,,,,,,,,,,725.2239999940502,,response,,,,99,,,,,,,Space,keypress(Space),,,,,,,,---- -- ----- -- ------ - ------- --- ----------<br>------------- ------ ------ ---- that ------- ----- -- ----<br>-------- ------- -- ---------- --- - --- ----- ----- ----<br>---- --- --- ----- --- ---- ---- ------- ----- ---- -------<br>--- --- -- ----- -- --- ---- -- --- ---- -- ------ ------<br>--- ----- -- ----,147095.59999999404,147094.59999999404,146352.583,146358.40000000596,146369.376,147102.272,,13,that
screen,html.Screen,2_1_0_1_14,2022-02-15T16:29:34.111Z,,,,,,,,,,,,,,,,,53,,,,,,,,,,,,,,664.8279999940423,,response,,,,99,,,,,,,Space,keypress(Space),,,,,,,,---- -- ----- -- ------ - ------- --- ----------<br>------------- ------ ------ ---- ---- feeling ----- -- ----<br>-------- ------- -- ---------- --- - --- ----- ----- ----<br>---- --- --- ----- --- ---- ---- ------- ----- ---- -------<br>--- --- -- ----- -- --- ---- -- --- ---- -- ------ ------<br>--- ----- -- ----,147768.30000001192,147767.09999999404,147085.583,147095.80000001192,147102.272,147785.433,,14,feeling
screen,html.Screen,2_1_0_1_15,2022-02-15T16:29:34.564Z,,,,,,,,,,,,,,,,,53,,,,,,,,,,,,,,435.06700000001,,response,,,,99,,,,,,,Space,keypress(Space),,,,,,,,---- -- ----- -- ------ - ------- --- ----------<br>------------- ------ ------ ---- ---- ------- close -- ----<br>-------- ------- -- ---------- --- - --- ----- ----- ----<br>---- --- --- ----- --- ---- ---- ------- ----- ---- -------<br>--- --- -- ----- -- --- ---- -- --- ---- -- ------ ------<br>--- ----- -- ----,148221.5,148220.5,147768.8,147768.5,147785.433,148235.173,,15,close
screen,html.Screen,2_1_0_1_16,2022-02-15T16:29:34.940Z,,,,,,,,,,,,,,,,,53,,,,,,,,,,,,,,361.0269999880693,,response,,,,99,,,,,,,Space,keypress(Space),,,,,,,,---- -- ----- -- ------ - ------- --- ----------<br>------------- ------ ------ ---- ---- ------- ----- to ----<br>-------- ------- -- ---------- --- - --- ----- ----- ----<br>---- --- --- ----- --- ---- ---- ------- ----- ---- -------<br>--- --- -- ----- -- --- ---- -- --- ---- -- ------ ------<br>--- ----- -- ----,148597.09999999404,148596.19999998808,148218.634,148221.69999998808,148235.173,148601.647,,16,to
screen,html.Screen,2_1_0_1_17,2022-02-15T16:29:35.517Z,,,,,,,,,,,,,,,,,53,,,,,,,,,,,,,,572.1530000119237,,response,,,,99,,,,,,,Space,keypress(Space),,,,,,,,---- -- ----- -- ------ - ------- --- ----------<br>------------- ------ ------ ---- ---- ------- ----- -- your<br>-------- ------- -- ---------- --- - --- ----- ----- ----<br>---- --- --- ----- --- ---- ---- ------- ----- ---- -------<br>--- --- -- ----- -- --- ---- -- --- ---- -- ------ ------<br>--- ----- -- ----,149174.69999998808,149173.80000001192,148585.009,148597.30000001192,148601.647,149184.747,,17,your
screen,html.Screen,2_1_0_1_18,2022-02-15T16:29:36.224Z,,,,,,,,,,,,,,,,,53,,,,,,,,,,,,,,695.5530000119179,,response,,,,99,,,,,,,Space,keypress(Space),,,,,,,,---- -- ----- -- ------ - ------- --- ----------<br>------------- ------ ------ ---- ---- ------- ----- -- ----<br>romantic ------- -- ---------- --- - --- ----- ----- ----<br>---- --- --- ----- --- ---- ---- ------- ----- ---- -------<br>--- --- -- ----- -- --- ---- -- --- ---- -- ------ ------<br>--- ----- -- ----,149881.19999998808,149880.30000001192,149168.212,149175,149184.747,149884.444,,18,romantic
screen,html.Screen,2_1_0_1_19,2022-02-15T16:29:37.658Z,,,,,,,,,,,,,,,,,53,,,,,,,,,,,,,,1429.9560000059719,,response,,,,99,,,,,,,Space,keypress(Space),,,,,,,,---- -- ----- -- ------ - ------- --- ----------<br>------------- ------ ------ ---- ---- ------- ----- -- ----<br>-------- partner -- ---------- --- - --- ----- ----- ----<br>---- --- --- ----- --- ---- ---- ------- ----- ---- -------<br>--- --- -- ----- -- --- ---- -- --- ---- -- ------ ------<br>--- ----- -- ----,151315.40000000596,151314.40000000596,149867.907,149881.5,149884.444,151333.852,,19,partner
screen,html.Screen,2_1_0_1_20,2022-02-15T16:29:38.096Z,,,,,,,,,,,,,,,,,53,,,,,,,,,,,,,,418.24799999402603,,response,,,,99,,,,,,,Space,keypress(Space),,,,,,,,---- -- ----- -- ------ - ------- --- ----------<br>------------- ------ ------ ---- ---- ------- ----- -- ----<br>-------- ------- is ---------- --- - --- ----- ----- ----<br>---- --- --- ----- --- ---- ---- ------- ----- ---- -------<br>--- --- -- ----- -- --- ---- -- --- ---- -- ------ ------<br>--- ----- -- ----,151753.09999999404,151752.09999999404,151300.615,151315.59999999404,151333.852,151767.226,,20,is
screen,html.Screen,2_1_0_1_21,2022-02-15T16:29:42.644Z,,,,,,,,,,,,,,,,,53,,,,,,,,,,,,,,4532.774000000005,,response,,,,99,,,,,,,Space,keypress(Space),,,,,,,,---- -- ----- -- ------ - ------- --- ----------<br>------------- ------ ------ ---- ---- ------- ----- -- ----<br>-------- ------- -- paramount. --- - --- ----- ----- ----<br>---- --- --- ----- --- ---- ---- ------- ----- ---- -------<br>--- --- -- ----- -- --- ---- -- --- ---- -- ------ ------<br>--- ----- -- ----,156300.90000000596,156300,151750.486,151753.30000001192,151767.226,156315.125,,21,paramount.
screen,html.Screen,2_1_0_1_22,2022-02-15T16:29:43.100Z,,,,,,,,,,,,,,,,,53,,,,,,,,,,,,,,441.47499999403954,,response,,,,99,,,,,,,Space,keypress(Space),,,,,,,,---- -- ----- -- ------ - ------- --- ----------<br>------------- ------ ------ ---- ---- ------- ----- -- ----<br>-------- ------- -- ---------- But - --- ----- ----- ----<br>---- --- --- ----- --- ---- ---- ------- ----- ---- -------<br>--- --- -- ----- -- --- ---- -- --- ---- -- ------ ------<br>--- ----- -- ----,156757.5,156756.59999999404,156298.243,156301.19999998808,156315.125,156764.931,,22,But
screen,html.Screen,2_1_0_1_23,2022-02-15T16:29:43.511Z,,,,,,,,,,,,,,,,,53,,,,,,,,,,,,,,402.1689999940281,,response,,,,99,,,,,,,Space,keypress(Space),,,,,,,,---- -- ----- -- ------ - ------- --- ----------<br>------------- ------ ------ ---- ---- ------- ----- -- ----<br>-------- ------- -- ---------- --- a --- ----- ----- ----<br>---- --- --- ----- --- ---- ---- ------- ----- ---- -------<br>--- --- -- ----- -- --- ---- -- --- ---- -- ------ ------<br>--- ----- -- ----,157168,157167.09999999404,156748.419,156757.80000001192,156764.931,157181.648,,23,a
screen,html.Screen,2_1_0_1_24,2022-02-15T16:29:43.850Z,,,,,,,,,,,,,,,,,53,,,,,,,,,,,,,,324.45199999405304,,response,,,,99,,,,,,,Space,keypress(Space),,,,,,,,---- -- ----- -- ------ - ------- --- ----------<br>------------- ------ ------ ---- ---- ------- ----- -- ----<br>-------- ------- -- ---------- --- - new ----- ----- ----<br>---- --- --- ----- --- ---- ---- ------- ----- ---- -------<br>--- --- -- ----- -- --- ---- -- --- ---- -- ------ ------<br>--- ----- -- ----,157507,157506.09999999404,157164.88,157168.30000001192,157181.648,157514.653,,24,new
screen,html.Screen,2_1_0_1_25,2022-02-15T16:29:44.553Z,,,,,,,,,,,,,,,,,53,,,,,,,,,,,,,,694.9469999940484,,response,,,,99,,,,,,,Space,keypress(Space),,,,,,,,---- -- ----- -- ------ - ------- --- ----------<br>------------- ------ ------ ---- ---- ------- ----- -- ----<br>-------- ------- -- ---------- --- - --- study ----- ----<br>---- --- --- ----- --- ---- ---- ------- ----- ---- -------<br>--- --- -- ----- -- --- ---- -- --- ---- -- ------ ------<br>--- ----- -- ----,158210.59999999404,158209.59999999404,157498.092,157507.19999998808,157514.653,158214.328,,25,study
screen,html.Screen,2_1_0_1_26,2022-02-15T16:29:44.946Z,,,,,,,,,,,,,,,,,53,,,,,,,,,,,,,,387.6719999999914,,response,,,,99,,,,,,,Space,keypress(Space),,,,,,,,---- -- ----- -- ------ - ------- --- ----------<br>------------- ------ ------ ---- ---- ------- ----- -- ----<br>-------- ------- -- ---------- --- - --- ----- finds ----<br>---- --- --- ----- --- ---- ---- ------- ----- ---- -------<br>--- --- -- ----- -- --- ---- -- --- ---- -- ------ ------<br>--- ----- -- ----,158602.90000000596,158602,158197.781,158210.90000000596,158214.328,158614.18,,26,finds
screen,html.Screen,2_1_0_1_27,2022-02-15T16:29:45.861Z,,,,,,,,,,,,,,,,,53,,,,,,,,,,,,,,903.2200000059674,,response,,,,99,,,,,,,Space,keypress(Space),,,,,,,,---- -- ----- -- ------ - ------- --- ----------<br>------------- ------ ------ ---- ---- ------- ----- -- ----<br>-------- ------- -- ---------- --- - --- ----- ----- that<br>---- --- --- ----- --- ---- ---- ------- ----- ---- -------<br>--- --- -- ----- -- --- ---- -- --- ---- -- ------ ------<br>--- ----- -- ----,159518.59999999404,159517.40000000596,158597.489,158603.30000001192,158614.18,159530.487,,27,that
screen,html.Screen,2_1_0_1_28,2022-02-15T16:29:46.503Z,,,,,,,,,,,,,,,,,53,,,,,,,,,,,,,,629.2129999880854,,response,,,,99,,,,,,,Space,keypress(Space),,,,,,,,---- -- ----- -- ------ - ------- --- ----------<br>------------- ------ ------ ---- ---- ------- ----- -- ----<br>-------- ------- -- ---------- --- - --- ----- ----- ----<br>it's --- --- ----- --- ---- ---- ------- ----- ---- -------<br>--- --- -- ----- -- --- ---- -- --- ---- -- ------ ------<br>--- ----- -- ----,160160.59999999404,160159.69999998808,159513.794,159518.80000001192,159530.487,160163.519,,28,it's
screen,html.Screen,2_1_0_1_29,2022-02-15T16:29:47.089Z,,,,,,,,,,,,,,,,,53,,,,,,,,,,,,,,582.2810000119207,,response,,,,99,,,,,,,Space,keypress(Space),,,,,,,,---- -- ----- -- ------ - ------- --- ----------<br>------------- ------ ------ ---- ---- ------- ----- -- ----<br>-------- ------- -- ---------- --- - --- ----- ----- ----<br>---- not --- ----- --- ---- ---- ------- ----- ---- -------<br>--- --- -- ----- -- --- ---- -- --- ---- -- ------ ------<br>--- ----- -- ----,160746.69999998808,160745.80000001192,160146.972,160160.90000000596,160163.519,160763.491,,29,not
screen,html.Screen,2_1_0_1_30,2022-02-15T16:29:47.792Z,,,,,,,,,,,,,,,,,53,,,,,,,,,,,,,,685.20899998807,,response,,,,99,,,,,,,Space,keypress(Space),,,,,,,,---- -- ----- -- ------ - ------- --- ----------<br>------------- ------ ------ ---- ---- ------- ----- -- ----<br>-------- ------- -- ---------- --- - --- ----- ----- ----<br>---- --- how ----- --- ---- ---- ------- ----- ---- -------<br>--- --- -- ----- -- --- ---- -- --- ---- -- ------ ------<br>--- ----- -- ----,161449.69999998808,161448.69999998808,160746.721,160747,160763.491,161463.065,,30,how
screen,html.Screen,2_1_0_1_31,2022-02-15T16:29:48.640Z,,,,,,,,,,,,,,,,,53,,,,,,,,,,,,,,832.8350000059581,,response,,,,99,,,,,,,Space,keypress(Space),,,,,,,,---- -- ----- -- ------ - ------- --- ----------<br>------------- ------ ------ ---- ---- ------- ----- -- ----<br>-------- ------- -- ---------- --- - --- ----- ----- ----<br>---- --- --- close --- ---- ---- ------- ----- ---- -------<br>--- --- -- ----- -- --- ---- -- --- ---- -- ------ ------<br>--- ----- -- ----,162296.80000001192,162295.90000000596,161446.287,161450,161463.065,162312.631,,31,close
screen,html.Screen,2_1_0_1_32,2022-02-15T16:29:49.061Z,,,,,,,,,,,,,,,,,53,,,,,,,,,,,,,,404.36900000000605,,response,,,,99,,,,,,,Space,keypress(Space),,,,,,,,---- -- ----- -- ------ - ------- --- ----------<br>------------- ------ ------ ---- ---- ------- ----- -- ----<br>-------- ------- -- ---------- --- - --- ----- ----- ----<br>---- --- --- ----- you ---- ---- ------- ----- ---- -------<br>--- --- -- ----- -- --- ---- -- --- ---- -- ------ ------<br>--- ----- -- ----,162717.90000000596,162717,162296.158,162297.09999999404,162312.631,162729.123,,32,you
screen,html.Screen,2_1_0_1_33,2022-02-15T16:29:49.642Z,,,,,,,,,,,,,,,,,53,,,,,,,,,,,,,,569.4769999940472,,response,,,,99,,,,,,,Space,keypress(Space),,,,,,,,---- -- ----- -- ------ - ------- --- ----------<br>------------- ------ ------ ---- ---- ------- ----- -- ----<br>-------- ------- -- ---------- --- - --- ----- ----- ----<br>---- --- --- ----- --- feel ---- ------- ----- ---- -------<br>--- --- -- ----- -- --- ---- -- --- ---- -- ------ ------<br>--- ----- -- ----,163299.69999998808,163298.59999999404,162712.608,162718.09999999404,162729.123,163312.44,,33,feel
screen,html.Screen,2_1_0_1_34,2022-02-15T16:29:52.081Z,,,,,,,,,,,,,,,,,53,,,,,,,,,,,,,,2424.659999994037,,response,,,,99,,,,,,,Space,keypress(Space),,,,,,,,---- -- ----- -- ------ - ------- --- ----------<br>------------- ------ ------ ---- ---- ------- ----- -- ----<br>-------- ------- -- ---------- --- - --- ----- ----- ----<br>---- --- --- ----- --- ---- that ------- ----- ---- -------<br>--- --- -- ----- -- --- ---- -- --- ---- -- ------ ------<br>--- ----- -- ----,165738,165737.09999999404,163295.553,163299.90000000596,163312.44,165744.534,,34,that
screen,html.Screen,2_1_0_1_35,2022-02-15T16:29:52.543Z,,,,,,,,,,,,,,,,,53,,,,,,,,,,,,,,454.7660000119067,,response,,,,99,,,,,,,Space,keypress(Space),,,,,,,,---- -- ----- -- ------ - ------- --- ----------<br>------------- ------ ------ ---- ---- ------- ----- -- ----<br>-------- ------- -- ---------- --- - --- ----- ----- ----<br>---- --- --- ----- --- ---- ---- matters ----- ---- -------<br>--- --- -- ----- -- --- ---- -- --- ---- -- ------ ------<br>--- ----- -- ----,166200.30000001192,166199.30000001192,165727.915,165738.30000001192,165744.534,166211.032,,35,matters
screen,html.Screen,2_1_0_1_36,2022-02-15T16:29:53.394Z,,,,,,,,,,,,,,,,,53,,,,,,,,,,,,,,839.368000005954,,response,,,,99,,,,,,,Space,keypress(Space),,,,,,,,"---- -- ----- -- ------ - ------- --- ----------<br>------------- ------ ------ ---- ---- ------- ----- -- ----<br>-------- ------- -- ---------- --- - --- ----- ----- ----<br>---- --- --- ----- --- ---- ---- ------- most, ---- -------<br>--- --- -- ----- -- --- ---- -- --- ---- -- ------ ------<br>--- ----- -- ----",167051.40000000596,167050.40000000596,166194.511,166200.69999998808,166211.032,167060.689,,36,"most,"
screen,html.Screen,2_1_0_1_37,2022-02-15T16:29:53.864Z,,,,,,,,,,,,,,,,,53,,,,,,,,,,,,,,460.01099998806603,,response,,,,99,,,,,,,Space,keypress(Space),,,,,,,,---- -- ----- -- ------ - ------- --- ----------<br>------------- ------ ------ ---- ---- ------- ----- -- ----<br>-------- ------- -- ---------- --- - --- ----- ----- ----<br>---- --- --- ----- --- ---- ---- ------- ----- it's -------<br>--- --- -- ----- -- --- ---- -- --- ---- -- ------ ------<br>--- ----- -- ----,167521.59999999404,167520.69999998808,167043.942,167051.5,167060.689,167527.14,,37,it's
screen,html.Screen,2_1_0_1_38,2022-02-15T16:29:54.354Z,,,,,,,,,,,,,,,,,53,,,,,,,,,,,,,,483.5599999880651,,response,,,,99,,,,,,,Space,keypress(Space),,,,,,,,---- -- ----- -- ------ - ------- --- ----------<br>------------- ------ ------ ---- ---- ------- ----- -- ----<br>-------- ------- -- ---------- --- - --- ----- ----- ----<br>---- --- --- ----- --- ---- ---- ------- ----- ---- whether<br>--- --- -- ----- -- --- ---- -- --- ---- -- ------ ------<br>--- ----- -- ----,168011.69999998808,168010.69999998808,167510.46,167521.80000001192,167527.14,168027.031,,38,whether
screen,html.Screen,2_1_0_1_39,2022-02-15T16:29:54.891Z,,,,,,,,,,,,,,,,,53,,,,,,,,,,,,,,520.2690000119328,,response,,,,99,,,,,,,Space,keypress(Space),,,,,,,,---- -- ----- -- ------ - ------- --- ----------<br>------------- ------ ------ ---- ---- ------- ----- -- ----<br>-------- ------- -- ---------- --- - --- ----- ----- ----<br>---- --- --- ----- --- ---- ---- ------- ----- ---- -------<br>you --- -- ----- -- --- ---- -- --- ---- -- ------ ------<br>--- ----- -- ----,168548.19999998808,168547.30000001192,168010.377,168011.90000000596,168027.031,168560.092,,39,you
screen,html.Screen,2_1_0_1_40,2022-02-15T16:29:55.421Z,,,,,,,,,,,,,,,,,53,,,,,,,,,,,,,,516.9079999999958,,response,,,,99,,,,,,,Space,keypress(Space),,,,,,,,---- -- ----- -- ------ - ------- --- ----------<br>------------- ------ ------ ---- ---- ------- ----- -- ----<br>-------- ------- -- ---------- --- - --- ----- ----- ----<br>---- --- --- ----- --- ---- ---- ------- ----- ---- -------<br>--- are -- ----- -- --- ---- -- --- ---- -- ------ ------<br>--- ----- -- ----,169077.90000000596,169077,168543.545,168548.40000000596,168560.092,169093.265,,40,are
screen,html.Screen,2_1_0_1_41,2022-02-15T16:29:56.546Z,,,,,,,,,,,,,,,,,53,,,,,,,,,,,,,,1108.6350000059465,,response,,,,99,,,,,,,Space,keypress(Space),,,,,,,,---- -- ----- -- ------ - ------- --- ----------<br>------------- ------ ------ ---- ---- ------- ----- -- ----<br>-------- ------- -- ---------- --- - --- ----- ----- ----<br>---- --- --- ----- --- ---- ---- ------- ----- ---- -------<br>--- --- as ----- -- --- ---- -- --- ---- -- ------ ------<br>--- ----- -- ----,170202.80000001192,170201.90000000596,169076.599,169078.09999999404,169093.265,170209.333,,41,as
screen,html.Screen,2_1_0_1_42,2022-02-15T16:29:57.021Z,,,,,,,,,,,,,,,,,53,,,,,,,,,,,,,,468.0670000059472,,response,,,,99,,,,,,,Space,keypress(Space),,,,,,,,---- -- ----- -- ------ - ------- --- ----------<br>------------- ------ ------ ---- ---- ------- ----- -- ----<br>-------- ------- -- ---------- --- - --- ----- ----- ----<br>---- --- --- ----- --- ---- ---- ------- ----- ---- -------<br>--- --- -- close -- --- ---- -- --- ---- -- ------ ------<br>--- ----- -- ----,170678.5,170677.40000000596,170192.821,170203,170209.333,170692.586,,42,close
screen,html.Screen,2_1_0_1_43,2022-02-15T16:29:57.392Z,,,,,,,,,,,,,,,,,53,,,,,,,,,,,,,,355.5139999940293,,response,,,,99,,,,,,,Space,keypress(Space),,,,,,,,---- -- ----- -- ------ - ------- --- ----------<br>------------- ------ ------ ---- ---- ------- ----- -- ----<br>-------- ------- -- ---------- --- - --- ----- ----- ----<br>---- --- --- ----- --- ---- ---- ------- ----- ---- -------<br>--- --- -- ----- as --- ---- -- --- ---- -- ------ ------<br>--- ----- -- ----,171049.09999999404,171048.09999999404,170675.928,170678.80000001192,170692.586,171059.016,,43,as
screen,html.Screen,2_1_0_1_44,2022-02-15T16:29:57.685Z,,,,,,,,,,,,,,,,,53,,,,,,,,,,,,,,282.0839999940363,,response,,,,99,,,,,,,Space,keypress(Space),,,,,,,,---- -- ----- -- ------ - ------- --- ----------<br>------------- ------ ------ ---- ---- ------- ----- -- ----<br>-------- ------- -- ---------- --- - --- ----- ----- ----<br>---- --- --- ----- --- ---- ---- ------- ----- ---- -------<br>--- --- -- ----- -- you ---- -- --- ---- -- ------ ------<br>--- ----- -- ----,171341.90000000596,171341.09999999404,171042.492,171049.30000001192,171059.016,171358.986,,44,you
screen,html.Screen,2_1_0_1_45,2022-02-15T16:29:58.087Z,,,,,,,,,,,,,,,,,53,,,,,,,,,,,,,,384.8140000119165,,response,,,,99,,,,,,,Space,keypress(Space),,,,,,,,---- -- ----- -- ------ - ------- --- ----------<br>------------- ------ ------ ---- ---- ------- ----- -- ----<br>-------- ------- -- ---------- --- - --- ----- ----- ----<br>---- --- --- ----- --- ---- ---- ------- ----- ---- -------<br>--- --- -- ----- -- --- want -- --- ---- -- ------ ------<br>--- ----- -- ----,171744.80000001192,171743.80000001192,171342.341,171342.19999998808,171358.986,171758.79,,45,want
screen,html.Screen,2_1_0_1_46,2022-02-15T16:29:58.470Z,,,,,,,,,,,,,,,,,53,,,,,,,,,,,,,,367.9099999880709,,response,,,,99,,,,,,,Space,keypress(Space),,,,,,,,---- -- ----- -- ------ - ------- --- ----------<br>------------- ------ ------ ---- ---- ------- ----- -- ----<br>-------- ------- -- ---------- --- - --- ----- ----- ----<br>---- --- --- ----- --- ---- ---- ------- ----- ---- -------<br>--- --- -- ----- -- --- ---- to --- ---- -- ------ ------<br>--- ----- -- ----,172127.59999999404,172126.69999998808,171741.999,171745,171758.79,172142.123,,46,to
screen,html.Screen,2_1_0_1_47,2022-02-15T16:30:01.755Z,,,,,,,,,,,,,,,,,53,,,,,,,,,,,,,,3268.976999994047,,response,,,,99,,,,,,,Space,keypress(Space),,,,,,,,"---- -- ----- -- ------ - ------- --- ----------<br>------------- ------ ------ ---- ---- ------- ----- -- ----<br>-------- ------- -- ---------- --- - --- ----- ----- ----<br>---- --- --- ----- --- ---- ---- ------- ----- ---- -------<br>--- --- -- ----- -- --- ---- -- be, ---- -- ------ ------<br>--- ----- -- ----",175411.90000000596,175411.09999999404,172125.245,172127.80000001192,172142.123,175423.863,,47,"be,"
screen,html.Screen,2_1_0_1_48,2022-02-15T16:30:02.502Z,,,,,,,,,,,,,,,,,53,,,,,,,,,,,,,,734.5370000059484,,response,,,,99,,,,,,,Space,keypress(Space),,,,,,,,---- -- ----- -- ------ - ------- --- ----------<br>------------- ------ ------ ---- ---- ------- ----- -- ----<br>-------- ------- -- ---------- --- - --- ----- ----- ----<br>---- --- --- ----- --- ---- ---- ------- ----- ---- -------<br>--- --- -- ----- -- --- ---- -- --- even -- ------ ------<br>--- ----- -- ----,176159.30000001192,176158.40000000596,175407.212,175412.19999998808,175423.863,176173.756,,48,even
screen,html.Screen,2_1_0_1_49,2022-02-15T16:30:02.917Z,,,,,,,,,,,,,,,,,53,,,,,,,,,,,,,,399.044000011927,,response,,,,99,,,,,,,Space,keypress(Space),,,,,,,,---- -- ----- -- ------ - ------- --- ----------<br>------------- ------ ------ ---- ---- ------- ----- -- ----<br>-------- ------- -- ---------- --- - --- ----- ----- ----<br>---- --- --- ----- --- ---- ---- ------- ----- ---- -------<br>--- --- -- ----- -- --- ---- -- --- ---- if ------ ------<br>--- ----- -- ----,176573.90000000596,176572.80000001192,176156.98,176159.5,176173.756,176590.317,,49,if
screen,html.Screen,2_1_0_1_50,2022-02-15T16:30:03.379Z,,,,,,,,,,,,,,,,,53,,,,,,,,,,,,,,444.88299998806906,,response,,,,99,,,,,,,Space,keypress(Space),,,,,,,,---- -- ----- -- ------ - ------- --- ----------<br>------------- ------ ------ ---- ---- ------- ----- -- ----<br>-------- ------- -- ---------- --- - --- ----- ----- ----<br>---- --- --- ----- --- ---- ---- ------- ----- ---- -------<br>--- --- -- ----- -- --- ---- -- --- ---- -- that's ------<br>--- ----- -- ----,177036.09999999404,177035.19999998808,176573.513,176574.09999999404,176590.317,177039.859,,50,that's
screen,html.Screen,2_1_0_1_51,2022-02-15T16:30:03.858Z,,,,,,,,,,,,,,,,,53,,,,,,,,,,,,,,474.64100000000326,,response,,,,99,,,,,,,Space,keypress(Space),,,,,,,,---- -- ----- -- ------ - ------- --- ----------<br>------------- ------ ------ ---- ---- ------- ----- -- ----<br>-------- ------- -- ---------- --- - --- ----- ----- ----<br>---- --- --- ----- --- ---- ---- ------- ----- ---- -------<br>--- --- -- ----- -- --- ---- -- --- ---- -- ------ really<br>--- ----- -- ----,177515.69999998808,177514.5,177023.318,177036.30000001192,177039.859,177522.996,,51,really
screen,html.Screen,2_1_0_1_52,2022-02-15T16:30:04.231Z,,,,,,,,,,,,,,,,,53,,,,,,,,,,,,,,364.6039999940258,,response,,,,99,,,,,,,Space,keypress(Space),,,,,,,,---- -- ----- -- ------ - ------- --- ----------<br>------------- ------ ------ ---- ---- ------- ----- -- ----<br>-------- ------- -- ---------- --- - --- ----- ----- ----<br>---- --- --- ----- --- ---- ---- ------- ----- ---- -------<br>--- --- -- ----- -- --- ---- -- --- ---- -- ------ ------<br>not ----- -- ----,177888.5,177887.59999999404,177506.457,177516,177522.996,177922.925,,52,not
screen,html.Screen,2_1_0_1_53,2022-02-15T16:30:04.622Z,,,,,,,,,,,,,,,,,53,,,,,,,,,,,,,,355.1749999940512,,response,,,,99,,,,,,,Space,keypress(Space),,,,,,,,---- -- ----- -- ------ - ------- --- ----------<br>------------- ------ ------ ---- ---- ------- ----- -- ----<br>-------- ------- -- ---------- --- - --- ----- ----- ----<br>---- --- --- ----- --- ---- ---- ------- ----- ---- -------<br>--- --- -- ----- -- --- ---- -- --- ---- -- ------ ------<br>--- close -- ----,178279.09999999404,178278.09999999404,177906.329,177888.69999998808,177922.925,178289.465,,53,close
screen,html.Screen,2_1_0_1_54,2022-02-15T16:30:04.953Z,,,,,,,,,,,,,,,,,53,,,,,,,,,,,,,,319.634999994043,,response,,,,99,,,,,,,Space,keypress(Space),,,,,,,,---- -- ----- -- ------ - ------- --- ----------<br>------------- ------ ------ ---- ---- ------- ----- -- ----<br>-------- ------- -- ---------- --- - --- ----- ----- ----<br>---- --- --- ----- --- ---- ---- ------- ----- ---- -------<br>--- --- -- ----- -- --- ---- -- --- ---- -- ------ ------<br>--- ----- at ----,178610.09999999404,178609.09999999404,178272.694,178279.30000001192,178289.465,178622.573,,54,at
screen,html.Screen,2_1_0_1_55,2022-02-15T16:30:06.645Z,,,,,,,,,,,,,,,,,53,,,,,,,,,,,,,,1678.5269999940356,,response,,,,99,,,,,,,Space,keypress(Space),,,,,,,,---- -- ----- -- ------ - ------- --- ----------<br>------------- ------ ------ ---- ---- ------- ----- -- ----<br>-------- ------- -- ---------- --- - --- ----- ----- ----<br>---- --- --- ----- --- ---- ---- ------- ----- ---- -------<br>--- --- -- ----- -- --- ---- -- --- ---- -- ------ ------<br>--- ----- -- all.,180301.90000000596,180301.09999999404,178605.879,178610.30000001192,178622.573,180321.828,,55,all.
Item 99,flow.Loop,2_1_0_1,2022-02-15T16:30:06.645Z,,,,,,,,,,,,,,,,,,,,,,,,,,,,,,,46793.19299999403,,completion,,,,,B,,,,,,,,,,,silence,,,,,180302.40000000596,180301.09999999404,133474.565,133476,133507.907,180321.828,,,
Question 1,html.Screen,2_1_0_2,2022-02-15T16:30:11.241Z,,,,,,,,,,,,,,,,,,,,,,,,,,,,true,FALSE,,4575.472000011912,,response,,,,99,B,,,,,,FALSE,click #choice-2,,,,silence,,,,,184898,184897.30000001192,180288.595,180302.69999998808,180321.828,184903.207,,,
Question 2,html.Screen,2_1_0_3,2022-02-15T16:30:15.132Z,,,,,,,,,,,,,,,,,,,,,,,,,,,,true,TRUE,,3885.992999988084,,response,,,,99,B,,,,,,TRUE,click #choice-1,,,,silence,,,,,188789.69999998808,188789.19999998808,184886.56,184898.09999999404,184903.207,188801.673,,,
Item 99,flow.Sequence,2_1_0,2022-02-15T16:30:15.133Z,,,,,,,,,,,,,,,,,,,,,,,,,,,,,,,65293.886999988084,,completion,,,,,,,,,,,,,,,,,,,,,188789.90000000596,188789.19999998808,123478.879,123494.5,123495.313,188801.673,,,
Holding screen,html.Screen,2_1_1_0,2022-02-15T16:30:25.125Z,,,,,,,,,,,,,,,,,,,,,,,,,,,,,,,9995.842999999993,,timeout,,,,,,,,,,,,,,,,,,,,,198781.90000000596,198780.851,188785.026,188789.90000000596,188801.673,198797.516,,,
screen,html.Screen,2_1_1_1_0,2022-02-15T16:30:26.746Z,,,,,,,,,,,,,,,,,54,,,,,,,,,,,,,,1604.3840000059572,,response,,,,100,,,,,,,Space,keypress(Space),,,,,,,,At --- ---- --- ------ ----- ------- ---- -- --- ------- --<br>------- ---------- ------ -- ----- -- ----- -- ---- ------<br>--- ----- --- --- ------ -------- ----- --- ------ ----- --<br>----- ----- ---------- --- --- ------ ------ ---- -- ------<br>------- --- ------ ----- --- ---- ------- -- ---- --- --<br>------- ------,200402.80000001192,200401.90000000596,198780.851,198782.19999998808,198797.516,200413.506,,0,At
screen,html.Screen,2_1_1_1_1,2022-02-15T16:30:27.158Z,,,,,,,,,,,,,,,,,54,,,,,,,,,,,,,,399.99400000000605,,response,,,,100,,,,,,,Space,keypress(Space),,,,,,,,-- the ---- --- ------ ----- ------- ---- -- --- ------- --<br>------- ---------- ------ -- ----- -- ----- -- ---- ------<br>--- ----- --- --- ------ -------- ----- --- ------ ----- --<br>----- ----- ---------- --- --- ------ ------ ---- -- ------<br>------- --- ------ ----- --- ---- ------- -- ---- --- --<br>------- ------,200814.5,200813.5,200396.91,200403.09999999404,200413.506,200830.222,,1,the
screen,html.Screen,2_1_1_1_2,2022-02-15T16:30:27.565Z,,,,,,,,,,,,,,,,,54,,,,,,,,,,,,,,390.1780000059516,,response,,,,100,,,,,,,Space,keypress(Space),,,,,,,,-- --- time --- ------ ----- ------- ---- -- --- ------- --<br>------- ---------- ------ -- ----- -- ----- -- ---- ------<br>--- ----- --- --- ------ -------- ----- --- ------ ----- --<br>----- ----- ---------- --- --- ------ ------ ---- -- ------<br>------- --- ------ ----- --- ---- ------- -- ---- --- --<br>------- ------,201221.30000001192,201220.40000000596,200813.312,200814.80000001192,200830.222,201229.77,,2,time
screen,html.Screen,2_1_1_1_3,2022-02-15T16:30:27.874Z,,,,,,,,,,,,,,,,,54,,,,,,,,,,,,,,299.32999999405,,response,,,,100,,,,,,,Space,keypress(Space),,,,,,,,-- --- ---- the ------ ----- ------- ---- -- --- ------- --<br>------- ---------- ------ -- ----- -- ----- -- ---- ------<br>--- ----- --- --- ------ -------- ----- --- ------ ----- --<br>----- ----- ---------- --- --- ------ ------ ---- -- ------<br>------- --- ------ ----- --- ---- ------- -- ---- --- --<br>------- ------,201530.19999998808,201529.09999999404,201213.301,201221.5,201229.77,201546.446,,3,the
screen,html.Screen,2_1_1_1_4,2022-02-15T16:30:28.464Z,,,,,,,,,,,,,,,,,54,,,,,,,,,,,,,,573.4540000059642,,response,,,,100,,,,,,,Space,keypress(Space),,,,,,,,-- --- ---- --- French ----- ------- ---- -- --- ------- --<br>------- ---------- ------ -- ----- -- ----- -- ---- ------<br>--- ----- --- --- ------ -------- ----- --- ------ ----- --<br>----- ----- ---------- --- --- ------ ------ ---- -- ------<br>------- --- ------ ----- --- ---- ------- -- ---- --- --<br>------- ------,202120.80000001192,202119.90000000596,201529.674,201530.40000000596,201546.446,202129.499,,4,French
screen,html.Screen,2_1_1_1_5,2022-02-15T16:30:28.781Z,,,,,,,,,,,,,,,,,54,,,,,,,,,,,,,,307.0009999999893,,response,,,,100,,,,,,,Space,keypress(Space),,,,,,,,-- --- ---- --- ------ crown ------- ---- -- --- ------- --<br>------- ---------- ------ -- ----- -- ----- -- ---- ------<br>--- ----- --- --- ------ -------- ----- --- ------ ----- --<br>----- ----- ---------- --- --- ------ ------ ---- -- ------<br>------- --- ------ ----- --- ---- ------- -- ---- --- --<br>------- ------,202437.59999999404,202436.5,202112.942,202121,202129.499,202446.004,,5,crown
screen,html.Screen,2_1_1_1_6,2022-02-15T16:30:29.218Z,,,,,,,,,,,,,,,,,54,,,,,,,,,,,,,,427.8960000059742,,response,,,,100,,,,,,,Space,keypress(Space),,,,,,,,-- --- ---- --- ------ ----- secured ---- -- --- ------- --<br>------- ---------- ------ -- ----- -- ----- -- ---- ------<br>--- ----- --- --- ------ -------- ----- --- ------ ----- --<br>----- ----- ---------- --- --- ------ ------ ---- -- ------<br>------- --- ------ ----- --- ---- ------- -- ---- --- --<br>------- ------,202874.90000000596,202873.90000000596,202429.465,202438,202446.004,202879.146,,6,secured
screen,html.Screen,2_1_1_1_7,2022-02-15T16:30:29.602Z,,,,,,,,,,,,,,,,,54,,,,,,,,,,,,,,378.654000011913,,response,,,,100,,,,,,,Space,keypress(Space),,,,,,,,-- --- ---- --- ------ ----- ------- much -- --- ------- --<br>------- ---------- ------ -- ----- -- ----- -- ---- ------<br>--- ----- --- --- ------ -------- ----- --- ------ ----- --<br>----- ----- ---------- --- --- ------ ------ ---- -- ------<br>------- --- ------ ----- --- ---- ------- -- ---- --- --<br>------- ------,203258.59999999404,203257.80000001192,202862.626,202875.19999998808,202879.146,203262.322,,7,much
screen,html.Screen,2_1_1_1_8,2022-02-15T16:30:29.971Z,,,,,,,,,,,,,,,,,54,,,,,,,,,,,,,,364.27799999405397,,response,,,,100,,,,,,,Space,keypress(Space),,,,,,,,-- --- ---- --- ------ ----- ------- ---- of --- ------- --<br>------- ---------- ------ -- ----- -- ----- -- ---- ------<br>--- ----- --- --- ------ -------- ----- --- ------ ----- --<br>----- ----- ---------- --- --- ------ ------ ---- -- ------<br>------- --- ------ ----- --- ---- ------- -- ---- --- --<br>------- ------,203627.5,203626.59999999404,203245.791,203258.90000000596,203262.322,203646.244,,8,of
screen,html.Screen,2_1_1_1_9,2022-02-15T16:30:30.326Z,,,,,,,,,,,,,,,,,54,,,,,,,,,,,,,,334.955999988073,,response,,,,100,,,,,,,Space,keypress(Space),,,,,,,,-- --- ---- --- ------ ----- ------- ---- -- its ------- --<br>------- ---------- ------ -- ----- -- ----- -- ---- ------<br>--- ----- --- --- ------ -------- ----- --- ------ ----- --<br>----- ----- ---------- --- --- ------ ------ ---- -- ------<br>------- --- ------ ----- --- ---- ------- -- ---- --- --<br>------- ------,203982.09999999404,203981.19999998808,203612.314,203627.69999998808,203646.244,203995.58,,9,its
screen,html.Screen,2_1_1_1_10,2022-02-15T16:30:30.659Z,,,,,,,,,,,,,,,,,54,,,,,,,,,,,,,,318.51999999405234,,response,,,,100,,,,,,,Space,keypress(Space),,,,,,,,-- --- ---- --- ------ ----- ------- ---- -- --- revenue --<br>------- ---------- ------ -- ----- -- ----- -- ---- ------<br>--- ----- --- --- ------ -------- ----- --- ------ ----- --<br>----- ----- ---------- --- --- ------ ------ ---- -- ------<br>------- --- ------ ----- --- ---- ------- -- ---- --- --<br>------- ------,204315.09999999404,204314.09999999404,203978.799,203982.30000001192,203995.58,204328.762,,10,revenue
screen,html.Screen,2_1_1_1_11,2022-02-15T16:30:31.125Z,,,,,,,,,,,,,,,,,54,,,,,,,,,,,,,,451.33799999405164,,response,,,,100,,,,,,,Space,keypress(Space),,,,,,,,-- --- ---- --- ------ ----- ------- ---- -- --- ------- by<br>------- ---------- ------ -- ----- -- ----- -- ---- ------<br>--- ----- --- --- ------ -------- ----- --- ------ ----- --<br>----- ----- ---------- --- --- ------ ------ ---- -- ------<br>------- --- ------ ----- --- ---- ------- -- ---- --- --<br>------- ------,204781,204780.09999999404,204312.058,204315.30000001192,204328.762,204795.263,,11,by
screen,html.Screen,2_1_1_1_12,2022-02-15T16:30:31.504Z,,,,,,,,,,,,,,,,,54,,,,,,,,,,,,,,364.2369999999937,,response,,,,100,,,,,,,Space,keypress(Space),,,,,,,,-- --- ---- --- ------ ----- ------- ---- -- --- ------- --<br>issuing ---------- ------ -- ----- -- ----- -- ---- ------<br>--- ----- --- --- ------ -------- ----- --- ------ ----- --<br>----- ----- ---------- --- --- ------ ------ ---- -- ------<br>------- --- ------ ----- --- ---- ------- -- ---- --- --<br>------- ------,205160.69999998808,205159.5,204778.373,204781.19999998808,204795.263,205178.413,,12,issuing
screen,html.Screen,2_1_1_1_13,2022-02-15T16:30:31.925Z,,,,,,,,,,,,,,,,,54,,,,,,,,,,,,,,402.2869999880786,,response,,,,100,,,,,,,Space,keypress(Space),,,,,,,,-- --- ---- --- ------ ----- ------- ---- -- --- ------- --<br>------- government ------ -- ----- -- ----- -- ---- ------<br>--- ----- --- --- ------ -------- ----- --- ------ ----- --<br>----- ----- ---------- --- --- ------ ------ ---- -- ------<br>------- --- ------ ----- --- ---- ------- -- ---- --- --<br>------- ------,205581.59999999404,205580.69999998808,205161.695,205160.90000000596,205178.413,205594.77,,13,government
screen,html.Screen,2_1_1_1_14,2022-02-15T16:30:35.209Z,,,,,,,,,,,,,,,,,54,,,,,,,,,,,,,,3269.130000005971,,response,,,,100,,,,,,,Space,keypress(Space),,,,,,,,-- --- ---- --- ------ ----- ------- ---- -- --- ------- --<br>------- ---------- bonds. -- ----- -- ----- -- ---- ------<br>--- ----- --- --- ------ -------- ----- --- ------ ----- --<br>----- ----- ---------- --- --- ------ ------ ---- -- ------<br>------- --- ------ ----- --- ---- ------- -- ---- --- --<br>------- ------,208865,208863.90000000596,205578.101,205581.90000000596,205594.77,208876.644,,14,bonds.
screen,html.Screen,2_1_1_1_15,2022-02-15T16:30:35.579Z,,,,,,,,,,,,,,,,,54,,,,,,,,,,,,,,358.25600000596023,,response,,,,100,,,,,,,Space,keypress(Space),,,,,,,,-- --- ---- --- ------ ----- ------- ---- -- --- ------- --<br>------- ---------- ------ In ----- -- ----- -- ---- ------<br>--- ----- --- --- ------ -------- ----- --- ------ ----- --<br>----- ----- ---------- --- --- ------ ------ ---- -- ------<br>------- --- ------ ----- --- ---- ------- -- ---- --- --<br>------- ------,209235.80000001192,209234.90000000596,208860.018,208865.30000001192,208876.644,209243.18,,15,In
screen,html.Screen,2_1_1_1_16,2022-02-15T16:30:35.988Z,,,,,,,,,,,,,,,,,54,,,,,,,,,,,,,,400.72000000596745,,response,,,,100,,,,,,,Space,keypress(Space),,,,,,,,"-- --- ---- --- ------ ----- ------- ---- -- --- ------- --<br>------- ---------- ------ -- 1727, -- ----- -- ---- ------<br>--- ----- --- --- ------ -------- ----- --- ------ ----- --<br>----- ----- ---------- --- --- ------ ------ ---- -- ------<br>------- --- ------ ----- --- ---- ------- -- ---- --- --<br>------- ------",209644.69999998808,209643.90000000596,209226.65,209236.09999999404,209243.18,209659.901,,16,"1727,"
screen,html.Screen,2_1_1_1_17,2022-02-15T16:30:36.527Z,,,,,,,,,,,,,,,,,54,,,,,,,,,,,,,,522.698999994027,,response,,,,100,,,,,,,Space,keypress(Space),,,,,,,,-- --- ---- --- ------ ----- ------- ---- -- --- ------- --<br>------- ---------- ------ -- ----- in ----- -- ---- ------<br>--- ----- --- --- ------ -------- ----- --- ------ ----- --<br>----- ----- ---------- --- --- ------ ------ ---- -- ------<br>------- --- ------ ----- --- ---- ------- -- ---- --- --<br>------- ------,210183.5,210182.59999999404,209643.15,209645,209659.901,210192.822,,17,in
screen,html.Screen,2_1_1_1_18,2022-02-15T16:30:37.046Z,,,,,,,,,,,,,,,,,54,,,,,,,,,,,,,,508.5780000059749,,response,,,,100,,,,,,,Space,keypress(Space),,,,,,,,-- --- ---- --- ------ ----- ------- ---- -- --- ------- --<br>------- ---------- ------ -- ----- -- order -- ---- ------<br>--- ----- --- --- ------ -------- ----- --- ------ ----- --<br>----- ----- ---------- --- --- ------ ------ ---- -- ------<br>------- --- ------ ----- --- ---- ------- -- ---- --- --<br>------- ------,210702.40000000596,210701.40000000596,210176.22,210183.69999998808,210192.822,210709.22,,18,order
screen,html.Screen,2_1_1_1_19,2022-02-15T16:30:37.344Z,,,,,,,,,,,,,,,,,54,,,,,,,,,,,,,,289.87999999403837,,response,,,,100,,,,,,,Space,keypress(Space),,,,,,,,-- --- ---- --- ------ ----- ------- ---- -- --- ------- --<br>------- ---------- ------ -- ----- -- ----- to ---- ------<br>--- ----- --- --- ------ -------- ----- --- ------ ----- --<br>----- ----- ---------- --- --- ------ ------ ---- -- ------<br>------- --- ------ ----- --- ---- ------- -- ---- --- --<br>------- ------,211000.09999999404,210999.09999999404,210692.727,210702.69999998808,210709.22,211009.075,,19,to
screen,html.Screen,2_1_1_1_20,2022-02-15T16:30:37.713Z,,,,,,,,,,,,,,,,,54,,,,,,,,,,,,,,359.62499998806743,,response,,,,100,,,,,,,Space,keypress(Space),,,,,,,,-- --- ---- --- ------ ----- ------- ---- -- --- ------- --<br>------- ---------- ------ -- ----- -- ----- -- save ------<br>--- ----- --- --- ------ -------- ----- --- ------ ----- --<br>----- ----- ---------- --- --- ------ ------ ---- -- ------<br>------- --- ------ ----- --- ---- ------- -- ---- --- --<br>------- ------,211369.80000001192,211368.69999998808,210992.457,211000.40000000596,211009.075,211375.607,,20,save
screen,html.Screen,2_1_1_1_21,2022-02-15T16:30:38.453Z,,,,,,,,,,,,,,,,,54,,,,,,,,,,,,,,732.6930000119319,,response,,,,100,,,,,,,Space,keypress(Space),,,,,,,,"-- --- ---- --- ------ ----- ------- ---- -- --- ------- --<br>------- ---------- ------ -- ----- -- ----- -- ---- money,<br>--- ----- --- --- ------ -------- ----- --- ------ ----- --<br>----- ----- ---------- --- --- ------ ------ ---- -- ------<br>------- --- ------ ----- --- ---- ------- -- ---- --- --<br>------- ------",212109.19999998808,212108.30000001192,211358.953,211370,211375.607,212125.557,,21,"money,"
screen,html.Screen,2_1_1_1_22,2022-02-15T16:30:38.981Z,,,,,,,,,,,,,,,,,54,,,,,,,,,,,,,,511.34300000595977,,response,,,,100,,,,,,,Space,keypress(Space),,,,,,,,-- --- ---- --- ------ ----- ------- ---- -- --- ------- --<br>------- ---------- ------ -- ----- -- ----- -- ---- ------<br>the ----- --- --- ------ -------- ----- --- ------ ----- --<br>----- ----- ---------- --- --- ------ ------ ---- -- ------<br>------- --- ------ ----- --- ---- ------- -- ---- --- --<br>------- ------,212637.69999998808,212636.90000000596,212108.745,212109.40000000596,212125.557,212641.768,,22,the
screen,html.Screen,2_1_1_1_23,2022-02-15T16:30:39.356Z,,,,,,,,,,,,,,,,,54,,,,,,,,,,,,,,369.9319999880681,,response,,,,100,,,,,,,Space,keypress(Space),,,,,,,,-- --- ---- --- ------ ----- ------- ---- -- --- ------- --<br>------- ---------- ------ -- ----- -- ----- -- ---- ------<br>--- state --- --- ------ -------- ----- --- ------ ----- --<br>----- ----- ---------- --- --- ------ ------ ---- -- ------<br>------- --- ------ ----- --- ---- ------- -- ---- --- --<br>------- ------,213012.59999999404,213011.69999998808,212625.256,212638.09999999404,212641.768,213025.036,,23,state
screen,html.Screen,2_1_1_1_24,2022-02-15T16:30:39.735Z,,,,,,,,,,,,,,,,,54,,,,,,,,,,,,,,365.3640000059677,,response,,,,100,,,,,,,Space,keypress(Space),,,,,,,,-- --- ---- --- ------ ----- ------- ---- -- --- ------- --<br>------- ---------- ------ -- ----- -- ----- -- ---- ------<br>--- ----- cut --- ------ -------- ----- --- ------ ----- --<br>----- ----- ---------- --- --- ------ ------ ---- -- ------<br>------- --- ------ ----- --- ---- ------- -- ---- --- --<br>------- ------,213391.40000000596,213390.40000000596,213008.343,213012.80000001192,213025.036,213408.281,,24,cut
screen,html.Screen,2_1_1_1_25,2022-02-15T16:30:40.165Z,,,,,,,,,,,,,,,,,54,,,,,,,,,,,,,,412.2190000000119,,response,,,,100,,,,,,,Space,keypress(Space),,,,,,,,-- --- ---- --- ------ ----- ------- ---- -- --- ------- --<br>------- ---------- ------ -- ----- -- ----- -- ---- ------<br>--- ----- --- the ------ -------- ----- --- ------ ----- --<br>----- ----- ---------- --- --- ------ ------ ---- -- ------<br>------- --- ------ ----- --- ---- ------- -- ---- --- --<br>------- ------,213821.40000000596,213820.5,213391.607,213391.59999999404,213408.281,213824.604,,25,the
screen,html.Screen,2_1_1_1_26,2022-02-15T16:30:40.580Z,,,,,,,,,,,,,,,,,54,,,,,,,,,,,,,,410.7960000059684,,response,,,,100,,,,,,,Space,keypress(Space),,,,,,,,-- --- ---- --- ------ ----- ------- ---- -- --- ------- --<br>------- ---------- ------ -- ----- -- ----- -- ---- ------<br>--- ----- --- --- bonds' -------- ----- --- ------ ----- --<br>----- ----- ---------- --- --- ------ ------ ---- -- ------<br>------- --- ------ ----- --- ---- ------- -- ---- --- --<br>------- ------,214236.40000000596,214235.40000000596,213808.104,213821.59999999404,213824.604,214241.098,,26,bonds'
screen,html.Screen,2_1_1_1_27,2022-02-15T16:30:41.039Z,,,,,,,,,,,,,,,,,54,,,,,,,,,,,,,,453.7020000119228,,response,,,,100,,,,,,,Space,keypress(Space),,,,,,,,-- --- ---- --- ------ ----- ------- ---- -- --- ------- --<br>------- ---------- ------ -- ----- -- ----- -- ---- ------<br>--- ----- --- --- ------ interest ----- --- ------ ----- --<br>----- ----- ---------- --- --- ------ ------ ---- -- ------<br>------- --- ------ ----- --- ---- ------- -- ---- --- --<br>------- ------,214695.69999998808,214694.80000001192,214224.48,214236.59999999404,214241.098,214707.655,,27,interest
screen,html.Screen,2_1_1_1_28,2022-02-15T16:30:41.416Z,,,,,,,,,,,,,,,,,54,,,,,,,,,,,,,,363.9449999940407,,response,,,,100,,,,,,,Space,keypress(Space),,,,,,,,-- --- ---- --- ------ ----- ------- ---- -- --- ------- --<br>------- ---------- ------ -- ----- -- ----- -- ---- ------<br>--- ----- --- --- ------ -------- rate. --- ------ ----- --<br>----- ----- ---------- --- --- ------ ------ ---- -- ------<br>------- --- ------ ----- --- ---- ------- -- ---- --- --<br>------- ------,215072.40000000596,215071.59999999404,214691.066,214695.90000000596,214707.655,215096.007,,28,rate.
screen,html.Screen,2_1_1_1_29,2022-02-15T16:30:44.609Z,,,,,,,,,,,,,,,,,54,,,,,,,,,,,,,,3168.393000005948,,response,,,,100,,,,,,,Space,keypress(Space),,,,,,,,-- --- ---- --- ------ ----- ------- ---- -- --- ------- --<br>------- ---------- ------ -- ----- -- ----- -- ---- ------<br>--- ----- --- --- ------ -------- ----- The ------ ----- --<br>----- ----- ---------- --- --- ------ ------ ---- -- ------<br>------- --- ------ ----- --- ---- ------- -- ---- --- --<br>------- ------,218265,218264.40000000596,215057.589,215072.59999999404,215096.007,218272.705,,29,The
screen,html.Screen,2_1_1_1_30,2022-02-15T16:30:45.046Z,,,,,,,,,,,,,,,,,54,,,,,,,,,,,,,,429.09500001193373,,response,,,,100,,,,,,,Space,keypress(Space),,,,,,,,-- --- ---- --- ------ ----- ------- ---- -- --- ------- --<br>------- ---------- ------ -- ----- -- ----- -- ---- ------<br>--- ----- --- --- ------ -------- ----- --- market ----- --<br>----- ----- ---------- --- --- ------ ------ ---- -- ------<br>------- --- ------ ----- --- ---- ------- -- ---- --- --<br>------- ------,218702.69999998808,218701.80000001192,218255.9,218265.30000001192,218272.705,218705.919,,30,market
screen,html.Screen,2_1_1_1_31,2022-02-15T16:30:45.408Z,,,,,,,,,,,,,,,,,54,,,,,,,,,,,,,,357.5810000000056,,response,,,,100,,,,,,,Space,keypress(Space),,,,,,,,-- --- ---- --- ------ ----- ------- ---- -- --- ------- --<br>------- ---------- ------ -- ----- -- ----- -- ---- ------<br>--- ----- --- --- ------ -------- ----- --- ------ value --<br>----- ----- ---------- --- --- ------ ------ ---- -- ------<br>------- --- ------ ----- --- ---- ------- -- ---- --- --<br>------- ------,219064.40000000596,219063.5,218689.413,218703,218705.919,219072.49,,31,value
screen,html.Screen,2_1_1_1_32,2022-02-15T16:30:45.778Z,,,,,,,,,,,,,,,,,54,,,,,,,,,,,,,,360.7099999880884,,response,,,,100,,,,,,,Space,keypress(Space),,,,,,,,-- --- ---- --- ------ ----- ------- ---- -- --- ------- --<br>------- ---------- ------ -- ----- -- ----- -- ---- ------<br>--- ----- --- --- ------ -------- ----- --- ------ ----- of<br>----- ----- ---------- --- --- ------ ------ ---- -- ------<br>------- --- ------ ----- --- ---- ------- -- ---- --- --<br>------- ------,219434.09999999404,219433.19999998808,219055.934,219064.59999999404,219072.49,219438.954,,32,of
screen,html.Screen,2_1_1_1_33,2022-02-15T16:30:46.200Z,,,,,,,,,,,,,,,,,54,,,,,,,,,,,,,,416.24599998808117,,response,,,,100,,,,,,,Space,keypress(Space),,,,,,,,-- --- ---- --- ------ ----- ------- ---- -- --- ------- --<br>------- ---------- ------ -- ----- -- ----- -- ---- ------<br>--- ----- --- --- ------ -------- ----- --- ------ ----- --<br>these ----- ---------- --- --- ------ ------ ---- -- ------<br>------- --- ------ ----- --- ---- ------- -- ---- --- --<br>------- ------,219856.30000001192,219855.19999998808,219422.447,219434.30000001192,219438.954,219872.341,,33,these
screen,html.Screen,2_1_1_1_34,2022-02-15T16:30:46.591Z,,,,,,,,,,,,,,,,,54,,,,,,,,,,,,,,374.05900000597467,,response,,,,100,,,,,,,Space,keypress(Space),,,,,,,,-- --- ---- --- ------ ----- ------- ---- -- --- ------- --<br>------- ---------- ------ -- ----- -- ----- -- ---- ------<br>--- ----- --- --- ------ -------- ----- --- ------ ----- --<br>----- bonds ---------- --- --- ------ ------ ---- -- ------<br>------- --- ------ ----- --- ---- ------- -- ---- --- --<br>------- ------,220247.30000001192,220246.40000000596,219855.458,219856.69999998808,219872.341,220255.357,,34,bonds
screen,html.Screen,2_1_1_1_35,2022-02-15T16:30:47.065Z,,,,,,,,,,,,,,,,,54,,,,,,,,,,,,,,465.34299998809,,response,,,,100,,,,,,,Space,keypress(Space),,,,,,,,"-- --- ---- --- ------ ----- ------- ---- -- --- ------- --<br>------- ---------- ------ -- ----- -- ----- -- ---- ------<br>--- ----- --- --- ------ -------- ----- --- ------ ----- --<br>----- ----- plummeted, --- --- ------ ------ ---- -- ------<br>------- --- ------ ----- --- ---- ------- -- ---- --- --<br>------- ------",220721.80000001192,220720.69999998808,220238.765,220247.59999999404,220255.357,220738.59,,35,"plummeted,"
screen,html.Screen,2_1_1_1_36,2022-02-15T16:30:47.549Z,,,,,,,,,,,,,,,,,54,,,,,,,,,,,,,,466.31000000596396,,response,,,,100,,,,,,,Space,keypress(Space),,,,,,,,-- --- ---- --- ------ ----- ------- ---- -- --- ------- --<br>------- ---------- ------ -- ----- -- ----- -- ---- ------<br>--- ----- --- --- ------ -------- ----- --- ------ ----- --<br>----- ----- ---------- and --- ------ ------ ---- -- ------<br>------- --- ------ ----- --- ---- ------- -- ---- --- --<br>------- ------,221205.90000000596,221204.90000000596,220721.894,220722,220738.59,221221.6,,36,and
screen,html.Screen,2_1_1_1_37,2022-02-15T16:30:48.073Z,,,,,,,,,,,,,,,,,54,,,,,,,,,,,,,,506.8999999999942,,response,,,,100,,,,,,,Space,keypress(Space),,,,,,,,-- --- ---- --- ------ ----- ------- ---- -- --- ------- --<br>------- ---------- ------ -- ----- -- ----- -- ---- ------<br>--- ----- --- --- ------ -------- ----- --- ------ ----- --<br>----- ----- ---------- --- the ------ ------ ---- -- ------<br>------- --- ------ ----- --- ---- ------- -- ---- --- --<br>------- ------,221729.5,221728.5,221205.014,221206.09999999404,221221.6,221737.97,,37,the
screen,html.Screen,2_1_1_1_38,2022-02-15T16:30:48.431Z,,,,,,,,,,,,,,,,,54,,,,,,,,,,,,,,348.7299999880779,,response,,,,100,,,,,,,Space,keypress(Space),,,,,,,,-- --- ---- --- ------ ----- ------- ---- -- --- ------- --<br>------- ---------- ------ -- ----- -- ----- -- ---- ------<br>--- ----- --- --- ------ -------- ----- --- ------ ----- --<br>----- ----- ---------- --- --- market ------ ---- -- ------<br>------- --- ------ ----- --- ---- ------- -- ---- --- --<br>------- ------,222087.69999998808,222086.69999998808,221721.331,221729.69999998808,221737.97,222104.708,,38,market
screen,html.Screen,2_1_1_1_39,2022-02-15T16:30:48.789Z,,,,,,,,,,,,,,,,,54,,,,,,,,,,,,,,339.4919999880658,,response,,,,100,,,,,,,Space,keypress(Space),,,,,,,,-- --- ---- --- ------ ----- ------- ---- -- --- ------- --<br>------- ---------- ------ -- ----- -- ----- -- ---- ------<br>--- ----- --- --- ------ -------- ----- --- ------ ----- --<br>----- ----- ---------- --- --- ------ became ---- -- ------<br>------- --- ------ ----- --- ---- ------- -- ---- --- --<br>------- ------,222445.09999999404,222444.19999998808,222087.854,222088,222104.708,222454.375,,39,became
screen,html.Screen,2_1_1_1_40,2022-02-15T16:30:49.164Z,,,,,,,,,,,,,,,,,54,,,,,,,,,,,,,,365.32499998807907,,response,,,,100,,,,,,,Space,keypress(Space),,,,,,,,-- --- ---- --- ------ ----- ------- ---- -- --- ------- --<br>------- ---------- ------ -- ----- -- ----- -- ---- ------<br>--- ----- --- --- ------ -------- ----- --- ------ ----- --<br>----- ----- ---------- --- --- ------ ------ wary -- ------<br>------- --- ------ ----- --- ---- ------- -- ---- --- --<br>------- ------,222820.59999999404,222819.69999998808,222437.871,222445.40000000596,222454.375,222837.715,,40,wary
screen,html.Screen,2_1_1_1_41,2022-02-15T16:30:49.639Z,,,,,,,,,,,,,,,,,54,,,,,,,,,,,,,,456.7850000000035,,response,,,,100,,,,,,,Space,keypress(Space),,,,,,,,-- --- ---- --- ------ ----- ------- ---- -- --- ------- --<br>------- ---------- ------ -- ----- -- ----- -- ---- ------<br>--- ----- --- --- ------ -------- ----- --- ------ ----- --<br>----- ----- ---------- --- --- ------ ------ ---- of ------<br>------- --- ------ ----- --- ---- ------- -- ---- --- --<br>------- ------,223295.5,223294.5,222820.842,222822.80000001192,222837.715,223303.976,,41,of
screen,html.Screen,2_1_1_1_42,2022-02-15T16:30:50.040Z,,,,,,,,,,,,,,,,,54,,,,,,,,,,,,,,391.6239999940444,,response,,,,100,,,,,,,Space,keypress(Space),,,,,,,,-- --- ---- --- ------ ----- ------- ---- -- --- ------- --<br>------- ---------- ------ -- ----- -- ----- -- ---- ------<br>--- ----- --- --- ------ -------- ----- --- ------ ----- --<br>----- ----- ---------- --- --- ------ ------ ---- -- French<br>------- --- ------ ----- --- ---- ------- -- ---- --- --<br>------- ------,223696.59999999404,223695.59999999404,223287.511,223295.69999998808,223303.976,223703.856,,42,French
screen,html.Screen,2_1_1_1_43,2022-02-15T16:30:50.387Z,,,,,,,,,,,,,,,,,54,,,,,,,,,,,,,,338.3439999880793,,response,,,,100,,,,,,,Space,keypress(Space),,,,,,,,-- --- ---- --- ------ ----- ------- ---- -- --- ------- --<br>------- ---------- ------ -- ----- -- ----- -- ---- ------<br>--- ----- --- --- ------ -------- ----- --- ------ ----- --<br>----- ----- ---------- --- --- ------ ------ ---- -- ------<br>credit. --- ------ ----- --- ---- ------- -- ---- --- --<br>------- ------,224043.19999998808,224042.19999998808,223687.286,223696.80000001192,223703.856,224053.714,,43,credit.
screen,html.Screen,2_1_1_1_44,2022-02-15T16:30:52.297Z,,,,,,,,,,,,,,,,,54,,,,,,,,,,,,,,1898.9859999880719,,response,,,,100,,,,,,,Space,keypress(Space),,,,,,,,-- --- ---- --- ------ ----- ------- ---- -- --- ------- --<br>------- ---------- ------ -- ----- -- ----- -- ---- ------<br>--- ----- --- --- ------ -------- ----- --- ------ ----- --<br>----- ----- ---------- --- --- ------ ------ ---- -- ------<br>------- The ------ ----- --- ---- ------- -- ---- --- --<br>------- ------,225953.69999998808,225952.69999998808,224037.171,224043.40000000596,224053.714,225969.677,,44,The
screen,html.Screen,2_1_1_1_45,2022-02-15T16:30:52.754Z,,,,,,,,,,,,,,,,,54,,,,,,,,,,,,,,439.7230000059644,,response,,,,100,,,,,,,Space,keypress(Space),,,,,,,,-- --- ---- --- ------ ----- ------- ---- -- --- ------- --<br>------- ---------- ------ -- ----- -- ----- -- ---- ------<br>--- ----- --- --- ------ -------- ----- --- ------ ----- --<br>----- ----- ---------- --- --- ------ ------ ---- -- ------<br>------- --- French ----- --- ---- ------- -- ---- --- --<br>------- ------,226410.30000001192,226409.40000000596,225952.852,225953.90000000596,225969.677,226419.419,,45,French
screen,html.Screen,2_1_1_1_46,2022-02-15T16:30:53.171Z,,,,,,,,,,,,,,,,,54,,,,,,,,,,,,,,406.98100000596605,,response,,,,100,,,,,,,Space,keypress(Space),,,,,,,,-- --- ---- --- ------ ----- ------- ---- -- --- ------- --<br>------- ---------- ------ -- ----- -- ----- -- ---- ------<br>--- ----- --- --- ------ -------- ----- --- ------ ----- --<br>----- ----- ---------- --- --- ------ ------ ---- -- ------<br>------- --- ------ state --- ---- ------- -- ---- --- --<br>------- ------,226827.30000001192,226826.40000000596,226402.826,226410.5,226419.419,226835.908,,46,state
screen,html.Screen,2_1_1_1_47,2022-02-15T16:30:53.578Z,,,,,,,,,,,,,,,,,54,,,,,,,,,,,,,,397.49200000596466,,response,,,,100,,,,,,,Space,keypress(Space),,,,,,,,-- --- ---- --- ------ ----- ------- ---- -- --- ------- --<br>------- ---------- ------ -- ----- -- ----- -- ---- ------<br>--- ----- --- --- ------ -------- ----- --- ------ ----- --<br>----- ----- ---------- --- --- ------ ------ ---- -- ------<br>------- --- ------ ----- was ---- ------- -- ---- --- --<br>------- ------,227234.40000000596,227233.40000000596,226819.362,226827.5,226835.908,227266.088,,47,was
screen,html.Screen,2_1_1_1_48,2022-02-15T16:30:53.986Z,,,,,,,,,,,,,,,,,54,,,,,,,,,,,,,,375.61199998809025,,response,,,,100,,,,,,,Space,keypress(Space),,,,,,,,-- --- ---- --- ------ ----- ------- ---- -- --- ------- --<br>------- ---------- ------ -- ----- -- ----- -- ---- ------<br>--- ----- --- --- ------ -------- ----- --- ------ ----- --<br>----- ----- ---------- --- --- ------ ------ ---- -- ------<br>------- --- ------ ----- --- left ------- -- ---- --- --<br>------- ------,227642.90000000596,227641.69999998808,227219.065,227234.59999999404,227266.088,227652.219,,48,left
screen,html.Screen,2_1_1_1_49,2022-02-15T16:30:54.377Z,,,,,,,,,,,,,,,,,54,,,,,,,,,,,,,,380.08100001190905,,response,,,,100,,,,,,,Space,keypress(Space),,,,,,,,-- --- ---- --- ------ ----- ------- ---- -- --- ------- --<br>------- ---------- ------ -- ----- -- ----- -- ---- ------<br>--- ----- --- --- ------ -------- ----- --- ------ ----- --<br>----- ----- ---------- --- --- ------ ------ ---- -- ------<br>------- --- ------ ----- --- ---- without -- ---- --- --<br>------- ------,228033.30000001192,228032.30000001192,227635.529,227643.09999999404,227652.219,228059.054,,49,without
screen,html.Screen,2_1_1_1_50,2022-02-15T16:30:54.715Z,,,,,,,,,,,,,,,,,54,,,,,,,,,,,,,,311.9459999999963,,response,,,,100,,,,,,,Space,keypress(Space),,,,,,,,-- --- ---- --- ------ ----- ------- ---- -- --- ------- --<br>------- ---------- ------ -- ----- -- ----- -- ---- ------<br>--- ----- --- --- ------ -------- ----- --- ------ ----- --<br>----- ----- ---------- --- --- ------ ------ ---- -- ------<br>------- --- ------ ----- --- ---- ------- an ---- --- --<br>------- ------,228371.80000001192,228371,228018.864,228033.5,228059.054,228385.479,,50,an
screen,html.Screen,2_1_1_1_51,2022-02-15T16:30:55.074Z,,,,,,,,,,,,,,,,,54,,,,,,,,,,,,,,343.720999988087,,response,,,,100,,,,,,,Space,keypress(Space),,,,,,,,-- --- ---- --- ------ ----- ------- ---- -- --- ------- --<br>------- ---------- ------ -- ----- -- ----- -- ---- ------<br>--- ----- --- --- ------ -------- ----- --- ------ ----- --<br>----- ----- ---------- --- --- ------ ------ ---- -- ------<br>------- --- ------ ----- --- ---- ------- -- easy --- --<br>------- ------,228730.09999999404,228729.19999998808,228368.735,228372,228385.479,228735.108,,51,easy
screen,html.Screen,2_1_1_1_52,2022-02-15T16:30:55.403Z,,,,,,,,,,,,,,,,,54,,,,,,,,,,,,,,323.1920000119135,,response,,,,100,,,,,,,Space,keypress(Space),,,,,,,,-- --- ---- --- ------ ----- ------- ---- -- --- ------- --<br>------- ---------- ------ -- ----- -- ----- -- ---- ------<br>--- ----- --- --- ------ -------- ----- --- ------ ----- --<br>----- ----- ---------- --- --- ------ ------ ---- -- ------<br>------- --- ------ ----- --- ---- ------- -- ---- way --<br>------- ------,229059.30000001192,229058.30000001192,228718.585,228730.40000000596,228735.108,229068.306,,52,way
screen,html.Screen,2_1_1_1_53,2022-02-15T16:30:55.781Z,,,,,,,,,,,,,,,,,54,,,,,,,,,,,,,,367.89399998806766,,response,,,,100,,,,,,,Space,keypress(Space),,,,,,,,-- --- ---- --- ------ ----- ------- ---- -- --- ------- --<br>------- ---------- ------ -- ----- -- ----- -- ---- ------<br>--- ----- --- --- ------ -------- ----- --- ------ ----- --<br>----- ----- ---------- --- --- ------ ------ ---- -- ------<br>------- --- ------ ----- --- ---- ------- -- ---- --- of<br>------- ------,229437.09999999404,229436.19999998808,229051.64,229059.59999999404,229068.306,229451.568,,53,of
screen,html.Screen,2_1_1_1_54,2022-02-15T16:30:56.181Z,,,,,,,,,,,,,,,,,54,,,,,,,,,,,,,,384.7320000119216,,response,,,,100,,,,,,,Space,keypress(Space),,,,,,,,-- --- ---- --- ------ ----- ------- ---- -- --- ------- --<br>------- ---------- ------ -- ----- -- ----- -- ---- ------<br>--- ----- --- --- ------ -------- ----- --- ------ ----- --<br>----- ----- ---------- --- --- ------ ------ ---- -- ------<br>------- --- ------ ----- --- ---- ------- -- ---- --- --<br>raising ------,229837.19999998808,229836.30000001192,229434.816,229437.40000000596,229451.568,229851.551,,54,raising
screen,html.Screen,2_1_1_1_55,2022-02-15T16:30:57.618Z,,,,,,,,,,,,,,,,,54,,,,,,,,,,,,,,1422.1489999880723,,response,,,,100,,,,,,,Space,keypress(Space),,,,,,,,-- --- ---- --- ------ ----- ------- ---- -- --- ------- --<br>------- ---------- ------ -- ----- -- ----- -- ---- ------<br>--- ----- --- --- ------ -------- ----- --- ------ ----- --<br>----- ----- ---------- --- --- ------ ------ ---- -- ------<br>------- --- ------ ----- --- ---- ------- -- ---- --- --<br>------- money.,231274.69999998808,231273.69999998808,229834.753,229837.5,229851.551,231284.035,,55,money.
Item 100,flow.Loop,2_1_1_1,2022-02-15T16:30:57.619Z,,,,,,,,,,,,,,,,,,,,,,,,,,,,,,,32476.183999988076,,completion,,,,,B,,,,,,,,,,,silence,,,,,231275.09999999404,231273.69999998808,198780.851,198782.19999998808,198797.516,231284.035,,,
Question 1,html.Screen,2_1_1_2,2022-02-15T16:31:01.105Z,,,,,,,,,,,,,,,,,,,,,,,,,,,,true,TRUE,,3476.9649999999965,,response,,,,100,B,,,,,,TRUE,click #choice-1,,,,silence,,,,,234761.59999999404,234761,231267.473,231275.40000000596,231284.035,234765.906,,,
Question 2,html.Screen,2_1_1_3,2022-02-15T16:31:03.441Z,,,,,,,,,,,,,,,,,,,,,,,,,,,,true,FALSE,,2331.394000011933,,response,,,,100,B,,,,,,FALSE,click #choice-2,,,,silence,,,,,237097.80000001192,237097.30000001192,234749.444,234761.69999998808,234765.906,237116.185,,,
Item 100,flow.Sequence,2_1_1,2022-02-15T16:31:03.442Z,,,,,,,,,,,,,,,,,,,,,,,,,,,,,,,48295.62700001191,,completion,,,,,,,,,,,,,,,,,,,,,237098,237097.30000001192,188785.026,188789.90000000596,188801.673,237116.185,,,
End of Practice,html.Page,2_1_2,2022-02-15T16:31:14.030Z,,,,,,,,,,,,,,,,,,,,,,,,,,,,,,,10569.715000005963,,form submission,,,,,,,,,,,,,,,,,,,,,247686.09999999404,247685.90000000596,237081.789,237098,237116.185,247693.895,,,
Practice,flow.Sequence,2_1,2022-02-15T16:31:14.030Z,,,,,,,,,,,,,,,,,,,,,,,,,,,,,,,124190.58700000597,,completion,,,,,,,,,,,,,,,,,,,,,247686.30000001192,247685.90000000596,123478.879,123494.5,123495.313,247693.895,,,
Trap_instruction,html.Page,2_2_0,2022-02-15T16:31:18.742Z,,,,,,,,,,,,,,,,,,,,,,,,,,,,,,,4704.70499999405,,form submission,,,,,,,,,,,,,,,,,,,,,252398.90000000596,252398.59999999404,247677.379,247686.40000000596,247693.895,252408.527,,,
trap_trial,html.Screen,2_2_1,2022-02-15T16:31:22.493Z,,,,,,,,,,,,,,,,,,,,,,,,,,,,true,1,,3740.472999999998,,response,,,,,,,,,,,1,click #choice-1,,,,,,,,,256149.69999998808,256149,252392.081,252399,252408.527,256157.079,,,
end of trap trial,html.Page,2_2_2,2022-02-15T16:31:26.090Z,,,,,,,,,,,,,,,,,,,,,,,,,,,,,,,3589.0209999940416,,form submission,,,,,,,,,,,,,,,,,,,,,259746.30000001192,259746.09999999404,256140.556,256149.90000000596,256157.079,259755.769,,,
Trap 1,flow.Sequence,2_2,2022-02-15T16:31:26.090Z,,,,,,,,,,,,,,,,,,,,,,,,,,,,,,,12052.20499999405,,completion,,,,,,,,,,,,,,,,,,,,,259746.40000000596,259746.09999999404,247677.379,247686.40000000596,247693.895,259755.769,,,
Standby,html.Page,2_3_0,2022-02-15T16:31:34.081Z,,,,,,,,,,,,,,,,,,,,,,,,,,,,,,,7996.621000000014,,timeout,,,,,,,,,,,,,,,,,,,,,267737.09999999404,267735.603,259738.932,259746.5,259755.769,267752.39,,,
Holding screen,html.Screen,2_3_1_0_0,2022-02-15T16:31:41.077Z,,,,,,,,,,,,,,,,,,,,,,,,,,,,,,,6996.946999999986,,timeout,,,,,,,,,,,,,,,,,,,,,274733.90000000596,274732.864,267735.603,267737.40000000596,267752.39,274749.337,,,
screen,html.Screen,2_3_1_0_1_0,2022-02-15T16:31:42.291Z,,,,,,,,,,,,,,,,,2,,,,,,,,,,,,,,1197.4630000119214,,response,,,,1,B,,,,,,Space,keypress(Space),,,,lyrical,,,,Two ---- ------ --- ------- ---------- ------- ----------<br>--- --------- --- ----------- ------- ----- ------- ---<br>--------- ---- -- --- ---- -- --------- -- ---- -------<br>-- --------- ------ --- ----- ------ ---- --- --------- --<br>------ - ---- -- --- ----------- ------- ---- ----- -----<br>--- -------- - ------ ---- -- ----- ---- --- --- -----------<br>-- -------,275947.90000000596,275946.8000000119,274732.864,274734.1999999881,274749.337,275967.262,,0,Two
screen,html.Screen,2_3_1_0_1_1,2022-02-15T16:31:42.775Z,,,,,,,,,,,,,,,,,2,,,,,,,,,,,,,,463.53800001193304,,response,,,,1,B,,,,,,Space,keypress(Space),,,,lyrical,,,,--- days ------ --- ------- ---------- ------- ----------<br>--- --------- --- ----------- ------- ----- ------- ---<br>--------- ---- -- --- ---- -- --------- -- ---- -------<br>-- --------- ------ --- ----- ------ ---- --- --------- --<br>------ - ---- -- --- ----------- ------- ---- ----- -----<br>--- -------- - ------ ---- -- ----- ---- --- --- -----------<br>-- -------,276431.8000000119,276430.8000000119,275932.129,275948.3000000119,275967.262,276448.752,,1,days
screen,html.Screen,2_3_1_0_1_2,2022-02-15T16:31:43.206Z,,,,,,,,,,,,,,,,,2,,,,,,,,,,,,,,413.34799999406096,,response,,,,1,B,,,,,,Space,keypress(Space),,,,lyrical,,,,"--- ---- later, --- ------- ---------- ------- ----------<br>--- --------- --- ----------- ------- ----- ------- ---<br>--------- ---- -- --- ---- -- --------- -- ---- -------<br>-- --------- ------ --- ----- ------ ---- --- --------- --<br>------ - ---- -- --- ----------- ------- ---- ----- -----<br>--- -------- - ------ ---- -- ----- ---- --- --- -----------<br>-- -------",276863.09999999404,276862.09999999404,276431.988,276432.09999999404,276448.752,276887.471,,2,"later,"
screen,html.Screen,2_3_1_0_1_3,2022-02-15T16:31:43.744Z,,,,,,,,,,,,,,,,,2,,,,,,,,,,,,,,512.62899999402,,response,,,,1,B,,,,,,Space,keypress(Space),,,,lyrical,,,,--- ---- ------ the ------- ---------- ------- ----------<br>--- --------- --- ----------- ------- ----- ------- ---<br>--------- ---- -- --- ---- -- --------- -- ---- -------<br>-- --------- ------ --- ----- ------ ---- --- --------- --<br>------ - ---- -- --- ----------- ------- ---- ----- -----<br>--- -------- - ------ ---- -- ----- ---- --- --- -----------<br>-- -------,277400.90000000596,277400.09999999404,276848.504,276863.1999999881,276887.471,277415.135,,3,the
screen,html.Screen,2_3_1_0_1_4,2022-02-15T16:31:44.279Z,,,,,,,,,,,,,,,,,2,,,,,,,,,,,,,,519.6650000119116,,response,,,,1,B,,,,,,Space,keypress(Space),,,,lyrical,,,,--- ---- ------ --- British ---------- ------- ----------<br>--- --------- --- ----------- ------- ----- ------- ---<br>--------- ---- -- --- ---- -- --------- -- ---- -------<br>-- --------- ------ --- ----- ------ ---- --- --------- --<br>------ - ---- -- --- ----------- ------- ---- ----- -----<br>--- -------- - ------ ---- -- ----- ---- --- --- -----------<br>-- -------,277935.6999999881,277934.8000000119,277398.359,277401.1999999881,277415.135,277948.111,,4,British
screen,html.Screen,2_3_1_0_1_5,2022-02-15T16:31:44.730Z,,,,,,,,,,,,,,,,,2,,,,,,,,,,,,,,437.28900000598514,,response,,,,1,B,,,,,,Space,keypress(Space),,,,lyrical,,,,--- ---- ------ --- ------- astronomer ------- ----------<br>--- --------- --- ----------- ------- ----- ------- ---<br>--------- ---- -- --- ---- -- --------- -- ---- -------<br>-- --------- ------ --- ----- ------ ---- --- --------- --<br>------ - ---- -- --- ----------- ------- ---- ----- -----<br>--- -------- - ------ ---- -- ----- ---- --- --- -----------<br>-- -------,278386.40000000596,278385.40000000596,277931.505,277935.90000000596,277948.111,278397.815,,5,astronomer
screen,html.Screen,2_3_1_0_1_6,2022-02-15T16:31:45.198Z,,,,,,,,,,,,,,,,,2,,,,,,,,,,,,,,455.7849999940372,,response,,,,1,B,,,,,,Space,keypress(Space),,,,lyrical,,,,--- ---- ------ --- ------- ---------- Richard ----------<br>--- --------- --- ----------- ------- ----- ------- ---<br>--------- ---- -- --- ---- -- --------- -- ---- -------<br>-- --------- ------ --- ----- ------ ---- --- --------- --<br>------ - ---- -- --- ----------- ------- ---- ----- -----<br>--- -------- - ------ ---- -- ----- ---- --- --- -----------<br>-- -------,278854.40000000596,278853.59999999404,278381.32,278386.59999999404,278397.815,278864.33,,6,Richard
screen,html.Screen,2_3_1_0_1_7,2022-02-15T16:31:45.869Z,,,,,,,,,,,,,,,,,2,,,,,,,,,,,,,,659.7699999940232,,response,,,,1,B,,,,,,Space,keypress(Space),,,,lyrical,,,,--- ---- ------ --- ------- ---------- ------- Carrington<br>--- --------- --- ----------- ------- ----- ------- ---<br>--------- ---- -- --- ---- -- --------- -- ---- -------<br>-- --------- ------ --- ----- ------ ---- --- --------- --<br>------ - ---- -- --- ----------- ------- ---- ----- -----<br>--- -------- - ------ ---- -- ----- ---- --- --- -----------<br>-- -------,279525.09999999404,279524.09999999404,278847.79,278854.59999999404,278864.33,279530.698,,7,Carrington
screen,html.Screen,2_3_1_0_1_8,2022-02-15T16:31:47.482Z,,,,,,,,,,,,,,,,,2,,,,,,,,,,,,,,1606.4019999940647,,response,,,,1,B,,,,,,Space,keypress(Space),,,,lyrical,,,,--- ---- ------ --- ------- ---------- ------- ----------<br>was --------- --- ----------- ------- ----- ------- ---<br>--------- ---- -- --- ---- -- --------- -- ---- -------<br>-- --------- ------ --- ----- ------ ---- --- --------- --<br>------ - ---- -- --- ----------- ------- ---- ----- -----<br>--- -------- - ------ ---- -- ----- ---- --- --- -----------<br>-- -------,281138.1999999881,281137.09999999404,279513.991,279525.40000000596,279530.698,281146.675,,8,was
screen,html.Screen,2_3_1_0_1_9,2022-02-15T16:31:47.899Z,,,,,,,,,,,,,,,,,2,,,,,,,,,,,,,,407.7250000059721,,response,,,,1,B,,,,,,Space,keypress(Space),,,,lyrical,,,,--- ---- ------ --- ------- ---------- ------- ----------<br>--- observing --- ----------- ------- ----- ------- ---<br>--------- ---- -- --- ---- -- --------- -- ---- -------<br>-- --------- ------ --- ----- ------ ---- --- --------- --<br>------ - ---- -- --- ----------- ------- ---- ----- -----<br>--- -------- - ------ ---- -- ----- ---- --- --- -----------<br>-- -------,281555.3000000119,281554.40000000596,281130.106,281138.5,281146.675,281563.2,,9,observing
screen,html.Screen,2_3_1_0_1_10,2022-02-15T16:31:48.306Z,,,,,,,,,,,,,,,,,2,,,,,,,,,,,,,,398.7000000059488,,response,,,,1,B,,,,,,Space,keypress(Space),,,,lyrical,,,,--- ---- ------ --- ------- ---------- ------- ----------<br>--- --------- the ----------- ------- ----- ------- ---<br>--------- ---- -- --- ---- -- --------- -- ---- -------<br>-- --------- ------ --- ----- ------ ---- --- --------- --<br>------ - ---- -- --- ----------- ------- ---- ----- -----<br>--- -------- - ------ ---- -- ----- ---- --- --- -----------<br>-- -------,281962.90000000596,281961.90000000596,281546.539,281555.5,281563.2,281979.808,,10,the
screen,html.Screen,2_3_1_0_1_11,2022-02-15T16:31:48.804Z,,,,,,,,,,,,,,,,,2,,,,,,,,,,,,,,480.0920000059414,,response,,,,1,B,,,,,,Space,keypress(Space),,,,lyrical,,,,--- ---- ------ --- ------- ---------- ------- ----------<br>--- --------- --- interesting ------- ----- ------- ---<br>--------- ---- -- --- ---- -- --------- -- ---- -------<br>-- --------- ------ --- ----- ------ ---- --- --------- --<br>------ - ---- -- --- ----------- ------- ---- ----- -----<br>--- -------- - ------ ---- -- ----- ---- --- --- -----------<br>-- -------,282460.90000000596,282459.90000000596,281963.15,281963.09999999404,281979.808,282484.289,,11,interesting
screen,html.Screen,2_3_1_0_1_12,2022-02-15T16:31:49.427Z,,,,,,,,,,,,,,,,,2,,,,,,,,,,,,,,598.9109999880893,,response,,,,1,B,,,,,,Space,keypress(Space),,,,lyrical,,,,--- ---- ------ --- ------- ---------- ------- ----------<br>--- --------- --- ----------- sunspot ----- ------- ---<br>--------- ---- -- --- ---- -- --------- -- ---- -------<br>-- --------- ------ --- ----- ------ ---- --- --------- --<br>------ - ---- -- --- ----------- ------- ---- ----- -----<br>--- -------- - ------ ---- -- ----- ---- --- --- -----------<br>-- -------,283083.90000000596,283083.1999999881,282446.29,282461.1999999881,282484.289,283095.993,,12,sunspot
screen,html.Screen,2_3_1_0_1_13,2022-02-15T16:31:49.849Z,,,,,,,,,,,,,,,,,2,,,,,,,,,,,,,,408.80700001190417,,response,,,,1,B,,,,,,Space,keypress(Space),,,,lyrical,,,,--- ---- ------ --- ------- ---------- ------- ----------<br>--- --------- --- ----------- ------- group ------- ---<br>--------- ---- -- --- ---- -- --------- -- ---- -------<br>-- --------- ------ --- ----- ------ ---- --- --------- --<br>------ - ---- -- --- ----------- ------- ---- ----- -----<br>--- -------- - ------ ---- -- ----- ---- --- --- -----------<br>-- -------,283505.6999999881,283504.8000000119,283079.229,283084,283095.993,283512.34,,13,group
screen,html.Screen,2_3_1_0_1_14,2022-02-15T16:31:50.248Z,,,,,,,,,,,,,,,,,2,,,,,,,,,,,,,,391.4600000118953,,response,,,,1,B,,,,,,Space,keypress(Space),,,,lyrical,,,,--- ---- ------ --- ------- ---------- ------- ----------<br>--- --------- --- ----------- ------- ----- through ---<br>--------- ---- -- --- ---- -- --------- -- ---- -------<br>-- --------- ------ --- ----- ------ ---- --- --------- --<br>------ - ---- -- --- ----------- ------- ---- ----- -----<br>--- -------- - ------ ---- -- ----- ---- --- --- -----------<br>-- -------,283904.6999999881,283903.8000000119,283495.732,283506,283512.34,283912.22,,14,through
screen,html.Screen,2_3_1_0_1_15,2022-02-15T16:31:50.651Z,,,,,,,,,,,,,,,,,2,,,,,,,,,,,,,,394.58000001194887,,response,,,,1,B,,,,,,Space,keypress(Space),,,,lyrical,,,,--- ---- ------ --- ------- ---------- ------- ----------<br>--- --------- --- ----------- ------- ----- ------- his<br>--------- ---- -- --- ---- -- --------- -- ---- -------<br>-- --------- ------ --- ----- ------ ---- --- --------- --<br>------ - ---- -- --- ----------- ------- ---- ----- -----<br>--- -------- - ------ ---- -- ----- ---- --- --- -----------<br>-- -------,284307.8000000119,284306.8000000119,283895.72,283905,283912.22,284312.055,,15,his
screen,html.Screen,2_3_1_0_1_16,2022-02-15T16:31:51.192Z,,,,,,,,,,,,,,,,,2,,,,,,,,,,,,,,535.644999988086,,response,,,,1,B,,,,,,Space,keypress(Space),,,,lyrical,,,,--- ---- ------ --- ------- ---------- ------- ----------<br>--- --------- --- ----------- ------- ----- ------- ---<br>telescope ---- -- --- ---- -- --------- -- ---- -------<br>-- --------- ------ --- ----- ------ ---- --- --------- --<br>------ - ---- -- --- ----------- ------- ---- ----- -----<br>--- -------- - ------ ---- -- ----- ---- --- --- -----------<br>-- -------,284848.6999999881,284847.6999999881,284295.532,284308,284312.055,284862.085,,16,telescope
screen,html.Screen,2_3_1_0_1_17,2022-02-15T16:31:53.189Z,,,,,,,,,,,,,,,,,2,,,,,,,,,,,,,,1981.914999999979,,response,,,,1,B,,,,,,Space,keypress(Space),,,,lyrical,,,,--- ---- ------ --- ------- ---------- ------- ----------<br>--- --------- --- ----------- ------- ----- ------- ---<br>--------- when -- --- ---- -- --------- -- ---- -------<br>-- --------- ------ --- ----- ------ ---- --- --------- --<br>------ - ---- -- --- ----------- ------- ---- ----- -----<br>--- -------- - ------ ---- -- ----- ---- --- --- -----------<br>-- -------,286845.09999999404,286844,284845.316,284848.90000000596,284862.085,286861.012,,17,when
screen,html.Screen,2_3_1_0_1_18,2022-02-15T16:31:53.627Z,,,,,,,,,,,,,,,,,2,,,,,,,,,,,,,,421.4880000000121,,response,,,,1,B,,,,,,Space,keypress(Space),,,,lyrical,,,,--- ---- ------ --- ------- ---------- ------- ----------<br>--- --------- --- ----------- ------- ----- ------- ---<br>--------- ---- he --- ---- -- --------- -- ---- -------<br>-- --------- ------ --- ----- ------ ---- --- --------- --<br>------ - ---- -- --- ----------- ------- ---- ----- -----<br>--- -------- - ------ ---- -- ----- ---- --- --- -----------<br>-- -------,287283.3000000119,287282.5,286844.276,286845.3000000119,286861.012,287294.169,,18,he
screen,html.Screen,2_3_1_0_1_19,2022-02-15T16:31:53.950Z,,,,,,,,,,,,,,,,,2,,,,,,,,,,,,,,311.3310000000056,,response,,,,1,B,,,,,,Space,keypress(Space),,,,lyrical,,,,--- ---- ------ --- ------- ---------- ------- ----------<br>--- --------- --- ----------- ------- ----- ------- ---<br>--------- ---- -- saw ---- -- --------- -- ---- -------<br>-- --------- ------ --- ----- ------ ---- --- --------- --<br>------ - ---- -- --- ----------- ------- ---- ----- -----<br>--- -------- - ------ ---- -- ----- ---- --- --- -----------<br>-- -------,287606.40000000596,287605.5,287277.68,287283.59999999404,287294.169,287610.706,,19,saw
screen,html.Screen,2_3_1_0_1_20,2022-02-15T16:31:54.329Z,,,,,,,,,,,,,,,,,2,,,,,,,,,,,,,,373.59400001191534,,response,,,,1,B,,,,,,Space,keypress(Space),,,,lyrical,,,,--- ---- ------ --- ------- ---------- ------- ----------<br>--- --------- --- ----------- ------- ----- ------- ---<br>--------- ---- -- --- what -- --------- -- ---- -------<br>-- --------- ------ --- ----- ------ ---- --- --------- --<br>------ - ---- -- --- ----------- ------- ---- ----- -----<br>--- -------- - ------ ---- -- ----- ---- --- --- -----------<br>-- -------,287985.1999999881,287984.3000000119,287594.04,287606.6999999881,287610.706,287993.857,,20,what
screen,html.Screen,2_3_1_0_1_21,2022-02-15T16:31:54.705Z,,,,,,,,,,,,,,,,,2,,,,,,,,,,,,,,366.64299999998184,,response,,,,1,B,,,,,,Space,keypress(Space),,,,lyrical,,,,--- ---- ------ --- ------- ---------- ------- ----------<br>--- --------- --- ----------- ------- ----- ------- ---<br>--------- ---- -- --- ---- he --------- -- ---- -------<br>-- --------- ------ --- ----- ------ ---- --- --------- --<br>------ - ---- -- --- ----------- ------- ---- ----- -----<br>--- -------- - ------ ---- -- ----- ---- --- --- -----------<br>-- -------,288361.5,288360.5,287977.211,287985.5,287993.857,288377.26,,21,he
screen,html.Screen,2_3_1_0_1_22,2022-02-15T16:31:55.051Z,,,,,,,,,,,,,,,,,2,,,,,,,,,,,,,,329.64000000595115,,response,,,,1,B,,,,,,Space,keypress(Space),,,,lyrical,,,,--- ---- ------ --- ------- ---------- ------- ----------<br>--- --------- --- ----------- ------- ----- ------- ---<br>--------- ---- -- --- ---- -- described -- ---- -------<br>-- --------- ------ --- ----- ------ ---- --- --------- --<br>------ - ---- -- --- ----------- ------- ---- ----- -----<br>--- -------- - ------ ---- -- ----- ---- --- --- -----------<br>-- -------,288708,288706.90000000596,288360.501,288361.6999999881,288377.26,288747.542,,22,described
screen,html.Screen,2_3_1_0_1_23,2022-02-15T16:31:55.445Z,,,,,,,,,,,,,,,,,2,,,,,,,,,,,,,,353.15799998806324,,response,,,,1,B,,,,,,Space,keypress(Space),,,,lyrical,,,,--- ---- ------ --- ------- ---------- ------- ----------<br>--- --------- --- ----------- ------- ----- ------- ---<br>--------- ---- -- --- ---- -- --------- as ---- -------<br>-- --------- ------ --- ----- ------ ---- --- --------- --<br>------ - ---- -- --- ----------- ------- ---- ----- -----<br>--- -------- - ------ ---- -- ----- ---- --- --- -----------<br>-- -------,289101.59999999404,289100.6999999881,288693.705,288708.1999999881,288747.542,289110.036,,23,as
screen,html.Screen,2_3_1_0_1_24,2022-02-15T16:31:55.760Z,,,,,,,,,,,,,,,,,2,,,,,,,,,,,,,,305.76400001189904,,response,,,,1,B,,,,,,Space,keypress(Space),,,,lyrical,,,,"--- ---- ------ --- ------- ---------- ------- ----------<br>--- --------- --- ----------- ------- ----- ------- ---<br>--------- ---- -- --- ---- -- --------- -- ""two -------<br>-- --------- ------ --- ----- ------ ---- --- --------- --<br>------ - ---- -- --- ----------- ------- ---- ----- -----<br>--- -------- - ------ ---- -- ----- ---- --- --- -----------<br>-- -------",289416.8000000119,289415.8000000119,289093.352,289101.8000000119,289110.036,289426.581,,24,"""two"
screen,html.Screen,2_3_1_0_1_25,2022-02-15T16:31:56.158Z,,,,,,,,,,,,,,,,,2,,,,,,,,,,,,,,386.9189999999944,,response,,,,1,B,,,,,,Space,keypress(Space),,,,lyrical,,,,--- ---- ------ --- ------- ---------- ------- ----------<br>--- --------- --- ----------- ------- ----- ------- ---<br>--------- ---- -- --- ---- -- --------- -- ---- patches<br>-- --------- ------ --- ----- ------ ---- --- --------- --<br>------ - ---- -- --- ----------- ------- ---- ----- -----<br>--- -------- - ------ ---- -- ----- ---- --- --- -----------<br>-- -------,289814.40000000596,289813.5,289410.066,289417.09999999404,289426.581,289826.635,,25,patches
screen,html.Screen,2_3_1_0_1_26,2022-02-15T16:31:56.538Z,,,,,,,,,,,,,,,,,2,,,,,,,,,,,,,,367.06499998806976,,response,,,,1,B,,,,,,Space,keypress(Space),,,,lyrical,,,,--- ---- ------ --- ------- ---------- ------- ----------<br>--- --------- --- ----------- ------- ----- ------- ---<br>--------- ---- -- --- ---- -- --------- -- ---- -------<br>of --------- ------ --- ----- ------ ---- --- --------- --<br>------ - ---- -- --- ----------- ------- ---- ----- -----<br>--- -------- - ------ ---- -- ----- ---- --- --- -----------<br>-- -------,290194.59999999404,290193.6999999881,289809.866,289814.6999999881,289826.635,290209.69,,26,of
screen,html.Screen,2_3_1_0_1_27,2022-02-15T16:31:56.951Z,,,,,,,,,,,,,,,,,2,,,,,,,,,,,,,,396.50999998807674,,response,,,,1,B,,,,,,Space,keypress(Space),,,,lyrical,,,,--- ---- ------ --- ------- ---------- ------- ----------<br>--- --------- --- ----------- ------- ----- ------- ---<br>--------- ---- -- --- ---- -- --------- -- ---- -------<br>-- intensely ------ --- ----- ------ ---- --- --------- --<br>------ - ---- -- --- ----------- ------- ---- ----- -----<br>--- -------- - ------ ---- -- ----- ---- --- --- -----------<br>-- -------,290607.09999999404,290606.1999999881,290193.101,290194.90000000596,290209.69,290609.462,,27,intensely
screen,html.Screen,2_3_1_0_1_28,2022-02-15T16:31:57.388Z,,,,,,,,,,,,,,,,,2,,,,,,,,,,,,,,433.93800000596093,,response,,,,1,B,,,,,,Space,keypress(Space),,,,lyrical,,,,--- ---- ------ --- ------- ---------- ------- ----------<br>--- --------- --- ----------- ------- ----- ------- ---<br>--------- ---- -- --- ---- -- --------- -- ---- -------<br>-- --------- bright --- ----- ------ ---- --- --------- --<br>------ - ---- -- --- ----------- ------- ---- ----- -----<br>--- -------- - ------ ---- -- ----- ---- --- --- -----------<br>-- -------,291044.3000000119,291043.40000000596,290592.761,290607.3000000119,290609.462,291059.368,,28,bright
screen,html.Screen,2_3_1_0_1_29,2022-02-15T16:31:57.878Z,,,,,,,,,,,,,,,,,2,,,,,,,,,,,,,,474.2319999940228,,response,,,,1,B,,,,,,Space,keypress(Space),,,,lyrical,,,,--- ---- ------ --- ------- ---------- ------- ----------<br>--- --------- --- ----------- ------- ----- ------- ---<br>--------- ---- -- --- ---- -- --------- -- ---- -------<br>-- --------- ------ and ----- ------ ---- --- --------- --<br>------ - ---- -- --- ----------- ------- ---- ----- -----<br>--- -------- - ------ ---- -- ----- ---- --- --- -----------<br>-- -------,291534.5,291533.59999999404,291042.596,291044.5,291059.368,291542.405,,29,and
screen,html.Screen,2_3_1_0_1_30,2022-02-15T16:31:58.361Z,,,,,,,,,,,,,,,,,2,,,,,,,,,,,,,,473.895000011893,,response,,,,1,B,,,,,,Space,keypress(Space),,,,lyrical,,,,--- ---- ------ --- ------- ---------- ------- ----------<br>--- --------- --- ----------- ------- ----- ------- ---<br>--------- ---- -- --- ---- -- --------- -- ---- -------<br>-- --------- ------ --- white ------ ---- --- --------- --<br>------ - ---- -- --- ----------- ------- ---- ----- -----<br>--- -------- - ------ ---- -- ----- ---- --- --- -----------<br>-- -------,292017.1999999881,292016.3000000119,291525.731,291534.6999999881,291542.405,292025.538,,30,white
screen,html.Screen,2_3_1_0_1_31,2022-02-15T16:32:04.406Z,,,,,,,,,,,,,,,,,2,,,,,,,,,,,,,,6035.561999994039,,response,,,,1,B,,,,,,Space,keypress(Space),,,,lyrical,,,,"--- ---- ------ --- ------- ---------- ------- ----------<br>--- --------- --- ----------- ------- ----- ------- ---<br>--------- ---- -- --- ---- -- --------- -- ---- -------<br>-- --------- ------ --- ----- light"" ---- --- --------- --<br>------ - ---- -- --- ----------- ------- ---- ----- -----<br>--- -------- - ------ ---- -- ----- ---- --- --- -----------<br>-- -------",298062.09999999404,298061.09999999404,292009.034,292017.5,292025.538,298072.991,,31,"light"""
screen,html.Screen,2_3_1_0_1_32,2022-02-15T16:32:04.755Z,,,,,,,,,,,,,,,,,2,,,,,,,,,,,,,,337.10899999405956,,response,,,,1,B,,,,,,Space,keypress(Space),,,,lyrical,,,,--- ---- ------ --- ------- ---------- ------- ----------<br>--- --------- --- ----------- ------- ----- ------- ---<br>--------- ---- -- --- ---- -- --------- -- ---- -------<br>-- --------- ------ --- ----- ------ over --- --------- --<br>------ - ---- -- --- ----------- ------- ---- ----- -----<br>--- -------- - ------ ---- -- ----- ---- --- --- -----------<br>-- -------,298411.09999999404,298410.09999999404,298056.235,298062.40000000596,298072.991,298422.918,,32,over
screen,html.Screen,2_3_1_0_1_33,2022-02-15T16:32:05.100Z,,,,,,,,,,,,,,,,,2,,,,,,,,,,,,,,332.28199998807395,,response,,,,1,B,,,,,,Space,keypress(Space),,,,lyrical,,,,--- ---- ------ --- ------- ---------- ------- ----------<br>--- --------- --- ----------- ------- ----- ------- ---<br>--------- ---- -- --- ---- -- --------- -- ---- -------<br>-- --------- ------ --- ----- ------ ---- the --------- --<br>------ - ---- -- --- ----------- ------- ---- ----- -----<br>--- -------- - ------ ---- -- ----- ---- --- --- -----------<br>-- -------,298756.09999999404,298755.1999999881,298406.325,298411.3000000119,298422.918,298772.886,,33,the
screen,html.Screen,2_3_1_0_1_34,2022-02-15T16:32:05.593Z,,,,,,,,,,,,,,,,,2,,,,,,,,,,,,,,475.1140000000014,,response,,,,1,B,,,,,,Space,keypress(Space),,,,lyrical,,,,--- ---- ------ --- ------- ---------- ------- ----------<br>--- --------- --- ----------- ------- ----- ------- ---<br>--------- ---- -- --- ---- -- --------- -- ---- -------<br>-- --------- ------ --- ----- ------ ---- --- sunspots. --<br>------ - ---- -- --- ----------- ------- ---- ----- -----<br>--- -------- - ------ ---- -- ----- ---- --- --- -----------<br>-- -------,299249.09999999404,299248,298756.225,298756.3000000119,298772.886,299255.865,,34,sunspots.
screen,html.Screen,2_3_1_0_1_35,2022-02-15T16:32:06.059Z,,,,,,,,,,,,,,,,,2,,,,,,,,,,,,,,458.6350000000093,,response,,,,1,B,,,,,,Space,keypress(Space),,,,lyrical,,,,--- ---- ------ --- ------- ---------- ------- ----------<br>--- --------- --- ----------- ------- ----- ------- ---<br>--------- ---- -- --- ---- -- --------- -- ---- -------<br>-- --------- ------ --- ----- ------ ---- --- --------- He<br>------ - ---- -- --- ----------- ------- ---- ----- -----<br>--- -------- - ------ ---- -- ----- ---- --- --- -----------<br>-- -------,299715.40000000596,299714.5,299239.168,299249.3000000119,299255.865,299722.299,,35,He
screen,html.Screen,2_3_1_0_1_36,2022-02-15T16:32:06.619Z,,,,,,,,,,,,,,,,,2,,,,,,,,,,,,,,552.7010000000009,,response,,,,1,B,,,,,,Space,keypress(Space),,,,lyrical,,,,--- ---- ------ --- ------- ---------- ------- ----------<br>--- --------- --- ----------- ------- ----- ------- ---<br>--------- ---- -- --- ---- -- --------- -- ---- -------<br>-- --------- ------ --- ----- ------ ---- --- --------- --<br>jotted - ---- -- --- ----------- ------- ---- ----- -----<br>--- -------- - ------ ---- -- ----- ---- --- --- -----------<br>-- -------,300276,300275,299705.812,299715.6999999881,299722.299,300288.838,,36,jotted
screen,html.Screen,2_3_1_0_1_37,2022-02-15T16:32:06.986Z,,,,,,,,,,,,,,,,,2,,,,,,,,,,,,,,352.4620000119321,,response,,,,1,B,,,,,,Space,keypress(Space),,,,lyrical,,,,--- ---- ------ --- ------- ---------- ------- ----------<br>--- --------- --- ----------- ------- ----- ------- ---<br>--------- ---- -- --- ---- -- --------- -- ---- -------<br>-- --------- ------ --- ----- ------ ---- --- --------- --<br>------ a ---- -- --- ----------- ------- ---- ----- -----<br>--- -------- - ------ ---- -- ----- ---- --- --- -----------<br>-- -------,300642.1999999881,300641.3000000119,300272.146,300276.1999999881,300288.838,300655.46,,37,a
