sender,sender_type,sender_id,timestamp,meta,,Blues,Classical,Country,Dance,Electronic,Folk,Gospel,Hip-Hop,Jazz,Latin,Musical/Film,New-age,Pop,Prolific_id,Provo_ID,R&B,Rap,Reggae,Religious,Rock,Soul,Swing,Traditional,age,artist_name,correct,correctResponse,distraction,duration,education,ended_on,familiarity,gender,headphone_check_performance,item,list,music_frequency,offensiveness,pleasantness,position_correct,preference,response,response_action,snippet_file,song_name,song_rating,sound,stimulus_1,stimulus_2,stimulus_3,text,time_commit,time_end,time_render,time_run,time_show,time_switch,url,word,word_ID
Prolific ID,html.Form,0,2022-02-21T12:17:41.328Z,"{""labjs_version"":""20.2.2"",""labjs_build"":{""flavor"":""production"",""commit"":""a25486e0c714a0ae2ce03ff94b7bb6896854dcfa""},""location"":""https://run.pavlovia.org/mvasilev/prolific2_music_c/"",""userAgent"":""Mozilla/5.0 (X11; CrOS x86_64 14388.52.0) AppleWebKit/537.36 (KHTML, like Gecko) Chrome/98.0.4758.91 Safari/537.36"",""platform"":""Linux x86_64"",""language"":""en-GB"",""locale"":""en-GB"",""timeZone"":""Europe/London"",""timezoneOffset"":0,""screen_width"":1366,""screen_height"":768,""scroll_width"":1366,""scroll_height"":569,""window_innerWidth"":1366,""window_innerHeight"":617,""devicePixelRatio"":1}",,,,,,,,,,,,,,,616829767ddec9e42886501d,,,,,,,,,,,,,,,9592.306999999626,,form submission,,,,,,,,,,,,,,,,,,,,,37591.09999999963,37586.59999999963,27927.637,27933.799999999814,27994.293,37610.905,{},,
Introduction,html.Screen,1_0,2022-02-21T12:17:45.347Z,,,,,,,,,,,,,,,,,,,,,,,,,,,,,,,3984.894999999815,,response,,,,,,,,,,,continue,click button,,,,,,,,,41609.799999999814,41595.799999999814,37560.913,37592,37610.905,41610.476,,,
Volume calibration,html.Screen,1_1,2022-02-21T12:18:05.151Z,,,,,,,,,,,,,,,,,,,,,,,,,,,,,,,19789.224000000184,,response,,,,,,,,,,,continue,click button,,,,,,,,,61413.90000000037,61399.700000000186,41593.812,41610.200000000186,41610.476,61408.446,,,
Task instructions,html.Screen,1_2,2022-02-21T12:18:12.531Z,,,,,,,,,,,,,,,,,,,,,,,,,,,,,,,7375.754000000183,,response,,,,,,,,,,,continue,click button,,,,,,,,,68794.09999999963,68784.20000000019,61391.782,61414.299999999814,61408.446,68807.296,,,
Sounds,html.Screen,1_3_0_0,2022-02-21T12:18:16.783Z,,,,,,,,,,,,,,,,,,,,,,,,,,,,,,,4249.830999999991,,timeout,,,,,,,,,1,,,,,,,,S,I,O,,73046.5,73040.463,68773.968,68796.90000000037,68807.296,73057.127,,,
Judgement,html.Screen,1_3_0_1,2022-02-21T12:18:19.603Z,,,,,,,,,,,,,,,,,,,,,,,,,,,,true,1,,2802.9729999996343,,response,,,,,,,,,1,,1,click #choice-1,,,,,S,I,O,,75865.70000000019,75860.09999999963,73040.463,73046.90000000037,73057.127,75873.604,,,
Trial,flow.Sequence,1_3_0,2022-02-21T12:18:19.607Z,,,,,,,,,,,,,,,,,,,,,,,,,,,,,,,7052.803999999625,,completion,,,,,,,,,1,,,,,,,,S,I,O,,75869.90000000037,75860.09999999963,68773.968,68796.5,68807.296,75873.604,,,
Sounds,html.Screen,1_3_1_0,2022-02-21T12:18:23.847Z,,,,,,,,,,,,,,,,,,,,,,,,,,,,,,,4249.369999999995,,timeout,,,,,,,,,1,,,,,,,,S,O,I,,80109.70000000019,80106.31,75856.94,75870.70000000019,75873.604,80122.974,,,
Judgement,html.Screen,1_3_1_1,2022-02-21T12:18:24.482Z,,,,,,,,,,,,,,,,,,,,,,,,,,,,true,1,,612.8259999998118,,response,,,,,,,,,1,,1,click #choice-1,,,,,S,O,I,,80744.90000000037,80735.79999999981,80106.31,80110.40000000037,80122.974,80756.415,,,
Trial,flow.Sequence,1_3_1,2022-02-21T12:18:24.483Z,,,,,,,,,,,,,,,,,,,,,,,,,,,,,,,4862.195999999807,,completion,,,,,,,,,1,,,,,,,,S,O,I,,80746,80735.79999999981,75856.94,75870.20000000019,75873.604,80756.415,,,
Sounds,html.Screen,1_3_2_0,2022-02-21T12:18:28.730Z,,,,,,,,,,,,,,,,,,,,,,,,,,,,,,,4249.358000000007,,timeout,,,,,,,,,3,,,,,,,,I,O,S,,84993,84989.109,80739.751,80746.90000000037,80756.415,85005.773,,,
Judgement,html.Screen,1_3_2_1,2022-02-21T12:18:29.676Z,,,,,,,,,,,,,,,,,,,,,,,,,,,,true,3,,924.5269999998127,,response,,,,,,,,,3,,3,click #choice-3,,,,,I,O,S,,85939.5,85930.29999999981,84989.109,84994.20000000019,85005.773,85955.893,,,
Trial,flow.Sequence,1_3_2,2022-02-21T12:18:29.677Z,,,,,,,,,,,,,,,,,,,,,,,,,,,,,,,5173.88499999982,,completion,,,,,,,,,3,,,,,,,,I,O,S,,85940.40000000037,85930.29999999981,80739.751,80746.70000000019,80756.415,85955.893,,,
Sounds,html.Screen,1_3_3_0,2022-02-21T12:18:33.928Z,,,,,,,,,,,,,,,,,,,,,,,,,,,,,,,4249.332999999999,,timeout,,,,,,,,,2,,,,,,,,O,S,I,,90191.09999999963,90188.562,85939.229,85941.09999999963,85955.893,90205.226,,,
Judgement,html.Screen,1_3_3_1,2022-02-21T12:18:34.580Z,,,,,,,,,,,,,,,,,,,,,,,,,,,,true,2,,627.3739999996324,,response,,,,,,,,,2,,2,click #choice-2,,,,,O,S,I,,90842.90000000037,90832.59999999963,90188.562,90191.79999999981,90205.226,90855.377,,,
Trial,flow.Sequence,1_3_3,2022-02-21T12:18:34.580Z,,,,,,,,,,,,,,,,,,,,,,,,,,,,,,,4876.706999999631,,completion,,,,,,,,,2,,,,,,,,O,S,I,,90843.5,90832.59999999963,85939.229,85941,85955.893,90855.377,,,
Sounds,html.Screen,1_3_4_0,2022-02-21T12:18:38.830Z,,,,,,,,,,,,,,,,,,,,,,,,,,,,,,,4249.343000000008,,timeout,,,,,,,,,2,,,,,,,,I,S,O,,95092.70000000019,95088.056,90838.713,90843.79999999981,90855.377,95104.72,,,
Judgement,html.Screen,1_3_4_1,2022-02-21T12:18:39.261Z,,,,,,,,,,,,,,,,,,,,,,,,,,,,true,2,,409.3799999996263,,response,,,,,,,,,2,,2,click #choice-2,,,,,I,S,O,,95524.29999999981,95514.09999999963,95088.056,95093.90000000037,95104.72,95521.551,,,
Trial,flow.Sequence,1_3_4,2022-02-21T12:18:39.263Z,,,,,,,,,,,,,,,,,,,,,,,,,,,,,,,4658.722999999634,,completion,,,,,,,,,2,,,,,,,,I,S,O,,95525.79999999981,95514.09999999963,90838.713,90843.70000000019,90855.377,95521.551,,,
Sounds,html.Screen,1_3_5_0,2022-02-21T12:18:43.494Z,,,,,,,,,,,,,,,,,,,,,,,,,,,,,,,4249.358999999997,,timeout,,,,,,,,,3,,,,,,,,O,I,S,,99756.90000000037,99754.246,95504.887,95526.20000000019,95521.551,99770.91,,,
Judgement,html.Screen,1_3_5_1,2022-02-21T12:18:44.139Z,,,,,,,,,,,,,,,,,,,,,,,,,,,,true,3,,618.8899999998102,,response,,,,,,,,,3,,3,click #choice-3,,,,,O,I,S,,100401.70000000019,100389.79999999981,99754.246,99758.29999999981,99770.91,100421.061,,,
Trial,flow.Sequence,1_3_5,2022-02-21T12:18:44.139Z,,,,,,,,,,,,,,,,,,,,,,,,,,,,,,,4868.248999999807,,completion,,,,,,,,,3,,,,,,,,O,I,S,,100402.09999999963,100389.79999999981,95504.887,95526.09999999963,95521.551,100421.061,,,
Task,flow.Loop,1_3,2022-02-21T12:18:44.149Z,,,,,,,,,,,,,,,,,,,,,,,,,,,,,,,31582.50399999981,,completion,,,1,,,,,,,,,,,,,,,,,,100411.70000000019,100389.79999999981,68773.968,68796,68807.296,100421.061,,,
Trap,html.Screen,1_4,2022-02-21T12:18:44.152Z,,,,,,,,,,,,,,,,,,,,,,,,,,,,,,,NaN,,skipped,,,,,,,,,,,,,,,,,,,,,100415,100389.79999999981,,100414.59999999963,,100421.061,,,
Thanks,html.Screen,1_5,2022-02-21T12:18:47.406Z,,,,,,,,,,,,,,,,,,,,,,,,,,,,,,,3236.839000000371,,response,,,,,,,,,,,continue,click button,,,,,,,,,103668.79999999981,103657.90000000037,100387.733,100415.29999999981,100421.061,107003.556,,,
Headphone screening,flow.Sequence,1,2022-02-21T12:18:47.407Z,,,,,,,,,,,,,,,,,,,,,,,,,,,,,,,66046.99500000037,,completion,,,,,,,,,,,,,,,,,,,,,103669.79999999981,103657.90000000037,37560.913,37592,37610.905,107003.556,,,
Instructions,html.Page,2_0,2022-02-21T12:19:05.798Z,,,,,,,,,,,,,,,,,,,,,,,,,,,,,,,15055.844000000376,,form submission,,,,,,,,,,,,,,,,,,,,,122060.70000000019,122059.40000000037,106986.892,107001,107003.556,122068.785,,,
Holding screen,html.Screen,2_1_0_0,2022-02-21T12:19:15.791Z,,,,,,,,,,,,,,,,,,,,,,,,,,,,,,,10015.630000000005,,timeout,,,,,,,,,,,,,,,,,,,,,132053.7999999998,132051.087,122052.121,122061.79999999981,122068.785,132084.415,,,
screen,html.Screen,2_1_0_1_0,2022-02-21T12:19:16.999Z,,,,,,,,,,,,,,,,,53,,,,,,,,,,,,,,1162.0849999999919,,response,,,,99,,,,,,,Space,keypress(Space),,,,,,,,When -- ----- -- ------ - ------- --- ----------<br>------------- ------ ------ ---- ---- ------- ----- -- ----<br>-------- ------- -- ---------- --- - --- ----- ----- ----<br>---- --- --- ----- --- ---- ---- ------- ----- ---- -------<br>--- --- -- ----- -- --- ---- -- --- ---- -- ------ ------<br>--- ----- -- ----,133262.5,133246.5,132051.087,132054.7999999998,132084.415,133267.605,,0,When
screen,html.Screen,2_1_0_1_1,2022-02-21T12:19:17.453Z,,,,,,,,,,,,,,,,,53,,,,,,,,,,,,,,440.994999999617,,response,,,,99,,,,,,,Space,keypress(Space),,,,,,,,---- it ----- -- ------ - ------- --- ----------<br>------------- ------ ------ ---- ---- ------- ----- -- ----<br>-------- ------- -- ---------- --- - --- ----- ----- ----<br>---- --- --- ----- --- ---- ---- ------- ----- ---- -------<br>--- --- -- ----- -- --- ---- -- --- ---- -- ------ ------<br>--- ----- -- ----,133715.7999999998,133708.59999999963,133250.941,133263.2000000002,133267.605,133734.276,,1,it
screen,html.Screen,2_1_0_1_2,2022-02-21T12:19:17.877Z,,,,,,,,,,,,,,,,,53,,,,,,,,,,,,,,399.7239999999874,,response,,,,99,,,,,,,Space,keypress(Space),,,,,,,,---- -- comes -- ------ - ------- --- ----------<br>------------- ------ ------ ---- ---- ------- ----- -- ----<br>-------- ------- -- ---------- --- - --- ----- ----- ----<br>---- --- --- ----- --- ---- ---- ------- ----- ---- -------<br>--- --- -- ----- -- --- ---- -- --- ---- -- ------ ------<br>--- ----- -- ----,134140.40000000037,134134,133717.612,133716.2999999998,133734.276,134150.887,,2,comes
screen,html.Screen,2_1_0_1_3,2022-02-21T12:19:18.378Z,,,,,,,,,,,,,,,,,53,,,,,,,,,,,,,,482.91299999982584,,response,,,,99,,,,,,,Space,keypress(Space),,,,,,,,---- -- ----- to ------ - ------- --- ----------<br>------------- ------ ------ ---- ---- ------- ----- -- ----<br>-------- ------- -- ---------- --- - --- ----- ----- ----<br>---- --- --- ----- --- ---- ---- ------- ----- ---- -------<br>--- --- -- ----- -- --- ---- -- --- ---- -- ------ ------<br>--- ----- -- ----,134641.09999999963,134633.7999999998,134134.223,134141.90000000037,134150.887,134650.848,,3,to
screen,html.Screen,2_1_0_1_4,2022-02-21T12:19:18.809Z,,,,,,,,,,,,,,,,,53,,,,,,,,,,,,,,416.25199999962933,,response,,,,99,,,,,,,Space,keypress(Space),,,,,,,,---- -- ----- -- having - ------- --- ----------<br>------------- ------ ------ ---- ---- ------- ----- -- ----<br>-------- ------- -- ---------- --- - --- ----- ----- ----<br>---- --- --- ----- --- ---- ---- ------- ----- ---- -------<br>--- --- -- ----- -- --- ---- -- --- ---- -- ------ ------<br>--- ----- -- ----,135072.09999999963,135067.09999999963,134634.184,134642.2000000002,134650.848,135084.131,,4,having
screen,html.Screen,2_1_0_1_5,2022-02-21T12:19:19.156Z,,,,,,,,,,,,,,,,,53,,,,,,,,,,,,,,329.86900000000605,,response,,,,99,,,,,,,Space,keypress(Space),,,,,,,,---- -- ----- -- ------ a ------- --- ----------<br>------------- ------ ------ ---- ---- ------- ----- -- ----<br>-------- ------- -- ---------- --- - --- ----- ----- ----<br>---- --- --- ----- --- ---- ---- ------- ----- ---- -------<br>--- --- -- ----- -- --- ---- -- --- ---- -- ------ ------<br>--- ----- -- ----,135419.40000000037,135414,135067.467,135073.2000000002,135084.131,135434.09,,5,a
screen,html.Screen,2_1_0_1_6,2022-02-21T12:19:19.509Z,,,,,,,,,,,,,,,,,53,,,,,,,,,,,,,,332.2099999998172,,response,,,,99,,,,,,,Space,keypress(Space),,,,,,,,---- -- ----- -- ------ - lasting --- ----------<br>------------- ------ ------ ---- ---- ------- ----- -- ----<br>-------- ------- -- ---------- --- - --- ----- ----- ----<br>---- --- --- ----- --- ---- ---- ------- ----- ---- -------<br>--- --- -- ----- -- --- ---- -- --- ---- -- ------ ------<br>--- ----- -- ----,135772.40000000037,135766.2999999998,135417.426,135420.7000000002,135434.09,135784.073,,6,lasting
screen,html.Screen,2_1_0_1_7,2022-02-21T12:19:19.869Z,,,,,,,,,,,,,,,,,53,,,,,,,,,,,,,,341.2269999998098,,response,,,,99,,,,,,,Space,keypress(Space),,,,,,,,---- -- ----- -- ------ - ------- and ----------<br>------------- ------ ------ ---- ---- ------- ----- -- ----<br>-------- ------- -- ---------- --- - --- ----- ----- ----<br>---- --- --- ----- --- ---- ---- ------- ----- ---- -------<br>--- --- -- ----- -- --- ---- -- --- ---- -- ------ ------<br>--- ----- -- ----,136131.7000000002,136125.2999999998,135767.409,135773.7000000002,135784.073,136150.684,,7,and
screen,html.Screen,2_1_0_1_8,2022-02-21T12:19:20.325Z,,,,,,,,,,,,,,,,,53,,,,,,,,,,,,,,432.21600000036415,,response,,,,99,,,,,,,Space,keypress(Space),,,,,,,,---- -- ----- -- ------ - ------- --- fulfilling<br>------------- ------ ------ ---- ---- ------- ----- -- ----<br>-------- ------- -- ---------- --- - --- ----- ----- ----<br>---- --- --- ----- --- ---- ---- ------- ----- ---- -------<br>--- --- -- ----- -- --- ---- -- --- ---- -- ------ ------<br>--- ----- -- ----,136588.5,136582.90000000037,136134.02,136132.59999999963,136150.684,136600.644,,8,fulfilling
screen,html.Screen,2_1_0_1_9,2022-02-21T12:19:20.689Z,,,,,,,,,,,,,,,,,53,,,,,,,,,,,,,,344.95599999962724,,response,,,,99,,,,,,,Space,keypress(Space),,,,,,,,"---- -- ----- -- ------ - ------- --- ----------<br>relationship, ------ ------ ---- ---- ------- ----- -- ----<br>-------- ------- -- ---------- --- - --- ----- ----- ----<br>---- --- --- ----- --- ---- ---- ------- ----- ---- -------<br>--- --- -- ----- -- --- ---- -- --- ---- -- ------ ------<br>--- ----- -- ----",136951.7999999998,136945.59999999963,136583.98,136589.7999999998,136600.644,136967.272,,9,"relationship,"
screen,html.Screen,2_1_0_1_10,2022-02-21T12:19:21.070Z,,,,,,,,,,,,,,,,,53,,,,,,,,,,,,,,359.52799999981653,,response,,,,99,,,,,,,Space,keypress(Space),,,,,,,,---- -- ----- -- ------ - ------- --- ----------<br>------------- common ------ ---- ---- ------- ----- -- ----<br>-------- ------- -- ---------- --- - --- ----- ----- ----<br>---- --- --- ----- --- ---- ---- ------- ----- ---- -------<br>--- --- -- ----- -- --- ---- -- --- ---- -- ------ ------<br>--- ----- -- ----,137333.2000000002,137326.7999999998,136950.608,136952.7999999998,136967.272,137350.573,,10,common
screen,html.Screen,2_1_0_1_11,2022-02-21T12:19:21.432Z,,,,,,,,,,,,,,,,,53,,,,,,,,,,,,,,340.0269999996235,,response,,,,99,,,,,,,Space,keypress(Space),,,,,,,,---- -- ----- -- ------ - ------- --- ----------<br>------------- ------ wisdom ---- ---- ------- ----- -- ----<br>-------- ------- -- ---------- --- - --- ----- ----- ----<br>---- --- --- ----- --- ---- ---- ------- ----- ---- -------<br>--- --- -- ----- -- --- ---- -- --- ---- -- ------ ------<br>--- ----- -- ----,137695.40000000037,137690.59999999963,137333.909,137334.40000000037,137350.573,137700.53,,11,wisdom
screen,html.Screen,2_1_0_1_12,2022-02-21T12:19:21.733Z,,,,,,,,,,,,,,,,,53,,,,,,,,,,,,,,290.47000000000116,,response,,,,99,,,,,,,Space,keypress(Space),,,,,,,,---- -- ----- -- ------ - ------- --- ----------<br>------------- ------ ------ says ---- ------- ----- -- ----<br>-------- ------- -- ---------- --- - --- ----- ----- ----<br>---- --- --- ----- --- ---- ---- ------- ----- ---- -------<br>--- --- -- ----- -- --- ---- -- --- ---- -- ------ ------<br>--- ----- -- ----,137996.2000000002,137991,137683.866,137695.90000000037,137700.53,138017.176,,12,says
screen,html.Screen,2_1_0_1_13,2022-02-21T12:19:22.059Z,,,,,,,,,,,,,,,,,53,,,,,,,,,,,,,,299.123999999807,,response,,,,99,,,,,,,Space,keypress(Space),,,,,,,,---- -- ----- -- ------ - ------- --- ----------<br>------------- ------ ------ ---- that ------- ----- -- ----<br>-------- ------- -- ---------- --- - --- ----- ----- ----<br>---- --- --- ----- --- ---- ---- ------- ----- ---- -------<br>--- --- -- ----- -- --- ---- -- --- ---- -- ------ ------<br>--- ----- -- ----,138322.40000000037,138316.2999999998,138000.512,137997.2999999998,138017.176,138333.807,,13,that
screen,html.Screen,2_1_0_1_14,2022-02-21T12:19:22.492Z,,,,,,,,,,,,,,,,,53,,,,,,,,,,,,,,414.7929999996268,,response,,,,99,,,,,,,Space,keypress(Space),,,,,,,,---- -- ----- -- ------ - ------- --- ----------<br>------------- ------ ------ ---- ---- feeling ----- -- ----<br>-------- ------- -- ---------- --- - --- ----- ----- ----<br>---- --- --- ----- --- ---- ---- ------- ----- ---- -------<br>--- --- -- ----- -- --- ---- -- --- ---- -- ------ ------<br>--- ----- -- ----,138754.7000000002,138748.59999999963,138317.143,138323.5,138333.807,138767.092,,14,feeling
screen,html.Screen,2_1_0_1_15,2022-02-21T12:19:22.860Z,,,,,,,,,,,,,,,,,53,,,,,,,,,,,,,,352.1080000001821,,response,,,,99,,,,,,,Space,keypress(Space),,,,,,,,---- -- ----- -- ------ - ------- --- ----------<br>------------- ------ ------ ---- ---- ------- close -- ----<br>-------- ------- -- ---------- --- - --- ----- ----- ----<br>---- --- --- ----- --- ---- ---- ------- ----- ---- -------<br>--- --- -- ----- -- --- ---- -- --- ---- -- ------ ------<br>--- ----- -- ----,139123.2999999998,139119.2000000002,138750.428,138755.90000000037,138767.092,139133.71,,15,close
screen,html.Screen,2_1_0_1_16,2022-02-21T12:19:23.212Z,,,,,,,,,,,,,,,,,53,,,,,,,,,,,,,,334.8899999996356,,response,,,,99,,,,,,,Space,keypress(Space),,,,,,,,---- -- ----- -- ------ - ------- --- ----------<br>------------- ------ ------ ---- ---- ------- ----- to ----<br>-------- ------- -- ---------- --- - --- ----- ----- ----<br>---- --- --- ----- --- ---- ---- ------- ----- ---- -------<br>--- --- -- ----- -- --- ---- -- --- ---- -- ------ ------<br>--- ----- -- ----,139474.90000000037,139468.59999999963,139117.046,139124.2999999998,139133.71,139483.687,,16,to
screen,html.Screen,2_1_0_1_17,2022-02-21T12:19:23.571Z,,,,,,,,,,,,,,,,,53,,,,,,,,,,,,,,342.31299999999464,,response,,,,99,,,,,,,Space,keypress(Space),,,,,,,,---- -- ----- -- ------ - ------- --- ----------<br>------------- ------ ------ ---- ---- ------- ----- -- your<br>-------- ------- -- ---------- --- - --- ----- ----- ----<br>---- --- --- ----- --- ---- ---- ------- ----- ---- -------<br>--- --- -- ----- -- --- ---- -- --- ---- -- ------ ------<br>--- ----- -- ----,139834.2000000002,139826,139467.023,139476.09999999963,139483.687,139850.311,,17,your
screen,html.Screen,2_1_0_1_18,2022-02-21T12:19:23.939Z,,,,,,,,,,,,,,,,,53,,,,,,,,,,,,,,345.7889999996405,,response,,,,99,,,,,,,Space,keypress(Space),,,,,,,,---- -- ----- -- ------ - ------- --- ----------<br>------------- ------ ------ ---- ---- ------- ----- -- ----<br>romantic ------- -- ---------- --- - --- ----- ----- ----<br>---- --- --- ----- --- ---- ---- ------- ----- ---- -------<br>--- --- -- ----- -- --- ---- -- --- ---- -- ------ ------<br>--- ----- -- ----,140202.5,140196.09999999963,139833.647,139835.2999999998,139850.311,140216.944,,18,romantic
screen,html.Screen,2_1_0_1_19,2022-02-21T12:19:24.188Z,,,,,,,,,,,,,,,,,53,,,,,,,,,,,,,,227.85599999982514,,response,,,,99,,,,,,,Space,keypress(Space),,,,,,,,---- -- ----- -- ------ - ------- --- ----------<br>------------- ------ ------ ---- ---- ------- ----- -- ----<br>-------- partner -- ---------- --- - --- ----- ----- ----<br>---- --- --- ----- --- ---- ---- ------- ----- ---- -------<br>--- --- -- ----- -- --- ---- -- --- ---- -- ------ ------<br>--- ----- -- ----,140451.5,140444.7999999998,140200.28,140203.2000000002,140216.944,140466.926,,19,partner
screen,html.Screen,2_1_0_1_20,2022-02-21T12:19:24.596Z,,,,,,,,,,,,,,,,,53,,,,,,,,,,,,,,385.1739999996207,,response,,,,99,,,,,,,Space,keypress(Space),,,,,,,,---- -- ----- -- ------ - ------- --- ----------<br>------------- ------ ------ ---- ---- ------- ----- -- ----<br>-------- ------- is ---------- --- - --- ----- ----- ----<br>---- --- --- ----- --- ---- ---- ------- ----- ---- -------<br>--- --- -- ----- -- --- ---- -- --- ---- -- ------ ------<br>--- ----- -- ----,140858.90000000037,140852.09999999963,140450.262,140452.7000000002,140466.926,140866.857,,20,is
screen,html.Screen,2_1_0_1_21,2022-02-21T12:19:24.977Z,,,,,,,,,,,,,,,,,53,,,,,,,,,,,,,,366.14300000001094,,response,,,,99,,,,,,,Space,keypress(Space),,,,,,,,---- -- ----- -- ------ - ------- --- ----------<br>------------- ------ ------ ---- ---- ------- ----- -- ----<br>-------- ------- -- paramount. --- - --- ----- ----- ----<br>---- --- --- ----- --- ---- ---- ------- ----- ---- -------<br>--- --- -- ----- -- --- ---- -- --- ---- -- ------ ------<br>--- ----- -- ----,141240.2000000002,141233,140850.193,140859.7999999998,140866.857,141250.154,,21,paramount.
screen,html.Screen,2_1_0_1_22,2022-02-21T12:19:25.366Z,,,,,,,,,,,,,,,,,53,,,,,,,,,,,,,,373.5460000001767,,response,,,,99,,,,,,,Space,keypress(Space),,,,,,,,---- -- ----- -- ------ - ------- --- ----------<br>------------- ------ ------ ---- ---- ------- ----- -- ----<br>-------- ------- -- ---------- But - --- ----- ----- ----<br>---- --- --- ----- --- ---- ---- ------- ----- ---- -------<br>--- --- -- ----- -- --- ---- -- --- ---- -- ------ ------<br>--- ----- -- ----,141629.2000000002,141623.7000000002,141233.49,141241.2999999998,141250.154,141633.455,,22,But
screen,html.Screen,2_1_0_1_23,2022-02-21T12:19:25.700Z,,,,,,,,,,,,,,,,,53,,,,,,,,,,,,,,320.24500000019907,,response,,,,99,,,,,,,Space,keypress(Space),,,,,,,,---- -- ----- -- ------ - ------- --- ----------<br>------------- ------ ------ ---- ---- ------- ----- -- ----<br>-------- ------- -- ---------- --- a --- ----- ----- ----<br>---- --- --- ----- --- ---- ---- ------- ----- ---- -------<br>--- --- -- ----- -- --- ---- -- --- ---- -- ------ ------<br>--- ----- -- ----,141963.09999999963,141953.7000000002,141616.791,141630.09999999963,141633.455,141966.758,,23,a
screen,html.Screen,2_1_0_1_24,2022-02-21T12:19:26.034Z,,,,,,,,,,,,,,,,,53,,,,,,,,,,,,,,324.84199999962584,,response,,,,99,,,,,,,Space,keypress(Space),,,,,,,,---- -- ----- -- ------ - ------- --- ----------<br>------------- ------ ------ ---- ---- ------- ----- -- ----<br>-------- ------- -- ---------- --- - new ----- ----- ----<br>---- --- --- ----- --- ---- ---- ------- ----- ---- -------<br>--- --- -- ----- -- --- ---- -- --- ---- -- ------ ------<br>--- ----- -- ----,142297.2000000002,142291.59999999963,141950.094,141963.40000000037,141966.758,142316.71,,24,new
screen,html.Screen,2_1_0_1_25,2022-02-21T12:19:26.363Z,,,,,,,,,,,,,,,,,53,,,,,,,,,,,,,,302.9900000001944,,response,,,,99,,,,,,,Space,keypress(Space),,,,,,,,---- -- ----- -- ------ - ------- --- ----------<br>------------- ------ ------ ---- ---- ------- ----- -- ----<br>-------- ------- -- ---------- --- - --- study ----- ----<br>---- --- --- ----- --- ---- ---- ------- ----- ---- -------<br>--- --- -- ----- -- --- ---- -- --- ---- -- ------ ------<br>--- ----- -- ----,142626.09999999963,142619.7000000002,142300.046,142298,142316.71,142633.364,,25,study
screen,html.Screen,2_1_0_1_26,2022-02-21T12:19:26.701Z,,,,,,,,,,,,,,,,,53,,,,,,,,,,,,,,325.03600000037113,,response,,,,99,,,,,,,Space,keypress(Space),,,,,,,,---- -- ----- -- ------ - ------- --- ----------<br>------------- ------ ------ ---- ---- ------- ----- -- ----<br>-------- ------- -- ---------- --- - --- ----- finds ----<br>---- --- --- ----- --- ---- ---- ------- ----- ---- -------<br>--- --- -- ----- -- --- ---- -- --- ---- -- ------ ------<br>--- ----- -- ----,142964.5,142958.40000000037,142616.7,142627.2999999998,142633.364,142983.32,,26,finds
screen,html.Screen,2_1_0_1_27,2022-02-21T12:19:27.029Z,,,,,,,,,,,,,,,,,53,,,,,,,,,,,,,,305.2799999996205,,response,,,,99,,,,,,,Space,keypress(Space),,,,,,,,---- -- ----- -- ------ - ------- --- ----------<br>------------- ------ ------ ---- ---- ------- ----- -- ----<br>-------- ------- -- ---------- --- - --- ----- ----- that<br>---- --- --- ----- --- ---- ---- ------- ----- ---- -------<br>--- --- -- ----- -- --- ---- -- --- ---- -- ------ ------<br>--- ----- -- ----,143291.90000000037,143288.59999999963,142966.656,142965.7000000002,142983.32,143299.962,,27,that
screen,html.Screen,2_1_0_1_28,2022-02-21T12:19:27.337Z,,,,,,,,,,,,,,,,,53,,,,,,,,,,,,,,291.63799999962794,,response,,,,99,,,,,,,Space,keypress(Space),,,,,,,,---- -- ----- -- ------ - ------- --- ----------<br>------------- ------ ------ ---- ---- ------- ----- -- ----<br>-------- ------- -- ---------- --- - --- ----- ----- ----<br>it's --- --- ----- --- ---- ---- ------- ----- ---- -------<br>--- --- -- ----- -- --- ---- -- --- ---- -- ------ ------<br>--- ----- -- ----,143600.40000000037,143591.59999999963,143283.298,143292.2000000002,143299.962,143616.58,,28,it's
screen,html.Screen,2_1_0_1_29,2022-02-21T12:19:27.610Z,,,,,,,,,,,,,,,,,53,,,,,,,,,,,,,,250.71999999982654,,response,,,,99,,,,,,,Space,keypress(Space),,,,,,,,---- -- ----- -- ------ - ------- --- ----------<br>------------- ------ ------ ---- ---- ------- ----- -- ----<br>-------- ------- -- ---------- --- - --- ----- ----- ----<br>---- not --- ----- --- ---- ---- ------- ----- ---- -------<br>--- --- -- ----- -- --- ---- -- --- ---- -- ------ ------<br>--- ----- -- ----,143873.40000000037,143867.2999999998,143599.916,143601.5,143616.58,143883.225,,29,not
screen,html.Screen,2_1_0_1_30,2022-02-21T12:19:27.906Z,,,,,,,,,,,,,,,,,53,,,,,,,,,,,,,,280.2749999999942,,response,,,,99,,,,,,,Space,keypress(Space),,,,,,,,---- -- ----- -- ------ - ------- --- ----------<br>------------- ------ ------ ---- ---- ------- ----- -- ----<br>-------- ------- -- ---------- --- - --- ----- ----- ----<br>---- --- how ----- --- ---- ---- ------- ----- ---- -------<br>--- --- -- ----- -- --- ---- -- --- ---- -- ------ ------<br>--- ----- -- ----,144169.40000000037,144163.5,143866.561,143874.2999999998,143883.225,144183.206,,30,how
screen,html.Screen,2_1_0_1_31,2022-02-21T12:19:28.205Z,,,,,,,,,,,,,,,,,53,,,,,,,,,,,,,,276.9940000001807,,response,,,,99,,,,,,,Space,keypress(Space),,,,,,,,---- -- ----- -- ------ - ------- --- ----------<br>------------- ------ ------ ---- ---- ------- ----- -- ----<br>-------- ------- -- ---------- --- - --- ----- ----- ----<br>---- --- --- close --- ---- ---- ------- ----- ---- -------<br>--- --- -- ----- -- --- ---- -- --- ---- -- ------ ------<br>--- ----- -- ----,144468.2000000002,144460.2000000002,144166.542,144170.2999999998,144183.206,144483.159,,31,close
screen,html.Screen,2_1_0_1_32,2022-02-21T12:19:28.512Z,,,,,,,,,,,,,,,,,53,,,,,,,,,,,,,,283.7410000003583,,response,,,,99,,,,,,,Space,keypress(Space),,,,,,,,---- -- ----- -- ------ - ------- --- ----------<br>------------- ------ ------ ---- ---- ------- ----- -- ----<br>-------- ------- -- ---------- --- - --- ----- ----- ----<br>---- --- --- ----- you ---- ---- ------- ----- ---- -------<br>--- --- -- ----- -- --- ---- -- --- ---- -- ------ ------<br>--- ----- -- ----,144775.2000000002,144766.90000000037,144466.495,144469.2000000002,144483.159,144783.136,,32,you
screen,html.Screen,2_1_0_1_33,2022-02-21T12:19:28.787Z,,,,,,,,,,,,,,,,,53,,,,,,,,,,,,,,262.46399999962887,,response,,,,99,,,,,,,Space,keypress(Space),,,,,,,,---- -- ----- -- ------ - ------- --- ----------<br>------------- ------ ------ ---- ---- ------- ----- -- ----<br>-------- ------- -- ---------- --- - --- ----- ----- ----<br>---- --- --- ----- --- feel ---- ------- ----- ---- -------<br>--- --- -- ----- -- --- ---- -- --- ---- -- ------ ------<br>--- ----- -- ----,145049.7000000002,145045.59999999963,144766.472,144776.40000000037,144783.136,145066.438,,33,feel
screen,html.Screen,2_1_0_1_34,2022-02-21T12:19:29.094Z,,,,,,,,,,,,,,,,,53,,,,,,,,,,,,,,284.7620000001916,,response,,,,99,,,,,,,Space,keypress(Space),,,,,,,,---- -- ----- -- ------ - ------- --- ----------<br>------------- ------ ------ ---- ---- ------- ----- -- ----<br>-------- ------- -- ---------- --- - --- ----- ----- ----<br>---- --- --- ----- --- ---- that ------- ----- ---- -------<br>--- --- -- ----- -- --- ---- -- --- ---- -- ------ ------<br>--- ----- -- ----,145356.90000000037,145351.2000000002,145049.774,145050.2999999998,145066.438,145366.416,,34,that
screen,html.Screen,2_1_0_1_35,2022-02-21T12:19:29.419Z,,,,,,,,,,,,,,,,,53,,,,,,,,,,,,,,308.68399999963003,,response,,,,99,,,,,,,Space,keypress(Space),,,,,,,,---- -- ----- -- ------ - ------- --- ----------<br>------------- ------ ------ ---- ---- ------- ----- -- ----<br>-------- ------- -- ---------- --- - --- ----- ----- ----<br>---- --- --- ----- --- ---- ---- matters ----- ---- -------<br>--- --- -- ----- -- --- ---- -- --- ---- -- ------ ------<br>--- ----- -- ----,145682.40000000037,145675.09999999963,145349.752,145357.90000000037,145366.416,145699.708,,35,matters
screen,html.Screen,2_1_0_1_36,2022-02-21T12:19:29.823Z,,,,,,,,,,,,,,,,,53,,,,,,,,,,,,,,380.59199999980046,,response,,,,99,,,,,,,Space,keypress(Space),,,,,,,,"---- -- ----- -- ------ - ------- --- ----------<br>------------- ------ ------ ---- ---- ------- ----- -- ----<br>-------- ------- -- ---------- --- - --- ----- ----- ----<br>---- --- --- ----- --- ---- ---- ------- most, ---- -------<br>--- --- -- ----- -- --- ---- -- --- ---- -- ------ ------<br>--- ----- -- ----",146086.40000000037,146080.2999999998,145683.044,145687.90000000037,145699.708,146099.668,,36,"most,"
screen,html.Screen,2_1_0_1_37,2022-02-21T12:19:30.166Z,,,,,,,,,,,,,,,,,53,,,,,,,,,,,,,,324.53200000018114,,response,,,,99,,,,,,,Space,keypress(Space),,,,,,,,---- -- ----- -- ------ - ------- --- ----------<br>------------- ------ ------ ---- ---- ------- ----- -- ----<br>-------- ------- -- ---------- --- - --- ----- ----- ----<br>---- --- --- ----- --- ---- ---- ------- ----- it's -------<br>--- --- -- ----- -- --- ---- -- --- ---- -- ------ ------<br>--- ----- -- ----,146429.2999999998,146424.2000000002,146083.004,146087.40000000037,146099.668,146449.636,,37,it's
screen,html.Screen,2_1_0_1_38,2022-02-21T12:19:30.600Z,,,,,,,,,,,,,,,,,53,,,,,,,,,,,,,,409.8640000000014,,response,,,,99,,,,,,,Space,keypress(Space),,,,,,,,---- -- ----- -- ------ - ------- --- ----------<br>------------- ------ ------ ---- ---- ------- ----- -- ----<br>-------- ------- -- ---------- --- - --- ----- ----- ----<br>---- --- --- ----- --- ---- ---- ------- ----- ---- whether<br>--- --- -- ----- -- --- ---- -- --- ---- -- ------ ------<br>--- ----- -- ----,146863.09999999963,146859.5,146432.972,146430.09999999963,146449.636,146882.903,,38,whether
screen,html.Screen,2_1_0_1_39,2022-02-21T12:19:30.959Z,,,,,,,,,,,,,,,,,53,,,,,,,,,,,,,,332.09700000000885,,response,,,,99,,,,,,,Space,keypress(Space),,,,,,,,---- -- ----- -- ------ - ------- --- ----------<br>------------- ------ ------ ---- ---- ------- ----- -- ----<br>-------- ------- -- ---------- --- - --- ----- ----- ----<br>---- --- --- ----- --- ---- ---- ------- ----- ---- -------<br>you --- -- ----- -- --- ---- -- --- ---- -- ------ ------<br>--- ----- -- ----,147221.90000000037,147215,146866.239,146863.7999999998,146882.903,147232.874,,39,you
screen,html.Screen,2_1_0_1_40,2022-02-21T12:19:31.305Z,,,,,,,,,,,,,,,,,53,,,,,,,,,,,,,,330.22599999961676,,response,,,,99,,,,,,,Space,keypress(Space),,,,,,,,---- -- ----- -- ------ - ------- --- ----------<br>------------- ------ ------ ---- ---- ------- ----- -- ----<br>-------- ------- -- ---------- --- - --- ----- ----- ----<br>---- --- --- ----- --- ---- ---- ------- ----- ---- -------<br>--- are -- ----- -- --- ---- -- --- ---- -- ------ ------<br>--- ----- -- ----,147568.40000000037,147563.09999999963,147216.21,147223.09999999963,147232.874,147582.844,,40,are
screen,html.Screen,2_1_0_1_41,2022-02-21T12:19:31.587Z,,,,,,,,,,,,,,,,,53,,,,,,,,,,,,,,260.6559999999881,,response,,,,99,,,,,,,Space,keypress(Space),,,,,,,,---- -- ----- -- ------ - ------- --- ----------<br>------------- ------ ------ ---- ---- ------- ----- -- ----<br>-------- ------- -- ---------- --- - --- ----- ----- ----<br>---- --- --- ----- --- ---- ---- ------- ----- ---- -------<br>--- --- as ----- -- --- ---- -- --- ---- -- ------ ------<br>--- ----- -- ----,147850.2000000002,147843.5,147566.18,147569.09999999963,147582.844,147866.159,,41,as
screen,html.Screen,2_1_0_1_42,2022-02-21T12:19:31.907Z,,,,,,,,,,,,,,,,,53,,,,,,,,,,,,,,298.14099999979953,,response,,,,99,,,,,,,Space,keypress(Space),,,,,,,,---- -- ----- -- ------ - ------- --- ----------<br>------------- ------ ------ ---- ---- ------- ----- -- ----<br>-------- ------- -- ---------- --- - --- ----- ----- ----<br>---- --- --- ----- --- ---- ---- ------- ----- ---- -------<br>--- --- -- close -- --- ---- -- --- ---- -- ------ ------<br>--- ----- -- ----,148170.2000000002,148164.2999999998,147849.495,147850.7000000002,147866.159,148182.786,,42,close
screen,html.Screen,2_1_0_1_43,2022-02-21T12:19:32.249Z,,,,,,,,,,,,,,,,,53,,,,,,,,,,,,,,319.61400000037975,,response,,,,99,,,,,,,Space,keypress(Space),,,,,,,,---- -- ----- -- ------ - ------- --- ----------<br>------------- ------ ------ ---- ---- ------- ----- -- ----<br>-------- ------- -- ---------- --- - --- ----- ----- ----<br>---- --- --- ----- --- ---- ---- ------- ----- ---- -------<br>--- --- -- ----- as --- ---- -- --- ---- -- ------ ------<br>--- ----- -- ----,148512,148502.40000000037,148166.122,148170.7000000002,148182.786,148532.742,,43,as
screen,html.Screen,2_1_0_1_44,2022-02-21T12:19:32.579Z,,,,,,,,,,,,,,,,,53,,,,,,,,,,,,,,301.8579999996291,,response,,,,99,,,,,,,Space,keypress(Space),,,,,,,,---- -- ----- -- ------ - ------- --- ----------<br>------------- ------ ------ ---- ---- ------- ----- -- ----<br>-------- ------- -- ---------- --- - --- ----- ----- ----<br>---- --- --- ----- --- ---- ---- ------- ----- ---- -------<br>--- --- -- ----- -- you ---- -- --- ---- -- ------ ------<br>--- ----- -- ----,148842.09999999963,148834.59999999963,148516.078,148512.90000000037,148532.742,148849.371,,44,you
screen,html.Screen,2_1_0_1_45,2022-02-21T12:19:32.935Z,,,,,,,,,,,,,,,,,53,,,,,,,,,,,,,,342.3290000001725,,response,,,,99,,,,,,,Space,keypress(Space),,,,,,,,---- -- ----- -- ------ - ------- --- ----------<br>------------- ------ ------ ---- ---- ------- ----- -- ----<br>-------- ------- -- ---------- --- - --- ----- ----- ----<br>---- --- --- ----- --- ---- ---- ------- ----- ---- -------<br>--- --- -- ----- -- --- want -- --- ---- -- ------ ------<br>--- ----- -- ----,149198,149191.7000000002,148832.707,148842.40000000037,148849.371,149216,,45,want
screen,html.Screen,2_1_0_1_46,2022-02-21T12:19:33.290Z,,,,,,,,,,,,,,,,,53,,,,,,,,,,,,,,329.70000000018626,,response,,,,99,,,,,,,Space,keypress(Space),,,,,,,,---- -- ----- -- ------ - ------- --- ----------<br>------------- ------ ------ ---- ---- ------- ----- -- ----<br>-------- ------- -- ---------- --- - --- ----- ----- ----<br>---- --- --- ----- --- ---- ---- ------- ----- ---- -------<br>--- --- -- ----- -- --- ---- to --- ---- -- ------ ------<br>--- ----- -- ----,149553.09999999963,149545.7000000002,149199.336,149199.09999999963,149216,149565.978,,46,to
screen,html.Screen,2_1_0_1_47,2022-02-21T12:19:33.617Z,,,,,,,,,,,,,,,,,53,,,,,,,,,,,,,,308.72200000018347,,response,,,,99,,,,,,,Space,keypress(Space),,,,,,,,"---- -- ----- -- ------ - ------- --- ----------<br>------------- ------ ------ ---- ---- ------- ----- -- ----<br>-------- ------- -- ---------- --- - --- ----- ----- ----<br>---- --- --- ----- --- ---- ---- ------- ----- ---- -------<br>--- --- -- ----- -- --- ---- -- be, ---- -- ------ ------<br>--- ----- -- ----",149880.40000000037,149874.7000000002,149549.314,149554.2000000002,149565.978,149882.601,,47,"be,"
screen,html.Screen,2_1_0_1_48,2022-02-21T12:19:33.952Z,,,,,,,,,,,,,,,,,53,,,,,,,,,,,,,,324.99899999963236,,response,,,,99,,,,,,,Space,keypress(Space),,,,,,,,---- -- ----- -- ------ - ------- --- ----------<br>------------- ------ ------ ---- ---- ------- ----- -- ----<br>-------- ------- -- ---------- --- - --- ----- ----- ----<br>---- --- --- ----- --- ---- ---- ------- ----- ---- -------<br>--- --- -- ----- -- --- ---- -- --- even -- ------ ------<br>--- ----- -- ----,150215.2000000002,150207.59999999963,149865.937,149881.2999999998,149882.601,150232.559,,48,even
screen,html.Screen,2_1_0_1_49,2022-02-21T12:19:34.243Z,,,,,,,,,,,,,,,,,53,,,,,,,,,,,,,,270.4409999999916,,response,,,,99,,,,,,,Space,keypress(Space),,,,,,,,---- -- ----- -- ------ - ------- --- ----------<br>------------- ------ ------ ---- ---- ------- ----- -- ----<br>-------- ------- -- ---------- --- - --- ----- ----- ----<br>---- --- --- ----- --- ---- ---- ------- ----- ---- -------<br>--- --- -- ----- -- --- ---- -- --- ---- if ------ ------<br>--- ----- -- ----,150505.90000000037,150503,150215.895,150216.2999999998,150232.559,150515.881,,49,if
screen,html.Screen,2_1_0_1_50,2022-02-21T12:19:34.520Z,,,,,,,,,,,,,,,,,53,,,,,,,,,,,,,,261.4189999998198,,response,,,,99,,,,,,,Space,keypress(Space),,,,,,,,---- -- ----- -- ------ - ------- --- ----------<br>------------- ------ ------ ---- ---- ------- ----- -- ----<br>-------- ------- -- ---------- --- - --- ----- ----- ----<br>---- --- --- ----- --- ---- ---- ------- ----- ---- -------<br>--- --- -- ----- -- --- ---- -- --- ---- -- that's ------<br>--- ----- -- ----,150782.90000000037,150777.2999999998,150499.217,150506.09999999963,150515.881,150799.176,,50,that's
screen,html.Screen,2_1_0_1_51,2022-02-21T12:19:34.819Z,,,,,,,,,,,,,,,,,53,,,,,,,,,,,,,,275.623999999807,,response,,,,99,,,,,,,Space,keypress(Space),,,,,,,,---- -- ----- -- ------ - ------- --- ----------<br>------------- ------ ------ ---- ---- ------- ----- -- ----<br>-------- ------- -- ---------- --- - --- ----- ----- ----<br>---- --- --- ----- --- ---- ---- ------- ----- ---- -------<br>--- --- -- ----- -- --- ---- -- --- ---- -- ------ really<br>--- ----- -- ----,151082.09999999963,151074.7999999998,150782.512,150783.7000000002,150799.176,151099.148,,51,really
screen,html.Screen,2_1_0_1_52,2022-02-21T12:19:35.187Z,,,,,,,,,,,,,,,,,53,,,,,,,,,,,,,,343.3520000000135,,response,,,,99,,,,,,,Space,keypress(Space),,,,,,,,---- -- ----- -- ------ - ------- --- ----------<br>------------- ------ ------ ---- ---- ------- ----- -- ----<br>-------- ------- -- ---------- --- - --- ----- ----- ----<br>---- --- --- ----- --- ---- ---- ------- ----- ---- -------<br>--- --- -- ----- -- --- ---- -- --- ---- -- ------ ------<br>not ----- -- ----,151449.7999999998,151442.5,151082.484,151083.09999999963,151099.148,151465.774,,52,not
screen,html.Screen,2_1_0_1_53,2022-02-21T12:19:35.552Z,,,,,,,,,,,,,,,,,53,,,,,,,,,,,,,,341.8259999996226,,response,,,,99,,,,,,,Space,keypress(Space),,,,,,,,---- -- ----- -- ------ - ------- --- ----------<br>------------- ------ ------ ---- ---- ------- ----- -- ----<br>-------- ------- -- ---------- --- - --- ----- ----- ----<br>---- --- --- ----- --- ---- ---- ------- ----- ---- -------<br>--- --- -- ----- -- --- ---- -- --- ---- -- ------ ------<br>--- close -- ----,151815,151807.59999999963,151449.11,151451.5,151465.774,151832.4,,53,close
screen,html.Screen,2_1_0_1_54,2022-02-21T12:19:35.905Z,,,,,,,,,,,,,,,,,53,,,,,,,,,,,,,,329.00000000037835,,response,,,,99,,,,,,,Space,keypress(Space),,,,,,,,---- -- ----- -- ------ - ------- --- ----------<br>------------- ------ ------ ---- ---- ------- ----- -- ----<br>-------- ------- -- ---------- --- - --- ----- ----- ----<br>---- --- --- ----- --- ---- ---- ------- ----- ---- -------<br>--- --- -- ----- -- --- ---- -- --- ---- -- ------ ------<br>--- ----- at ----,152168,152161.40000000037,151815.736,151816.09999999963,151832.4,152182.357,,54,at
screen,html.Screen,2_1_0_1_55,2022-02-21T12:19:36.083Z,,,,,,,,,,,,,,,,,53,,,,,,,,,,,,,,157.3430000001972,,response,,,,99,,,,,,,Space,keypress(Space),,,,,,,,---- -- ----- -- ------ - ------- --- ----------<br>------------- ------ ------ ---- ---- ------- ----- -- ----<br>-------- ------- -- ---------- --- - --- ----- ----- ----<br>---- --- --- ----- --- ---- ---- ------- ----- ---- -------<br>--- --- -- ----- -- --- ---- -- --- ---- -- ------ ------<br>--- ----- -- all.,152346.2999999998,152339.7000000002,152165.693,152169.09999999963,152182.357,152365.694,,55,all.
Item 99,flow.Loop,2_1_0_1,2022-02-21T12:19:36.085Z,,,,,,,,,,,,,,,,,,,,,,,,,,,,,,,20255.285000000178,,completion,,,,,C,,,,,,,,,,,silence,,,,,152348.09999999963,152339.7000000002,132051.087,132054.5,132084.415,152365.694,,,
Question 1,html.Screen,2_1_0_2,2022-02-21T12:19:40.777Z,,,,,,,,,,,,,,,,,,,,,,,,,,,,true,FALSE,,4667.405999999639,,response,,,,99,C,,,,,,FALSE,click #choice-2,,,,silence,,,,,157040.2999999998,157033.09999999963,152349.03,152349.09999999963,152365.694,157048.518,,,
Question 2,html.Screen,2_1_0_3,2022-02-21T12:19:44.857Z,,,,,,,,,,,,,,,,,,,,,,,,,,,,true,TRUE,,4065.3820000003616,,response,,,,99,C,,,,,,TRUE,click #choice-1,,,,silence,,,,,161120.2000000002,161113.90000000037,157031.854,157040.7000000002,157048.518,161131.445,,,
Item 99,flow.Sequence,2_1_0,2022-02-21T12:19:44.858Z,,,,,,,,,,,,,,,,,,,,,,,,,,,,,,,39045.11500000037,,completion,,,,,,,,,,,,,,,,,,,,,161121.09999999963,161113.90000000037,122052.121,122061.59999999963,122068.785,161131.445,,,
Holding screen,html.Screen,2_1_1_0,2022-02-21T12:19:54.853Z,,,,,,,,,,,,,,,,,,,,,,,,,,,,,,,9998.924999999988,,timeout,,,,,,,,,,,,,,,,,,,,,171116.2000000002,171113.706,161114.781,161121.7999999998,161131.445,171130.37,,,
screen,html.Screen,2_1_1_1_0,2022-02-21T12:19:55.960Z,,,,,,,,,,,,,,,,,54,,,,,,,,,,,,,,1083.2299999996321,,response,,,,100,,,,,,,Space,keypress(Space),,,,,,,,At --- ---- --- ------ ----- ------- ---- -- --- ------- --<br>------- ---------- ------ -- ----- -- ----- -- ---- ------<br>--- ----- --- --- ------ -------- ----- --- ------ ----- --<br>----- ----- ---------- --- --- ------ ------ ---- -- ------<br>------- --- ------ ----- --- ---- ------- -- ---- --- --<br>------- ------,172223.2999999998,172213.59999999963,171113.706,171117.40000000037,171130.37,172230.258,,0,At
screen,html.Screen,2_1_1_1_1,2022-02-21T12:19:56.290Z,,,,,,,,,,,,,,,,,54,,,,,,,,,,,,,,317.0419999998121,,response,,,,100,,,,,,,Space,keypress(Space),,,,,,,,-- the ---- --- ------ ----- ------- ---- -- --- ------- --<br>------- ---------- ------ -- ----- -- ----- -- ---- ------<br>--- ----- --- --- ------ -------- ----- --- ------ ----- --<br>----- ----- ---------- --- --- ------ ------ ---- -- ------<br>------- --- ------ ----- --- ---- ------- -- ---- --- --<br>------- ------,172552.7999999998,172547.2999999998,172213.594,172223.5,172230.258,172563.597,,1,the
screen,html.Screen,2_1_1_1_2,2022-02-21T12:19:56.563Z,,,,,,,,,,,,,,,,,54,,,,,,,,,,,,,,258.0029999996186,,response,,,,100,,,,,,,Space,keypress(Space),,,,,,,,-- --- time --- ------ ----- ------- ---- -- --- ------- --<br>------- ---------- ------ -- ----- -- ----- -- ---- ------<br>--- ----- --- --- ------ -------- ----- --- ------ ----- --<br>----- ----- ---------- --- --- ------ ------ ---- -- ------<br>------- --- ------ ----- --- ---- ------- -- ---- --- --<br>------- ------,172825.90000000037,172821.59999999963,172546.933,172553.2000000002,172563.597,172830.234,,2,time
screen,html.Screen,2_1_1_1_3,2022-02-21T12:19:56.802Z,,,,,,,,,,,,,,,,,54,,,,,,,,,,,,,,229.76600000000326,,response,,,,100,,,,,,,Space,keypress(Space),,,,,,,,-- --- ---- the ------ ----- ------- ---- -- --- ------- --<br>------- ---------- ------ -- ----- -- ----- -- ---- ------<br>--- ----- --- --- ------ -------- ----- --- ------ ----- --<br>----- ----- ---------- --- --- ------ ------ ---- -- ------<br>------- --- ------ ----- --- ---- ------- -- ---- --- --<br>------- ------,173065.2999999998,173060,172813.57,172826.59999999963,172830.234,173080.208,,3,the
screen,html.Screen,2_1_1_1_4,2022-02-21T12:19:57.124Z,,,,,,,,,,,,,,,,,54,,,,,,,,,,,,,,299.8919999996142,,response,,,,100,,,,,,,Space,keypress(Space),,,,,,,,-- --- ---- --- French ----- ------- ---- -- --- ------- --<br>------- ---------- ------ -- ----- -- ----- -- ---- ------<br>--- ----- --- --- ------ -------- ----- --- ------ ----- --<br>----- ----- ---------- --- --- ------ ------ ---- -- ------<br>------- --- ------ ----- --- ---- ------- -- ---- --- --<br>------- ------,173386.7000000002,173380.09999999963,173063.544,173065.7999999998,173080.208,173396.834,,4,French
screen,html.Screen,2_1_1_1_5,2022-02-21T12:19:57.403Z,,,,,,,,,,,,,,,,,54,,,,,,,,,,,,,,264.16599999999744,,response,,,,100,,,,,,,Space,keypress(Space),,,,,,,,-- --- ---- --- ------ crown ------- ---- -- --- ------- --<br>------- ---------- ------ -- ----- -- ----- -- ---- ------<br>--- ----- --- --- ------ -------- ----- --- ------ ----- --<br>----- ----- ---------- --- --- ------ ------ ---- -- ------<br>------- --- ------ ----- --- ---- ------- -- ---- --- --<br>------- ------,173666.09999999963,173661,173380.17,173387,173396.834,173680.148,,5,crown
screen,html.Screen,2_1_1_1_6,2022-02-21T12:19:57.701Z,,,,,,,,,,,,,,,,,54,,,,,,,,,,,,,,278.15199999982724,,response,,,,100,,,,,,,Space,keypress(Space),,,,,,,,-- --- ---- --- ------ ----- secured ---- -- --- ------- --<br>------- ---------- ------ -- ----- -- ----- -- ---- ------<br>--- ----- --- --- ------ -------- ----- --- ------ ----- --<br>----- ----- ---------- --- --- ------ ------ ---- -- ------<br>------- --- ------ ----- --- ---- ------- -- ---- --- --<br>------- ------,173964.09999999963,173958.2999999998,173663.484,173667.2999999998,173680.148,173980.111,,6,secured
screen,html.Screen,2_1_1_1_7,2022-02-21T12:19:57.996Z,,,,,,,,,,,,,,,,,54,,,,,,,,,,,,,,271.58900000018184,,response,,,,100,,,,,,,Space,keypress(Space),,,,,,,,-- --- ---- --- ------ ----- ------- much -- --- ------- --<br>------- ---------- ------ -- ----- -- ----- -- ---- ------<br>--- ----- --- --- ------ -------- ----- --- ------ ----- --<br>----- ----- ---------- --- --- ------ ------ ---- -- ------<br>------- --- ------ ----- --- ---- ------- -- ---- --- --<br>------- ------,174258.90000000037,174251.7000000002,173963.447,173965.2000000002,173980.111,174263.417,,7,much
screen,html.Screen,2_1_1_1_8,2022-02-21T12:19:58.275Z,,,,,,,,,,,,,,,,,54,,,,,,,,,,,,,,269.28300000019954,,response,,,,100,,,,,,,Space,keypress(Space),,,,,,,,-- --- ---- --- ------ ----- ------- ---- of --- ------- --<br>------- ---------- ------ -- ----- -- ----- -- ---- ------<br>--- ----- --- --- ------ -------- ----- --- ------ ----- --<br>----- ----- ---------- --- --- ------ ------ ---- -- ------<br>------- --- ------ ----- --- ---- ------- -- ---- --- --<br>------- ------,174538.5,174532.7000000002,174246.753,174259.90000000037,174263.417,174546.715,,8,of
screen,html.Screen,2_1_1_1_9,2022-02-21T12:19:58.545Z,,,,,,,,,,,,,,,,,54,,,,,,,,,,,,,,254.48500000018976,,response,,,,100,,,,,,,Space,keypress(Space),,,,,,,,-- --- ---- --- ------ ----- ------- ---- -- its ------- --<br>------- ---------- ------ -- ----- -- ----- -- ---- ------<br>--- ----- --- --- ------ -------- ----- --- ------ ----- --<br>----- ----- ---------- --- --- ------ ------ ---- -- ------<br>------- --- ------ ----- --- ---- ------- -- ---- --- --<br>------- ------,174807.90000000037,174801.2000000002,174530.051,174539.09999999963,174546.715,174813.351,,9,its
screen,html.Screen,2_1_1_1_10,2022-02-21T12:19:58.805Z,,,,,,,,,,,,,,,,,54,,,,,,,,,,,,,,249.34900000019115,,response,,,,100,,,,,,,Space,keypress(Space),,,,,,,,-- --- ---- --- ------ ----- ------- ---- -- --- revenue --<br>------- ---------- ------ -- ----- -- ----- -- ---- ------<br>--- ----- --- --- ------ -------- ----- --- ------ ----- --<br>----- ----- ---------- --- --- ------ ------ ---- -- ------<br>------- --- ------ ----- --- ---- ------- -- ---- --- --<br>------- ------,175068.2999999998,175062.7000000002,174796.687,174808.40000000037,174813.351,175080.001,,10,revenue
screen,html.Screen,2_1_1_1_11,2022-02-21T12:19:59.176Z,,,,,,,,,,,,,,,,,54,,,,,,,,,,,,,,353.39900000038324,,response,,,,100,,,,,,,Space,keypress(Space),,,,,,,,-- --- ---- --- ------ ----- ------- ---- -- --- ------- by<br>------- ---------- ------ -- ----- -- ----- -- ---- ------<br>--- ----- --- --- ------ -------- ----- --- ------ ----- --<br>----- ----- ---------- --- --- ------ ------ ---- -- ------<br>------- --- ------ ----- --- ---- ------- -- ---- --- --<br>------- ------,175439.2999999998,175433.40000000037,175063.337,175069.09999999963,175080.001,175446.629,,11,by
screen,html.Screen,2_1_1_1_12,2022-02-21T12:19:59.516Z,,,,,,,,,,,,,,,,,54,,,,,,,,,,,,,,327.5710000002,,response,,,,100,,,,,,,Space,keypress(Space),,,,,,,,-- --- ---- --- ------ ----- ------- ---- -- --- ------- --<br>issuing ---------- ------ -- ----- -- ----- -- ---- ------<br>--- ----- --- --- ------ -------- ----- --- ------ ----- --<br>----- ----- ---------- --- --- ------ ------ ---- -- ------<br>------- --- ------ ----- --- ---- ------- -- ---- --- --<br>------- ------,175779.09999999963,175774.2000000002,175429.965,175440.2000000002,175446.629,175796.599,,12,issuing
screen,html.Screen,2_1_1_1_13,2022-02-21T12:19:59.833Z,,,,,,,,,,,,,,,,,54,,,,,,,,,,,,,,292.7009999998263,,response,,,,100,,,,,,,Space,keypress(Space),,,,,,,,-- --- ---- --- ------ ----- ------- ---- -- --- ------- --<br>------- government ------ -- ----- -- ----- -- ---- ------<br>--- ----- --- --- ------ -------- ----- --- ------ ----- --<br>----- ----- ---------- --- --- ------ ------ ---- -- ------<br>------- --- ------ ----- --- ---- ------- -- ---- --- --<br>------- ------,176096.09999999963,176089.2999999998,175779.935,175779.90000000037,175796.599,176113.233,,13,government
screen,html.Screen,2_1_1_1_14,2022-02-21T12:20:00.108Z,,,,,,,,,,,,,,,,,54,,,,,,,,,,,,,,253.9670000001788,,response,,,,100,,,,,,,Space,keypress(Space),,,,,,,,-- --- ---- --- ------ ----- ------- ---- -- --- ------- --<br>------- ---------- bonds. -- ----- -- ----- -- ---- ------<br>--- ----- --- --- ------ -------- ----- --- ------ ----- --<br>----- ----- ---------- --- --- ------ ------ ---- -- ------<br>------- --- ------ ----- --- ---- ------- -- ---- --- --<br>------- ------,176371.5,176367.2000000002,176096.569,176096.59999999963,176113.233,176379.87,,14,bonds.
screen,html.Screen,2_1_1_1_15,2022-02-21T12:20:00.445Z,,,,,,,,,,,,,,,,,54,,,,,,,,,,,,,,322.3300000001909,,response,,,,100,,,,,,,Space,keypress(Space),,,,,,,,-- --- ---- --- ------ ----- ------- ---- -- --- ------- --<br>------- ---------- ------ In ----- -- ----- -- ---- ------<br>--- ----- --- --- ------ -------- ----- --- ------ ----- --<br>----- ----- ---------- --- --- ------ ------ ---- -- ------<br>------- --- ------ ----- --- ---- ------- -- ---- --- --<br>------- ------,176708.2000000002,176702.2000000002,176363.206,176372,176379.87,176713.169,,15,In
screen,html.Screen,2_1_1_1_16,2022-02-21T12:20:00.747Z,,,,,,,,,,,,,,,,,54,,,,,,,,,,,,,,290.53100000019185,,response,,,,100,,,,,,,Space,keypress(Space),,,,,,,,"-- --- ---- --- ------ ----- ------- ---- -- --- ------- --<br>------- ---------- ------ -- 1727, -- ----- -- ---- ------<br>--- ----- --- --- ------ -------- ----- --- ------ ----- --<br>----- ----- ---------- --- --- ------ ------ ---- -- ------<br>------- --- ------ ----- --- ---- ------- -- ---- --- --<br>------- ------",177010.09999999963,177003.7000000002,176696.505,176709,176713.169,177029.8,,16,"1727,"
screen,html.Screen,2_1_1_1_17,2022-02-21T12:20:01.091Z,,,,,,,,,,,,,,,,,54,,,,,,,,,,,,,,318.60000000038417,,response,,,,100,,,,,,,Space,keypress(Space),,,,,,,,-- --- ---- --- ------ ----- ------- ---- -- --- ------- --<br>------- ---------- ------ -- ----- in ----- -- ---- ------<br>--- ----- --- --- ------ -------- ----- --- ------ ----- --<br>----- ----- ---------- --- --- ------ ------ ---- -- ------<br>------- --- ------ ----- --- ---- ------- -- ---- --- --<br>------- ------,177353.7999999998,177348.40000000037,177013.136,177011.2999999998,177029.8,177363.085,,17,in
screen,html.Screen,2_1_1_1_18,2022-02-21T12:20:01.407Z,,,,,,,,,,,,,,,,,54,,,,,,,,,,,,,,299.6150000001944,,response,,,,100,,,,,,,Space,keypress(Space),,,,,,,,-- --- ---- --- ------ ----- ------- ---- -- --- ------- --<br>------- ---------- ------ -- ----- -- order -- ---- ------<br>--- ----- --- --- ------ -------- ----- --- ------ ----- --<br>----- ----- ---------- --- --- ------ ------ ---- -- ------<br>------- --- ------ ----- --- ---- ------- -- ---- --- --<br>------- ------,177669.7000000002,177662.7000000002,177346.421,177354.2000000002,177363.085,177679.72,,18,order
screen,html.Screen,2_1_1_1_19,2022-02-21T12:20:01.662Z,,,,,,,,,,,,,,,,,54,,,,,,,,,,,,,,241.9800000001851,,response,,,,100,,,,,,,Space,keypress(Space),,,,,,,,-- --- ---- --- ------ ----- ------- ---- -- --- ------- --<br>------- ---------- ------ -- ----- -- ----- to ---- ------<br>--- ----- --- --- ------ -------- ----- --- ------ ----- --<br>----- ----- ---------- --- --- ------ ------ ---- -- ------<br>------- --- ------ ----- --- ---- ------- -- ---- --- --<br>------- ------,177925.5,177921.7000000002,177663.056,177670.90000000037,177679.72,177929.708,,19,to
screen,html.Screen,2_1_1_1_20,2022-02-21T12:20:01.961Z,,,,,,,,,,,,,,,,,54,,,,,,,,,,,,,,288.3919999996142,,response,,,,100,,,,,,,Space,keypress(Space),,,,,,,,-- --- ---- --- ------ ----- ------- ---- -- --- ------- --<br>------- ---------- ------ -- ----- -- ----- -- save ------<br>--- ----- --- --- ------ -------- ----- --- ------ ----- --<br>----- ----- ---------- --- --- ------ ------ ---- -- ------<br>------- --- ------ ----- --- ---- ------- -- ---- --- --<br>------- ------,178224.09999999963,178218.09999999963,177913.044,177926,177929.708,178229.683,,20,save
screen,html.Screen,2_1_1_1_21,2022-02-21T12:20:02.264Z,,,,,,,,,,,,,,,,,54,,,,,,,,,,,,,,290.21700000038254,,response,,,,100,,,,,,,Space,keypress(Space),,,,,,,,"-- --- ---- --- ------ ----- ------- ---- -- --- ------- --<br>------- ---------- ------ -- ----- -- ----- -- ---- money,<br>--- ----- --- --- ------ -------- ----- --- ------ ----- --<br>----- ----- ---------- --- --- ------ ------ ---- -- ------<br>------- --- ------ ----- --- ---- ------- -- ---- --- --<br>------- ------",178526.7999999998,178519.90000000037,178213.019,178225.2000000002,178229.683,178529.648,,21,"money,"
screen,html.Screen,2_1_1_1_22,2022-02-21T12:20:02.707Z,,,,,,,,,,,,,,,,,54,,,,,,,,,,,,,,435.25200000038603,,response,,,,100,,,,,,,Space,keypress(Space),,,,,,,,-- --- ---- --- ------ ----- ------- ---- -- --- ------- --<br>------- ---------- ------ -- ----- -- ----- -- ---- ------<br>the ----- --- --- ------ -------- ----- --- ------ ----- --<br>----- ----- ---------- --- --- ------ ------ ---- -- ------<br>------- --- ------ ----- --- ---- ------- -- ---- --- --<br>------- ------,178970.40000000037,178964.90000000037,178512.984,178527.2000000002,178529.648,178979.592,,22,the
screen,html.Screen,2_1_1_1_23,2022-02-21T12:20:02.977Z,,,,,,,,,,,,,,,,,54,,,,,,,,,,,,,,254.30800000036834,,response,,,,100,,,,,,,Space,keypress(Space),,,,,,,,-- --- ---- --- ------ ----- ------- ---- -- --- ------- --<br>------- ---------- ------ -- ----- -- ----- -- ---- ------<br>--- state --- --- ------ -------- ----- --- ------ ----- --<br>----- ----- ---------- --- --- ------ ------ ---- -- ------<br>------- --- ------ ----- --- ---- ------- -- ---- --- --<br>------- ------,179240,179233.90000000037,178962.928,178971.40000000037,178979.592,179246.241,,23,state
screen,html.Screen,2_1_1_1_24,2022-02-21T12:20:03.269Z,,,,,,,,,,,,,,,,,54,,,,,,,,,,,,,,280.4590000001772,,response,,,,100,,,,,,,Space,keypress(Space),,,,,,,,-- --- ---- --- ------ ----- ------- ---- -- --- ------- --<br>------- ---------- ------ -- ----- -- ----- -- ---- ------<br>--- ----- cut --- ------ -------- ----- --- ------ ----- --<br>----- ----- ---------- --- --- ------ ------ ---- -- ------<br>------- --- ------ ----- --- ---- ------- -- ---- --- --<br>------- ------,179532.5,179526.7000000002,179229.577,179240.90000000037,179246.241,179546.204,,24,cut
screen,html.Screen,2_1_1_1_25,2022-02-21T12:20:03.555Z,,,,,,,,,,,,,,,,,54,,,,,,,,,,,,,,264.7960000000021,,response,,,,100,,,,,,,Space,keypress(Space),,,,,,,,-- --- ---- --- ------ ----- ------- ---- -- --- ------- --<br>------- ---------- ------ -- ----- -- ----- -- ---- ------<br>--- ----- --- the ------ -------- ----- --- ------ ----- --<br>----- ----- ---------- --- --- ------ ------ ---- -- ------<br>------- --- ------ ----- --- ---- ------- -- ---- --- --<br>------- ------,179817.7999999998,179811,179529.54,179533.2999999998,179546.204,179829.499,,25,the
screen,html.Screen,2_1_1_1_26,2022-02-21T12:20:03.825Z,,,,,,,,,,,,,,,,,54,,,,,,,,,,,,,,252.60099999961676,,response,,,,100,,,,,,,Space,keypress(Space),,,,,,,,-- --- ---- --- ------ ----- ------- ---- -- --- ------- --<br>------- ---------- ------ -- ----- -- ----- -- ---- ------<br>--- ----- --- --- bonds' -------- ----- --- ------ ----- --<br>----- ----- ---------- --- --- ------ ------ ---- -- ------<br>------- --- ------ ----- --- ---- ------- -- ---- --- --<br>------- ------,180087.90000000037,180082.09999999963,179812.835,179818.09999999963,179829.499,180096.144,,26,bonds'
screen,html.Screen,2_1_1_1_27,2022-02-21T12:20:04.139Z,,,,,,,,,,,,,,,,,54,,,,,,,,,,,,,,300.55600000018603,,response,,,,100,,,,,,,Space,keypress(Space),,,,,,,,-- --- ---- --- ------ ----- ------- ---- -- --- ------- --<br>------- ---------- ------ -- ----- -- ----- -- ---- ------<br>--- ----- --- --- ------ interest ----- --- ------ ----- --<br>----- ----- ---------- --- --- ------ ------ ---- -- ------<br>------- --- ------ ----- --- ---- ------- -- ---- --- --<br>------- ------,180402.40000000037,180396.7000000002,180079.48,180088.59999999963,180096.144,180412.78,,27,interest
screen,html.Screen,2_1_1_1_28,2022-02-21T12:20:04.407Z,,,,,,,,,,,,,,,,,54,,,,,,,,,,,,,,249.31999999962864,,response,,,,100,,,,,,,Space,keypress(Space),,,,,,,,-- --- ---- --- ------ ----- ------- ---- -- --- ------- --<br>------- ---------- ------ -- ----- -- ----- -- ---- ------<br>--- ----- --- --- ------ -------- rate. --- ------ ----- --<br>----- ----- ---------- --- --- ------ ------ ---- -- ------<br>------- --- ------ ----- --- ---- ------- -- ---- --- --<br>------- ------,180669.7999999998,180662.09999999963,180396.116,180403.40000000037,180412.78,180679.418,,28,rate.
screen,html.Screen,2_1_1_1_29,2022-02-21T12:20:04.737Z,,,,,,,,,,,,,,,,,54,,,,,,,,,,,,,,314.78200000018114,,response,,,,100,,,,,,,Space,keypress(Space),,,,,,,,-- --- ---- --- ------ ----- ------- ---- -- --- ------- --<br>------- ---------- ------ -- ----- -- ----- -- ---- ------<br>--- ----- --- --- ------ -------- ----- The ------ ----- --<br>----- ----- ---------- --- --- ------ ------ ---- -- ------<br>------- --- ------ ----- --- ---- ------- -- ---- --- --<br>------- ------,181000.2999999998,180994.2000000002,180662.754,180670.7999999998,180679.418,181012.716,,29,The
screen,html.Screen,2_1_1_1_30,2022-02-21T12:20:05.075Z,,,,,,,,,,,,,,,,,54,,,,,,,,,,,,,,318.8839999996417,,response,,,,100,,,,,,,Space,keypress(Space),,,,,,,,-- --- ---- --- ------ ----- ------- ---- -- --- ------- --<br>------- ---------- ------ -- ----- -- ----- -- ---- ------<br>--- ----- --- --- ------ -------- ----- --- market ----- --<br>----- ----- ---------- --- --- ------ ------ ---- -- ------<br>------- --- ------ ----- --- ---- ------- -- ---- --- --<br>------- ------,181338.09999999963,181331.59999999963,180996.052,181001.2999999998,181012.716,181346.022,,30,market
screen,html.Screen,2_1_1_1_31,2022-02-21T12:20:05.444Z,,,,,,,,,,,,,,,,,54,,,,,,,,,,,,,,358.27799999981653,,response,,,,100,,,,,,,Space,keypress(Space),,,,,,,,-- --- ---- --- ------ ----- ------- ---- -- --- ------- --<br>------- ---------- ------ -- ----- -- ----- -- ---- ------<br>--- ----- --- --- ------ -------- ----- --- ------ value --<br>----- ----- ---------- --- --- ------ ------ ---- -- ------<br>------- --- ------ ----- --- ---- ------- -- ---- --- --<br>------- ------,181707.40000000037,181704.2999999998,181329.358,181339.2000000002,181346.022,181712.638,,31,value
screen,html.Screen,2_1_1_1_32,2022-02-21T12:20:05.772Z,,,,,,,,,,,,,,,,,54,,,,,,,,,,,,,,316.76200000036624,,response,,,,100,,,,,,,Space,keypress(Space),,,,,,,,-- --- ---- --- ------ ----- ------- ---- -- --- ------- --<br>------- ---------- ------ -- ----- -- ----- -- ---- ------<br>--- ----- --- --- ------ -------- ----- --- ------ ----- of<br>----- ----- ---------- --- --- ------ ------ ---- -- ------<br>------- --- ------ ----- --- ---- ------- -- ---- --- --<br>------- ------,182034.7000000002,182029.40000000037,181695.974,181707.7999999998,181712.638,182045.952,,32,of
screen,html.Screen,2_1_1_1_33,2022-02-21T12:20:06.058Z,,,,,,,,,,,,,,,,,54,,,,,,,,,,,,,,265.8479999998235,,response,,,,100,,,,,,,Space,keypress(Space),,,,,,,,-- --- ---- --- ------ ----- ------- ---- -- --- ------- --<br>------- ---------- ------ -- ----- -- ----- -- ---- ------<br>--- ----- --- --- ------ -------- ----- --- ------ ----- --<br>these ----- ---------- --- --- ------ ------ ---- -- ------<br>------- --- ------ ----- --- ---- ------- -- ---- --- --<br>------- ------,182320.90000000037,182311.7999999998,182029.288,182035.7999999998,182045.952,182329.247,,33,these
screen,html.Screen,2_1_1_1_34,2022-02-21T12:20:06.344Z,,,,,,,,,,,,,,,,,54,,,,,,,,,,,,,,271.6530000003695,,response,,,,100,,,,,,,Space,keypress(Space),,,,,,,,-- --- ---- --- ------ ----- ------- ---- -- --- ------- --<br>------- ---------- ------ -- ----- -- ----- -- ---- ------<br>--- ----- --- --- ------ -------- ----- --- ------ ----- --<br>----- bonds ---------- --- --- ------ ------ ---- -- ------<br>------- --- ------ ----- --- ---- ------- -- ---- --- --<br>------- ------,182607.2999999998,182600.90000000037,182312.583,182322,182329.247,182612.547,,34,bonds
screen,html.Screen,2_1_1_1_35,2022-02-21T12:20:06.671Z,,,,,,,,,,,,,,,,,54,,,,,,,,,,,,,,316.75299999982235,,response,,,,100,,,,,,,Space,keypress(Space),,,,,,,,"-- --- ---- --- ------ ----- ------- ---- -- --- ------- --<br>------- ---------- ------ -- ----- -- ----- -- ---- ------<br>--- ----- --- --- ------ -------- ----- --- ------ ----- --<br>----- ----- plummeted, --- --- ------ ------ ---- -- ------<br>------- --- ------ ----- --- ---- ------- -- ---- --- --<br>------- ------",182933.90000000037,182929.2999999998,182595.883,182607.7000000002,182612.547,182945.845,,35,"plummeted,"
screen,html.Screen,2_1_1_1_36,2022-02-21T12:20:06.997Z,,,,,,,,,,,,,,,,,54,,,,,,,,,,,,,,306.8550000001851,,response,,,,100,,,,,,,Space,keypress(Space),,,,,,,,-- --- ---- --- ------ ----- ------- ---- -- --- ------- --<br>------- ---------- ------ -- ----- -- ----- -- ---- ------<br>--- ----- --- --- ------ -------- ----- --- ------ ----- --<br>----- ----- ---------- and --- ------ ------ ---- -- ------<br>------- --- ------ ----- --- ---- ------- -- ---- --- --<br>------- ------,183260.5,183252.7000000002,182929.181,182934.40000000037,182945.845,183279.139,,36,and
screen,html.Screen,2_1_1_1_37,2022-02-21T12:20:07.366Z,,,,,,,,,,,,,,,,,54,,,,,,,,,,,,,,343.9609999996319,,response,,,,100,,,,,,,Space,keypress(Space),,,,,,,,-- --- ---- --- ------ ----- ------- ---- -- --- ------- --<br>------- ---------- ------ -- ----- -- ----- -- ---- ------<br>--- ----- --- --- ------ -------- ----- --- ------ ----- --<br>----- ----- ---------- --- the ------ ------ ---- -- ------<br>------- --- ------ ----- --- ---- ------- -- ---- --- --<br>------- ------,183629.59999999963,183623.09999999963,183262.475,183261.5,183279.139,183645.783,,37,the
screen,html.Screen,2_1_1_1_38,2022-02-21T12:20:07.691Z,,,,,,,,,,,,,,,,,54,,,,,,,,,,,,,,301.31699999963166,,response,,,,100,,,,,,,Space,keypress(Space),,,,,,,,-- --- ---- --- ------ ----- ------- ---- -- --- ------- --<br>------- ---------- ------ -- ----- -- ----- -- ---- ------<br>--- ----- --- --- ------ -------- ----- --- ------ ----- --<br>----- ----- ---------- --- --- market ------ ---- -- ------<br>------- --- ------ ----- --- ---- ------- -- ---- --- --<br>------- ------,183954,183947.09999999963,183629.119,183630.2999999998,183645.783,183962.403,,38,market
screen,html.Screen,2_1_1_1_39,2022-02-21T12:20:07.987Z,,,,,,,,,,,,,,,,,54,,,,,,,,,,,,,,281.59700000000885,,response,,,,100,,,,,,,Space,keypress(Space),,,,,,,,-- --- ---- --- ------ ----- ------- ---- -- --- ------- --<br>------- ---------- ------ -- ----- -- ----- -- ---- ------<br>--- ----- --- --- ------ -------- ----- --- ------ ----- --<br>----- ----- ---------- --- --- ------ became ---- -- ------<br>------- --- ------ ----- --- ---- ------- -- ---- --- --<br>------- ------,184250.2999999998,184244,183945.739,183955.09999999963,183962.403,184262.372,,39,became
screen,html.Screen,2_1_1_1_40,2022-02-21T12:20:08.336Z,,,,,,,,,,,,,,,,,54,,,,,,,,,,,,,,329.4279999998107,,response,,,,100,,,,,,,Space,keypress(Space),,,,,,,,-- --- ---- --- ------ ----- ------- ---- -- --- ------- --<br>------- ---------- ------ -- ----- -- ----- -- ---- ------<br>--- ----- --- --- ------ -------- ----- --- ------ ----- --<br>----- ----- ---------- --- --- ------ ------ wary -- ------<br>------- --- ------ ----- --- ---- ------- -- ---- --- --<br>------- ------,184599,184591.7999999998,184245.708,184251.2999999998,184262.372,184612.336,,40,wary
screen,html.Screen,2_1_1_1_41,2022-02-21T12:20:08.651Z,,,,,,,,,,,,,,,,,54,,,,,,,,,,,,,,295.364000000176,,response,,,,100,,,,,,,Space,keypress(Space),,,,,,,,-- --- ---- --- ------ ----- ------- ---- -- --- ------- --<br>------- ---------- ------ -- ----- -- ----- -- ---- ------<br>--- ----- --- --- ------ -------- ----- --- ------ ----- --<br>----- ----- ---------- --- --- ------ ------ ---- of ------<br>------- --- ------ ----- --- ---- ------- -- ---- --- --<br>------- ------,184914,184907.7000000002,184595.672,184600.09999999963,184612.336,184928.975,,41,of
screen,html.Screen,2_1_1_1_42,2022-02-21T12:20:09.028Z,,,,,,,,,,,,,,,,,54,,,,,,,,,,,,,,354.22500000018044,,response,,,,100,,,,,,,Space,keypress(Space),,,,,,,,-- --- ---- --- ------ ----- ------- ---- -- --- ------- --<br>------- ---------- ------ -- ----- -- ----- -- ---- ------<br>--- ----- --- --- ------ -------- ----- --- ------ ----- --<br>----- ----- ---------- --- --- ------ ------ ---- -- French<br>------- --- ------ ----- --- ---- ------- -- ---- --- --<br>------- ------,185290.7000000002,185283.2000000002,184912.311,184915.09999999963,184928.975,185295.606,,42,French
screen,html.Screen,2_1_1_1_43,2022-02-21T12:20:09.344Z,,,,,,,,,,,,,,,,,54,,,,,,,,,,,,,,304.5940000001865,,response,,,,100,,,,,,,Space,keypress(Space),,,,,,,,-- --- ---- --- ------ ----- ------- ---- -- --- ------- --<br>------- ---------- ------ -- ----- -- ----- -- ---- ------<br>--- ----- --- --- ------ -------- ----- --- ------ ----- --<br>----- ----- ---------- --- --- ------ ------ ---- -- ------<br>credit. --- ------ ----- --- ---- ------- -- ---- --- --<br>------- ------,185606.90000000037,185600.2000000002,185278.942,185291.2999999998,185295.606,185612.234,,43,credit.
screen,html.Screen,2_1_1_1_44,2022-02-21T12:20:09.640Z,,,,,,,,,,,,,,,,,54,,,,,,,,,,,,,,284.86599999963073,,response,,,,100,,,,,,,Space,keypress(Space),,,,,,,,-- --- ---- --- ------ ----- ------- ---- -- --- ------- --<br>------- ---------- ------ -- ----- -- ----- -- ---- ------<br>--- ----- --- --- ------ -------- ----- --- ------ ----- --<br>----- ----- ---------- --- --- ------ ------ ---- -- ------<br>------- The ------ ----- --- ---- ------- -- ---- --- --<br>------- ------,185902.7000000002,185897.09999999963,185595.57,185607.40000000037,185612.234,185912.201,,44,The
screen,html.Screen,2_1_1_1_45,2022-02-21T12:20:10.003Z,,,,,,,,,,,,,,,,,54,,,,,,,,,,,,,,347.79899999999907,,response,,,,100,,,,,,,Space,keypress(Space),,,,,,,,-- --- ---- --- ------ ----- ------- ---- -- --- ------- --<br>------- ---------- ------ -- ----- -- ----- -- ---- ------<br>--- ----- --- --- ------ -------- ----- --- ------ ----- --<br>----- ----- ---------- --- --- ------ ------ ---- -- ------<br>------- --- French ----- --- ---- ------- -- ---- --- --<br>------- ------,186265.7000000002,186260,185895.537,185903.7999999998,185912.201,186278.84,,45,French
screen,html.Screen,2_1_1_1_46,2022-02-21T12:20:10.337Z,,,,,,,,,,,,,,,,,54,,,,,,,,,,,,,,315.36000000018976,,response,,,,100,,,,,,,Space,keypress(Space),,,,,,,,-- --- ---- --- ------ ----- ------- ---- -- --- ------- --<br>------- ---------- ------ -- ----- -- ----- -- ---- ------<br>--- ----- --- --- ------ -------- ----- --- ------ ----- --<br>----- ----- ---------- --- --- ------ ------ ---- -- ------<br>------- --- ------ state --- ---- ------- -- ---- --- --<br>------- ------,186599.90000000037,186594.2000000002,186262.176,186266.7999999998,186278.84,186612.147,,46,state
screen,html.Screen,2_1_1_1_47,2022-02-21T12:20:10.712Z,,,,,,,,,,,,,,,,,54,,,,,,,,,,,,,,357.55300000018906,,response,,,,100,,,,,,,Space,keypress(Space),,,,,,,,-- --- ---- --- ------ ----- ------- ---- -- --- ------- --<br>------- ---------- ------ -- ----- -- ----- -- ---- ------<br>--- ----- --- --- ------ -------- ----- --- ------ ----- --<br>----- ----- ---------- --- --- ------ ------ ---- -- ------<br>------- --- ------ ----- was ---- ------- -- ---- --- --<br>------- ------,186975.09999999963,186969.7000000002,186595.483,186601.2999999998,186612.147,186978.759,,47,was
screen,html.Screen,2_1_1_1_48,2022-02-21T12:20:11.040Z,,,,,,,,,,,,,,,,,54,,,,,,,,,,,,,,317.0409999998228,,response,,,,100,,,,,,,Space,keypress(Space),,,,,,,,-- --- ---- --- ------ ----- ------- ---- -- --- ------- --<br>------- ---------- ------ -- ----- -- ----- -- ---- ------<br>--- ----- --- --- ------ -------- ----- --- ------ ----- --<br>----- ----- ---------- --- --- ------ ------ ---- -- ------<br>------- --- ------ ----- --- left ------- -- ---- --- --<br>------- ------,187302.7999999998,187295.7999999998,186962.095,186975.7999999998,186978.759,187312.056,,48,left
screen,html.Screen,2_1_1_1_49,2022-02-21T12:20:11.425Z,,,,,,,,,,,,,,,,,54,,,,,,,,,,,,,,366.64400000017486,,response,,,,100,,,,,,,Space,keypress(Space),,,,,,,,-- --- ---- --- ------ ----- ------- ---- -- --- ------- --<br>------- ---------- ------ -- ----- -- ----- -- ---- ------<br>--- ----- --- --- ------ -------- ----- --- ------ ----- --<br>----- ----- ---------- --- --- ------ ------ ---- -- ------<br>------- --- ------ ----- --- ---- without -- ---- --- --<br>------- ------,187688,187678.7000000002,187295.392,187304,187312.056,187695.361,,49,without
screen,html.Screen,2_1_1_1_50,2022-02-21T12:20:11.694Z,,,,,,,,,,,,,,,,,54,,,,,,,,,,,,,,256.73899999962305,,response,,,,100,,,,,,,Space,keypress(Space),,,,,,,,-- --- ---- --- ------ ----- ------- ---- -- --- ------- --<br>------- ---------- ------ -- ----- -- ----- -- ---- ------<br>--- ----- --- --- ------ -------- ----- --- ------ ----- --<br>----- ----- ---------- --- --- ------ ------ ---- -- ------<br>------- --- ------ ----- --- ---- ------- an ---- --- --<br>------- ------,187957.40000000037,187952.09999999963,187678.697,187689.09999999963,187695.361,187962.006,,50,an
screen,html.Screen,2_1_1_1_51,2022-02-21T12:20:11.907Z,,,,,,,,,,,,,,,,,54,,,,,,,,,,,,,,199.39400000037858,,response,,,,100,,,,,,,Space,keypress(Space),,,,,,,,-- --- ---- --- ------ ----- ------- ---- -- --- ------- --<br>------- ---------- ------ -- ----- -- ----- -- ---- ------<br>--- ----- --- --- ------ -------- ----- --- ------ ----- --<br>----- ----- ---------- --- --- ------ ------ ---- -- ------<br>------- --- ------ ----- --- ---- ------- -- easy --- --<br>------- ------,188169.90000000037,188161.40000000037,187945.342,187958,187962.006,188178.639,,51,easy
screen,html.Screen,2_1_1_1_52,2022-02-21T12:20:12.235Z,,,,,,,,,,,,,,,,,54,,,,,,,,,,,,,,312.66099999981816,,response,,,,100,,,,,,,Space,keypress(Space),,,,,,,,-- --- ---- --- ------ ----- ------- ---- -- --- ------- --<br>------- ---------- ------ -- ----- -- ----- -- ---- ------<br>--- ----- --- --- ------ -------- ----- --- ------ ----- --<br>----- ----- ---------- --- --- ------ ------ ---- -- ------<br>------- --- ------ ----- --- ---- ------- -- ---- way --<br>------- ------,188497.7000000002,188491.2999999998,188161.975,188170.2999999998,188178.639,188511.94,,52,way
screen,html.Screen,2_1_1_1_53,2022-02-21T12:20:12.547Z,,,,,,,,,,,,,,,,,54,,,,,,,,,,,,,,292.26000000018394,,response,,,,100,,,,,,,Space,keypress(Space),,,,,,,,-- --- ---- --- ------ ----- ------- ---- -- --- ------- --<br>------- ---------- ------ -- ----- -- ----- -- ---- ------<br>--- ----- --- --- ------ -------- ----- --- ------ ----- --<br>----- ----- ---------- --- --- ------ ------ ---- -- ------<br>------- --- ------ ----- --- ---- ------- -- ---- --- of<br>------- ------,188809.90000000037,188804.2000000002,188495.276,188499.59999999963,188511.94,188828.579,,53,of
screen,html.Screen,2_1_1_1_54,2022-02-21T12:20:12.926Z,,,,,,,,,,,,,,,,,54,,,,,,,,,,,,,,352.8210000003746,,response,,,,100,,,,,,,Space,keypress(Space),,,,,,,,-- --- ---- --- ------ ----- ------- ---- -- --- ------- --<br>------- ---------- ------ -- ----- -- ----- -- ---- ------<br>--- ----- --- --- ------ -------- ----- --- ------ ----- --<br>----- ----- ---------- --- --- ------ ------ ---- -- ------<br>------- --- ------ ----- --- ---- ------- -- ---- --- --<br>raising ------,189189.2000000002,189181.40000000037,188811.915,188811.09999999963,188828.579,189195.194,,54,raising
screen,html.Screen,2_1_1_1_55,2022-02-21T12:20:13.635Z,,,,,,,,,,,,,,,,,54,,,,,,,,,,,,,,695.3060000000114,,response,,,,100,,,,,,,Space,keypress(Space),,,,,,,,-- --- ---- --- ------ ----- ------- ---- -- --- ------- --<br>------- ---------- ------ -- ----- -- ----- -- ---- ------<br>--- ----- --- --- ------ -------- ----- --- ------ ----- --<br>----- ----- ---------- --- --- ------ ------ ---- -- ------<br>------- --- ------ ----- --- ---- ------- -- ---- --- --<br>------- money.,189898,189890.5,189178.53,189189.40000000037,189195.194,189911.784,,55,money.
Item 100,flow.Loop,2_1_1_1,2022-02-21T12:20:13.637Z,,,,,,,,,,,,,,,,,,,,,,,,,,,,,,,18760.130000000005,,completion,,,,,C,,,,,,,,,,,silence,,,,,189899.7000000002,189890.5,171113.706,171117.09999999963,171130.37,189911.784,,,
Question 1,html.Screen,2_1_1_2,2022-02-21T12:20:15.908Z,,,,,,,,,,,,,,,,,,,,,,,,,,,,true,TRUE,,2247.6160000003583,,response,,,,100,C,,,,,,TRUE,click #choice-1,,,,silence,,,,,192170.7000000002,192159.40000000037,189895.12,189900.2999999998,189911.784,192178.233,,,
Question 2,html.Screen,2_1_1_3,2022-02-21T12:20:17.684Z,,,,,,,,,,,,,,,,,,,,,,,,,,,,true,FALSE,,1757.167000000365,,response,,,,100,C,,,,,,FALSE,click #choice-2,,,,silence,,,,,193947.40000000037,193935.40000000037,192161.569,192171,192178.233,193944.726,,,
Item 100,flow.Sequence,2_1_1,2022-02-21T12:20:17.685Z,,,,,,,,,,,,,,,,,,,,,,,,,,,,,,,32803.955000000366,,completion,,,,,,,,,,,,,,,,,,,,,193948.5,193935.40000000037,161114.781,161121.5,161131.445,193944.726,,,
End of Practice,html.Page,2_1_2,2022-02-21T12:20:21.162Z,,,,,,,,,,,,,,,,,,,,,,,,,,,,,,,3479.0739999998186,,form submission,,,,,,,,,,,,,,,,,,,,,197424.7999999998,197423.7999999998,193928.062,193949,193944.726,197427.683,,,
Practice,flow.Sequence,2_1,2022-02-21T12:20:21.163Z,,,,,,,,,,,,,,,,,,,,,,,,,,,,,,,75355.01499999981,,completion,,,,,,,,,,,,,,,,,,,,,197425.90000000037,197423.7999999998,122052.121,122061.29999999981,122068.785,197427.683,,,
Trap_instruction,html.Page,2_2_0,2022-02-21T12:20:26.239Z,,,,,,,,,,,,,,,,,,,,,,,,,,,,,,,5073.017000000196,,form submission,,,,,,,,,,,,,,,,,,,,,202501.7000000002,202500.7000000002,197411.019,197426.2999999998,197427.683,202560.224,,,
trap_trial,html.Screen,2_2_1,2022-02-21T12:20:29.402Z,,,,,,,,,,,,,,,,,,,,,,,,,,,,true,1,,3094.5759999998263,,response,,,,,,,,,,,1,click #choice-1,,,,,,,,,205665.09999999963,205654.7999999998,202493.568,202502.2999999998,202560.224,205676.683,,,
end of trap trial,html.Page,2_2_2,2022-02-21T12:20:31.459Z,,,,,,,,,,,,,,,,,,,,,,,,,,,,,,,2044.6169999998237,,form submission,,,,,,,,,,,,,,,,,,,,,207721.90000000037,207721.2999999998,205660.019,205665.5,205676.683,207726.621,,,
Trap 1,flow.Sequence,2_2,2022-02-21T12:20:31.459Z,,,,,,,,,,,,,,,,,,,,,,,,,,,,,,,10293.616999999824,,completion,,,,,,,,,,,,,,,,,,,,,207722.2999999998,207721.2999999998,197411.019,197426.2999999998,197427.683,207726.621,,,
Standby,html.Page,2_3_0,2022-02-21T12:20:39.449Z,,,,,,,,,,,,,,,,,,,,,,,,,,,,,,,7998.729999999981,,timeout,,,,,,,,,,,,,,,,,,,,,215712.5,215708.687,207709.957,207722.59999999963,207726.621,215725.351,,,
Holding screen,html.Screen,2_3_1_0_0,2022-02-21T12:20:46.449Z,,,,,,,,,,,,,,,,,,,,,,,,,,,,,,,6999.687000000005,,timeout,,,,,,,,,,,,,,,,,,,,,222711.7999999998,222708.374,215708.687,215713.90000000037,215725.351,222725.038,,,
screen,html.Screen,2_3_1_0_1_0,2022-02-21T12:20:47.137Z,,,,,,,,,,,,,,,,,15,,,,,,,,,,,,,,665.561999999627,,response,,,,7,C,,,,,,Space,keypress(Space),,,,instrumental,,,,Greg --------- ---------- - --- ------- -- --- ------------<br>----- -- -------- ------- ---- ------ - -------- ---- -----<br>--- ------- ---- -- --- -------- --- - ----- ------ ---- --<br>-------- --- -------- -------- --- -------- ---- -- ----- -<br>-------- ---- --- ---------- --------- -- ------- ------ -<br>--------- ----- -----,223400.5,223390.59999999963,222708.374,222713.2999999998,222725.038,223408.305,,0,Greg
screen,html.Screen,2_3_1_0_1_1,2022-02-21T12:20:47.438Z,,,,,,,,,,,,,,,,,15,,,,,,,,,,,,,,287.4949999998207,,response,,,,7,C,,,,,,Space,keypress(Space),,,,instrumental,,,,"---- Anderson, ---------- - --- ------- -- --- ------------<br>----- -- -------- ------- ---- ------ - -------- ---- -----<br>--- ------- ---- -- --- -------- --- - ----- ------ ---- --<br>-------- --- -------- -------- --- -------- ---- -- ----- -<br>-------- ---- --- ---------- --------- -- ------- ------ -<br>--------- ----- -----",223701.5,223695.7999999998,223391.641,223402.90000000037,223408.305,223708.308,,1,"Anderson,"
screen,html.Screen,2_3_1_0_1_2,2022-02-21T12:20:47.703Z,,,,,,,,,,,,,,,,,15,,,,,,,,,,,,,,252.49199999982375,,response,,,,7,C,,,,,,Space,keypress(Space),,,,instrumental,,,,---- --------- considered - --- ------- -- --- ------------<br>----- -- -------- ------- ---- ------ - -------- ---- -----<br>--- ------- ---- -- --- -------- --- - ----- ------ ---- --<br>-------- --- -------- -------- --- -------- ---- -- ----- -<br>-------- ---- --- ---------- --------- -- ------- ------ -<br>--------- ----- -----,223966.2999999998,223960.7999999998,223691.644,223702.09999999963,223708.308,223974.936,,2,considered
screen,html.Screen,2_3_1_0_1_3,2022-02-21T12:20:47.973Z,,,,,,,,,,,,,,,,,15,,,,,,,,,,,,,,256.1639999996405,,response,,,,7,C,,,,,,Space,keypress(Space),,,,instrumental,,,,---- --------- ---------- a --- ------- -- --- ------------<br>----- -- -------- ------- ---- ------ - -------- ---- -----<br>--- ------- ---- -- --- -------- --- - ----- ------ ---- --<br>-------- --- -------- -------- --- -------- ---- -- ----- -<br>-------- ---- --- ---------- --------- -- ------- ------ -<br>--------- ----- -----,224236.09999999963,224231.09999999963,223958.272,223966.7000000002,223974.936,224241.573,,3,a
screen,html.Screen,2_3_1_0_1_4,2022-02-21T12:20:48.234Z,,,,,,,,,,,,,,,,,15,,,,,,,,,,,,,,250.22699999980978,,response,,,,7,C,,,,,,Space,keypress(Space),,,,instrumental,,,,---- --------- ---------- - key ------- -- --- ------------<br>----- -- -------- ------- ---- ------ - -------- ---- -----<br>--- ------- ---- -- --- -------- --- - ----- ------ ---- --<br>-------- --- -------- -------- --- -------- ---- -- ----- -<br>-------- ---- --- ---------- --------- -- ------- ------ -<br>--------- ----- -----,224497.40000000037,224491.7999999998,224224.909,224236.7000000002,224241.573,224508.225,,4,key
screen,html.Screen,2_3_1_0_1_5,2022-02-21T12:20:48.504Z,,,,,,,,,,,,,,,,,15,,,,,,,,,,,,,,253.6750000003667,,response,,,,7,C,,,,,,Space,keypress(Space),,,,instrumental,,,,---- --------- ---------- - --- witness -- --- ------------<br>----- -- -------- ------- ---- ------ - -------- ---- -----<br>--- ------- ---- -- --- -------- --- - ----- ------ ---- --<br>-------- --- -------- -------- --- -------- ---- -- ----- -<br>-------- ---- --- ---------- --------- -- ------- ------ -<br>--------- ----- -----,224767.2000000002,224761.90000000037,224491.561,224498.5,224508.225,224774.866,,5,witness
screen,html.Screen,2_3_1_0_1_6,2022-02-21T12:20:48.758Z,,,,,,,,,,,,,,,,,15,,,,,,,,,,,,,,242.13399999999092,,response,,,,7,C,,,,,,Space,keypress(Space),,,,instrumental,,,,---- --------- ---------- - --- ------- by --- ------------<br>----- -- -------- ------- ---- ------ - -------- ---- -----<br>--- ------- ---- -- --- -------- --- - ----- ------ ---- --<br>-------- --- -------- -------- --- -------- ---- -- ----- -<br>-------- ---- --- ---------- --------- -- ------- ------ -<br>--------- ----- -----,225020.90000000037,225017,224758.202,224768,224774.866,225024.827,,6,by
screen,html.Screen,2_3_1_0_1_7,2022-02-21T12:20:49.003Z,,,,,,,,,,,,,,,,,15,,,,,,,,,,,,,,238.47299999982351,,response,,,,7,C,,,,,,Space,keypress(Space),,,,instrumental,,,,---- --------- ---------- - --- ------- -- the ------------<br>----- -- -------- ------- ---- ------ - -------- ---- -----<br>--- ------- ---- -- --- -------- --- - ----- ------ ---- --<br>-------- --- -------- -------- --- -------- ---- -- ----- -<br>-------- ---- --- ---------- --------- -- ------- ------ -<br>--------- ----- -----,225266,225263.2999999998,225008.163,225021.40000000037,225024.827,225274.802,,7,the
screen,html.Screen,2_3_1_0_1_8,2022-02-21T12:20:49.290Z,,,,,,,,,,,,,,,,,15,,,,,,,,,,,,,,272.8980000001902,,response,,,,7,C,,,,,,Space,keypress(Space),,,,instrumental,,,,"---- --------- ---------- - --- ------- -- --- prosecution,<br>----- -- -------- ------- ---- ------ - -------- ---- -----<br>--- ------- ---- -- --- -------- --- - ----- ------ ---- --<br>-------- --- -------- -------- --- -------- ---- -- ----- -<br>-------- ---- --- ---------- --------- -- ------- ------ -<br>--------- ----- -----",225553.2999999998,225547.7000000002,225258.138,225266.2000000002,225274.802,225558.106,,8,"prosecution,"
screen,html.Screen,2_3_1_0_1_9,2022-02-21T12:20:49.603Z,,,,,,,,,,,,,,,,,15,,,,,,,,,,,,,,301.69399999981397,,response,,,,7,C,,,,,,Space,keypress(Space),,,,instrumental,,,,---- --------- ---------- - --- ------- -- --- ------------<br>vowed -- -------- ------- ---- ------ - -------- ---- -----<br>--- ------- ---- -- --- -------- --- - ----- ------ ---- --<br>-------- --- -------- -------- --- -------- ---- -- ----- -<br>-------- ---- --- ---------- --------- -- ------- ------ -<br>--------- ----- -----,225866.2000000002,225859.7999999998,225541.442,225554.2000000002,225558.106,225874.743,,9,vowed
screen,html.Screen,2_3_1_0_1_10,2022-02-21T12:20:49.882Z,,,,,,,,,,,,,,,,,15,,,,,,,,,,,,,,264.8569999996398,,response,,,,7,C,,,,,,Space,keypress(Space),,,,instrumental,,,,---- --------- ---------- - --- ------- -- --- ------------<br>----- he -------- ------- ---- ------ - -------- ---- -----<br>--- ------- ---- -- --- -------- --- - ----- ------ ---- --<br>-------- --- -------- -------- --- -------- ---- -- ----- -<br>-------- ---- --- ---------- --------- -- ------- ------ -<br>--------- ----- -----,226144.7999999998,226139.59999999963,225858.079,225866.7999999998,225874.743,226158.037,,10,he
screen,html.Screen,2_3_1_0_1_11,2022-02-21T12:20:50.144Z,,,,,,,,,,,,,,,,,15,,,,,,,,,,,,,,241.1630000001751,,response,,,,7,C,,,,,,Space,keypress(Space),,,,instrumental,,,,---- --------- ---------- - --- ------- -- --- ------------<br>----- -- wouldn't ------- ---- ------ - -------- ---- -----<br>--- ------- ---- -- --- -------- --- - ----- ------ ---- --<br>-------- --- -------- -------- --- -------- ---- -- ----- -<br>-------- ---- --- ---------- --------- -- ------- ------ -<br>--------- ----- -----,226407.5,226399.2000000002,226141.373,226145.2999999998,226158.037,226424.693,,11,wouldn't
screen,html.Screen,2_3_1_0_1_12,2022-02-21T12:20:50.408Z,,,,,,,,,,,,,,,,,15,,,,,,,,,,,,,,240.40699999962817,,response,,,,7,C,,,,,,Space,keypress(Space),,,,instrumental,,,,---- --------- ---------- - --- ------- -- --- ------------<br>----- -- -------- testify ---- ------ - -------- ---- -----<br>--- ------- ---- -- --- -------- --- - ----- ------ ---- --<br>-------- --- -------- -------- --- -------- ---- -- ----- -<br>-------- ---- --- ---------- --------- -- ------- ------ -<br>--------- ----- -----,226671.2999999998,226665.09999999963,226408.029,226408.7000000002,226424.693,226691.325,,12,testify
screen,html.Screen,2_3_1_0_1_13,2022-02-21T12:20:50.673Z,,,,,,,,,,,,,,,,,15,,,,,,,,,,,,,,238.77499999961583,,response,,,,7,C,,,,,,Space,keypress(Space),,,,instrumental,,,,---- --------- ---------- - --- ------- -- --- ------------<br>----- -- -------- ------- when ------ - -------- ---- -----<br>--- ------- ---- -- --- -------- --- - ----- ------ ---- --<br>-------- --- -------- -------- --- -------- ---- -- ----- -<br>-------- ---- --- ---------- --------- -- ------- ------ -<br>--------- ----- -----,226936.40000000037,226930.09999999963,226674.661,226672.40000000037,226691.325,226941.308,,13,when
screen,html.Screen,2_3_1_0_1_14,2022-02-21T12:20:50.925Z,,,,,,,,,,,,,,,,,15,,,,,,,,,,,,,,240.99199999982375,,response,,,,7,C,,,,,,Space,keypress(Space),,,,instrumental,,,,---- --------- ---------- - --- ------- -- --- ------------<br>----- -- -------- ------- ---- served - -------- ---- -----<br>--- ------- ---- -- --- -------- --- - ----- ------ ---- --<br>-------- --- -------- -------- --- -------- ---- -- ----- -<br>-------- ---- --- ---------- --------- -- ------- ------ -<br>--------- ----- -----,227187.59999999963,227182.2999999998,226924.644,226937.5,226941.308,227191.275,,14,served
screen,html.Screen,2_3_1_0_1_15,2022-02-21T12:20:51.215Z,,,,,,,,,,,,,,,,,15,,,,,,,,,,,,,,280.8249999996333,,response,,,,7,C,,,,,,Space,keypress(Space),,,,instrumental,,,,---- --------- ---------- - --- ------- -- --- ------------<br>----- -- -------- ------- ---- ------ a -------- ---- -----<br>--- ------- ---- -- --- -------- --- - ----- ------ ---- --<br>-------- --- -------- -------- --- -------- ---- -- ----- -<br>-------- ---- --- ---------- --------- -- ------- ------ -<br>--------- ----- -----,227477.90000000037,227472.09999999963,227174.611,227188.2999999998,227191.275,227491.239,,15,a
screen,html.Screen,2_3_1_0_1_16,2022-02-21T12:20:51.498Z,,,,,,,,,,,,,,,,,15,,,,,,,,,,,,,,262.66100000037113,,response,,,,7,C,,,,,,Space,keypress(Space),,,,instrumental,,,,---- --------- ---------- - --- ------- -- --- ------------<br>----- -- -------- ------- ---- ------ - subpoena ---- -----<br>--- ------- ---- -- --- -------- --- - ----- ------ ---- --<br>-------- --- -------- -------- --- -------- ---- -- ----- -<br>-------- ---- --- ---------- --------- -- ------- ------ -<br>--------- ----- -----,227761.09999999963,227753.90000000037,227474.575,227478.5,227491.239,227774.55,,16,subpoena
screen,html.Screen,2_3_1_0_1_17,2022-02-21T12:20:51.774Z,,,,,,,,,,,,,,,,,15,,,,,,,,,,,,,,258.35000000038417,,response,,,,7,C,,,,,,Space,keypress(Space),,,,instrumental,,,,---- --------- ---------- - --- ------- -- --- ------------<br>----- -- -------- ------- ---- ------ - -------- last -----<br>--- ------- ---- -- --- -------- --- - ----- ------ ---- --<br>-------- --- -------- -------- --- -------- ---- -- ----- -<br>-------- ---- --- ---------- --------- -- ------- ------ -<br>--------- ----- -----,228037.5,228032.90000000037,227757.886,227762.2000000002,227774.55,228041.189,,17,last
screen,html.Screen,2_3_1_0_1_18,2022-02-21T12:20:52.175Z,,,,,,,,,,,,,,,,,15,,,,,,,,,,,,,,389.6109999998007,,response,,,,7,C,,,,,,Space,keypress(Space),,,,instrumental,,,,---- --------- ---------- - --- ------- -- --- ------------<br>----- -- -------- ------- ---- ------ - -------- ---- week.<br>--- ------- ---- -- --- -------- --- - ----- ------ ---- --<br>-------- --- -------- -------- --- -------- ---- -- ----- -<br>-------- ---- --- ---------- --------- -- ------- ------ -<br>--------- ----- -----,228437.7000000002,228430.7999999998,228024.525,228038.09999999963,228041.189,228441.134,,18,week.
screen,html.Screen,2_3_1_0_1_19,2022-02-21T12:20:52.672Z,,,,,,,,,,,,,,,,,15,,,,,,,,,,,,,,488.6659999998228,,response,,,,7,C,,,,,,Space,keypress(Space),,,,instrumental,,,,---- --------- ---------- - --- ------- -- --- ------------<br>----- -- -------- ------- ---- ------ - -------- ---- -----<br>His ------- ---- -- --- -------- --- - ----- ------ ---- --<br>-------- --- -------- -------- --- -------- ---- -- ----- -<br>-------- ---- --- ---------- --------- -- ------- ------ -<br>--------- ----- -----,228935.5,228929.7999999998,228424.47,228438,228441.134,228941.08,,19,His
screen,html.Screen,2_3_1_0_1_20,2022-02-21T12:20:52.910Z,,,,,,,,,,,,,,,,,15,,,,,,,,,,,,,,226.12000000019907,,response,,,,7,C,,,,,,Space,keypress(Space),,,,instrumental,,,,---- --------- ---------- - --- ------- -- --- ------------<br>----- -- -------- ------- ---- ------ - -------- ---- -----<br>--- lawyers ---- -- --- -------- --- - ----- ------ ---- --<br>-------- --- -------- -------- --- -------- ---- -- ----- -<br>-------- ---- --- ---------- --------- -- ------- ------ -<br>--------- ----- -----,229172.7999999998,229167.2000000002,228924.416,228936.59999999963,228941.08,229191.06,,20,lawyers
screen,html.Screen,2_3_1_0_1_21,2022-02-21T12:20:53.215Z,,,,,,,,,,,,,,,,,15,,,,,,,,,,,,,,281.23999999981606,,response,,,,7,C,,,,,,Space,keypress(Space),,,,instrumental,,,,---- --------- ---------- - --- ------- -- --- ------------<br>----- -- -------- ------- ---- ------ - -------- ---- -----<br>--- ------- said -- --- -------- --- - ----- ------ ---- --<br>-------- --- -------- -------- --- -------- ---- -- ----- -<br>-------- ---- --- ---------- --------- -- ------- ------ -<br>--------- ----- -----,229478.2999999998,229472.2999999998,229174.396,229173.40000000037,229191.06,229491.031,,21,said
screen,html.Screen,2_3_1_0_1_22,2022-02-21T12:20:53.433Z,,,,,,,,,,,,,,,,,15,,,,,,,,,,,,,,200.16900000019814,,response,,,,7,C,,,,,,Space,keypress(Space),,,,instrumental,,,,---- --------- ---------- - --- ------- -- --- ------------<br>----- -- -------- ------- ---- ------ - -------- ---- -----<br>--- ------- ---- he --- -------- --- - ----- ------ ---- --<br>-------- --- -------- -------- --- -------- ---- -- ----- -<br>-------- ---- --- ---------- --------- -- ------- ------ -<br>--------- ----- -----,229696.40000000037,229691.2000000002,229474.367,229479.5,229491.031,229707.676,,22,he
screen,html.Screen,2_3_1_0_1_23,2022-02-21T12:20:53.652Z,,,,,,,,,,,,,,,,,15,,,,,,,,,,,,,,202.92399999962072,,response,,,,7,C,,,,,,Space,keypress(Space),,,,instrumental,,,,---- --------- ---------- - --- ------- -- --- ------------<br>----- -- -------- ------- ---- ------ - -------- ---- -----<br>--- ------- ---- -- was -------- --- - ----- ------ ---- --<br>-------- --- -------- -------- --- -------- ---- -- ----- -<br>-------- ---- --- ---------- --------- -- ------- ------ -<br>--------- ----- -----,229915.2000000002,229910.59999999963,229691.012,229697,229707.676,229924.328,,23,was
screen,html.Screen,2_3_1_0_1_24,2022-02-21T12:20:53.887Z,,,,,,,,,,,,,,,,,15,,,,,,,,,,,,,,218.37200000017765,,response,,,,7,C,,,,,,Space,keypress(Space),,,,instrumental,,,,---- --------- ---------- - --- ------- -- --- ------------<br>----- -- -------- ------- ---- ------ - -------- ---- -----<br>--- ------- ---- -- --- prepared --- - ----- ------ ---- --<br>-------- --- -------- -------- --- -------- ---- -- ----- -<br>-------- ---- --- ---------- --------- -- ------- ------ -<br>--------- ----- -----,230149.7999999998,230142.7000000002,229907.664,229916.09999999963,229924.328,230157.639,,24,prepared
screen,html.Screen,2_3_1_0_1_25,2022-02-21T12:20:54.122Z,,,,,,,,,,,,,,,,,15,,,,,,,,,,,,,,221.76100000037695,,response,,,,7,C,,,,,,Space,keypress(Space),,,,instrumental,,,,---- --------- ---------- - --- ------- -- --- ------------<br>----- -- -------- ------- ---- ------ - -------- ---- -----<br>--- ------- ---- -- --- -------- for - ----- ------ ---- --<br>-------- --- -------- -------- --- -------- ---- -- ----- -<br>-------- ---- --- ---------- --------- -- ------- ------ -<br>--------- ----- -----,230385.2000000002,230379.40000000037,230140.975,230151,230157.639,230390.954,,25,for
screen,html.Screen,2_3_1_0_1_26,2022-02-21T12:20:54.362Z,,,,,,,,,,,,,,,,,15,,,,,,,,,,,,,,226.94600000037462,,response,,,,7,C,,,,,,Space,keypress(Space),,,,instrumental,,,,---- --------- ---------- - --- ------- -- --- ------------<br>----- -- -------- ------- ---- ------ - -------- ---- -----<br>--- ------- ---- -- --- -------- --- a ----- ------ ---- --<br>-------- --- -------- -------- --- -------- ---- -- ----- -<br>-------- ---- --- ---------- --------- -- ------- ------ -<br>--------- ----- -----,230625,230617.90000000037,230374.29,230386.2000000002,230390.954,230640.928,,26,a
screen,html.Screen,2_3_1_0_1_27,2022-02-21T12:20:54.575Z,,,,,,,,,,,,,,,,,15,,,,,,,,,,,,,,191.57199999998556,,response,,,,7,C,,,,,,Space,keypress(Space),,,,instrumental,,,,---- --------- ---------- - --- ------- -- --- ------------<br>----- -- -------- ------- ---- ------ - -------- ---- -----<br>--- ------- ---- -- --- -------- --- - third ------ ---- --<br>-------- --- -------- -------- --- -------- ---- -- ----- -<br>-------- ---- --- ---------- --------- -- ------- ------ -<br>--------- ----- -----,230838.2000000002,230832.5,230624.264,230625.2999999998,230640.928,230857.565,,27,third
screen,html.Screen,2_3_1_0_1_28,2022-02-21T12:20:54.788Z,,,,,,,,,,,,,,,,,15,,,,,,,,,,,,,,187.3350000003702,,response,,,,7,C,,,,,,Space,keypress(Space),,,,instrumental,,,,---- --------- ---------- - --- ------- -- --- ------------<br>----- -- -------- ------- ---- ------ - -------- ---- -----<br>--- ------- ---- -- --- -------- --- - ----- prison ---- --<br>-------- --- -------- -------- --- -------- ---- -- ----- -<br>-------- ---- --- ---------- --------- -- ------- ------ -<br>--------- ----- -----,231050.7000000002,231044.90000000037,230840.901,230840.2999999998,230857.565,231057.546,,28,prison
screen,html.Screen,2_3_1_0_1_29,2022-02-21T12:20:55.007Z,,,,,,,,,,,,,,,,,15,,,,,,,,,,,,,,207.9539999999979,,response,,,,7,C,,,,,,Space,keypress(Space),,,,instrumental,,,,---- --------- ---------- - --- ------- -- --- ------------<br>----- -- -------- ------- ---- ------ - -------- ---- -----<br>--- ------- ---- -- --- -------- --- - ----- ------ stay --<br>-------- --- -------- -------- --- -------- ---- -- ----- -<br>-------- ---- --- ---------- --------- -- ------- ------ -<br>--------- ----- -----,231270.09999999963,231265.5,231040.882,231051,231057.546,231290.857,,29,stay
screen,html.Screen,2_3_1_0_1_30,2022-02-21T12:20:55.287Z,,,,,,,,,,,,,,,,,15,,,,,,,,,,,,,,252.54300000038347,,response,,,,7,C,,,,,,Space,keypress(Space),,,,instrumental,,,,---- --------- ---------- - --- ------- -- --- ------------<br>----- -- -------- ------- ---- ------ - -------- ---- -----<br>--- ------- ---- -- --- -------- --- - ----- ------ ---- to<br>-------- --- -------- -------- --- -------- ---- -- ----- -<br>-------- ---- --- ---------- --------- -- ------- ------ -<br>--------- ----- -----,231549.90000000037,231543.40000000037,231274.193,231270.7000000002,231290.857,231557.493,,30,to
screen,html.Screen,2_3_1_0_1_31,2022-02-21T12:20:55.811Z,,,,,,,,,,,,,,,,,15,,,,,,,,,,,,,,512.3069999998261,,response,,,,7,C,,,,,,Space,keypress(Space),,,,instrumental,,,,---- --------- ---------- - --- ------- -- --- ------------<br>----- -- -------- ------- ---- ------ - -------- ---- -----<br>--- ------- ---- -- --- -------- --- - ----- ------ ---- --<br>maintain --- -------- -------- --- -------- ---- -- ----- -<br>-------- ---- --- ---------- --------- -- ------- ------ -<br>--------- ----- -----,232074,232069.7999999998,231540.829,231551.5,231557.493,232090.756,,31,maintain
screen,html.Screen,2_3_1_0_1_32,2022-02-21T12:20:56.022Z,,,,,,,,,,,,,,,,,15,,,,,,,,,,,,,,188.0439999998198,,response,,,,7,C,,,,,,Space,keypress(Space),,,,instrumental,,,,---- --------- ---------- - --- ------- -- --- ------------<br>----- -- -------- ------- ---- ------ - -------- ---- -----<br>--- ------- ---- -- --- -------- --- - ----- ------ ---- --<br>-------- his -------- -------- --- -------- ---- -- ----- -<br>-------- ---- --- ---------- --------- -- ------- ------ -<br>--------- ----- -----,232285.5,232278.7999999998,232074.092,232074.5,232090.756,232290.756,,32,his
screen,html.Screen,2_3_1_0_1_33,2022-02-21T12:20:56.238Z,,,,,,,,,,,,,,,,,15,,,,,,,,,,,,,,204.34399999963352,,response,,,,7,C,,,,,,Space,keypress(Space),,,,instrumental,,,,---- --------- ---------- - --- ------- -- --- ------------<br>----- -- -------- ------- ---- ------ - -------- ---- -----<br>--- ------- ---- -- --- -------- --- - ----- ------ ---- --<br>-------- --- silence. -------- --- -------- ---- -- ----- -<br>-------- ---- --- ---------- --------- -- ------- ------ -<br>--------- ----- -----,232500.90000000037,232495.09999999963,232274.092,232286.5,232290.756,232507.4,,33,silence.
screen,html.Screen,2_3_1_0_1_34,2022-02-21T12:20:56.437Z,,,,,,,,,,,,,,,,,15,,,,,,,,,,,,,,185.10000000000582,,response,,,,7,C,,,,,,Space,keypress(Space),,,,instrumental,,,,---- --------- ---------- - --- ------- -- --- ------------<br>----- -- -------- ------- ---- ------ - -------- ---- -----<br>--- ------- ---- -- --- -------- --- - ----- ------ ---- --<br>-------- --- -------- Anderson --- -------- ---- -- ----- -<br>-------- ---- --- ---------- --------- -- ------- ------ -<br>--------- ----- -----,232699.90000000037,232692.5,232490.736,232501.5,232507.4,232707.372,,34,Anderson
screen,html.Screen,2_3_1_0_1_35,2022-02-21T12:20:56.835Z,,,,,,,,,,,,,,,,,15,,,,,,,,,,,,,,384.32800000018324,,response,,,,7,C,,,,,,Space,keypress(Space),,,,instrumental,,,,---- --------- ---------- - --- ------- -- --- ------------<br>----- -- -------- ------- ---- ------ - -------- ---- -----<br>--- ------- ---- -- --- -------- --- - ----- ------ ---- --<br>-------- --- -------- -------- was -------- ---- -- ----- -<br>-------- ---- --- ---------- --------- -- ------- ------ -<br>--------- ----- -----,233098.40000000037,233091.7000000002,232690.708,232700.90000000037,232707.372,233107.311,,35,was
screen,html.Screen,2_3_1_0_1_36,2022-02-21T12:20:57.022Z,,,,,,,,,,,,,,,,,15,,,,,,,,,,,,,,171.98899999982677,,response,,,,7,C,,,,,,Space,keypress(Space),,,,instrumental,,,,---- --------- ---------- - --- ------- -- --- ------------<br>----- -- -------- ------- ---- ------ - -------- ---- -----<br>--- ------- ---- -- --- -------- --- - ----- ------ ---- --<br>-------- --- -------- -------- --- released ---- -- ----- -<br>-------- ---- --- ---------- --------- -- ------- ------ -<br>--------- ----- -----,233285,233279.2999999998,233090.647,233098.7999999998,233107.311,233290.657,,36,released
screen,html.Screen,2_3_1_0_1_37,2022-02-21T12:20:57.241Z,,,,,,,,,,,,,,,,,15,,,,,,,,,,,,,,207.54300000017975,,response,,,,7,C,,,,,,Space,keypress(Space),,,,instrumental,,,,---- --------- ---------- - --- ------- -- --- ------------<br>----- -- -------- ------- ---- ------ - -------- ---- -----<br>--- ------- ---- -- --- -------- --- - ----- ------ ---- --<br>-------- --- -------- -------- --- -------- July -- ----- -<br>-------- ---- --- ---------- --------- -- ------- ------ -<br>--------- ----- -----,233504.2000000002,233498.2000000002,233273.993,233285.7999999998,233290.657,233507.282,,37,July
screen,html.Screen,2_3_1_0_1_38,2022-02-21T12:20:57.511Z,,,,,,,,,,,,,,,,,15,,,,,,,,,,,,,,263.618000000366,,response,,,,7,C,,,,,,Space,keypress(Space),,,,instrumental,,,,---- --------- ---------- - --- ------- -- --- ------------<br>----- -- -------- ------- ---- ------ - -------- ---- -----<br>--- ------- ---- -- --- -------- --- - ----- ------ ---- --<br>-------- --- -------- -------- --- -------- ---- 20 ----- -<br>-------- ---- --- ---------- --------- -- ------- ------ -<br>--------- ----- -----,233773.59999999963,233770.90000000037,233490.618,233504.59999999963,233507.282,233790.6,,38,20
screen,html.Screen,2_3_1_0_1_39,2022-02-21T12:20:58.112Z,,,,,,,,,,,,,,,,,15,,,,,,,,,,,,,,577.4999999996217,,response,,,,7,C,,,,,,Space,keypress(Space),,,,instrumental,,,,---- --------- ---------- - --- ------- -- --- ------------<br>----- -- -------- ------- ---- ------ - -------- ---- -----<br>--- ------- ---- -- --- -------- --- - ----- ------ ---- --<br>-------- --- -------- -------- --- -------- ---- -- after -<br>-------- ---- --- ---------- --------- -- ------- ------ -<br>--------- ----- -----,234374.7000000002,234368.09999999963,233773.936,233774.09999999963,233790.6,234390.51,,39,after
screen,html.Screen,2_3_1_0_1_40,2022-02-21T12:20:58.491Z,,,,,,,,,,,,,,,,,15,,,,,,,,,,,,,,358.3900000003632,,response,,,,7,C,,,,,,Space,keypress(Space),,,,instrumental,,,,---- --------- ---------- - --- ------- -- --- ------------<br>----- -- -------- ------- ---- ------ - -------- ---- -----<br>--- ------- ---- -- --- -------- --- - ----- ------ ---- --<br>-------- --- -------- -------- --- -------- ---- -- ----- a<br>-------- ---- --- ---------- --------- -- ------- ------ -<br>--------- ----- -----,234754.5,234748.90000000037,234373.846,234375.7999999998,234390.51,234773.812,,40,a
