sender,sender_type,sender_id,timestamp,meta,,Blues,Classical,Country,Dance,Electronic,Folk,Gospel,Hip-Hop,Jazz,Latin,Musical/Film,New-age,Pop,Prolific_id,Provo_ID,R&B,Rap,Reggae,Religious,Rock,Soul,Swing,Traditional,age,artist_name,correct,correctResponse,distraction,duration,education,ended_on,familiarity,gender,headphone_check_performance,item,list,music_frequency,offensiveness,pleasantness,position_correct,preference,response,response_action,snippet_file,song_name,song_rating,sound,stimulus_1,stimulus_2,stimulus_3,text,time_commit,time_end,time_render,time_run,time_show,time_switch,url,word,word_ID
Prolific ID,html.Form,0,2022-02-03T13:04:59.582Z,"{""labjs_version"":""20.2.2"",""labjs_build"":{""flavor"":""production"",""commit"":""a25486e0c714a0ae2ce03ff94b7bb6896854dcfa""},""location"":""https://run.pavlovia.org/mvasilev/prolific2_music_f/"",""userAgent"":""Mozilla/5.0 (Windows NT 10.0; Win64; x64; rv:96.0) Gecko/20100101 Firefox/96.0"",""platform"":""Win32"",""language"":""en-GB"",""locale"":""en-GB"",""timeZone"":""Europe/London"",""timezoneOffset"":0,""screen_width"":1280,""screen_height"":720,""scroll_width"":1280,""scroll_height"":567,""window_innerWidth"":1280,""window_innerHeight"":567,""devicePixelRatio"":1.5}",,,,,,,,,,,,,,,5ea9452fe3583b01c06ff478,,,,,,,,,,,,,,,9811.54,,form submission,,,,,,,,,,,,,,,,,,,,,23702,23700,13882.46,13882,13888.46,23703.84,{},,
Introduction,html.Screen,1_0,2022-02-03T13:05:28.680Z,,,,,,,,,,,,,,,,,,,,,,,,,,,,,,,29078.16,,response,,,,,,,,,,,continue,click button,,,,,,,,,52801,52782,23671.46,23704,23703.84,52800.2,,,
Volume calibration,html.Screen,1_1,2022-02-03T13:05:53.381Z,,,,,,,,,,,,,,,,,,,,,,,,,,,,,,,24683.800000000003,,response,,,,,,,,,,,continue,click button,,,,,,,,,77502,77484,52798.82,52802,52800.2,77513.64,,,
Task instructions,html.Screen,1_2,2022-02-03T13:05:57.897Z,,,,,,,,,,,,,,,,,,,,,,,,,,,,,,,4486.360000000001,,response,,,,,,,,,,,continue,click button,,,,,,,,,82018,82000,77497.52,77506,77513.64,82029.7,,,
Sounds,html.Screen,1_3_0_0,2022-02-03T13:06:02.143Z,,,,,,,,,,,,,,,,,,,,,,,,,,,,,,,4249.460000000006,,timeout,,,,,,,,,3,,,,,,,,I,O,S,,86264,86262.48,82016.98,82018,82029.7,86279.16,,,
Judgement,html.Screen,1_3_0_1,2022-02-03T13:06:03.132Z,,,,,,,,,,,,,,,,,,,,,,,,,,,,true,3,,954.8399999999965,,response,,,,,,,,,3,,3,click #choice-3,,,,,I,O,S,,87252,87234,86262.48,86264,86279.16,87262.36,,,
Trial,flow.Sequence,1_3_0,2022-02-03T13:06:03.134Z,,,,,,,,,,,,,,,,,,,,,,,,,,,,,,,5204.300000000003,,completion,,,,,,,,,3,,,,,,,,I,O,S,,87254,87234,82016.98,82018,82029.7,87262.36,,,
Sounds,html.Screen,1_3_1_0,2022-02-03T13:06:07.376Z,,,,,,,,,,,,,,,,,,,,,,,,,,,,,,,4249.440000000002,,timeout,,,,,,,,,2,,,,,,,,O,S,I,,91497,91495.14,87250.38,87256,87262.36,91511.8,,,
Judgement,html.Screen,1_3_1_1,2022-02-03T13:06:08.205Z,,,,,,,,,,,,,,,,,,,,,,,,,,,,true,2,,800.1999999999971,,response,,,,,,,,,2,,2,click #choice-2,,,,,O,S,I,,92326,92312,91495.14,91497,91511.8,92328.36,,,
Trial,flow.Sequence,1_3_1,2022-02-03T13:06:08.206Z,,,,,,,,,,,,,,,,,,,,,,,,,,,,,,,5049.639999999999,,completion,,,,,,,,,2,,,,,,,,O,S,I,,92327,92312,87250.38,87255,87262.36,92328.36,,,
Sounds,html.Screen,1_3_2_0,2022-02-03T13:06:12.441Z,,,,,,,,,,,,,,,,,,,,,,,,,,,,,,,4249.440000000002,,timeout,,,,,,,,,1,,,,,,,,S,O,I,,96562,96561.14,92324.9,92327,92328.36,96577.8,,,
Judgement,html.Screen,1_3_2_1,2022-02-03T13:06:13.089Z,,,,,,,,,,,,,,,,,,,,,,,,,,,,true,1,,626.1999999999971,,response,,,,,,,,,1,,1,click #choice-1,,,,,S,O,I,,97209,97204,96561.14,96562,96577.8,97211.06,,,
Trial,flow.Sequence,1_3_2,2022-02-03T13:06:13.089Z,,,,,,,,,,,,,,,,,,,,,,,,,,,,,,,4875.639999999999,,completion,,,,,,,,,1,,,,,,,,S,O,I,,97209,97204,92324.9,92327,92328.36,97211.06,,,
Sounds,html.Screen,1_3_3_0,2022-02-03T13:06:17.325Z,,,,,,,,,,,,,,,,,,,,,,,,,,,,,,,4249.440000000002,,timeout,,,,,,,,,1,,,,,,,,S,I,O,,101445,101443.84,97208.52,97209,97211.06,101460.5,,,
Judgement,html.Screen,1_3_3_1,2022-02-03T13:06:18.914Z,,,,,,,,,,,,,,,,,,,,,,,,,,,,true,1,,1556.5,,response,,,,,,,,,1,,1,click #choice-1,,,,,S,I,O,,103035,103017,101443.84,101446,101460.5,103043.62,,,
Trial,flow.Sequence,1_3_3,2022-02-03T13:06:18.914Z,,,,,,,,,,,,,,,,,,,,,,,,,,,,,,,5805.940000000002,,completion,,,,,,,,,1,,,,,,,,S,I,O,,103035,103017,97208.52,97209,97211.06,103043.62,,,
Sounds,html.Screen,1_3_4_0,2022-02-03T13:06:23.158Z,,,,,,,,,,,,,,,,,,,,,,,,,,,,,,,4249.440000000002,,timeout,,,,,,,,,3,,,,,,,,O,I,S,,107278,107276.4,103032.5,103036,103043.62,107293.06,,,
Judgement,html.Screen,1_3_4_1,2022-02-03T13:06:23.741Z,,,,,,,,,,,,,,,,,,,,,,,,,,,,true,3,,550.9400000000023,,response,,,,,,,,,3,,3,click #choice-3,,,,,O,I,S,,107861,107844,107276.4,107278,107293.06,107859.66,,,
Trial,flow.Sequence,1_3_4,2022-02-03T13:06:23.742Z,,,,,,,,,,,,,,,,,,,,,,,,,,,,,,,4800.380000000005,,completion,,,,,,,,,3,,,,,,,,O,I,S,,107862,107844,103032.5,103036,103043.62,107859.66,,,
Sounds,html.Screen,1_3_5_0,2022-02-03T13:06:27.974Z,,,,,,,,,,,,,,,,,,,,,,,,,,,,,,,4249.440000000002,,timeout,,,,,,,,,2,,,,,,,,I,S,O,,112094,112092.44,107859.54,107863,107859.66,112109.1,,,
Judgement,html.Screen,1_3_5_1,2022-02-03T13:06:28.604Z,,,,,,,,,,,,,,,,,,,,,,,,,,,,true,2,,594.8999999999942,,response,,,,,,,,,2,,2,click #choice-2,,,,,I,S,O,,112724,112704,112092.44,112095,112109.1,112759.02,,,
Trial,flow.Sequence,1_3_5,2022-02-03T13:06:28.605Z,,,,,,,,,,,,,,,,,,,,,,,,,,,,,,,4844.3399999999965,,completion,,,,,,,,,2,,,,,,,,I,S,O,,112725,112704,107859.54,107863,107859.66,112759.02,,,
Task,flow.Loop,1_3,2022-02-03T13:06:28.606Z,,,,,,,,,,,,,,,,,,,,,,,,,,,,,,,30674.300000000003,,completion,,,1,,,,,,,,,,,,,,,,,,112726,112704,82016.98,82018,82029.7,112759.02,,,
Trap,html.Screen,1_4,2022-02-03T13:06:28.613Z,,,,,,,,,,,,,,,,,,,,,,,,,,,,,,,NaN,,skipped,,,,,,,,,,,,,,,,,,,,,112733,112704,,112732,,112759.02,,,
Thanks,html.Screen,1_5,2022-02-03T13:06:32.436Z,,,,,,,,,,,,,,,,,,,,,,,,,,,,,,,3772.979999999996,,response,,,,,,,,,,,continue,click button,,,,,,,,,116557,116532,112722.4,112733,112759.02,119441.48,,,
Headphone screening,flow.Sequence,1,2022-02-03T13:06:32.436Z,,,,,,,,,,,,,,,,,,,,,,,,,,,,,,,92828.16,,completion,,,,,,,,,,,,,,,,,,,,,116557,116532,23671.46,23704,23703.84,119441.48,,,
Instructions,html.Page,2_0,2022-02-03T13:06:36.754Z,,,,,,,,,,,,,,,,,,,,,,,,,,,,,,,1431.520000000004,,form submission,,,,,,,,,,,,,,,,,,,,,120874,120873,119424.82,119414,119441.48,120874.62,,,
Holding screen,html.Screen,2_1_0_0,2022-02-03T13:06:46.739Z,,,,,,,,,,,,,,,,,,,,,,,,,,,,,,,10015.36,,timeout,,,,,,,,,,,,,,,,,,,,,130859,130856.64,120869.04,120875,120874.62,130889.98,,,
screen,html.Screen,2_1_0_1_0,2022-02-03T13:06:48.145Z,,,,,,,,,,,,,,,,,53,,,,,,,,,,,,,,1361.020000000004,,response,,,,99,,,,,,,Space,keypress(Space),,,,,,,,When -- ----- -- ------ - ------- --- ----------<br>------------- ------ ------ ---- ---- ------- ----- -- ----<br>-------- ------- -- ---------- --- - --- ----- ----- ----<br>---- --- --- ----- --- ---- ---- ------- ----- ---- -------<br>--- --- -- ----- -- --- ---- -- --- ---- -- ------ ------<br>--- ----- -- ----,132266,132251,130856.64,130860,130889.98,132273.14,,0,When
screen,html.Screen,2_1_0_1_1,2022-02-03T13:06:48.746Z,,,,,,,,,,,,,,,,,53,,,,,,,,,,,,,,571.859999999986,,response,,,,99,,,,,,,Space,keypress(Space),,,,,,,,---- it ----- -- ------ - ------- --- ----------<br>------------- ------ ------ ---- ---- ------- ----- -- ----<br>-------- ------- -- ---------- --- - --- ----- ----- ----<br>---- --- --- ----- --- ---- ---- ------- ----- ---- -------<br>--- --- -- ----- -- --- ---- -- --- ---- -- ------ ------<br>--- ----- -- ----,132867,132845,132265.86,132266,132273.14,132873.06,,1,it
screen,html.Screen,2_1_0_1_2,2022-02-03T13:06:49.130Z,,,,,,,,,,,,,,,,,53,,,,,,,,,,,,,,361.9400000000023,,response,,,,99,,,,,,,Space,keypress(Space),,,,,,,,---- -- comes -- ------ - ------- --- ----------<br>------------- ------ ------ ---- ---- ------- ----- -- ----<br>-------- ------- -- ---------- --- - --- ----- ----- ----<br>---- --- --- ----- --- ---- ---- ------- ----- ---- -------<br>--- --- -- ----- -- --- ---- -- --- ---- -- ------ ------<br>--- ----- -- ----,133250,133235,132866.72,132867,132873.06,133256.34,,2,comes
screen,html.Screen,2_1_0_1_3,2022-02-03T13:06:49.504Z,,,,,,,,,,,,,,,,,53,,,,,,,,,,,,,,352.6600000000035,,response,,,,99,,,,,,,Space,keypress(Space),,,,,,,,---- -- ----- to ------ - ------- --- ----------<br>------------- ------ ------ ---- ---- ------- ----- -- ----<br>-------- ------- -- ---------- --- - --- ----- ----- ----<br>---- --- --- ----- --- ---- ---- ------- ----- ---- -------<br>--- --- -- ----- -- --- ---- -- --- ---- -- ------ ------<br>--- ----- -- ----,133624,133609,133250.78,133251,133256.34,133639.62,,3,to
screen,html.Screen,2_1_0_1_4,2022-02-03T13:06:49.893Z,,,,,,,,,,,,,,,,,53,,,,,,,,,,,,,,360.38000000000466,,response,,,,99,,,,,,,Space,keypress(Space),,,,,,,,---- -- ----- -- having - ------- --- ----------<br>------------- ------ ------ ---- ---- ------- ----- -- ----<br>-------- ------- -- ---------- --- - --- ----- ----- ----<br>---- --- --- ----- --- ---- ---- ------- ----- ---- -------<br>--- --- -- ----- -- --- ---- -- --- ---- -- ------ ------<br>--- ----- -- ----,134014,134000,133625.14,133625,133639.62,134022.9,,4,having
screen,html.Screen,2_1_0_1_5,2022-02-03T13:06:50.297Z,,,,,,,,,,,,,,,,,53,,,,,,,,,,,,,,383.1000000000058,,response,,,,99,,,,,,,Space,keypress(Space),,,,,,,,---- -- ----- -- ------ a ------- --- ----------<br>------------- ------ ------ ---- ---- ------- ----- -- ----<br>-------- ------- -- ---------- --- - --- ----- ----- ----<br>---- --- --- ----- --- ---- ---- ------- ----- ---- -------<br>--- --- -- ----- -- --- ---- -- --- ---- -- ------ ------<br>--- ----- -- ----,134417,134406,134014.08,134014,134022.9,134422.84,,5,a
screen,html.Screen,2_1_0_1_6,2022-02-03T13:06:50.642Z,,,,,,,,,,,,,,,,,53,,,,,,,,,,,,,,327.1600000000035,,response,,,,99,,,,,,,Space,keypress(Space),,,,,,,,---- -- ----- -- ------ - lasting --- ----------<br>------------- ------ ------ ---- ---- ------- ----- -- ----<br>-------- ------- -- ---------- --- - --- ----- ----- ----<br>---- --- --- ----- --- ---- ---- ------- ----- ---- -------<br>--- --- -- ----- -- --- ---- -- --- ---- -- ------ ------<br>--- ----- -- ----,134763,134750,134418,134418,134422.84,134772.8,,6,lasting
screen,html.Screen,2_1_0_1_7,2022-02-03T13:06:51.008Z,,,,,,,,,,,,,,,,,53,,,,,,,,,,,,,,337.20000000001164,,response,,,,99,,,,,,,Space,keypress(Space),,,,,,,,---- -- ----- -- ------ - ------- and ----------<br>------------- ------ ------ ---- ---- ------- ----- -- ----<br>-------- ------- -- ---------- --- - --- ----- ----- ----<br>---- --- --- ----- --- ---- ---- ------- ----- ---- -------<br>--- --- -- ----- -- --- ---- -- --- ---- -- ------ ------<br>--- ----- -- ----,135128,135110,134763.62,134763,134772.8,135139.42,,7,and
screen,html.Screen,2_1_0_1_8,2022-02-03T13:06:51.374Z,,,,,,,,,,,,,,,,,53,,,,,,,,,,,,,,344.5799999999872,,response,,,,99,,,,,,,Space,keypress(Space),,,,,,,,---- -- ----- -- ------ - ------- --- fulfilling<br>------------- ------ ------ ---- ---- ------- ----- -- ----<br>-------- ------- -- ---------- --- - --- ----- ----- ----<br>---- --- --- ----- --- ---- ---- ------- ----- ---- -------<br>--- --- -- ----- -- --- ---- -- --- ---- -- ------ ------<br>--- ----- -- ----,135494,135484,135128.52,135128,135139.42,135506.04,,8,fulfilling
screen,html.Screen,2_1_0_1_9,2022-02-03T13:06:51.700Z,,,,,,,,,,,,,,,,,53,,,,,,,,,,,,,,305.95999999999185,,response,,,,99,,,,,,,Space,keypress(Space),,,,,,,,"---- -- ----- -- ------ - ------- --- ----------<br>relationship, ------ ------ ---- ---- ------- ----- -- ----<br>-------- ------- -- ---------- --- - --- ----- ----- ----<br>---- --- --- ----- --- ---- ---- ------- ----- ---- -------<br>--- --- -- ----- -- --- ---- -- --- ---- -- ------ ------<br>--- ----- -- ----",135821,135812,135495.16,135495,135506.04,135822.66,,9,"relationship,"
screen,html.Screen,2_1_0_1_10,2022-02-03T13:06:52.028Z,,,,,,,,,,,,,,,,,53,,,,,,,,,,,,,,318.3399999999965,,response,,,,99,,,,,,,Space,keypress(Space),,,,,,,,---- -- ----- -- ------ - ------- --- ----------<br>------------- common ------ ---- ---- ------- ----- -- ----<br>-------- ------- -- ---------- --- - --- ----- ----- ----<br>---- --- --- ----- --- ---- ---- ------- ----- ---- -------<br>--- --- -- ----- -- --- ---- -- --- ---- -- ------ ------<br>--- ----- -- ----,136148,136141,135821.32,135822,135822.66,136155.96,,10,common
screen,html.Screen,2_1_0_1_11,2022-02-03T13:06:52.420Z,,,,,,,,,,,,,,,,,53,,,,,,,,,,,,,,376.04000000000815,,response,,,,99,,,,,,,Space,keypress(Space),,,,,,,,---- -- ----- -- ------ - ------- --- ----------<br>------------- ------ wisdom ---- ---- ------- ----- -- ----<br>-------- ------- -- ---------- --- - --- ----- ----- ----<br>---- --- --- ----- --- ---- ---- ------- ----- ---- -------<br>--- --- -- ----- -- --- ---- -- --- ---- -- ------ ------<br>--- ----- -- ----,136541,136532,136147.96,136148,136155.96,136555.9,,11,wisdom
screen,html.Screen,2_1_0_1_12,2022-02-03T13:06:52.792Z,,,,,,,,,,,,,,,,,53,,,,,,,,,,,,,,351.1000000000058,,response,,,,99,,,,,,,Space,keypress(Space),,,,,,,,---- -- ----- -- ------ - ------- --- ----------<br>------------- ------ ------ says ---- ------- ----- -- ----<br>-------- ------- -- ---------- --- - --- ----- ----- ----<br>---- --- --- ----- --- ---- ---- ------- ----- ---- -------<br>--- --- -- ----- -- --- ---- -- --- ---- -- ------ ------<br>--- ----- -- ----,136911,136907,136541.78,136542,136555.9,136922.52,,12,says
screen,html.Screen,2_1_0_1_13,2022-02-03T13:06:53.126Z,,,,,,,,,,,,,,,,,53,,,,,,,,,,,,,,311.4800000000105,,response,,,,99,,,,,,,Space,keypress(Space),,,,,,,,---- -- ----- -- ------ - ------- --- ----------<br>------------- ------ ------ ---- that ------- ----- -- ----<br>-------- ------- -- ---------- --- - --- ----- ----- ----<br>---- --- --- ----- --- ---- ---- ------- ----- ---- -------<br>--- --- -- ----- -- --- ---- -- --- ---- -- ------ ------<br>--- ----- -- ----,137246,137234,136912.2,136912,136922.52,137255.82,,13,that
screen,html.Screen,2_1_0_1_14,2022-02-03T13:06:53.462Z,,,,,,,,,,,,,,,,,53,,,,,,,,,,,,,,306.179999999993,,response,,,,99,,,,,,,Space,keypress(Space),,,,,,,,---- -- ----- -- ------ - ------- --- ----------<br>------------- ------ ------ ---- ---- feeling ----- -- ----<br>-------- ------- -- ---------- --- - --- ----- ----- ----<br>---- --- --- ----- --- ---- ---- ------- ----- ---- -------<br>--- --- -- ----- -- --- ---- -- --- ---- -- ------ ------<br>--- ----- -- ----,137583,137562,137246.32,137247,137255.82,137589.1,,14,feeling
screen,html.Screen,2_1_0_1_15,2022-02-03T13:06:53.790Z,,,,,,,,,,,,,,,,,53,,,,,,,,,,,,,,301.8999999999942,,response,,,,99,,,,,,,Space,keypress(Space),,,,,,,,---- -- ----- -- ------ - ------- --- ----------<br>------------- ------ ------ ---- ---- ------- close -- ----<br>-------- ------- -- ---------- --- - --- ----- ----- ----<br>---- --- --- ----- --- ---- ---- ------- ----- ---- -------<br>--- --- -- ----- -- --- ---- -- --- ---- -- ------ ------<br>--- ----- -- ----,137911,137891,137584.36,137584,137589.1,137922.4,,15,close
screen,html.Screen,2_1_0_1_16,2022-02-03T13:06:54.119Z,,,,,,,,,,,,,,,,,53,,,,,,,,,,,,,,311.6000000000058,,response,,,,99,,,,,,,Space,keypress(Space),,,,,,,,---- -- ----- -- ------ - ------- --- ----------<br>------------- ------ ------ ---- ---- ------- ----- to ----<br>-------- ------- -- ---------- --- - --- ----- ----- ----<br>---- --- --- ----- --- ---- ---- ------- ----- ---- -------<br>--- --- -- ----- -- --- ---- -- --- ---- -- ------ ------<br>--- ----- -- ----,138239,138234,137911.5,137911,137922.4,138255.68,,16,to
screen,html.Screen,2_1_0_1_17,2022-02-03T13:06:54.494Z,,,,,,,,,,,,,,,,,53,,,,,,,,,,,,,,353.320000000007,,response,,,,99,,,,,,,Space,keypress(Space),,,,,,,,---- -- ----- -- ------ - ------- --- ----------<br>------------- ------ ------ ---- ---- ------- ----- -- your<br>-------- ------- -- ---------- --- - --- ----- ----- ----<br>---- --- --- ----- --- ---- ---- ------- ----- ---- -------<br>--- --- -- ----- -- --- ---- -- --- ---- -- ------ ------<br>--- ----- -- ----,138614,138609,138239.86,138240,138255.68,138622.3,,17,your
screen,html.Screen,2_1_0_1_18,2022-02-03T13:06:54.810Z,,,,,,,,,,,,,,,,,53,,,,,,,,,,,,,,299.70000000001164,,response,,,,99,,,,,,,Space,keypress(Space),,,,,,,,---- -- ----- -- ------ - ------- --- ----------<br>------------- ------ ------ ---- ---- ------- ----- -- ----<br>romantic ------- -- ---------- --- - --- ----- ----- ----<br>---- --- --- ----- --- ---- ---- ------- ----- ---- -------<br>--- --- -- ----- -- --- ---- -- --- ---- -- ------ ------<br>--- ----- -- ----,138930,138922,138615.06,138615,138622.3,138938.92,,18,romantic
screen,html.Screen,2_1_0_1_19,2022-02-03T13:06:55.009Z,,,,,,,,,,,,,,,,,53,,,,,,,,,,,,,,186.0799999999872,,response,,,,99,,,,,,,Space,keypress(Space),,,,,,,,---- -- ----- -- ------ - ------- --- ----------<br>------------- ------ ------ ---- ---- ------- ----- -- ----<br>-------- partner -- ---------- --- - --- ----- ----- ----<br>---- --- --- ----- --- ---- ---- ------- ----- ---- -------<br>--- --- -- ----- -- --- ---- -- --- ---- -- ------ ------<br>--- ----- -- ----,139129,139125,138930.56,138931,138938.92,139138.9,,19,partner
screen,html.Screen,2_1_0_1_20,2022-02-03T13:06:55.224Z,,,,,,,,,,,,,,,,,53,,,,,,,,,,,,,,189.10000000000582,,response,,,,99,,,,,,,Space,keypress(Space),,,,,,,,---- -- ----- -- ------ - ------- --- ----------<br>------------- ------ ------ ---- ---- ------- ----- -- ----<br>-------- ------- is ---------- --- - --- ----- ----- ----<br>---- --- --- ----- --- ---- ---- ------- ----- ---- -------<br>--- --- -- ----- -- --- ---- -- --- ---- -- ------ ------<br>--- ----- -- ----,139344,139328,139129.46,139129,139138.9,139355.54,,20,is
screen,html.Screen,2_1_0_1_21,2022-02-03T13:06:55.618Z,,,,,,,,,,,,,,,,,53,,,,,,,,,,,,,,364.45999999999185,,response,,,,99,,,,,,,Space,keypress(Space),,,,,,,,---- -- ----- -- ------ - ------- --- ----------<br>------------- ------ ------ ---- ---- ------- ----- -- ----<br>-------- ------- -- paramount. --- - --- ----- ----- ----<br>---- --- --- ----- --- ---- ---- ------- ----- ---- -------<br>--- --- -- ----- -- --- ---- -- --- ---- -- ------ ------<br>--- ----- -- ----,139739,139720,139344.98,139345,139355.54,139755.48,,21,paramount.
screen,html.Screen,2_1_0_1_22,2022-02-03T13:06:57.954Z,,,,,,,,,,,,,,,,,53,,,,,,,,,,,,,,2307.5199999999895,,response,,,,99,,,,,,,Space,keypress(Space),,,,,,,,---- -- ----- -- ------ - ------- --- ----------<br>------------- ------ ------ ---- ---- ------- ----- -- ----<br>-------- ------- -- ---------- But - --- ----- ----- ----<br>---- --- --- ----- --- ---- ---- ------- ----- ---- -------<br>--- --- -- ----- -- --- ---- -- --- ---- -- ------ ------<br>--- ----- -- ----,142074,142063,139739.72,139740,139755.48,142088.52,,22,But
screen,html.Screen,2_1_0_1_23,2022-02-03T13:06:59.041Z,,,,,,,,,,,,,,,,,53,,,,,,,,,,,,,,1052.4800000000105,,response,,,,99,,,,,,,Space,keypress(Space),,,,,,,,---- -- ----- -- ------ - ------- --- ----------<br>------------- ------ ------ ---- ---- ------- ----- -- ----<br>-------- ------- -- ---------- --- a --- ----- ----- ----<br>---- --- --- ----- --- ---- ---- ------- ----- ---- -------<br>--- --- -- ----- -- --- ---- -- --- ---- -- ------ ------<br>--- ----- -- ----,143161,143141,142074.42,142074,142088.52,143171.7,,23,a
screen,html.Screen,2_1_0_1_24,2022-02-03T13:06:59.347Z,,,,,,,,,,,,,,,,,53,,,,,,,,,,,,,,281.29999999998836,,response,,,,99,,,,,,,Space,keypress(Space),,,,,,,,---- -- ----- -- ------ - ------- --- ----------<br>------------- ------ ------ ---- ---- ------- ----- -- ----<br>-------- ------- -- ---------- --- - new ----- ----- ----<br>---- --- --- ----- --- ---- ---- ------- ----- ---- -------<br>--- --- -- ----- -- --- ---- -- --- ---- -- ------ ------<br>--- ----- -- ----,143467,143453,143161.66,143161,143171.7,143471.66,,24,new
screen,html.Screen,2_1_0_1_25,2022-02-03T13:06:59.606Z,,,,,,,,,,,,,,,,,53,,,,,,,,,,,,,,232.3399999999965,,response,,,,99,,,,,,,Space,keypress(Space),,,,,,,,---- -- ----- -- ------ - ------- --- ----------<br>------------- ------ ------ ---- ---- ------- ----- -- ----<br>-------- ------- -- ---------- --- - --- study ----- ----<br>---- --- --- ----- --- ---- ---- ------- ----- ---- -------<br>--- --- -- ----- -- --- ---- -- --- ---- -- ------ ------<br>--- ----- -- ----,143726,143704,143467.62,143468,143471.66,143738.3,,25,study
screen,html.Screen,2_1_0_1_26,2022-02-03T13:06:59.860Z,,,,,,,,,,,,,,,,,53,,,,,,,,,,,,,,230.70000000001164,,response,,,,99,,,,,,,Space,keypress(Space),,,,,,,,---- -- ----- -- ------ - ------- --- ----------<br>------------- ------ ------ ---- ---- ------- ----- -- ----<br>-------- ------- -- ---------- --- - --- ----- finds ----<br>---- --- --- ----- --- ---- ---- ------- ----- ---- -------<br>--- --- -- ----- -- --- ---- -- --- ---- -- ------ ------<br>--- ----- -- ----,143981,143969,143726.88,143726,143738.3,143988.26,,26,finds
screen,html.Screen,2_1_0_1_27,2022-02-03T13:07:00.140Z,,,,,,,,,,,,,,,,,53,,,,,,,,,,,,,,261.7399999999907,,response,,,,99,,,,,,,Space,keypress(Space),,,,,,,,---- -- ----- -- ------ - ------- --- ----------<br>------------- ------ ------ ---- ---- ------- ----- -- ----<br>-------- ------- -- ---------- --- - --- ----- ----- that<br>---- --- --- ----- --- ---- ---- ------- ----- ---- -------<br>--- --- -- ----- -- --- ---- -- --- ---- -- ------ ------<br>--- ----- -- ----,144260,144250,143981.4,143981,143988.26,144271.56,,27,that
screen,html.Screen,2_1_0_1_28,2022-02-03T13:07:00.392Z,,,,,,,,,,,,,,,,,53,,,,,,,,,,,,,,228.44000000000233,,response,,,,99,,,,,,,Space,keypress(Space),,,,,,,,---- -- ----- -- ------ - ------- --- ----------<br>------------- ------ ------ ---- ---- ------- ----- -- ----<br>-------- ------- -- ---------- --- - --- ----- ----- ----<br>it's --- --- ----- --- ---- ---- ------- ----- ---- -------<br>--- --- -- ----- -- --- ---- -- --- ---- -- ------ ------<br>--- ----- -- ----,144513,144500,144260.54,144261,144271.56,144521.52,,28,it's
screen,html.Screen,2_1_0_1_29,2022-02-03T13:07:00.686Z,,,,,,,,,,,,,,,,,53,,,,,,,,,,,,,,275.4800000000105,,response,,,,99,,,,,,,Space,keypress(Space),,,,,,,,---- -- ----- -- ------ - ------- --- ----------<br>------------- ------ ------ ---- ---- ------- ----- -- ----<br>-------- ------- -- ---------- --- - --- ----- ----- ----<br>---- not --- ----- --- ---- ---- ------- ----- ---- -------<br>--- --- -- ----- -- --- ---- -- --- ---- -- ------ ------<br>--- ----- -- ----,144807,144797,144513.5,144514,144521.52,144821.48,,29,not
screen,html.Screen,2_1_0_1_30,2022-02-03T13:07:00.965Z,,,,,,,,,,,,,,,,,53,,,,,,,,,,,,,,241.51999999998952,,response,,,,99,,,,,,,Space,keypress(Space),,,,,,,,---- -- ----- -- ------ - ------- --- ----------<br>------------- ------ ------ ---- ---- ------- ----- -- ----<br>-------- ------- -- ---------- --- - --- ----- ----- ----<br>---- --- how ----- --- ---- ---- ------- ----- ---- -------<br>--- --- -- ----- -- --- ---- -- --- ---- -- ------ ------<br>--- ----- -- ----,145086,145063,144807.56,144807,144821.48,145088.12,,30,how
screen,html.Screen,2_1_0_1_31,2022-02-03T13:07:01.309Z,,,,,,,,,,,,,,,,,53,,,,,,,,,,,,,,333.88000000000466,,response,,,,99,,,,,,,Space,keypress(Space),,,,,,,,---- -- ----- -- ------ - ------- --- ----------<br>------------- ------ ------ ---- ---- ------- ----- -- ----<br>-------- ------- -- ---------- --- - --- ----- ----- ----<br>---- --- --- close --- ---- ---- ------- ----- ---- -------<br>--- --- -- ----- -- --- ---- -- --- ---- -- ------ ------<br>--- ----- -- ----,145429,145422,145086.32,145086,145088.12,145438.08,,31,close
screen,html.Screen,2_1_0_1_32,2022-02-03T13:07:01.599Z,,,,,,,,,,,,,,,,,53,,,,,,,,,,,,,,265.9200000000128,,response,,,,99,,,,,,,Space,keypress(Space),,,,,,,,---- -- ----- -- ------ - ------- --- ----------<br>------------- ------ ------ ---- ---- ------- ----- -- ----<br>-------- ------- -- ---------- --- - --- ----- ----- ----<br>---- --- --- ----- you ---- ---- ------- ----- ---- -------<br>--- --- -- ----- -- --- ---- -- --- ---- -- ------ ------<br>--- ----- -- ----,145720,145704,145429.7,145430,145438.08,145721.38,,32,you
screen,html.Screen,2_1_0_1_33,2022-02-03T13:07:01.896Z,,,,,,,,,,,,,,,,,53,,,,,,,,,,,,,,279.61999999999534,,response,,,,99,,,,,,,Space,keypress(Space),,,,,,,,---- -- ----- -- ------ - ------- --- ----------<br>------------- ------ ------ ---- ---- ------- ----- -- ----<br>-------- ------- -- ---------- --- - --- ----- ----- ----<br>---- --- --- ----- --- feel ---- ------- ----- ---- -------<br>--- --- -- ----- -- --- ---- -- --- ---- -- ------ ------<br>--- ----- -- ----,146017,146001,145720.02,145720,145721.38,146021.34,,33,feel
screen,html.Screen,2_1_0_1_34,2022-02-03T13:07:02.154Z,,,,,,,,,,,,,,,,,53,,,,,,,,,,,,,,244.6600000000035,,response,,,,99,,,,,,,Space,keypress(Space),,,,,,,,---- -- ----- -- ------ - ------- --- ----------<br>------------- ------ ------ ---- ---- ------- ----- -- ----<br>-------- ------- -- ---------- --- - --- ----- ----- ----<br>---- --- --- ----- --- ---- that ------- ----- ---- -------<br>--- --- -- ----- -- --- ---- -- --- ---- -- ------ ------<br>--- ----- -- ----,146274,146266,146017.56,146018,146021.34,146287.96,,34,that
screen,html.Screen,2_1_0_1_35,2022-02-03T13:07:02.405Z,,,,,,,,,,,,,,,,,53,,,,,,,,,,,,,,228.04000000000815,,response,,,,99,,,,,,,Space,keypress(Space),,,,,,,,---- -- ----- -- ------ - ------- --- ----------<br>------------- ------ ------ ---- ---- ------- ----- -- ----<br>-------- ------- -- ---------- --- - --- ----- ----- ----<br>---- --- --- ----- --- ---- ---- matters ----- ---- -------<br>--- --- -- ----- -- --- ---- -- --- ---- -- ------ ------<br>--- ----- -- ----,146525,146516,146273.68,146274,146287.96,146537.94,,35,matters
screen,html.Screen,2_1_0_1_36,2022-02-03T13:07:02.631Z,,,,,,,,,,,,,,,,,53,,,,,,,,,,,,,,197.05999999999767,,response,,,,99,,,,,,,Space,keypress(Space),,,,,,,,"---- -- ----- -- ------ - ------- --- ----------<br>------------- ------ ------ ---- ---- ------- ----- -- ----<br>-------- ------- -- ---------- --- - --- ----- ----- ----<br>---- --- --- ----- --- ---- ---- ------- most, ---- -------<br>--- --- -- ----- -- --- ---- -- --- ---- -- ------ ------<br>--- ----- -- ----",146751,146735,146525.36,146526,146537.94,146754.56,,36,"most,"
screen,html.Screen,2_1_0_1_37,2022-02-03T13:07:02.844Z,,,,,,,,,,,,,,,,,53,,,,,,,,,,,,,,198.44000000000233,,response,,,,99,,,,,,,Space,keypress(Space),,,,,,,,---- -- ----- -- ------ - ------- --- ----------<br>------------- ------ ------ ---- ---- ------- ----- -- ----<br>-------- ------- -- ---------- --- - --- ----- ----- ----<br>---- --- --- ----- --- ---- ---- ------- ----- it's -------<br>--- --- -- ----- -- --- ---- -- --- ---- -- ------ ------<br>--- ----- -- ----,146965,146953,146751.18,146751,146754.56,146971.2,,37,it's
screen,html.Screen,2_1_0_1_38,2022-02-03T13:07:03.317Z,,,,,,,,,,,,,,,,,53,,,,,,,,,,,,,,451.79999999998836,,response,,,,99,,,,,,,Space,keypress(Space),,,,,,,,---- -- ----- -- ------ - ------- --- ----------<br>------------- ------ ------ ---- ---- ------- ----- -- ----<br>-------- ------- -- ---------- --- - --- ----- ----- ----<br>---- --- --- ----- --- ---- ---- ------- ----- ---- whether<br>--- --- -- ----- -- --- ---- -- --- ---- -- ------ ------<br>--- ----- -- ----,147437,147423,146964.94,146965,146971.2,147437.82,,38,whether
screen,html.Screen,2_1_0_1_39,2022-02-03T13:07:03.602Z,,,,,,,,,,,,,,,,,53,,,,,,,,,,,,,,266.179999999993,,response,,,,99,,,,,,,Space,keypress(Space),,,,,,,,---- -- ----- -- ------ - ------- --- ----------<br>------------- ------ ------ ---- ---- ------- ----- -- ----<br>-------- ------- -- ---------- --- - --- ----- ----- ----<br>---- --- --- ----- --- ---- ---- ------- ----- ---- -------<br>you --- -- ----- -- --- ---- -- --- ---- -- ------ ------<br>--- ----- -- ----,147723,147704,147437.72,147437,147437.82,147737.78,,39,you
screen,html.Screen,2_1_0_1_40,2022-02-03T13:07:03.865Z,,,,,,,,,,,,,,,,,53,,,,,,,,,,,,,,232.22000000000116,,response,,,,99,,,,,,,Space,keypress(Space),,,,,,,,---- -- ----- -- ------ - ------- --- ----------<br>------------- ------ ------ ---- ---- ------- ----- -- ----<br>-------- ------- -- ---------- --- - --- ----- ----- ----<br>---- --- --- ----- --- ---- ---- ------- ----- ---- -------<br>--- are -- ----- -- --- ---- -- --- ---- -- ------ ------<br>--- ----- -- ----,147986,147970,147722.38,147723,147737.78,147987.74,,40,are
screen,html.Screen,2_1_0_1_41,2022-02-03T13:07:04.096Z,,,,,,,,,,,,,,,,,53,,,,,,,,,,,,,,215.2600000000093,,response,,,,99,,,,,,,Space,keypress(Space),,,,,,,,---- -- ----- -- ------ - ------- --- ----------<br>------------- ------ ------ ---- ---- ------- ----- -- ----<br>-------- ------- -- ---------- --- - --- ----- ----- ----<br>---- --- --- ----- --- ---- ---- ------- ----- ---- -------<br>--- --- as ----- -- --- ---- -- --- ---- -- ------ ------<br>--- ----- -- ----,148216,148203,147986.52,147987,147987.74,148221.04,,41,as
screen,html.Screen,2_1_0_1_42,2022-02-03T13:07:04.332Z,,,,,,,,,,,,,,,,,53,,,,,,,,,,,,,,216.95999999999185,,response,,,,99,,,,,,,Space,keypress(Space),,,,,,,,---- -- ----- -- ------ - ------- --- ----------<br>------------- ------ ------ ---- ---- ------- ----- -- ----<br>-------- ------- -- ---------- --- - --- ----- ----- ----<br>---- --- --- ----- --- ---- ---- ------- ----- ---- -------<br>--- --- -- close -- --- ---- -- --- ---- -- ------ ------<br>--- ----- -- ----,148452,148438,148216.58,148216,148221.04,148454.34,,42,close
screen,html.Screen,2_1_0_1_43,2022-02-03T13:07:04.560Z,,,,,,,,,,,,,,,,,53,,,,,,,,,,,,,,218.6600000000035,,response,,,,99,,,,,,,Space,keypress(Space),,,,,,,,---- -- ----- -- ------ - ------- --- ----------<br>------------- ------ ------ ---- ---- ------- ----- -- ----<br>-------- ------- -- ---------- --- - --- ----- ----- ----<br>---- --- --- ----- --- ---- ---- ------- ----- ---- -------<br>--- --- -- ----- as --- ---- -- --- ---- -- ------ ------<br>--- ----- -- ----,148680,148673,148452.9,148453,148454.34,148687.64,,43,as
screen,html.Screen,2_1_0_1_44,2022-02-03T13:07:04.932Z,,,,,,,,,,,,,,,,,53,,,,,,,,,,,,,,343.35999999998603,,response,,,,99,,,,,,,Space,keypress(Space),,,,,,,,---- -- ----- -- ------ - ------- --- ----------<br>------------- ------ ------ ---- ---- ------- ----- -- ----<br>-------- ------- -- ---------- --- - --- ----- ----- ----<br>---- --- --- ----- --- ---- ---- ------- ----- ---- -------<br>--- --- -- ----- -- you ---- -- --- ---- -- ------ ------<br>--- ----- -- ----,149053,149031,148680.62,148680,148687.64,149054.26,,44,you
screen,html.Screen,2_1_0_1_45,2022-02-03T13:07:05.235Z,,,,,,,,,,,,,,,,,53,,,,,,,,,,,,,,289.7399999999907,,response,,,,99,,,,,,,Space,keypress(Space),,,,,,,,---- -- ----- -- ------ - ------- --- ----------<br>------------- ------ ------ ---- ---- ------- ----- -- ----<br>-------- ------- -- ---------- --- - --- ----- ----- ----<br>---- --- --- ----- --- ---- ---- ------- ----- ---- -------<br>--- --- -- ----- -- --- want -- --- ---- -- ------ ------<br>--- ----- -- ----,149355,149344,149053.42,149053,149054.26,149370.9,,45,want
screen,html.Screen,2_1_0_1_46,2022-02-03T13:07:05.480Z,,,,,,,,,,,,,,,,,53,,,,,,,,,,,,,,207.10000000000582,,response,,,,99,,,,,,,Space,keypress(Space),,,,,,,,---- -- ----- -- ------ - ------- --- ----------<br>------------- ------ ------ ---- ---- ------- ----- -- ----<br>-------- ------- -- ---------- --- - --- ----- ----- ----<br>---- --- --- ----- --- ---- ---- ------- ----- ---- -------<br>--- --- -- ----- -- --- ---- to --- ---- -- ------ ------<br>--- ----- -- ----,149601,149578,149354.94,149355,149370.9,149604.2,,46,to
screen,html.Screen,2_1_0_1_47,2022-02-03T13:07:05.714Z,,,,,,,,,,,,,,,,,53,,,,,,,,,,,,,,207.79999999998836,,response,,,,99,,,,,,,Space,keypress(Space),,,,,,,,"---- -- ----- -- ------ - ------- --- ----------<br>------------- ------ ------ ---- ---- ------- ----- -- ----<br>-------- ------- -- ---------- --- - --- ----- ----- ----<br>---- --- --- ----- --- ---- ---- ------- ----- ---- -------<br>--- --- -- ----- -- --- ---- -- be, ---- -- ------ ------<br>--- ----- -- ----",149835,149812,149601.04,149601,149604.2,149837.5,,47,"be,"
screen,html.Screen,2_1_0_1_48,2022-02-03T13:07:05.945Z,,,,,,,,,,,,,,,,,53,,,,,,,,,,,,,,225.5,,response,,,,99,,,,,,,Space,keypress(Space),,,,,,,,---- -- ----- -- ------ - ------- --- ----------<br>------------- ------ ------ ---- ---- ------- ----- -- ----<br>-------- ------- -- ---------- --- - --- ----- ----- ----<br>---- --- --- ----- --- ---- ---- ------- ----- ---- -------<br>--- --- -- ----- -- --- ---- -- --- even -- ------ ------<br>--- ----- -- ----,150065,150063,149835.58,149836,149837.5,150070.8,,48,even
screen,html.Screen,2_1_0_1_49,2022-02-03T13:07:06.214Z,,,,,,,,,,,,,,,,,53,,,,,,,,,,,,,,257.20000000001164,,response,,,,99,,,,,,,Space,keypress(Space),,,,,,,,---- -- ----- -- ------ - ------- --- ----------<br>------------- ------ ------ ---- ---- ------- ----- -- ----<br>-------- ------- -- ---------- --- - --- ----- ----- ----<br>---- --- --- ----- --- ---- ---- ------- ----- ---- -------<br>--- --- -- ----- -- --- ---- -- --- ---- if ------ ------<br>--- ----- -- ----,150335,150328,150065.28,150066,150070.8,150337.44,,49,if
screen,html.Screen,2_1_0_1_50,2022-02-03T13:07:06.430Z,,,,,,,,,,,,,,,,,53,,,,,,,,,,,,,,193.55999999999767,,response,,,,99,,,,,,,Space,keypress(Space),,,,,,,,---- -- ----- -- ------ - ------- --- ----------<br>------------- ------ ------ ---- ---- ------- ----- -- ----<br>-------- ------- -- ---------- --- - --- ----- ----- ----<br>---- --- --- ----- --- ---- ---- ------- ----- ---- -------<br>--- --- -- ----- -- --- ---- -- --- ---- -- that's ------<br>--- ----- -- ----,150551,150531,150335.22,150335,150337.44,150554.08,,50,that's
screen,html.Screen,2_1_0_1_51,2022-02-03T13:07:06.890Z,,,,,,,,,,,,,,,,,53,,,,,,,,,,,,,,445.9200000000128,,response,,,,99,,,,,,,Space,keypress(Space),,,,,,,,---- -- ----- -- ------ - ------- --- ----------<br>------------- ------ ------ ---- ---- ------- ----- -- ----<br>-------- ------- -- ---------- --- - --- ----- ----- ----<br>---- --- --- ----- --- ---- ---- ------- ----- ---- -------<br>--- --- -- ----- -- --- ---- -- --- ---- -- ------ really<br>--- ----- -- ----,151010,151000,150550.88,150551,150554.08,151020.68,,51,really
screen,html.Screen,2_1_0_1_52,2022-02-03T13:07:07.156Z,,,,,,,,,,,,,,,,,53,,,,,,,,,,,,,,245.32000000000698,,response,,,,99,,,,,,,Space,keypress(Space),,,,,,,,---- -- ----- -- ------ - ------- --- ----------<br>------------- ------ ------ ---- ---- ------- ----- -- ----<br>-------- ------- -- ---------- --- - --- ----- ----- ----<br>---- --- --- ----- --- ---- ---- ------- ----- ---- -------<br>--- --- -- ----- -- --- ---- -- --- ---- -- ------ ------<br>not ----- -- ----,151277,151266,151010.18,151010,151020.68,151287.3,,52,not
screen,html.Screen,2_1_0_1_53,2022-02-03T13:07:07.358Z,,,,,,,,,,,,,,,,,53,,,,,,,,,,,,,,182.70000000001164,,response,,,,99,,,,,,,Space,keypress(Space),,,,,,,,---- -- ----- -- ------ - ------- --- ----------<br>------------- ------ ------ ---- ---- ------- ----- -- ----<br>-------- ------- -- ---------- --- - --- ----- ----- ----<br>---- --- --- ----- --- ---- ---- ------- ----- ---- -------<br>--- --- -- ----- -- --- ---- -- --- ---- -- ------ ------<br>--- close -- ----,151478,151470,151277.96,151278,151287.3,151487.28,,53,close
screen,html.Screen,2_1_0_1_54,2022-02-03T13:07:07.602Z,,,,,,,,,,,,,,,,,53,,,,,,,,,,,,,,216.72000000000116,,response,,,,99,,,,,,,Space,keypress(Space),,,,,,,,---- -- ----- -- ------ - ------- --- ----------<br>------------- ------ ------ ---- ---- ------- ----- -- ----<br>-------- ------- -- ---------- --- - --- ----- ----- ----<br>---- --- --- ----- --- ---- ---- ------- ----- ---- -------<br>--- --- -- ----- -- --- ---- -- --- ---- -- ------ ------<br>--- ----- at ----,151723,151704,151478.96,151478,151487.28,151737.26,,54,at
screen,html.Screen,2_1_0_1_55,2022-02-03T13:07:08.235Z,,,,,,,,,,,,,,,,,53,,,,,,,,,,,,,,607.7399999999907,,response,,,,99,,,,,,,Space,keypress(Space),,,,,,,,---- -- ----- -- ------ - ------- --- ----------<br>------------- ------ ------ ---- ---- ------- ----- -- ----<br>-------- ------- -- ---------- --- - --- ----- ----- ----<br>---- --- --- ----- --- ---- ---- ------- ----- ---- -------<br>--- --- -- ----- -- --- ---- -- --- ---- -- ------ ------<br>--- ----- -- all.,152355,152345,151723.36,151723,151737.26,152370.5,,55,all.
Item 99,flow.Loop,2_1_0_1,2022-02-03T13:07:08.235Z,,,,,,,,,,,,,,,,,,,,,,,,,,,,,,,21455.020000000004,,completion,,,,,F,,,,,,,,,,,silence,,,,,152355,152345,130856.64,130860,130889.98,152370.5,,,
Question 1,html.Screen,2_1_0_2,2022-02-03T13:07:15.479Z,,,,,,,,,,,,,,,,,,,,,,,,,,,,false,FALSE,,7207.5,,response,,,,99,F,,,,,,TRUE,click #choice-1,,,,silence,,,,,159600,159578,152355.62,152356,152370.5,159602.88,,,
Question 2,html.Screen,2_1_0_3,2022-02-03T13:07:20.832Z,,,,,,,,,,,,,,,,,,,,,,,,,,,,true,TRUE,,5334.119999999995,,response,,,,99,F,,,,,,TRUE,click #choice-1,,,,silence,,,,,164952,164937,159597.9,159600,159602.88,164952.18,,,
Item 99,flow.Sequence,2_1_0,2022-02-03T13:07:20.834Z,,,,,,,,,,,,,,,,,,,,,,,,,,,,,,,44062.380000000005,,completion,,,,,,,,,,,,,,,,,,,,,164953,164937,120869.04,120875,120874.62,164952.18,,,
Holding screen,html.Screen,2_1_1_0,2022-02-03T13:07:30.814Z,,,,,,,,,,,,,,,,,,,,,,,,,,,,,,,9998.700000000012,,timeout,,,,,,,,,,,,,,,,,,,,,174935,174934.22,164951.14,164954,164952.18,174950.88,,,
screen,html.Screen,2_1_1_1_0,2022-02-03T13:07:31.760Z,,,,,,,,,,,,,,,,,54,,,,,,,,,,,,,,924.1199999999953,,response,,,,100,,,,,,,Space,keypress(Space),,,,,,,,At --- ---- --- ------ ----- ------- ---- -- --- ------- --<br>------- ---------- ------ -- ----- -- ----- -- ---- ------<br>--- ----- --- --- ------ -------- ----- --- ------ ----- --<br>----- ----- ---------- --- --- ------ ------ ---- -- ------<br>------- --- ------ ----- --- ---- ------- -- ---- --- --<br>------- ------,175881,175875,174934.22,174935,174950.88,175884.1,,0,At
screen,html.Screen,2_1_1_1_1,2022-02-03T13:07:32.144Z,,,,,,,,,,,,,,,,,54,,,,,,,,,,,,,,365.8999999999942,,response,,,,100,,,,,,,Space,keypress(Space),,,,,,,,-- the ---- --- ------ ----- ------- ---- -- --- ------- --<br>------- ---------- ------ -- ----- -- ----- -- ---- ------<br>--- ----- --- --- ------ -------- ----- --- ------ ----- --<br>----- ----- ---------- --- --- ------ ------ ---- -- ------<br>------- --- ------ ----- --- ---- ------- -- ---- --- --<br>------- ------,176264,176250,175881.26,175881,175884.1,176267.38,,1,the
screen,html.Screen,2_1_1_1_2,2022-02-03T13:07:32.449Z,,,,,,,,,,,,,,,,,54,,,,,,,,,,,,,,294.61999999999534,,response,,,,100,,,,,,,Space,keypress(Space),,,,,,,,-- --- time --- ------ ----- ------- ---- -- --- ------- --<br>------- ---------- ------ -- ----- -- ----- -- ---- ------<br>--- ----- --- --- ------ -------- ----- --- ------ ----- --<br>----- ----- ---------- --- --- ------ ------ ---- -- ------<br>------- --- ------ ----- --- ---- ------- -- ---- --- --<br>------- ------,176570,176562,176264.22,176264,176267.38,176584,,2,time
screen,html.Screen,2_1_1_1_3,2022-02-03T13:07:32.758Z,,,,,,,,,,,,,,,,,54,,,,,,,,,,,,,,291,,response,,,,100,,,,,,,Space,keypress(Space),,,,,,,,-- --- ---- the ------ ----- ------- ---- -- --- ------- --<br>------- ---------- ------ -- ----- -- ----- -- ---- ------<br>--- ----- --- --- ------ -------- ----- --- ------ ----- --<br>----- ----- ---------- --- --- ------ ------ ---- -- ------<br>------- --- ------ ----- --- ---- ------- -- ---- --- --<br>------- ------,176878,176875,176569.68,176570,176584,176883.96,,3,the
screen,html.Screen,2_1_1_1_4,2022-02-03T13:07:33.058Z,,,,,,,,,,,,,,,,,54,,,,,,,,,,,,,,288.04000000000815,,response,,,,100,,,,,,,Space,keypress(Space),,,,,,,,-- --- ---- --- French ----- ------- ---- -- --- ------- --<br>------- ---------- ------ -- ----- -- ----- -- ---- ------<br>--- ----- --- --- ------ -------- ----- --- ------ ----- --<br>----- ----- ---------- --- --- ------ ------ ---- -- ------<br>------- --- ------ ----- --- ---- ------- -- ---- --- --<br>------- ------,177178,177172,176878.6,176878,176883.96,177183.92,,4,French
screen,html.Screen,2_1_1_1_5,2022-02-03T13:07:33.400Z,,,,,,,,,,,,,,,,,54,,,,,,,,,,,,,,332.0799999999872,,response,,,,100,,,,,,,Space,keypress(Space),,,,,,,,-- --- ---- --- ------ crown ------- ---- -- --- ------- --<br>------- ---------- ------ -- ----- -- ----- -- ---- ------<br>--- ----- --- --- ------ -------- ----- --- ------ ----- --<br>----- ----- ---------- --- --- ------ ------ ---- -- ------<br>------- --- ------ ----- --- ---- ------- -- ---- --- --<br>------- ------,177521,177516,177178.6,177178,177183.92,177533.88,,5,crown
screen,html.Screen,2_1_1_1_6,2022-02-03T13:07:34.444Z,,,,,,,,,,,,,,,,,54,,,,,,,,,,,,,,1013.1199999999953,,response,,,,100,,,,,,,Space,keypress(Space),,,,,,,,-- --- ---- --- ------ ----- secured ---- -- --- ------- --<br>------- ---------- ------ -- ----- -- ----- -- ---- ------<br>--- ----- --- --- ------ -------- ----- --- ------ ----- --<br>----- ----- ---------- --- --- ------ ------ ---- -- ------<br>------- --- ------ ----- --- ---- ------- -- ---- --- --<br>------- ------,178565,178547,177521.22,177521,177533.88,178567.08,,6,secured
screen,html.Screen,2_1_1_1_7,2022-02-03T13:07:34.833Z,,,,,,,,,,,,,,,,,54,,,,,,,,,,,,,,369.9200000000128,,response,,,,100,,,,,,,Space,keypress(Space),,,,,,,,-- --- ---- --- ------ ----- ------- much -- --- ------- --<br>------- ---------- ------ -- ----- -- ----- -- ---- ------<br>--- ----- --- --- ------ -------- ----- --- ------ ----- --<br>----- ----- ---------- --- --- ------ ------ ---- -- ------<br>------- --- ------ ----- --- ---- ------- -- ---- --- --<br>------- ------,178954,178937,178565.26,178566,178567.08,178967.02,,7,much
screen,html.Screen,2_1_1_1_8,2022-02-03T13:07:35.201Z,,,,,,,,,,,,,,,,,54,,,,,,,,,,,,,,344.9800000000105,,response,,,,100,,,,,,,Space,keypress(Space),,,,,,,,-- --- ---- --- ------ ----- ------- ---- of --- ------- --<br>------- ---------- ------ -- ----- -- ----- -- ---- ------<br>--- ----- --- --- ------ -------- ----- --- ------ ----- --<br>----- ----- ---------- --- --- ------ ------ ---- -- ------<br>------- --- ------ ----- --- ---- ------- -- ---- --- --<br>------- ------,179322,179312,178953.9,178954,178967.02,179333.64,,8,of
screen,html.Screen,2_1_1_1_9,2022-02-03T13:07:35.526Z,,,,,,,,,,,,,,,,,54,,,,,,,,,,,,,,308.35999999998603,,response,,,,100,,,,,,,Space,keypress(Space),,,,,,,,-- --- ---- --- ------ ----- ------- ---- -- its ------- --<br>------- ---------- ------ -- ----- -- ----- -- ---- ------<br>--- ----- --- --- ------ -------- ----- --- ------ ----- --<br>----- ----- ---------- --- --- ------ ------ ---- -- ------<br>------- --- ------ ----- --- ---- ------- -- ---- --- --<br>------- ------,179646,179642,179321.46,179322,179333.64,179650.26,,9,its
screen,html.Screen,2_1_1_1_10,2022-02-03T13:07:35.850Z,,,,,,,,,,,,,,,,,54,,,,,,,,,,,,,,302.7399999999907,,response,,,,100,,,,,,,Space,keypress(Space),,,,,,,,-- --- ---- --- ------ ----- ------- ---- -- --- revenue --<br>------- ---------- ------ -- ----- -- ----- -- ---- ------<br>--- ----- --- --- ------ -------- ----- --- ------ ----- --<br>----- ----- ---------- --- --- ------ ------ ---- -- ------<br>------- --- ------ ----- --- ---- ------- -- ---- --- --<br>------- ------,179970,179953,179646.12,179646,179650.26,179983.56,,10,revenue
screen,html.Screen,2_1_1_1_11,2022-02-03T13:07:36.194Z,,,,,,,,,,,,,,,,,54,,,,,,,,,,,,,,328.4400000000023,,response,,,,100,,,,,,,Space,keypress(Space),,,,,,,,-- --- ---- --- ------ ----- ------- ---- -- --- ------- by<br>------- ---------- ------ -- ----- -- ----- -- ---- ------<br>--- ----- --- --- ------ -------- ----- --- ------ ----- --<br>----- ----- ---------- --- --- ------ ------ ---- -- ------<br>------- --- ------ ----- --- ---- ------- -- ---- --- --<br>------- ------,180314,180312,179970.24,179970,179983.56,180316.84,,11,by
screen,html.Screen,2_1_1_1_12,2022-02-03T13:07:36.530Z,,,,,,,,,,,,,,,,,54,,,,,,,,,,,,,,324.1600000000035,,response,,,,100,,,,,,,Space,keypress(Space),,,,,,,,-- --- ---- --- ------ ----- ------- ---- -- --- ------- --<br>issuing ---------- ------ -- ----- -- ----- -- ---- ------<br>--- ----- --- --- ------ -------- ----- --- ------ ----- --<br>----- ----- ---------- --- --- ------ ------ ---- -- ------<br>------- --- ------ ----- --- ---- ------- -- ---- --- --<br>------- ------,180650,180641,180314.22,180314,180316.84,180666.8,,12,issuing
screen,html.Screen,2_1_1_1_13,2022-02-03T13:07:36.917Z,,,,,,,,,,,,,,,,,54,,,,,,,,,,,,,,364.20000000001164,,response,,,,100,,,,,,,Space,keypress(Space),,,,,,,,-- --- ---- --- ------ ----- ------- ---- -- --- ------- --<br>------- government ------ -- ----- -- ----- -- ---- ------<br>--- ----- --- --- ------ -------- ----- --- ------ ----- --<br>----- ----- ---------- --- --- ------ ------ ---- -- ------<br>------- --- ------ ----- --- ---- ------- -- ---- --- --<br>------- ------,181038,181031,180650.78,180650,180666.8,181050.08,,13,government
screen,html.Screen,2_1_1_1_14,2022-02-03T13:07:37.325Z,,,,,,,,,,,,,,,,,54,,,,,,,,,,,,,,386.9200000000128,,response,,,,100,,,,,,,Space,keypress(Space),,,,,,,,-- --- ---- --- ------ ----- ------- ---- -- --- ------- --<br>------- ---------- bonds. -- ----- -- ----- -- ---- ------<br>--- ----- --- --- ------ -------- ----- --- ------ ----- --<br>----- ----- ---------- --- --- ------ ------ ---- -- ------<br>------- --- ------ ----- --- ---- ------- -- ---- --- --<br>------- ------,181445,181437,181037.82,181038,181050.08,181450.02,,14,bonds.
screen,html.Screen,2_1_1_1_15,2022-02-03T13:07:37.730Z,,,,,,,,,,,,,,,,,54,,,,,,,,,,,,,,377.9800000000105,,response,,,,100,,,,,,,Space,keypress(Space),,,,,,,,-- --- ---- --- ------ ----- ------- ---- -- --- ------- --<br>------- ---------- ------ In ----- -- ----- -- ---- ------<br>--- ----- --- --- ------ -------- ----- --- ------ ----- --<br>----- ----- ---------- --- --- ------ ------ ---- -- ------<br>------- --- ------ ----- --- ---- ------- -- ---- --- --<br>------- ------,181851,181828,181444.94,181445,181450.02,181866.64,,15,In
screen,html.Screen,2_1_1_1_16,2022-02-03T13:07:38.039Z,,,,,,,,,,,,,,,,,54,,,,,,,,,,,,,,274.35999999998603,,response,,,,100,,,,,,,Space,keypress(Space),,,,,,,,"-- --- ---- --- ------ ----- ------- ---- -- --- ------- --<br>------- ---------- ------ -- 1727, -- ----- -- ---- ------<br>--- ----- --- --- ------ -------- ----- --- ------ ----- --<br>----- ----- ---------- --- --- ------ ------ ---- -- ------<br>------- --- ------ ----- --- ---- ------- -- ---- --- --<br>------- ------",182160,182141,181850.64,181851,181866.64,182166.6,,16,"1727,"
screen,html.Screen,2_1_1_1_17,2022-02-03T13:07:38.998Z,,,,,,,,,,,,,,,,,54,,,,,,,,,,,,,,942.3999999999942,,response,,,,100,,,,,,,Space,keypress(Space),,,,,,,,-- --- ---- --- ------ ----- ------- ---- -- --- ------- --<br>------- ---------- ------ -- ----- in ----- -- ---- ------<br>--- ----- --- --- ------ -------- ----- --- ------ ----- --<br>----- ----- ---------- --- --- ------ ------ ---- -- ------<br>------- --- ------ ----- --- ---- ------- -- ---- --- --<br>------- ------,183118,183109,182159.96,182160,182166.6,183133.14,,17,in
screen,html.Screen,2_1_1_1_18,2022-02-03T13:07:39.280Z,,,,,,,,,,,,,,,,,54,,,,,,,,,,,,,,257.85999999998603,,response,,,,100,,,,,,,Space,keypress(Space),,,,,,,,-- --- ---- --- ------ ----- ------- ---- -- --- ------- --<br>------- ---------- ------ -- ----- -- order -- ---- ------<br>--- ----- --- --- ------ -------- ----- --- ------ ----- --<br>----- ----- ---------- --- --- ------ ------ ---- -- ------<br>------- --- ------ ----- --- ---- ------- -- ---- --- --<br>------- ------,183401,183391,183118.26,183118,183133.14,183416.44,,18,order
screen,html.Screen,2_1_1_1_19,2022-02-03T13:07:39.551Z,,,,,,,,,,,,,,,,,54,,,,,,,,,,,,,,239.55999999999767,,response,,,,100,,,,,,,Space,keypress(Space),,,,,,,,-- --- ---- --- ------ ----- ------- ---- -- --- ------- --<br>------- ---------- ------ -- ----- -- ----- to ---- ------<br>--- ----- --- --- ------ -------- ----- --- ------ ----- --<br>----- ----- ---------- --- --- ------ ------ ---- -- ------<br>------- --- ------ ----- --- ---- ------- -- ---- --- --<br>------- ------,183672,183656,183400.98,183401,183416.44,183683.08,,19,to
screen,html.Screen,2_1_1_1_20,2022-02-03T13:07:39.824Z,,,,,,,,,,,,,,,,,54,,,,,,,,,,,,,,238.9200000000128,,response,,,,100,,,,,,,Space,keypress(Space),,,,,,,,-- --- ---- --- ------ ----- ------- ---- -- --- ------- --<br>------- ---------- ------ -- ----- -- ----- -- save ------<br>--- ----- --- --- ------ -------- ----- --- ------ ----- --<br>----- ----- ---------- --- --- ------ ------ ---- -- ------<br>------- --- ------ ----- --- ---- ------- -- ---- --- --<br>------- ------,183943,183922,183671.76,183672,183683.08,183949.7,,20,save
screen,html.Screen,2_1_1_1_21,2022-02-03T13:07:40.024Z,,,,,,,,,,,,,,,,,54,,,,,,,,,,,,,,176.29999999998836,,response,,,,100,,,,,,,Space,keypress(Space),,,,,,,,"-- --- ---- --- ------ ----- ------- ---- -- --- ------- --<br>------- ---------- ------ -- ----- -- ----- -- ---- money,<br>--- ----- --- --- ------ -------- ----- --- ------ ----- --<br>----- ----- ---------- --- --- ------ ------ ---- -- ------<br>------- --- ------ ----- --- ---- ------- -- ---- --- --<br>------- ------",184145,184126,183944.16,183944,183949.7,184149.68,,21,"money,"
screen,html.Screen,2_1_1_1_22,2022-02-03T13:07:40.222Z,,,,,,,,,,,,,,,,,54,,,,,,,,,,,,,,178.32000000000698,,response,,,,100,,,,,,,Space,keypress(Space),,,,,,,,-- --- ---- --- ------ ----- ------- ---- -- --- ------- --<br>------- ---------- ------ -- ----- -- ----- -- ---- ------<br>the ----- --- --- ------ -------- ----- --- ------ ----- --<br>----- ----- ---------- --- --- ------ ------ ---- -- ------<br>------- --- ------ ----- --- ---- ------- -- ---- --- --<br>------- ------,184343,184328,184145.26,184146,184149.68,184349.64,,22,the
screen,html.Screen,2_1_1_1_23,2022-02-03T13:07:40.672Z,,,,,,,,,,,,,,,,,54,,,,,,,,,,,,,,431.35999999998603,,response,,,,100,,,,,,,Space,keypress(Space),,,,,,,,-- --- ---- --- ------ ----- ------- ---- -- --- ------- --<br>------- ---------- ------ -- ----- -- ----- -- ---- ------<br>--- state --- --- ------ -------- ----- --- ------ ----- --<br>----- ----- ---------- --- --- ------ ------ ---- -- ------<br>------- --- ------ ----- --- ---- ------- -- ---- --- --<br>------- ------,184792,184781,184342.94,184343,184349.64,184799.6,,23,state
screen,html.Screen,2_1_1_1_24,2022-02-03T13:07:40.918Z,,,,,,,,,,,,,,,,,54,,,,,,,,,,,,,,231.39999999999418,,response,,,,100,,,,,,,Space,keypress(Space),,,,,,,,-- --- ---- --- ------ ----- ------- ---- -- --- ------- --<br>------- ---------- ------ -- ----- -- ----- -- ---- ------<br>--- ----- cut --- ------ -------- ----- --- ------ ----- --<br>----- ----- ---------- --- --- ------ ------ ---- -- ------<br>------- --- ------ ----- --- ---- ------- -- ---- --- --<br>------- ------,185038,185031,184792.46,184792,184799.6,185049.56,,24,cut
screen,html.Screen,2_1_1_1_25,2022-02-03T13:07:41.143Z,,,,,,,,,,,,,,,,,54,,,,,,,,,,,,,,200.44000000000233,,response,,,,100,,,,,,,Space,keypress(Space),,,,,,,,-- --- ---- --- ------ ----- ------- ---- -- --- ------- --<br>------- ---------- ------ -- ----- -- ----- -- ---- ------<br>--- ----- --- the ------ -------- ----- --- ------ ----- --<br>----- ----- ---------- --- --- ------ ------ ---- -- ------<br>------- --- ------ ----- --- ---- ------- -- ---- --- --<br>------- ------,185263,185250,185039.08,185039,185049.56,185266.2,,25,the
screen,html.Screen,2_1_1_1_26,2022-02-03T13:07:41.344Z,,,,,,,,,,,,,,,,,54,,,,,,,,,,,,,,186.79999999998836,,response,,,,100,,,,,,,Space,keypress(Space),,,,,,,,-- --- ---- --- ------ ----- ------- ---- -- --- ------- --<br>------- ---------- ------ -- ----- -- ----- -- ---- ------<br>--- ----- --- --- bonds' -------- ----- --- ------ ----- --<br>----- ----- ---------- --- --- ------ ------ ---- -- ------<br>------- --- ------ ----- --- ---- ------- -- ---- --- --<br>------- ------,185465,185453,185262.66,185263,185266.2,185466.18,,26,bonds'
screen,html.Screen,2_1_1_1_27,2022-02-03T13:07:41.555Z,,,,,,,,,,,,,,,,,54,,,,,,,,,,,,,,189.82000000000698,,response,,,,100,,,,,,,Space,keypress(Space),,,,,,,,-- --- ---- --- ------ ----- ------- ---- -- --- ------- --<br>------- ---------- ------ -- ----- -- ----- -- ---- ------<br>--- ----- --- --- ------ interest ----- --- ------ ----- --<br>----- ----- ---------- --- --- ------ ------ ---- -- ------<br>------- --- ------ ----- --- ---- ------- -- ---- --- --<br>------- ------,185676,185656,185465.02,185465,185466.18,185682.8,,27,interest
screen,html.Screen,2_1_1_1_28,2022-02-03T13:07:41.769Z,,,,,,,,,,,,,,,,,54,,,,,,,,,,,,,,193.20000000001164,,response,,,,100,,,,,,,Space,keypress(Space),,,,,,,,-- --- ---- --- ------ ----- ------- ---- -- --- ------- --<br>------- ---------- ------ -- ----- -- ----- -- ---- ------<br>--- ----- --- --- ------ -------- rate. --- ------ ----- --<br>----- ----- ---------- --- --- ------ ------ ---- -- ------<br>------- --- ------ ----- --- ---- ------- -- ---- --- --<br>------- ------,185889,185876,185675.62,185676,185682.8,185899.44,,28,rate.
screen,html.Screen,2_1_1_1_29,2022-02-03T13:07:42.106Z,,,,,,,,,,,,,,,,,54,,,,,,,,,,,,,,319.5599999999977,,response,,,,100,,,,,,,Space,keypress(Space),,,,,,,,-- --- ---- --- ------ ----- ------- ---- -- --- ------- --<br>------- ---------- ------ -- ----- -- ----- -- ---- ------<br>--- ----- --- --- ------ -------- ----- The ------ ----- --<br>----- ----- ---------- --- --- ------ ------ ---- -- ------<br>------- --- ------ ----- --- ---- ------- -- ---- --- --<br>------- ------,186226,186219,185888.9,185889,185899.44,186232.74,,29,The
screen,html.Screen,2_1_1_1_30,2022-02-03T13:07:42.419Z,,,,,,,,,,,,,,,,,54,,,,,,,,,,,,,,298.2600000000093,,response,,,,100,,,,,,,Space,keypress(Space),,,,,,,,-- --- ---- --- ------ ----- ------- ---- -- --- ------- --<br>------- ---------- ------ -- ----- -- ----- -- ---- ------<br>--- ----- --- --- ------ -------- ----- --- market ----- --<br>----- ----- ---------- --- --- ------ ------ ---- -- ------<br>------- --- ------ ----- --- ---- ------- -- ---- --- --<br>------- ------,186540,186531,186226.88,186227,186232.74,186549.36,,30,market
screen,html.Screen,2_1_1_1_31,2022-02-03T13:07:42.894Z,,,,,,,,,,,,,,,,,54,,,,,,,,,,,,,,450.64000000001397,,response,,,,100,,,,,,,Space,keypress(Space),,,,,,,,-- --- ---- --- ------ ----- ------- ---- -- --- ------- --<br>------- ---------- ------ -- ----- -- ----- -- ---- ------<br>--- ----- --- --- ------ -------- ----- --- ------ value --<br>----- ----- ---------- --- --- ------ ------ ---- -- ------<br>------- --- ------ ----- --- ---- ------- -- ---- --- --<br>------- ------,187014,187000,186540.64,186540,186549.36,187015.96,,31,value
screen,html.Screen,2_1_1_1_32,2022-02-03T13:07:43.156Z,,,,,,,,,,,,,,,,,54,,,,,,,,,,,,,,250.04000000000815,,response,,,,100,,,,,,,Space,keypress(Space),,,,,,,,-- --- ---- --- ------ ----- ------- ---- -- --- ------- --<br>------- ---------- ------ -- ----- -- ----- -- ---- ------<br>--- ----- --- --- ------ -------- ----- --- ------ ----- of<br>----- ----- ---------- --- --- ------ ------ ---- -- ------<br>------- --- ------ ----- --- ---- ------- -- ---- --- --<br>------- ------,187276,187266,187014.78,187014,187015.96,187282.6,,32,of
screen,html.Screen,2_1_1_1_33,2022-02-03T13:07:43.420Z,,,,,,,,,,,,,,,,,54,,,,,,,,,,,,,,249.39999999999418,,response,,,,100,,,,,,,Space,keypress(Space),,,,,,,,-- --- ---- --- ------ ----- ------- ---- -- --- ------- --<br>------- ---------- ------ -- ----- -- ----- -- ---- ------<br>--- ----- --- --- ------ -------- ----- --- ------ ----- --<br>these ----- ---------- --- --- ------ ------ ---- -- ------<br>------- --- ------ ----- --- ---- ------- -- ---- --- --<br>------- ------,187540,187532,187277.08,187277,187282.6,187549.24,,33,these
screen,html.Screen,2_1_1_1_34,2022-02-03T13:07:43.668Z,,,,,,,,,,,,,,,,,54,,,,,,,,,,,,,,232.7600000000093,,response,,,,100,,,,,,,Space,keypress(Space),,,,,,,,-- --- ---- --- ------ ----- ------- ---- -- --- ------- --<br>------- ---------- ------ -- ----- -- ----- -- ---- ------<br>--- ----- --- --- ------ -------- ----- --- ------ ----- --<br>----- bonds ---------- --- --- ------ ------ ---- -- ------<br>------- --- ------ ----- --- ---- ------- -- ---- --- --<br>------- ------,187788,187782,187540.16,187540,187549.24,187799.2,,34,bonds
screen,html.Screen,2_1_1_1_35,2022-02-03T13:07:43.914Z,,,,,,,,,,,,,,,,,54,,,,,,,,,,,,,,231.79999999998836,,response,,,,100,,,,,,,Space,keypress(Space),,,,,,,,"-- --- ---- --- ------ ----- ------- ---- -- --- ------- --<br>------- ---------- ------ -- ----- -- ----- -- ---- ------<br>--- ----- --- --- ------ -------- ----- --- ------ ----- --<br>----- ----- plummeted, --- --- ------ ------ ---- -- ------<br>------- --- ------ ----- --- ---- ------- -- ---- --- --<br>------- ------",188035,188031,187788.7,187788,187799.2,188049.16,,35,"plummeted,"
screen,html.Screen,2_1_1_1_36,2022-02-03T13:07:44.172Z,,,,,,,,,,,,,,,,,54,,,,,,,,,,,,,,231.8399999999965,,response,,,,100,,,,,,,Space,keypress(Space),,,,,,,,-- --- ---- --- ------ ----- ------- ---- -- --- ------- --<br>------- ---------- ------ -- ----- -- ----- -- ---- ------<br>--- ----- --- --- ------ -------- ----- --- ------ ----- --<br>----- ----- ---------- and --- ------ ------ ---- -- ------<br>------- --- ------ ----- --- ---- ------- -- ---- --- --<br>------- ------,188292,188281,188034.78,188035,188049.16,188299.14,,36,and
screen,html.Screen,2_1_1_1_37,2022-02-03T13:07:44.426Z,,,,,,,,,,,,,,,,,54,,,,,,,,,,,,,,232.85999999998603,,response,,,,100,,,,,,,Space,keypress(Space),,,,,,,,-- --- ---- --- ------ ----- ------- ---- -- --- ------- --<br>------- ---------- ------ -- ----- -- ----- -- ---- ------<br>--- ----- --- --- ------ -------- ----- --- ------ ----- --<br>----- ----- ---------- --- the ------ ------ ---- -- ------<br>------- --- ------ ----- --- ---- ------- -- ---- --- --<br>------- ------,188547,188532,188292.32,188292,188299.14,188549.1,,37,the
screen,html.Screen,2_1_1_1_38,2022-02-03T13:07:44.689Z,,,,,,,,,,,,,,,,,54,,,,,,,,,,,,,,247.89999999999418,,response,,,,100,,,,,,,Space,keypress(Space),,,,,,,,-- --- ---- --- ------ ----- ------- ---- -- --- ------- --<br>------- ---------- ------ -- ----- -- ----- -- ---- ------<br>--- ----- --- --- ------ -------- ----- --- ------ ----- --<br>----- ----- ---------- --- --- market ------ ---- -- ------<br>------- --- ------ ----- --- ---- ------- -- ---- --- --<br>------- ------,188809,188797,188546.72,188547,188549.1,188815.74,,38,market
screen,html.Screen,2_1_1_1_39,2022-02-03T13:07:44.950Z,,,,,,,,,,,,,,,,,54,,,,,,,,,,,,,,247.2600000000093,,response,,,,100,,,,,,,Space,keypress(Space),,,,,,,,-- --- ---- --- ------ ----- ------- ---- -- --- ------- --<br>------- ---------- ------ -- ----- -- ----- -- ---- ------<br>--- ----- --- --- ------ -------- ----- --- ------ ----- --<br>----- ----- ---------- --- --- ------ became ---- -- ------<br>------- --- ------ ----- --- ---- ------- -- ---- --- --<br>------- ------,189071,189063,188809,188809,188815.74,189082.36,,39,became
screen,html.Screen,2_1_1_1_40,2022-02-03T13:07:45.191Z,,,,,,,,,,,,,,,,,54,,,,,,,,,,,,,,214.64000000001397,,response,,,,100,,,,,,,Space,keypress(Space),,,,,,,,-- --- ---- --- ------ ----- ------- ---- -- --- ------- --<br>------- ---------- ------ -- ----- -- ----- -- ---- ------<br>--- ----- --- --- ------ -------- ----- --- ------ ----- --<br>----- ----- ---------- --- --- ------ ------ wary -- ------<br>------- --- ------ ----- --- ---- ------- -- ---- --- --<br>------- ------,189311,189297,189070.82,189071,189082.36,189315.66,,40,wary
screen,html.Screen,2_1_1_1_41,2022-02-03T13:07:45.645Z,,,,,,,,,,,,,,,,,54,,,,,,,,,,,,,,434.3399999999965,,response,,,,100,,,,,,,Space,keypress(Space),,,,,,,,-- --- ---- --- ------ ----- ------- ---- -- --- ------- --<br>------- ---------- ------ -- ----- -- ----- -- ---- ------<br>--- ----- --- --- ------ -------- ----- --- ------ ----- --<br>----- ----- ---------- --- --- ------ ------ ---- of ------<br>------- --- ------ ----- --- ---- ------- -- ---- --- --<br>------- ------,189765,189750,189311.5,189311,189315.66,189765.6,,41,of
screen,html.Screen,2_1_1_1_42,2022-02-03T13:07:45.905Z,,,,,,,,,,,,,,,,,54,,,,,,,,,,,,,,234.39999999999418,,response,,,,100,,,,,,,Space,keypress(Space),,,,,,,,-- --- ---- --- ------ ----- ------- ---- -- --- ------- --<br>------- ---------- ------ -- ----- -- ----- -- ---- ------<br>--- ----- --- --- ------ -------- ----- --- ------ ----- --<br>----- ----- ---------- --- --- ------ ------ ---- -- French<br>------- --- ------ ----- --- ---- ------- -- ---- --- --<br>------- ------,190025,190000,189765.38,189766,189765.6,190032.24,,42,French
screen,html.Screen,2_1_1_1_43,2022-02-03T13:07:46.145Z,,,,,,,,,,,,,,,,,54,,,,,,,,,,,,,,217.7600000000093,,response,,,,100,,,,,,,Space,keypress(Space),,,,,,,,-- --- ---- --- ------ ----- ------- ---- -- --- ------- --<br>------- ---------- ------ -- ----- -- ----- -- ---- ------<br>--- ----- --- --- ------ -------- ----- --- ------ ----- --<br>----- ----- ---------- --- --- ------ ------ ---- -- ------<br>credit. --- ------ ----- --- ---- ------- -- ---- --- --<br>------- ------,190265,190250,190025.82,190025,190032.24,190265.54,,43,credit.
screen,html.Screen,2_1_1_1_44,2022-02-03T13:07:46.418Z,,,,,,,,,,,,,,,,,54,,,,,,,,,,,,,,265.45999999999185,,response,,,,100,,,,,,,Space,keypress(Space),,,,,,,,-- --- ---- --- ------ ----- ------- ---- -- --- ------- --<br>------- ---------- ------ -- ----- -- ----- -- ---- ------<br>--- ----- --- --- ------ -------- ----- --- ------ ----- --<br>----- ----- ---------- --- --- ------ ------ ---- -- ------<br>------- The ------ ----- --- ---- ------- -- ---- --- --<br>------- ------,190538,190531,190265.46,190265,190265.54,190548.84,,44,The
screen,html.Screen,2_1_1_1_45,2022-02-03T13:07:46.674Z,,,,,,,,,,,,,,,,,54,,,,,,,,,,,,,,233.1600000000035,,response,,,,100,,,,,,,Space,keypress(Space),,,,,,,,-- --- ---- --- ------ ----- ------- ---- -- --- ------- --<br>------- ---------- ------ -- ----- -- ----- -- ---- ------<br>--- ----- --- --- ------ -------- ----- --- ------ ----- --<br>----- ----- ---------- --- --- ------ ------ ---- -- ------<br>------- --- French ----- --- ---- ------- -- ---- --- --<br>------- ------,190794,190782,190538.86,190539,190548.84,190798.8,,45,French
screen,html.Screen,2_1_1_1_46,2022-02-03T13:07:46.929Z,,,,,,,,,,,,,,,,,54,,,,,,,,,,,,,,233.20000000001164,,response,,,,100,,,,,,,Space,keypress(Space),,,,,,,,-- --- ---- --- ------ ----- ------- ---- -- --- ------- --<br>------- ---------- ------ -- ----- -- ----- -- ---- ------<br>--- ----- --- --- ------ -------- ----- --- ------ ----- --<br>----- ----- ---------- --- --- ------ ------ ---- -- ------<br>------- --- ------ state --- ---- ------- -- ---- --- --<br>------- ------,191050,191032,190794.76,190794,190798.8,191065.44,,46,state
screen,html.Screen,2_1_1_1_47,2022-02-03T13:07:47.143Z,,,,,,,,,,,,,,,,,54,,,,,,,,,,,,,,184.55999999999767,,response,,,,100,,,,,,,Space,keypress(Space),,,,,,,,-- --- ---- --- ------ ----- ------- ---- -- --- ------- --<br>------- ---------- ------ -- ----- -- ----- -- ---- ------<br>--- ----- --- --- ------ -------- ----- --- ------ ----- --<br>----- ----- ---------- --- --- ------ ------ ---- -- ------<br>------- --- ------ ----- was ---- ------- -- ---- --- --<br>------- ------,191264,191250,191050.06,191050,191065.44,191265.42,,47,was
screen,html.Screen,2_1_1_1_48,2022-02-03T13:07:47.358Z,,,,,,,,,,,,,,,,,54,,,,,,,,,,,,,,204.5799999999872,,response,,,,100,,,,,,,Space,keypress(Space),,,,,,,,-- --- ---- --- ------ ----- ------- ---- -- --- ------- --<br>------- ---------- ------ -- ----- -- ----- -- ---- ------<br>--- ----- --- --- ------ -------- ----- --- ------ ----- --<br>----- ----- ---------- --- --- ------ ------ ---- -- ------<br>------- --- ------ ----- --- left ------- -- ---- --- --<br>------- ------,191478,191470,191263.42,191264,191265.42,191482.04,,48,left
screen,html.Screen,2_1_1_1_49,2022-02-03T13:07:47.604Z,,,,,,,,,,,,,,,,,54,,,,,,,,,,,,,,220.95999999999185,,response,,,,100,,,,,,,Space,keypress(Space),,,,,,,,-- --- ---- --- ------ ----- ------- ---- -- --- ------- --<br>------- ---------- ------ -- ----- -- ----- -- ---- ------<br>--- ----- --- --- ------ -------- ----- --- ------ ----- --<br>----- ----- ---------- --- --- ------ ------ ---- -- ------<br>------- --- ------ ----- --- ---- without -- ---- --- --<br>------- ------,191725,191703,191478.6,191478,191482.04,191732.02,,49,without
screen,html.Screen,2_1_1_1_50,2022-02-03T13:07:47.856Z,,,,,,,,,,,,,,,,,54,,,,,,,,,,,,,,236.98000000001048,,response,,,,100,,,,,,,Space,keypress(Space),,,,,,,,-- --- ---- --- ------ ----- ------- ---- -- --- ------- --<br>------- ---------- ------ -- ----- -- ----- -- ---- ------<br>--- ----- --- --- ------ -------- ----- --- ------ ----- --<br>----- ----- ---------- --- --- ------ ------ ---- -- ------<br>------- --- ------ ----- --- ---- ------- an ---- --- --<br>------- ------,191976,191969,191725.6,191725,191732.02,191981.98,,50,an
screen,html.Screen,2_1_1_1_51,2022-02-03T13:07:48.072Z,,,,,,,,,,,,,,,,,54,,,,,,,,,,,,,,191.01999999998952,,response,,,,100,,,,,,,Space,keypress(Space),,,,,,,,-- --- ---- --- ------ ----- ------- ---- -- --- ------- --<br>------- ---------- ------ -- ----- -- ----- -- ---- ------<br>--- ----- --- --- ------ -------- ----- --- ------ ----- --<br>----- ----- ---------- --- --- ------ ------ ---- -- ------<br>------- --- ------ ----- --- ---- ------- -- easy --- --<br>------- ------,192193,192173,191976.28,191976,191981.98,192198.62,,51,easy
screen,html.Screen,2_1_1_1_52,2022-02-03T13:07:48.400Z,,,,,,,,,,,,,,,,,54,,,,,,,,,,,,,,301.38000000000466,,response,,,,100,,,,,,,Space,keypress(Space),,,,,,,,-- --- ---- --- ------ ----- ------- ---- -- --- ------- --<br>------- ---------- ------ -- ----- -- ----- -- ---- ------<br>--- ----- --- --- ------ -------- ----- --- ------ ----- --<br>----- ----- ---------- --- --- ------ ------ ---- -- ------<br>------- --- ------ ----- --- ---- ------- -- ---- way --<br>------- ------,192521,192500,192193.02,192193,192198.62,192531.92,,52,way
screen,html.Screen,2_1_1_1_53,2022-02-03T13:07:48.675Z,,,,,,,,,,,,,,,,,54,,,,,,,,,,,,,,249.0799999999872,,response,,,,100,,,,,,,Space,keypress(Space),,,,,,,,-- --- ---- --- ------ ----- ------- ---- -- --- ------- --<br>------- ---------- ------ -- ----- -- ----- -- ---- ------<br>--- ----- --- --- ------ -------- ----- --- ------ ----- --<br>----- ----- ---------- --- --- ------ ------ ---- -- ------<br>------- --- ------ ----- --- ---- ------- -- ---- --- of<br>------- ------,192796,192781,192520.6,192521,192531.92,192798.54,,53,of
screen,html.Screen,2_1_1_1_54,2022-02-03T13:07:48.976Z,,,,,,,,,,,,,,,,,54,,,,,,,,,,,,,,279.45999999999185,,response,,,,100,,,,,,,Space,keypress(Space),,,,,,,,-- --- ---- --- ------ ----- ------- ---- -- --- ------- --<br>------- ---------- ------ -- ----- -- ----- -- ---- ------<br>--- ----- --- --- ------ -------- ----- --- ------ ----- --<br>----- ----- ---------- --- --- ------ ------ ---- -- ------<br>------- --- ------ ----- --- ---- ------- -- ---- --- --<br>raising ------,193097,193078,192795.7,192796,192798.54,193098.5,,54,raising
screen,html.Screen,2_1_1_1_55,2022-02-03T13:07:49.500Z,,,,,,,,,,,,,,,,,54,,,,,,,,,,,,,,510.5,,response,,,,100,,,,,,,Space,keypress(Space),,,,,,,,-- --- ---- --- ------ ----- ------- ---- -- --- ------- --<br>------- ---------- ------ -- ----- -- ----- -- ---- ------<br>--- ----- --- --- ------ -------- ----- --- ------ ----- --<br>----- ----- ---------- --- --- ------ ------ ---- -- ------<br>------- --- ------ ----- --- ---- ------- -- ---- --- --<br>------- money.,193621,193609,193096.72,193097,193098.5,193631.76,,55,money.
Item 100,flow.Loop,2_1_1_1,2022-02-03T13:07:49.500Z,,,,,,,,,,,,,,,,,,,,,,,,,,,,,,,18658.119999999995,,completion,,,,,F,,,,,,,,,,,silence,,,,,193621,193609,174934.22,174935,174950.88,193631.76,,,
Question 1,html.Screen,2_1_1_2,2022-02-03T13:07:52.906Z,,,,,,,,,,,,,,,,,,,,,,,,,,,,true,TRUE,,3385.2399999999907,,response,,,,100,F,,,,,,TRUE,click #choice-1,,,,silence,,,,,197027,197017,193620.56,193621,193631.76,197031.32,,,
Question 2,html.Screen,2_1_1_3,2022-02-03T13:07:55.542Z,,,,,,,,,,,,,,,,,,,,,,,,,,,,true,FALSE,,2609.679999999993,,response,,,,100,F,,,,,,FALSE,click #choice-2,,,,silence,,,,,199662,199641,197026.78,197027,197031.32,199664.32,,,
Item 100,flow.Sequence,2_1_1,2022-02-03T13:07:55.542Z,,,,,,,,,,,,,,,,,,,,,,,,,,,,,,,34688.82000000001,,completion,,,,,,,,,,,,,,,,,,,,,199662,199641,164951.14,164954,164952.18,199664.32,,,
End of Practice,html.Page,2_1_2,2022-02-03T13:08:00.600Z,,,,,,,,,,,,,,,,,,,,,,,,,,,,,,,5053.679999999993,,form submission,,,,,,,,,,,,,,,,,,,,,204720,204718,199660.52,199663,199664.32,204730.32,,,
Practice,flow.Sequence,2_1,2022-02-03T13:08:00.601Z,,,,,,,,,,,,,,,,,,,,,,,,,,,,,,,83843.38,,completion,,,,,,,,,,,,,,,,,,,,,204720,204718,120869.04,120875,120874.62,204730.32,,,
Trap_instruction,html.Page,2_2_0,2022-02-03T13:08:03.045Z,,,,,,,,,,,,,,,,,,,,,,,,,,,,,,,2433.679999999993,,form submission,,,,,,,,,,,,,,,,,,,,,207165,207164,204713.88,204721,204730.32,207196.66,,,
trap_trial,html.Screen,2_2_1,2022-02-03T13:08:13.662Z,,,,,,,,,,,,,,,,,,,,,,,,,,,,true,1,,10569.339999999997,,response,,,,,,,,,,,1,click #choice-1,,,,,,,,,217782,217766,207160.72,207166,207196.66,217795.28,,,
end of trap trial,html.Page,2_2_2,2022-02-03T13:08:15.656Z,,,,,,,,,,,,,,,,,,,,,,,,,,,,,,,1979.7200000000012,,form submission,,,,,,,,,,,,,,,,,,,,,219776,219775,217780.48,217783,217795.28,219778.34,,,
Trap 1,flow.Sequence,2_2,2022-02-03T13:08:15.656Z,,,,,,,,,,,,,,,,,,,,,,,,,,,,,,,15044.679999999993,,completion,,,,,,,,,,,,,,,,,,,,,219776,219775,204713.88,204721,204730.32,219778.34,,,
Standby,html.Page,2_3_0,2022-02-03T13:08:23.642Z,,,,,,,,,,,,,,,,,,,,,,,,,,,,,,,7998.959999999992,,timeout,,,,,,,,,,,,,,,,,,,,,227762,227760.64,219774.76,219776,219778.34,227777.3,,,
Holding screen,html.Screen,2_3_1_0_0,2022-02-03T13:08:30.642Z,,,,,,,,,,,,,,,,,,,,,,,,,,,,,,,6999.080000000016,,timeout,,,,,,,,,,,,,,,,,,,,,234762,234759.72,227760.64,227763,227777.3,234776.38,,,
screen,html.Screen,2_3_1_0_1_0,2022-02-03T13:08:31.552Z,,,,,,,,,,,,,,,,,11,,,,,,,,,,,,,,879.6199999999953,,response,,,,4,F,,,,,,Space,keypress(Space),,,,instrumental,,,,Known -- ---- --- -- --- -------- ------------ ---------- --<br>- ------- ------ --------- -- ------------ -- --- ---- -----<br>------ ---- ---- ------ ------ ------- --- ----- ---------<br>---- --- -------- -------- --- --- -- ------- --- --- -----<br>-- --- ------ ------- --- --- -------- ---- --------- --<br>---------- -- -------- ----------------,235673,235656,234759.72,234763,234776.38,235676.26,,0,Known
screen,html.Screen,2_3_1_0_1_1,2022-02-03T13:08:31.931Z,,,,,,,,,,,,,,,,,11,,,,,,,,,,,,,,354.7399999999907,,response,,,,4,F,,,,,,Space,keypress(Space),,,,instrumental,,,,----- as ---- --- -- --- -------- ------------ ---------- --<br>- ------- ------ --------- -- ------------ -- --- ---- -----<br>------ ---- ---- ------ ------ ------- --- ----- ---------<br>---- --- -------- -------- --- --- -- ------- --- --- -----<br>-- --- ------ ------- --- --- -------- ---- --------- --<br>---------- -- -------- ----------------,236051,236031,235672.82,235673,235676.26,236059.54,,1,as
screen,html.Screen,2_3_1_0_1_2,2022-02-03T13:08:32.300Z,,,,,,,,,,,,,,,,,11,,,,,,,,,,,,,,347.45999999999185,,response,,,,4,F,,,,,,Space,keypress(Space),,,,instrumental,,,,----- -- Rapa --- -- --- -------- ------------ ---------- --<br>- ------- ------ --------- -- ------------ -- --- ---- -----<br>------ ---- ---- ------ ------ ------- --- ----- ---------<br>---- --- -------- -------- --- --- -- ------- --- --- -----<br>-- --- ------ ------- --- --- -------- ---- --------- --<br>---------- -- -------- ----------------,236420,236407,236051.5,236051,236059.54,236426.16,,2,Rapa
screen,html.Screen,2_3_1_0_1_3,2022-02-03T13:08:32.876Z,,,,,,,,,,,,,,,,,11,,,,,,,,,,,,,,558.8399999999965,,response,,,,4,F,,,,,,Space,keypress(Space),,,,instrumental,,,,----- -- ---- Nui -- --- -------- ------------ ---------- --<br>- ------- ------ --------- -- ------------ -- --- ---- -----<br>------ ---- ---- ------ ------ ------- --- ----- ---------<br>---- --- -------- -------- --- --- -- ------- --- --- -----<br>-- --- ------ ------- --- --- -------- ---- --------- --<br>---------- -- -------- ----------------,236997,236985,236420.56,236420,236426.16,237009.42,,3,Nui
screen,html.Screen,2_3_1_0_1_4,2022-02-03T13:08:33.235Z,,,,,,,,,,,,,,,,,11,,,,,,,,,,,,,,335.5799999999872,,response,,,,4,F,,,,,,Space,keypress(Space),,,,instrumental,,,,----- -- ---- --- to --- -------- ------------ ---------- --<br>- ------- ------ --------- -- ------------ -- --- ---- -----<br>------ ---- ---- ------ ------ ------- --- ----- ---------<br>---- --- -------- -------- --- --- -- ------- --- --- -----<br>-- --- ------ ------- --- --- -------- ---- --------- --<br>---------- -- -------- ----------------,237355,237345,236997.12,236997,237009.42,237359.38,,4,to
screen,html.Screen,2_3_1_0_1_5,2022-02-03T13:08:33.511Z,,,,,,,,,,,,,,,,,11,,,,,,,,,,,,,,250.61999999999534,,response,,,,4,F,,,,,,Space,keypress(Space),,,,instrumental,,,,----- -- ---- --- -- the -------- ------------ ---------- --<br>- ------- ------ --------- -- ------------ -- --- ---- -----<br>------ ---- ---- ------ ------ ------- --- ----- ---------<br>---- --- -------- -------- --- --- -- ------- --- --- -----<br>-- --- ------ ------- --- --- -------- ---- --------- --<br>---------- -- -------- ----------------,237631,237610,237355.1,237355,237359.38,237642.68,,5,the
screen,html.Screen,2_3_1_0_1_6,2022-02-03T13:08:33.802Z,,,,,,,,,,,,,,,,,11,,,,,,,,,,,,,,264.320000000007,,response,,,,4,F,,,,,,Space,keypress(Space),,,,instrumental,,,,----- -- ---- --- -- --- island's ------------ ---------- --<br>- ------- ------ --------- -- ------------ -- --- ---- -----<br>------ ---- ---- ------ ------ ------- --- ----- ---------<br>---- --- -------- -------- --- --- -- ------- --- --- -----<br>-- --- ------ ------- --- --- -------- ---- --------- --<br>---------- -- -------- ----------------,237922,237907,237632.1,237632,237642.68,237925.98,,6,island's
screen,html.Screen,2_3_1_0_1_7,2022-02-03T13:08:34.042Z,,,,,,,,,,,,,,,,,11,,,,,,,,,,,,,,215.01999999998952,,response,,,,4,F,,,,,,Space,keypress(Space),,,,instrumental,,,,"----- -- ---- --- -- --- -------- inhabitants, ---------- --<br>- ------- ------ --------- -- ------------ -- --- ---- -----<br>------ ---- ---- ------ ------ ------- --- ----- ---------<br>---- --- -------- -------- --- --- -- ------- --- --- -----<br>-- --- ------ ------- --- --- -------- ---- --------- --<br>---------- -- -------- ----------------",238162,238141,237922.06,237922,237925.98,238175.94,,7,"inhabitants,"
screen,html.Screen,2_3_1_0_1_8,2022-02-03T13:08:34.591Z,,,,,,,,,,,,,,,,,11,,,,,,,,,,,,,,527.0599999999977,,response,,,,4,F,,,,,,Space,keypress(Space),,,,instrumental,,,,----- -- ---- --- -- --- -------- ------------ Rongorongo --<br>- ------- ------ --------- -- ------------ -- --- ---- -----<br>------ ---- ---- ------ ------ ------- --- ----- ---------<br>---- --- -------- -------- --- --- -- ------- --- --- -----<br>-- --- ------ ------- --- --- -------- ---- --------- --<br>---------- -- -------- ----------------,238711,238703,238163.3,238163,238175.94,238725.86,,8,Rongorongo
screen,html.Screen,2_3_1_0_1_9,2022-02-03T13:08:35.128Z,,,,,,,,,,,,,,,,,11,,,,,,,,,,,,,,508.14000000001397,,response,,,,4,F,,,,,,Space,keypress(Space),,,,instrumental,,,,----- -- ---- --- -- --- -------- ------------ ---------- is<br>- ------- ------ --------- -- ------------ -- --- ---- -----<br>------ ---- ---- ------ ------ ------- --- ----- ---------<br>---- --- -------- -------- --- --- -- ------- --- --- -----<br>-- --- ------ ------- --- --- -------- ---- --------- --<br>---------- -- -------- ----------------,239248,239234,238711.5,238712,238725.86,239259.14,,9,is
screen,html.Screen,2_3_1_0_1_10,2022-02-03T13:08:35.989Z,,,,,,,,,,,,,,,,,11,,,,,,,,,,,,,,834.859999999986,,response,,,,4,F,,,,,,Space,keypress(Space),,,,instrumental,,,,----- -- ---- --- -- --- -------- ------------ ---------- --<br>a ------- ------ --------- -- ------------ -- --- ---- -----<br>------ ---- ---- ------ ------ ------- --- ----- ---------<br>---- --- -------- -------- --- --- -- ------- --- --- -----<br>-- --- ------ ------- --- --- -------- ---- --------- --<br>---------- -- -------- ----------------,240109,240094,239248.74,239248,239259.14,240125.68,,10,a
screen,html.Screen,2_3_1_0_1_11,2022-02-03T13:08:36.297Z,,,,,,,,,,,,,,,,,11,,,,,,,,,,,,,,280.320000000007,,response,,,,4,F,,,,,,Space,keypress(Space),,,,instrumental,,,,----- -- ---- --- -- --- -------- ------------ ---------- --<br>- writing ------ --------- -- ------------ -- --- ---- -----<br>------ ---- ---- ------ ------ ------- --- ----- ---------<br>---- --- -------- -------- --- --- -- ------- --- --- -----<br>-- --- ------ ------- --- --- -------- ---- --------- --<br>---------- -- -------- ----------------,240417,240406,240110.04,240110,240125.68,240425.64,,11,writing
screen,html.Screen,2_3_1_0_1_12,2022-02-03T13:08:36.571Z,,,,,,,,,,,,,,,,,11,,,,,,,,,,,,,,247.35999999998603,,response,,,,4,F,,,,,,Space,keypress(Space),,,,instrumental,,,,----- -- ---- --- -- --- -------- ------------ ---------- --<br>- ------- system --------- -- ------------ -- --- ---- -----<br>------ ---- ---- ------ ------ ------- --- ----- ---------<br>---- --- -------- -------- --- --- -- ------- --- --- -----<br>-- --- ------ ------- --- --- -------- ---- --------- --<br>---------- -- -------- ----------------,240691,240673,240417.66,240418,240425.64,240692.28,,12,system
screen,html.Screen,2_3_1_0_1_13,2022-02-03T13:08:36.859Z,,,,,,,,,,,,,,,,,11,,,,,,,,,,,,,,276.72000000000116,,response,,,,4,F,,,,,,Space,keypress(Space),,,,instrumental,,,,----- -- ---- --- -- --- -------- ------------ ---------- --<br>- ------- ------ comprised -- ------------ -- --- ---- -----<br>------ ---- ---- ------ ------ ------- --- ----- ---------<br>---- --- -------- -------- --- --- -- ------- --- --- -----<br>-- --- ------ ------- --- --- -------- ---- --------- --<br>---------- -- -------- ----------------,240979,240969,240692.22,240692,240692.28,240992.24,,13,comprised
screen,html.Screen,2_3_1_0_1_14,2022-02-03T13:08:37.142Z,,,,,,,,,,,,,,,,,11,,,,,,,,,,,,,,258.7600000000093,,response,,,,4,F,,,,,,Space,keypress(Space),,,,instrumental,,,,----- -- ---- --- -- --- -------- ------------ ---------- --<br>- ------- ------ --------- of ------------ -- --- ---- -----<br>------ ---- ---- ------ ------ ------- --- ----- ---------<br>---- --- -------- -------- --- --- -- ------- --- --- -----<br>-- --- ------ ------- --- --- -------- ---- --------- --<br>---------- -- -------- ----------------,241262,241251,240980.18,240980,240992.24,241275.54,,14,of
screen,html.Screen,2_3_1_0_1_15,2022-02-03T13:08:37.428Z,,,,,,,,,,,,,,,,,11,,,,,,,,,,,,,,256.45999999999185,,response,,,,4,F,,,,,,Space,keypress(Space),,,,instrumental,,,,----- -- ---- --- -- --- -------- ------------ ---------- --<br>- ------- ------ --------- -- pictographs. -- --- ---- -----<br>------ ---- ---- ------ ------ ------- --- ----- ---------<br>---- --- -------- -------- --- --- -- ------- --- --- -----<br>-- --- ------ ------- --- --- -------- ---- --------- --<br>---------- -- -------- ----------------,241548,241532,241262.12,241262,241275.54,241558.82,,15,pictographs.
screen,html.Screen,2_3_1_0_1_16,2022-02-03T13:08:38.005Z,,,,,,,,,,,,,,,,,11,,,,,,,,,,,,,,551.179999999993,,response,,,,4,F,,,,,,Space,keypress(Space),,,,instrumental,,,,----- -- ---- --- -- --- -------- ------------ ---------- --<br>- ------- ------ --------- -- ------------ It --- ---- -----<br>------ ---- ---- ------ ------ ------- --- ----- ---------<br>---- --- -------- -------- --- --- -- ------- --- --- -----<br>-- --- ------ ------- --- --- -------- ---- --------- --<br>---------- -- -------- ----------------,242124,242110,241548.76,241549,241558.82,242125.42,,16,It
screen,html.Screen,2_3_1_0_1_17,2022-02-03T13:08:38.272Z,,,,,,,,,,,,,,,,,11,,,,,,,,,,,,,,249.5799999999872,,response,,,,4,F,,,,,,Space,keypress(Space),,,,instrumental,,,,----- -- ---- --- -- --- -------- ------------ ---------- --<br>- ------- ------ --------- -- ------------ -- has ---- -----<br>------ ---- ---- ------ ------ ------- --- ----- ---------<br>---- --- -------- -------- --- --- -- ------- --- --- -----<br>-- --- ------ ------- --- --- -------- ---- --------- --<br>---------- -- -------- ----------------,242392,242375,242125.36,242125,242125.42,242408.72,,17,has
screen,html.Screen,2_3_1_0_1_18,2022-02-03T13:08:38.497Z,,,,,,,,,,,,,,,,,11,,,,,,,,,,,,,,201.27999999999884,,response,,,,4,F,,,,,,Space,keypress(Space),,,,instrumental,,,,----- -- ---- --- -- --- -------- ------------ ---------- --<br>- ------- ------ --------- -- ------------ -- --- been -----<br>------ ---- ---- ------ ------ ------- --- ----- ---------<br>---- --- -------- -------- --- --- -- ------- --- --- -----<br>-- --- ------ ------- --- --- -------- ---- --------- --<br>---------- -- -------- ----------------,242617,242610,242392.52,242392,242408.72,242625.36,,18,been
screen,html.Screen,2_3_1_0_1_19,2022-02-03T13:08:38.708Z,,,,,,,,,,,,,,,,,11,,,,,,,,,,,,,,186.64000000001397,,response,,,,4,F,,,,,,Space,keypress(Space),,,,instrumental,,,,----- -- ---- --- -- --- -------- ------------ ---------- --<br>- ------- ------ --------- -- ------------ -- --- ---- found<br>------ ---- ---- ------ ------ ------- --- ----- ---------<br>---- --- -------- -------- --- --- -- ------- --- --- -----<br>-- --- ------ ------- --- --- -------- ---- --------- --<br>---------- -- -------- ----------------,242828,242812,242617.4,242617,242625.36,242842,,19,found
screen,html.Screen,2_3_1_0_1_20,2022-02-03T13:08:39.306Z,,,,,,,,,,,,,,,,,11,,,,,,,,,,,,,,580,,response,,,,4,F,,,,,,Space,keypress(Space),,,,instrumental,,,,----- -- ---- --- -- --- -------- ------------ ---------- --<br>- ------- ------ --------- -- ------------ -- --- ---- -----<br>carved ---- ---- ------ ------ ------- --- ----- ---------<br>---- --- -------- -------- --- --- -- ------- --- --- -----<br>-- --- ------ ------- --- --- -------- ---- --------- --<br>---------- -- -------- ----------------,243426,243422,242828.82,242829,242842,243441.92,,20,carved
screen,html.Screen,2_3_1_0_1_21,2022-02-03T13:08:39.555Z,,,,,,,,,,,,,,,,,11,,,,,,,,,,,,,,215.0799999999872,,response,,,,4,F,,,,,,Space,keypress(Space),,,,instrumental,,,,----- -- ---- --- -- --- -------- ------------ ---------- --<br>- ------- ------ --------- -- ------------ -- --- ---- -----<br>------ into ---- ------ ------ ------- --- ----- ---------<br>---- --- -------- -------- --- --- -- ------- --- --- -----<br>-- --- ------ ------- --- --- -------- ---- --------- --<br>---------- -- -------- ----------------,243675,243657,243427.34,243428,243441.92,243691.88,,21,into
screen,html.Screen,2_3_1_0_1_22,2022-02-03T13:08:39.780Z,,,,,,,,,,,,,,,,,11,,,,,,,,,,,,,,200.11999999999534,,response,,,,4,F,,,,,,Space,keypress(Space),,,,instrumental,,,,----- -- ---- --- -- --- -------- ------------ ---------- --<br>- ------- ------ --------- -- ------------ -- --- ---- -----<br>------ ---- many ------ ------ ------- --- ----- ---------<br>---- --- -------- -------- --- --- -- ------- --- --- -----<br>-- --- ------ ------- --- --- -------- ---- --------- --<br>---------- -- -------- ----------------,243901,243892,243675.62,243676,243691.88,243908.52,,22,many
screen,html.Screen,2_3_1_0_1_23,2022-02-03T13:08:39.967Z,,,,,,,,,,,,,,,,,11,,,,,,,,,,,,,,170.48000000001048,,response,,,,4,F,,,,,,Space,keypress(Space),,,,instrumental,,,,----- -- ---- --- -- --- -------- ------------ ---------- --<br>- ------- ------ --------- -- ------------ -- --- ---- -----<br>------ ---- ---- oblong ------ ------- --- ----- ---------<br>---- --- -------- -------- --- --- -- ------- --- --- -----<br>-- --- ------ ------- --- --- -------- ---- --------- --<br>---------- -- -------- ----------------,244087,244079,243901.16,243902,243908.52,244091.84,,23,oblong
screen,html.Screen,2_3_1_0_1_24,2022-02-03T13:08:40.225Z,,,,,,,,,,,,,,,,,11,,,,,,,,,,,,,,237.1600000000035,,response,,,,4,F,,,,,,Space,keypress(Space),,,,instrumental,,,,----- -- ---- --- -- --- -------- ------------ ---------- --<br>- ------- ------ --------- -- ------------ -- --- ---- -----<br>------ ---- ---- ------ wooden ------- --- ----- ---------<br>---- --- -------- -------- --- --- -- ------- --- --- -----<br>-- --- ------ ------- --- --- -------- ---- --------- --<br>---------- -- -------- ----------------,244346,244329,244086.8,244087,244091.84,244358.46,,24,wooden
screen,html.Screen,2_3_1_0_1_25,2022-02-03T13:08:40.504Z,,,,,,,,,,,,,,,,,11,,,,,,,,,,,,,,250.54000000000815,,response,,,,4,F,,,,,,Space,keypress(Space),,,,instrumental,,,,----- -- ---- --- -- --- -------- ------------ ---------- --<br>- ------- ------ --------- -- ------------ -- --- ---- -----<br>------ ---- ---- ------ ------ tablets --- ----- ---------<br>---- --- -------- -------- --- --- -- ------- --- --- -----<br>-- --- ------ ------- --- --- -------- ---- --------- --<br>---------- -- -------- ----------------,244624,244609,244346.06,244346,244358.46,244625.1,,25,tablets
screen,html.Screen,2_3_1_0_1_26,2022-02-03T13:08:40.747Z,,,,,,,,,,,,,,,,,11,,,,,,,,,,,,,,233.89999999999418,,response,,,,4,F,,,,,,Space,keypress(Space),,,,instrumental,,,,----- -- ---- --- -- --- -------- ------------ ---------- --<br>- ------- ------ --------- -- ------------ -- --- ---- -----<br>------ ---- ---- ------ ------ ------- and ----- ---------<br>---- --- -------- -------- --- --- -- ------- --- --- -----<br>-- --- ------ ------- --- --- -------- ---- --------- --<br>---------- -- -------- ----------------,244868,244859,244624.54,244624,244625.1,244875.06,,26,and
screen,html.Screen,2_3_1_0_1_27,2022-02-03T13:08:40.986Z,,,,,,,,,,,,,,,,,11,,,,,,,,,,,,,,202.94000000000233,,response,,,,4,F,,,,,,Space,keypress(Space),,,,instrumental,,,,----- -- ---- --- -- --- -------- ------------ ---------- --<br>- ------- ------ --------- -- ------------ -- --- ---- -----<br>------ ---- ---- ------ ------ ------- --- other ---------<br>---- --- -------- -------- --- --- -- ------- --- --- -----<br>-- --- ------ ------- --- --- -------- ---- --------- --<br>---------- -- -------- ----------------,245106,245078,244868,244868,244875.06,245108.36,,27,other
screen,html.Screen,2_3_1_0_1_28,2022-02-03T13:08:41.208Z,,,,,,,,,,,,,,,,,11,,,,,,,,,,,,,,203.64000000001397,,response,,,,4,F,,,,,,Space,keypress(Space),,,,instrumental,,,,----- -- ---- --- -- --- -------- ------------ ---------- --<br>- ------- ------ --------- -- ------------ -- --- ---- -----<br>------ ---- ---- ------ ------ ------- --- ----- artifacts<br>---- --- -------- -------- --- --- -- ------- --- --- -----<br>-- --- ------ ------- --- --- -------- ---- --------- --<br>---------- -- -------- ----------------,245328,245312,245105.92,245106,245108.36,245341.66,,28,artifacts
screen,html.Screen,2_3_1_0_1_29,2022-02-03T13:08:41.439Z,,,,,,,,,,,,,,,,,11,,,,,,,,,,,,,,205.3399999999965,,response,,,,4,F,,,,,,Space,keypress(Space),,,,instrumental,,,,----- -- ---- --- -- --- -------- ------------ ---------- --<br>- ------- ------ --------- -- ------------ -- --- ---- -----<br>------ ---- ---- ------ ------ ------- --- ----- ---------<br>from --- -------- -------- --- --- -- ------- --- --- -----<br>-- --- ------ ------- --- --- -------- ---- --------- --<br>---------- -- -------- ----------------,245560,245547,245328.62,245329,245341.66,245574.98,,29,from
screen,html.Screen,2_3_1_0_1_30,2022-02-03T13:08:41.663Z,,,,,,,,,,,,,,,,,11,,,,,,,,,,,,,,192.01999999998952,,response,,,,4,F,,,,,,Space,keypress(Space),,,,instrumental,,,,----- -- ---- --- -- --- -------- ------------ ---------- --<br>- ------- ------ --------- -- ------------ -- --- ---- -----<br>------ ---- ---- ------ ------ ------- --- ----- ---------<br>---- the -------- -------- --- --- -- ------- --- --- -----<br>-- --- ------ ------- --- --- -------- ---- --------- --<br>---------- -- -------- ----------------,245784,245767,245559.78,245560,245574.98,245791.6,,30,the
screen,html.Screen,2_3_1_0_1_31,2022-02-03T13:08:41.850Z,,,,,,,,,,,,,,,,,11,,,,,,,,,,,,,,162.39999999999418,,response,,,,4,F,,,,,,Space,keypress(Space),,,,instrumental,,,,----- -- ---- --- -- --- -------- ------------ ---------- --<br>- ------- ------ --------- -- ------------ -- --- ---- -----<br>------ ---- ---- ------ ------ ------- --- ----- ---------<br>---- --- island's -------- --- --- -- ------- --- --- -----<br>-- --- ------ ------- --- --- -------- ---- --------- --<br>---------- -- -------- ----------------,245971,245954,245784.66,245785,245791.6,245974.92,,31,island's
screen,html.Screen,2_3_1_0_1_32,2022-02-03T13:08:42.030Z,,,,,,,,,,,,,,,,,11,,,,,,,,,,,,,,166.0799999999872,,response,,,,4,F,,,,,,Space,keypress(Space),,,,instrumental,,,,----- -- ---- --- -- --- -------- ------------ ---------- --<br>- ------- ------ --------- -- ------------ -- --- ---- -----<br>------ ---- ---- ------ ------ ------- --- ----- ---------<br>---- --- -------- history. --- --- -- ------- --- --- -----<br>-- --- ------ ------- --- --- -------- ---- --------- --<br>---------- -- -------- ----------------,246150,246141,245970.96,245971,245974.92,246158.22,,32,history.
screen,html.Screen,2_3_1_0_1_33,2022-02-03T13:08:42.455Z,,,,,,,,,,,,,,,,,11,,,,,,,,,,,,,,403.77999999999884,,response,,,,4,F,,,,,,Space,keypress(Space),,,,instrumental,,,,----- -- ---- --- -- --- -------- ------------ ---------- --<br>- ------- ------ --------- -- ------------ -- --- ---- -----<br>------ ---- ---- ------ ------ ------- --- ----- ---------<br>---- --- -------- -------- The --- -- ------- --- --- -----<br>-- --- ------ ------- --- --- -------- ---- --------- --<br>---------- -- -------- ----------------,246576,246562,246150.1,246150,246158.22,246591.5,,33,The
screen,html.Screen,2_3_1_0_1_34,2022-02-03T13:08:42.728Z,,,,,,,,,,,,,,,,,11,,,,,,,,,,,,,,253.5,,response,,,,4,F,,,,,,Space,keypress(Space),,,,instrumental,,,,----- -- ---- --- -- --- -------- ------------ ---------- --<br>- ------- ------ --------- -- ------------ -- --- ---- -----<br>------ ---- ---- ------ ------ ------- --- ----- ---------<br>---- --- -------- -------- --- art -- ------- --- --- -----<br>-- --- ------ ------- --- --- -------- ---- --------- --<br>---------- -- -------- ----------------,246848,246845,246575.68,246576,246591.5,246858.14,,34,art
screen,html.Screen,2_3_1_0_1_35,2022-02-03T13:08:42.896Z,,,,,,,,,,,,,,,,,11,,,,,,,,,,,,,,142.85999999998603,,response,,,,4,F,,,,,,Space,keypress(Space),,,,instrumental,,,,----- -- ---- --- -- --- -------- ------------ ---------- --<br>- ------- ------ --------- -- ------------ -- --- ---- -----<br>------ ---- ---- ------ ------ ------- --- ----- ---------<br>---- --- -------- -------- --- --- of ------- --- --- -----<br>-- --- ------ ------- --- --- -------- ---- --------- --<br>---------- -- -------- ----------------,247017,247001,246848.54,246849,246858.14,247024.78,,35,of
screen,html.Screen,2_3_1_0_1_36,2022-02-03T13:08:43.436Z,,,,,,,,,,,,,,,,,11,,,,,,,,,,,,,,506.22000000000116,,response,,,,4,F,,,,,,Space,keypress(Space),,,,instrumental,,,,----- -- ---- --- -- --- -------- ------------ ---------- --<br>- ------- ------ --------- -- ------------ -- --- ---- -----<br>------ ---- ---- ------ ------ ------- --- ----- ---------<br>---- --- -------- -------- --- --- -- writing --- --- -----<br>-- --- ------ ------- --- --- -------- ---- --------- --<br>---------- -- -------- ----------------,247556,247531,247016.88,247017,247024.78,247558.04,,36,writing
screen,html.Screen,2_3_1_0_1_37,2022-02-03T13:08:43.669Z,,,,,,,,,,,,,,,,,11,,,,,,,,,,,,,,222.95999999999185,,response,,,,4,F,,,,,,Space,keypress(Space),,,,instrumental,,,,----- -- ---- --- -- --- -------- ------------ ---------- --<br>- ------- ------ --------- -- ------------ -- --- ---- -----<br>------ ---- ---- ------ ------ ------- --- ----- ---------<br>---- --- -------- -------- --- --- -- ------- was --- -----<br>-- --- ------ ------- --- --- -------- ---- --------- --<br>---------- -- -------- ----------------,247790,247781,247556.5,247556,247558.04,247791.34,,37,was
screen,html.Screen,2_3_1_0_1_38,2022-02-03T13:08:43.868Z,,,,,,,,,,,,,,,,,11,,,,,,,,,,,,,,192.6600000000035,,response,,,,4,F,,,,,,Space,keypress(Space),,,,instrumental,,,,----- -- ---- --- -- --- -------- ------------ ---------- --<br>- ------- ------ --------- -- ------------ -- --- ---- -----<br>------ ---- ---- ------ ------ ------- --- ----- ---------<br>---- --- -------- -------- --- --- -- ------- --- not -----<br>-- --- ------ ------- --- --- -------- ---- --------- --<br>---------- -- -------- ----------------,247989,247984,247790.08,247790,247791.34,247991.32,,38,not
screen,html.Screen,2_3_1_0_1_39,2022-02-03T13:08:44.071Z,,,,,,,,,,,,,,,,,11,,,,,,,,,,,,,,180.67999999999302,,response,,,,4,F,,,,,,Space,keypress(Space),,,,instrumental,,,,----- -- ---- --- -- --- -------- ------------ ---------- --<br>- ------- ------ --------- -- ------------ -- --- ---- -----<br>------ ---- ---- ------ ------ ------- --- ----- ---------<br>---- --- -------- -------- --- --- -- ------- --- --- known<br>-- --- ------ ------- --- --- -------- ---- --------- --<br>---------- -- -------- ----------------,248192,248172,247989.26,247989,247991.32,248207.96,,39,known
screen,html.Screen,2_3_1_0_1_40,2022-02-03T13:08:44.287Z,,,,,,,,,,,,,,,,,11,,,,,,,,,,,,,,183.04000000000815,,response,,,,4,F,,,,,,Space,keypress(Space),,,,instrumental,,,,----- -- ---- --- -- --- -------- ------------ ---------- --<br>- ------- ------ --------- -- ------------ -- --- ---- -----<br>------ ---- ---- ------ ------ ------- --- ----- ---------<br>---- --- -------- -------- --- --- -- ------- --- --- -----<br>in --- ------ ------- --- --- -------- ---- --------- --<br>---------- -- -------- ----------------,248407,248391,248192.06,248192,248207.96,248407.94,,40,in
screen,html.Screen,2_3_1_0_1_41,2022-02-03T13:08:44.482Z,,,,,,,,,,,,,,,,,11,,,,,,,,,,,,,,187.05999999999767,,response,,,,4,F,,,,,,Space,keypress(Space),,,,instrumental,,,,----- -- ---- --- -- --- -------- ------------ ---------- --<br>- ------- ------ --------- -- ------------ -- --- ---- -----<br>------ ---- ---- ------ ------ ------- --- ----- ---------<br>---- --- -------- -------- --- --- -- ------- --- --- -----<br>-- any ------ ------- --- --- -------- ---- --------- --<br>---------- -- -------- ----------------,248602,248595,248407.78,248407,248407.94,248607.9,,41,any
screen,html.Screen,2_3_1_0_1_42,2022-02-03T13:08:44.689Z,,,,,,,,,,,,,,,,,11,,,,,,,,,,,,,,189.10000000000582,,response,,,,4,F,,,,,,Space,keypress(Space),,,,instrumental,,,,----- -- ---- --- -- --- -------- ------------ ---------- --<br>- ------- ------ --------- -- ------------ -- --- ---- -----<br>------ ---- ---- ------ ------ ------- --- ----- ---------<br>---- --- -------- -------- --- --- -- ------- --- --- -----<br>-- --- nearby ------- --- --- -------- ---- --------- --<br>---------- -- -------- ----------------,248809,248797,248603.16,248603,248607.9,248824.54,,42,nearby
screen,html.Screen,2_3_1_0_1_43,2022-02-03T13:08:44.872Z,,,,,,,,,,,,,,,,,11,,,,,,,,,,,,,,159.45999999999185,,response,,,,4,F,,,,,,Space,keypress(Space),,,,instrumental,,,,----- -- ---- --- -- --- -------- ------------ ---------- --<br>- ------- ------ --------- -- ------------ -- --- ---- -----<br>------ ---- ---- ------ ------ ------- --- ----- ---------<br>---- --- -------- -------- --- --- -- ------- --- --- -----<br>-- --- ------ islands --- --- -------- ---- --------- --<br>---------- -- -------- ----------------,248992,248984,248809.72,248809,248824.54,249007.86,,43,islands
screen,html.Screen,2_3_1_0_1_44,2022-02-03T13:08:45.082Z,,,,,,,,,,,,,,,,,11,,,,,,,,,,,,,,179.14000000001397,,response,,,,4,F,,,,,,Space,keypress(Space),,,,instrumental,,,,----- -- ---- --- -- --- -------- ------------ ---------- --<br>- ------- ------ --------- -- ------------ -- --- ---- -----<br>------ ---- ---- ------ ------ ------- --- ----- ---------<br>---- --- -------- -------- --- --- -- ------- --- --- -----<br>-- --- ------ ------- and --- -------- ---- --------- --<br>---------- -- -------- ----------------,249203,249187,248992.52,248992,249007.86,249207.82,,44,and
screen,html.Screen,2_3_1_0_1_45,2022-02-03T13:08:45.174Z,,,,,,,,,,,,,,,,,11,,,,,,,,,,,,,,73.17999999999302,,response,,,,4,F,,,,,,Space,keypress(Space),,,,instrumental,,,,----- -- ---- --- -- --- -------- ------------ ---------- --<br>- ------- ------ --------- -- ------------ -- --- ---- -----<br>------ ---- ---- ------ ------ ------- --- ----- ---------<br>---- --- -------- -------- --- --- -- ------- --- --- -----<br>-- --- ------ ------- --- the -------- ---- --------- --<br>---------- -- -------- ----------------,249295,249281,249203.02,249203,249207.82,249307.82,,45,the
screen,html.Screen,2_3_1_0_1_46,2022-02-03T13:08:45.408Z,,,,,,,,,,,,,,,,,11,,,,,,,,,,,,,,208.17999999999302,,response,,,,4,F,,,,,,Space,keypress(Space),,,,instrumental,,,,----- -- ---- --- -- --- -------- ------------ ---------- --<br>- ------- ------ --------- -- ------------ -- --- ---- -----<br>------ ---- ---- ------ ------ ------- --- ----- ---------<br>---- --- -------- -------- --- --- -- ------- --- --- -----<br>-- --- ------ ------- --- --- script's ---- --------- --<br>---------- -- -------- ----------------,249529,249516,249295.56,249295,249307.82,249541.12,,46,script's
screen,html.Screen,2_3_1_0_1_47,2022-02-03T13:08:45.658Z,,,,,,,,,,,,,,,,,11,,,,,,,,,,,,,,224.88000000000466,,response,,,,4,F,,,,,,Space,keypress(Space),,,,instrumental,,,,----- -- ---- --- -- --- -------- ------------ ---------- --<br>- ------- ------ --------- -- ------------ -- --- ---- -----<br>------ ---- ---- ------ ------ ------- --- ----- ---------<br>---- --- -------- -------- --- --- -- ------- --- --- -----<br>-- --- ------ ------- --- --- -------- mere --------- --<br>---------- -- -------- ----------------,249779,249766,249529.24,249529,249541.12,249791.08,,47,mere
screen,html.Screen,2_3_1_0_1_48,2022-02-03T13:08:45.875Z,,,,,,,,,,,,,,,,,11,,,,,,,,,,,,,,178.9200000000128,,response,,,,4,F,,,,,,Space,keypress(Space),,,,instrumental,,,,----- -- ---- --- -- --- -------- ------------ ---------- --<br>- ------- ------ --------- -- ------------ -- --- ---- -----<br>------ ---- ---- ------ ------ ------- --- ----- ---------<br>---- --- -------- -------- --- --- -- ------- --- --- -----<br>-- --- ------ ------- --- --- -------- ---- existence --<br>---------- -- -------- ----------------,249995,249970,249779.06,249779,249791.08,250007.72,,48,existence
screen,html.Screen,2_3_1_0_1_49,2022-02-03T13:08:46.221Z,,,,,,,,,,,,,,,,,11,,,,,,,,,,,,,,321.27999999999884,,response,,,,4,F,,,,,,Space,keypress(Space),,,,instrumental,,,,----- -- ---- --- -- --- -------- ------------ ---------- --<br>- ------- ------ --------- -- ------------ -- --- ---- -----<br>------ ---- ---- ------ ------ ------- --- ----- ---------<br>---- --- -------- -------- --- --- -- ------- --- --- -----<br>-- --- ------ ------- --- --- -------- ---- --------- is<br>---------- -- -------- ----------------,250341,250329,249995.6,249996,250007.72,250357.68,,49,is
screen,html.Screen,2_3_1_0_1_50,2022-02-03T13:08:46.464Z,,,,,,,,,,,,,,,,,11,,,,,,,,,,,,,,204.32000000000698,,response,,,,4,F,,,,,,Space,keypress(Space),,,,instrumental,,,,----- -- ---- --- -- --- -------- ------------ ---------- --<br>- ------- ------ --------- -- ------------ -- --- ---- -----<br>------ ---- ---- ------ ------ ------- --- ----- ---------<br>---- --- -------- -------- --- --- -- ------- --- --- -----<br>-- --- ------ ------- --- --- -------- ---- --------- --<br>sufficient -- -------- ----------------,250585,250562,250341.28,250341,250357.68,250590.98,,50,sufficient
