sender,sender_type,sender_id,timestamp,meta,,Blues,Classical,Country,Dance,Electronic,Folk,Gospel,Hip-Hop,Jazz,Latin,Musical/Film,New-age,Pop,Prolific_id,Provo_ID,R&B,Rap,Reggae,Religious,Rock,Soul,Swing,Traditional,age,artist_name,correct,correctResponse,distraction,duration,education,ended_on,familiarity,gender,headphone_check_performance,item,list,music_frequency,offensiveness,pleasantness,position_correct,preference,response,response_action,snippet_file,song_name,song_rating,sound,stimulus_1,stimulus_2,stimulus_3,text,time_commit,time_end,time_render,time_run,time_show,time_switch,url,word,word_ID
Prolific ID,html.Form,0,2022-02-17T16:44:00.281Z,"{""labjs_version"":""20.2.2"",""labjs_build"":{""flavor"":""production"",""commit"":""a25486e0c714a0ae2ce03ff94b7bb6896854dcfa""},""location"":""https://run.pavlovia.org/mvasilev/prolific2_music_f/"",""userAgent"":""Mozilla/5.0 (Windows NT 10.0; Win64; x64) AppleWebKit/537.36 (KHTML, like Gecko) Chrome/98.0.4758.102 Safari/537.36"",""platform"":""Win32"",""language"":""en-GB"",""locale"":""en-GB"",""timeZone"":""Europe/London"",""timezoneOffset"":0,""screen_width"":1366,""screen_height"":768,""scroll_width"":1366,""scroll_height"":577,""window_innerWidth"":1366,""window_innerHeight"":625,""devicePixelRatio"":1}",,,,,,,,,,,,,,,614737a4f5b4c0a971902323,,,,,,,,,,,,,,,21795.94899998808,,form submission,,,,,,,,,,,,,,,,,,,,,30327.099999964237,30326.69999998808,8414.174,8392.5,8530.751,30525.559,{},,
Introduction,html.Screen,1_0,2022-02-17T16:44:16.969Z,,,,,,,,,,,,,,,,,,,,,,,,,,,,,,,16487.540999964236,,response,,,,,,,,,,,continue,click button,,,,,,,,,47015.299999952316,47013.09999996424,30292.217,30327.399999976158,30525.559,47154.891,,,
Volume calibration,html.Screen,1_1,2022-02-17T16:44:53.501Z,,,,,,,,,,,,,,,,,,,,,,,,,,,,,,,36389.708999964234,,response,,,,,,,,,,,continue,click button,,,,,,,,,83547.39999997616,83544.59999996424,47004.934,47015.299999952316,47154.891,83546.243,,,
Task instructions,html.Screen,1_2,2022-02-17T16:45:07.305Z,,,,,,,,,,,,,,,,,,,,,,,,,,,,,,,13803.856999964235,,response,,,,,,,,,,,continue,click button,,,,,,,,,97351.09999996424,97350.09999996424,83529.688,83547.5,83546.243,97376.324,,,
Sounds,html.Screen,1_3_0_0,2022-02-17T16:45:11.601Z,,,,,,,,,,,,,,,,,,,,,,,,,,,,,,,4282.379000000001,,timeout,,,,,,,,,1,,,,,,,,S,O,I,,101646.79999995232,101608.719,97343.042,97351.29999995232,97376.324,101658.703,,,
Judgement,html.Screen,1_3_0_1,2022-02-17T16:45:14.524Z,,,,,,,,,,,,,,,,,,,,,,,,,,,,true,1,,2909.996999988085,,response,,,,,,,,,1,,1,click #choice-1,,,,,S,O,I,,104569.59999996424,104568.69999998808,101608.719,101647.19999998808,101658.703,104574.608,,,
Trial,flow.Sequence,1_3_0,2022-02-17T16:45:14.524Z,,,,,,,,,,,,,,,,,,,,,,,,,,,,,,,7192.375999988086,,completion,,,,,,,,,1,,,,,,,,S,O,I,,104569.89999997616,104568.69999998808,97343.042,97351.19999998808,97376.324,104574.608,,,
Sounds,html.Screen,1_3_1_0,2022-02-17T16:45:18.762Z,,,,,,,,,,,,,,,,,,,,,,,,,,,,,,,4249.099000000002,,timeout,,,,,,,,,1,,,,,,,,S,I,O,,108808.09999996424,108807.015,104558.01,104570,104574.608,108823.707,,,
Judgement,html.Screen,1_3_1_1,2022-02-17T16:45:20.641Z,,,,,,,,,,,,,,,,,,,,,,,,,,,,true,1,,1862.1929999761633,,response,,,,,,,,,1,,1,click #choice-1,,,,,S,I,O,,110687,110685.89999997616,108807.015,108808.39999997616,108823.707,110689.826,,,
Trial,flow.Sequence,1_3_1,2022-02-17T16:45:20.641Z,,,,,,,,,,,,,,,,,,,,,,,,,,,,,,,6111.291999976165,,completion,,,,,,,,,1,,,,,,,,S,I,O,,110687.29999995232,110685.89999997616,104558.01,104570,104574.608,110689.826,,,
Sounds,html.Screen,1_3_2_0,2022-02-17T16:45:24.878Z,,,,,,,,,,,,,,,,,,,,,,,,,,,,,,,4249.016000000003,,timeout,,,,,,,,,3,,,,,,,,O,I,S,,114923.5,114922.2,110673.189,110687.39999997616,110689.826,114938.842,,,
Judgement,html.Screen,1_3_2_1,2022-02-17T16:45:25.949Z,,,,,,,,,,,,,,,,,,,,,,,,,,,,true,3,,1055.457999952312,,response,,,,,,,,,3,,3,click #choice-3,,,,,O,I,S,,115995,115994.29999995232,114922.2,114924.39999997616,114938.842,116005.23,,,
Trial,flow.Sequence,1_3_2,2022-02-17T16:45:25.949Z,,,,,,,,,,,,,,,,,,,,,,,,,,,,,,,5304.473999952315,,completion,,,,,,,,,3,,,,,,,,O,I,S,,115995.19999998808,115994.29999995232,110673.189,110687.39999997616,110689.826,116005.23,,,
Sounds,html.Screen,1_3_3_0,2022-02-17T16:45:30.193Z,,,,,,,,,,,,,,,,,,,,,,,,,,,,,,,4249,,timeout,,,,,,,,,2,,,,,,,,O,S,I,,120238.89999997616,120237.633,115988.748,115995.29999995232,116005.23,120254.23,,,
Judgement,html.Screen,1_3_3_1,2022-02-17T16:45:31.371Z,,,,,,,,,,,,,,,,,,,,,,,,,,,,true,2,,1161.9699999880831,,response,,,,,,,,,2,,2,click #choice-2,,,,,O,S,I,,121417.39999997616,121416.19999998808,120237.633,120239.19999998808,120254.23,121420.62,,,
Trial,flow.Sequence,1_3_3,2022-02-17T16:45:31.372Z,,,,,,,,,,,,,,,,,,,,,,,,,,,,,,,5410.969999988083,,completion,,,,,,,,,2,,,,,,,,O,S,I,,121417.59999996424,121416.19999998808,115988.748,115995.29999995232,116005.23,121420.62,,,
Sounds,html.Screen,1_3_4_0,2022-02-17T16:45:35.608Z,,,,,,,,,,,,,,,,,,,,,,,,,,,,,,,4249.1889999999985,,timeout,,,,,,,,,2,,,,,,,,I,S,O,,125654.79999995232,125653.04,121404.034,121417.79999995232,121420.62,125669.809,,,
Judgement,html.Screen,1_3_4_1,2022-02-17T16:45:36.342Z,,,,,,,,,,,,,,,,,,,,,,,,,,,,true,2,,717.8909999880852,,response,,,,,,,,,2,,2,click #choice-2,,,,,I,S,O,,126388.59999996424,126387.69999998808,125653.04,125655.19999998808,125669.809,126402.752,,,
Trial,flow.Sequence,1_3_4,2022-02-17T16:45:36.342Z,,,,,,,,,,,,,,,,,,,,,,,,,,,,,,,4967.079999988084,,completion,,,,,,,,,2,,,,,,,,I,S,O,,126388.59999996424,126387.69999998808,121404.034,121417.79999995232,121420.62,126402.752,,,
Sounds,html.Screen,1_3_5_0,2022-02-17T16:45:40.590Z,,,,,,,,,,,,,,,,,,,,,,,,,,,,,,,4249.0610000000015,,timeout,,,,,,,,,3,,,,,,,,I,O,S,,130636.29999995232,130635.186,126386.105,126388.79999995232,126402.752,130651.813,,,
Judgement,html.Screen,1_3_5_1,2022-02-17T16:45:41.315Z,,,,,,,,,,,,,,,,,,,,,,,,,,,,true,3,,708.3869999880844,,response,,,,,,,,,3,,3,click #choice-3,,,,,I,O,S,,131361.19999998808,131360.19999998808,130635.186,130636.59999996424,130651.813,131384.952,,,
Trial,flow.Sequence,1_3_5,2022-02-17T16:45:41.315Z,,,,,,,,,,,,,,,,,,,,,,,,,,,,,,,4957.447999988086,,completion,,,,,,,,,3,,,,,,,,I,O,S,,131361.39999997616,131360.19999998808,126386.105,126388.79999995232,126402.752,131384.952,,,
Task,flow.Loop,1_3,2022-02-17T16:45:41.319Z,,,,,,,,,,,,,,,,,,,,,,,,,,,,,,,33983.875999988086,,completion,,,1,,,,,,,,,,,,,,,,,,131365,131360.19999998808,97343.042,97351.19999998808,97376.324,131384.952,,,
Trap,html.Screen,1_4,2022-02-17T16:45:41.320Z,,,,,,,,,,,,,,,,,,,,,,,,,,,,,,,NaN,,skipped,,,,,,,,,,,,,,,,,,,,,131366,131360.19999998808,,131365.89999997616,,131384.952,,,
Thanks,html.Screen,1_5,2022-02-17T16:45:46.920Z,,,,,,,,,,,,,,,,,,,,,,,,,,,,,,,5580.847999952326,,response,,,,,,,,,,,continue,click button,,,,,,,,,136966.59999996424,136965.79999995232,131351.676,131366.09999996424,131384.952,142798.834,,,
Headphone screening,flow.Sequence,1,2022-02-17T16:45:46.920Z,,,,,,,,,,,,,,,,,,,,,,,,,,,,,,,106440.24099995231,,completion,,,,,,,,,,,,,,,,,,,,,136966.69999998808,136965.79999995232,30292.217,30327.399999976158,30525.559,142798.834,,,
Instructions,html.Page,2_0,2022-02-17T16:46:25.266Z,,,,,,,,,,,,,,,,,,,,,,,,,,,,,,,32512.965999952314,,form submission,,,,,,,,,,,,,,,,,,,,,175312,175311.79999995232,142615.621,142750.5,142798.834,175307.877,,,
Holding screen,html.Screen,2_1_0_0,2022-02-17T16:46:35.243Z,,,,,,,,,,,,,,,,,,,,,,,,,,,,,,,10114.282000000007,,timeout,,,,,,,,,,,,,,,,,,,,,185289.89999997616,185288.863,175274.608,175312.19999998808,175307.877,185422.159,,,
screen,html.Screen,2_1_0_1_0,2022-02-17T16:46:36.700Z,,,,,,,,,,,,,,,,,53,,,,,,,,,,,,,,1318.140999952302,,response,,,,99,,,,,,,Space,keypress(Space),,,,,,,,When -- ----- -- ------ - ------- --- ----------<br>------------- ------ ------ ---- ---- ------- ----- -- ----<br>-------- ------- -- ---------- --- - --- ----- ----- ----<br>---- --- --- ----- --- ---- ---- ------- ----- ---- -------<br>--- --- -- ----- -- --- ---- -- --- ---- -- ------ ------<br>--- ----- -- ----,186746.09999996424,186740.29999995232,185288.863,185290.19999998808,185422.159,186755.26,,0,When
screen,html.Screen,2_1_0_1_1,2022-02-17T16:46:37.484Z,,,,,,,,,,,,,,,,,53,,,,,,,,,,,,,,773.539999952307,,response,,,,99,,,,,,,Space,keypress(Space),,,,,,,,---- it ----- -- ------ - ------- --- ----------<br>------------- ------ ------ ---- ---- ------- ----- -- ----<br>-------- ------- -- ---------- --- - --- ----- ----- ----<br>---- --- --- ----- --- ---- ---- ------- ----- ---- -------<br>--- --- -- ----- -- --- ---- -- --- ---- -- ------ ------<br>--- ----- -- ----,187530.09999996424,187528.79999995232,186738.725,186746.5,186755.26,187538.354,,1,it
screen,html.Screen,2_1_0_1_2,2022-02-17T16:46:38.385Z,,,,,,,,,,,,,,,,,53,,,,,,,,,,,,,,891.5459999761661,,response,,,,99,,,,,,,Space,keypress(Space),,,,,,,,---- -- comes -- ------ - ------- --- ----------<br>------------- ------ ------ ---- ---- ------- ----- -- ----<br>-------- ------- -- ---------- --- - --- ----- ----- ----<br>---- --- --- ----- --- ---- ---- ------- ----- ---- -------<br>--- --- -- ----- -- --- ---- -- --- ---- -- ------ ------<br>--- ----- -- ----,188431.29999995232,188429.89999997616,187521.812,187530.39999997616,187538.354,188438.069,,2,comes
screen,html.Screen,2_1_0_1_3,2022-02-17T16:46:39.112Z,,,,,,,,,,,,,,,,,53,,,,,,,,,,,,,,719.5309999642486,,response,,,,99,,,,,,,Space,keypress(Space),,,,,,,,---- -- ----- to ------ - ------- --- ----------<br>------------- ------ ------ ---- ---- ------- ----- -- ----<br>-------- ------- -- ---------- --- - --- ----- ----- ----<br>---- --- --- ----- --- ---- ---- ------- ----- ---- -------<br>--- --- -- ----- -- --- ---- -- --- ---- -- ------ ------<br>--- ----- -- ----,189158.59999996424,189157.59999996424,188421.59,188431.59999996424,188438.069,189171.24,,3,to
screen,html.Screen,2_1_0_1_4,2022-02-17T16:46:39.912Z,,,,,,,,,,,,,,,,,53,,,,,,,,,,,,,,785.4599999880884,,response,,,,99,,,,,,,Space,keypress(Space),,,,,,,,---- -- ----- -- having - ------- --- ----------<br>------------- ------ ------ ---- ---- ------- ----- -- ----<br>-------- ------- -- ---------- --- - --- ----- ----- ----<br>---- --- --- ----- --- ---- ---- ------- ----- ---- -------<br>--- --- -- ----- -- --- ---- -- --- ---- -- ------ ------<br>--- ----- -- ----,189957.89999997616,189956.69999998808,189154.648,189158.79999995232,189171.24,189971.184,,4,having
screen,html.Screen,2_1_0_1_5,2022-02-17T16:46:40.334Z,,,,,,,,,,,,,,,,,53,,,,,,,,,,,,,,407.41599996422883,,response,,,,99,,,,,,,Space,keypress(Space),,,,,,,,---- -- ----- -- ------ a ------- --- ----------<br>------------- ------ ------ ---- ---- ------- ----- -- ----<br>-------- ------- -- ---------- --- - --- ----- ----- ----<br>---- --- --- ----- --- ---- ---- ------- ----- ---- -------<br>--- --- -- ----- -- --- ---- -- --- ---- -- ------ ------<br>--- ----- -- ----,190380,190378.59999996424,189954.467,189958.29999995232,189971.184,190387.629,,5,a
screen,html.Screen,2_1_0_1_6,2022-02-17T16:46:41.151Z,,,,,,,,,,,,,,,,,53,,,,,,,,,,,,,,807.8710000000137,,response,,,,99,,,,,,,Space,keypress(Space),,,,,,,,---- -- ----- -- ------ - lasting --- ----------<br>------------- ------ ------ ---- ---- ------- ----- -- ----<br>-------- ------- -- ---------- --- - --- ----- ----- ----<br>---- --- --- ----- --- ---- ---- ------- ----- ---- -------<br>--- --- -- ----- -- --- ---- -- --- ---- -- ------ ------<br>--- ----- -- ----,191197.5,191195.5,190371.088,190380.29999995232,190387.629,191204.142,,6,lasting
screen,html.Screen,2_1_0_1_7,2022-02-17T16:46:41.912Z,,,,,,,,,,,,,,,,,53,,,,,,,,,,,,,,752.3580000000075,,response,,,,99,,,,,,,Space,keypress(Space),,,,,,,,---- -- ----- -- ------ - ------- and ----------<br>------------- ------ ------ ---- ---- ------- ----- -- ----<br>-------- ------- -- ---------- --- - --- ----- ----- ----<br>---- --- --- ----- --- ---- ---- ------- ----- ---- -------<br>--- --- -- ----- -- --- ---- -- --- ---- -- ------ ------<br>--- ----- -- ----,191958.29999995232,191956.5,191187.617,191198.09999996424,191204.142,191970.711,,7,and
screen,html.Screen,2_1_0_1_8,2022-02-17T16:46:42.576Z,,,,,,,,,,,,,,,,,53,,,,,,,,,,,,,,650.2889999999898,,response,,,,99,,,,,,,Space,keypress(Space),,,,,,,,---- -- ----- -- ------ - ------- --- fulfilling<br>------------- ------ ------ ---- ---- ------- ----- -- ----<br>-------- ------- -- ---------- --- - --- ----- ----- ----<br>---- --- --- ----- --- ---- ---- ------- ----- ---- -------<br>--- --- -- ----- -- --- ---- -- --- ---- -- ------ ------<br>--- ----- -- ----,192622.59999996424,192621,191954.086,191958.59999996424,191970.711,192637.238,,8,fulfilling
screen,html.Screen,2_1_0_1_9,2022-02-17T16:46:43.234Z,,,,,,,,,,,,,,,,,53,,,,,,,,,,,,,,641.7619999999879,,response,,,,99,,,,,,,Space,keypress(Space),,,,,,,,"---- -- ----- -- ------ - ------- --- ----------<br>relationship, ------ ------ ---- ---- ------- ----- -- ----<br>-------- ------- -- ---------- --- - --- ----- ----- ----<br>---- --- --- ----- --- ---- ---- ------- ----- ---- -------<br>--- --- -- ----- -- --- ---- -- --- ---- -- ------ ------<br>--- ----- -- ----",193280.59999996424,193279,192620.59,192622.89999997616,192637.238,193286.95,,9,"relationship,"
screen,html.Screen,2_1_0_1_10,2022-02-17T16:46:44.012Z,,,,,,,,,,,,,,,,,53,,,,,,,,,,,,,,770.4499999761465,,response,,,,99,,,,,,,Space,keypress(Space),,,,,,,,---- -- ----- -- ------ - ------- --- ----------<br>------------- common ------ ---- ---- ------- ----- -- ----<br>-------- ------- -- ---------- --- - --- ----- ----- ----<br>---- --- --- ----- --- ---- ---- ------- ----- ---- -------<br>--- --- -- ----- -- --- ---- -- --- ---- -- ------ ------<br>--- ----- -- ----,194058.89999997616,194057.39999997616,193270.368,193280.89999997616,193286.95,194070.221,,10,common
screen,html.Screen,2_1_0_1_11,2022-02-17T16:46:44.611Z,,,,,,,,,,,,,,,,,53,,,,,,,,,,,,,,585.3789999642468,,response,,,,99,,,,,,,Space,keypress(Space),,,,,,,,---- -- ----- -- ------ - ------- --- ----------<br>------------- ------ wisdom ---- ---- ------- ----- -- ----<br>-------- ------- -- ---------- --- - --- ----- ----- ----<br>---- --- --- ----- --- ---- ---- ------- ----- ---- -------<br>--- --- -- ----- -- --- ---- -- --- ---- -- ------ ------<br>--- ----- -- ----,194657,194655.59999996424,194053.598,194059.39999997616,194070.221,194670.073,,11,wisdom
screen,html.Screen,2_1_0_1_12,2022-02-17T16:46:45.353Z,,,,,,,,,,,,,,,,,53,,,,,,,,,,,,,,728.1269999880751,,response,,,,99,,,,,,,Space,keypress(Space),,,,,,,,---- -- ----- -- ------ - ------- --- ----------<br>------------- ------ ------ says ---- ------- ----- -- ----<br>-------- ------- -- ---------- --- - --- ----- ----- ----<br>---- --- --- ----- --- ---- ---- ------- ----- ---- -------<br>--- --- -- ----- -- --- ---- -- --- ---- -- ------ ------<br>--- ----- -- ----,195399.79999995232,195398.19999998808,194653.396,194657.29999995232,194670.073,195403.096,,12,says
screen,html.Screen,2_1_0_1_13,2022-02-17T16:46:46.109Z,,,,,,,,,,,,,,,,,53,,,,,,,,,,,,,,750.8039999761677,,response,,,,99,,,,,,,Space,keypress(Space),,,,,,,,---- -- ----- -- ------ - ------- --- ----------<br>------------- ------ ------ ---- that ------- ----- -- ----<br>-------- ------- -- ---------- --- - --- ----- ----- ----<br>---- --- --- ----- --- ---- ---- ------- ----- ---- -------<br>--- --- -- ----- -- --- ---- -- --- ---- -- ------ ------<br>--- ----- -- ----,196155.59999996424,196153.89999997616,195386.581,195400.09999996424,195403.096,196169.638,,13,that
screen,html.Screen,2_1_0_1_14,2022-02-17T16:46:46.858Z,,,,,,,,,,,,,,,,,53,,,,,,,,,,,,,,732.8619999999937,,response,,,,99,,,,,,,Space,keypress(Space),,,,,,,,---- -- ----- -- ------ - ------- --- ----------<br>------------- ------ ------ ---- ---- feeling ----- -- ----<br>-------- ------- -- ---------- --- - --- ----- ----- ----<br>---- --- --- ----- --- ---- ---- ------- ----- ---- -------<br>--- --- -- ----- -- --- ---- -- --- ---- -- ------ ------<br>--- ----- -- ----,196904.69999998808,196902.5,196153.084,196155.89999997616,196169.638,196919.46,,14,feeling
screen,html.Screen,2_1_0_1_15,2022-02-17T16:46:47.548Z,,,,,,,,,,,,,,,,,53,,,,,,,,,,,,,,670.4399999761663,,response,,,,99,,,,,,,Space,keypress(Space),,,,,,,,---- -- ----- -- ------ - ------- --- ----------<br>------------- ------ ------ ---- ---- ------- close -- ----<br>-------- ------- -- ---------- --- - --- ----- ----- ----<br>---- --- --- ----- --- ---- ---- ------- ----- ---- -------<br>--- --- -- ----- -- --- ---- -- --- ---- -- ------ ------<br>--- ----- -- ----,197594,197589.89999997616,196902.917,196904.89999997616,196919.46,197602.562,,15,close
screen,html.Screen,2_1_0_1_16,2022-02-17T16:46:47.939Z,,,,,,,,,,,,,,,,,53,,,,,,,,,,,,,,382.1379999880737,,response,,,,99,,,,,,,Space,keypress(Space),,,,,,,,---- -- ----- -- ------ - ------- --- ----------<br>------------- ------ ------ ---- ---- ------- ----- to ----<br>-------- ------- -- ---------- --- - --- ----- ----- ----<br>---- --- --- ----- --- ---- ---- ------- ----- ---- -------<br>--- --- -- ----- -- --- ---- -- --- ---- -- ------ ------<br>--- ----- -- ----,197985.39999997616,197984.69999998808,197586.055,197594.39999997616,197602.562,198002.475,,16,to
screen,html.Screen,2_1_0_1_17,2022-02-17T16:46:48.515Z,,,,,,,,,,,,,,,,,53,,,,,,,,,,,,,,558.3249999523105,,response,,,,99,,,,,,,Space,keypress(Space),,,,,,,,---- -- ----- -- ------ - ------- --- ----------<br>------------- ------ ------ ---- ---- ------- ----- -- your<br>-------- ------- -- ---------- --- - --- ----- ----- ----<br>---- --- --- ----- --- ---- ---- ------- ----- ---- -------<br>--- --- -- ----- -- --- ---- -- --- ---- -- ------ ------<br>--- ----- -- ----,198561.79999995232,198560.79999995232,197985.826,197985.59999996424,198002.475,198569.017,,17,your
screen,html.Screen,2_1_0_1_18,2022-02-17T16:46:49.099Z,,,,,,,,,,,,,,,,,53,,,,,,,,,,,,,,575.4830000000075,,response,,,,99,,,,,,,Space,keypress(Space),,,,,,,,---- -- ----- -- ------ - ------- --- ----------<br>------------- ------ ------ ---- ---- ------- ----- -- ----<br>romantic ------- -- ---------- --- - --- ----- ----- ----<br>---- --- --- ----- --- ---- ---- ------- ----- ---- -------<br>--- --- -- ----- -- --- ---- -- --- ---- -- ------ ------<br>--- ----- -- ----,199145.69999998808,199144.5,198552.412,198562.09999996424,198569.017,199152.194,,18,romantic
screen,html.Screen,2_1_0_1_19,2022-02-17T16:46:49.640Z,,,,,,,,,,,,,,,,,53,,,,,,,,,,,,,,532.1059999523277,,response,,,,99,,,,,,,Space,keypress(Space),,,,,,,,---- -- ----- -- ------ - ------- --- ----------<br>------------- ------ ------ ---- ---- ------- ----- -- ----<br>-------- partner -- ---------- --- - --- ----- ----- ----<br>---- --- --- ----- --- ---- ---- ------- ----- ---- -------<br>--- --- -- ----- -- --- ---- -- --- ---- -- ------ ------<br>--- ----- -- ----,199686.39999997616,199684.29999995232,199135.611,199145.79999995232,199152.194,199702.121,,19,partner
screen,html.Screen,2_1_0_1_20,2022-02-17T16:46:50.147Z,,,,,,,,,,,,,,,,,53,,,,,,,,,,,,,,489.9789999642235,,response,,,,99,,,,,,,Space,keypress(Space),,,,,,,,---- -- ----- -- ------ - ------- --- ----------<br>------------- ------ ------ ---- ---- ------- ----- -- ----<br>-------- ------- is ---------- --- - --- ----- ----- ----<br>---- --- --- ----- --- ---- ---- ------- ----- ---- -------<br>--- --- -- ----- -- --- ---- -- --- ---- -- ------ ------<br>--- ----- -- ----,200193.89999997616,200192.09999996424,199685.472,199687,199702.121,200202.015,,20,is
screen,html.Screen,2_1_0_1_21,2022-02-17T16:46:50.649Z,,,,,,,,,,,,,,,,,53,,,,,,,,,,,,,,491.58499996422324,,response,,,,99,,,,,,,Space,keypress(Space),,,,,,,,---- -- ----- -- ------ - ------- --- ----------<br>------------- ------ ------ ---- ---- ------- ----- -- ----<br>-------- ------- -- paramount. --- - --- ----- ----- ----<br>---- --- --- ----- --- ---- ---- ------- ----- ---- -------<br>--- --- -- ----- -- --- ---- -- --- ---- -- ------ ------<br>--- ----- -- ----,200695.09999996424,200693.59999996424,200185.327,200194.29999995232,200202.015,200718.583,,21,paramount.
screen,html.Screen,2_1_0_1_22,2022-02-17T16:46:51.221Z,,,,,,,,,,,,,,,,,53,,,,,,,,,,,,,,547.6169999880658,,response,,,,99,,,,,,,Space,keypress(Space),,,,,,,,---- -- ----- -- ------ - ------- --- ----------<br>------------- ------ ------ ---- ---- ------- ----- -- ----<br>-------- ------- -- ---------- But - --- ----- ----- ----<br>---- --- --- ----- --- ---- ---- ------- ----- ---- -------<br>--- --- -- ----- -- --- ---- -- --- ---- -- ------ ------<br>--- ----- -- ----,201267.69999998808,201266.19999998808,200685.251,200695.5,200718.583,201285.201,,22,But
screen,html.Screen,2_1_0_1_23,2022-02-17T16:46:51.732Z,,,,,,,,,,,,,,,,,53,,,,,,,,,,,,,,491.6989999761572,,response,,,,99,,,,,,,Space,keypress(Space),,,,,,,,---- -- ----- -- ------ - ------- --- ----------<br>------------- ------ ------ ---- ---- ------- ----- -- ----<br>-------- ------- -- ---------- --- a --- ----- ----- ----<br>---- --- --- ----- --- ---- ---- ------- ----- ---- -------<br>--- --- -- ----- -- --- ---- -- --- ---- -- ------ ------<br>--- ----- -- ----,201778.39999997616,201776.89999997616,201268.523,201268,201285.201,201784.94,,23,a
screen,html.Screen,2_1_0_1_24,2022-02-17T16:46:52.418Z,,,,,,,,,,,,,,,,,53,,,,,,,,,,,,,,677.5599999999977,,response,,,,99,,,,,,,Space,keypress(Space),,,,,,,,---- -- ----- -- ------ - ------- --- ----------<br>------------- ------ ------ ---- ---- ------- ----- -- ----<br>-------- ------- -- ---------- --- - new ----- ----- ----<br>---- --- --- ----- --- ---- ---- ------- ----- ---- -------<br>--- --- -- ----- -- --- ---- -- --- ---- -- ------ ------<br>--- ----- -- ----,202464.39999997616,202462.5,201768.361,201779,201784.94,202468.089,,24,new
screen,html.Screen,2_1_0_1_25,2022-02-17T16:46:52.955Z,,,,,,,,,,,,,,,,,53,,,,,,,,,,,,,,531.3109999761509,,response,,,,99,,,,,,,Space,keypress(Space),,,,,,,,---- -- ----- -- ------ - ------- --- ----------<br>------------- ------ ------ ---- ---- ------- ----- -- ----<br>-------- ------- -- ---------- --- - --- study ----- ----<br>---- --- --- ----- --- ---- ---- ------- ----- ---- -------<br>--- --- -- ----- -- --- ---- -- --- ---- -- ------ ------<br>--- ----- -- ----,203001,202999.39999997616,202451.594,202464.59999996424,202468.089,203018.031,,25,study
screen,html.Screen,2_1_0_1_26,2022-02-17T16:46:53.386Z,,,,,,,,,,,,,,,,,53,,,,,,,,,,,,,,412.4690000000119,,response,,,,99,,,,,,,Space,keypress(Space),,,,,,,,---- -- ----- -- ------ - ------- --- ----------<br>------------- ------ ------ ---- ---- ------- ----- -- ----<br>-------- ------- -- ---------- --- - --- ----- finds ----<br>---- --- --- ----- --- ---- ---- ------- ----- ---- -------<br>--- --- -- ----- -- --- ---- -- --- ---- -- ------ ------<br>--- ----- -- ----,203432.19999998808,203430.5,203001.446,203001.29999995232,203018.031,203434.566,,26,finds
screen,html.Screen,2_1_0_1_27,2022-02-17T16:46:53.779Z,,,,,,,,,,,,,,,,,53,,,,,,,,,,,,,,389.73399995232467,,response,,,,99,,,,,,,Space,keypress(Space),,,,,,,,---- -- ----- -- ------ - ------- --- ----------<br>------------- ------ ------ ---- ---- ------- ----- -- ----<br>-------- ------- -- ---------- --- - --- ----- ----- that<br>---- --- --- ----- --- ---- ---- ------- ----- ---- -------<br>--- --- -- ----- -- --- ---- -- --- ---- -- ------ ------<br>--- ----- -- ----,203825.89999997616,203824.29999995232,203417.985,203432.39999997616,203434.566,203834.53,,27,that
screen,html.Screen,2_1_0_1_28,2022-02-17T16:46:54.286Z,,,,,,,,,,,,,,,,,53,,,,,,,,,,,,,,496.47000000000116,,response,,,,99,,,,,,,Space,keypress(Space),,,,,,,,---- -- ----- -- ------ - ------- --- ----------<br>------------- ------ ------ ---- ---- ------- ----- -- ----<br>-------- ------- -- ---------- --- - --- ----- ----- ----<br>it's --- --- ----- --- ---- ---- ------- ----- ---- -------<br>--- --- -- ----- -- --- ---- -- --- ---- -- ------ ------<br>--- ----- -- ----,204332.5,204331,203817.899,203826.19999998808,203834.53,204355.113,,28,it's
screen,html.Screen,2_1_0_1_29,2022-02-17T16:46:54.740Z,,,,,,,,,,,,,,,,,53,,,,,,,,,,,,,,429.6869999523042,,response,,,,99,,,,,,,Space,keypress(Space),,,,,,,,---- -- ----- -- ------ - ------- --- ----------<br>------------- ------ ------ ---- ---- ------- ----- -- ----<br>-------- ------- -- ---------- --- - --- ----- ----- ----<br>---- not --- ----- --- ---- ---- ------- ----- ---- -------<br>--- --- -- ----- -- --- ---- -- --- ---- -- ------ ------<br>--- ----- -- ----,204786.39999997616,204784.79999995232,204317.785,204332.79999995232,204355.113,204800.998,,29,not
screen,html.Screen,2_1_0_1_30,2022-02-17T16:46:55.212Z,,,,,,,,,,,,,,,,,53,,,,,,,,,,,,,,455.6019999642449,,response,,,,99,,,,,,,Space,keypress(Space),,,,,,,,---- -- ----- -- ------ - ------- --- ----------<br>------------- ------ ------ ---- ---- ------- ----- -- ----<br>-------- ------- -- ---------- --- - --- ----- ----- ----<br>---- --- how ----- --- ---- ---- ------- ----- ---- -------<br>--- --- -- ----- -- --- ---- -- --- ---- -- ------ ------<br>--- ----- -- ----,205258.19999998808,205256.59999996424,204784.341,204786.69999998808,204800.998,205267.55,,30,how
screen,html.Screen,2_1_0_1_31,2022-02-17T16:46:55.621Z,,,,,,,,,,,,,,,,,53,,,,,,,,,,,,,,398.45000000001164,,response,,,,99,,,,,,,Space,keypress(Space),,,,,,,,---- -- ----- -- ------ - ------- --- ----------<br>------------- ------ ------ ---- ---- ------- ----- -- ----<br>-------- ------- -- ---------- --- - --- ----- ----- ----<br>---- --- --- close --- ---- ---- ------- ----- ---- -------<br>--- --- -- ----- -- --- ---- -- --- ---- -- ------ ------<br>--- ----- -- ----,205667,205666,205250.94,205258.5,205267.55,205683.978,,31,close
screen,html.Screen,2_1_0_1_32,2022-02-17T16:46:56.054Z,,,,,,,,,,,,,,,,,53,,,,,,,,,,,,,,415.6219999642344,,response,,,,99,,,,,,,Space,keypress(Space),,,,,,,,---- -- ----- -- ------ - ------- --- ----------<br>------------- ------ ------ ---- ---- ------- ----- -- ----<br>-------- ------- -- ---------- --- - --- ----- ----- ----<br>---- --- --- ----- you ---- ---- ------- ----- ---- -------<br>--- --- -- ----- -- --- ---- -- --- ---- -- ------ ------<br>--- ----- -- ----,206100.09999996424,206099.59999996424,205667.43,205667.29999995232,205683.978,206117.209,,32,you
screen,html.Screen,2_1_0_1_33,2022-02-17T16:46:56.548Z,,,,,,,,,,,,,,,,,53,,,,,,,,,,,,,,476.5909999523137,,response,,,,99,,,,,,,Space,keypress(Space),,,,,,,,---- -- ----- -- ------ - ------- --- ----------<br>------------- ------ ------ ---- ---- ------- ----- -- ----<br>-------- ------- -- ---------- --- - --- ----- ----- ----<br>---- --- --- ----- --- feel ---- ------- ----- ---- -------<br>--- --- -- ----- -- --- ---- -- --- ---- -- ------ ------<br>--- ----- -- ----,206594.5,206593.79999995232,206100.574,206100.29999995232,206117.209,206600.415,,33,feel
screen,html.Screen,2_1_0_1_34,2022-02-17T16:46:57.176Z,,,,,,,,,,,,,,,,,53,,,,,,,,,,,,,,620.1849999642291,,response,,,,99,,,,,,,Space,keypress(Space),,,,,,,,---- -- ----- -- ------ - ------- --- ----------<br>------------- ------ ------ ---- ---- ------- ----- -- ----<br>-------- ------- -- ---------- --- - --- ----- ----- ----<br>---- --- --- ----- --- ---- that ------- ----- ---- -------<br>--- --- -- ----- -- --- ---- -- --- ---- -- ------ ------<br>--- ----- -- ----,207222.19999998808,207220.59999996424,206583.82,206595.29999995232,206600.415,207233.731,,34,that
screen,html.Screen,2_1_0_1_35,2022-02-17T16:46:57.646Z,,,,,,,,,,,,,,,,,53,,,,,,,,,,,,,,457.36899996423745,,response,,,,99,,,,,,,Space,keypress(Space),,,,,,,,---- -- ----- -- ------ - ------- --- ----------<br>------------- ------ ------ ---- ---- ------- ----- -- ----<br>-------- ------- -- ---------- --- - --- ----- ----- ----<br>---- --- --- ----- --- ---- ---- matters ----- ---- -------<br>--- --- -- ----- -- --- ---- -- --- ---- -- ------ ------<br>--- ----- -- ----,207692.59999996424,207691.09999996424,207217.028,207222.5,207233.731,207700.188,,35,matters
screen,html.Screen,2_1_0_1_36,2022-02-17T16:46:58.173Z,,,,,,,,,,,,,,,,,53,,,,,,,,,,,,,,516.7119999761635,,response,,,,99,,,,,,,Space,keypress(Space),,,,,,,,"---- -- ----- -- ------ - ------- --- ----------<br>------------- ------ ------ ---- ---- ------- ----- -- ----<br>-------- ------- -- ---------- --- - --- ----- ----- ----<br>---- --- --- ----- --- ---- ---- ------- most, ---- -------<br>--- --- -- ----- -- --- ---- -- --- ---- -- ------ ------<br>--- ----- -- ----",208219.29999995232,208216.89999997616,207683.634,207693,207700.188,208233.514,,36,"most,"
screen,html.Screen,2_1_0_1_37,2022-02-17T16:46:58.700Z,,,,,,,,,,,,,,,,,53,,,,,,,,,,,,,,512.2859999523207,,response,,,,99,,,,,,,Space,keypress(Space),,,,,,,,---- -- ----- -- ------ - ------- --- ----------<br>------------- ------ ------ ---- ---- ------- ----- -- ----<br>-------- ------- -- ---------- --- - --- ----- ----- ----<br>---- --- --- ----- --- ---- ---- ------- ----- it's -------<br>--- --- -- ----- -- --- ---- -- --- ---- -- ------ ------<br>--- ----- -- ----,208746.79999995232,208745.79999995232,208216.833,208219.69999998808,208233.514,208749.967,,37,it's
screen,html.Screen,2_1_0_1_38,2022-02-17T16:46:59.210Z,,,,,,,,,,,,,,,,,53,,,,,,,,,,,,,,504.632999964233,,response,,,,99,,,,,,,Space,keypress(Space),,,,,,,,---- -- ----- -- ------ - ------- --- ----------<br>------------- ------ ------ ---- ---- ------- ----- -- ----<br>-------- ------- -- ---------- --- - --- ----- ----- ----<br>---- --- --- ----- --- ---- ---- ------- ----- ---- whether<br>--- --- -- ----- -- --- ---- -- --- ---- -- ------ ------<br>--- ----- -- ----,209256.39999997616,209254.59999996424,208733.4,208747.09999996424,208749.967,209266.579,,38,whether
screen,html.Screen,2_1_0_1_39,2022-02-17T16:46:59.878Z,,,,,,,,,,,,,,,,,53,,,,,,,,,,,,,,655.8209999761602,,response,,,,99,,,,,,,Space,keypress(Space),,,,,,,,---- -- ----- -- ------ - ------- --- ----------<br>------------- ------ ------ ---- ---- ------- ----- -- ----<br>-------- ------- -- ---------- --- - --- ----- ----- ----<br>---- --- --- ----- --- ---- ---- ------- ----- ---- -------<br>you --- -- ----- -- --- ---- -- --- ---- -- ------ ------<br>--- ----- -- ----,209924.19999998808,209922.39999997616,209249.959,209256.59999996424,209266.579,209933.252,,39,you
screen,html.Screen,2_1_0_1_40,2022-02-17T16:47:00.355Z,,,,,,,,,,,,,,,,,53,,,,,,,,,,,,,,466.64799997615046,,response,,,,99,,,,,,,Space,keypress(Space),,,,,,,,---- -- ----- -- ------ - ------- --- ----------<br>------------- ------ ------ ---- ---- ------- ----- -- ----<br>-------- ------- -- ---------- --- - --- ----- ----- ----<br>---- --- --- ----- --- ---- ---- ------- ----- ---- -------<br>--- are -- ----- -- --- ---- -- --- ---- -- ------ ------<br>--- ----- -- ----,210401.09999996424,210399.89999997616,209916.459,209924.79999995232,209933.252,210416.312,,40,are
screen,html.Screen,2_1_0_1_41,2022-02-17T16:47:00.999Z,,,,,,,,,,,,,,,,,53,,,,,,,,,,,,,,627.0879999761528,,response,,,,99,,,,,,,Space,keypress(Space),,,,,,,,---- -- ----- -- ------ - ------- --- ----------<br>------------- ------ ------ ---- ---- ------- ----- -- ----<br>-------- ------- -- ---------- --- - --- ----- ----- ----<br>---- --- --- ----- --- ---- ---- ------- ----- ---- -------<br>--- --- as ----- -- --- ---- -- --- ---- -- ------ ------<br>--- ----- -- ----,211045.29999995232,211043.39999997616,210399.66,210401.29999995232,210416.312,211049.433,,41,as
screen,html.Screen,2_1_0_1_42,2022-02-17T16:47:01.554Z,,,,,,,,,,,,,,,,,53,,,,,,,,,,,,,,549.1669999642472,,response,,,,99,,,,,,,Space,keypress(Space),,,,,,,,---- -- ----- -- ------ - ------- --- ----------<br>------------- ------ ------ ---- ---- ------- ----- -- ----<br>-------- ------- -- ---------- --- - --- ----- ----- ----<br>---- --- --- ----- --- ---- ---- ------- ----- ---- -------<br>--- --- -- close -- --- ---- -- --- ---- -- ------ ------<br>--- ----- -- ----,211600.29999995232,211598.59999996424,211032.932,211045.89999997616,211049.433,211615.974,,42,close
screen,html.Screen,2_1_0_1_43,2022-02-17T16:47:02.096Z,,,,,,,,,,,,,,,,,53,,,,,,,,,,,,,,524.6259999642498,,response,,,,99,,,,,,,Space,keypress(Space),,,,,,,,---- -- ----- -- ------ - ------- --- ----------<br>------------- ------ ------ ---- ---- ------- ----- -- ----<br>-------- ------- -- ---------- --- - --- ----- ----- ----<br>---- --- --- ----- --- ---- ---- ------- ----- ---- -------<br>--- --- -- ----- as --- ---- -- --- ---- -- ------ ------<br>--- ----- -- ----,212142.5,212140.59999996424,211599.409,211600.59999996424,211615.974,212149.175,,43,as
screen,html.Screen,2_1_0_1_44,2022-02-17T16:47:02.799Z,,,,,,,,,,,,,,,,,53,,,,,,,,,,,,,,694.7249999761698,,response,,,,99,,,,,,,Space,keypress(Space),,,,,,,,---- -- ----- -- ------ - ------- --- ----------<br>------------- ------ ------ ---- ---- ------- ----- -- ----<br>-------- ------- -- ---------- --- - --- ----- ----- ----<br>---- --- --- ----- --- ---- ---- ------- ----- ---- -------<br>--- --- -- ----- -- you ---- -- --- ---- -- ------ ------<br>--- ----- -- ----,212845.69999998808,212843.89999997616,212132.61,212143.09999996424,212149.175,212848.967,,44,you
screen,html.Screen,2_1_0_1_45,2022-02-17T16:47:03.546Z,,,,,,,,,,,,,,,,,53,,,,,,,,,,,,,,742.0329999999958,,response,,,,99,,,,,,,Space,keypress(Space),,,,,,,,---- -- ----- -- ------ - ------- --- ----------<br>------------- ------ ------ ---- ---- ------- ----- -- ----<br>-------- ------- -- ---------- --- - --- ----- ----- ----<br>---- --- --- ----- --- ---- ---- ------- ----- ---- -------<br>--- --- -- ----- -- --- want -- --- ---- -- ------ ------<br>--- ----- -- ----,213592.59999996424,213591,212832.438,212846.39999997616,212848.967,213598.805,,45,want
screen,html.Screen,2_1_0_1_46,2022-02-17T16:47:04.042Z,,,,,,,,,,,,,,,,,53,,,,,,,,,,,,,,488.2949999642442,,response,,,,99,,,,,,,Space,keypress(Space),,,,,,,,---- -- ----- -- ------ - ------- --- ----------<br>------------- ------ ------ ---- ---- ------- ----- -- ----<br>-------- ------- -- ---------- --- - --- ----- ----- ----<br>---- --- --- ----- --- ---- ---- ------- ----- ---- -------<br>--- --- -- ----- -- --- ---- to --- ---- -- ------ ------<br>--- ----- -- ----,214088.39999997616,214087.09999996424,213582.333,213592.89999997616,213598.805,214098.777,,46,to
screen,html.Screen,2_1_0_1_47,2022-02-17T16:47:04.631Z,,,,,,,,,,,,,,,,,53,,,,,,,,,,,,,,576.9229999880772,,response,,,,99,,,,,,,Space,keypress(Space),,,,,,,,"---- -- ----- -- ------ - ------- --- ----------<br>------------- ------ ------ ---- ---- ------- ----- -- ----<br>-------- ------- -- ---------- --- - --- ----- ----- ----<br>---- --- --- ----- --- ---- ---- ------- ----- ---- -------<br>--- --- -- ----- -- --- ---- -- be, ---- -- ------ ------<br>--- ----- -- ----",214677.29999995232,214675.69999998808,214082.111,214088.59999996424,214098.777,214681.895,,47,"be,"
screen,html.Screen,2_1_0_1_48,2022-02-17T16:47:05.527Z,,,,,,,,,,,,,,,,,53,,,,,,,,,,,,,,890.3049999880895,,response,,,,99,,,,,,,Space,keypress(Space),,,,,,,,---- -- ----- -- ------ - ------- --- ----------<br>------------- ------ ------ ---- ---- ------- ----- -- ----<br>-------- ------- -- ---------- --- - --- ----- ----- ----<br>---- --- --- ----- --- ---- ---- ------- ----- ---- -------<br>--- --- -- ----- -- --- ---- -- --- even -- ------ ------<br>--- ----- -- ----,215573.19999998808,215572.19999998808,214665.324,214677.59999996424,214681.895,215581.62,,48,even
screen,html.Screen,2_1_0_1_49,2022-02-17T16:47:06.091Z,,,,,,,,,,,,,,,,,53,,,,,,,,,,,,,,554.3800000000047,,response,,,,99,,,,,,,Space,keypress(Space),,,,,,,,---- -- ----- -- ------ - ------- --- ----------<br>------------- ------ ------ ---- ---- ------- ----- -- ----<br>-------- ------- -- ---------- --- - --- ----- ----- ----<br>---- --- --- ----- --- ---- ---- ------- ----- ---- -------<br>--- --- -- ----- -- --- ---- -- --- ---- if ------ ------<br>--- ----- -- ----,216137.39999997616,216136,215565.138,215573.39999997616,215581.62,216148.166,,49,if
screen,html.Screen,2_1_0_1_50,2022-02-17T16:47:06.840Z,,,,,,,,,,,,,,,,,53,,,,,,,,,,,,,,736.6339999523188,,response,,,,99,,,,,,,Space,keypress(Space),,,,,,,,---- -- ----- -- ------ - ------- --- ----------<br>------------- ------ ------ ---- ---- ------- ----- -- ----<br>-------- ------- -- ---------- --- - --- ----- ----- ----<br>---- --- --- ----- --- ---- ---- ------- ----- ---- -------<br>--- --- -- ----- -- --- ---- -- --- ---- -- that's ------<br>--- ----- -- ----,216886.29999995232,216884.79999995232,216131.574,216137.59999996424,216148.166,216898.001,,50,that's
screen,html.Screen,2_1_0_1_51,2022-02-17T16:47:07.534Z,,,,,,,,,,,,,,,,,53,,,,,,,,,,,,,,680.8989999761689,,response,,,,99,,,,,,,Space,keypress(Space),,,,,,,,---- -- ----- -- ------ - ------- --- ----------<br>------------- ------ ------ ---- ---- ------- ----- -- ----<br>-------- ------- -- ---------- --- - --- ----- ----- ----<br>---- --- --- ----- --- ---- ---- ------- ----- ---- -------<br>--- --- -- ----- -- --- ---- -- --- ---- -- ------ really<br>--- ----- -- ----,217580.5,217578.89999997616,216881.393,216886.5,216898.001,217597.845,,51,really
screen,html.Screen,2_1_0_1_52,2022-02-17T16:47:08.337Z,,,,,,,,,,,,,,,,,53,,,,,,,,,,,,,,784.1549999999988,,response,,,,99,,,,,,,Space,keypress(Space),,,,,,,,---- -- ----- -- ------ - ------- --- ----------<br>------------- ------ ------ ---- ---- ------- ----- -- ----<br>-------- ------- -- ---------- --- - --- ----- ----- ----<br>---- --- --- ----- --- ---- ---- ------- ----- ---- -------<br>--- --- -- ----- -- --- ---- -- --- ---- -- ------ ------<br>not ----- -- ----,218383.5,218382,217581.294,217580.79999995232,217597.845,218397.759,,52,not
screen,html.Screen,2_1_0_1_53,2022-02-17T16:47:08.939Z,,,,,,,,,,,,,,,,,53,,,,,,,,,,,,,,585.8409999642463,,response,,,,99,,,,,,,Space,keypress(Space),,,,,,,,---- -- ----- -- ------ - ------- --- ----------<br>------------- ------ ------ ---- ---- ------- ----- -- ----<br>-------- ------- -- ---------- --- - --- ----- ----- ----<br>---- --- --- ----- --- ---- ---- ------- ----- ---- -------<br>--- --- -- ----- -- --- ---- -- --- ---- -- ------ ------<br>--- close -- ----,218985.5,218983.59999996424,218381.087,218383.79999995232,218397.759,218997.606,,53,close
screen,html.Screen,2_1_0_1_54,2022-02-17T16:47:09.616Z,,,,,,,,,,,,,,,,,53,,,,,,,,,,,,,,662.9939999642374,,response,,,,99,,,,,,,Space,keypress(Space),,,,,,,,---- -- ----- -- ------ - ------- --- ----------<br>------------- ------ ------ ---- ---- ------- ----- -- ----<br>-------- ------- -- ---------- --- - --- ----- ----- ----<br>---- --- --- ----- --- ---- ---- ------- ----- ---- -------<br>--- --- -- ----- -- --- ---- -- --- ---- -- ------ ------<br>--- ----- at ----,219662.09999996424,219660.59999996424,218981.016,218986,218997.606,219693.427,,54,at
screen,html.Screen,2_1_0_1_55,2022-02-17T16:47:10.889Z,,,,,,,,,,,,,,,,,53,,,,,,,,,,,,,,1240.472999976162,,response,,,,99,,,,,,,Space,keypress(Space),,,,,,,,---- -- ----- -- ------ - ------- --- ----------<br>------------- ------ ------ ---- ---- ------- ----- -- ----<br>-------- ------- -- ---------- --- - --- ----- ----- ----<br>---- --- --- ----- --- ---- ---- ------- ----- ---- -------<br>--- --- -- ----- -- --- ---- -- --- ---- -- ------ ------<br>--- ----- -- all.,220935.5,220933.89999997616,219647.486,219662.39999997616,219693.427,220947.07,,55,all.
Item 99,flow.Loop,2_1_0_1,2022-02-17T16:47:10.890Z,,,,,,,,,,,,,,,,,,,,,,,,,,,,,,,35511.740999976144,,completion,,,,,F,,,,,,,,,,,silence,,,,,220936,220933.89999997616,185288.863,185290.19999998808,185422.159,220947.07,,,
Question 1,html.Screen,2_1_0_2,2022-02-17T16:47:18.247Z,,,,,,,,,,,,,,,,,,,,,,,,,,,,false,FALSE,,7345.729999952309,,response,,,,99,F,,,,,,TRUE,click #choice-1,,,,silence,,,,,228293.5,228292.79999995232,220930.623,220936.29999995232,220947.07,228295.276,,,
Question 2,html.Screen,2_1_0_3,2022-02-17T16:47:31.459Z,,,,,,,,,,,,,,,,,,,,,,,,,,,,true,TRUE,,13209.123999976146,,response,,,,99,F,,,,,,TRUE,click #choice-1,,,,silence,,,,,241505.19999998808,241504.39999997616,228278.67,228293.59999996424,228295.276,241508.814,,,
Item 99,flow.Sequence,2_1_0,2022-02-17T16:47:31.459Z,,,,,,,,,,,,,,,,,,,,,,,,,,,,,,,66196.52299997615,,completion,,,,,,,,,,,,,,,,,,,,,241505.39999997616,241504.39999997616,175274.608,175312.19999998808,175307.877,241508.814,,,
Holding screen,html.Screen,2_1_1_0,2022-02-17T16:47:41.444Z,,,,,,,,,,,,,,,,,,,,,,,,,,,,,,,9997.648999999976,,timeout,,,,,,,,,,,,,,,,,,,,,251490.59999996424,251489.798,241492.168,241505.5,241508.814,251506.463,,,
screen,html.Screen,2_1_1_1_0,2022-02-17T16:47:42.450Z,,,,,,,,,,,,,,,,,54,,,,,,,,,,,,,,986.9369999761693,,response,,,,100,,,,,,,Space,keypress(Space),,,,,,,,At --- ---- --- ------ ----- ------- ---- -- --- ------- --<br>------- ---------- ------ -- ----- -- ----- -- ---- ------<br>--- ----- --- --- ------ -------- ----- --- ------ ----- --<br>----- ----- ---------- --- --- ------ ------ ---- -- ------<br>------- --- ------ ----- --- ---- ------- -- ---- --- --<br>------- ------,252496,252493.39999997616,251489.798,251490.79999995232,251506.463,252506.23,,0,At
screen,html.Screen,2_1_1_1_1,2022-02-17T16:47:43.443Z,,,,,,,,,,,,,,,,,54,,,,,,,,,,,,,,981.5699999523058,,response,,,,100,,,,,,,Space,keypress(Space),,,,,,,,-- the ---- --- ------ ----- ------- ---- -- --- ------- --<br>------- ---------- ------ -- ----- -- ----- -- ---- ------<br>--- ----- --- --- ------ -------- ----- --- ------ ----- --<br>----- ----- ---------- --- --- ------ ------ ---- -- ------<br>------- --- ------ ----- --- ---- ------- -- ---- --- --<br>------- ------,253489.39999997616,253487.79999995232,252489.669,252496.59999996424,252506.23,253506.031,,1,the
screen,html.Screen,2_1_1_1_2,2022-02-17T16:47:44.974Z,,,,,,,,,,,,,,,,,54,,,,,,,,,,,,,,1513.168999988091,,response,,,,100,,,,,,,Space,keypress(Space),,,,,,,,-- --- time --- ------ ----- ------- ---- -- --- ------- --<br>------- ---------- ------ -- ----- -- ----- -- ---- ------<br>--- ----- --- --- ------ -------- ----- --- ------ ----- --<br>----- ----- ---------- --- --- ------ ------ ---- -- ------<br>------- --- ------ ----- --- ---- ------- -- ---- --- --<br>------- ------,255020.39999997616,255019.19999998808,253489.437,253489.89999997616,253506.031,255045.095,,2,time
screen,html.Screen,2_1_1_1_3,2022-02-17T16:47:45.427Z,,,,,,,,,,,,,,,,,54,,,,,,,,,,,,,,426.40499999999884,,response,,,,100,,,,,,,Space,keypress(Space),,,,,,,,-- --- ---- the ------ ----- ------- ---- -- --- ------- --<br>------- ---------- ------ -- ----- -- ----- -- ---- ------<br>--- ----- --- --- ------ -------- ----- --- ------ ----- --<br>----- ----- ---------- --- --- ------ ------ ---- -- ------<br>------- --- ------ ----- --- ---- ------- -- ---- --- --<br>------- ------,255472.79999995232,255471.5,255005.821,255020.69999998808,255045.095,255488.862,,3,the
screen,html.Screen,2_1_1_1_4,2022-02-17T16:47:45.865Z,,,,,,,,,,,,,,,,,54,,,,,,,,,,,,,,420.83799998808536,,response,,,,100,,,,,,,Space,keypress(Space),,,,,,,,-- --- ---- --- French ----- ------- ---- -- --- ------- --<br>------- ---------- ------ -- ----- -- ----- -- ---- ------<br>--- ----- --- --- ------ -------- ----- --- ------ ----- --<br>----- ----- ---------- --- --- ------ ------ ---- -- ------<br>------- --- ------ ----- --- ---- ------- -- ---- --- --<br>------- ------,255911,255909.69999998808,255472.327,255473,255488.862,255922.218,,4,French
screen,html.Screen,2_1_1_1_5,2022-02-17T16:47:46.236Z,,,,,,,,,,,,,,,,,54,,,,,,,,,,,,,,358.88199996424373,,response,,,,100,,,,,,,Space,keypress(Space),,,,,,,,-- --- ---- --- ------ crown ------- ---- -- --- ------- --<br>------- ---------- ------ -- ----- -- ----- -- ---- ------<br>--- ----- --- --- ------ -------- ----- --- ------ ----- --<br>----- ----- ---------- --- --- ------ ------ ---- -- ------<br>------- --- ------ ----- --- ---- ------- -- ---- --- --<br>------- ------,256282.5,256281.09999996424,255905.628,255911.19999998808,255922.218,256288.682,,5,crown
screen,html.Screen,2_1_1_1_6,2022-02-17T16:47:46.787Z,,,,,,,,,,,,,,,,,54,,,,,,,,,,,,,,542.8179999999993,,response,,,,100,,,,,,,Space,keypress(Space),,,,,,,,-- --- ---- --- ------ ----- secured ---- -- --- ------- --<br>------- ---------- ------ -- ----- -- ----- -- ---- ------<br>--- ----- --- --- ------ -------- ----- --- ------ ----- --<br>----- ----- ---------- --- --- ------ ------ ---- -- ------<br>------- --- ------ ----- --- ---- ------- -- ---- --- --<br>------- ------,256833,256831.5,256272.068,256282.79999995232,256288.682,256838.552,,6,secured
screen,html.Screen,2_1_1_1_7,2022-02-17T16:47:47.243Z,,,,,,,,,,,,,,,,,54,,,,,,,,,,,,,,449.24799995232024,,response,,,,100,,,,,,,Space,keypress(Space),,,,,,,,-- --- ---- --- ------ ----- ------- much -- --- ------- --<br>------- ---------- ------ -- ----- -- ----- -- ---- ------<br>--- ----- --- --- ------ -------- ----- --- ------ ----- --<br>----- ----- ---------- --- --- ------ ------ ---- -- ------<br>------- --- ------ ----- --- ---- ------- -- ---- --- --<br>------- ------,257289.39999997616,257287.79999995232,256822.02,256833.59999996424,256838.552,257305.225,,7,much
screen,html.Screen,2_1_1_1_8,2022-02-17T16:47:47.630Z,,,,,,,,,,,,,,,,,54,,,,,,,,,,,,,,369.2749999999942,,response,,,,100,,,,,,,Space,keypress(Space),,,,,,,,-- --- ---- --- ------ ----- ------- ---- of --- ------- --<br>------- ---------- ------ -- ----- -- ----- -- ---- ------<br>--- ----- --- --- ------ -------- ----- --- ------ ----- --<br>----- ----- ---------- --- --- ------ ------ ---- -- ------<br>------- --- ------ ----- --- ---- ------- -- ---- --- --<br>------- ------,257676.09999996424,257674.5,257288.553,257289.59999996424,257305.225,257688.455,,8,of
screen,html.Screen,2_1_1_1_9,2022-02-17T16:47:48.310Z,,,,,,,,,,,,,,,,,54,,,,,,,,,,,,,,665.944999976171,,response,,,,100,,,,,,,Space,keypress(Space),,,,,,,,-- --- ---- --- ------ ----- ------- ---- -- its ------- --<br>------- ---------- ------ -- ----- -- ----- -- ---- ------<br>--- ----- --- --- ------ -------- ----- --- ------ ----- --<br>----- ----- ---------- --- --- ------ ------ ---- -- ------<br>------- --- ------ ----- --- ---- ------- -- ---- --- --<br>------- ------,258356.29999995232,258354.39999997616,257671.836,257676.29999995232,257688.455,258371.632,,9,its
screen,html.Screen,2_1_1_1_10,2022-02-17T16:47:48.824Z,,,,,,,,,,,,,,,,,54,,,,,,,,,,,,,,497.86799999998766,,response,,,,100,,,,,,,Space,keypress(Space),,,,,,,,-- --- ---- --- ------ ----- ------- ---- -- --- revenue --<br>------- ---------- ------ -- ----- -- ----- -- ---- ------<br>--- ----- --- --- ------ -------- ----- --- ------ ----- --<br>----- ----- ---------- --- --- ------ ------ ---- -- ------<br>------- --- ------ ----- --- ---- ------- -- ---- --- --<br>------- ------,258870.09999996424,258869.5,258354.994,258356.89999997616,258371.632,258893.607,,10,revenue
screen,html.Screen,2_1_1_1_11,2022-02-17T16:47:49.353Z,,,,,,,,,,,,,,,,,54,,,,,,,,,,,,,,504.39300000001094,,response,,,,100,,,,,,,Space,keypress(Space),,,,,,,,-- --- ---- --- ------ ----- ------- ---- -- --- ------- by<br>------- ---------- ------ -- ----- -- ----- -- ---- ------<br>--- ----- --- --- ------ -------- ----- --- ------ ----- --<br>----- ----- ---------- --- --- ------ ------ ---- -- ------<br>------- --- ------ ----- --- ---- ------- -- ---- --- --<br>------- ------,259398.79999995232,259398,258854.838,258870.29999995232,258893.607,259404.566,,11,by
screen,html.Screen,2_1_1_1_12,2022-02-17T16:47:50.099Z,,,,,,,,,,,,,,,,,54,,,,,,,,,,,,,,738.7339999523247,,response,,,,100,,,,,,,Space,keypress(Space),,,,,,,,-- --- ---- --- ------ ----- ------- ---- -- --- ------- --<br>issuing ---------- ------ -- ----- -- ----- -- ---- ------<br>--- ----- --- --- ------ -------- ----- --- ------ ----- --<br>----- ----- ---------- --- --- ------ ------ ---- -- ------<br>------- --- ------ ----- --- ---- ------- -- ---- --- --<br>------- ------,260145.09999996424,260143.29999995232,259387.976,259398.89999997616,259404.566,260154.488,,12,issuing
screen,html.Screen,2_1_1_1_13,2022-02-17T16:47:50.961Z,,,,,,,,,,,,,,,,,54,,,,,,,,,,,,,,851.5119999999879,,response,,,,100,,,,,,,Space,keypress(Space),,,,,,,,-- --- ---- --- ------ ----- ------- ---- -- --- ------- --<br>------- government ------ -- ----- -- ----- -- ---- ------<br>--- ----- --- --- ------ -------- ----- --- ------ ----- --<br>----- ----- ---------- --- --- ------ ------ ---- -- ------<br>------- --- ------ ----- --- ---- ------- -- ---- --- --<br>------- ------,261007.5,261006,260137.829,260145.5,260154.488,261020.992,,13,government
screen,html.Screen,2_1_1_1_14,2022-02-17T16:47:51.389Z,,,,,,,,,,,,,,,,,54,,,,,,,,,,,,,,412.00800000000163,,response,,,,100,,,,,,,Space,keypress(Space),,,,,,,,-- --- ---- --- ------ ----- ------- ---- -- --- ------- --<br>------- ---------- bonds. -- ----- -- ----- -- ---- ------<br>--- ----- --- --- ------ -------- ----- --- ------ ----- --<br>----- ----- ---------- --- --- ------ ------ ---- -- ------<br>------- --- ------ ----- --- ---- ------- -- ---- --- --<br>------- ------,261435,261433,261004.339,261007.79999995232,261020.992,261437.46,,14,bonds.
screen,html.Screen,2_1_1_1_15,2022-02-17T16:47:52.068Z,,,,,,,,,,,,,,,,,54,,,,,,,,,,,,,,674.8399999523244,,response,,,,100,,,,,,,Space,keypress(Space),,,,,,,,-- --- ---- --- ------ ----- ------- ---- -- --- ------- --<br>------- ---------- ------ In ----- -- ----- -- ---- ------<br>--- ----- --- --- ------ -------- ----- --- ------ ----- --<br>----- ----- ---------- --- --- ------ ------ ---- -- ------<br>------- --- ------ ----- --- ---- ------- -- ---- --- --<br>------- ------,262114.09999996424,262112.29999995232,261420.873,261435.29999995232,261437.46,262120.629,,15,In
screen,html.Screen,2_1_1_1_16,2022-02-17T16:47:53.665Z,,,,,,,,,,,,,,,,,54,,,,,,,,,,,,,,1588.7709999761719,,response,,,,100,,,,,,,Space,keypress(Space),,,,,,,,"-- --- ---- --- ------ ----- ------- ---- -- --- ------- --<br>------- ---------- ------ -- 1727, -- ----- -- ---- ------<br>--- ----- --- --- ------ -------- ----- --- ------ ----- --<br>----- ----- ---------- --- --- ------ ------ ---- -- ------<br>------- --- ------ ----- --- ---- ------- -- ---- --- --<br>------- ------",263711,263709.39999997616,262104.119,262114.29999995232,262120.629,263720.238,,16,"1727,"
screen,html.Screen,2_1_1_1_17,2022-02-17T16:47:54.641Z,,,,,,,,,,,,,,,,,54,,,,,,,,,,,,,,965.161999976146,,response,,,,100,,,,,,,Space,keypress(Space),,,,,,,,-- --- ---- --- ------ ----- ------- ---- -- --- ------- --<br>------- ---------- ------ -- ----- in ----- -- ---- ------<br>--- ----- --- --- ------ -------- ----- --- ------ ----- --<br>----- ----- ---------- --- --- ------ ------ ---- -- ------<br>------- --- ------ ----- --- ---- ------- -- ---- --- --<br>------- ------,264687.2999999523,264685.39999997616,263703.864,263711.1999999881,263720.238,264703.402,,17,in
screen,html.Screen,2_1_1_1_18,2022-02-17T16:47:55.377Z,,,,,,,,,,,,,,,,,54,,,,,,,,,,,,,,717.9979999761563,,response,,,,100,,,,,,,Space,keypress(Space),,,,,,,,-- --- ---- --- ------ ----- ------- ---- -- --- ------- --<br>------- ---------- ------ -- ----- -- order -- ---- ------<br>--- ----- --- --- ------ -------- ----- --- ------ ----- --<br>----- ----- ---------- --- --- ------ ------ ---- -- ------<br>------- --- ------ ----- --- ---- ------- -- ---- --- --<br>------- ------,265422.89999997616,265421.39999997616,264686.88,264687.59999996424,264703.402,265436.615,,18,order
screen,html.Screen,2_1_1_1_19,2022-02-17T16:47:56.021Z,,,,,,,,,,,,,,,,,54,,,,,,,,,,,,,,628.4849999642465,,response,,,,100,,,,,,,Space,keypress(Space),,,,,,,,-- --- ---- --- ------ ----- ------- ---- -- --- ------- --<br>------- ---------- ------ -- ----- -- ----- to ---- ------<br>--- ----- --- --- ------ -------- ----- --- ------ ----- --<br>----- ----- ---------- --- --- ------ ------ ---- -- ------<br>------- --- ------ ----- --- ---- ------- -- ---- --- --<br>------- ------,266066.6999999881,266065.09999996424,265419.995,265423.1999999881,265436.615,266069.698,,19,to
screen,html.Screen,2_1_1_1_20,2022-02-17T16:47:56.764Z,,,,,,,,,,,,,,,,,54,,,,,,,,,,,,,,739.1019999523414,,response,,,,100,,,,,,,Space,keypress(Space),,,,,,,,-- --- ---- --- ------ ----- ------- ---- -- --- ------- --<br>------- ---------- ------ -- ----- -- ----- -- save ------<br>--- ----- --- --- ------ -------- ----- --- ------ ----- --<br>----- ----- ---------- --- --- ------ ------ ---- -- ------<br>------- --- ------ ----- --- ---- ------- -- ---- --- --<br>------- ------,266810.39999997616,266808.7999999523,266053.177,266066.89999997616,266069.698,266819.543,,20,save
screen,html.Screen,2_1_1_1_21,2022-02-17T16:47:57.151Z,,,,,,,,,,,,,,,,,54,,,,,,,,,,,,,,375.65699998807395,,response,,,,100,,,,,,,Space,keypress(Space),,,,,,,,"-- --- ---- --- ------ ----- ------- ---- -- --- ------- --<br>------- ---------- ------ -- ----- -- ----- -- ---- money,<br>--- ----- --- --- ------ -------- ----- --- ------ ----- --<br>----- ----- ---------- --- --- ------ ------ ---- -- ------<br>------- --- ------ ----- --- ---- ------- -- ---- --- --<br>------- ------",267196.7999999523,267195.1999999881,266802.97,266810.59999996424,266819.543,267202.787,,21,"money,"
screen,html.Screen,2_1_1_1_22,2022-02-17T16:47:57.811Z,,,,,,,,,,,,,,,,,54,,,,,,,,,,,,,,653.4129999880679,,response,,,,100,,,,,,,Space,keypress(Space),,,,,,,,-- --- ---- --- ------ ----- ------- ---- -- --- ------- --<br>------- ---------- ------ -- ----- -- ----- -- ---- ------<br>the ----- --- --- ------ -------- ----- --- ------ ----- --<br>----- ----- ---------- --- --- ------ ------ ---- -- ------<br>------- --- ------ ----- --- ---- ------- -- ---- --- --<br>------- ------,267857.5,267856.1999999881,267186.273,267197,267202.787,267869.428,,22,the
screen,html.Screen,2_1_1_1_23,2022-02-17T16:47:58.528Z,,,,,,,,,,,,,,,,,54,,,,,,,,,,,,,,703.6719999642228,,response,,,,100,,,,,,,Space,keypress(Space),,,,,,,,-- --- ---- --- ------ ----- ------- ---- -- --- ------- --<br>------- ---------- ------ -- ----- -- ----- -- ---- ------<br>--- state --- --- ------ -------- ----- --- ------ ----- --<br>----- ----- ---------- --- --- ------ ------ ---- -- ------<br>------- --- ------ ----- --- ---- ------- -- ---- --- --<br>------- ------,268574.09999996424,268573.09999996424,267852.707,267857.7999999523,267869.428,268585.736,,23,state
screen,html.Screen,2_1_1_1_24,2022-02-17T16:47:59.087Z,,,,,,,,,,,,,,,,,54,,,,,,,,,,,,,,546.563999952341,,response,,,,100,,,,,,,Space,keypress(Space),,,,,,,,-- --- ---- --- ------ ----- ------- ---- -- --- ------- --<br>------- ---------- ------ -- ----- -- ----- -- ---- ------<br>--- ----- cut --- ------ -------- ----- --- ------ ----- --<br>----- ----- ---------- --- --- ------ ------ ---- -- ------<br>------- --- ------ ----- --- ---- ------- -- ---- --- --<br>------- ------,269133.1999999881,269132.2999999523,268569.214,268574.39999997616,268585.736,269135.615,,24,cut
screen,html.Screen,2_1_1_1_25,2022-02-17T16:47:59.569Z,,,,,,,,,,,,,,,,,54,,,,,,,,,,,,,,479.0849999880884,,response,,,,100,,,,,,,Space,keypress(Space),,,,,,,,-- --- ---- --- ------ ----- ------- ---- -- --- ------- --<br>------- ---------- ------ -- ----- -- ----- -- ---- ------<br>--- ----- --- the ------ -------- ----- --- ------ ----- --<br>----- ----- ---------- --- --- ------ ------ ---- -- ------<br>------- --- ------ ----- --- ---- ------- -- ---- --- --<br>------- ------,269615.5,269614.6999999881,269118.979,269133.2999999523,269135.615,269618.836,,25,the
screen,html.Screen,2_1_1_1_26,2022-02-17T16:48:00.038Z,,,,,,,,,,,,,,,,,54,,,,,,,,,,,,,,463.46399995230604,,response,,,,100,,,,,,,Space,keypress(Space),,,,,,,,-- --- ---- --- ------ ----- ------- ---- -- --- ------- --<br>------- ---------- ------ -- ----- -- ----- -- ---- ------<br>--- ----- --- --- bonds' -------- ----- --- ------ ----- --<br>----- ----- ---------- --- --- ------ ------ ---- -- ------<br>------- --- ------ ----- --- ---- ------- -- ---- --- --<br>------- ------,270084.2999999523,270082.2999999523,269602.202,269615.6999999881,269618.836,270102.019,,26,bonds'
screen,html.Screen,2_1_1_1_27,2022-02-17T16:48:00.459Z,,,,,,,,,,,,,,,,,54,,,,,,,,,,,,,,400.68099998810794,,response,,,,100,,,,,,,Space,keypress(Space),,,,,,,,-- --- ---- --- ------ ----- ------- ---- -- --- ------- --<br>------- ---------- ------ -- ----- -- ----- -- ---- ------<br>--- ----- --- --- ------ interest ----- --- ------ ----- --<br>----- ----- ---------- --- --- ------ ------ ---- -- ------<br>------- --- ------ ----- --- ---- ------- -- ---- --- --<br>------- ------,270505,270502.6999999881,270085.419,270084.7999999523,270102.019,270518.664,,27,interest
screen,html.Screen,2_1_1_1_28,2022-02-17T16:48:00.956Z,,,,,,,,,,,,,,,,,54,,,,,,,,,,,,,,482.0359999880893,,response,,,,100,,,,,,,Space,keypress(Space),,,,,,,,-- --- ---- --- ------ ----- ------- ---- -- --- ------- --<br>------- ---------- ------ -- ----- -- ----- -- ---- ------<br>--- ----- --- --- ------ -------- rate. --- ------ ----- --<br>----- ----- ---------- --- --- ------ ------ ---- -- ------<br>------- --- ------ ----- --- ---- ------- -- ---- --- --<br>------- ------,271001.6999999881,271000.6999999881,270501.968,270505.6999999881,270518.664,271018.513,,28,rate.
screen,html.Screen,2_1_1_1_29,2022-02-17T16:48:02.263Z,,,,,,,,,,,,,,,,,54,,,,,,,,,,,,,,1288.386999976181,,response,,,,100,,,,,,,Space,keypress(Space),,,,,,,,-- --- ---- --- ------ ----- ------- ---- -- --- ------- --<br>------- ---------- ------ -- ----- -- ----- -- ---- ------<br>--- ----- --- --- ------ -------- ----- The ------ ----- --<br>----- ----- ---------- --- --- ------ ------ ---- -- ------<br>------- --- ------ ----- --- ---- ------- -- ---- --- --<br>------- ------,272308.5,272306.89999997616,271001.912,271001.89999997616,271018.513,272318.28,,29,The
screen,html.Screen,2_1_1_1_30,2022-02-17T16:48:03.021Z,,,,,,,,,,,,,,,,,54,,,,,,,,,,,,,,747.3199999642093,,response,,,,100,,,,,,,Space,keypress(Space),,,,,,,,-- --- ---- --- ------ ----- ------- ---- -- --- ------- --<br>------- ---------- ------ -- ----- -- ----- -- ---- ------<br>--- ----- --- --- ------ -------- ----- --- market ----- --<br>----- ----- ---------- --- --- ------ ------ ---- -- ------<br>------- --- ------ ----- --- ---- ------- -- ---- --- --<br>------- ------,273067.1999999881,273065.59999996424,272301.683,272308.7999999523,272318.28,273084.817,,30,market
screen,html.Screen,2_1_1_1_31,2022-02-17T16:48:03.487Z,,,,,,,,,,,,,,,,,54,,,,,,,,,,,,,,446.2829999642563,,response,,,,100,,,,,,,Space,keypress(Space),,,,,,,,-- --- ---- --- ------ ----- ------- ---- -- --- ------- --<br>------- ---------- ------ -- ----- -- ----- -- ---- ------<br>--- ----- --- --- ------ -------- ----- --- ------ value --<br>----- ----- ---------- --- --- ------ ------ ---- -- ------<br>------- --- ------ ----- --- ---- ------- -- ---- --- --<br>------- ------,273532.59999996424,273531.09999996424,273068.198,273067.5,273084.817,273559.76,,31,value
screen,html.Screen,2_1_1_1_32,2022-02-17T16:48:03.900Z,,,,,,,,,,,,,,,,,54,,,,,,,,,,,,,,384.93999998806976,,response,,,,100,,,,,,,Space,keypress(Space),,,,,,,,-- --- ---- --- ------ ----- ------- ---- -- --- ------- --<br>------- ---------- ------ -- ----- -- ----- -- ---- ------<br>--- ----- --- --- ------ -------- ----- --- ------ ----- of<br>----- ----- ---------- --- --- ------ ------ ---- -- ------<br>------- --- ------ ----- --- ---- ------- -- ---- --- --<br>------- ------,273946.1999999881,273944.6999999881,273518.037,273532.89999997616,273559.76,273967.935,,32,of
screen,html.Screen,2_1_1_1_33,2022-02-17T16:48:04.373Z,,,,,,,,,,,,,,,,,54,,,,,,,,,,,,,,449.2649999880814,,response,,,,100,,,,,,,Space,keypress(Space),,,,,,,,-- --- ---- --- ------ ----- ------- ---- -- --- ------- --<br>------- ---------- ------ -- ----- -- ----- -- ---- ------<br>--- ----- --- --- ------ -------- ----- --- ------ ----- --<br>these ----- ---------- --- --- ------ ------ ---- -- ------<br>------- --- ------ ----- --- ---- ------- -- ---- --- --<br>------- ------,274418.7999999523,274417.1999999881,273934.609,273946.39999997616,273967.935,274434.434,,33,these
screen,html.Screen,2_1_1_1_34,2022-02-17T16:48:04.854Z,,,,,,,,,,,,,,,,,54,,,,,,,,,,,,,,464.0659999999916,,response,,,,100,,,,,,,Space,keypress(Space),,,,,,,,-- --- ---- --- ------ ----- ------- ---- -- --- ------- --<br>------- ---------- ------ -- ----- -- ----- -- ---- ------<br>--- ----- --- --- ------ -------- ----- --- ------ ----- --<br>----- bonds ---------- --- --- ------ ------ ---- -- ------<br>------- --- ------ ----- --- ---- ------- -- ---- --- --<br>------- ------,274900.1999999881,274898.5,274417.805,274419,274434.434,274917.626,,34,bonds
screen,html.Screen,2_1_1_1_35,2022-02-17T16:48:05.564Z,,,,,,,,,,,,,,,,,54,,,,,,,,,,,,,,690.4739999642479,,response,,,,100,,,,,,,Space,keypress(Space),,,,,,,,"-- --- ---- --- ------ ----- ------- ---- -- --- ------- --<br>------- ---------- ------ -- ----- -- ----- -- ---- ------<br>--- ----- --- --- ------ -------- ----- --- ------ ----- --<br>----- ----- plummeted, --- --- ------ ------ ---- -- ------<br>------- --- ------ ----- --- ---- ------- -- ---- --- --<br>------- ------",275609.89999997616,275608.09999996424,274901.057,274900.5,274917.626,275617.429,,35,"plummeted,"
screen,html.Screen,2_1_1_1_36,2022-02-17T16:48:06.110Z,,,,,,,,,,,,,,,,,54,,,,,,,,,,,,,,538.4709999761544,,response,,,,100,,,,,,,Space,keypress(Space),,,,,,,,-- --- ---- --- ------ ----- ------- ---- -- --- ------- --<br>------- ---------- ------ -- ----- -- ----- -- ---- ------<br>--- ----- --- --- ------ -------- ----- --- ------ ----- --<br>----- ----- ---------- and --- ------ ------ ---- -- ------<br>------- --- ------ ----- --- ---- ------- -- ---- --- --<br>------- ------,276156.59999996424,276155.89999997616,275600.893,275610.5,275617.429,276167.331,,36,and
screen,html.Screen,2_1_1_1_37,2022-02-17T16:48:06.575Z,,,,,,,,,,,,,,,,,54,,,,,,,,,,,,,,452.56899997615255,,response,,,,100,,,,,,,Space,keypress(Space),,,,,,,,-- --- ---- --- ------ ----- ------- ---- -- --- ------- --<br>------- ---------- ------ -- ----- -- ----- -- ---- ------<br>--- ----- --- --- ------ -------- ----- --- ------ ----- --<br>----- ----- ---------- --- the ------ ------ ---- -- ------<br>------- --- ------ ----- --- ---- ------- -- ---- --- --<br>------- ------,276620.6999999881,276619.89999997616,276150.766,276156.59999996424,276167.331,276633.815,,37,the
screen,html.Screen,2_1_1_1_38,2022-02-17T16:48:07.091Z,,,,,,,,,,,,,,,,,54,,,,,,,,,,,,,,502.48499995231396,,response,,,,100,,,,,,,Space,keypress(Space),,,,,,,,-- --- ---- --- ------ ----- ------- ---- -- --- ------- --<br>------- ---------- ------ -- ----- -- ----- -- ---- ------<br>--- ----- --- --- ------ -------- ----- --- ------ ----- --<br>----- ----- ---------- --- --- market ------ ---- -- ------<br>------- --- ------ ----- --- ---- ------- -- ---- --- --<br>------- ------,277137.5,277136.2999999523,276617.244,276620.89999997616,276633.815,277150.364,,38,market
screen,html.Screen,2_1_1_1_39,2022-02-17T16:48:07.528Z,,,,,,,,,,,,,,,,,54,,,,,,,,,,,,,,423.03599997615675,,response,,,,100,,,,,,,Space,keypress(Space),,,,,,,,-- --- ---- --- ------ ----- ------- ---- -- --- ------- --<br>------- ---------- ------ -- ----- -- ----- -- ---- ------<br>--- ----- --- --- ------ -------- ----- --- ------ ----- --<br>----- ----- ---------- --- --- ------ became ---- -- ------<br>------- --- ------ ----- --- ---- ------- -- ---- --- --<br>------- ------,277574,277573.39999997616,277133.768,277137.59999996424,277150.364,277583.585,,39,became
screen,html.Screen,2_1_1_1_40,2022-02-17T16:48:08.046Z,,,,,,,,,,,,,,,,,54,,,,,,,,,,,,,,507.21499995229533,,response,,,,100,,,,,,,Space,keypress(Space),,,,,,,,-- --- ---- --- ------ ----- ------- ---- -- --- ------- --<br>------- ---------- ------ -- ----- -- ----- -- ---- ------<br>--- ----- --- --- ------ -------- ----- --- ------ ----- --<br>----- ----- ---------- --- --- ------ ------ wary -- ------<br>------- --- ------ ----- --- ---- ------- -- ---- --- --<br>------- ------,278092.39999997616,278090.7999999523,277566.983,277574.1999999881,277583.585,278100.23,,40,wary
screen,html.Screen,2_1_1_1_41,2022-02-17T16:48:08.769Z,,,,,,,,,,,,,,,,,54,,,,,,,,,,,,,,712.3699999642558,,response,,,,100,,,,,,,Space,keypress(Space),,,,,,,,-- --- ---- --- ------ ----- ------- ---- -- --- ------- --<br>------- ---------- ------ -- ----- -- ----- -- ---- ------<br>--- ----- --- --- ------ -------- ----- --- ------ ----- --<br>----- ----- ---------- --- --- ------ ------ ---- of ------<br>------- --- ------ ----- --- ---- ------- -- ---- --- --<br>------- ------,278814.59999996424,278812.59999996424,278083.539,278092.6999999881,278100.23,278843.604,,41,of
screen,html.Screen,2_1_1_1_42,2022-02-17T16:48:09.317Z,,,,,,,,,,,,,,,,,54,,,,,,,,,,,,,,517.3960000000079,,response,,,,100,,,,,,,Space,keypress(Space),,,,,,,,-- --- ---- --- ------ ----- ------- ---- -- --- ------- --<br>------- ---------- ------ -- ----- -- ----- -- ---- ------<br>--- ----- --- --- ------ -------- ----- --- ------ ----- --<br>----- ----- ---------- --- --- ------ ------ ---- -- French<br>------- --- ------ ----- --- ---- ------- -- ---- --- --<br>------- ------,279362.7999999523,279361,278800.166,278814.7999999523,278843.604,279366.591,,42,French
screen,html.Screen,2_1_1_1_43,2022-02-17T16:48:09.850Z,,,,,,,,,,,,,,,,,54,,,,,,,,,,,,,,527.7089999523014,,response,,,,100,,,,,,,Space,keypress(Space),,,,,,,,-- --- ---- --- ------ ----- ------- ---- -- --- ------- --<br>------- ---------- ------ -- ----- -- ----- -- ---- ------<br>--- ----- --- --- ------ -------- ----- --- ------ ----- --<br>----- ----- ---------- --- --- ------ ------ ---- -- ------<br>credit. --- ------ ----- --- ---- ------- -- ---- --- --<br>------- ------,279895.89999997616,279894.2999999523,279350,279363.5,279366.591,279899.746,,43,credit.
screen,html.Screen,2_1_1_1_44,2022-02-17T16:48:10.581Z,,,,,,,,,,,,,,,,,54,,,,,,,,,,,,,,725.8539999642526,,response,,,,100,,,,,,,Space,keypress(Space),,,,,,,,-- --- ---- --- ------ ----- ------- ---- -- --- ------- --<br>------- ---------- ------ -- ----- -- ----- -- ---- ------<br>--- ----- --- --- ------ -------- ----- --- ------ ----- --<br>----- ----- ---------- --- --- ------ ------ ---- -- ------<br>------- The ------ ----- --- ---- ------- -- ---- --- --<br>------- ------,280627.5,280625.59999996424,279883.136,279896.09999996424,279899.746,280632.937,,44,The
screen,html.Screen,2_1_1_1_45,2022-02-17T16:48:11.007Z,,,,,,,,,,,,,,,,,54,,,,,,,,,,,,,,417.9629999761819,,response,,,,100,,,,,,,Space,keypress(Space),,,,,,,,-- --- ---- --- ------ ----- ------- ---- -- --- ------- --<br>------- ---------- ------ -- ----- -- ----- -- ---- ------<br>--- ----- --- --- ------ -------- ----- --- ------ ----- --<br>----- ----- ---------- --- --- ------ ------ ---- -- ------<br>------- --- French ----- --- ---- ------- -- ---- --- --<br>------- ------,281052.6999999881,281050.89999997616,280616.396,280628,280632.937,281066.237,,45,French
screen,html.Screen,2_1_1_1_46,2022-02-17T16:48:11.459Z,,,,,,,,,,,,,,,,,54,,,,,,,,,,,,,,437.06299995229347,,response,,,,100,,,,,,,Space,keypress(Space),,,,,,,,-- --- ---- --- ------ ----- ------- ---- -- --- ------- --<br>------- ---------- ------ -- ----- -- ----- -- ---- ------<br>--- ----- --- --- ------ -------- ----- --- ------ ----- --<br>----- ----- ---------- --- --- ------ ------ ---- -- ------<br>------- --- ------ state --- ---- ------- -- ---- --- --<br>------- ------,281504.7999999523,281503.2999999523,281049.61,281053.09999996424,281066.237,281516.125,,46,state
screen,html.Screen,2_1_1_1_47,2022-02-17T16:48:12.155Z,,,,,,,,,,,,,,,,,54,,,,,,,,,,,,,,683.375,,response,,,,100,,,,,,,Space,keypress(Space),,,,,,,,-- --- ---- --- ------ ----- ------- ---- -- --- ------- --<br>------- ---------- ------ -- ----- -- ----- -- ---- ------<br>--- ----- --- --- ------ -------- ----- --- ------ ----- --<br>----- ----- ---------- --- --- ------ ------ ---- -- ------<br>------- --- ------ ----- was ---- ------- -- ---- --- --<br>------- ------,282201.1999999881,282199.5,281499.466,281505.09999996424,281516.125,282215.989,,47,was
screen,html.Screen,2_1_1_1_48,2022-02-17T16:48:12.713Z,,,,,,,,,,,,,,,,,54,,,,,,,,,,,,,,541.6109999642358,,response,,,,100,,,,,,,Space,keypress(Space),,,,,,,,-- --- ---- --- ------ ----- ------- ---- -- --- ------- --<br>------- ---------- ------ -- ----- -- ----- -- ---- ------<br>--- ----- --- --- ------ -------- ----- --- ------ ----- --<br>----- ----- ---------- --- --- ------ ------ ---- -- ------<br>------- --- ------ ----- --- left ------- -- ---- --- --<br>------- ------,282759.1999999881,282757.59999996424,282199.357,282201.5,282215.989,282765.763,,48,left
screen,html.Screen,2_1_1_1_49,2022-02-17T16:48:13.214Z,,,,,,,,,,,,,,,,,54,,,,,,,,,,,,,,492.5369999523391,,response,,,,100,,,,,,,Space,keypress(Space),,,,,,,,-- --- ---- --- ------ ----- ------- ---- -- --- ------- --<br>------- ---------- ------ -- ----- -- ----- -- ---- ------<br>--- ----- --- --- ------ -------- ----- --- ------ ----- --<br>----- ----- ---------- --- --- ------ ------ ---- -- ------<br>------- --- ------ ----- --- ---- without -- ---- --- --<br>------- ------,283259.89999997616,283258.2999999523,282749.144,282759.2999999523,282765.763,283265.619,,49,without
screen,html.Screen,2_1_1_1_50,2022-02-17T16:48:13.616Z,,,,,,,,,,,,,,,,,54,,,,,,,,,,,,,,394.38099999999395,,response,,,,100,,,,,,,Space,keypress(Space),,,,,,,,-- --- ---- --- ------ ----- ------- ---- -- --- ------- --<br>------- ---------- ------ -- ----- -- ----- -- ---- ------<br>--- ----- --- --- ------ -------- ----- --- ------ ----- --<br>----- ----- ---------- --- --- ------ ------ ---- -- ------<br>------- --- ------ ----- --- ---- ------- an ---- --- --<br>------- ------,283661.89999997616,283660,283249.082,283260.09999996424,283265.619,283665.568,,50,an
screen,html.Screen,2_1_1_1_51,2022-02-17T16:48:14.081Z,,,,,,,,,,,,,,,,,54,,,,,,,,,,,,,,459.9319999999716,,response,,,,100,,,,,,,Space,keypress(Space),,,,,,,,-- --- ---- --- ------ ----- ------- ---- -- --- ------- --<br>------- ---------- ------ -- ----- -- ----- -- ---- ------<br>--- ----- --- --- ------ -------- ----- --- ------ ----- --<br>----- ----- ---------- --- --- ------ ------ ---- -- ------<br>------- --- ------ ----- --- ---- ------- -- easy --- --<br>------- ------,284126.6999999881,284125.5,283648.974,283662.1999999881,283665.568,284132.095,,51,easy
screen,html.Screen,2_1_1_1_52,2022-02-17T16:48:14.489Z,,,,,,,,,,,,,,,,,54,,,,,,,,,,,,,,401.7049999523442,,response,,,,100,,,,,,,Space,keypress(Space),,,,,,,,-- --- ---- --- ------ ----- ------- ---- -- --- ------- --<br>------- ---------- ------ -- ----- -- ----- -- ---- ------<br>--- ----- --- --- ------ -------- ----- --- ------ ----- --<br>----- ----- ---------- --- --- ------ ------ ---- -- ------<br>------- --- ------ ----- --- ---- ------- -- ---- way --<br>------- ------,284535.1999999881,284533.7999999523,284115.539,284126.89999997616,284132.095,284548.745,,52,way
screen,html.Screen,2_1_1_1_53,2022-02-17T16:48:15.139Z,,,,,,,,,,,,,,,,,54,,,,,,,,,,,,,,634.1549999761628,,response,,,,100,,,,,,,Space,keypress(Space),,,,,,,,-- --- ---- --- ------ ----- ------- ---- -- --- ------- --<br>------- ---------- ------ -- ----- -- ----- -- ---- ------<br>--- ----- --- --- ------ -------- ----- --- ------ ----- --<br>----- ----- ---------- --- --- ------ ------ ---- -- ------<br>------- --- ------ ----- --- ---- ------- -- ---- --- of<br>------- ------,285184.6999999881,285182.89999997616,284532.06,284535.59999996424,284548.745,285198.624,,53,of
screen,html.Screen,2_1_1_1_54,2022-02-17T16:48:15.854Z,,,,,,,,,,,,,,,,,54,,,,,,,,,,,,,,699.8759999999893,,response,,,,100,,,,,,,Space,keypress(Space),,,,,,,,-- --- ---- --- ------ ----- ------- ---- -- --- ------- --<br>------- ---------- ------ -- ----- -- ----- -- ---- ------<br>--- ----- --- --- ------ -------- ----- --- ------ ----- --<br>----- ----- ---------- --- --- ------ ------ ---- -- ------<br>------- --- ------ ----- --- ---- ------- -- ---- --- --<br>raising ------,285900.09999996424,285898.5,285182.01,285185.2999999523,285198.624,285914.978,,54,raising
screen,html.Screen,2_1_1_1_55,2022-02-17T16:48:17.165Z,,,,,,,,,,,,,,,,,54,,,,,,,,,,,,,,1295.4219999761553,,response,,,,100,,,,,,,Space,keypress(Space),,,,,,,,-- --- ---- --- ------ ----- ------- ---- -- --- ------- --<br>------- ---------- ------ -- ----- -- ----- -- ---- ------<br>--- ----- --- --- ------ -------- ----- --- ------ ----- --<br>----- ----- ---------- --- --- ------ ------ ---- -- ------<br>------- --- ------ ----- --- ---- ------- -- ---- --- --<br>------- money.,287211.39999997616,287210.39999997616,285898.49,285900.59999996424,285914.978,287214.641,,55,money.
Item 100,flow.Loop,2_1_1_1,2022-02-17T16:48:17.166Z,,,,,,,,,,,,,,,,,,,,,,,,,,,,,,,35703.93699997617,,completion,,,,,F,,,,,,,,,,,silence,,,,,287211.59999996424,287210.39999997616,251489.798,251490.69999998808,251506.463,287214.641,,,
Question 1,html.Screen,2_1_1_2,2022-02-17T16:48:20.856Z,,,,,,,,,,,,,,,,,,,,,,,,,,,,true,TRUE,,3686.958999964234,,response,,,,100,F,,,,,,TRUE,click #choice-1,,,,silence,,,,,290902.1999999881,290901.59999996424,287198.169,287211.7999999523,287214.641,290913.822,,,
Question 2,html.Screen,2_1_1_3,2022-02-17T16:48:23.428Z,,,,,,,,,,,,,,,,,,,,,,,,,,,,true,FALSE,,2559.9779999523307,,response,,,,100,F,,,,,,FALSE,click #choice-2,,,,silence,,,,,293474.39999997616,293473.7999999523,290897.19,290902.2999999523,290913.822,293479.887,,,
Item 100,flow.Sequence,2_1_1,2022-02-17T16:48:23.429Z,,,,,,,,,,,,,,,,,,,,,,,,,,,,,,,51964.9859999523,,completion,,,,,,,,,,,,,,,,,,,,,293474.59999996424,293473.7999999523,241492.168,241505.5,241508.814,293479.887,,,
End of Practice,html.Page,2_1_2,2022-02-17T16:48:30.753Z,,,,,,,,,,,,,,,,,,,,,,,,,,,,,,,7318.613000000012,,form submission,,,,,,,,,,,,,,,,,,,,,300798.6999999881,300798.5,293463.151,293474.6999999881,293479.887,300811.466,,,
Practice,flow.Sequence,2_1,2022-02-17T16:48:30.753Z,,,,,,,,,,,,,,,,,,,,,,,,,,,,,,,125490.62299999999,,completion,,,,,,,,,,,,,,,,,,,,,300798.89999997616,300798.5,175274.608,175312.09999996424,175307.877,300811.466,,,
Trap_instruction,html.Page,2_2_0,2022-02-17T16:48:36.230Z,,,,,,,,,,,,,,,,,,,,,,,,,,,,,,,5464.533999999985,,form submission,,,,,,,,,,,,,,,,,,,,,306276.1999999881,306276,300794.874,300799,300811.466,306476.765,,,
trap_trial,html.Screen,2_2_1,2022-02-17T16:48:39.649Z,,,,,,,,,,,,,,,,,,,,,,,,,,,,true,1,,3218.434999988065,,response,,,,,,,,,,,1,click #choice-1,,,,,,,,,309696,309695.1999999881,306260.145,306276.2999999523,306476.765,309709.337,,,
end of trap trial,html.Page,2_2_2,2022-02-17T16:48:43.156Z,,,,,,,,,,,,,,,,,,,,,,,,,,,,,,,3493.1630000000005,,form submission,,,,,,,,,,,,,,,,,,,,,313202.6999999881,313202.5,309692.693,309696.09999996424,309709.337,313208.479,,,
Trap 1,flow.Sequence,2_2,2022-02-17T16:48:43.156Z,,,,,,,,,,,,,,,,,,,,,,,,,,,,,,,12391.033999999985,,completion,,,,,,,,,,,,,,,,,,,,,313202.89999997616,313202.5,300794.874,300799,300811.466,313208.479,,,
Standby,html.Page,2_3_0,2022-02-17T16:48:51.144Z,,,,,,,,,,,,,,,,,,,,,,,,,,,,,,,7998.125999999989,,timeout,,,,,,,,,,,,,,,,,,,,,321190.7999999523,321189.913,313191.877,313202.89999997616,313208.479,321206.605,,,
Holding screen,html.Screen,2_3_1_0_0,2022-02-17T16:48:58.142Z,,,,,,,,,,,,,,,,,,,,,,,,,,,,,,,6998.363000000012,,timeout,,,,,,,,,,,,,,,,,,,,,328188.5,328188.217,321189.913,321191.39999997616,321206.605,328204.968,,,
screen,html.Screen,2_3_1_0_1_0,2022-02-17T16:49:00.329Z,,,,,,,,,,,,,,,,,48,,,,,,,,,,,,,,2169.831999952323,,response,,,,10,F,,,,,,Space,keypress(Space),,,,instrumental,,,,As -- --- ------ ------- --------- ----------- --------<br>--------- -------- --- ------- -- ------- ---- -- ------<br>-- --- -------- -------- ---------- ---- ---- ---- ------<br>-- --------- -- ---- -- --- -- --- ------- -- - -----<br>---------- -- -- -- ---- ----- -- ------ -- --- ------<br>-------,330375.89999997616,330374.7999999523,328188.217,328188.6999999881,328204.968,330387.816,,0,As
screen,html.Screen,2_3_1_0_1_1,2022-02-17T16:49:01.425Z,,,,,,,,,,,,,,,,,48,,,,,,,,,,,,,,1082.3839999880875,,response,,,,10,F,,,,,,Space,keypress(Space),,,,instrumental,,,,-- in --- ------ ------- --------- ----------- --------<br>--------- -------- --- ------- -- ------- ---- -- ------<br>-- --- -------- -------- ---------- ---- ---- ---- ------<br>-- --------- -- ---- -- --- -- --- ------- -- - -----<br>---------- -- -- -- ---- ----- -- ------ -- --- ------<br>-------,331471.39999997616,331470.1999999881,330371.481,330376,330387.816,331487.65,,1,in
screen,html.Screen,2_3_1_0_1_2,2022-02-17T16:49:01.803Z,,,,,,,,,,,,,,,,,48,,,,,,,,,,,,,,360.74999997613486,,response,,,,10,F,,,,,,Space,keypress(Space),,,,instrumental,,,,-- -- the ------ ------- --------- ----------- --------<br>--------- -------- --- ------- -- ------- ---- -- ------<br>-- --- -------- -------- ---------- ---- ---- ---- ------<br>-- --------- -- ---- -- --- -- --- ------- -- - -----<br>---------- -- -- -- ---- ----- -- ------ -- --- ------<br>-------,331849.59999996424,331848.39999997616,331470.959,331471.6999999881,331487.65,331854.125,,2,the
screen,html.Screen,2_3_1_0_1_3,2022-02-17T16:49:02.169Z,,,,,,,,,,,,,,,,,48,,,,,,,,,,,,,,359.9749999642372,,response,,,,10,F,,,,,,Space,keypress(Space),,,,instrumental,,,,-- -- --- United ------- --------- ----------- --------<br>--------- -------- --- ------- -- ------- ---- -- ------<br>-- --- -------- -------- ---------- ---- ---- ---- ------<br>-- --------- -- ---- -- --- -- --- ------- -- - -----<br>---------- -- -- -- ---- ----- -- ------ -- --- ------<br>-------,332215.59999996424,332214.09999996424,331837.522,331849.89999997616,331854.125,332220.699,,3,United
screen,html.Screen,2_3_1_0_1_4,2022-02-17T16:49:02.727Z,,,,,,,,,,,,,,,,,48,,,,,,,,,,,,,,551.6009999522939,,response,,,,10,F,,,,,,Space,keypress(Space),,,,instrumental,,,,"-- -- --- ------ States, --------- ----------- --------<br>--------- -------- --- ------- -- ------- ---- -- ------<br>-- --- -------- -------- ---------- ---- ---- ---- ------<br>-- --------- -- ---- -- --- -- --- ------- -- - -----<br>---------- -- -- -- ---- ----- -- ------ -- --- ------<br>-------",332774,332772.2999999523,332204.121,332215.89999997616,332220.699,332787.29,,4,"States,"
screen,html.Screen,2_3_1_0_1_5,2022-02-17T16:49:03.450Z,,,,,,,,,,,,,,,,,48,,,,,,,,,,,,,,705.9099999881,,response,,,,10,F,,,,,,Space,keypress(Space),,,,instrumental,,,,-- -- --- ------ ------- Colombian ----------- --------<br>--------- -------- --- ------- -- ------- ---- -- ------<br>-- --- -------- -------- ---------- ---- ---- ---- ------<br>-- --------- -- ---- -- --- -- --- ------- -- - -----<br>---------- -- -- -- ---- ----- -- ------ -- --- ------<br>-------,333496.2999999523,333493.1999999881,332770.744,332774.59999996424,332787.29,333503.726,,5,Colombian
screen,html.Screen,2_3_1_0_1_6,2022-02-17T16:49:03.983Z,,,,,,,,,,,,,,,,,48,,,,,,,,,,,,,,524.4739999880549,,response,,,,10,F,,,,,,Space,keypress(Space),,,,instrumental,,,,-- -- --- ------ ------- --------- legislation --------<br>--------- -------- --- ------- -- ------- ---- -- ------<br>-- --- -------- -------- ---------- ---- ---- ---- ------<br>-- --------- -- ---- -- --- -- --- ------- -- - -----<br>---------- -- -- -- ---- ----- -- ------ -- --- ------<br>-------,334029.59999996424,334028.1999999881,333487.182,333496.6999999881,333503.726,334036.931,,6,legislation
screen,html.Screen,2_3_1_0_1_7,2022-02-17T16:49:04.470Z,,,,,,,,,,,,,,,,,48,,,,,,,,,,,,,,478.0690000000177,,response,,,,10,F,,,,,,Space,keypress(Space),,,,instrumental,,,,-- -- --- ------ ------- --------- ----------- requires<br>--------- -------- --- ------- -- ------- ---- -- ------<br>-- --- -------- -------- ---------- ---- ---- ---- ------<br>-- --------- -- ---- -- --- -- --- ------- -- - -----<br>---------- -- -- -- ---- ----- -- ------ -- --- ------<br>-------,334517.09999996424,334515,334020.363,334029.7999999523,334036.931,334520.17,,7,requires
screen,html.Screen,2_3_1_0_1_8,2022-02-17T16:49:04.944Z,,,,,,,,,,,,,,,,,48,,,,,,,,,,,,,,468.52999998809537,,response,,,,10,F,,,,,,Space,keypress(Space),,,,instrumental,,,,-- -- --- ------ ------- --------- ----------- --------<br>travelers -------- --- ------- -- ------- ---- -- ------<br>-- --- -------- -------- ---------- ---- ---- ---- ------<br>-- --------- -- ---- -- --- -- --- ------- -- - -----<br>---------- -- -- -- ---- ----- -- ------ -- --- ------<br>-------,334990.39999997616,334988.6999999881,334503.591,334517.2999999523,334520.17,335003.448,,8,travelers
screen,html.Screen,2_3_1_0_1_9,2022-02-17T16:49:05.346Z,,,,,,,,,,,,,,,,,48,,,,,,,,,,,,,,387.35199995234143,,response,,,,10,F,,,,,,Space,keypress(Space),,,,instrumental,,,,-- -- --- ------ ------- --------- ----------- --------<br>--------- entering --- ------- -- ------- ---- -- ------<br>-- --- -------- -------- ---------- ---- ---- ---- ------<br>-- --------- -- ---- -- --- -- --- ------- -- - -----<br>---------- -- -- -- ---- ----- -- ------ -- --- ------<br>-------,335392.39999997616,335390.7999999523,334986.813,334990.59999996424,335003.448,335403.418,,9,entering
screen,html.Screen,2_3_1_0_1_10,2022-02-17T16:49:05.910Z,,,,,,,,,,,,,,,,,48,,,,,,,,,,,,,,552.281999988074,,response,,,,10,F,,,,,,Space,keypress(Space),,,,instrumental,,,,-- -- --- ------ ------- --------- ----------- --------<br>--------- -------- the ------- -- ------- ---- -- ------<br>-- --- -------- -------- ---------- ---- ---- ---- ------<br>-- --------- -- ---- -- --- -- --- ------- -- - -----<br>---------- -- -- -- ---- ----- -- ------ -- --- ------<br>-------,335956.5,335955.6999999881,335386.706,335392.6999999881,335403.418,335969.794,,10,the
screen,html.Screen,2_3_1_0_1_11,2022-02-17T16:49:06.402Z,,,,,,,,,,,,,,,,,48,,,,,,,,,,,,,,476.8059999642428,,response,,,,10,F,,,,,,Space,keypress(Space),,,,instrumental,,,,-- -- --- ------ ------- --------- ----------- --------<br>--------- -------- --- country -- ------- ---- -- ------<br>-- --- -------- -------- ---------- ---- ---- ---- ------<br>-- --------- -- ---- -- --- -- --- ------- -- - -----<br>---------- -- -- -- ---- ----- -- ------ -- --- ------<br>-------,336448.2999999523,336446.59999996424,335953.226,335956.6999999881,335969.794,336453.015,,11,country
screen,html.Screen,2_3_1_0_1_12,2022-02-17T16:49:06.862Z,,,,,,,,,,,,,,,,,48,,,,,,,,,,,,,,454.7849999523023,,response,,,,10,F,,,,,,Space,keypress(Space),,,,instrumental,,,,-- -- --- ------ ------- --------- ----------- --------<br>--------- -------- --- ------- to ------- ---- -- ------<br>-- --- -------- -------- ---------- ---- ---- ---- ------<br>-- --------- -- ---- -- --- -- --- ------- -- - -----<br>---------- -- -- -- ---- ----- -- ------ -- --- ------<br>-------,336909,336907.7999999523,336436.456,336448.5,336453.015,336919.618,,12,to
screen,html.Screen,2_3_1_0_1_13,2022-02-17T16:49:07.414Z,,,,,,,,,,,,,,,,,48,,,,,,,,,,,,,,538.9819999642204,,response,,,,10,F,,,,,,Space,keypress(Space),,,,instrumental,,,,-- -- --- ------ ------- --------- ----------- --------<br>--------- -------- --- ------- -- declare ---- -- ------<br>-- --- -------- -------- ---------- ---- ---- ---- ------<br>-- --------- -- ---- -- --- -- --- ------- -- - -----<br>---------- -- -- -- ---- ----- -- ------ -- --- ------<br>-------,337460.7999999523,337458.59999996424,336903.012,336909.2999999523,336919.618,337469.451,,13,declare
screen,html.Screen,2_3_1_0_1_14,2022-02-17T16:49:07.778Z,,,,,,,,,,,,,,,,,48,,,,,,,,,,,,,,353.6489999642363,,response,,,,10,F,,,,,,Space,keypress(Space),,,,instrumental,,,,-- -- --- ------ ------- --------- ----------- --------<br>--------- -------- --- ------- -- ------- cash -- ------<br>-- --- -------- -------- ---------- ---- ---- ---- ------<br>-- --------- -- ---- -- --- -- --- ------- -- - -----<br>---------- -- -- -- ---- ----- -- ------ -- --- ------<br>-------,337824.6999999881,337823.09999996424,337452.865,337461.2999999523,337469.451,337836.108,,14,cash
screen,html.Screen,2_3_1_0_1_15,2022-02-17T16:49:08.233Z,,,,,,,,,,,,,,,,,48,,,,,,,,,,,,,,442.0919999880716,,response,,,,10,F,,,,,,Space,keypress(Space),,,,instrumental,,,,-- -- --- ------ ------- --------- ----------- --------<br>--------- -------- --- ------- -- ------- ---- in ------<br>-- --- -------- -------- ---------- ---- ---- ---- ------<br>-- --------- -- ---- -- --- -- --- ------- -- - -----<br>---------- -- -- -- ---- ----- -- ------ -- --- ------<br>-------,338279.7999999523,338278.1999999881,337819.462,337824.89999997616,337836.108,338285.912,,15,in
screen,html.Screen,2_3_1_0_1_16,2022-02-17T16:49:08.863Z,,,,,,,,,,,,,,,,,48,,,,,,,,,,,,,,622.487999976147,,response,,,,10,F,,,,,,Space,keypress(Space),,,,instrumental,,,,-- -- --- ------ ------- --------- ----------- --------<br>--------- -------- --- ------- -- ------- ---- -- excess<br>-- --- -------- -------- ---------- ---- ---- ---- ------<br>-- --------- -- ---- -- --- -- --- ------- -- - -----<br>---------- -- -- -- ---- ----- -- ------ -- --- ------<br>-------,338909.59999996424,338908.39999997616,338269.366,338280.09999996424,338285.912,338919.062,,16,excess
screen,html.Screen,2_3_1_0_1_17,2022-02-17T16:49:09.319Z,,,,,,,,,,,,,,,,,48,,,,,,,,,,,,,,445.6379999881028,,response,,,,10,F,,,,,,Space,keypress(Space),,,,instrumental,,,,-- -- --- ------ ------- --------- ----------- --------<br>--------- -------- --- ------- -- ------- ---- -- ------<br>of --- -------- -------- ---------- ---- ---- ---- ------<br>-- --------- -- ---- -- --- -- --- ------- -- - -----<br>---------- -- -- -- ---- ----- -- ------ -- --- ------<br>-------,339365.7999999523,339364.6999999881,338902.573,338910.09999996424,338919.062,339368.97,,17,of
screen,html.Screen,2_3_1_0_1_18,2022-02-17T16:49:09.666Z,,,,,,,,,,,,,,,,,48,,,,,,,,,,,,,,342.9299999761861,,response,,,,10,F,,,,,,Space,keypress(Space),,,,instrumental,,,,-- -- --- ------ ------- --------- ----------- --------<br>--------- -------- --- ------- -- ------- ---- -- ------<br>-- ten -------- -------- ---------- ---- ---- ---- ------<br>-- --------- -- ---- -- --- -- --- ------- -- - -----<br>---------- -- -- -- ---- ----- -- ------ -- --- ------<br>-------,339712.89999997616,339711.89999997616,339352.345,339365.89999997616,339368.97,339718.842,,18,ten
screen,html.Screen,2_3_1_0_1_19,2022-02-17T16:49:10.151Z,,,,,,,,,,,,,,,,,48,,,,,,,,,,,,,,477.757999964233,,response,,,,10,F,,,,,,Space,keypress(Space),,,,instrumental,,,,-- -- --- ------ ------- --------- ----------- --------<br>--------- -------- --- ------- -- ------- ---- -- ------<br>-- --- thousand -------- ---------- ---- ---- ---- ------<br>-- --------- -- ---- -- --- -- --- ------- -- - -----<br>---------- -- -- -- ---- ----- -- ------ -- --- ------<br>-------,340198,340196.59999996424,339702.253,339713,339718.842,340202.157,,19,thousand
screen,html.Screen,2_3_1_0_1_20,2022-02-17T16:49:10.520Z,,,,,,,,,,,,,,,,,48,,,,,,,,,,,,,,362.54299998807255,,response,,,,10,F,,,,,,Space,keypress(Space),,,,instrumental,,,,-- -- --- ------ ------- --------- ----------- --------<br>--------- -------- --- ------- -- ------- ---- -- ------<br>-- --- -------- dollars. ---------- ---- ---- ---- ------<br>-- --------- -- ---- -- --- -- --- ------- -- - -----<br>---------- -- -- -- ---- ----- -- ------ -- --- ------<br>-------,340566.1999999881,340564.6999999881,340185.493,340198.1999999881,340202.157,340568.702,,20,dollars.
screen,html.Screen,2_3_1_0_1_21,2022-02-17T16:49:11.760Z,,,,,,,,,,,,,,,,,48,,,,,,,,,,,,,,1235.697999976168,,response,,,,10,F,,,,,,Space,keypress(Space),,,,instrumental,,,,-- -- --- ------ ------- --------- ----------- --------<br>--------- -------- --- ------- -- ------- ---- -- ------<br>-- --- -------- -------- Concealing ---- ---- ---- ------<br>-- --------- -- ---- -- --- -- --- ------- -- - -----<br>---------- -- -- -- ---- ----- -- ------ -- --- ------<br>-------,341806.59999996424,341804.39999997616,340552.067,340566.39999997616,340568.702,341818.515,,21,Concealing
screen,html.Screen,2_3_1_0_1_22,2022-02-17T16:49:12.197Z,,,,,,,,,,,,,,,,,48,,,,,,,,,,,,,,423.2849999523023,,response,,,,10,F,,,,,,Space,keypress(Space),,,,instrumental,,,,-- -- --- ------ ------- --------- ----------- --------<br>--------- -------- --- ------- -- ------- ---- -- ------<br>-- --- -------- -------- ---------- more ---- ---- ------<br>-- --------- -- ---- -- --- -- --- ------- -- - -----<br>---------- -- -- -- ---- ----- -- ------ -- --- ------<br>-------,342243.2999999523,342241.7999999523,341801.866,341807.1999999881,341818.515,342251.856,,22,more
screen,html.Screen,2_3_1_0_1_23,2022-02-17T16:49:12.541Z,,,,,,,,,,,,,,,,,48,,,,,,,,,,,,,,333.74399996420834,,response,,,,10,F,,,,,,Space,keypress(Space),,,,instrumental,,,,-- -- --- ------ ------- --------- ----------- --------<br>--------- -------- --- ------- -- ------- ---- -- ------<br>-- --- -------- -------- ---------- ---- than ---- ------<br>-- --------- -- ---- -- --- -- --- ------- -- - -----<br>---------- -- -- -- ---- ----- -- ------ -- --- ------<br>-------,342587.2999999523,342585.59999996424,342235.09,342243.5,342251.856,342601.649,,23,than
screen,html.Screen,2_3_1_0_1_24,2022-02-17T16:49:13.025Z,,,,,,,,,,,,,,,,,48,,,,,,,,,,,,,,468.4509999642614,,response,,,,10,F,,,,,,Space,keypress(Space),,,,instrumental,,,,-- -- --- ------ ------- --------- ----------- --------<br>--------- -------- --- ------- -- ------- ---- -- ------<br>-- --- -------- -------- ---------- ---- ---- that ------<br>-- --------- -- ---- -- --- -- --- ------- -- - -----<br>---------- -- -- -- ---- ----- -- ------ -- --- ------<br>-------,343071.6999999881,343070.09999996424,342585.016,342587.7999999523,342601.649,343084.916,,24,that
screen,html.Screen,2_3_1_0_1_25,2022-02-17T16:49:13.633Z,,,,,,,,,,,,,,,,,48,,,,,,,,,,,,,,593.2839999880525,,response,,,,10,F,,,,,,Space,keypress(Space),,,,instrumental,,,,-- -- --- ------ ------- --------- ----------- --------<br>--------- -------- --- ------- -- ------- ---- -- ------<br>-- --- -------- -------- ---------- ---- ---- ---- amount<br>-- --------- -- ---- -- --- -- --- ------- -- - -----<br>---------- -- -- -- ---- ----- -- ------ -- --- ------<br>-------,343679.89999997616,343678.1999999881,343068.203,343072,343084.916,343684.646,,25,amount
screen,html.Screen,2_3_1_0_1_26,2022-02-17T16:49:14.144Z,,,,,,,,,,,,,,,,,48,,,,,,,,,,,,,,504.3539999999921,,response,,,,10,F,,,,,,Space,keypress(Space),,,,instrumental,,,,-- -- --- ------ ------- --------- ----------- --------<br>--------- -------- --- ------- -- ------- ---- -- ------<br>-- --- -------- -------- ---------- ---- ---- ---- ------<br>to --------- -- ---- -- --- -- --- ------- -- - -----<br>---------- -- -- -- ---- ----- -- ------ -- --- ------<br>-------,344190.89999997616,344189,343668.105,343680.09999996424,343684.646,344201.295,,26,to
screen,html.Screen,2_3_1_0_1_27,2022-02-17T16:49:14.706Z,,,,,,,,,,,,,,,,,48,,,,,,,,,,,,,,549.8049999642535,,response,,,,10,F,,,,,,Space,keypress(Space),,,,instrumental,,,,-- -- --- ------ ------- --------- ----------- --------<br>--------- -------- --- ------- -- ------- ---- -- ------<br>-- --- -------- -------- ---------- ---- ---- ---- ------<br>-- transport -- ---- -- --- -- --- ------- -- - -----<br>---------- -- -- -- ---- ----- -- ------ -- --- ------<br>-------,344752.6999999881,344751.09999996424,344184.64,344191.5,344201.295,344767.817,,27,transport
screen,html.Screen,2_3_1_0_1_28,2022-02-17T16:49:15.152Z,,,,,,,,,,,,,,,,,48,,,,,,,,,,,,,,429.7829999642563,,response,,,,10,F,,,,,,Space,keypress(Space),,,,instrumental,,,,-- -- --- ------ ------- --------- ----------- --------<br>--------- -------- --- ------- -- ------- ---- -- ------<br>-- --- -------- -------- ---------- ---- ---- ---- ------<br>-- --------- it ---- -- --- -- --- ------- -- - -----<br>---------- -- -- -- ---- ----- -- ------ -- --- ------<br>-------,345199.09999996424,345197.59999996424,344751.154,344752.89999997616,344767.817,345230.505,,28,it
screen,html.Screen,2_3_1_0_1_29,2022-02-17T16:49:15.601Z,,,,,,,,,,,,,,,,,48,,,,,,,,,,,,,,415.1949999880744,,response,,,,10,F,,,,,,Space,keypress(Space),,,,instrumental,,,,-- -- --- ------ ------- --------- ----------- --------<br>--------- -------- --- ------- -- ------- ---- -- ------<br>-- --- -------- -------- ---------- ---- ---- ---- ------<br>-- --------- -- into -- --- -- --- ------- -- - -----<br>---------- -- -- -- ---- ----- -- ------ -- --- ------<br>-------,345647.5,345645.6999999881,345184.439,345199.39999997616,345230.505,345650.862,,29,into
screen,html.Screen,2_3_1_0_1_30,2022-02-17T16:49:16.085Z,,,,,,,,,,,,,,,,,48,,,,,,,,,,,,,,479.7379999642144,,response,,,,10,F,,,,,,Space,keypress(Space),,,,instrumental,,,,-- -- --- ------ ------- --------- ----------- --------<br>--------- -------- --- ------- -- ------- ---- -- ------<br>-- --- -------- -------- ---------- ---- ---- ---- ------<br>-- --------- -- ---- or --- -- --- ------- -- - -----<br>---------- -- -- -- ---- ----- -- ------ -- --- ------<br>-------,346131.89999997616,346130.59999996424,345634.316,345647.6999999881,345650.862,346134.045,,30,or
screen,html.Screen,2_3_1_0_1_31,2022-02-17T16:49:16.636Z,,,,,,,,,,,,,,,,,48,,,,,,,,,,,,,,547.3549999761744,,response,,,,10,F,,,,,,Space,keypress(Space),,,,instrumental,,,,-- -- --- ------ ------- --------- ----------- --------<br>--------- -------- --- ------- -- ------- ---- -- ------<br>-- --- -------- -------- ---------- ---- ---- ---- ------<br>-- --------- -- ---- -- out -- --- ------- -- - -----<br>---------- -- -- -- ---- ----- -- ------ -- --- ------<br>-------,346682.1999999881,346681.39999997616,346117.47,346132.09999996424,346134.045,346683.892,,31,out
screen,html.Screen,2_3_1_0_1_32,2022-02-17T16:49:17.069Z,,,,,,,,,,,,,,,,,48,,,,,,,,,,,,,,431.5079999761656,,response,,,,10,F,,,,,,Space,keypress(Space),,,,instrumental,,,,-- -- --- ------ ------- --------- ----------- --------<br>--------- -------- --- ------- -- ------- ---- -- ------<br>-- --- -------- -------- ---------- ---- ---- ---- ------<br>-- --------- -- ---- -- --- of --- ------- -- - -----<br>---------- -- -- -- ---- ----- -- ------ -- --- ------<br>-------,347116.09999996424,347115.39999997616,346667.381,346682.2999999523,346683.892,347138.796,,32,of
screen,html.Screen,2_3_1_0_1_33,2022-02-17T16:49:17.393Z,,,,,,,,,,,,,,,,,48,,,,,,,,,,,,,,299.204000000027,,response,,,,10,F,,,,,,Space,keypress(Space),,,,instrumental,,,,-- -- --- ------ ------- --------- ----------- --------<br>--------- -------- --- ------- -- ------- ---- -- ------<br>-- --- -------- -------- ---------- ---- ---- ---- ------<br>-- --------- -- ---- -- --- -- the ------- -- - -----<br>---------- -- -- -- ---- ----- -- ------ -- --- ------<br>-------,347439.39999997616,347438,347100.544,347116.2999999523,347138.796,347450.416,,33,the
screen,html.Screen,2_3_1_0_1_34,2022-02-17T16:49:17.857Z,,,,,,,,,,,,,,,,,48,,,,,,,,,,,,,,451.7839999880525,,response,,,,10,F,,,,,,Space,keypress(Space),,,,instrumental,,,,-- -- --- ------ ------- --------- ----------- --------<br>--------- -------- --- ------- -- ------- ---- -- ------<br>-- --- -------- -------- ---------- ---- ---- ---- ------<br>-- --------- -- ---- -- --- -- --- country -- - -----<br>---------- -- -- -- ---- ----- -- ------ -- --- ------<br>-------,347903.59999996424,347902.1999999881,347433.737,347439.6999999881,347450.416,347916.97,,34,country
screen,html.Screen,2_3_1_0_1_35,2022-02-17T16:49:18.401Z,,,,,,,,,,,,,,,,,48,,,,,,,,,,,,,,529.229999988107,,response,,,,10,F,,,,,,Space,keypress(Space),,,,instrumental,,,,-- -- --- ------ ------- --------- ----------- --------<br>--------- -------- --- ------- -- ------- ---- -- ------<br>-- --- -------- -------- ---------- ---- ---- ---- ------<br>-- --------- -- ---- -- --- -- --- ------- is - -----<br>---------- -- -- -- ---- ----- -- ------ -- --- ------<br>-------,348448.09999996424,348446.1999999881,347900.307,347904,347916.97,348450.188,,35,is
screen,html.Screen,2_3_1_0_1_36,2022-02-17T16:49:18.882Z,,,,,,,,,,,,,,,,,48,,,,,,,,,,,,,,476.61199995229254,,response,,,,10,F,,,,,,Space,keypress(Space),,,,instrumental,,,,-- -- --- ------ ------- --------- ----------- --------<br>--------- -------- --- ------- -- ------- ---- -- ------<br>-- --- -------- -------- ---------- ---- ---- ---- ------<br>-- --------- -- ---- -- --- -- --- ------- -- a -----<br>---------- -- -- -- ---- ----- -- ------ -- --- ------<br>-------,348928.5,348926.7999999523,348433.54,348448.39999997616,348450.188,348933.421,,36,a
screen,html.Screen,2_3_1_0_1_37,2022-02-17T16:49:19.409Z,,,,,,,,,,,,,,,,,48,,,,,,,,,,,,,,520.2789999881061,,response,,,,10,F,,,,,,Space,keypress(Space),,,,instrumental,,,,-- -- --- ------ ------- --------- ----------- --------<br>--------- -------- --- ------- -- ------- ---- -- ------<br>-- --- -------- -------- ---------- ---- ---- ---- ------<br>-- --------- -- ---- -- --- -- --- ------- -- - crime<br>---------- -- -- -- ---- ----- -- ------ -- --- ------<br>-------,349455.1999999881,349453.6999999881,348916.847,348929,348933.421,349466.68,,37,crime
screen,html.Screen,2_3_1_0_1_38,2022-02-17T16:49:20.629Z,,,,,,,,,,,,,,,,,48,,,,,,,,,,,,,,1207.820000000007,,response,,,,10,F,,,,,,Space,keypress(Space),,,,instrumental,,,,-- -- --- ------ ------- --------- ----------- --------<br>--------- -------- --- ------- -- ------- ---- -- ------<br>-- --- -------- -------- ---------- ---- ---- ---- ------<br>-- --------- -- ---- -- --- -- --- ------- -- - -----<br>punishable -- -- -- ---- ----- -- ------ -- --- ------<br>-------,350675.5,350674.5,349450.042,349455.59999996424,349466.68,350682.932,,38,punishable
screen,html.Screen,2_3_1_0_1_39,2022-02-17T16:49:21.049Z,,,,,,,,,,,,,,,,,48,,,,,,,,,,,,,,410.8679999523447,,response,,,,10,F,,,,,,Space,keypress(Space),,,,instrumental,,,,-- -- --- ------ ------- --------- ----------- --------<br>--------- -------- --- ------- -- ------- ---- -- ------<br>-- --- -------- -------- ---------- ---- ---- ---- ------<br>-- --------- -- ---- -- --- -- --- ------- -- - -----<br>---------- by -- -- ---- ----- -- ------ -- --- ------<br>-------,351095.1999999881,351093.7999999523,350666.604,350675.6999999881,350682.932,351099.532,,39,by
screen,html.Screen,2_3_1_0_1_40,2022-02-17T16:49:21.410Z,,,,,,,,,,,,,,,,,48,,,,,,,,,,,,,,355.3679999761516,,response,,,,10,F,,,,,,Space,keypress(Space),,,,instrumental,,,,-- -- --- ------ ------- --------- ----------- --------<br>--------- -------- --- ------- -- ------- ---- -- ------<br>-- --- -------- -------- ---------- ---- ---- ---- ------<br>-- --------- -- ---- -- --- -- --- ------- -- - -----<br>---------- -- up -- ---- ----- -- ------ -- --- ------<br>-------,351456.59999996424,351454.89999997616,351082.944,351095.5,351099.532,351466.156,,40,up
screen,html.Screen,2_3_1_0_1_41,2022-02-17T16:49:22.432Z,,,,,,,,,,,,,,,,,48,,,,,,,,,,,,,,1010.643999952299,,response,,,,10,F,,,,,,Space,keypress(Space),,,,instrumental,,,,-- -- --- ------ ------- --------- ----------- --------<br>--------- -------- --- ------- -- ------- ---- -- ------<br>-- --- -------- -------- ---------- ---- ---- ---- ------<br>-- --------- -- ---- -- --- -- --- ------- -- - -----<br>---------- -- -- to ---- ----- -- ------ -- --- ------<br>-------,352478.39999997616,352476.7999999523,351449.564,351456.89999997616,351466.156,352482.552,,41,to
screen,html.Screen,2_3_1_0_1_42,2022-02-17T16:49:22.929Z,,,,,,,,,,,,,,,,,48,,,,,,,,,,,,,,492.04799996421207,,response,,,,10,F,,,,,,Space,keypress(Space),,,,instrumental,,,,-- -- --- ------ ------- --------- ----------- --------<br>--------- -------- --- ------- -- ------- ---- -- ------<br>-- --- -------- -------- ---------- ---- ---- ---- ------<br>-- --------- -- ---- -- --- -- --- ------- -- - -----<br>---------- -- -- -- five ----- -- ------ -- --- ------<br>-------,352976.1999999881,352974.59999996424,352466.062,352478.6999999881,352482.552,352982.458,,42,five
