sender,sender_type,sender_id,timestamp,meta,,Blues,Classical,Country,Dance,Electronic,Folk,Gospel,Hip-Hop,Jazz,Latin,Musical/Film,New-age,Pop,Prolific_id,Provo_ID,R&B,Rap,Reggae,Religious,Rock,Soul,Swing,Traditional,age,artist_name,correct,correctResponse,distraction,duration,education,ended_on,familiarity,gender,headphone_check_performance,item,list,music_frequency,offensiveness,pleasantness,position_correct,preference,response,response_action,snippet_file,song_name,song_rating,sound,stimulus_1,stimulus_2,stimulus_3,text,time_commit,time_end,time_render,time_run,time_show,time_switch,url,word,word_ID
Prolific ID,html.Form,0,2022-02-04T13:28:39.164Z,"{""labjs_version"":""20.2.2"",""labjs_build"":{""flavor"":""production"",""commit"":""a25486e0c714a0ae2ce03ff94b7bb6896854dcfa""},""location"":""https://run.pavlovia.org/mvasilev/prolific2_music_d/"",""userAgent"":""Mozilla/5.0 (Macintosh; Intel Mac OS X 10_15_7) AppleWebKit/605.1.15 (KHTML, like Gecko) Version/15.2 Safari/605.1.15"",""platform"":""MacIntel"",""language"":""en-GB"",""locale"":""en-GB"",""timeZone"":""Europe/London"",""timezoneOffset"":0,""screen_width"":2240,""screen_height"":1260,""scroll_width"":1369,""scroll_height"":927,""window_innerWidth"":1369,""window_innerHeight"":975,""devicePixelRatio"":2}",,,,,,,,,,,,,,,5e922781962a2205f6f22c59,,,,,,,,,,,,,,,78224,,form submission,,,,,,,,,,,,,,,,,,,,,85514,85513,7272,7262,7289,85539,{},,
Introduction,html.Screen,1_0,2022-02-04T13:28:44.760Z,,,,,,,,,,,,,,,,,,,,,,,,,,,,,,,5650,,response,,,,,,,,,,,continue,click button,,,,,,,,,91110,91172,85522,85514,85539,91139,,,
Volume calibration,html.Screen,1_1,2022-02-04T13:29:01.609Z,,,,,,,,,,,,,,,,,,,,,,,,,,,,,,,16899,,response,,,,,,,,,,,continue,click button,,,,,,,,,107959,108022,91123,91110,91139,107990,,,
Task instructions,html.Screen,1_2,2022-02-04T13:29:14.309Z,,,,,,,,,,,,,,,,,,,,,,,,,,,,,,,12750,,response,,,,,,,,,,,continue,click button,,,,,,,,,120659,120723,107973,107959,107990,120687,,,
Sounds,html.Screen,1_3_0_0,2022-02-04T13:29:18.574Z,,,,,,,,,,,,,,,,,,,,,,,,,,,,,,,4253,,timeout,,,,,,,,,3,,,,,,,,O,I,S,,124924,124923,120673,120660,120687,124940,,,
Judgement,html.Screen,1_3_0_1,2022-02-04T13:29:22.177Z,,,,,,,,,,,,,,,,,,,,,,,,,,,,true,3,,3666,,response,,,,,,,,,3,,3,click #choice-3,,,,,O,I,S,,128527.00000000001,128589,124923,124924,124940,128554,,,
Trial,flow.Sequence,1_3_0,2022-02-04T13:29:22.177Z,,,,,,,,,,,,,,,,,,,,,,,,,,,,,,,7902,,completion,,,,,,,,,3,,,,,,,,O,I,S,,128527.99999999999,128589,120673,120659,120687,128554,,,
Sounds,html.Screen,1_3_1_0,2022-02-04T13:29:26.440Z,,,,,,,,,,,,,,,,,,,,,,,,,,,,,,,4252,,timeout,,,,,,,,,2,,,,,,,,I,S,O,,132790,132790,128540,128527.99999999999,128554,132806,,,
Judgement,html.Screen,1_3_1_1,2022-02-04T13:29:28.226Z,,,,,,,,,,,,,,,,,,,,,,,,,,,,true,2,,1850.000000000029,,response,,,,,,,,,2,,2,click #choice-2,,,,,I,S,O,,134577,134640.00000000003,132790,132790,132806,134606,,,
Trial,flow.Sequence,1_3_1,2022-02-04T13:29:28.227Z,,,,,,,,,,,,,,,,,,,,,,,,,,,,,,,6086.000000000029,,completion,,,,,,,,,2,,,,,,,,I,S,O,,134577,134640.00000000003,128540,128527.99999999999,128554,134606,,,
Sounds,html.Screen,1_3_2_0,2022-02-04T13:29:32.490Z,,,,,,,,,,,,,,,,,,,,,,,,,,,,,,,4250,,timeout,,,,,,,,,1,,,,,,,,S,O,I,,138840,138840,134590,134577,134606,138856,,,
Judgement,html.Screen,1_3_2_1,2022-02-04T13:29:33.676Z,,,,,,,,,,,,,,,,,,,,,,,,,,,,true,1,,1250,,response,,,,,,,,,1,,1,click #choice-1,,,,,S,O,I,,140026,140090,138840,138840,138856,140055,,,
Trial,flow.Sequence,1_3_2,2022-02-04T13:29:33.676Z,,,,,,,,,,,,,,,,,,,,,,,,,,,,,,,5484,,completion,,,,,,,,,1,,,,,,,,S,O,I,,140026,140090,134590,134577,134606,140055,,,
Sounds,html.Screen,1_3_3_0,2022-02-04T13:29:37.940Z,,,,,,,,,,,,,,,,,,,,,,,,,,,,,,,4251,,timeout,,,,,,,,,2,,,,,,,,O,S,I,,144290,144290,140040,140027.00000000003,140055,144306,,,
Judgement,html.Screen,1_3_3_1,2022-02-04T13:29:38.610Z,,,,,,,,,,,,,,,,,,,,,,,,,,,,true,2,,733,,response,,,,,,,,,2,,2,click #choice-2,,,,,O,S,I,,144960,145023,144290,144290,144306,144989,,,
Trial,flow.Sequence,1_3_3,2022-02-04T13:29:38.610Z,,,,,,,,,,,,,,,,,,,,,,,,,,,,,,,4968,,completion,,,,,,,,,2,,,,,,,,O,S,I,,144960,145023,140040,140027.00000000003,140055,144989,,,
Sounds,html.Screen,1_3_4_0,2022-02-04T13:29:42.873Z,,,,,,,,,,,,,,,,,,,,,,,,,,,,,,,4250,,timeout,,,,,,,,,1,,,,,,,,S,I,O,,149223,149223,144973,144961,144989,149239,,,
Judgement,html.Screen,1_3_4_1,2022-02-04T13:29:43.610Z,,,,,,,,,,,,,,,,,,,,,,,,,,,,true,1,,800,,response,,,,,,,,,1,,1,click #choice-1,,,,,S,I,O,,149960,150023,149223,149223,149239,149989,,,
Trial,flow.Sequence,1_3_4,2022-02-04T13:29:43.610Z,,,,,,,,,,,,,,,,,,,,,,,,,,,,,,,5034,,completion,,,,,,,,,1,,,,,,,,S,I,O,,149960,150023,144973,144960,144989,149989,,,
Sounds,html.Screen,1_3_5_0,2022-02-04T13:29:47.873Z,,,,,,,,,,,,,,,,,,,,,,,,,,,,,,,4250,,timeout,,,,,,,,,3,,,,,,,,I,O,S,,154224,154223,149973,149961,149989,154239,,,
Judgement,html.Screen,1_3_5_1,2022-02-04T13:29:48.592Z,,,,,,,,,,,,,,,,,,,,,,,,,,,,true,3,,783,,response,,,,,,,,,3,,3,click #choice-3,,,,,I,O,S,,154943,155006,154223,154224,154239,154973,,,
Trial,flow.Sequence,1_3_5,2022-02-04T13:29:48.593Z,,,,,,,,,,,,,,,,,,,,,,,,,,,,,,,5017,,completion,,,,,,,,,3,,,,,,,,I,O,S,,154943,155006,149973,149961,149989,154973,,,
Task,flow.Loop,1_3,2022-02-04T13:29:48.595Z,,,,,,,,,,,,,,,,,,,,,,,,,,,,,,,34319,,completion,,,1,,,,,,,,,,,,,,,,,,154946,155006,120673,120659,120687,154973,,,
Trap,html.Screen,1_4,2022-02-04T13:29:48.596Z,,,,,,,,,,,,,,,,,,,,,,,,,,,,,,,NaN,,skipped,,,,,,,,,,,,,,,,,,,,,154947,155006,,154947,,154973,,,
Thanks,html.Screen,1_5,2022-02-04T13:29:53.509Z,,,,,,,,,,,,,,,,,,,,,,,,,,,,,,,4967,,response,,,,,,,,,,,continue,click button,,,,,,,,,159859,159923,154956,154947,154973,164823,,,
Headphone screening,flow.Sequence,1,2022-02-04T13:29:53.509Z,,,,,,,,,,,,,,,,,,,,,,,,,,,,,,,74384,,completion,,,,,,,,,,,,,,,,,,,,,159860,159923,85522,85514,85539,164823,,,
Instructions,html.Page,2_0,2022-02-04T13:30:35.832Z,,,,,,,,,,,,,,,,,,,,,,,,,,,,,,,37360,,form submission,,,,,,,,,,,,,,,,,,,,,202183,202183,164806,164794,164823,202207,,,
Holding screen,html.Screen,2_1_0_0,2022-02-04T13:30:45.839Z,,,,,,,,,,,,,,,,,,,,,,,,,,,,,,,10000,,timeout,,,,,,,,,,,,,,,,,,,,,212191,212190,202190,202184,202207,212207,,,
screen,html.Screen,2_1_0_1_0,2022-02-04T13:30:46.704Z,,,,,,,,,,,,,,,,,53,,,,,,,,,,,,,,927.0000000000291,,response,,,,99,,,,,,,Space,keypress(Space),,,,,,,,When -- ----- -- ------ - ------- --- ----------<br>------------- ------ ------ ---- ---- ------- ----- -- ----<br>-------- ------- -- ---------- --- - --- ----- ----- ----<br>---- --- --- ----- --- ---- ---- ------- ----- ---- -------<br>--- --- -- ----- -- --- ---- -- --- ---- -- ------ ------<br>--- ----- -- ----,213055,213117.00000000003,212190,212191,212207,213090,,0,When
screen,html.Screen,2_1_0_1_1,2022-02-04T13:30:47.491Z,,,,,,,,,,,,,,,,,53,,,,,,,,,,,,,,830,,response,,,,99,,,,,,,Space,keypress(Space),,,,,,,,---- it ----- -- ------ - ------- --- ----------<br>------------- ------ ------ ---- ---- ------- ----- -- ----<br>-------- ------- -- ---------- --- - --- ----- ----- ----<br>---- --- --- ----- --- ---- ---- ------- ----- ---- -------<br>--- --- -- ----- -- --- ---- -- --- ---- -- ------ ------<br>--- ----- -- ----,213842,213904,213074,213056,213090,213874,,1,it
screen,html.Screen,2_1_0_1_2,2022-02-04T13:30:48.235Z,,,,,,,,,,,,,,,,,53,,,,,,,,,,,,,,791,,response,,,,99,,,,,,,Space,keypress(Space),,,,,,,,---- -- comes -- ------ - ------- --- ----------<br>------------- ------ ------ ---- ---- ------- ----- -- ----<br>-------- ------- -- ---------- --- - --- ----- ----- ----<br>---- --- --- ----- --- ---- ---- ------- ----- ---- -------<br>--- --- -- ----- -- --- ---- -- --- ---- -- ------ ------<br>--- ----- -- ----,214586,214648,213857,213842,213874,214624,,2,comes
screen,html.Screen,2_1_0_1_3,2022-02-04T13:30:48.955Z,,,,,,,,,,,,,,,,,53,,,,,,,,,,,,,,761,,response,,,,99,,,,,,,Space,keypress(Space),,,,,,,,---- -- ----- to ------ - ------- --- ----------<br>------------- ------ ------ ---- ---- ------- ----- -- ----<br>-------- ------- -- ---------- --- - --- ----- ----- ----<br>---- --- --- ----- --- ---- ---- ------- ----- ---- -------<br>--- --- -- ----- -- --- ---- -- --- ---- -- ------ ------<br>--- ----- -- ----,215306,215368,214607,214586,214624,215340,,3,to
screen,html.Screen,2_1_0_1_4,2022-02-04T13:30:49.631Z,,,,,,,,,,,,,,,,,53,,,,,,,,,,,,,,721.0000000000291,,response,,,,99,,,,,,,Space,keypress(Space),,,,,,,,---- -- ----- -- having - ------- --- ----------<br>------------- ------ ------ ---- ---- ------- ----- -- ----<br>-------- ------- -- ---------- --- - --- ----- ----- ----<br>---- --- --- ----- --- ---- ---- ------- ----- ---- -------<br>--- --- -- ----- -- --- ---- -- --- ---- -- ------ ------<br>--- ----- -- ----,215982,216045.00000000003,215324,215306,215340,216007,,4,having
screen,html.Screen,2_1_0_1_5,2022-02-04T13:30:50.260Z,,,,,,,,,,,,,,,,,53,,,,,,,,,,,,,,683,,response,,,,99,,,,,,,Space,keypress(Space),,,,,,,,---- -- ----- -- ------ a ------- --- ----------<br>------------- ------ ------ ---- ---- ------- ----- -- ----<br>-------- ------- -- ---------- --- - --- ----- ----- ----<br>---- --- --- ----- --- ---- ---- ------- ----- ---- -------<br>--- --- -- ----- -- --- ---- -- --- ---- -- ------ ------<br>--- ----- -- ----,216611.00000000003,216673,215990,215983,216007,216640,,5,a
screen,html.Screen,2_1_0_1_6,2022-02-04T13:30:50.843Z,,,,,,,,,,,,,,,,,53,,,,,,,,,,,,,,633,,response,,,,99,,,,,,,Space,keypress(Space),,,,,,,,---- -- ----- -- ------ - lasting --- ----------<br>------------- ------ ------ ---- ---- ------- ----- -- ----<br>-------- ------- -- ---------- --- - --- ----- ----- ----<br>---- --- --- ----- --- ---- ---- ------- ----- ---- -------<br>--- --- -- ----- -- --- ---- -- --- ---- -- ------ ------<br>--- ----- -- ----,217194.00000000003,217257,216624,216611.00000000003,216640,217224,,6,lasting
screen,html.Screen,2_1_0_1_7,2022-02-04T13:30:51.453Z,,,,,,,,,,,,,,,,,53,,,,,,,,,,,,,,659,,response,,,,99,,,,,,,Space,keypress(Space),,,,,,,,---- -- ----- -- ------ - ------- and ----------<br>------------- ------ ------ ---- ---- ------- ----- -- ----<br>-------- ------- -- ---------- --- - --- ----- ----- ----<br>---- --- --- ----- --- ---- ---- ------- ----- ---- -------<br>--- --- -- ----- -- --- ---- -- --- ---- -- ------ ------<br>--- ----- -- ----,217804,217866,217207,217195,217224,217840,,7,and
screen,html.Screen,2_1_0_1_8,2022-02-04T13:30:51.993Z,,,,,,,,,,,,,,,,,53,,,,,,,,,,,,,,582,,response,,,,99,,,,,,,Space,keypress(Space),,,,,,,,---- -- ----- -- ------ - ------- --- fulfilling<br>------------- ------ ------ ---- ---- ------- ----- -- ----<br>-------- ------- -- ---------- --- - --- ----- ----- ----<br>---- --- --- ----- --- ---- ---- ------- ----- ---- -------<br>--- --- -- ----- -- --- ---- -- --- ---- -- ------ ------<br>--- ----- -- ----,218344,218406,217824,217804,217840,218374,,8,fulfilling
screen,html.Screen,2_1_0_1_9,2022-02-04T13:30:52.555Z,,,,,,,,,,,,,,,,,53,,,,,,,,,,,,,,611.0000000000291,,response,,,,99,,,,,,,Space,keypress(Space),,,,,,,,"---- -- ----- -- ------ - ------- --- ----------<br>relationship, ------ ------ ---- ---- ------- ----- -- ----<br>-------- ------- -- ---------- --- - --- ----- ----- ----<br>---- --- --- ----- --- ---- ---- ------- ----- ---- -------<br>--- --- -- ----- -- --- ---- -- --- ---- -- ------ ------<br>--- ----- -- ----",218906,218968.00000000003,218357,218344,218374,218940,,9,"relationship,"
screen,html.Screen,2_1_0_1_10,2022-02-04T13:30:53.118Z,,,,,,,,,,,,,,,,,53,,,,,,,,,,,,,,608,,response,,,,99,,,,,,,Space,keypress(Space),,,,,,,,---- -- ----- -- ------ - ------- --- ----------<br>------------- common ------ ---- ---- ------- ----- -- ----<br>-------- ------- -- ---------- --- - --- ----- ----- ----<br>---- --- --- ----- --- ---- ---- ------- ----- ---- -------<br>--- --- -- ----- -- --- ---- -- --- ---- -- ------ ------<br>--- ----- -- ----,219469,219532,218924,218906,218940,219507,,10,common
screen,html.Screen,2_1_0_1_11,2022-02-04T13:30:53.588Z,,,,,,,,,,,,,,,,,53,,,,,,,,,,,,,,512,,response,,,,99,,,,,,,Space,keypress(Space),,,,,,,,---- -- ----- -- ------ - ------- --- ----------<br>------------- ------ wisdom ---- ---- ------- ----- -- ----<br>-------- ------- -- ---------- --- - --- ----- ----- ----<br>---- --- --- ----- --- ---- ---- ------- ----- ---- -------<br>--- --- -- ----- -- --- ---- -- --- ---- -- ------ ------<br>--- ----- -- ----,219939,220002,219490,219470,219507,219974,,11,wisdom
screen,html.Screen,2_1_0_1_12,2022-02-04T13:30:54.141Z,,,,,,,,,,,,,,,,,53,,,,,,,,,,,,,,598,,response,,,,99,,,,,,,Space,keypress(Space),,,,,,,,---- -- ----- -- ------ - ------- --- ----------<br>------------- ------ ------ says ---- ------- ----- -- ----<br>-------- ------- -- ---------- --- - --- ----- ----- ----<br>---- --- --- ----- --- ---- ---- ------- ----- ---- -------<br>--- --- -- ----- -- --- ---- -- --- ---- -- ------ ------<br>--- ----- -- ----,220492.00000000003,220555,219957,219939,219974,220524,,12,says
screen,html.Screen,2_1_0_1_13,2022-02-04T13:30:54.602Z,,,,,,,,,,,,,,,,,53,,,,,,,,,,,,,,509,,response,,,,99,,,,,,,Space,keypress(Space),,,,,,,,---- -- ----- -- ------ - ------- --- ----------<br>------------- ------ ------ ---- that ------- ----- -- ----<br>-------- ------- -- ---------- --- - --- ----- ----- ----<br>---- --- --- ----- --- ---- ---- ------- ----- ---- -------<br>--- --- -- ----- -- --- ---- -- --- ---- -- ------ ------<br>--- ----- -- ----,220953,221016,220507,220492.00000000003,220524,220990,,13,that
screen,html.Screen,2_1_0_1_14,2022-02-04T13:30:55.099Z,,,,,,,,,,,,,,,,,53,,,,,,,,,,,,,,538,,response,,,,99,,,,,,,Space,keypress(Space),,,,,,,,---- -- ----- -- ------ - ------- --- ----------<br>------------- ------ ------ ---- ---- feeling ----- -- ----<br>-------- ------- -- ---------- --- - --- ----- ----- ----<br>---- --- --- ----- --- ---- ---- ------- ----- ---- -------<br>--- --- -- ----- -- --- ---- -- --- ---- -- ------ ------<br>--- ----- -- ----,221450.00000000003,221512,220974,220953,220990,221473,,14,feeling
screen,html.Screen,2_1_0_1_15,2022-02-04T13:30:55.591Z,,,,,,,,,,,,,,,,,53,,,,,,,,,,,,,,547,,response,,,,99,,,,,,,Space,keypress(Space),,,,,,,,---- -- ----- -- ------ - ------- --- ----------<br>------------- ------ ------ ---- ---- ------- close -- ----<br>-------- ------- -- ---------- --- - --- ----- ----- ----<br>---- --- --- ----- --- ---- ---- ------- ----- ---- -------<br>--- --- -- ----- -- --- ---- -- --- ---- -- ------ ------<br>--- ----- -- ----,221942,222004,221457,221450.00000000003,221473,221974,,15,close
screen,html.Screen,2_1_0_1_16,2022-02-04T13:30:56.020Z,,,,,,,,,,,,,,,,,53,,,,,,,,,,,,,,478,,response,,,,99,,,,,,,Space,keypress(Space),,,,,,,,---- -- ----- -- ------ - ------- --- ----------<br>------------- ------ ------ ---- ---- ------- ----- to ----<br>-------- ------- -- ---------- --- - --- ----- ----- ----<br>---- --- --- ----- --- ---- ---- ------- ----- ---- -------<br>--- --- -- ----- -- --- ---- -- --- ---- -- ------ ------<br>--- ----- -- ----,222372,222434,221956,221943,221974,222407,,16,to
screen,html.Screen,2_1_0_1_17,2022-02-04T13:30:56.516Z,,,,,,,,,,,,,,,,,53,,,,,,,,,,,,,,539,,response,,,,99,,,,,,,Space,keypress(Space),,,,,,,,---- -- ----- -- ------ - ------- --- ----------<br>------------- ------ ------ ---- ---- ------- ----- -- your<br>-------- ------- -- ---------- --- - --- ----- ----- ----<br>---- --- --- ----- --- ---- ---- ------- ----- ---- -------<br>--- --- -- ----- -- --- ---- -- --- ---- -- ------ ------<br>--- ----- -- ----,222867.00000000003,222929,222390,222372,222407,222890,,17,your
screen,html.Screen,2_1_0_1_18,2022-02-04T13:30:57.010Z,,,,,,,,,,,,,,,,,53,,,,,,,,,,,,,,551,,response,,,,99,,,,,,,Space,keypress(Space),,,,,,,,---- -- ----- -- ------ - ------- --- ----------<br>------------- ------ ------ ---- ---- ------- ----- -- ----<br>romantic ------- -- ---------- --- - --- ----- ----- ----<br>---- --- --- ----- --- ---- ---- ------- ----- ---- -------<br>--- --- -- ----- -- --- ---- -- --- ---- -- ------ ------<br>--- ----- -- ----,223361.00000000003,223424,222873,222867.00000000003,222890,223390,,18,romantic
screen,html.Screen,2_1_0_1_19,2022-02-04T13:30:57.437Z,,,,,,,,,,,,,,,,,53,,,,,,,,,,,,,,477,,response,,,,99,,,,,,,Space,keypress(Space),,,,,,,,---- -- ----- -- ------ - ------- --- ----------<br>------------- ------ ------ ---- ---- ------- ----- -- ----<br>-------- partner -- ---------- --- - --- ----- ----- ----<br>---- --- --- ----- --- ---- ---- ------- ----- ---- -------<br>--- --- -- ----- -- --- ---- -- --- ---- -- ------ ------<br>--- ----- -- ----,223788,223851,223374,223361.00000000003,223390,223824,,19,partner
screen,html.Screen,2_1_0_1_20,2022-02-04T13:30:57.930Z,,,,,,,,,,,,,,,,,53,,,,,,,,,,,,,,538,,response,,,,99,,,,,,,Space,keypress(Space),,,,,,,,---- -- ----- -- ------ - ------- --- ----------<br>------------- ------ ------ ---- ---- ------- ----- -- ----<br>-------- ------- is ---------- --- - --- ----- ----- ----<br>---- --- --- ----- --- ---- ---- ------- ----- ---- -------<br>--- --- -- ----- -- --- ---- -- --- ---- -- ------ ------<br>--- ----- -- ----,224282,224345,223807,223788,223824,224307,,20,is
screen,html.Screen,2_1_0_1_21,2022-02-04T13:30:58.382Z,,,,,,,,,,,,,,,,,53,,,,,,,,,,,,,,505.0000000000291,,response,,,,99,,,,,,,Space,keypress(Space),,,,,,,,---- -- ----- -- ------ - ------- --- ----------<br>------------- ------ ------ ---- ---- ------- ----- -- ----<br>-------- ------- -- paramount. --- - --- ----- ----- ----<br>---- --- --- ----- --- ---- ---- ------- ----- ---- -------<br>--- --- -- ----- -- --- ---- -- --- ---- -- ------ ------<br>--- ----- -- ----,224733,224795.00000000003,224290,224282,224307,224757,,21,paramount.
screen,html.Screen,2_1_0_1_22,2022-02-04T13:30:58.876Z,,,,,,,,,,,,,,,,,53,,,,,,,,,,,,,,550,,response,,,,99,,,,,,,Space,keypress(Space),,,,,,,,---- -- ----- -- ------ - ------- --- ----------<br>------------- ------ ------ ---- ---- ------- ----- -- ----<br>-------- ------- -- ---------- But - --- ----- ----- ----<br>---- --- --- ----- --- ---- ---- ------- ----- ---- -------<br>--- --- -- ----- -- --- ---- -- --- ---- -- ------ ------<br>--- ----- -- ----,225227,225290,224740,224733,224757,225257,,22,But
screen,html.Screen,2_1_0_1_23,2022-02-04T13:30:59.349Z,,,,,,,,,,,,,,,,,53,,,,,,,,,,,,,,523,,response,,,,99,,,,,,,Space,keypress(Space),,,,,,,,---- -- ----- -- ------ - ------- --- ----------<br>------------- ------ ------ ---- ---- ------- ----- -- ----<br>-------- ------- -- ---------- --- a --- ----- ----- ----<br>---- --- --- ----- --- ---- ---- ------- ----- ---- -------<br>--- --- -- ----- -- --- ---- -- --- ---- -- ------ ------<br>--- ----- -- ----,225700.00000000003,225763,225240,225227,225257,225724,,23,a
screen,html.Screen,2_1_0_1_24,2022-02-04T13:30:59.822Z,,,,,,,,,,,,,,,,,53,,,,,,,,,,,,,,529.0000000000291,,response,,,,99,,,,,,,Space,keypress(Space),,,,,,,,---- -- ----- -- ------ - ------- --- ----------<br>------------- ------ ------ ---- ---- ------- ----- -- ----<br>-------- ------- -- ---------- --- - new ----- ----- ----<br>---- --- --- ----- --- ---- ---- ------- ----- ---- -------<br>--- --- -- ----- -- --- ---- -- --- ---- -- ------ ------<br>--- ----- -- ----,226173,226236.00000000003,225707,225700.00000000003,225724,226207,,24,new
screen,html.Screen,2_1_0_1_25,2022-02-04T13:31:00.272Z,,,,,,,,,,,,,,,,,53,,,,,,,,,,,,,,496,,response,,,,99,,,,,,,Space,keypress(Space),,,,,,,,---- -- ----- -- ------ - ------- --- ----------<br>------------- ------ ------ ---- ---- ------- ----- -- ----<br>-------- ------- -- ---------- --- - --- study ----- ----<br>---- --- --- ----- --- ---- ---- ------- ----- ---- -------<br>--- --- -- ----- -- --- ---- -- --- ---- -- ------ ------<br>--- ----- -- ----,226623.00000000003,226686,226190,226174,226207,226657,,25,study
screen,html.Screen,2_1_0_1_26,2022-02-04T13:31:00.743Z,,,,,,,,,,,,,,,,,53,,,,,,,,,,,,,,517,,response,,,,99,,,,,,,Space,keypress(Space),,,,,,,,---- -- ----- -- ------ - ------- --- ----------<br>------------- ------ ------ ---- ---- ------- ----- -- ----<br>-------- ------- -- ---------- --- - --- ----- finds ----<br>---- --- --- ----- --- ---- ---- ------- ----- ---- -------<br>--- --- -- ----- -- --- ---- -- --- ---- -- ------ ------<br>--- ----- -- ----,227094,227157,226640,226623.00000000003,226657,227124,,26,finds
screen,html.Screen,2_1_0_1_27,2022-02-04T13:31:01.162Z,,,,,,,,,,,,,,,,,53,,,,,,,,,,,,,,468.0000000000291,,response,,,,99,,,,,,,Space,keypress(Space),,,,,,,,---- -- ----- -- ------ - ------- --- ----------<br>------------- ------ ------ ---- ---- ------- ----- -- ----<br>-------- ------- -- ---------- --- - --- ----- ----- that<br>---- --- --- ----- --- ---- ---- ------- ----- ---- -------<br>--- --- -- ----- -- --- ---- -- --- ---- -- ------ ------<br>--- ----- -- ----,227513,227575.00000000003,227107,227095,227124,227540,,27,that
screen,html.Screen,2_1_0_1_28,2022-02-04T13:31:01.666Z,,,,,,,,,,,,,,,,,53,,,,,,,,,,,,,,557,,response,,,,99,,,,,,,Space,keypress(Space),,,,,,,,---- -- ----- -- ------ - ------- --- ----------<br>------------- ------ ------ ---- ---- ------- ----- -- ----<br>-------- ------- -- ---------- --- - --- ----- ----- ----<br>it's --- --- ----- --- ---- ---- ------- ----- ---- -------<br>--- --- -- ----- -- --- ---- -- --- ---- -- ------ ------<br>--- ----- -- ----,228017,228080,227523,227513,227540,228040,,28,it's
screen,html.Screen,2_1_0_1_29,2022-02-04T13:31:02.095Z,,,,,,,,,,,,,,,,,53,,,,,,,,,,,,,,486,,response,,,,99,,,,,,,Space,keypress(Space),,,,,,,,---- -- ----- -- ------ - ------- --- ----------<br>------------- ------ ------ ---- ---- ------- ----- -- ----<br>-------- ------- -- ---------- --- - --- ----- ----- ----<br>---- not --- ----- --- ---- ---- ------- ----- ---- -------<br>--- --- -- ----- -- --- ---- -- --- ---- -- ------ ------<br>--- ----- -- ----,228446,228509,228023,228018,228040,228474,,29,not
screen,html.Screen,2_1_0_1_30,2022-02-04T13:31:02.612Z,,,,,,,,,,,,,,,,,53,,,,,,,,,,,,,,569,,response,,,,99,,,,,,,Space,keypress(Space),,,,,,,,---- -- ----- -- ------ - ------- --- ----------<br>------------- ------ ------ ---- ---- ------- ----- -- ----<br>-------- ------- -- ---------- --- - --- ----- ----- ----<br>---- --- how ----- --- ---- ---- ------- ----- ---- -------<br>--- --- -- ----- -- --- ---- -- --- ---- -- ------ ------<br>--- ----- -- ----,228964,229026,228457,228446,228474,228990,,30,how
screen,html.Screen,2_1_0_1_31,2022-02-04T13:31:03.107Z,,,,,,,,,,,,,,,,,53,,,,,,,,,,,,,,547.0000000000291,,response,,,,99,,,,,,,Space,keypress(Space),,,,,,,,---- -- ----- -- ------ - ------- --- ----------<br>------------- ------ ------ ---- ---- ------- ----- -- ----<br>-------- ------- -- ---------- --- - --- ----- ----- ----<br>---- --- --- close --- ---- ---- ------- ----- ---- -------<br>--- --- -- ----- -- --- ---- -- --- ---- -- ------ ------<br>--- ----- -- ----,229458,229521.00000000003,228974,228964,228990,229490,,31,close
screen,html.Screen,2_1_0_1_32,2022-02-04T13:31:03.624Z,,,,,,,,,,,,,,,,,53,,,,,,,,,,,,,,564,,response,,,,99,,,,,,,Space,keypress(Space),,,,,,,,---- -- ----- -- ------ - ------- --- ----------<br>------------- ------ ------ ---- ---- ------- ----- -- ----<br>-------- ------- -- ---------- --- - --- ----- ----- ----<br>---- --- --- ----- you ---- ---- ------- ----- ---- -------<br>--- --- -- ----- -- --- ---- -- --- ---- -- ------ ------<br>--- ----- -- ----,229975,230038,229474,229459,229490,230007,,32,you
screen,html.Screen,2_1_0_1_33,2022-02-04T13:31:04.051Z,,,,,,,,,,,,,,,,,53,,,,,,,,,,,,,,475,,response,,,,99,,,,,,,Space,keypress(Space),,,,,,,,---- -- ----- -- ------ - ------- --- ----------<br>------------- ------ ------ ---- ---- ------- ----- -- ----<br>-------- ------- -- ---------- --- - --- ----- ----- ----<br>---- --- --- ----- --- feel ---- ------- ----- ---- -------<br>--- --- -- ----- -- --- ---- -- --- ---- -- ------ ------<br>--- ----- -- ----,230402.00000000003,230465,229990,229976,230007,230424,,33,feel
screen,html.Screen,2_1_0_1_34,2022-02-04T13:31:04.503Z,,,,,,,,,,,,,,,,,53,,,,,,,,,,,,,,511,,response,,,,99,,,,,,,Space,keypress(Space),,,,,,,,---- -- ----- -- ------ - ------- --- ----------<br>------------- ------ ------ ---- ---- ------- ----- -- ----<br>-------- ------- -- ---------- --- - --- ----- ----- ----<br>---- --- --- ----- --- ---- that ------- ----- ---- -------<br>--- --- -- ----- -- --- ---- -- --- ---- -- ------ ------<br>--- ----- -- ----,230854,230917,230406,230402.00000000003,230424,230890,,34,that
screen,html.Screen,2_1_0_1_35,2022-02-04T13:31:04.952Z,,,,,,,,,,,,,,,,,53,,,,,,,,,,,,,,492,,response,,,,99,,,,,,,Space,keypress(Space),,,,,,,,---- -- ----- -- ------ - ------- --- ----------<br>------------- ------ ------ ---- ---- ------- ----- -- ----<br>-------- ------- -- ---------- --- - --- ----- ----- ----<br>---- --- --- ----- --- ---- ---- matters ----- ---- -------<br>--- --- -- ----- -- --- ---- -- --- ---- -- ------ ------<br>--- ----- -- ----,231303,231366,230874,230855.00000000003,230890,231340,,35,matters
screen,html.Screen,2_1_0_1_36,2022-02-04T13:31:05.425Z,,,,,,,,,,,,,,,,,53,,,,,,,,,,,,,,515,,response,,,,99,,,,,,,Space,keypress(Space),,,,,,,,"---- -- ----- -- ------ - ------- --- ----------<br>------------- ------ ------ ---- ---- ------- ----- -- ----<br>-------- ------- -- ---------- --- - --- ----- ----- ----<br>---- --- --- ----- --- ---- ---- ------- most, ---- -------<br>--- --- -- ----- -- --- ---- -- --- ---- -- ------ ------<br>--- ----- -- ----",231776,231839,231324,231304,231340,231807,,36,"most,"
screen,html.Screen,2_1_0_1_37,2022-02-04T13:31:05.851Z,,,,,,,,,,,,,,,,,53,,,,,,,,,,,,,,475.0000000000291,,response,,,,99,,,,,,,Space,keypress(Space),,,,,,,,---- -- ----- -- ------ - ------- --- ----------<br>------------- ------ ------ ---- ---- ------- ----- -- ----<br>-------- ------- -- ---------- --- - --- ----- ----- ----<br>---- --- --- ----- --- ---- ---- ------- ----- it's -------<br>--- --- -- ----- -- --- ---- -- --- ---- -- ------ ------<br>--- ----- -- ----,232202,232265.00000000003,231790,231776,231807,232224,,37,it's
screen,html.Screen,2_1_0_1_38,2022-02-04T13:31:06.324Z,,,,,,,,,,,,,,,,,53,,,,,,,,,,,,,,533,,response,,,,99,,,,,,,Space,keypress(Space),,,,,,,,---- -- ----- -- ------ - ------- --- ----------<br>------------- ------ ------ ---- ---- ------- ----- -- ----<br>-------- ------- -- ---------- --- - --- ----- ----- ----<br>---- --- --- ----- --- ---- ---- ------- ----- ---- whether<br>--- --- -- ----- -- --- ---- -- --- ---- -- ------ ------<br>--- ----- -- ----,232676.00000000003,232739,232206,232203,232224,232707,,38,whether
screen,html.Screen,2_1_0_1_39,2022-02-04T13:31:06.773Z,,,,,,,,,,,,,,,,,53,,,,,,,,,,,,,,498.0000000000291,,response,,,,99,,,,,,,Space,keypress(Space),,,,,,,,---- -- ----- -- ------ - ------- --- ----------<br>------------- ------ ------ ---- ---- ------- ----- -- ----<br>-------- ------- -- ---------- --- - --- ----- ----- ----<br>---- --- --- ----- --- ---- ---- ------- ----- ---- -------<br>you --- -- ----- -- --- ---- -- --- ---- -- ------ ------<br>--- ----- -- ----,233125,233188.00000000003,232690,232676.00000000003,232707,233157,,39,you
screen,html.Screen,2_1_0_1_40,2022-02-04T13:31:07.225Z,,,,,,,,,,,,,,,,,53,,,,,,,,,,,,,,500.0000000000291,,response,,,,99,,,,,,,Space,keypress(Space),,,,,,,,---- -- ----- -- ------ - ------- --- ----------<br>------------- ------ ------ ---- ---- ------- ----- -- ----<br>-------- ------- -- ---------- --- - --- ----- ----- ----<br>---- --- --- ----- --- ---- ---- ------- ----- ---- -------<br>--- are -- ----- -- --- ---- -- --- ---- -- ------ ------<br>--- ----- -- ----,233577,233640.00000000003,233140,233125,233157,233607,,40,are
screen,html.Screen,2_1_0_1_41,2022-02-04T13:31:07.697Z,,,,,,,,,,,,,,,,,53,,,,,,,,,,,,,,522,,response,,,,99,,,,,,,Space,keypress(Space),,,,,,,,---- -- ----- -- ------ - ------- --- ----------<br>------------- ------ ------ ---- ---- ------- ----- -- ----<br>-------- ------- -- ---------- --- - --- ----- ----- ----<br>---- --- --- ----- --- ---- ---- ------- ----- ---- -------<br>--- --- as ----- -- --- ---- -- --- ---- -- ------ ------<br>--- ----- -- ----,234049,234112,233590,233577,233607,234074,,41,as
screen,html.Screen,2_1_0_1_42,2022-02-04T13:31:08.148Z,,,,,,,,,,,,,,,,,53,,,,,,,,,,,,,,504,,response,,,,99,,,,,,,Space,keypress(Space),,,,,,,,---- -- ----- -- ------ - ------- --- ----------<br>------------- ------ ------ ---- ---- ------- ----- -- ----<br>-------- ------- -- ---------- --- - --- ----- ----- ----<br>---- --- --- ----- --- ---- ---- ------- ----- ---- -------<br>--- --- -- close -- --- ---- -- --- ---- -- ------ ------<br>--- ----- -- ----,234499,234561,234057,234049,234074,234524,,42,close
screen,html.Screen,2_1_0_1_43,2022-02-04T13:31:08.573Z,,,,,,,,,,,,,,,,,53,,,,,,,,,,,,,,480,,response,,,,99,,,,,,,Space,keypress(Space),,,,,,,,---- -- ----- -- ------ - ------- --- ----------<br>------------- ------ ------ ---- ---- ------- ----- -- ----<br>-------- ------- -- ---------- --- - --- ----- ----- ----<br>---- --- --- ----- --- ---- ---- ------- ----- ---- -------<br>--- --- -- ----- as --- ---- -- --- ---- -- ------ ------<br>--- ----- -- ----,234924,234987,234507,234499,234524,234957,,43,as
screen,html.Screen,2_1_0_1_44,2022-02-04T13:31:09.025Z,,,,,,,,,,,,,,,,,53,,,,,,,,,,,,,,499,,response,,,,99,,,,,,,Space,keypress(Space),,,,,,,,---- -- ----- -- ------ - ------- --- ----------<br>------------- ------ ------ ---- ---- ------- ----- -- ----<br>-------- ------- -- ---------- --- - --- ----- ----- ----<br>---- --- --- ----- --- ---- ---- ------- ----- ---- -------<br>--- --- -- ----- -- you ---- -- --- ---- -- ------ ------<br>--- ----- -- ----,235376,235439,234940,234924,234957,235407,,44,you
screen,html.Screen,2_1_0_1_45,2022-02-04T13:31:09.476Z,,,,,,,,,,,,,,,,,53,,,,,,,,,,,,,,500.0000000000291,,response,,,,99,,,,,,,Space,keypress(Space),,,,,,,,---- -- ----- -- ------ - ------- --- ----------<br>------------- ------ ------ ---- ---- ------- ----- -- ----<br>-------- ------- -- ---------- --- - --- ----- ----- ----<br>---- --- --- ----- --- ---- ---- ------- ----- ---- -------<br>--- --- -- ----- -- --- want -- --- ---- -- ------ ------<br>--- ----- -- ----,235827,235890.00000000003,235390,235376,235407,235857,,45,want
screen,html.Screen,2_1_0_1_46,2022-02-04T13:31:09.878Z,,,,,,,,,,,,,,,,,53,,,,,,,,,,,,,,452,,response,,,,99,,,,,,,Space,keypress(Space),,,,,,,,---- -- ----- -- ------ - ------- --- ----------<br>------------- ------ ------ ---- ---- ------- ----- -- ----<br>-------- ------- -- ---------- --- - --- ----- ----- ----<br>---- --- --- ----- --- ---- ---- ------- ----- ---- -------<br>--- --- -- ----- -- --- ---- to --- ---- -- ------ ------<br>--- ----- -- ----,236229,236292,235840,235828,235857,236257,,46,to
screen,html.Screen,2_1_0_1_47,2022-02-04T13:31:10.330Z,,,,,,,,,,,,,,,,,53,,,,,,,,,,,,,,505,,response,,,,99,,,,,,,Space,keypress(Space),,,,,,,,"---- -- ----- -- ------ - ------- --- ----------<br>------------- ------ ------ ---- ---- ------- ----- -- ----<br>-------- ------- -- ---------- --- - --- ----- ----- ----<br>---- --- --- ----- --- ---- ---- ------- ----- ---- -------<br>--- --- -- ----- -- --- ---- -- be, ---- -- ------ ------<br>--- ----- -- ----",236681,236744,236239,236229,236257,236707,,47,"be,"
screen,html.Screen,2_1_0_1_48,2022-02-04T13:31:10.756Z,,,,,,,,,,,,,,,,,53,,,,,,,,,,,,,,480.0000000000291,,response,,,,99,,,,,,,Space,keypress(Space),,,,,,,,---- -- ----- -- ------ - ------- --- ----------<br>------------- ------ ------ ---- ---- ------- ----- -- ----<br>-------- ------- -- ---------- --- - --- ----- ----- ----<br>---- --- --- ----- --- ---- ---- ------- ----- ---- -------<br>--- --- -- ----- -- --- ---- -- --- even -- ------ ------<br>--- ----- -- ----,237107,237170.00000000003,236690,236682.00000000003,236707,237140,,48,even
screen,html.Screen,2_1_0_1_49,2022-02-04T13:31:11.185Z,,,,,,,,,,,,,,,,,53,,,,,,,,,,,,,,475.0000000000291,,response,,,,99,,,,,,,Space,keypress(Space),,,,,,,,---- -- ----- -- ------ - ------- --- ----------<br>------------- ------ ------ ---- ---- ------- ----- -- ----<br>-------- ------- -- ---------- --- - --- ----- ----- ----<br>---- --- --- ----- --- ---- ---- ------- ----- ---- -------<br>--- --- -- ----- -- --- ---- -- --- ---- if ------ ------<br>--- ----- -- ----,237536,237599.00000000003,237124,237108,237140,237557,,49,if
screen,html.Screen,2_1_0_1_50,2022-02-04T13:31:11.657Z,,,,,,,,,,,,,,,,,53,,,,,,,,,,,,,,532,,response,,,,99,,,,,,,Space,keypress(Space),,,,,,,,---- -- ----- -- ------ - ------- --- ----------<br>------------- ------ ------ ---- ---- ------- ----- -- ----<br>-------- ------- -- ---------- --- - --- ----- ----- ----<br>---- --- --- ----- --- ---- ---- ------- ----- ---- -------<br>--- --- -- ----- -- --- ---- -- --- ---- -- that's ------<br>--- ----- -- ----,238009,238072,237540,237536,237557,238040,,50,that's
screen,html.Screen,2_1_0_1_51,2022-02-04T13:31:12.106Z,,,,,,,,,,,,,,,,,53,,,,,,,,,,,,,,497,,response,,,,99,,,,,,,Space,keypress(Space),,,,,,,,---- -- ----- -- ------ - ------- --- ----------<br>------------- ------ ------ ---- ---- ------- ----- -- ----<br>-------- ------- -- ---------- --- - --- ----- ----- ----<br>---- --- --- ----- --- ---- ---- ------- ----- ---- -------<br>--- --- -- ----- -- --- ---- -- --- ---- -- ------ really<br>--- ----- -- ----,238457,238520,238023,238009,238040,238490,,51,really
screen,html.Screen,2_1_0_1_52,2022-02-04T13:31:12.578Z,,,,,,,,,,,,,,,,,53,,,,,,,,,,,,,,518.0000000000291,,response,,,,99,,,,,,,Space,keypress(Space),,,,,,,,---- -- ----- -- ------ - ------- --- ----------<br>------------- ------ ------ ---- ---- ------- ----- -- ----<br>-------- ------- -- ---------- --- - --- ----- ----- ----<br>---- --- --- ----- --- ---- ---- ------- ----- ---- -------<br>--- --- -- ----- -- --- ---- -- --- ---- -- ------ ------<br>not ----- -- ----,238929,238992.00000000003,238474,238457,238490,238957,,52,not
screen,html.Screen,2_1_0_1_53,2022-02-04T13:31:13.030Z,,,,,,,,,,,,,,,,,53,,,,,,,,,,,,,,504.0000000000291,,response,,,,99,,,,,,,Space,keypress(Space),,,,,,,,---- -- ----- -- ------ - ------- --- ----------<br>------------- ------ ------ ---- ---- ------- ----- -- ----<br>-------- ------- -- ---------- --- - --- ----- ----- ----<br>---- --- --- ----- --- ---- ---- ------- ----- ---- -------<br>--- --- -- ----- -- --- ---- -- --- ---- -- ------ ------<br>--- close -- ----,239381,239444.00000000003,238940,238929,238957,239407,,53,close
screen,html.Screen,2_1_0_1_54,2022-02-04T13:31:13.492Z,,,,,,,,,,,,,,,,,53,,,,,,,,,,,,,,516,,response,,,,99,,,,,,,Space,keypress(Space),,,,,,,,---- -- ----- -- ------ - ------- --- ----------<br>------------- ------ ------ ---- ---- ------- ----- -- ----<br>-------- ------- -- ---------- --- - --- ----- ----- ----<br>---- --- --- ----- --- ---- ---- ------- ----- ---- -------<br>--- --- -- ----- -- --- ---- -- --- ---- -- ------ ------<br>--- ----- at ----,239843.00000000003,239906,239390,239381,239407,239874,,54,at
screen,html.Screen,2_1_0_1_55,2022-02-04T13:31:13.908Z,,,,,,,,,,,,,,,,,53,,,,,,,,,,,,,,465,,response,,,,99,,,,,,,Space,keypress(Space),,,,,,,,---- -- ----- -- ------ - ------- --- ----------<br>------------- ------ ------ ---- ---- ------- ----- -- ----<br>-------- ------- -- ---------- --- - --- ----- ----- ----<br>---- --- --- ----- --- ---- ---- ------- ----- ---- -------<br>--- --- -- ----- -- --- ---- -- --- ---- -- ------ ------<br>--- ----- -- all.,240260,240322,239857,239843.00000000003,239874,240290,,55,all.
Item 99,flow.Loop,2_1_0_1,2022-02-04T13:31:13.909Z,,,,,,,,,,,,,,,,,,,,,,,,,,,,,,,28115,,completion,,,,,D,,,,,,,,,,,silence,,,,,240260,240322,212190,212191,212207,240290,,,
Question 1,html.Screen,2_1_0_2,2022-02-04T13:31:20.142Z,,,,,,,,,,,,,,,,,,,,,,,,,,,,false,FALSE,,6284,,response,,,,99,D,,,,,,TRUE,click #choice-1,,,,silence,,,,,246493,246558,240274,240260,240290,246524,,,
Question 2,html.Screen,2_1_0_3,2022-02-04T13:31:26.308Z,,,,,,,,,,,,,,,,,,,,,,,,,,,,true,TRUE,,6218,,response,,,,99,D,,,,,,TRUE,click #choice-1,,,,silence,,,,,252660,252725,246507,246493,246524,252690,,,
Item 99,flow.Sequence,2_1_0,2022-02-04T13:31:26.308Z,,,,,,,,,,,,,,,,,,,,,,,,,,,,,,,50518,,completion,,,,,,,,,,,,,,,,,,,,,252660,252725,202190,202184,202207,252690,,,
Holding screen,html.Screen,2_1_1_0,2022-02-04T13:31:36.323Z,,,,,,,,,,,,,,,,,,,,,,,,,,,,,,,10000,,timeout,,,,,,,,,,,,,,,,,,,,,262675,262675,252674,252660,252690,262690,,,
screen,html.Screen,2_1_1_1_0,2022-02-04T13:31:37.193Z,,,,,,,,,,,,,,,,,54,,,,,,,,,,,,,,933,,response,,,,100,,,,,,,Space,keypress(Space),,,,,,,,At --- ---- --- ------ ----- ------- ---- -- --- ------- --<br>------- ---------- ------ -- ----- -- ----- -- ---- ------<br>--- ----- --- --- ------ -------- ----- --- ------ ----- --<br>----- ----- ---------- --- --- ------ ------ ---- -- ------<br>------- --- ------ ----- --- ---- ------- -- ---- --- --<br>------- ------,263545,263608,262675,262675,262690,263573,,0,At
screen,html.Screen,2_1_1_1_1,2022-02-04T13:31:37.734Z,,,,,,,,,,,,,,,,,54,,,,,,,,,,,,,,591,,response,,,,100,,,,,,,Space,keypress(Space),,,,,,,,-- the ---- --- ------ ----- ------- ---- -- --- ------- --<br>------- ---------- ------ -- ----- -- ----- -- ---- ------<br>--- ----- --- --- ------ -------- ----- --- ------ ----- --<br>----- ----- ---------- --- --- ------ ------ ---- -- ------<br>------- --- ------ ----- --- ---- ------- -- ---- --- --<br>------- ------,264085,264148,263557,263545,263573,264107,,1,the
screen,html.Screen,2_1_1_1_2,2022-02-04T13:31:38.251Z,,,,,,,,,,,,,,,,,54,,,,,,,,,,,,,,575,,response,,,,100,,,,,,,Space,keypress(Space),,,,,,,,-- --- time --- ------ ----- ------- ---- -- --- ------- --<br>------- ---------- ------ -- ----- -- ----- -- ---- ------<br>--- ----- --- --- ------ -------- ----- --- ------ ----- --<br>----- ----- ---------- --- --- ------ ------ ---- -- ------<br>------- --- ------ ----- --- ---- ------- -- ---- --- --<br>------- ------,264602.00000000006,264665,264090,264086,264107,264624,,2,time
screen,html.Screen,2_1_1_1_3,2022-02-04T13:31:38.700Z,,,,,,,,,,,,,,,,,54,,,,,,,,,,,,,,509,,response,,,,100,,,,,,,Space,keypress(Space),,,,,,,,-- --- ---- the ------ ----- ------- ---- -- --- ------- --<br>------- ---------- ------ -- ----- -- ----- -- ---- ------<br>--- ----- --- --- ------ -------- ----- --- ------ ----- --<br>----- ----- ---------- --- --- ------ ------ ---- -- ------<br>------- --- ------ ----- --- ---- ------- -- ---- --- --<br>------- ------,265052,265115,264606,264603,264624,265074,,3,the
screen,html.Screen,2_1_1_1_4,2022-02-04T13:31:39.647Z,,,,,,,,,,,,,,,,,54,,,,,,,,,,,,,,1005,,response,,,,100,,,,,,,Space,keypress(Space),,,,,,,,-- --- ---- --- French ----- ------- ---- -- --- ------- --<br>------- ---------- ------ -- ----- -- ----- -- ---- ------<br>--- ----- --- --- ------ -------- ----- --- ------ ----- --<br>----- ----- ---------- --- --- ------ ------ ---- -- ------<br>------- --- ------ ----- --- ---- ------- -- ---- --- --<br>------- ------,265999,266062,265057,265052,265074,266024,,4,French
screen,html.Screen,2_1_1_1_5,2022-02-04T13:31:40.208Z,,,,,,,,,,,,,,,,,54,,,,,,,,,,,,,,616,,response,,,,100,,,,,,,Space,keypress(Space),,,,,,,,-- --- ---- --- ------ crown ------- ---- -- --- ------- --<br>------- ---------- ------ -- ----- -- ----- -- ---- ------<br>--- ----- --- --- ------ -------- ----- --- ------ ----- --<br>----- ----- ---------- --- --- ------ ------ ---- -- ------<br>------- --- ------ ----- --- ---- ------- -- ---- --- --<br>------- ------,266560,266623,266007,265999,266024,266591,,5,crown
screen,html.Screen,2_1_1_1_6,2022-02-04T13:31:40.839Z,,,,,,,,,,,,,,,,,54,,,,,,,,,,,,,,680,,response,,,,100,,,,,,,Space,keypress(Space),,,,,,,,-- --- ---- --- ------ ----- secured ---- -- --- ------- --<br>------- ---------- ------ -- ----- -- ----- -- ---- ------<br>--- ----- --- --- ------ -------- ----- --- ------ ----- --<br>----- ----- ---------- --- --- ------ ------ ---- -- ------<br>------- --- ------ ----- --- ---- ------- -- ---- --- --<br>------- ------,267191.00000000006,267254,266574,266560,266591,267224,,6,secured
screen,html.Screen,2_1_1_1_7,2022-02-04T13:31:41.380Z,,,,,,,,,,,,,,,,,54,,,,,,,,,,,,,,588,,response,,,,100,,,,,,,Space,keypress(Space),,,,,,,,-- --- ---- --- ------ ----- ------- much -- --- ------- --<br>------- ---------- ------ -- ----- -- ----- -- ---- ------<br>--- ----- --- --- ------ -------- ----- --- ------ ----- --<br>----- ----- ---------- --- --- ------ ------ ---- -- ------<br>------- --- ------ ----- --- ---- ------- -- ---- --- --<br>------- ------,267731,267795,267207,267191.00000000006,267224,267757,,7,much
screen,html.Screen,2_1_1_1_8,2022-02-04T13:31:41.874Z,,,,,,,,,,,,,,,,,54,,,,,,,,,,,,,,548,,response,,,,100,,,,,,,Space,keypress(Space),,,,,,,,-- --- ---- --- ------ ----- ------- ---- of --- ------- --<br>------- ---------- ------ -- ----- -- ----- -- ---- ------<br>--- ----- --- --- ------ -------- ----- --- ------ ----- --<br>----- ----- ---------- --- --- ------ ------ ---- -- ------<br>------- --- ------ ----- --- ---- ------- -- ---- --- --<br>------- ------,268226,268289,267741,267731,267757,268257,,8,of
screen,html.Screen,2_1_1_1_9,2022-02-04T13:31:42.323Z,,,,,,,,,,,,,,,,,54,,,,,,,,,,,,,,498,,response,,,,100,,,,,,,Space,keypress(Space),,,,,,,,-- --- ---- --- ------ ----- ------- ---- -- its ------- --<br>------- ---------- ------ -- ----- -- ----- -- ---- ------<br>--- ----- --- --- ------ -------- ----- --- ------ ----- --<br>----- ----- ---------- --- --- ------ ------ ---- -- ------<br>------- --- ------ ----- --- ---- ------- -- ---- --- --<br>------- ------,268675,268738,268240,268226,268257,268707,,9,its
screen,html.Screen,2_1_1_1_10,2022-02-04T13:31:42.863Z,,,,,,,,,,,,,,,,,54,,,,,,,,,,,,,,587,,response,,,,100,,,,,,,Space,keypress(Space),,,,,,,,-- --- ---- --- ------ ----- ------- ---- -- --- revenue --<br>------- ---------- ------ -- ----- -- ----- -- ---- ------<br>--- ----- --- --- ------ -------- ----- --- ------ ----- --<br>----- ----- ---------- --- --- ------ ------ ---- -- ------<br>------- --- ------ ----- --- ---- ------- -- ---- --- --<br>------- ------,269215.00000000006,269278,268691,268675,268707,269240,,10,revenue
screen,html.Screen,2_1_1_1_11,2022-02-04T13:31:43.359Z,,,,,,,,,,,,,,,,,54,,,,,,,,,,,,,,550,,response,,,,100,,,,,,,Space,keypress(Space),,,,,,,,-- --- ---- --- ------ ----- ------- ---- -- --- ------- by<br>------- ---------- ------ -- ----- -- ----- -- ---- ------<br>--- ----- --- --- ------ -------- ----- --- ------ ----- --<br>----- ----- ---------- --- --- ------ ------ ---- -- ------<br>------- --- ------ ----- --- ---- ------- -- ---- --- --<br>------- ------,269711,269774,269224,269215.00000000006,269240,269741,,11,by
screen,html.Screen,2_1_1_1_12,2022-02-04T13:31:43.875Z,,,,,,,,,,,,,,,,,54,,,,,,,,,,,,,,566,,response,,,,100,,,,,,,Space,keypress(Space),,,,,,,,-- --- ---- --- ------ ----- ------- ---- -- --- ------- --<br>issuing ---------- ------ -- ----- -- ----- -- ---- ------<br>--- ----- --- --- ------ -------- ----- --- ------ ----- --<br>----- ----- ---------- --- --- ------ ------ ---- -- ------<br>------- --- ------ ----- --- ---- ------- -- ---- --- --<br>------- ------,270227.00000000006,270290,269724,269711,269741,270257,,12,issuing
screen,html.Screen,2_1_1_1_13,2022-02-04T13:31:44.347Z,,,,,,,,,,,,,,,,,54,,,,,,,,,,,,,,521,,response,,,,100,,,,,,,Space,keypress(Space),,,,,,,,-- --- ---- --- ------ ----- ------- ---- -- --- ------- --<br>------- government ------ -- ----- -- ----- -- ---- ------<br>--- ----- --- --- ------ -------- ----- --- ------ ----- --<br>----- ----- ---------- --- --- ------ ------ ---- -- ------<br>------- --- ------ ----- --- ---- ------- -- ---- --- --<br>------- ------,270699,270762,270241,270227.00000000006,270257,270724,,13,government
screen,html.Screen,2_1_1_1_14,2022-02-04T13:31:46.148Z,,,,,,,,,,,,,,,,,54,,,,,,,,,,,,,,1856,,response,,,,100,,,,,,,Space,keypress(Space),,,,,,,,-- --- ---- --- ------ ----- ------- ---- -- --- ------- --<br>------- ---------- bonds. -- ----- -- ----- -- ---- ------<br>--- ----- --- --- ------ -------- ----- --- ------ ----- --<br>----- ----- ---------- --- --- ------ ------ ---- -- ------<br>------- --- ------ ----- --- ---- ------- -- ---- --- --<br>------- ------,272500,272563,270707,270699,270724,272524,,14,bonds.
screen,html.Screen,2_1_1_1_15,2022-02-04T13:31:46.825Z,,,,,,,,,,,,,,,,,54,,,,,,,,,,,,,,734,,response,,,,100,,,,,,,Space,keypress(Space),,,,,,,,-- --- ---- --- ------ ----- ------- ---- -- --- ------- --<br>------- ---------- ------ In ----- -- ----- -- ---- ------<br>--- ----- --- --- ------ -------- ----- --- ------ ----- --<br>----- ----- ---------- --- --- ------ ------ ---- -- ------<br>------- --- ------ ----- --- ---- ------- -- ---- --- --<br>------- ------,273177,273240,272506,272500,272524,273207,,15,In
screen,html.Screen,2_1_1_1_16,2022-02-04T13:31:48.420Z,,,,,,,,,,,,,,,,,54,,,,,,,,,,,,,,1644,,response,,,,100,,,,,,,Space,keypress(Space),,,,,,,,"-- --- ---- --- ------ ----- ------- ---- -- --- ------- --<br>------- ---------- ------ -- 1727, -- ----- -- ---- ------<br>--- ----- --- --- ------ -------- ----- --- ------ ----- --<br>----- ----- ---------- --- --- ------ ------ ---- -- ------<br>------- --- ------ ----- --- ---- ------- -- ---- --- --<br>------- ------",274771,274835,273191,273177,273207,274807,,16,"1727,"
screen,html.Screen,2_1_1_1_17,2022-02-04T13:31:48.916Z,,,,,,,,,,,,,,,,,54,,,,,,,,,,,,,,539,,response,,,,100,,,,,,,Space,keypress(Space),,,,,,,,-- --- ---- --- ------ ----- ------- ---- -- --- ------- --<br>------- ---------- ------ -- ----- in ----- -- ---- ------<br>--- ----- --- --- ------ -------- ----- --- ------ ----- --<br>----- ----- ---------- --- --- ------ ------ ---- -- ------<br>------- --- ------ ----- --- ---- ------- -- ---- --- --<br>------- ------,275267,275330,274791,274772,274807,275291,,17,in
screen,html.Screen,2_1_1_1_18,2022-02-04T13:31:49.390Z,,,,,,,,,,,,,,,,,54,,,,,,,,,,,,,,530.0000000000582,,response,,,,100,,,,,,,Space,keypress(Space),,,,,,,,-- --- ---- --- ------ ----- ------- ---- -- --- ------- --<br>------- ---------- ------ -- ----- -- order -- ---- ------<br>--- ----- --- --- ------ -------- ----- --- ------ ----- --<br>----- ----- ---------- --- --- ------ ------ ---- -- ------<br>------- --- ------ ----- --- ---- ------- -- ---- --- --<br>------- ------,275741,275804.00000000006,275274,275268,275291,275774,,18,order
screen,html.Screen,2_1_1_1_19,2022-02-04T13:31:49.815Z,,,,,,,,,,,,,,,,,54,,,,,,,,,,,,,,473,,response,,,,100,,,,,,,Space,keypress(Space),,,,,,,,-- --- ---- --- ------ ----- ------- ---- -- --- ------- --<br>------- ---------- ------ -- ----- -- ----- to ---- ------<br>--- ----- --- --- ------ -------- ----- --- ------ ----- --<br>----- ----- ---------- --- --- ------ ------ ---- -- ------<br>------- --- ------ ----- --- ---- ------- -- ---- --- --<br>------- ------,276167.00000000006,276230,275757,275742,275774,276191,,19,to
screen,html.Screen,2_1_1_1_20,2022-02-04T13:31:50.265Z,,,,,,,,,,,,,,,,,54,,,,,,,,,,,,,,506,,response,,,,100,,,,,,,Space,keypress(Space),,,,,,,,-- --- ---- --- ------ ----- ------- ---- -- --- ------- --<br>------- ---------- ------ -- ----- -- ----- -- save ------<br>--- ----- --- --- ------ -------- ----- --- ------ ----- --<br>----- ----- ---------- --- --- ------ ------ ---- -- ------<br>------- --- ------ ----- --- ---- ------- -- ---- --- --<br>------- ------,276617,276680,276174,276167.00000000006,276191,276641,,20,save
screen,html.Screen,2_1_1_1_21,2022-02-04T13:31:52.134Z,,,,,,,,,,,,,,,,,54,,,,,,,,,,,,,,1926,,response,,,,100,,,,,,,Space,keypress(Space),,,,,,,,"-- --- ---- --- ------ ----- ------- ---- -- --- ------- --<br>------- ---------- ------ -- ----- -- ----- -- ---- money,<br>--- ----- --- --- ------ -------- ----- --- ------ ----- --<br>----- ----- ---------- --- --- ------ ------ ---- -- ------<br>------- --- ------ ----- --- ---- ------- -- ---- --- --<br>------- ------",278486,278549,276623,276617,276641,278507,,21,"money,"
screen,html.Screen,2_1_1_1_22,2022-02-04T13:32:04.532Z,,,,,,,,,,,,,,,,,54,,,,,,,,,,,,,,12458,,response,,,,100,,,,,,,Space,keypress(Space),,,,,,,,-- --- ---- --- ------ ----- ------- ---- -- --- ------- --<br>------- ---------- ------ -- ----- -- ----- -- ---- ------<br>the ----- --- --- ------ -------- ----- --- ------ ----- --<br>----- ----- ---------- --- --- ------ ------ ---- -- ------<br>------- --- ------ ----- --- ---- ------- -- ---- --- --<br>------- ------,290884,290948,278490,278486,278507,290907,,22,the
screen,html.Screen,2_1_1_1_23,2022-02-04T13:32:05.117Z,,,,,,,,,,,,,,,,,54,,,,,,,,,,,,,,642,,response,,,,100,,,,,,,Space,keypress(Space),,,,,,,,-- --- ---- --- ------ ----- ------- ---- -- --- ------- --<br>------- ---------- ------ -- ----- -- ----- -- ---- ------<br>--- state --- --- ------ -------- ----- --- ------ ----- --<br>----- ----- ---------- --- --- ------ ------ ---- -- ------<br>------- --- ------ ----- --- ---- ------- -- ---- --- --<br>------- ------,291469,291532,290890,290885,290907,291491,,23,state
screen,html.Screen,2_1_1_1_24,2022-02-04T13:32:05.610Z,,,,,,,,,,,,,,,,,54,,,,,,,,,,,,,,552.0000000000582,,response,,,,100,,,,,,,Space,keypress(Space),,,,,,,,-- --- ---- --- ------ ----- ------- ---- -- --- ------- --<br>------- ---------- ------ -- ----- -- ----- -- ---- ------<br>--- ----- cut --- ------ -------- ----- --- ------ ----- --<br>----- ----- ---------- --- --- ------ ------ ---- -- ------<br>------- --- ------ ----- --- ---- ------- -- ---- --- --<br>------- ------,291962,292025.00000000006,291473,291469,291491,291991,,24,cut
screen,html.Screen,2_1_1_1_25,2022-02-04T13:32:06.084Z,,,,,,,,,,,,,,,,,54,,,,,,,,,,,,,,525,,response,,,,100,,,,,,,Space,keypress(Space),,,,,,,,-- --- ---- --- ------ ----- ------- ---- -- --- ------- --<br>------- ---------- ------ -- ----- -- ----- -- ---- ------<br>--- ----- --- the ------ -------- ----- --- ------ ----- --<br>----- ----- ---------- --- --- ------ ------ ---- -- ------<br>------- --- ------ ----- --- ---- ------- -- ---- --- --<br>------- ------,292436,292499,291974,291962,291991,292457,,25,the
screen,html.Screen,2_1_1_1_26,2022-02-04T13:32:06.645Z,,,,,,,,,,,,,,,,,54,,,,,,,,,,,,,,621,,response,,,,100,,,,,,,Space,keypress(Space),,,,,,,,-- --- ---- --- ------ ----- ------- ---- -- --- ------- --<br>------- ---------- ------ -- ----- -- ----- -- ---- ------<br>--- ----- --- --- bonds' -------- ----- --- ------ ----- --<br>----- ----- ---------- --- --- ------ ------ ---- -- ------<br>------- --- ------ ----- --- ---- ------- -- ---- --- --<br>------- ------,292997,293061,292440,292436,292457,293024,,26,bonds'
screen,html.Screen,2_1_1_1_27,2022-02-04T13:32:07.231Z,,,,,,,,,,,,,,,,,54,,,,,,,,,,,,,,639,,response,,,,100,,,,,,,Space,keypress(Space),,,,,,,,-- --- ---- --- ------ ----- ------- ---- -- --- ------- --<br>------- ---------- ------ -- ----- -- ----- -- ---- ------<br>--- ----- --- --- ------ interest ----- --- ------ ----- --<br>----- ----- ---------- --- --- ------ ------ ---- -- ------<br>------- --- ------ ----- --- ---- ------- -- ---- --- --<br>------- ------,293583,293646,293007,292997,293024,293607,,27,interest
screen,html.Screen,2_1_1_1_28,2022-02-04T13:32:08.132Z,,,,,,,,,,,,,,,,,54,,,,,,,,,,,,,,957,,response,,,,100,,,,,,,Space,keypress(Space),,,,,,,,-- --- ---- --- ------ ----- ------- ---- -- --- ------- --<br>------- ---------- ------ -- ----- -- ----- -- ---- ------<br>--- ----- --- --- ------ -------- rate. --- ------ ----- --<br>----- ----- ---------- --- --- ------ ------ ---- -- ------<br>------- --- ------ ----- --- ---- ------- -- ---- --- --<br>------- ------,294484,294547,293590,293583,293607,294507,,28,rate.
screen,html.Screen,2_1_1_1_29,2022-02-04T13:32:11.732Z,,,,,,,,,,,,,,,,,54,,,,,,,,,,,,,,3657,,response,,,,100,,,,,,,Space,keypress(Space),,,,,,,,-- --- ---- --- ------ ----- ------- ---- -- --- ------- --<br>------- ---------- ------ -- ----- -- ----- -- ---- ------<br>--- ----- --- --- ------ -------- ----- The ------ ----- --<br>----- ----- ---------- --- --- ------ ------ ---- -- ------<br>------- --- ------ ----- --- ---- ------- -- ---- --- --<br>------- ------,298084,298147,294490,294484,294507,298108,,29,The
screen,html.Screen,2_1_1_1_30,2022-02-04T13:32:12.293Z,,,,,,,,,,,,,,,,,54,,,,,,,,,,,,,,618,,response,,,,100,,,,,,,Space,keypress(Space),,,,,,,,-- --- ---- --- ------ ----- ------- ---- -- --- ------- --<br>------- ---------- ------ -- ----- -- ----- -- ---- ------<br>--- ----- --- --- ------ -------- ----- --- market ----- --<br>----- ----- ---------- --- --- ------ ------ ---- -- ------<br>------- --- ------ ----- --- ---- ------- -- ---- --- --<br>------- ------,298645,298708,298090,298084,298108,298674,,30,market
screen,html.Screen,2_1_1_1_31,2022-02-04T13:32:12.790Z,,,,,,,,,,,,,,,,,54,,,,,,,,,,,,,,548,,response,,,,100,,,,,,,Space,keypress(Space),,,,,,,,-- --- ---- --- ------ ----- ------- ---- -- --- ------- --<br>------- ---------- ------ -- ----- -- ----- -- ---- ------<br>--- ----- --- --- ------ -------- ----- --- ------ value --<br>----- ----- ---------- --- --- ------ ------ ---- -- ------<br>------- --- ------ ----- --- ---- ------- -- ---- --- --<br>------- ------,299142,299205,298657,298645,298674,299173,,31,value
screen,html.Screen,2_1_1_1_32,2022-02-04T13:32:13.308Z,,,,,,,,,,,,,,,,,54,,,,,,,,,,,,,,566,,response,,,,100,,,,,,,Space,keypress(Space),,,,,,,,-- --- ---- --- ------ ----- ------- ---- -- --- ------- --<br>------- ---------- ------ -- ----- -- ----- -- ---- ------<br>--- ----- --- --- ------ -------- ----- --- ------ ----- of<br>----- ----- ---------- --- --- ------ ------ ---- -- ------<br>------- --- ------ ----- --- ---- ------- -- ---- --- --<br>------- ------,299660,299723,299157,299142,299173,299691,,32,of
screen,html.Screen,2_1_1_1_33,2022-02-04T13:32:13.803Z,,,,,,,,,,,,,,,,,54,,,,,,,,,,,,,,544,,response,,,,100,,,,,,,Space,keypress(Space),,,,,,,,-- --- ---- --- ------ ----- ------- ---- -- --- ------- --<br>------- ---------- ------ -- ----- -- ----- -- ---- ------<br>--- ----- --- --- ------ -------- ----- --- ------ ----- --<br>these ----- ---------- --- --- ------ ------ ---- -- ------<br>------- --- ------ ----- --- ---- ------- -- ---- --- --<br>------- ------,300155.00000000006,300218,299674,299660,299691,300191,,33,these
screen,html.Screen,2_1_1_1_34,2022-02-04T13:32:14.251Z,,,,,,,,,,,,,,,,,54,,,,,,,,,,,,,,493.0000000000582,,response,,,,100,,,,,,,Space,keypress(Space),,,,,,,,-- --- ---- --- ------ ----- ------- ---- -- --- ------- --<br>------- ---------- ------ -- ----- -- ----- -- ---- ------<br>--- ----- --- --- ------ -------- ----- --- ------ ----- --<br>----- bonds ---------- --- --- ------ ------ ---- -- ------<br>------- --- ------ ----- --- ---- ------- -- ---- --- --<br>------- ------,300603,300667.00000000006,300174,300155.00000000006,300191,300641,,34,bonds
screen,html.Screen,2_1_1_1_35,2022-02-04T13:32:14.837Z,,,,,,,,,,,,,,,,,54,,,,,,,,,,,,,,628,,response,,,,100,,,,,,,Space,keypress(Space),,,,,,,,"-- --- ---- --- ------ ----- ------- ---- -- --- ------- --<br>------- ---------- ------ -- ----- -- ----- -- ---- ------<br>--- ----- --- --- ------ -------- ----- --- ------ ----- --<br>----- ----- plummeted, --- --- ------ ------ ---- -- ------<br>------- --- ------ ----- --- ---- ------- -- ---- --- --<br>------- ------",301189,301252,300624,300604,300641,301224,,35,"plummeted,"
screen,html.Screen,2_1_1_1_36,2022-02-04T13:32:15.398Z,,,,,,,,,,,,,,,,,54,,,,,,,,,,,,,,607,,response,,,,100,,,,,,,Space,keypress(Space),,,,,,,,-- --- ---- --- ------ ----- ------- ---- -- --- ------- --<br>------- ---------- ------ -- ----- -- ----- -- ---- ------<br>--- ----- --- --- ------ -------- ----- --- ------ ----- --<br>----- ----- ---------- and --- ------ ------ ---- -- ------<br>------- --- ------ ----- --- ---- ------- -- ---- --- --<br>------- ------,301750,301814,301207,301189,301224,301774,,36,and
screen,html.Screen,2_1_1_1_37,2022-02-04T13:32:15.804Z,,,,,,,,,,,,,,,,,54,,,,,,,,,,,,,,462,,response,,,,100,,,,,,,Space,keypress(Space),,,,,,,,-- --- ---- --- ------ ----- ------- ---- -- --- ------- --<br>------- ---------- ------ -- ----- -- ----- -- ---- ------<br>--- ----- --- --- ------ -------- ----- --- ------ ----- --<br>----- ----- ---------- --- the ------ ------ ---- -- ------<br>------- --- ------ ----- --- ---- ------- -- ---- --- --<br>------- ------,302156,302219,301757,301750,301774,302191,,37,the
screen,html.Screen,2_1_1_1_38,2022-02-04T13:32:16.287Z,,,,,,,,,,,,,,,,,54,,,,,,,,,,,,,,528,,response,,,,100,,,,,,,Space,keypress(Space),,,,,,,,-- --- ---- --- ------ ----- ------- ---- -- --- ------- --<br>------- ---------- ------ -- ----- -- ----- -- ---- ------<br>--- ----- --- --- ------ -------- ----- --- ------ ----- --<br>----- ----- ---------- --- --- market ------ ---- -- ------<br>------- --- ------ ----- --- ---- ------- -- ---- --- --<br>------- ------,302639,302702,302174,302156,302191,302674,,38,market
screen,html.Screen,2_1_1_1_39,2022-02-04T13:32:16.637Z,,,,,,,,,,,,,,,,,54,,,,,,,,,,,,,,395,,response,,,,100,,,,,,,Space,keypress(Space),,,,,,,,-- --- ---- --- ------ ----- ------- ---- -- --- ------- --<br>------- ---------- ------ -- ----- -- ----- -- ---- ------<br>--- ----- --- --- ------ -------- ----- --- ------ ----- --<br>----- ----- ---------- --- --- ------ became ---- -- ------<br>------- --- ------ ----- --- ---- ------- -- ---- --- --<br>------- ------,302989.00000000006,303053,302658,302639,302674,303007,,39,became
screen,html.Screen,2_1_1_1_40,2022-02-04T13:32:17.020Z,,,,,,,,,,,,,,,,,54,,,,,,,,,,,,,,444,,response,,,,100,,,,,,,Space,keypress(Space),,,,,,,,-- --- ---- --- ------ ----- ------- ---- -- --- ------- --<br>------- ---------- ------ -- ----- -- ----- -- ---- ------<br>--- ----- --- --- ------ -------- ----- --- ------ ----- --<br>----- ----- ---------- --- --- ------ ------ wary -- ------<br>------- --- ------ ----- --- ---- ------- -- ---- --- --<br>------- ------,303372,303435,302991,302990,303007,303391,,40,wary
screen,html.Screen,2_1_1_1_41,2022-02-04T13:32:17.423Z,,,,,,,,,,,,,,,,,54,,,,,,,,,,,,,,465,,response,,,,100,,,,,,,Space,keypress(Space),,,,,,,,-- --- ---- --- ------ ----- ------- ---- -- --- ------- --<br>------- ---------- ------ -- ----- -- ----- -- ---- ------<br>--- ----- --- --- ------ -------- ----- --- ------ ----- --<br>----- ----- ---------- --- --- ------ ------ ---- of ------<br>------- --- ------ ----- --- ---- ------- -- ---- --- --<br>------- ------,303775.00000000006,303839,303374,303372,303391,303807,,41,of
screen,html.Screen,2_1_1_1_42,2022-02-04T13:32:17.920Z,,,,,,,,,,,,,,,,,54,,,,,,,,,,,,,,545,,response,,,,100,,,,,,,Space,keypress(Space),,,,,,,,-- --- ---- --- ------ ----- ------- ---- -- --- ------- --<br>------- ---------- ------ -- ----- -- ----- -- ---- ------<br>--- ----- --- --- ------ -------- ----- --- ------ ----- --<br>----- ----- ---------- --- --- ------ ------ ---- -- French<br>------- --- ------ ----- --- ---- ------- -- ---- --- --<br>------- ------,304272,304336,303791,303776,303807,304307,,42,French
screen,html.Screen,2_1_1_1_43,2022-02-04T13:32:18.392Z,,,,,,,,,,,,,,,,,54,,,,,,,,,,,,,,517,,response,,,,100,,,,,,,Space,keypress(Space),,,,,,,,-- --- ---- --- ------ ----- ------- ---- -- --- ------- --<br>------- ---------- ------ -- ----- -- ----- -- ---- ------<br>--- ----- --- --- ------ -------- ----- --- ------ ----- --<br>----- ----- ---------- --- --- ------ ------ ---- -- ------<br>credit. --- ------ ----- --- ---- ------- -- ---- --- --<br>------- ------,304744,304808,304291,304273,304307,304774,,43,credit.
screen,html.Screen,2_1_1_1_44,2022-02-04T13:32:18.887Z,,,,,,,,,,,,,,,,,54,,,,,,,,,,,,,,545,,response,,,,100,,,,,,,Space,keypress(Space),,,,,,,,-- --- ---- --- ------ ----- ------- ---- -- --- ------- --<br>------- ---------- ------ -- ----- -- ----- -- ---- ------<br>--- ----- --- --- ------ -------- ----- --- ------ ----- --<br>----- ----- ---------- --- --- ------ ------ ---- -- ------<br>------- The ------ ----- --- ---- ------- -- ---- --- --<br>------- ------,305239.00000000006,305302,304757,304744,304774,305274,,44,The
screen,html.Screen,2_1_1_1_45,2022-02-04T13:32:19.337Z,,,,,,,,,,,,,,,,,54,,,,,,,,,,,,,,496,,response,,,,100,,,,,,,Space,keypress(Space),,,,,,,,-- --- ---- --- ------ ----- ------- ---- -- --- ------- --<br>------- ---------- ------ -- ----- -- ----- -- ---- ------<br>--- ----- --- --- ------ -------- ----- --- ------ ----- --<br>----- ----- ---------- --- --- ------ ------ ---- -- ------<br>------- --- French ----- --- ---- ------- -- ---- --- --<br>------- ------,305689,305753,305257,305239.00000000006,305274,305724,,45,French
screen,html.Screen,2_1_1_1_46,2022-02-04T13:32:19.788Z,,,,,,,,,,,,,,,,,54,,,,,,,,,,,,,,496.0000000000582,,response,,,,100,,,,,,,Space,keypress(Space),,,,,,,,-- --- ---- --- ------ ----- ------- ---- -- --- ------- --<br>------- ---------- ------ -- ----- -- ----- -- ---- ------<br>--- ----- --- --- ------ -------- ----- --- ------ ----- --<br>----- ----- ---------- --- --- ------ ------ ---- -- ------<br>------- --- ------ state --- ---- ------- -- ---- --- --<br>------- ------,306140,306203.00000000006,305707,305689,305724,306174,,46,state
screen,html.Screen,2_1_1_1_47,2022-02-04T13:32:20.193Z,,,,,,,,,,,,,,,,,54,,,,,,,,,,,,,,451,,response,,,,100,,,,,,,Space,keypress(Space),,,,,,,,-- --- ---- --- ------ ----- ------- ---- -- --- ------- --<br>------- ---------- ------ -- ----- -- ----- -- ---- ------<br>--- ----- --- --- ------ -------- ----- --- ------ ----- --<br>----- ----- ---------- --- --- ------ ------ ---- -- ------<br>------- --- ------ ----- was ---- ------- -- ---- --- --<br>------- ------,306545,306608,306157,306140,306174,306574,,47,was
screen,html.Screen,2_1_1_1_48,2022-02-04T13:32:20.643Z,,,,,,,,,,,,,,,,,54,,,,,,,,,,,,,,500,,response,,,,100,,,,,,,Space,keypress(Space),,,,,,,,-- --- ---- --- ------ ----- ------- ---- -- --- ------- --<br>------- ---------- ------ -- ----- -- ----- -- ---- ------<br>--- ----- --- --- ------ -------- ----- --- ------ ----- --<br>----- ----- ---------- --- --- ------ ------ ---- -- ------<br>------- --- ------ ----- --- left ------- -- ---- --- --<br>------- ------,306995,307058,306558,306545,306574,307024,,48,left
screen,html.Screen,2_1_1_1_49,2022-02-04T13:32:21.047Z,,,,,,,,,,,,,,,,,54,,,,,,,,,,,,,,456,,response,,,,100,,,,,,,Space,keypress(Space),,,,,,,,-- --- ---- --- ------ ----- ------- ---- -- --- ------- --<br>------- ---------- ------ -- ----- -- ----- -- ---- ------<br>--- ----- --- --- ------ -------- ----- --- ------ ----- --<br>----- ----- ---------- --- --- ------ ------ ---- -- ------<br>------- --- ------ ----- --- ---- without -- ---- --- --<br>------- ------,307399,307463,307007,306995,307024,307424,,49,without
screen,html.Screen,2_1_1_1_50,2022-02-04T13:32:21.518Z,,,,,,,,,,,,,,,,,54,,,,,,,,,,,,,,527,,response,,,,100,,,,,,,Space,keypress(Space),,,,,,,,-- --- ---- --- ------ ----- ------- ---- -- --- ------- --<br>------- ---------- ------ -- ----- -- ----- -- ---- ------<br>--- ----- --- --- ------ -------- ----- --- ------ ----- --<br>----- ----- ---------- --- --- ------ ------ ---- -- ------<br>------- --- ------ ----- --- ---- ------- an ---- --- --<br>------- ------,307870,307934,307407,307399,307424,307907,,50,an
screen,html.Screen,2_1_1_1_51,2022-02-04T13:32:21.990Z,,,,,,,,,,,,,,,,,54,,,,,,,,,,,,,,515,,response,,,,100,,,,,,,Space,keypress(Space),,,,,,,,-- --- ---- --- ------ ----- ------- ---- -- --- ------- --<br>------- ---------- ------ -- ----- -- ----- -- ---- ------<br>--- ----- --- --- ------ -------- ----- --- ------ ----- --<br>----- ----- ---------- --- --- ------ ------ ---- -- ------<br>------- --- ------ ----- --- ---- ------- -- easy --- --<br>------- ------,308342,308406,307891,307870,307907,308374,,51,easy
screen,html.Screen,2_1_1_1_52,2022-02-04T13:32:22.375Z,,,,,,,,,,,,,,,,,54,,,,,,,,,,,,,,433,,response,,,,100,,,,,,,Space,keypress(Space),,,,,,,,-- --- ---- --- ------ ----- ------- ---- -- --- ------- --<br>------- ---------- ------ -- ----- -- ----- -- ---- ------<br>--- ----- --- --- ------ -------- ----- --- ------ ----- --<br>----- ----- ---------- --- --- ------ ------ ---- -- ------<br>------- --- ------ ----- --- ---- ------- -- ---- way --<br>------- ------,308727.00000000006,308790,308357,308343,308374,308757,,52,way
screen,html.Screen,2_1_1_1_53,2022-02-04T13:32:22.869Z,,,,,,,,,,,,,,,,,54,,,,,,,,,,,,,,544,,response,,,,100,,,,,,,Space,keypress(Space),,,,,,,,-- --- ---- --- ------ ----- ------- ---- -- --- ------- --<br>------- ---------- ------ -- ----- -- ----- -- ---- ------<br>--- ----- --- --- ------ -------- ----- --- ------ ----- --<br>----- ----- ---------- --- --- ------ ------ ---- -- ------<br>------- --- ------ ----- --- ---- ------- -- ---- --- of<br>------- ------,309221,309285,308741,308727.00000000006,308757,309258,,53,of
screen,html.Screen,2_1_1_1_54,2022-02-04T13:32:23.411Z,,,,,,,,,,,,,,,,,54,,,,,,,,,,,,,,585,,response,,,,100,,,,,,,Space,keypress(Space),,,,,,,,-- --- ---- --- ------ ----- ------- ---- -- --- ------- --<br>------- ---------- ------ -- ----- -- ----- -- ---- ------<br>--- ----- --- --- ------ -------- ----- --- ------ ----- --<br>----- ----- ---------- --- --- ------ ------ ---- -- ------<br>------- --- ------ ----- --- ---- ------- -- ---- --- --<br>raising ------,309763.00000000006,309826,309241,309222,309258,309791,,54,raising
screen,html.Screen,2_1_1_1_55,2022-02-04T13:32:23.857Z,,,,,,,,,,,,,,,,,54,,,,,,,,,,,,,,499,,response,,,,100,,,,,,,Space,keypress(Space),,,,,,,,-- --- ---- --- ------ ----- ------- ---- -- --- ------- --<br>------- ---------- ------ -- ----- -- ----- -- ---- ------<br>--- ----- --- --- ------ -------- ----- --- ------ ----- --<br>----- ----- ---------- --- --- ------ ------ ---- -- ------<br>------- --- ------ ----- --- ---- ------- -- ---- --- --<br>------- money.,310209,310273,309774,309763.00000000006,309791,310241,,55,money.
Item 100,flow.Loop,2_1_1_1,2022-02-04T13:32:23.857Z,,,,,,,,,,,,,,,,,,,,,,,,,,,,,,,47583,,completion,,,,,D,,,,,,,,,,,silence,,,,,310210,310273,262675,262675,262690,310241,,,
Question 1,html.Screen,2_1_1_2,2022-02-04T13:32:26.226Z,,,,,,,,,,,,,,,,,,,,,,,,,,,,true,TRUE,,2419,,response,,,,100,D,,,,,,TRUE,click #choice-1,,,,silence,,,,,312578.00000000006,312643,310224,310210,310241,312607,,,
Question 2,html.Screen,2_1_1_3,2022-02-04T13:32:29.041Z,,,,,,,,,,,,,,,,,,,,,,,,,,,,true,FALSE,,2868,,response,,,,100,D,,,,,,FALSE,click #choice-2,,,,silence,,,,,315393,315459,312591,312578.00000000006,312607,315424,,,
Item 100,flow.Sequence,2_1_1,2022-02-04T13:32:29.042Z,,,,,,,,,,,,,,,,,,,,,,,,,,,,,,,62769,,completion,,,,,,,,,,,,,,,,,,,,,315394,315459,252674,252660,252690,315424,,,
End of Practice,html.Page,2_1_2,2022-02-04T13:32:33.045Z,,,,,,,,,,,,,,,,,,,,,,,,,,,,,,,3972,,form submission,,,,,,,,,,,,,,,,,,,,,319397,319396,315407,315394,315424,319424,,,
Practice,flow.Sequence,2_1,2022-02-04T13:32:33.045Z,,,,,,,,,,,,,,,,,,,,,,,,,,,,,,,117189,,completion,,,,,,,,,,,,,,,,,,,,,319397,319396,202190,202184,202207,319424,,,
Trap_instruction,html.Page,2_2_0,2022-02-04T13:32:38.377Z,,,,,,,,,,,,,,,,,,,,,,,,,,,,,,,5305,,form submission,,,,,,,,,,,,,,,,,,,,,324729,324729,319407,319398,319424,324757,,,
trap_trial,html.Screen,2_2_1,2022-02-04T13:32:41.666Z,,,,,,,,,,,,,,,,,,,,,,,,,,,,true,1,,3335,,response,,,,,,,,,,,1,click #choice-1,,,,,,,,,328018,328076,324741,324729,324757,328024,,,
end of trap trial,html.Page,2_2_2,2022-02-04T13:32:44.110Z,,,,,,,,,,,,,,,,,,,,,,,,,,,,,,,2438,,form submission,,,,,,,,,,,,,,,,,,,,,330462,330462,328021,328018,328024,330488,,,
Trap 1,flow.Sequence,2_2,2022-02-04T13:32:44.110Z,,,,,,,,,,,,,,,,,,,,,,,,,,,,,,,11038,,completion,,,,,,,,,,,,,,,,,,,,,330462,330462,319407,319397,319424,330488,,,
Standby,html.Page,2_3_0,2022-02-04T13:32:52.123Z,,,,,,,,,,,,,,,,,,,,,,,,,,,,,,,8002,,timeout,,,,,,,,,,,,,,,,,,,,,338475,338474,330474,330462,330488,338490,,,
Holding screen,html.Screen,2_3_1_0_0,2022-02-04T13:32:59.122Z,,,,,,,,,,,,,,,,,,,,,,,,,,,,,,,7001,,timeout,,,,,,,,,,,,,,,,,,,,,345475,345474,338474,338475,338490,345491,,,
screen,html.Screen,2_3_1_0_1_0,2022-02-04T13:33:00.783Z,,,,,,,,,,,,,,,,,51,,,,,,,,,,,,,,1723,,response,,,,13,D,,,,,,Space,keypress(Space),,,,silence,,,,American -------- --- --- ---- --- --- ------ -- --------<br>---- --------- --- ------- ------------ ---------- ---------<br>--- ---------- ------- ---------- ------- -- -------- ----<br>---- --- ------ ----- ------ -- ---- --- ----- -- - -------<br>-------- -- --- --- -- ----- ----------- ----- -----------<br>---- --- ---------- --- ---- --- -- ----------,347135,347197,345474,345475,345491,347158,,0,American
screen,html.Screen,2_3_1_0_1_1,2022-02-04T13:33:01.705Z,,,,,,,,,,,,,,,,,51,,,,,,,,,,,,,,980,,response,,,,13,D,,,,,,Space,keypress(Space),,,,silence,,,,-------- industry --- --- ---- --- --- ------ -- --------<br>---- --------- --- ------- ------------ ---------- ---------<br>--- ---------- ------- ---------- ------- -- -------- ----<br>---- --- ------ ----- ------ -- ---- --- ----- -- - -------<br>-------- -- --- --- -- ----- ----------- ----- -----------<br>---- --- ---------- --- ---- --- -- ----------,348057,348120,347140,347135,347158,348091,,1,industry
screen,html.Screen,2_3_1_0_1_2,2022-02-04T13:33:02.267Z,,,,,,,,,,,,,,,,,51,,,,,,,,,,,,,,610,,response,,,,13,D,,,,,,Space,keypress(Space),,,,silence,,,,-------- -------- may --- ---- --- --- ------ -- --------<br>---- --------- --- ------- ------------ ---------- ---------<br>--- ---------- ------- ---------- ------- -- -------- ----<br>---- --- ------ ----- ------ -- ---- --- ----- -- - -------<br>-------- -- --- --- -- ----- ----------- ----- -----------<br>---- --- ---------- --- ---- --- -- ----------,348620,348684,348074,348057,348091,348641,,2,may
screen,html.Screen,2_3_1_0_1_3,2022-02-04T13:33:02.873Z,,,,,,,,,,,,,,,,,51,,,,,,,,,,,,,,665,,response,,,,13,D,,,,,,Space,keypress(Space),,,,silence,,,,-------- -------- --- not ---- --- --- ------ -- --------<br>---- --------- --- ------- ------------ ---------- ---------<br>--- ---------- ------- ---------- ------- -- -------- ----<br>---- --- ------ ----- ------ -- ---- --- ----- -- - -------<br>-------- -- --- --- -- ----- ----------- ----- -----------<br>---- --- ---------- --- ---- --- -- ----------,349226,349289,348624,348620,348641,349258,,3,not
screen,html.Screen,2_3_1_0_1_4,2022-02-04T13:33:03.370Z,,,,,,,,,,,,,,,,,51,,,,,,,,,,,,,,545,,response,,,,13,D,,,,,,Space,keypress(Space),,,,silence,,,,-------- -------- --- --- know --- --- ------ -- --------<br>---- --------- --- ------- ------------ ---------- ---------<br>--- ---------- ------- ---------- ------- -- -------- ----<br>---- --- ------ ----- ------ -- ---- --- ----- -- - -------<br>-------- -- --- --- -- ----- ----------- ----- -----------<br>---- --- ---------- --- ---- --- -- ----------,349723,349786,349241,349226,349258,349758,,4,know
screen,html.Screen,2_3_1_0_1_5,2022-02-04T13:33:03.841Z,,,,,,,,,,,,,,,,,51,,,,,,,,,,,,,,516,,response,,,,13,D,,,,,,Space,keypress(Space),,,,silence,,,,"-------- -------- --- --- ---- it, --- ------ -- --------<br>---- --------- --- ------- ------------ ---------- ---------<br>--- ---------- ------- ---------- ------- -- -------- ----<br>---- --- ------ ----- ------ -- ---- --- ----- -- - -------<br>-------- -- --- --- -- ----- ----------- ----- -----------<br>---- --- ---------- --- ---- --- -- ----------",350193,350257,349741,349723,349758,350224,,5,"it,"
screen,html.Screen,2_3_1_0_1_6,2022-02-04T13:33:04.337Z,,,,,,,,,,,,,,,,,51,,,,,,,,,,,,,,547,,response,,,,13,D,,,,,,Space,keypress(Space),,,,silence,,,,-------- -------- --- --- ---- --- but ------ -- --------<br>---- --------- --- ------- ------------ ---------- ---------<br>--- ---------- ------- ---------- ------- -- -------- ----<br>---- --- ------ ----- ------ -- ---- --- ----- -- - -------<br>-------- -- --- --- -- ----- ----------- ----- -----------<br>---- --- ---------- --- ---- --- -- ----------,350690,350754,350207,350193,350224,350724,,6,but
screen,html.Screen,2_3_1_0_1_7,2022-02-04T13:33:04.741Z,,,,,,,,,,,,,,,,,51,,,,,,,,,,,,,,449,,response,,,,13,D,,,,,,Space,keypress(Space),,,,silence,,,,-------- -------- --- --- ---- --- --- debate -- --------<br>---- --------- --- ------- ------------ ---------- ---------<br>--- ---------- ------- ---------- ------- -- -------- ----<br>---- --- ------ ----- ------ -- ---- --- ----- -- - -------<br>-------- -- --- --- -- ----- ----------- ----- -----------<br>---- --- ---------- --- ---- --- -- ----------,351093,351157,350708,350690,350724,351124,,7,debate
screen,html.Screen,2_3_1_0_1_8,2022-02-04T13:33:05.213Z,,,,,,,,,,,,,,,,,51,,,,,,,,,,,,,,521,,response,,,,13,D,,,,,,Space,keypress(Space),,,,silence,,,,-------- -------- --- --- ---- --- --- ------ in --------<br>---- --------- --- ------- ------------ ---------- ---------<br>--- ---------- ------- ---------- ------- -- -------- ----<br>---- --- ------ ----- ------ -- ---- --- ----- -- - -------<br>-------- -- --- --- -- ----- ----------- ----- -----------<br>---- --- ---------- --- ---- --- -- ----------,351566.00000000006,351629,351108,351094,351124,351591,,8,in
screen,html.Screen,2_3_1_0_1_9,2022-02-04T13:33:05.688Z,,,,,,,,,,,,,,,,,51,,,,,,,,,,,,,,530,,response,,,,13,D,,,,,,Space,keypress(Space),,,,silence,,,,-------- -------- --- --- ---- --- --- ------ -- Congress<br>---- --------- --- ------- ------------ ---------- ---------<br>--- ---------- ------- ---------- ------- -- -------- ----<br>---- --- ------ ----- ------ -- ---- --- ----- -- - -------<br>-------- -- --- --- -- ----- ----------- ----- -----------<br>---- --- ---------- --- ---- --- -- ----------,352040,352104,351574,351566.00000000006,351591,352074,,9,Congress
screen,html.Screen,2_3_1_0_1_10,2022-02-04T13:33:06.159Z,,,,,,,,,,,,,,,,,51,,,,,,,,,,,,,,518,,response,,,,13,D,,,,,,Space,keypress(Space),,,,silence,,,,-------- -------- --- --- ---- --- --- ------ -- --------<br>over --------- --- ------- ------------ ---------- ---------<br>--- ---------- ------- ---------- ------- -- -------- ----<br>---- --- ------ ----- ------ -- ---- --- ----- -- - -------<br>-------- -- --- --- -- ----- ----------- ----- -----------<br>---- --- ---------- --- ---- --- -- ----------,352512,352576,352058,352040,352074,352541,,10,over
screen,html.Screen,2_3_1_0_1_11,2022-02-04T13:33:06.677Z,,,,,,,,,,,,,,,,,51,,,,,,,,,,,,,,570,,response,,,,13,D,,,,,,Space,keypress(Space),,,,silence,,,,-------- -------- --- --- ---- --- --- ------ -- --------<br>---- reforming --- ------- ------------ ---------- ---------<br>--- ---------- ------- ---------- ------- -- -------- ----<br>---- --- ------ ----- ------ -- ---- --- ----- -- - -------<br>-------- -- --- --- -- ----- ----------- ----- -----------<br>---- --- ---------- --- ---- --- -- ----------,353030.00000000006,353094,352524,352512,352541,353058,,11,reforming
screen,html.Screen,2_3_1_0_1_12,2022-02-04T13:33:07.148Z,,,,,,,,,,,,,,,,,51,,,,,,,,,,,,,,524,,response,,,,13,D,,,,,,Space,keypress(Space),,,,silence,,,,-------- -------- --- --- ---- --- --- ------ -- --------<br>---- --------- the ------- ------------ ---------- ---------<br>--- ---------- ------- ---------- ------- -- -------- ----<br>---- --- ------ ----- ------ -- ---- --- ----- -- - -------<br>-------- -- --- --- -- ----- ----------- ----- -----------<br>---- --- ---------- --- ---- --- -- ----------,353501.00000000006,353565,353041,353030.00000000006,353058,353524,,12,the
screen,html.Screen,2_3_1_0_1_13,2022-02-04T13:33:07.643Z,,,,,,,,,,,,,,,,,51,,,,,,,,,,,,,,552,,response,,,,13,D,,,,,,Space,keypress(Space),,,,silence,,,,-------- -------- --- --- ---- --- --- ------ -- --------<br>---- --------- --- federal ------------ ---------- ---------<br>--- ---------- ------- ---------- ------- -- -------- ----<br>---- --- ------ ----- ------ -- ---- --- ----- -- - -------<br>-------- -- --- --- -- ----- ----------- ----- -----------<br>---- --- ---------- --- ---- --- -- ----------,353995,354059,353507,353501.00000000006,353524,354024,,13,federal
screen,html.Screen,2_3_1_0_1_14,2022-02-04T13:33:08.071Z,,,,,,,,,,,,,,,,,51,,,,,,,,,,,,,,479,,response,,,,13,D,,,,,,Space,keypress(Space),,,,silence,,,,-------- -------- --- --- ---- --- --- ------ -- --------<br>---- --------- --- ------- government's ---------- ---------<br>--- ---------- ------- ---------- ------- -- -------- ----<br>---- --- ------ ----- ------ -- ---- --- ----- -- - -------<br>-------- -- --- --- -- ----- ----------- ----- -----------<br>---- --- ---------- --- ---- --- -- ----------,354423,354487,354008,353996,354024,354458,,14,government's
screen,html.Screen,2_3_1_0_1_15,2022-02-04T13:33:08.567Z,,,,,,,,,,,,,,,,,51,,,,,,,,,,,,,,543,,response,,,,13,D,,,,,,Space,keypress(Space),,,,silence,,,,-------- -------- --- --- ---- --- --- ------ -- --------<br>---- --------- --- ------- ------------ regulatory ---------<br>--- ---------- ------- ---------- ------- -- -------- ----<br>---- --- ------ ----- ------ -- ---- --- ----- -- - -------<br>-------- -- --- --- -- ----- ----------- ----- -----------<br>---- --- ---------- --- ---- --- -- ----------,354920,354984,354441,354423,354458,354941,,15,regulatory
screen,html.Screen,2_3_1_0_1_16,2022-02-04T13:33:09.107Z,,,,,,,,,,,,,,,,,51,,,,,,,,,,,,,,600,,response,,,,13,D,,,,,,Space,keypress(Space),,,,silence,,,,-------- -------- --- --- ---- --- --- ------ -- --------<br>---- --------- --- ------- ------------ ---------- apparatus<br>--- ---------- ------- ---------- ------- -- -------- ----<br>---- --- ------ ----- ------ -- ---- --- ----- -- - -------<br>-------- -- --- --- -- ----- ----------- ----- -----------<br>---- --- ---------- --- ---- --- -- ----------,355459,355524,354924,354920,354941,355491,,16,apparatus
screen,html.Screen,2_3_1_0_1_17,2022-02-04T13:33:09.581Z,,,,,,,,,,,,,,,,,51,,,,,,,,,,,,,,523,,response,,,,13,D,,,,,,Space,keypress(Space),,,,silence,,,,-------- -------- --- --- ---- --- --- ------ -- --------<br>---- --------- --- ------- ------------ ---------- ---------<br>may ---------- ------- ---------- ------- -- -------- ----<br>---- --- ------ ----- ------ -- ---- --- ----- -- - -------<br>-------- -- --- --- -- ----- ----------- ----- -----------<br>---- --- ---------- --- ---- --- -- ----------,355933,355997,355474,355460,355491,355958,,17,may
screen,html.Screen,2_3_1_0_1_18,2022-02-04T13:33:10.095Z,,,,,,,,,,,,,,,,,51,,,,,,,,,,,,,,571,,response,,,,13,D,,,,,,Space,keypress(Space),,,,silence,,,,-------- -------- --- --- ---- --- --- ------ -- --------<br>---- --------- --- ------- ------------ ---------- ---------<br>--- profoundly ------- ---------- ------- -- -------- ----<br>---- --- ------ ----- ------ -- ---- --- ----- -- - -------<br>-------- -- --- --- -- ----- ----------- ----- -----------<br>---- --- ---------- --- ---- --- -- ----------,356448,356512,355941,355933,355958,356474,,18,profoundly
screen,html.Screen,2_3_1_0_1_19,2022-02-04T13:33:10.547Z,,,,,,,,,,,,,,,,,51,,,,,,,,,,,,,,506,,response,,,,13,D,,,,,,Space,keypress(Space),,,,silence,,,,-------- -------- --- --- ---- --- --- ------ -- --------<br>---- --------- --- ------- ------------ ---------- ---------<br>--- ---------- improve ---------- ------- -- -------- ----<br>---- --- ------ ----- ------ -- ---- --- ----- -- - -------<br>-------- -- --- --- -- ----- ----------- ----- -----------<br>---- --- ---------- --- ---- --- -- ----------,356900.00000000006,356964,356458,356448,356474,356924,,19,improve
screen,html.Screen,2_3_1_0_1_20,2022-02-04T13:33:11.020Z,,,,,,,,,,,,,,,,,51,,,,,,,,,,,,,,528.0000000000582,,response,,,,13,D,,,,,,Space,keypress(Space),,,,silence,,,,-------- -------- --- --- ---- --- --- ------ -- --------<br>---- --------- --- ------- ------------ ---------- ---------<br>--- ---------- ------- companies' ------- -- -------- ----<br>---- --- ------ ----- ------ -- ---- --- ----- -- - -------<br>-------- -- --- --- -- ----- ----------- ----- -----------<br>---- --- ---------- --- ---- --- -- ----------,357373,357436.00000000006,356908,356900.00000000006,356924,357408,,20,companies'
screen,html.Screen,2_3_1_0_1_21,2022-02-04T13:33:11.694Z,,,,,,,,,,,,,,,,,51,,,,,,,,,,,,,,719,,response,,,,13,D,,,,,,Space,keypress(Space),,,,silence,,,,-------- -------- --- --- ---- --- --- ------ -- --------<br>---- --------- --- ------- ------------ ---------- ---------<br>--- ---------- ------- ---------- ability -- -------- ----<br>---- --- ------ ----- ------ -- ---- --- ----- -- - -------<br>-------- -- --- --- -- ----- ----------- ----- -----------<br>---- --- ---------- --- ---- --- -- ----------,358047,358110,357391,357373,357408,358074,,21,ability
screen,html.Screen,2_3_1_0_1_22,2022-02-04T13:33:12.211Z,,,,,,,,,,,,,,,,,51,,,,,,,,,,,,,,569,,response,,,,13,D,,,,,,Space,keypress(Space),,,,silence,,,,-------- -------- --- --- ---- --- --- ------ -- --------<br>---- --------- --- ------- ------------ ---------- ---------<br>--- ---------- ------- ---------- ------- to -------- ----<br>---- --- ------ ----- ------ -- ---- --- ----- -- - -------<br>-------- -- --- --- -- ----- ----------- ----- -----------<br>---- --- ---------- --- ---- --- -- ----------,358563,358627,358058,358047,358074,358591,,22,to
screen,html.Screen,2_3_1_0_1_23,2022-02-04T13:33:12.685Z,,,,,,,,,,,,,,,,,51,,,,,,,,,,,,,,527,,response,,,,13,D,,,,,,Space,keypress(Space),,,,silence,,,,-------- -------- --- --- ---- --- --- ------ -- --------<br>---- --------- --- ------- ------------ ---------- ---------<br>--- ---------- ------- ---------- ------- -- survive. ----<br>---- --- ------ ----- ------ -- ---- --- ----- -- - -------<br>-------- -- --- --- -- ----- ----------- ----- -----------<br>---- --- ---------- --- ---- --- -- ----------,359037.00000000006,359101,358574,358563,358591,359074,,23,survive.
screen,html.Screen,2_3_1_0_1_24,2022-02-04T13:33:13.291Z,,,,,,,,,,,,,,,,,51,,,,,,,,,,,,,,649,,response,,,,13,D,,,,,,Space,keypress(Space),,,,silence,,,,-------- -------- --- --- ---- --- --- ------ -- --------<br>---- --------- --- ------- ------------ ---------- ---------<br>--- ---------- ------- ---------- ------- -- -------- This<br>---- --- ------ ----- ------ -- ---- --- ----- -- - -------<br>-------- -- --- --- -- ----- ----------- ----- -----------<br>---- --- ---------- --- ---- --- -- ----------,359644,359707,359058,359037.00000000006,359074,359674,,24,This
screen,html.Screen,2_3_1_0_1_25,2022-02-04T13:33:13.830Z,,,,,,,,,,,,,,,,,51,,,,,,,,,,,,,,589,,response,,,,13,D,,,,,,Space,keypress(Space),,,,silence,,,,-------- -------- --- --- ---- --- --- ------ -- --------<br>---- --------- --- ------- ------------ ---------- ---------<br>--- ---------- ------- ---------- ------- -- -------- ----<br>week --- ------ ----- ------ -- ---- --- ----- -- - -------<br>-------- -- --- --- -- ----- ----------- ----- -----------<br>---- --- ---------- --- ---- --- -- ----------,360183,360247,359658,359644,359674,360208,,25,week
screen,html.Screen,2_3_1_0_1_26,2022-02-04T13:33:14.305Z,,,,,,,,,,,,,,,,,51,,,,,,,,,,,,,,530,,response,,,,13,D,,,,,,Space,keypress(Space),,,,silence,,,,-------- -------- --- --- ---- --- --- ------ -- --------<br>---- --------- --- ------- ------------ ---------- ---------<br>--- ---------- ------- ---------- ------- -- -------- ----<br>---- the ------ ----- ------ -- ---- --- ----- -- - -------<br>-------- -- --- --- -- ----- ----------- ----- -----------<br>---- --- ---------- --- ---- --- -- ----------,360657,360721,360191,360183,360208,360691,,26,the
screen,html.Screen,2_3_1_0_1_27,2022-02-04T13:33:14.822Z,,,,,,,,,,,,,,,,,51,,,,,,,,,,,,,,565.0000000000582,,response,,,,13,D,,,,,,Space,keypress(Space),,,,silence,,,,-------- -------- --- --- ---- --- --- ------ -- --------<br>---- --------- --- ------- ------------ ---------- ---------<br>--- ---------- ------- ---------- ------- -- -------- ----<br>---- --- Senate ----- ------ -- ---- --- ----- -- - -------<br>-------- -- --- --- -- ----- ----------- ----- -----------<br>---- --- ---------- --- ---- --- -- ----------,361175,361239.00000000006,360674,360657,360691,361208,,27,Senate
screen,html.Screen,2_3_1_0_1_28,2022-02-04T13:33:15.294Z,,,,,,,,,,,,,,,,,51,,,,,,,,,,,,,,520,,response,,,,13,D,,,,,,Space,keypress(Space),,,,silence,,,,-------- -------- --- --- ---- --- --- ------ -- --------<br>---- --------- --- ------- ------------ ---------- ---------<br>--- ---------- ------- ---------- ------- -- -------- ----<br>---- --- ------ seems ------ -- ---- --- ----- -- - -------<br>-------- -- --- --- -- ----- ----------- ----- -----------<br>---- --- ---------- --- ---- --- -- ----------,361647,361711,361191,361175,361208,361674,,28,seems
screen,html.Screen,2_3_1_0_1_29,2022-02-04T13:33:15.990Z,,,,,,,,,,,,,,,,,51,,,,,,,,,,,,,,749,,response,,,,13,D,,,,,,Space,keypress(Space),,,,silence,,,,-------- -------- --- --- ---- --- --- ------ -- --------<br>---- --------- --- ------- ------------ ---------- ---------<br>--- ---------- ------- ---------- ------- -- -------- ----<br>---- --- ------ ----- poised -- ---- --- ----- -- - -------<br>-------- -- --- --- -- ----- ----------- ----- -----------<br>---- --- ---------- --- ---- --- -- ----------,362343,362407,361658,361647,361674,362375,,29,poised
screen,html.Screen,2_3_1_0_1_30,2022-02-04T13:33:16.419Z,,,,,,,,,,,,,,,,,51,,,,,,,,,,,,,,478,,response,,,,13,D,,,,,,Space,keypress(Space),,,,silence,,,,-------- -------- --- --- ---- --- --- ------ -- --------<br>---- --------- --- ------- ------------ ---------- ---------<br>--- ---------- ------- ---------- ------- -- -------- ----<br>---- --- ------ ----- ------ to ---- --- ----- -- - -------<br>-------- -- --- --- -- ----- ----------- ----- -----------<br>---- --- ---------- --- ---- --- -- ----------,362772,362836,362358,362343,362375,362808,,30,to
screen,html.Screen,2_3_1_0_1_31,2022-02-04T13:33:16.848Z,,,,,,,,,,,,,,,,,51,,,,,,,,,,,,,,474,,response,,,,13,D,,,,,,Space,keypress(Space),,,,silence,,,,-------- -------- --- --- ---- --- --- ------ -- --------<br>---- --------- --- ------- ------------ ---------- ---------<br>--- ---------- ------- ---------- ------- -- -------- ----<br>---- --- ------ ----- ------ -- join --- ----- -- - -------<br>-------- -- --- --- -- ----- ----------- ----- -----------<br>---- --- ---------- --- ---- --- -- ----------,363200,363265,362791,362772,362808,363224,,31,join
screen,html.Screen,2_3_1_0_1_32,2022-02-04T13:33:17.298Z,,,,,,,,,,,,,,,,,51,,,,,,,,,,,,,,507,,response,,,,13,D,,,,,,Space,keypress(Space),,,,silence,,,,-------- -------- --- --- ---- --- --- ------ -- --------<br>---- --------- --- ------- ------------ ---------- ---------<br>--- ---------- ------- ---------- ------- -- -------- ----<br>---- --- ------ ----- ------ -- ---- the ----- -- - -------<br>-------- -- --- --- -- ----- ----------- ----- -----------<br>---- --- ---------- --- ---- --- -- ----------,363650.00000000006,363714,363207,363201,363224,363674,,32,the
screen,html.Screen,2_3_1_0_1_33,2022-02-04T13:33:17.814Z,,,,,,,,,,,,,,,,,51,,,,,,,,,,,,,,574,,response,,,,13,D,,,,,,Space,keypress(Space),,,,silence,,,,-------- -------- --- --- ---- --- --- ------ -- --------<br>---- --------- --- ------- ------------ ---------- ---------<br>--- ---------- ------- ---------- ------- -- -------- ----<br>---- --- ------ ----- ------ -- ---- --- House -- - -------<br>-------- -- --- --- -- ----- ----------- ----- -----------<br>---- --- ---------- --- ---- --- -- ----------,364167.00000000006,364231,363657,363651,363674,364191,,33,House
screen,html.Screen,2_3_1_0_1_34,2022-02-04T13:33:18.265Z,,,,,,,,,,,,,,,,,51,,,,,,,,,,,,,,507,,response,,,,13,D,,,,,,Space,keypress(Space),,,,silence,,,,-------- -------- --- --- ---- --- --- ------ -- --------<br>---- --------- --- ------- ------------ ---------- ---------<br>--- ---------- ------- ---------- ------- -- -------- ----<br>---- --- ------ ----- ------ -- ---- --- ----- in - -------<br>-------- -- --- --- -- ----- ----------- ----- -----------<br>---- --- ---------- --- ---- --- -- ----------,364617,364681,364174,364167.00000000006,364191,364641,,34,in
screen,html.Screen,2_3_1_0_1_35,2022-02-04T13:33:18.692Z,,,,,,,,,,,,,,,,,51,,,,,,,,,,,,,,485,,response,,,,13,D,,,,,,Space,keypress(Space),,,,silence,,,,-------- -------- --- --- ---- --- --- ------ -- --------<br>---- --------- --- ------- ------------ ---------- ---------<br>--- ---------- ------- ---------- ------- -- -------- ----<br>---- --- ------ ----- ------ -- ---- --- ----- -- a -------<br>-------- -- --- --- -- ----- ----------- ----- -----------<br>---- --- ---------- --- ---- --- -- ----------,365045,365109,364624,364617,364641,365074,,35,a
screen,html.Screen,2_3_1_0_1_36,2022-02-04T13:33:19.209Z,,,,,,,,,,,,,,,,,51,,,,,,,,,,,,,,568.0000000000582,,response,,,,13,D,,,,,,Space,keypress(Space),,,,silence,,,,-------- -------- --- --- ---- --- --- ------ -- --------<br>---- --------- --- ------- ------------ ---------- ---------<br>--- ---------- ------- ---------- ------- -- -------- ----<br>---- --- ------ ----- ------ -- ---- --- ----- -- - massive<br>-------- -- --- --- -- ----- ----------- ----- -----------<br>---- --- ---------- --- ---- --- -- ----------,365562,365626.00000000006,365058,365045,365074,365591,,36,massive
screen,html.Screen,2_3_1_0_1_37,2022-02-04T13:33:19.705Z,,,,,,,,,,,,,,,,,51,,,,,,,,,,,,,,547,,response,,,,13,D,,,,,,Space,keypress(Space),,,,silence,,,,-------- -------- --- --- ---- --- --- ------ -- --------<br>---- --------- --- ------- ------------ ---------- ---------<br>--- ---------- ------- ---------- ------- -- -------- ----<br>---- --- ------ ----- ------ -- ---- --- ----- -- - -------<br>overhaul -- --- --- -- ----- ----------- ----- -----------<br>---- --- ---------- --- ---- --- -- ----------,366057,366121,365574,365562,365591,366091,,37,overhaul
screen,html.Screen,2_3_1_0_1_38,2022-02-04T13:33:20.198Z,,,,,,,,,,,,,,,,,51,,,,,,,,,,,,,,540.0000000000582,,response,,,,13,D,,,,,,Space,keypress(Space),,,,silence,,,,-------- -------- --- --- ---- --- --- ------ -- --------<br>---- --------- --- ------- ------------ ---------- ---------<br>--- ---------- ------- ---------- ------- -- -------- ----<br>---- --- ------ ----- ------ -- ---- --- ----- -- - -------<br>-------- of --- --- -- ----- ----------- ----- -----------<br>---- --- ---------- --- ---- --- -- ----------,366550,366614.00000000006,366074,366057,366091,366574,,38,of
screen,html.Screen,2_3_1_0_1_39,2022-02-04T13:33:20.650Z,,,,,,,,,,,,,,,,,51,,,,,,,,,,,,,,509.0000000000582,,response,,,,13,D,,,,,,Space,keypress(Space),,,,silence,,,,-------- -------- --- --- ---- --- --- ------ -- --------<br>---- --------- --- ------- ------------ ---------- ---------<br>--- ---------- ------- ---------- ------- -- -------- ----<br>---- --- ------ ----- ------ -- ---- --- ----- -- - -------<br>-------- -- the --- -- ----- ----------- ----- -----------<br>---- --- ---------- --- ---- --- -- ----------,367003,367066.00000000006,366557,366551,366574,367024,,39,the
screen,html.Screen,2_3_1_0_1_40,2022-02-04T13:33:21.099Z,,,,,,,,,,,,,,,,,51,,,,,,,,,,,,,,509,,response,,,,13,D,,,,,,Space,keypress(Space),,,,silence,,,,-------- -------- --- --- ---- --- --- ------ -- --------<br>---- --------- --- ------- ------------ ---------- ---------<br>--- ---------- ------- ---------- ------- -- -------- ----<br>---- --- ------ ----- ------ -- ---- --- ----- -- - -------<br>-------- -- --- way -- ----- ----------- ----- -----------<br>---- --- ---------- --- ---- --- -- ----------,367452,367516,367007,367003,367024,367474,,40,way
screen,html.Screen,2_3_1_0_1_41,2022-02-04T13:33:21.481Z,,,,,,,,,,,,,,,,,51,,,,,,,,,,,,,,441,,response,,,,13,D,,,,,,Space,keypress(Space),,,,silence,,,,-------- -------- --- --- ---- --- --- ------ -- --------<br>---- --------- --- ------- ------------ ---------- ---------<br>--- ---------- ------- ---------- ------- -- -------- ----<br>---- --- ------ ----- ------ -- ---- --- ----- -- - -------<br>-------- -- --- --- in ----- ----------- ----- -----------<br>---- --- ---------- --- ---- --- -- ----------,367834,367898,367457,367452,367474,367858,,41,in
screen,html.Screen,2_3_1_0_1_42,2022-02-04T13:33:21.931Z,,,,,,,,,,,,,,,,,51,,,,,,,,,,,,,,506,,response,,,,13,D,,,,,,Space,keypress(Space),,,,silence,,,,-------- -------- --- --- ---- --- --- ------ -- --------<br>---- --------- --- ------- ------------ ---------- ---------<br>--- ---------- ------- ---------- ------- -- -------- ----<br>---- --- ------ ----- ------ -- ---- --- ----- -- - -------<br>-------- -- --- --- -- which ----------- ----- -----------<br>---- --- ---------- --- ---- --- -- ----------,368283,368347,367841,367834,367858,368308,,42,which
screen,html.Screen,2_3_1_0_1_43,2022-02-04T13:33:22.382Z,,,,,,,,,,,,,,,,,51,,,,,,,,,,,,,,508.0000000000582,,response,,,,13,D,,,,,,Space,keypress(Space),,,,silence,,,,-------- -------- --- --- ---- --- --- ------ -- --------<br>---- --------- --- ------- ------------ ---------- ---------<br>--- ---------- ------- ---------- ------- -- -------- ----<br>---- --- ------ ----- ------ -- ---- --- ----- -- - -------<br>-------- -- --- --- -- ----- bureaucrats ----- -----------<br>---- --- ---------- --- ---- --- -- ----------,368735,368799.00000000006,368291,368283,368308,368758,,43,bureaucrats
screen,html.Screen,2_3_1_0_1_44,2022-02-04T13:33:22.764Z,,,,,,,,,,,,,,,,,51,,,,,,,,,,,,,,440,,response,,,,13,D,,,,,,Space,keypress(Space),,,,silence,,,,-------- -------- --- --- ---- --- --- ------ -- --------<br>---- --------- --- ------- ------------ ---------- ---------<br>--- ---------- ------- ---------- ------- -- -------- ----<br>---- --- ------ ----- ------ -- ---- --- ----- -- - -------<br>-------- -- --- --- -- ----- ----------- enact -----------<br>---- --- ---------- --- ---- --- -- ----------,369117,369181,368741,368735,368758,369141,,44,enact
screen,html.Screen,2_3_1_0_1_45,2022-02-04T13:33:23.280Z,,,,,,,,,,,,,,,,,51,,,,,,,,,,,,,,573,,response,,,,13,D,,,,,,Space,keypress(Space),,,,silence,,,,-------- -------- --- --- ---- --- --- ------ -- --------<br>---- --------- --- ------- ------------ ---------- ---------<br>--- ---------- ------- ---------- ------- -- -------- ----<br>---- --- ------ ----- ------ -- ---- --- ----- -- - -------<br>-------- -- --- --- -- ----- ----------- ----- regulations<br>---- --- ---------- --- ---- --- -- ----------,369633,369697,369124,369117,369141,369658,,45,regulations
screen,html.Screen,2_3_1_0_1_46,2022-02-04T13:33:23.732Z,,,,,,,,,,,,,,,,,51,,,,,,,,,,,,,,508,,response,,,,13,D,,,,,,Space,keypress(Space),,,,silence,,,,-------- -------- --- --- ---- --- --- ------ -- --------<br>---- --------- --- ------- ------------ ---------- ---------<br>--- ---------- ------- ---------- ------- -- -------- ----<br>---- --- ------ ----- ------ -- ---- --- ----- -- - -------<br>-------- -- --- --- -- ----- ----------- ----- -----------<br>that --- ---------- --- ---- --- -- ----------,370085,370149,369641,369633,369658,370108,,46,that
screen,html.Screen,2_3_1_0_1_47,2022-02-04T13:33:24.160Z,,,,,,,,,,,,,,,,,51,,,,,,,,,,,,,,486,,response,,,,13,D,,,,,,Space,keypress(Space),,,,silence,,,,-------- -------- --- --- ---- --- --- ------ -- --------<br>---- --------- --- ------- ------------ ---------- ---------<br>--- ---------- ------- ---------- ------- -- -------- ----<br>---- --- ------ ----- ------ -- ---- --- ----- -- - -------<br>-------- -- --- --- -- ----- ----------- ----- -----------<br>---- are ---------- --- ---- --- -- ----------,370513.00000000006,370577,370091,370085,370108,370541,,47,are
screen,html.Screen,2_3_1_0_1_48,2022-02-04T13:33:24.653Z,,,,,,,,,,,,,,,,,51,,,,,,,,,,,,,,545,,response,,,,13,D,,,,,,Space,keypress(Space),,,,silence,,,,-------- -------- --- --- ---- --- --- ------ -- --------<br>---- --------- --- ------- ------------ ---------- ---------<br>--- ---------- ------- ---------- ------- -- -------- ----<br>---- --- ------ ----- ------ -- ---- --- ----- -- - -------<br>-------- -- --- --- -- ----- ----------- ----- -----------<br>---- --- strangling --- ---- --- -- ----------,371006,371069,370524,370513.00000000006,370541,371041,,48,strangling
screen,html.Screen,2_3_1_0_1_49,2022-02-04T13:33:25.059Z,,,,,,,,,,,,,,,,,51,,,,,,,,,,,,,,452,,response,,,,13,D,,,,,,Space,keypress(Space),,,,silence,,,,-------- -------- --- --- ---- --- --- ------ -- --------<br>---- --------- --- ------- ------------ ---------- ---------<br>--- ---------- ------- ---------- ------- -- -------- ----<br>---- --- ------ ----- ------ -- ---- --- ----- -- - -------<br>-------- -- --- --- -- ----- ----------- ----- -----------<br>---- --- ---------- the ---- --- -- ----------,371412.00000000006,371476,371024,371006,371041,371441,,49,the
screen,html.Screen,2_3_1_0_1_50,2022-02-04T13:33:25.464Z,,,,,,,,,,,,,,,,,51,,,,,,,,,,,,,,457,,response,,,,13,D,,,,,,Space,keypress(Space),,,,silence,,,,-------- -------- --- --- ---- --- --- ------ -- --------<br>---- --------- --- ------- ------------ ---------- ---------<br>--- ---------- ------- ---------- ------- -- -------- ----<br>---- --- ------ ----- ------ -- ---- --- ----- -- - -------<br>-------- -- --- --- -- ----- ----------- ----- -----------<br>---- --- ---------- --- life --- -- ----------,371817,371881,371424,371412.00000000006,371441,371841,,50,life
screen,html.Screen,2_3_1_0_1_51,2022-02-04T13:33:25.803Z,,,,,,,,,,,,,,,,,51,,,,,,,,,,,,,,395,,response,,,,13,D,,,,,,Space,keypress(Space),,,,silence,,,,-------- -------- --- --- ---- --- --- ------ -- --------<br>---- --------- --- ------- ------------ ---------- ---------<br>--- ---------- ------- ---------- ------- -- -------- ----<br>---- --- ------ ----- ------ -- ---- --- ----- -- - -------<br>-------- -- --- --- -- ----- ----------- ----- -----------<br>---- --- ---------- --- ---- out -- ----------,372155.00000000006,372219,371824,371817,371841,372175,,51,out
screen,html.Screen,2_3_1_0_1_52,2022-02-04T13:33:26.207Z,,,,,,,,,,,,,,,,,51,,,,,,,,,,,,,,466,,response,,,,13,D,,,,,,Space,keypress(Space),,,,silence,,,,-------- -------- --- --- ---- --- --- ------ -- --------<br>---- --------- --- ------- ------------ ---------- ---------<br>--- ---------- ------- ---------- ------- -- -------- ----<br>---- --- ------ ----- ------ -- ---- --- ----- -- - -------<br>-------- -- --- --- -- ----- ----------- ----- -----------<br>---- --- ---------- --- ---- --- of ----------,372560,372624,372158,372156,372175,372591,,52,of
screen,html.Screen,2_3_1_0_1_53,2022-02-04T13:33:27.083Z,,,,,,,,,,,,,,,,,51,,,,,,,,,,,,,,925,,response,,,,13,D,,,,,,Space,keypress(Space),,,,silence,,,,-------- -------- --- --- ---- --- --- ------ -- --------<br>---- --------- --- ------- ------------ ---------- ---------<br>--- ---------- ------- ---------- ------- -- -------- ----<br>---- --- ------ ----- ------ -- ---- --- ----- -- - -------<br>-------- -- --- --- -- ----- ----------- ----- -----------<br>---- --- ---------- --- ---- --- -- companies.,373436.00000000006,373500,372575,372560,372591,373475,,53,companies.
Item 13,flow.Loop,2_3_1_0_1,2022-02-04T13:33:27.083Z,,,,,,,,,,,,,,,,,,,,,,,,,,,,,,,28009,,completion,,,,,,,,,,,,,,,,,,,,,373436.00000000006,373500,345474,345475,345491,373475,,,
Question 1,html.Screen,2_3_1_0_2,2022-02-04T13:33:32.341Z,,,,,,,,,,,,,,,,,,,,,,,,,,,,true,FALSE,,5302,,response,,,,13,D,,,,,,FALSE,click #choice-2,,,,silence,,,,,378694,378760,373458,373436.00000000006,373475,378724,,,
Question 2,html.Screen,2_3_1_0_3,2022-02-04T13:33:36.208Z,,,,,,,,,,,,,,,,,,,,,,,,,,,,true,TRUE,,3920,,response,,,,13,D,,,,,,TRUE,click #choice-1,,,,silence,,,,,382561.00000000006,382627,378707,378694,378724,382591,,,
Item 13,flow.Sequence,2_3_1_0,2022-02-04T13:33:36.209Z,,,,,,,,,,,,,,,,,,,,,,,,,,,,,,,44137,,completion,,,,,,,,,,,,,,,,,,,,,382561.00000000006,382627,338474,338475,338490,382591,,,
Holding screen,html.Screen,2_3_1_1_0,2022-02-04T13:33:43.226Z,,,,,,,,,,,,,,,,,,,,,,,,,,,,,,,7000,,timeout,,,,,,,,,,,,,,,,,,,,,389575,389575,382574,382562,382591,389591,,,
