sender,sender_type,sender_id,timestamp,meta,,Blues,Classical,Country,Dance,Electronic,Folk,Gospel,Hip-Hop,Jazz,Latin,Musical/Film,New-age,Pop,Prolific_id,Provo_ID,R&B,Rap,Reggae,Religious,Rock,Soul,Swing,Traditional,age,artist_name,correct,correctResponse,distraction,duration,education,ended_on,familiarity,gender,headphone_check_performance,item,list,music_frequency,offensiveness,pleasantness,position_correct,preference,response,response_action,snippet_file,song_name,song_rating,sound,stimulus_1,stimulus_2,stimulus_3,text,time_commit,time_end,time_render,time_run,time_show,time_switch,url,word,word_ID
Prolific ID,html.Form,0,2022-02-15T16:28:08.872Z,"{""labjs_version"":""20.2.2"",""labjs_build"":{""flavor"":""production"",""commit"":""a25486e0c714a0ae2ce03ff94b7bb6896854dcfa""},""location"":""https://run.pavlovia.org/mvasilev/prolific2_music_b/"",""userAgent"":""Mozilla/5.0 (Windows NT 10.0; Win64; x64) AppleWebKit/537.36 (KHTML, like Gecko) Chrome/98.0.4758.82 Safari/537.36"",""platform"":""Win32"",""language"":""en-GB"",""locale"":""en-GB"",""timeZone"":""Europe/London"",""timezoneOffset"":0,""screen_width"":1600,""screen_height"":900,""scroll_width"":1600,""scroll_height"":741,""window_innerWidth"":1600,""window_innerHeight"":789,""devicePixelRatio"":1}",,,,,,,,,,,,,,,60fc12dc938ec5fd9284a25c,,,,,,,,,,,,,,,13864.953999952315,,form submission,,,,,,,,,,,,,,,,,,,,,45995.39999997616,45994.799999952316,31863.174,31862.600000023842,32129.846,46936.274,{},,
Introduction,html.Screen,1_0,2022-02-15T16:28:19.230Z,,,,,,,,,,,,,,,,,,,,,,,,,,,,,,,9412.525999952319,,response,,,,,,,,,,,continue,click button,,,,,,,,,56353.5,56348.799999952316,45902.522,45995.799999952316,46936.274,56417.528,,,
Volume calibration,html.Screen,1_1,2022-02-15T16:29:39.135Z,,,,,,,,,,,,,,,,,,,,,,,,,,,,,,,79835.27199995233,,response,,,,,,,,,,,continue,click button,,,,,,,,,136258.5,136252.79999995232,56334.193,56353.799999952316,56417.528,136280.984,,,
Task instructions,html.Screen,1_2,2022-02-15T16:29:45.299Z,,,,,,,,,,,,,,,,,,,,,,,,,,,,,,,6139.915999976161,,response,,,,,,,,,,,continue,click button,,,,,,,,,142421.69999992847,142420.89999997616,136264.317,136258.69999992847,136280.984,142444.036,,,
Sounds,html.Screen,1_3_0_0,2022-02-15T16:29:49.563Z,,,,,,,,,,,,,,,,,,,,,,,,,,,,,,,4259.861999999994,,timeout,,,,,,,,,1,,,,,,,,S,I,O,,146686.29999995232,146670.564,142427.369,142422,142444.036,146703.898,,,
Judgement,html.Screen,1_3_0_1,2022-02-15T16:30:05.809Z,,,,,,,,,,,,,,,,,,,,,,,,,,,,false,1,,16212.801999928488,,response,,,,,,,,,1,,3,click #choice-3,,,,,S,I,O,,162932,162916.69999992847,146670.564,146686.60000002384,146703.898,162946.629,,,
Trial,flow.Sequence,1_3_0,2022-02-15T16:30:05.812Z,,,,,,,,,,,,,,,,,,,,,,,,,,,,,,,20472.66399992848,,completion,,,,,,,,,1,,,,,,,,S,I,O,,162934.89999997616,162916.69999992847,142427.369,142422,142444.036,162946.629,,,
Sounds,html.Screen,1_3_1_0,2022-02-15T16:30:10.061Z,,,,,,,,,,,,,,,,,,,,,,,,,,,,,,,4252.726000000024,,timeout,,,,,,,,,1,,,,,,,,S,O,I,,167183.69999992847,167182.688,162913.295,162935.10000002384,162946.629,167199.355,,,
Judgement,html.Screen,1_3_1_1,2022-02-15T16:30:11.083Z,,,,,,,,,,,,,,,,,,,,,,,,,,,,true,1,,1005.344999928464,,response,,,,,,,,,1,,1,click #choice-1,,,,,S,O,I,,168206.29999995232,168204.69999992847,167182.688,167183.89999997616,167199.355,168213.231,,,
Trial,flow.Sequence,1_3_1,2022-02-15T16:30:11.094Z,,,,,,,,,,,,,,,,,,,,,,,,,,,,,,,5258.070999928488,,completion,,,,,,,,,1,,,,,,,,S,O,I,,168217.39999997616,168204.69999992847,162913.295,162935,162946.629,168213.231,,,
Sounds,html.Screen,1_3_2_0,2022-02-15T16:30:15.326Z,,,,,,,,,,,,,,,,,,,,,,,,,,,,,,,4250.956000000006,,timeout,,,,,,,,,2,,,,,,,,O,S,I,,172449.10000002384,172447.52,168196.564,168217.69999992847,168213.231,172464.187,,,
Judgement,html.Screen,1_3_2_1,2022-02-15T16:30:16.067Z,,,,,,,,,,,,,,,,,,,,,,,,,,,,true,2,,724.5129999284691,,response,,,,,,,,,2,,2,click #choice-2,,,,,O,S,I,,173190,173188.69999992847,172447.52,172449.29999995232,172464.187,173212.054,,,
Trial,flow.Sequence,1_3_2,2022-02-15T16:30:16.067Z,,,,,,,,,,,,,,,,,,,,,,,,,,,,,,,4975.468999928475,,completion,,,,,,,,,2,,,,,,,,O,S,I,,173190.19999992847,173188.69999992847,168196.564,168217.60000002384,168213.231,173212.054,,,
Sounds,html.Screen,1_3_3_0,2022-02-15T16:30:20.324Z,,,,,,,,,,,,,,,,,,,,,,,,,,,,,,,4250.853999999992,,timeout,,,,,,,,,3,,,,,,,,I,O,S,,177447,177446.241,173195.387,173190.39999997616,173212.054,177462.908,,,
Judgement,html.Screen,1_3_3_1,2022-02-15T16:30:21.131Z,,,,,,,,,,,,,,,,,,,,,,,,,,,,true,3,,789.7919999284786,,response,,,,,,,,,3,,3,click #choice-3,,,,,I,O,S,,178254.29999995232,178252.69999992847,177446.241,177447.10000002384,177462.908,178277.804,,,
Trial,flow.Sequence,1_3_3,2022-02-15T16:30:21.131Z,,,,,,,,,,,,,,,,,,,,,,,,,,,,,,,5040.645999928471,,completion,,,,,,,,,3,,,,,,,,I,O,S,,178254.39999997616,178252.69999992847,173195.387,173190.29999995232,173212.054,178277.804,,,
Sounds,html.Screen,1_3_4_0,2022-02-15T16:30:25.391Z,,,,,,,,,,,,,,,,,,,,,,,,,,,,,,,4250.744999999995,,timeout,,,,,,,,,2,,,,,,,,I,S,O,,182513.79999995232,182511.882,178261.137,178254.60000002384,178277.804,182528.549,,,
Judgement,html.Screen,1_3_4_1,2022-02-15T16:30:26.531Z,,,,,,,,,,,,,,,,,,,,,,,,,,,,true,2,,1124.2509999523172,,response,,,,,,,,,2,,2,click #choice-2,,,,,I,S,O,,183654.10000002384,183652.79999995232,182511.882,182514,182528.549,183659.924,,,
Trial,flow.Sequence,1_3_4,2022-02-15T16:30:26.531Z,,,,,,,,,,,,,,,,,,,,,,,,,,,,,,,5374.995999952313,,completion,,,,,,,,,2,,,,,,,,I,S,O,,183654.29999995232,183652.79999995232,178261.137,178254.60000002384,178277.804,183659.924,,,
Sounds,html.Screen,1_3_5_0,2022-02-15T16:30:30.774Z,,,,,,,,,,,,,,,,,,,,,,,,,,,,,,,4251.988000000012,,timeout,,,,,,,,,3,,,,,,,,O,I,S,,187897.29999995232,187895.245,183643.257,183654.5,183659.924,187911.912,,,
Judgement,html.Screen,1_3_5_1,2022-02-15T16:30:31.347Z,,,,,,,,,,,,,,,,,,,,,,,,,,,,true,3,,556.7879999284633,,response,,,,,,,,,3,,3,click #choice-3,,,,,O,I,S,,188470.10000002384,188468.69999992847,187895.245,187897.39999997616,187911.912,188492.685,,,
Trial,flow.Sequence,1_3_5,2022-02-15T16:30:31.347Z,,,,,,,,,,,,,,,,,,,,,,,,,,,,,,,4808.775999928475,,completion,,,,,,,,,3,,,,,,,,O,I,S,,188470.39999997616,188468.69999992847,183643.257,183654.39999997616,183659.924,188492.685,,,
Task,flow.Loop,1_3,2022-02-15T16:30:31.356Z,,,,,,,,,,,,,,,,,,,,,,,,,,,,,,,46024.66399992848,,completion,,,0.8333333333333334,,,,,,,,,,,,,,,,,,188478.69999992847,188468.69999992847,142427.369,142421.79999995232,142444.036,188492.685,,,
Trap,html.Screen,1_4,2022-02-15T16:30:31.357Z,,,,,,,,,,,,,,,,,,,,,,,,,,,,,,,NaN,,skipped,,,,,,,,,,,,,,,,,,,,,188480.39999997616,188468.69999992847,,188480.10000002384,,188492.685,,,
Thanks,html.Screen,1_5,2022-02-15T16:30:57.339Z,,,,,,,,,,,,,,,,,,,,,,,,,,,,,,,25968.21499997616,,response,,,,,,,,,,,continue,click button,,,,,,,,,214462.10000002384,214460.89999997616,188476.018,188480.5,188492.685,600376.27,,,
Headphone screening,flow.Sequence,1,2022-02-15T16:30:57.339Z,,,,,,,,,,,,,,,,,,,,,,,,,,,,,,,167524.62599997615,,completion,,,,,,,,,,,,,,,,,,,,,214462.39999997616,214460.89999997616,45902.522,45995.699999928474,46936.274,600376.27,,,
Instructions,html.Page,2_0,2022-02-15T16:37:49.918Z,,,,,,,,,,,,,,,,,,,,,,,,,,,,,,,26665.12999997614,,form submission,,,,,,,,,,,,,,,,,,,,,627041.6999999285,627041.3999999762,600326.269,600438.2999999523,600376.27,627047.02,,,
Holding screen,html.Screen,2_1_0_0,2022-02-15T16:37:59.904Z,,,,,,,,,,,,,,,,,,,,,,,,,,,,,,,10078.733999999939,,timeout,,,,,,,,,,,,,,,,,,,,,637027.1999999285,637025.752,627013.686,627042.3999999762,627047.02,637125.754,,,
screen,html.Screen,2_1_0_1_0,2022-02-15T16:38:02.068Z,,,,,,,,,,,,,,,,,53,,,,,,,,,,,,,,2062.9459999285173,,response,,,,99,,,,,,,Space,keypress(Space),,,,,,,,When -- ----- -- ------ - ------- --- ----------<br>------------- ------ ------ ---- ---- ------- ----- -- ----<br>-------- ------- -- ---------- --- - --- ----- ----- ----<br>---- --- --- ----- --- ---- ---- ------- ----- ---- -------<br>--- --- -- ----- -- --- ---- -- --- ---- -- ------ ------<br>--- ----- -- ----,639192,639188.6999999285,637025.752,637027.5,637125.754,639195.562,,0,When
screen,html.Screen,2_1_0_1_1,2022-02-15T16:38:02.961Z,,,,,,,,,,,,,,,,,53,,,,,,,,,,,,,,888.7379999522818,,response,,,,99,,,,,,,Space,keypress(Space),,,,,,,,---- it ----- -- ------ - ------- --- ----------<br>------------- ------ ------ ---- ---- ------- ----- -- ----<br>-------- ------- -- ---------- --- - --- ----- ----- ----<br>---- --- --- ----- --- ---- ---- ------- ----- ---- -------<br>--- --- -- ----- -- --- ---- -- --- ---- -- ------ ------<br>--- ----- -- ----,640085.1000000238,640084.2999999523,639178.895,639192.1999999285,639195.562,640101.914,,1,it
screen,html.Screen,2_1_0_1_2,2022-02-15T16:38:03.794Z,,,,,,,,,,,,,,,,,53,,,,,,,,,,,,,,814.3859999523265,,response,,,,99,,,,,,,Space,keypress(Space),,,,,,,,---- -- comes -- ------ - ------- --- ----------<br>------------- ------ ------ ---- ---- ------- ----- -- ----<br>-------- ------- -- ---------- --- - --- ----- ----- ----<br>---- --- --- ----- --- ---- ---- ------- ----- ---- -------<br>--- --- -- ----- -- --- ---- -- --- ---- -- ------ ------<br>--- ----- -- ----,640917.2999999523,640916.2999999523,640085.247,640085.1999999285,640101.914,640921.658,,2,comes
screen,html.Screen,2_1_0_1_3,2022-02-15T16:38:04.497Z,,,,,,,,,,,,,,,,,53,,,,,,,,,,,,,,698.6419999522623,,response,,,,99,,,,,,,Space,keypress(Space),,,,,,,,---- -- ----- to ------ - ------- --- ----------<br>------------- ------ ------ ---- ---- ------- ----- -- ----<br>-------- ------- -- ---------- --- - --- ----- ----- ----<br>---- --- --- ----- --- ---- ---- ------- ----- ---- -------<br>--- --- -- ----- -- --- ---- -- --- ---- -- ------ ------<br>--- ----- -- ----,641621.1000000238,641620.2999999523,640904.991,640917.3999999762,640921.658,641624.155,,3,to
screen,html.Screen,2_1_0_1_4,2022-02-15T16:38:05.041Z,,,,,,,,,,,,,,,,,53,,,,,,,,,,,,,,540.1449999522883,,response,,,,99,,,,,,,Space,keypress(Space),,,,,,,,---- -- ----- -- having - ------- --- ----------<br>------------- ------ ------ ---- ---- ------- ----- -- ----<br>-------- ------- -- ---------- --- - --- ----- ----- ----<br>---- --- --- ----- --- ---- ---- ------- ----- ---- -------<br>--- --- -- ----- -- --- ---- -- --- ---- -- ------ ------<br>--- ----- -- ----,642165.1999999285,642164.2999999523,641607.488,641621.1999999285,641624.155,642176.084,,4,having
screen,html.Screen,2_1_0_1_5,2022-02-15T16:38:05.506Z,,,,,,,,,,,,,,,,,53,,,,,,,,,,,,,,452.5160000238102,,response,,,,99,,,,,,,Space,keypress(Space),,,,,,,,---- -- ----- -- ------ a ------- --- ----------<br>------------- ------ ------ ---- ---- ------- ----- -- ----<br>-------- ------- -- ---------- --- - --- ----- ----- ----<br>---- --- --- ----- --- ---- ---- ------- ----- ---- -------<br>--- --- -- ----- -- --- ---- -- --- ---- -- ------ ------<br>--- ----- -- ----,642629.3999999762,642628.6000000238,642159.417,642165.2999999523,642176.084,642644.642,,5,a
screen,html.Screen,2_1_0_1_6,2022-02-15T16:38:06.002Z,,,,,,,,,,,,,,,,,53,,,,,,,,,,,,,,479.7579999761656,,response,,,,99,,,,,,,Space,keypress(Space),,,,,,,,---- -- ----- -- ------ - lasting --- ----------<br>------------- ------ ------ ---- ---- ------- ----- -- ----<br>-------- ------- -- ---------- --- - --- ----- ----- ----<br>---- --- --- ----- --- ---- ---- ------- ----- ---- -------<br>--- --- -- ----- -- --- ---- -- --- ---- -- ------ ------<br>--- ----- -- ----,643125.2999999523,643124.3999999762,642627.975,642629.8999999762,642644.642,643129.495,,6,lasting
screen,html.Screen,2_1_0_1_7,2022-02-15T16:38:06.465Z,,,,,,,,,,,,,,,,,53,,,,,,,,,,,,,,458.80499995232094,,response,,,,99,,,,,,,Space,keypress(Space),,,,,,,,---- -- ----- -- ------ - ------- and ----------<br>------------- ------ ------ ---- ---- ------- ----- -- ----<br>-------- ------- -- ---------- --- - --- ----- ----- ----<br>---- --- --- ----- --- ---- ---- ------- ----- ---- -------<br>--- --- -- ----- -- --- ---- -- --- ---- -- ------ ------<br>--- ----- -- ----,643589.1000000238,643588.2999999523,643112.828,643125.3999999762,643129.495,643597.067,,7,and
screen,html.Screen,2_1_0_1_8,2022-02-15T16:38:06.978Z,,,,,,,,,,,,,,,,,53,,,,,,,,,,,,,,503.1329999284353,,response,,,,99,,,,,,,Space,keypress(Space),,,,,,,,---- -- ----- -- ------ - ------- --- fulfilling<br>------------- ------ ------ ---- ---- ------- ----- -- ----<br>-------- ------- -- ---------- --- - --- ----- ----- ----<br>---- --- --- ----- --- ---- ---- ------- ----- ---- -------<br>--- --- -- ----- -- --- ---- -- --- ---- -- ------ ------<br>--- ----- -- ----,644101.1000000238,644100.1999999285,643580.4,643589.2999999523,643597.067,644115.388,,8,fulfilling
screen,html.Screen,2_1_0_1_9,2022-02-15T16:38:07.538Z,,,,,,,,,,,,,,,,,53,,,,,,,,,,,,,,544.9119999522809,,response,,,,99,,,,,,,Space,keypress(Space),,,,,,,,"---- -- ----- -- ------ - ------- --- ----------<br>relationship, ------ ------ ---- ---- ------- ----- -- ----<br>-------- ------- -- ---------- --- - --- ----- ----- ----<br>---- --- --- ----- --- ---- ---- ------- ----- ---- -------<br>--- --- -- ----- -- --- ---- -- --- ---- -- ------ ------<br>--- ----- -- ----",644661.2999999523,644660.2999999523,644098.721,644101.2999999523,644115.388,644667.018,,9,"relationship,"
screen,html.Screen,2_1_0_1_10,2022-02-15T16:38:08.082Z,,,,,,,,,,,,,,,,,53,,,,,,,,,,,,,,537.5820000238018,,response,,,,99,,,,,,,Space,keypress(Space),,,,,,,,---- -- ----- -- ------ - ------- --- ----------<br>------------- common ------ ---- ---- ------- ----- -- ----<br>-------- ------- -- ---------- --- - --- ----- ----- ----<br>---- --- --- ----- --- ---- ---- ------- ----- ---- -------<br>--- --- -- ----- -- --- ---- -- --- ---- -- ------ ------<br>--- ----- -- ----,645205.6000000238,645204.6000000238,644650.351,644661.3999999762,644667.018,645218.746,,10,common
screen,html.Screen,2_1_0_1_11,2022-02-15T16:38:08.562Z,,,,,,,,,,,,,,,,,53,,,,,,,,,,,,,,465.6539999761153,,response,,,,99,,,,,,,Space,keypress(Space),,,,,,,,---- -- ----- -- ------ - ------- --- ----------<br>------------- ------ wisdom ---- ---- ------- ----- -- ----<br>-------- ------- -- ---------- --- - --- ----- ----- ----<br>---- --- --- ----- --- ---- ---- ------- ----- ---- -------<br>--- --- -- ----- -- --- ---- -- --- ---- -- ------ ------<br>--- ----- -- ----,645685.1000000238,645684.3999999762,645202.079,645205.6999999285,645218.746,645687.446,,11,wisdom
screen,html.Screen,2_1_0_1_12,2022-02-15T16:38:09.042Z,,,,,,,,,,,,,,,,,53,,,,,,,,,,,,,,476.85399995232,,response,,,,99,,,,,,,Space,keypress(Space),,,,,,,,---- -- ----- -- ------ - ------- --- ----------<br>------------- ------ ------ says ---- ------- ----- -- ----<br>-------- ------- -- ---------- --- - --- ----- ----- ----<br>---- --- --- ----- --- ---- ---- ------- ----- ---- -------<br>--- --- -- ----- -- --- ---- -- --- ---- -- ------ ------<br>--- ----- -- ----,646165.1999999285,646164.2999999523,645670.779,645685.2999999523,645687.446,646172.046,,12,says
screen,html.Screen,2_1_0_1_13,2022-02-15T16:38:09.506Z,,,,,,,,,,,,,,,,,53,,,,,,,,,,,,,,456.35399997618515,,response,,,,99,,,,,,,Space,keypress(Space),,,,,,,,---- -- ----- -- ------ - ------- --- ----------<br>------------- ------ ------ ---- that ------- ----- -- ----<br>-------- ------- -- ---------- --- - --- ----- ----- ----<br>---- --- --- ----- --- ---- ---- ------- ----- ---- -------<br>--- --- -- ----- -- --- ---- -- --- ---- -- ------ ------<br>--- ----- -- ----,646629.2999999523,646628.3999999762,646155.379,646165.1999999285,646172.046,646640.416,,13,that
screen,html.Screen,2_1_0_1_14,2022-02-15T16:38:10.042Z,,,,,,,,,,,,,,,,,53,,,,,,,,,,,,,,523.9839999761898,,response,,,,99,,,,,,,Space,keypress(Space),,,,,,,,---- -- ----- -- ------ - ------- --- ----------<br>------------- ------ ------ ---- ---- feeling ----- -- ----<br>-------- ------- -- ---------- --- - --- ----- ----- ----<br>---- --- --- ----- --- ---- ---- ------- ----- ---- -------<br>--- --- -- ----- -- --- ---- -- --- ---- -- ------ ------<br>--- ----- -- ----,647165.1999999285,647164.3999999762,646623.749,646629.3999999762,646640.416,647174.552,,14,feeling
screen,html.Screen,2_1_0_1_15,2022-02-15T16:38:10.433Z,,,,,,,,,,,,,,,,,53,,,,,,,,,,,,,,381.74799995229114,,response,,,,99,,,,,,,Space,keypress(Space),,,,,,,,---- -- ----- -- ------ - ------- --- ----------<br>------------- ------ ------ ---- ---- ------- close -- ----<br>-------- ------- -- ---------- --- - --- ----- ----- ----<br>---- --- --- ----- --- ---- ---- ------- ----- ---- -------<br>--- --- -- ----- -- --- ---- -- --- ---- -- ------ ------<br>--- ----- -- ----,647557.1000000238,647556.2999999523,647157.885,647165.2999999523,647174.552,647559.678,,15,close
screen,html.Screen,2_1_0_1_16,2022-02-15T16:38:10.865Z,,,,,,,,,,,,,,,,,53,,,,,,,,,,,,,,428.62199995236006,,response,,,,99,,,,,,,Space,keypress(Space),,,,,,,,---- -- ----- -- ------ - ------- --- ----------<br>------------- ------ ------ ---- ---- ------- ----- to ----<br>-------- ------- -- ---------- --- - --- ----- ----- ----<br>---- --- --- ----- --- ---- ---- ------- ----- ---- -------<br>--- --- -- ----- -- --- ---- -- --- ---- -- ------ ------<br>--- ----- -- ----,647989,647988.2999999523,647543.011,647557.2999999523,647559.678,647994.654,,16,to
screen,html.Screen,2_1_0_1_17,2022-02-15T16:38:11.706Z,,,,,,,,,,,,,,,,,53,,,,,,,,,,,,,,833.7459999761777,,response,,,,99,,,,,,,Space,keypress(Space),,,,,,,,---- -- ----- -- ------ - ------- --- ----------<br>------------- ------ ------ ---- ---- ------- ----- -- your<br>-------- ------- -- ---------- --- - --- ----- ----- ----<br>---- --- --- ----- --- ---- ---- ------- ----- ---- -------<br>--- --- -- ----- -- --- ---- -- --- ---- -- ------ ------<br>--- ----- -- ----,648829.5,648828.3999999762,647977.987,647989.1000000238,647994.654,648845.487,,17,your
screen,html.Screen,2_1_0_1_18,2022-02-15T16:38:12.338Z,,,,,,,,,,,,,,,,,53,,,,,,,,,,,,,,615.2129999285098,,response,,,,99,,,,,,,Space,keypress(Space),,,,,,,,---- -- ----- -- ------ - ------- --- ----------<br>------------- ------ ------ ---- ---- ------- ----- -- ----<br>romantic ------- -- ---------- --- - --- ----- ----- ----<br>---- --- --- ----- --- ---- ---- ------- ----- ---- -------<br>--- --- -- ----- -- --- ---- -- --- ---- -- ------ ------<br>--- ----- -- ----,649461.5,649460.6999999285,648828.82,648829.6000000238,648845.487,649464.686,,18,romantic
screen,html.Screen,2_1_0_1_19,2022-02-15T16:38:12.866Z,,,,,,,,,,,,,,,,,53,,,,,,,,,,,,,,523.7139999761712,,response,,,,99,,,,,,,Space,keypress(Space),,,,,,,,---- -- ----- -- ------ - ------- --- ----------<br>------------- ------ ------ ---- ---- ------- ----- -- ----<br>-------- partner -- ---------- --- - --- ----- ----- ----<br>---- --- --- ----- --- ---- ---- ------- ----- ---- -------<br>--- --- -- ----- -- --- ---- -- --- ---- -- ------ ------<br>--- ----- -- ----,649989.1999999285,649988.3999999762,649448.019,649461.6999999285,649464.686,650000.536,,19,partner
screen,html.Screen,2_1_0_1_20,2022-02-15T16:38:13.314Z,,,,,,,,,,,,,,,,,53,,,,,,,,,,,,,,435.86399997619446,,response,,,,99,,,,,,,Space,keypress(Space),,,,,,,,---- -- ----- -- ------ - ------- --- ----------<br>------------- ------ ------ ---- ---- ------- ----- -- ----<br>-------- ------- is ---------- --- - --- ----- ----- ----<br>---- --- --- ----- --- ---- ---- ------- ----- ---- -------<br>--- --- -- ----- -- --- ---- -- --- ---- -- ------ ------<br>--- ----- -- ----,650437.5,650436.3999999762,649983.869,649989.2999999523,650000.536,650452.135,,20,is
screen,html.Screen,2_1_0_1_21,2022-02-15T16:38:13.994Z,,,,,,,,,,,,,,,,,53,,,,,,,,,,,,,,664.2649999761488,,response,,,,99,,,,,,,Space,keypress(Space),,,,,,,,---- -- ----- -- ------ - ------- --- ----------<br>------------- ------ ------ ---- ---- ------- ----- -- ----<br>-------- ------- -- paramount. --- - --- ----- ----- ----<br>---- --- --- ----- --- ---- ---- ------- ----- ---- -------<br>--- --- -- ----- -- --- ---- -- --- ---- -- ------ ------<br>--- ----- -- ----,651117.1999999285,651116.3999999762,650435.468,650437.6999999285,650452.135,651120.279,,21,paramount.
screen,html.Screen,2_1_0_1_22,2022-02-15T16:38:14.906Z,,,,,,,,,,,,,,,,,53,,,,,,,,,,,,,,908.1209999761777,,response,,,,99,,,,,,,Space,keypress(Space),,,,,,,,---- -- ----- -- ------ - ------- --- ----------<br>------------- ------ ------ ---- ---- ------- ----- -- ----<br>-------- ------- -- ---------- But - --- ----- ----- ----<br>---- --- --- ----- --- ---- ---- ------- ----- ---- -------<br>--- --- -- ----- -- --- ---- -- --- ---- -- ------ ------<br>--- ----- -- ----,652029.5,652028.3999999762,651103.612,651117.2999999523,651120.279,652038.824,,22,But
screen,html.Screen,2_1_0_1_23,2022-02-15T16:38:15.369Z,,,,,,,,,,,,,,,,,53,,,,,,,,,,,,,,453.47599995229393,,response,,,,99,,,,,,,Space,keypress(Space),,,,,,,,---- -- ----- -- ------ - ------- --- ----------<br>------------- ------ ------ ---- ---- ------- ----- -- ----<br>-------- ------- -- ---------- --- a --- ----- ----- ----<br>---- --- --- ----- --- ---- ---- ------- ----- ---- -------<br>--- --- -- ----- -- --- ---- -- --- ---- -- ------ ------<br>--- ----- -- ----,652493.1000000238,652492.2999999523,652022.157,652029.6000000238,652038.824,652507.964,,23,a
screen,html.Screen,2_1_0_1_24,2022-02-15T16:38:15.913Z,,,,,,,,,,,,,,,,,53,,,,,,,,,,,,,,528.33599995228,,response,,,,99,,,,,,,Space,keypress(Space),,,,,,,,---- -- ----- -- ------ - ------- --- ----------<br>------------- ------ ------ ---- ---- ------- ----- -- ----<br>-------- ------- -- ---------- --- - new ----- ----- ----<br>---- --- --- ----- --- ---- ---- ------- ----- ---- -------<br>--- --- -- ----- -- --- ---- -- --- ---- -- ------ ------<br>--- ----- -- ----,653037,653036.2999999523,652491.297,652493.1999999285,652507.964,653042.908,,24,new
screen,html.Screen,2_1_0_1_25,2022-02-15T16:38:16.402Z,,,,,,,,,,,,,,,,,53,,,,,,,,,,,,,,481.4919999761041,,response,,,,99,,,,,,,Space,keypress(Space),,,,,,,,---- -- ----- -- ------ - ------- --- ----------<br>------------- ------ ------ ---- ---- ------- ----- -- ----<br>-------- ------- -- ---------- --- - --- study ----- ----<br>---- --- --- ----- --- ---- ---- ------- ----- ---- -------<br>--- --- -- ----- -- --- ---- -- --- ---- -- ------ ------<br>--- ----- -- ----,653525.1999999285,653524.3999999762,653026.241,653037.1999999285,653042.908,653527.944,,25,study
screen,html.Screen,2_1_0_1_26,2022-02-15T16:38:16.834Z,,,,,,,,,,,,,,,,,53,,,,,,,,,,,,,,428.3559999522986,,response,,,,99,,,,,,,Space,keypress(Space),,,,,,,,---- -- ----- -- ------ - ------- --- ----------<br>------------- ------ ------ ---- ---- ------- ----- -- ----<br>-------- ------- -- ---------- --- - --- ----- finds ----<br>---- --- --- ----- --- ---- ---- ------- ----- ---- -------<br>--- --- -- ----- -- --- ---- -- --- ---- -- ------ ------<br>--- ----- -- ----,653957.6999999285,653956.2999999523,653511.277,653525.2999999523,653527.944,653962.929,,26,finds
screen,html.Screen,2_1_0_1_27,2022-02-15T16:38:17.313Z,,,,,,,,,,,,,,,,,53,,,,,,,,,,,,,,473.37099995231256,,response,,,,99,,,,,,,Space,keypress(Space),,,,,,,,---- -- ----- -- ------ - ------- --- ----------<br>------------- ------ ------ ---- ---- ------- ----- -- ----<br>-------- ------- -- ---------- --- - --- ----- ----- that<br>---- --- --- ----- --- ---- ---- ------- ----- ---- -------<br>--- --- -- ----- -- --- ---- -- --- ---- -- ------ ------<br>--- ----- -- ----,654437.1000000238,654436.2999999523,653946.262,653958,653962.929,654447.846,,27,that
screen,html.Screen,2_1_0_1_28,2022-02-15T16:38:17.770Z,,,,,,,,,,,,,,,,,53,,,,,,,,,,,,,,444.4539999522967,,response,,,,99,,,,,,,Space,keypress(Space),,,,,,,,---- -- ----- -- ------ - ------- --- ----------<br>------------- ------ ------ ---- ---- ------- ----- -- ----<br>-------- ------- -- ---------- --- - --- ----- ----- ----<br>it's --- --- ----- --- ---- ---- ------- ----- ---- -------<br>--- --- -- ----- -- --- ---- -- --- ---- -- ------ ------<br>--- ----- -- ----,654893.1000000238,654892.2999999523,654431.179,654437.1999999285,654447.846,654899.105,,28,it's
screen,html.Screen,2_1_0_1_29,2022-02-15T16:38:18.194Z,,,,,,,,,,,,,,,,,53,,,,,,,,,,,,,,417.09499992849305,,response,,,,99,,,,,,,Space,keypress(Space),,,,,,,,---- -- ----- -- ------ - ------- --- ----------<br>------------- ------ ------ ---- ---- ------- ----- -- ----<br>-------- ------- -- ---------- --- - --- ----- ----- ----<br>---- not --- ----- --- ---- ---- ------- ----- ---- -------<br>--- --- -- ----- -- --- ---- -- --- ---- -- ------ ------<br>--- ----- -- ----,655317.5,655316.1999999285,654882.438,654893.2999999523,654899.105,655333.838,,29,not
screen,html.Screen,2_1_0_1_30,2022-02-15T16:38:18.593Z,,,,,,,,,,,,,,,,,53,,,,,,,,,,,,,,382.46199995232746,,response,,,,99,,,,,,,Space,keypress(Space),,,,,,,,---- -- ----- -- ------ - ------- --- ----------<br>------------- ------ ------ ---- ---- ------- ----- -- ----<br>-------- ------- -- ---------- --- - --- ----- ----- ----<br>---- --- how ----- --- ---- ---- ------- ----- ---- -------<br>--- --- -- ----- -- --- ---- -- --- ---- -- ------ ------<br>--- ----- -- ----,655717.1000000238,655716.2999999523,655317.171,655317.6999999285,655333.838,655718.697,,30,how
screen,html.Screen,2_1_0_1_31,2022-02-15T16:38:19.018Z,,,,,,,,,,,,,,,,,53,,,,,,,,,,,,,,421.8029999999562,,response,,,,99,,,,,,,Space,keypress(Space),,,,,,,,---- -- ----- -- ------ - ------- --- ----------<br>------------- ------ ------ ---- ---- ------- ----- -- ----<br>-------- ------- -- ---------- --- - --- ----- ----- ----<br>---- --- --- close --- ---- ---- ------- ----- ---- -------<br>--- --- -- ----- -- --- ---- -- --- ---- -- ------ ------<br>--- ----- -- ----,656141.6000000238,656140.5,655702.03,655717.1999999285,655718.697,656152.961,,31,close
screen,html.Screen,2_1_0_1_32,2022-02-15T16:38:19.393Z,,,,,,,,,,,,,,,,,53,,,,,,,,,,,,,,363.2389999284642,,response,,,,99,,,,,,,Space,keypress(Space),,,,,,,,---- -- ----- -- ------ - ------- --- ----------<br>------------- ------ ------ ---- ---- ------- ----- -- ----<br>-------- ------- -- ---------- --- - --- ----- ----- ----<br>---- --- --- ----- you ---- ---- ------- ----- ---- -------<br>--- --- -- ----- -- --- ---- -- --- ---- -- ------ ------<br>--- ----- -- ----,656517.1000000238,656516.1999999285,656136.294,656141.6999999285,656152.961,656521.228,,32,you
screen,html.Screen,2_1_0_1_33,2022-02-15T16:38:19.793Z,,,,,,,,,,,,,,,,,53,,,,,,,,,,,,,,395.0719999523135,,response,,,,99,,,,,,,Space,keypress(Space),,,,,,,,---- -- ----- -- ------ - ------- --- ----------<br>------------- ------ ------ ---- ---- ------- ----- -- ----<br>-------- ------- -- ---------- --- - --- ----- ----- ----<br>---- --- --- ----- --- feel ---- ------- ----- ---- -------<br>--- --- -- ----- -- --- ---- -- --- ---- -- ------ ------<br>--- ----- -- ----,656917.1000000238,656916.2999999523,656504.561,656517.1999999285,656521.228,656922.161,,33,feel
screen,html.Screen,2_1_0_1_34,2022-02-15T16:38:20.298Z,,,,,,,,,,,,,,,,,53,,,,,,,,,,,,,,498.03899992851075,,response,,,,99,,,,,,,Space,keypress(Space),,,,,,,,---- -- ----- -- ------ - ------- --- ----------<br>------------- ------ ------ ---- ---- ------- ----- -- ----<br>-------- ------- -- ---------- --- - --- ----- ----- ----<br>---- --- --- ----- --- ---- that ------- ----- ---- -------<br>--- --- -- ----- -- --- ---- -- --- ---- -- ------ ------<br>--- ----- -- ----,657421.1999999285,657420.1999999285,656905.494,656917.1999999285,656922.161,657423.663,,34,that
screen,html.Screen,2_1_0_1_35,2022-02-15T16:38:20.794Z,,,,,,,,,,,,,,,,,53,,,,,,,,,,,,,,492.636999952374,,response,,,,99,,,,,,,Space,keypress(Space),,,,,,,,---- -- ----- -- ------ - ------- --- ----------<br>------------- ------ ------ ---- ---- ------- ----- -- ----<br>-------- ------- -- ---------- --- - --- ----- ----- ----<br>---- --- --- ----- --- ---- ---- matters ----- ---- -------<br>--- --- -- ----- -- --- ---- -- --- ---- -- ------ ------<br>--- ----- -- ----,657917.3999999762,657916.2999999523,657406.996,657421.2999999523,657423.663,657925.198,,35,matters
screen,html.Screen,2_1_0_1_36,2022-02-15T16:38:21.218Z,,,,,,,,,,,,,,,,,53,,,,,,,,,,,,,,415.0019999284996,,response,,,,99,,,,,,,Space,keypress(Space),,,,,,,,"---- -- ----- -- ------ - ------- --- ----------<br>------------- ------ ------ ---- ---- ------- ----- -- ----<br>-------- ------- -- ---------- --- - --- ----- ----- ----<br>---- --- --- ----- --- ---- ---- ------- most, ---- -------<br>--- --- -- ----- -- --- ---- -- --- ---- -- ------ ------<br>--- ----- -- ----",658341.3999999762,658340.1999999285,657908.531,657917.6000000238,657925.198,658343.028,,36,"most,"
screen,html.Screen,2_1_0_1_37,2022-02-15T16:38:21.665Z,,,,,,,,,,,,,,,,,53,,,,,,,,,,,,,,445.2719999522669,,response,,,,99,,,,,,,Space,keypress(Space),,,,,,,,---- -- ----- -- ------ - ------- --- ----------<br>------------- ------ ------ ---- ---- ------- ----- -- ----<br>-------- ------- -- ---------- --- - --- ----- ----- ----<br>---- --- --- ----- --- ---- ---- ------- ----- it's -------<br>--- --- -- ----- -- --- ---- -- --- ---- -- ------ ------<br>--- ----- -- ----,658789,658788.2999999523,658326.361,658341.5,658343.028,658794.649,,37,it's
screen,html.Screen,2_1_0_1_38,2022-02-15T16:38:22.153Z,,,,,,,,,,,,,,,,,53,,,,,,,,,,,,,,481.55099992849864,,response,,,,99,,,,,,,Space,keypress(Space),,,,,,,,---- -- ----- -- ------ - ------- --- ----------<br>------------- ------ ------ ---- ---- ------- ----- -- ----<br>-------- ------- -- ---------- --- - --- ----- ----- ----<br>---- --- --- ----- --- ---- ---- ------- ----- ---- whether<br>--- --- -- ----- -- --- ---- -- --- ---- -- ------ ------<br>--- ----- -- ----,659277,659276.1999999285,658777.982,658789.1000000238,658794.649,659278.891,,38,whether
screen,html.Screen,2_1_0_1_39,2022-02-15T16:38:22.618Z,,,,,,,,,,,,,,,,,53,,,,,,,,,,,,,,462.0089999762131,,response,,,,99,,,,,,,Space,keypress(Space),,,,,,,,---- -- ----- -- ------ - ------- --- ----------<br>------------- ------ ------ ---- ---- ------- ----- -- ----<br>-------- ------- -- ---------- --- - --- ----- ----- ----<br>---- --- --- ----- --- ---- ---- ------- ----- ---- -------<br>you --- -- ----- -- --- ---- -- --- ---- -- ------ ------<br>--- ----- -- ----,659741.6999999285,659740.8999999762,659262.224,659277.1999999285,659278.891,659747.214,,39,you
screen,html.Screen,2_1_0_1_40,2022-02-15T16:38:23.049Z,,,,,,,,,,,,,,,,,53,,,,,,,,,,,,,,425.08599995227996,,response,,,,99,,,,,,,Space,keypress(Space),,,,,,,,---- -- ----- -- ------ - ------- --- ----------<br>------------- ------ ------ ---- ---- ------- ----- -- ----<br>-------- ------- -- ---------- --- - --- ----- ----- ----<br>---- --- --- ----- --- ---- ---- ------- ----- ---- -------<br>--- are -- ----- -- --- ---- -- --- ---- -- ------ ------<br>--- ----- -- ----,660173.1000000238,660172.2999999523,659730.547,659741.7999999523,659747.214,660182.189,,40,are
screen,html.Screen,2_1_0_1_41,2022-02-15T16:38:23.522Z,,,,,,,,,,,,,,,,,53,,,,,,,,,,,,,,462.2109999761451,,response,,,,99,,,,,,,Space,keypress(Space),,,,,,,,---- -- ----- -- ------ - ------- --- ----------<br>------------- ------ ------ ---- ---- ------- ----- -- ----<br>-------- ------- -- ---------- --- - --- ----- ----- ----<br>---- --- --- ----- --- ---- ---- ------- ----- ---- -------<br>--- --- as ----- -- --- ---- -- --- ---- -- ------ ------<br>--- ----- -- ----,660645.5,660644.3999999762,660165.522,660173.1999999285,660182.189,660649.691,,41,as
screen,html.Screen,2_1_0_1_42,2022-02-15T16:38:24.057Z,,,,,,,,,,,,,,,,,53,,,,,,,,,,,,,,530.5089999284828,,response,,,,99,,,,,,,Space,keypress(Space),,,,,,,,---- -- ----- -- ------ - ------- --- ----------<br>------------- ------ ------ ---- ---- ------- ----- -- ----<br>-------- ------- -- ---------- --- - --- ----- ----- ----<br>---- --- --- ----- --- ---- ---- ------- ----- ---- -------<br>--- --- -- close -- --- ---- -- --- ---- -- ------ ------<br>--- ----- -- ----,661181.1000000238,661180.1999999285,660633.024,660645.6999999285,660649.691,661184.729,,42,close
screen,html.Screen,2_1_0_1_43,2022-02-15T16:38:24.977Z,,,,,,,,,,,,,,,,,53,,,,,,,,,,,,,,915.570999952266,,response,,,,99,,,,,,,Space,keypress(Space),,,,,,,,---- -- ----- -- ------ - ------- --- ----------<br>------------- ------ ------ ---- ---- ------- ----- -- ----<br>-------- ------- -- ---------- --- - --- ----- ----- ----<br>---- --- --- ----- --- ---- ---- ------- ----- ---- -------<br>--- --- -- ----- as --- ---- -- --- ---- -- ------ ------<br>--- ----- -- ----,662101.1000000238,662100.2999999523,661168.062,661181.1999999285,661184.729,662103.117,,43,as
screen,html.Screen,2_1_0_1_44,2022-02-15T16:38:25.378Z,,,,,,,,,,,,,,,,,53,,,,,,,,,,,,,,397.2829999761889,,response,,,,99,,,,,,,Space,keypress(Space),,,,,,,,---- -- ----- -- ------ - ------- --- ----------<br>------------- ------ ------ ---- ---- ------- ----- -- ----<br>-------- ------- -- ---------- --- - --- ----- ----- ----<br>---- --- --- ----- --- ---- ---- ------- ----- ---- -------<br>--- --- -- ----- -- you ---- -- --- ---- -- ------ ------<br>--- ----- -- ----,662501.6000000238,662500.3999999762,662086.45,662101.1999999285,662103.117,662506.332,,44,you
screen,html.Screen,2_1_0_1_45,2022-02-15T16:38:25.794Z,,,,,,,,,,,,,,,,,53,,,,,,,,,,,,,,410.2680000237888,,response,,,,99,,,,,,,Space,keypress(Space),,,,,,,,---- -- ----- -- ------ - ------- --- ----------<br>------------- ------ ------ ---- ---- ------- ----- -- ----<br>-------- ------- -- ---------- --- - --- ----- ----- ----<br>---- --- --- ----- --- ---- ---- ------- ----- ---- -------<br>--- --- -- ----- -- --- want -- --- ---- -- ------ ------<br>--- ----- -- ----,662918,662916.6000000238,662489.665,662501.6999999285,662506.332,662924.242,,45,want
screen,html.Screen,2_1_0_1_46,2022-02-15T16:38:26.217Z,,,,,,,,,,,,,,,,,53,,,,,,,,,,,,,,416.057999952347,,response,,,,99,,,,,,,Space,keypress(Space),,,,,,,,---- -- ----- -- ------ - ------- --- ----------<br>------------- ------ ------ ---- ---- ------- ----- -- ----<br>-------- ------- -- ---------- --- - --- ----- ----- ----<br>---- --- --- ----- --- ---- ---- ------- ----- ---- -------<br>--- --- -- ----- -- --- ---- to --- ---- -- ------ ------<br>--- ----- -- ----,663341.1999999285,663340.2999999523,662907.575,662918.1000000238,662924.242,663342.193,,46,to
screen,html.Screen,2_1_0_1_47,2022-02-15T16:38:26.666Z,,,,,,,,,,,,,,,,,53,,,,,,,,,,,,,,446.1069999523461,,response,,,,99,,,,,,,Space,keypress(Space),,,,,,,,"---- -- ----- -- ------ - ------- --- ----------<br>------------- ------ ------ ---- ---- ------- ----- -- ----<br>-------- ------- -- ---------- --- - --- ----- ----- ----<br>---- --- --- ----- --- ---- ---- ------- ----- ---- -------<br>--- --- -- ----- -- --- ---- -- be, ---- -- ------ ------<br>--- ----- -- ----",663789.5,663788.2999999523,663325.526,663341.1999999285,663342.193,663793.146,,47,"be,"
screen,html.Screen,2_1_0_1_48,2022-02-15T16:38:28.562Z,,,,,,,,,,,,,,,,,53,,,,,,,,,,,,,,1891.2539999762084,,response,,,,99,,,,,,,Space,keypress(Space),,,,,,,,---- -- ----- -- ------ - ------- --- ----------<br>------------- ------ ------ ---- ---- ------- ----- -- ----<br>-------- ------- -- ---------- --- - --- ----- ----- ----<br>---- --- --- ----- --- ---- ---- ------- ----- ---- -------<br>--- --- -- ----- -- --- ---- -- --- even -- ------ ------<br>--- ----- -- ----,665685.1999999285,665684.3999999762,663776.479,663789.6000000238,663793.146,665694.825,,48,even
screen,html.Screen,2_1_0_1_49,2022-02-15T16:38:28.889Z,,,,,,,,,,,,,,,,,53,,,,,,,,,,,,,,317.47499995236285,,response,,,,99,,,,,,,Space,keypress(Space),,,,,,,,---- -- ----- -- ------ - ------- --- ----------<br>------------- ------ ------ ---- ---- ------- ----- -- ----<br>-------- ------- -- ---------- --- - --- ----- ----- ----<br>---- --- --- ----- --- ---- ---- ------- ----- ---- -------<br>--- --- -- ----- -- --- ---- -- --- ---- if ------ ------<br>--- ----- -- ----,666013.1000000238,666012.2999999523,665678.158,665685.2999999523,665694.825,666017.344,,49,if
screen,html.Screen,2_1_0_1_50,2022-02-15T16:38:29.241Z,,,,,,,,,,,,,,,,,53,,,,,,,,,,,,,,346.9559999522753,,response,,,,99,,,,,,,Space,keypress(Space),,,,,,,,---- -- ----- -- ------ - ------- --- ----------<br>------------- ------ ------ ---- ---- ------- ----- -- ----<br>-------- ------- -- ---------- --- - --- ----- ----- ----<br>---- --- --- ----- --- ---- ---- ------- ----- ---- -------<br>--- --- -- ----- -- --- ---- -- --- ---- -- that's ------<br>--- ----- -- ----,666365.1000000238,666364.2999999523,666000.677,666013.1999999285,666017.344,666368.234,,50,that's
screen,html.Screen,2_1_0_1_51,2022-02-15T16:38:29.457Z,,,,,,,,,,,,,,,,,53,,,,,,,,,,,,,,212.1659999761032,,response,,,,99,,,,,,,Space,keypress(Space),,,,,,,,---- -- ----- -- ------ - ------- --- ----------<br>------------- ------ ------ ---- ---- ------- ----- -- ----<br>-------- ------- -- ---------- --- - --- ----- ----- ----<br>---- --- --- ----- --- ---- ---- ------- ----- ---- -------<br>--- --- -- ----- -- --- ---- -- --- ---- -- ------ really<br>--- ----- -- ----,666581.1000000238,666580.3999999762,666351.567,666365.1999999285,666368.234,666585.69,,51,really
screen,html.Screen,2_1_0_1_52,2022-02-15T16:38:30.017Z,,,,,,,,,,,,,,,,,53,,,,,,,,,,,,,,554.5099999285303,,response,,,,99,,,,,,,Space,keypress(Space),,,,,,,,---- -- ----- -- ------ - ------- --- ----------<br>------------- ------ ------ ---- ---- ------- ----- -- ----<br>-------- ------- -- ---------- --- - --- ----- ----- ----<br>---- --- --- ----- --- ---- ---- ------- ----- ---- -------<br>--- --- -- ----- -- --- ---- -- --- ---- -- ------ ------<br>not ----- -- ----,667141.1000000238,667140.1999999285,666569.023,666581.1999999285,666585.69,667153.51,,52,not
screen,html.Screen,2_1_0_1_53,2022-02-15T16:38:30.265Z,,,,,,,,,,,,,,,,,53,,,,,,,,,,,,,,234.78999995230697,,response,,,,99,,,,,,,Space,keypress(Space),,,,,,,,---- -- ----- -- ------ - ------- --- ----------<br>------------- ------ ------ ---- ---- ------- ----- -- ----<br>-------- ------- -- ---------- --- - --- ----- ----- ----<br>---- --- --- ----- --- ---- ---- ------- ----- ---- -------<br>--- --- -- ----- -- --- ---- -- --- ---- -- ------ ------<br>--- close -- ----,667389.1999999285,667388.2999999523,667136.843,667141.1999999285,667153.51,667404.913,,53,close
screen,html.Screen,2_1_0_1_54,2022-02-15T16:38:30.578Z,,,,,,,,,,,,,,,,,53,,,,,,,,,,,,,,295.58700000005774,,response,,,,99,,,,,,,Space,keypress(Space),,,,,,,,---- -- ----- -- ------ - ------- --- ----------<br>------------- ------ ------ ---- ---- ------- ----- -- ----<br>-------- ------- -- ---------- --- - --- ----- ----- ----<br>---- --- --- ----- --- ---- ---- ------- ----- ---- -------<br>--- --- -- ----- -- --- ---- -- --- ---- -- ------ ------<br>--- ----- at ----,667701.1999999285,667700.5,667388.246,667389.2999999523,667404.913,667705.793,,54,at
screen,html.Screen,2_1_0_1_55,2022-02-15T16:38:31.042Z,,,,,,,,,,,,,,,,,53,,,,,,,,,,,,,,458.6069999762112,,response,,,,99,,,,,,,Space,keypress(Space),,,,,,,,---- -- ----- -- ------ - ------- --- ----------<br>------------- ------ ------ ---- ---- ------- ----- -- ----<br>-------- ------- -- ---------- --- - --- ----- ----- ----<br>---- --- --- ----- --- ---- ---- ------- ----- ---- -------<br>--- --- -- ----- -- --- ---- -- --- ---- -- ------ ------<br>--- ----- -- all.,668165.1999999285,668164.3999999762,667689.126,667701.5,667705.793,668173.392,,55,all.
Item 99,flow.Loop,2_1_0_1,2022-02-15T16:38:31.042Z,,,,,,,,,,,,,,,,,,,,,,,,,,,,,,,31038.6459999762,,completion,,,,,B,,,,,,,,,,,silence,,,,,668165.5,668164.3999999762,637025.752,637027.3999999762,637125.754,668173.392,,,
Question 1,html.Screen,2_1_0_2,2022-02-15T16:38:45.754Z,,,,,,,,,,,,,,,,,,,,,,,,,,,,true,FALSE,,14702.807999928482,,response,,,,99,B,,,,,,FALSE,click #choice-2,,,,silence,,,,,682877.3999999762,682876.1999999285,668156.725,668165.6000000238,668173.392,682903.329,,,
Question 2,html.Screen,2_1_0_3,2022-02-15T16:38:52.233Z,,,,,,,,,,,,,,,,,,,,,,,,,,,,true,TRUE,,6452.771000023815,,response,,,,99,B,,,,,,TRUE,click #choice-1,,,,silence,,,,,689357.1000000238,689356.1000000238,682886.662,682877.6999999285,682903.329,689372.567,,,
Item 99,flow.Sequence,2_1_0,2022-02-15T16:38:52.234Z,,,,,,,,,,,,,,,,,,,,,,,,,,,,,,,62309.08000002382,,completion,,,,,,,,,,,,,,,,,,,,,689357.7999999523,689356.1000000238,627013.686,627042.3999999762,627047.02,689372.567,,,
Holding screen,html.Screen,2_1_1_0,2022-02-15T16:39:02.230Z,,,,,,,,,,,,,,,,,,,,,,,,,,,,,,,9995.380999999936,,timeout,,,,,,,,,,,,,,,,,,,,,699353.3999999762,699351.281,689355.9,689358,689372.567,699367.948,,,
screen,html.Screen,2_1_1_1_0,2022-02-15T16:41:09.586Z,,,,,,,,,,,,,,,,,54,,,,,,,,,,,,,,127340.65200002387,,response,,,,100,,,,,,,Space,keypress(Space),,,,,,,,At --- ---- --- ------ ----- ------- ---- -- --- ------- --<br>------- ---------- ------ -- ----- -- ----- -- ---- ------<br>--- ----- --- --- ------ -------- ----- --- ------ ----- --<br>----- ----- ---------- --- --- ------ ------ ---- -- ------<br>------- --- ------ ----- --- ---- ------- -- ---- --- --<br>------- ------,826709.5,826708.6000000238,699351.281,699353.6000000238,699367.948,826723.765,,0,At
screen,html.Screen,2_1_1_1_1,2022-02-15T16:41:10.074Z,,,,,,,,,,,,,,,,,54,,,,,,,,,,,,,,472.3350000238279,,response,,,,100,,,,,,,Space,keypress(Space),,,,,,,,-- the ---- --- ------ ----- ------- ---- -- --- ------- --<br>------- ---------- ------ -- ----- -- ----- -- ---- ------<br>--- ----- --- --- ------ -------- ----- --- ------ ----- --<br>----- ----- ---------- --- --- ------ ------ ---- -- ------<br>------- --- ------ ----- --- ---- ------- -- ---- --- --<br>------- ------,827196.8999999762,827196.1000000238,826707.098,826709.6999999285,826723.765,827197.734,,1,the
screen,html.Screen,2_1_1_1_2,2022-02-15T16:41:10.498Z,,,,,,,,,,,,,,,,,54,,,,,,,,,,,,,,422.3660000237869,,response,,,,100,,,,,,,Space,keypress(Space),,,,,,,,-- --- time --- ------ ----- ------- ---- -- --- ------- --<br>------- ---------- ------ -- ----- -- ----- -- ---- ------<br>--- ----- --- --- ------ -------- ----- --- ------ ----- --<br>----- ----- ---------- --- --- ------ ------ ---- -- ------<br>------- --- ------ ----- --- ---- ------- -- ---- --- --<br>------- ------,827621,827620.1000000238,827181.067,827197.1000000238,827197.734,827632.697,,2,time
screen,html.Screen,2_1_1_1_3,2022-02-15T16:41:10.922Z,,,,,,,,,,,,,,,,,54,,,,,,,,,,,,,,411.50299992843065,,response,,,,100,,,,,,,Space,keypress(Space),,,,,,,,-- --- ---- the ------ ----- ------- ---- -- --- ------- --<br>------- ---------- ------ -- ----- -- ----- -- ---- ------<br>--- ----- --- --- ------ -------- ----- --- ------ ----- --<br>----- ----- ---------- --- --- ------ ------ ---- -- ------<br>------- --- ------ ----- --- ---- ------- -- ---- --- --<br>------- ------,828044.8999999762,828044.1999999285,827616.03,827621.1999999285,827632.697,828050.125,,3,the
screen,html.Screen,2_1_1_1_4,2022-02-15T16:41:11.330Z,,,,,,,,,,,,,,,,,54,,,,,,,,,,,,,,402.0749999284744,,response,,,,100,,,,,,,Space,keypress(Space),,,,,,,,-- --- ---- --- French ----- ------- ---- -- --- ------- --<br>------- ---------- ------ -- ----- -- ----- -- ---- ------<br>--- ----- --- --- ------ -------- ----- --- ------ ----- --<br>----- ----- ---------- --- --- ------ ------ ---- -- ------<br>------- --- ------ ----- --- ---- ------- -- ---- --- --<br>------- ------,828453,828452.1999999285,828033.458,828045,828050.125,828468.445,,4,French
screen,html.Screen,2_1_1_1_5,2022-02-15T16:41:11.762Z,,,,,,,,,,,,,,,,,54,,,,,,,,,,,,,,415.8549999523675,,response,,,,100,,,,,,,Space,keypress(Space),,,,,,,,-- --- ---- --- ------ crown ------- ---- -- --- ------- --<br>------- ---------- ------ -- ----- -- ----- -- ---- ------<br>--- ----- --- --- ------ -------- ----- --- ------ ----- --<br>----- ----- ---------- --- --- ------ ------ ---- -- ------<br>------- --- ------ ----- --- ---- ------- -- ---- --- --<br>------- ------,828885.1999999285,828884.2999999523,828451.778,828453.1000000238,828468.445,828886.725,,5,crown
screen,html.Screen,2_1_1_1_6,2022-02-15T16:41:12.186Z,,,,,,,,,,,,,,,,,54,,,,,,,,,,,,,,421.57499995233957,,response,,,,100,,,,,,,Space,keypress(Space),,,,,,,,-- --- ---- --- ------ ----- secured ---- -- --- ------- --<br>------- ---------- ------ -- ----- -- ----- -- ---- ------<br>--- ----- --- --- ------ -------- ----- --- ------ ----- --<br>----- ----- ---------- --- --- ------ ------ ---- -- ------<br>------- --- ------ ----- --- ---- ------- -- ---- --- --<br>------- ------,829309.1000000238,829308.2999999523,828870.058,828885.2999999523,828886.725,829320.812,,6,secured
screen,html.Screen,2_1_1_1_7,2022-02-15T16:41:12.626Z,,,,,,,,,,,,,,,,,54,,,,,,,,,,,,,,427.38799992843997,,response,,,,100,,,,,,,Space,keypress(Space),,,,,,,,-- --- ---- --- ------ ----- ------- much -- --- ------- --<br>------- ---------- ------ -- ----- -- ----- -- ---- ------<br>--- ----- --- --- ------ -------- ----- --- ------ ----- --<br>----- ----- ---------- --- --- ------ ------ ---- -- ------<br>------- --- ------ ----- --- ---- ------- -- ---- --- --<br>------- ------,829749,829748.1999999285,829304.145,829309.1999999285,829320.812,829772.413,,7,much
screen,html.Screen,2_1_1_1_8,2022-02-15T16:41:13.018Z,,,,,,,,,,,,,,,,,54,,,,,,,,,,,,,,367.78699992853217,,response,,,,100,,,,,,,Space,keypress(Space),,,,,,,,-- --- ---- --- ------ ----- ------- ---- of --- ------- --<br>------- ---------- ------ -- ----- -- ----- -- ---- ------<br>--- ----- --- --- ------ -------- ----- --- ------ ----- --<br>----- ----- ---------- --- --- ------ ------ ---- -- ------<br>------- --- ------ ----- --- ---- ------- -- ---- --- --<br>------- ------,830141,830140.1999999285,829755.746,829749.1999999285,829772.413,830157.368,,8,of
screen,html.Screen,2_1_1_1_9,2022-02-15T16:41:13.354Z,,,,,,,,,,,,,,,,,54,,,,,,,,,,,,,,318.83199992845766,,response,,,,100,,,,,,,Space,keypress(Space),,,,,,,,-- --- ---- --- ------ ----- ------- ---- -- its ------- --<br>------- ---------- ------ -- ----- -- ----- -- ---- ------<br>--- ----- --- --- ------ -------- ----- --- ------ ----- --<br>----- ----- ---------- --- --- ------ ------ ---- -- ------<br>------- --- ------ ----- --- ---- ------- -- ---- --- --<br>------- ------,830476.8999999762,830476.1999999285,830140.701,830141.1000000238,830157.368,830491.508,,9,its
screen,html.Screen,2_1_1_1_10,2022-02-15T16:41:13.730Z,,,,,,,,,,,,,,,,,54,,,,,,,,,,,,,,360.5920000238111,,response,,,,100,,,,,,,Space,keypress(Space),,,,,,,,-- --- ---- --- ------ ----- ------- ---- -- --- revenue --<br>------- ---------- ------ -- ----- -- ----- -- ---- ------<br>--- ----- --- --- ------ -------- ----- --- ------ ----- --<br>----- ----- ---------- --- --- ------ ------ ---- -- ------<br>------- --- ------ ----- --- ---- ------- -- ---- --- --<br>------- ------,830853,830852.1000000238,830474.841,830477,830491.508,830859.081,,10,revenue
screen,html.Screen,2_1_1_1_11,2022-02-15T16:41:14.242Z,,,,,,,,,,,,,,,,,54,,,,,,,,,,,,,,504.9189999999944,,response,,,,100,,,,,,,Space,keypress(Space),,,,,,,,-- --- ---- --- ------ ----- ------- ---- -- --- ------- by<br>------- ---------- ------ -- ----- -- ----- -- ---- ------<br>--- ----- --- --- ------ -------- ----- --- ------ ----- --<br>----- ----- ---------- --- --- ------ ------ ---- -- ------<br>------- --- ------ ----- --- ---- ------- -- ---- --- --<br>------- ------,831364.8999999762,831364,830842.414,830853,830859.081,831377.342,,11,by
screen,html.Screen,2_1_1_1_12,2022-02-15T16:41:19.842Z,,,,,,,,,,,,,,,,,54,,,,,,,,,,,,,,5587.258000023896,,response,,,,100,,,,,,,Space,keypress(Space),,,,,,,,-- --- ---- --- ------ ----- ------- ---- -- --- ------- --<br>issuing ---------- ------ -- ----- -- ----- -- ---- ------<br>--- ----- --- --- ------ -------- ----- --- ------ ----- --<br>----- ----- ---------- --- --- ------ ------ ---- -- ------<br>------- --- ------ ----- --- ---- ------- -- ---- --- --<br>------- ------,836965.6000000238,836964.6000000238,831360.675,831365,831377.342,836979.033,,12,issuing
screen,html.Screen,2_1_1_1_13,2022-02-15T16:41:20.290Z,,,,,,,,,,,,,,,,,54,,,,,,,,,,,,,,433.06700002378784,,response,,,,100,,,,,,,Space,keypress(Space),,,,,,,,-- --- ---- --- ------ ----- ------- ---- -- --- ------- --<br>------- government ------ -- ----- -- ----- -- ---- ------<br>--- ----- --- --- ------ -------- ----- --- ------ ----- --<br>----- ----- ---------- --- --- ------ ------ ---- -- ------<br>------- --- ------ ----- --- ---- ------- -- ---- --- --<br>------- ------,837413,837412.1000000238,836962.366,836965.6999999285,836979.033,837429.147,,13,government
screen,html.Screen,2_1_1_1_14,2022-02-15T16:41:20.642Z,,,,,,,,,,,,,,,,,54,,,,,,,,,,,,,,334.8530000000028,,response,,,,100,,,,,,,Space,keypress(Space),,,,,,,,-- --- ---- --- ------ ----- ------- ---- -- --- ------- --<br>------- ---------- bonds. -- ----- -- ----- -- ---- ------<br>--- ----- --- --- ------ -------- ----- --- ------ ----- --<br>----- ----- ---------- --- --- ------ ------ ---- -- ------<br>------- --- ------ ----- --- ---- ------- -- ---- --- --<br>------- ------,837765,837764,837412.48,837413.1000000238,837429.147,837780.751,,14,bonds.
screen,html.Screen,2_1_1_1_15,2022-02-15T16:41:21.009Z,,,,,,,,,,,,,,,,,54,,,,,,,,,,,,,,351.34900002379436,,response,,,,100,,,,,,,Space,keypress(Space),,,,,,,,-- --- ---- --- ------ ----- ------- ---- -- --- ------- --<br>------- ---------- ------ In ----- -- ----- -- ---- ------<br>--- ----- --- --- ------ -------- ----- --- ------ ----- --<br>----- ----- ---------- --- --- ------ ------ ---- -- ------<br>------- --- ------ ----- --- ---- ------- -- ---- --- --<br>------- ------,838132.8999999762,838132.1000000238,837764.084,837765.1000000238,837780.751,838148.24,,15,In
screen,html.Screen,2_1_1_1_16,2022-02-15T16:41:21.370Z,,,,,,,,,,,,,,,,,54,,,,,,,,,,,,,,343.86000002385117,,response,,,,100,,,,,,,Space,keypress(Space),,,,,,,,"-- --- ---- --- ------ ----- ------- ---- -- --- ------- --<br>------- ---------- ------ -- 1727, -- ----- -- ---- ------<br>--- ----- --- --- ------ -------- ----- --- ------ ----- --<br>----- ----- ---------- --- --- ------ ------ ---- -- ------<br>------- --- ------ ----- --- ---- ------- -- ---- --- --<br>------- ------",838493,838492.1000000238,838131.573,838133,838148.24,838500.041,,16,"1727,"
screen,html.Screen,2_1_1_1_17,2022-02-15T16:41:21.730Z,,,,,,,,,,,,,,,,,54,,,,,,,,,,,,,,352.1589999285061,,response,,,,100,,,,,,,Space,keypress(Space),,,,,,,,-- --- ---- --- ------ ----- ------- ---- -- --- ------- --<br>------- ---------- ------ -- ----- in ----- -- ---- ------<br>--- ----- --- --- ------ -------- ----- --- ------ ----- --<br>----- ----- ---------- --- --- ------ ------ ---- -- ------<br>------- --- ------ ----- --- ---- ------- -- ---- --- --<br>------- ------,838853.1999999285,838852.1999999285,838483.374,838493,838500.041,838867.817,,17,in
screen,html.Screen,2_1_1_1_18,2022-02-15T16:41:22.049Z,,,,,,,,,,,,,,,,,54,,,,,,,,,,,,,,304.28300002380274,,response,,,,100,,,,,,,Space,keypress(Space),,,,,,,,-- --- ---- --- ------ ----- ------- ---- -- --- ------- --<br>------- ---------- ------ -- ----- -- order -- ---- ------<br>--- ----- --- --- ------ -------- ----- --- ------ ----- --<br>----- ----- ---------- --- --- ------ ------ ---- -- ------<br>------- --- ------ ----- --- ---- ------- -- ---- --- --<br>------- ------,839172.7999999523,839172.1000000238,838851.15,838853.3999999762,838867.817,839185.564,,18,order
screen,html.Screen,2_1_1_1_19,2022-02-15T16:41:22.337Z,,,,,,,,,,,,,,,,,54,,,,,,,,,,,,,,274.5360000238288,,response,,,,100,,,,,,,Space,keypress(Space),,,,,,,,-- --- ---- --- ------ ----- ------- ---- -- --- ------- --<br>------- ---------- ------ -- ----- -- ----- to ---- ------<br>--- ----- --- --- ------ -------- ----- --- ------ ----- --<br>----- ----- ---------- --- --- ------ ------ ---- -- ------<br>------- --- ------ ----- --- ---- ------- -- ---- --- --<br>------- ------,839460.8999999762,839460.1000000238,839168.897,839173,839185.564,839469.672,,19,to
screen,html.Screen,2_1_1_1_20,2022-02-15T16:41:22.625Z,,,,,,,,,,,,,,,,,54,,,,,,,,,,,,,,278.42800002382137,,response,,,,100,,,,,,,Space,keypress(Space),,,,,,,,-- --- ---- --- ------ ----- ------- ---- -- --- ------- --<br>------- ---------- ------ -- ----- -- ----- -- save ------<br>--- ----- --- --- ------ -------- ----- --- ------ ----- --<br>----- ----- ---------- --- --- ------ ------ ---- -- ------<br>------- --- ------ ----- --- ---- ------- -- ---- --- --<br>------- ------,839748.7999999523,839748.1000000238,839453.005,839461,839469.672,839753.776,,20,save
screen,html.Screen,2_1_1_1_21,2022-02-15T16:41:22.930Z,,,,,,,,,,,,,,,,,54,,,,,,,,,,,,,,298.3240000238875,,response,,,,100,,,,,,,Space,keypress(Space),,,,,,,,"-- --- ---- --- ------ ----- ------- ---- -- --- ------- --<br>------- ---------- ------ -- ----- -- ----- -- ---- money,<br>--- ----- --- --- ------ -------- ----- --- ------ ----- --<br>----- ----- ---------- --- --- ------ ------ ---- -- ------<br>------- --- ------ ----- --- ---- ------- -- ---- --- --<br>------- ------",840052.8999999762,840052.1000000238,839737.109,839749,839753.776,840054.594,,21,"money,"
screen,html.Screen,2_1_1_1_22,2022-02-15T16:41:23.314Z,,,,,,,,,,,,,,,,,54,,,,,,,,,,,,,,381.5060000238009,,response,,,,100,,,,,,,Space,keypress(Space),,,,,,,,-- --- ---- --- ------ ----- ------- ---- -- --- ------- --<br>------- ---------- ------ -- ----- -- ----- -- ---- ------<br>the ----- --- --- ------ -------- ----- --- ------ ----- --<br>----- ----- ---------- --- --- ------ ------ ---- -- ------<br>------- --- ------ ----- --- ---- ------- -- ---- --- --<br>------- ------,840436.8999999762,840436.1000000238,840037.927,840053,840054.594,840438.767,,22,the
screen,html.Screen,2_1_1_1_23,2022-02-15T16:41:23.634Z,,,,,,,,,,,,,,,,,54,,,,,,,,,,,,,,317.3330000238493,,response,,,,100,,,,,,,Space,keypress(Space),,,,,,,,-- --- ---- --- ------ ----- ------- ---- -- --- ------- --<br>------- ---------- ------ -- ----- -- ----- -- ---- ------<br>--- state --- --- ------ -------- ----- --- ------ ----- --<br>----- ----- ---------- --- --- ------ ------ ---- -- ------<br>------- --- ------ ----- --- ---- ------- -- ---- --- --<br>------- ------,840756.8999999762,840756.1000000238,840422.1,840437.1000000238,840438.767,840773.647,,23,state
screen,html.Screen,2_1_1_1_24,2022-02-15T16:41:23.842Z,,,,,,,,,,,,,,,,,54,,,,,,,,,,,,,,190.45300002384465,,response,,,,100,,,,,,,Space,keypress(Space),,,,,,,,-- --- ---- --- ------ ----- ------- ---- -- --- ------- --<br>------- ---------- ------ -- ----- -- ----- -- ---- ------<br>--- ----- cut --- ------ -------- ----- --- ------ ----- --<br>----- ----- ---------- --- --- ------ ------ ---- -- ------<br>------- --- ------ ----- --- ---- ------- -- ---- --- --<br>------- ------,840964.8999999762,840964.1000000238,840756.98,840757.1000000238,840773.647,840974.476,,24,cut
screen,html.Screen,2_1_1_1_25,2022-02-15T16:41:24.082Z,,,,,,,,,,,,,,,,,54,,,,,,,,,,,,,,229.62400002381764,,response,,,,100,,,,,,,Space,keypress(Space),,,,,,,,-- --- ---- --- ------ ----- ------- ---- -- --- ------- --<br>------- ---------- ------ -- ----- -- ----- -- ---- ------<br>--- ----- --- the ------ -------- ----- --- ------ ----- --<br>----- ----- ---------- --- --- ------ ------ ---- -- ------<br>------- --- ------ ----- --- ---- ------- -- ---- --- --<br>------- ------,841205,841204.1000000238,840957.809,840965,840974.476,841208.606,,25,the
screen,html.Screen,2_1_1_1_26,2022-02-15T16:41:24.346Z,,,,,,,,,,,,,,,,,54,,,,,,,,,,,,,,259.59399992844556,,response,,,,100,,,,,,,Space,keypress(Space),,,,,,,,-- --- ---- --- ------ ----- ------- ---- -- --- ------- --<br>------- ---------- ------ -- ----- -- ----- -- ---- ------<br>--- ----- --- --- bonds' -------- ----- --- ------ ----- --<br>----- ----- ---------- --- --- ------ ------ ---- -- ------<br>------- --- ------ ----- --- ---- ------- -- ---- --- --<br>------- ------,841469.1000000238,841468.1999999285,841191.939,841205,841208.606,841476.078,,26,bonds'
screen,html.Screen,2_1_1_1_27,2022-02-15T16:41:24.865Z,,,,,,,,,,,,,,,,,54,,,,,,,,,,,,,,512.0220000238623,,response,,,,100,,,,,,,Space,keypress(Space),,,,,,,,-- --- ---- --- ------ ----- ------- ---- -- --- ------- --<br>------- ---------- ------ -- ----- -- ----- -- ---- ------<br>--- ----- --- --- ------ interest ----- --- ------ ----- --<br>----- ----- ---------- --- --- ------ ------ ---- -- ------<br>------- --- ------ ----- --- ---- ------- -- ---- --- --<br>------- ------,841988.7999999523,841988.1000000238,841459.411,841469.1999999285,841476.078,841993.522,,27,interest
screen,html.Screen,2_1_1_1_28,2022-02-15T16:41:25.274Z,,,,,,,,,,,,,,,,,54,,,,,,,,,,,,,,402.57800002384465,,response,,,,100,,,,,,,Space,keypress(Space),,,,,,,,-- --- ---- --- ------ ----- ------- ---- -- --- ------- --<br>------- ---------- ------ -- ----- -- ----- -- ---- ------<br>--- ----- --- --- ------ -------- rate. --- ------ ----- --<br>----- ----- ---------- --- --- ------ ------ ---- -- ------<br>------- --- ------ ----- --- ---- ------- -- ---- --- --<br>------- ------,842397,842396.1000000238,841976.855,841989,841993.522,842411.765,,28,rate.
screen,html.Screen,2_1_1_1_29,2022-02-15T16:41:25.642Z,,,,,,,,,,,,,,,,,54,,,,,,,,,,,,,,352.3350000238279,,response,,,,100,,,,,,,Space,keypress(Space),,,,,,,,-- --- ---- --- ------ ----- ------- ---- -- --- ------- --<br>------- ---------- ------ -- ----- -- ----- -- ---- ------<br>--- ----- --- --- ------ -------- ----- The ------ ----- --<br>----- ----- ---------- --- --- ------ ------ ---- -- ------<br>------- --- ------ ----- --- ---- ------- -- ---- --- --<br>------- ------,842765,842764.1000000238,842395.098,842397.1000000238,842411.765,842779.23,,29,The
screen,html.Screen,2_1_1_1_30,2022-02-15T16:41:25.954Z,,,,,,,,,,,,,,,,,54,,,,,,,,,,,,,,296.96999992849305,,response,,,,100,,,,,,,Space,keypress(Space),,,,,,,,-- --- ---- --- ------ ----- ------- ---- -- --- ------- --<br>------- ---------- ------ -- ----- -- ----- -- ---- ------<br>--- ----- --- --- ------ -------- ----- --- market ----- --<br>----- ----- ---------- --- --- ------ ------ ---- -- ------<br>------- --- ------ ----- --- ---- ------- -- ---- --- --<br>------- ------,843076.8999999762,843076.1999999285,842762.563,842765.1999999285,842779.23,843080.878,,30,market
screen,html.Screen,2_1_1_1_31,2022-02-15T16:41:26.274Z,,,,,,,,,,,,,,,,,54,,,,,,,,,,,,,,315.2220000238158,,response,,,,100,,,,,,,Space,keypress(Space),,,,,,,,-- --- ---- --- ------ ----- ------- ---- -- --- ------- --<br>------- ---------- ------ -- ----- -- ----- -- ---- ------<br>--- ----- --- --- ------ -------- ----- --- ------ value --<br>----- ----- ---------- --- --- ------ ------ ---- -- ------<br>------- --- ------ ----- --- ---- ------- -- ---- --- --<br>------- ------,843396.7999999523,843396.1000000238,843064.211,843077.1000000238,843080.878,843398.381,,31,value
screen,html.Screen,2_1_1_1_32,2022-02-15T16:41:26.626Z,,,,,,,,,,,,,,,,,54,,,,,,,,,,,,,,349.61899999994785,,response,,,,100,,,,,,,Space,keypress(Space),,,,,,,,-- --- ---- --- ------ ----- ------- ---- -- --- ------- --<br>------- ---------- ------ -- ----- -- ----- -- ---- ------<br>--- ----- --- --- ------ -------- ----- --- ------ ----- of<br>----- ----- ---------- --- --- ------ ------ ---- -- ------<br>------- --- ------ ----- --- ---- ------- -- ---- --- --<br>------- ------,843748.8999999762,843748,843381.714,843397,843398.381,843765.866,,32,of
screen,html.Screen,2_1_1_1_33,2022-02-15T16:41:26.962Z,,,,,,,,,,,,,,,,,54,,,,,,,,,,,,,,318.2340000238037,,response,,,,100,,,,,,,Space,keypress(Space),,,,,,,,-- --- ---- --- ------ ----- ------- ---- -- --- ------- --<br>------- ---------- ------ -- ----- -- ----- -- ---- ------<br>--- ----- --- --- ------ -------- ----- --- ------ ----- --<br>these ----- ---------- --- --- ------ ------ ---- -- ------<br>------- --- ------ ----- --- ---- ------- -- ---- --- --<br>------- ------,844084.8999999762,844084.1000000238,843749.199,843749.1000000238,843765.866,844100.721,,33,these
screen,html.Screen,2_1_1_1_34,2022-02-15T16:41:27.242Z,,,,,,,,,,,,,,,,,54,,,,,,,,,,,,,,263.27899999998044,,response,,,,100,,,,,,,Space,keypress(Space),,,,,,,,-- --- ---- --- ------ ----- ------- ---- -- --- ------- --<br>------- ---------- ------ -- ----- -- ----- -- ---- ------<br>--- ----- --- --- ------ -------- ----- --- ------ ----- --<br>----- bonds ---------- --- --- ------ ------ ---- -- ------<br>------- --- ------ ----- --- ---- ------- -- ---- --- --<br>------- ------,844365,844364,844084.054,844085,844100.721,844368.239,,34,bonds
screen,html.Screen,2_1_1_1_35,2022-02-15T16:41:27.602Z,,,,,,,,,,,,,,,,,54,,,,,,,,,,,,,,355.86100002389867,,response,,,,100,,,,,,,Space,keypress(Space),,,,,,,,"-- --- ---- --- ------ ----- ------- ---- -- --- ------- --<br>------- ---------- ------ -- ----- -- ----- -- ---- ------<br>--- ----- --- --- ------ -------- ----- --- ------ ----- --<br>----- ----- plummeted, --- --- ------ ------ ---- -- ------<br>------- --- ------ ----- --- ---- ------- -- ---- --- --<br>------- ------",844724.8999999762,844724.1000000238,844351.572,844365.1000000238,844368.239,844735.733,,35,"plummeted,"
screen,html.Screen,2_1_1_1_36,2022-02-15T16:41:27.938Z,,,,,,,,,,,,,,,,,54,,,,,,,,,,,,,,324.466999928467,,response,,,,100,,,,,,,Space,keypress(Space),,,,,,,,-- --- ---- --- ------ ----- ------- ---- -- --- ------- --<br>------- ---------- ------ -- ----- -- ----- -- ---- ------<br>--- ----- --- --- ------ -------- ----- --- ------ ----- --<br>----- ----- ---------- and --- ------ ------ ---- -- ------<br>------- --- ------ ----- --- ---- ------- -- ---- --- --<br>------- ------,845061.1999999285,845060.1999999285,844719.066,844725,844735.733,845069.877,,36,and
screen,html.Screen,2_1_1_1_37,2022-02-15T16:41:28.265Z,,,,,,,,,,,,,,,,,54,,,,,,,,,,,,,,318.2230000238633,,response,,,,100,,,,,,,Space,keypress(Space),,,,,,,,-- --- ---- --- ------ ----- ------- ---- -- --- ------- --<br>------- ---------- ------ -- ----- -- ----- -- ---- ------<br>--- ----- --- --- ------ -------- ----- --- ------ ----- --<br>----- ----- ---------- --- the ------ ------ ---- -- ------<br>------- --- ------ ----- --- ---- ------- -- ---- --- --<br>------- ------,845388.8999999762,845388.1000000238,845053.21,845061.3999999762,845069.877,845403.999,,37,the
screen,html.Screen,2_1_1_1_38,2022-02-15T16:41:28.577Z,,,,,,,,,,,,,,,,,54,,,,,,,,,,,,,,296.10100002388936,,response,,,,100,,,,,,,Space,keypress(Space),,,,,,,,-- --- ---- --- ------ ----- ------- ---- -- --- ------- --<br>------- ---------- ------ -- ----- -- ----- -- ---- ------<br>--- ----- --- --- ------ -------- ----- --- ------ ----- --<br>----- ----- ---------- --- --- market ------ ---- -- ------<br>------- --- ------ ----- --- ---- ------- -- ---- --- --<br>------- ------,845700.8999999762,845700.1000000238,845387.332,845389,845403.999,845705.577,,38,market
screen,html.Screen,2_1_1_1_39,2022-02-15T16:41:28.897Z,,,,,,,,,,,,,,,,,54,,,,,,,,,,,,,,314.52300002379343,,response,,,,100,,,,,,,Space,keypress(Space),,,,,,,,-- --- ---- --- ------ ----- ------- ---- -- --- ------- --<br>------- ---------- ------ -- ----- -- ----- -- ---- ------<br>--- ----- --- --- ------ -------- ----- --- ------ ----- --<br>----- ----- ---------- --- --- ------ became ---- -- ------<br>------- --- ------ ----- --- ---- ------- -- ---- --- --<br>------- ------,846020.7999999523,846020.1000000238,845688.91,845701,845705.577,846023.093,,39,became
screen,html.Screen,2_1_1_1_40,2022-02-15T16:41:29.146Z,,,,,,,,,,,,,,,,,54,,,,,,,,,,,,,,245.00700002384838,,response,,,,100,,,,,,,Space,keypress(Space),,,,,,,,-- --- ---- --- ------ ----- ------- ---- -- --- ------- --<br>------- ---------- ------ -- ----- -- ----- -- ---- ------<br>--- ----- --- --- ------ -------- ----- --- ------ ----- --<br>----- ----- ---------- --- --- ------ ------ wary -- ------<br>------- --- ------ ----- --- ---- ------- -- ---- --- --<br>------- ------,846268.8999999762,846268.1000000238,846006.426,846021,846023.093,846273.918,,40,wary
screen,html.Screen,2_1_1_1_41,2022-02-15T16:41:29.492Z,,,,,,,,,,,,,,,,,54,,,,,,,,,,,,,,338.2819999285275,,response,,,,100,,,,,,,Space,keypress(Space),,,,,,,,-- --- ---- --- ------ ----- ------- ---- -- --- ------- --<br>------- ---------- ------ -- ----- -- ----- -- ---- ------<br>--- ----- --- --- ------ -------- ----- --- ------ ----- --<br>----- ----- ---------- --- --- ------ ------ ---- of ------<br>------- --- ------ ----- --- ---- ------- -- ---- --- --<br>------- ------,846615.3999999762,846612.1999999285,846257.251,846269.1000000238,846273.918,846624.748,,41,of
screen,html.Screen,2_1_1_1_42,2022-02-15T16:41:29.817Z,,,,,,,,,,,,,,,,,54,,,,,,,,,,,,,,315.35200002382044,,response,,,,100,,,,,,,Space,keypress(Space),,,,,,,,-- --- ---- --- ------ ----- ------- ---- -- --- ------- --<br>------- ---------- ------ -- ----- -- ----- -- ---- ------<br>--- ----- --- --- ------ -------- ----- --- ------ ----- --<br>----- ----- ---------- --- --- ------ ------ ---- -- French<br>------- --- ------ ----- --- ---- ------- -- ---- --- --<br>------- ------,846940.8999999762,846940.1000000238,846608.081,846615.5,846624.748,846942.193,,42,French
screen,html.Screen,2_1_1_1_43,2022-02-15T16:41:30.178Z,,,,,,,,,,,,,,,,,54,,,,,,,,,,,,,,358.3070000000298,,response,,,,100,,,,,,,Space,keypress(Space),,,,,,,,-- --- ---- --- ------ ----- ------- ---- -- --- ------- --<br>------- ---------- ------ -- ----- -- ----- -- ---- ------<br>--- ----- --- --- ------ -------- ----- --- ------ ----- --<br>----- ----- ---------- --- --- ------ ------ ---- -- ------<br>credit. --- ------ ----- --- ---- ------- -- ---- --- --<br>------- ------,847301.2999999523,847300.5,846925.526,846940.8999999762,846942.193,847310.457,,43,credit.
screen,html.Screen,2_1_1_1_44,2022-02-15T16:41:30.546Z,,,,,,,,,,,,,,,,,54,,,,,,,,,,,,,,357.8429999522632,,response,,,,100,,,,,,,Space,keypress(Space),,,,,,,,-- --- ---- --- ------ ----- ------- ---- -- --- ------- --<br>------- ---------- ------ -- ----- -- ----- -- ---- ------<br>--- ----- --- --- ------ -------- ----- --- ------ ----- --<br>----- ----- ---------- --- --- ------ ------ ---- -- ------<br>------- The ------ ----- --- ---- ------- -- ---- --- --<br>------- ------,847669.1000000238,847668.2999999523,847293.79,847301.5,847310.457,847677.953,,44,The
screen,html.Screen,2_1_1_1_45,2022-02-15T16:41:30.962Z,,,,,,,,,,,,,,,,,54,,,,,,,,,,,,,,406.2469999284949,,response,,,,100,,,,,,,Space,keypress(Space),,,,,,,,-- --- ---- --- ------ ----- ------- ---- -- --- ------- --<br>------- ---------- ------ -- ----- -- ----- -- ---- ------<br>--- ----- --- --- ------ -------- ----- --- ------ ----- --<br>----- ----- ---------- --- --- ------ ------ ---- -- ------<br>------- --- French ----- --- ---- ------- -- ---- --- --<br>------- ------,848085,848084.1999999285,847661.286,847669.2999999523,847677.953,848096.164,,45,French
screen,html.Screen,2_1_1_1_46,2022-02-15T16:41:31.873Z,,,,,,,,,,,,,,,,,54,,,,,,,,,,,,,,899.9360000238521,,response,,,,100,,,,,,,Space,keypress(Space),,,,,,,,-- --- ---- --- ------ ----- ------- ---- -- --- ------- --<br>------- ---------- ------ -- ----- -- ----- -- ---- ------<br>--- ----- --- --- ------ -------- ----- --- ------ ----- --<br>----- ----- ---------- --- --- ------ ------ ---- -- ------<br>------- --- ------ state --- ---- ------- -- ---- --- --<br>------- ------,848996.7999999523,848996.1000000238,848079.497,848085.2999999523,848096.164,849013.646,,46,state
screen,html.Screen,2_1_1_1_47,2022-02-15T16:41:32.330Z,,,,,,,,,,,,,,,,,54,,,,,,,,,,,,,,438.5539999285247,,response,,,,100,,,,,,,Space,keypress(Space),,,,,,,,-- --- ---- --- ------ ----- ------- ---- -- --- ------- --<br>------- ---------- ------ -- ----- -- ----- -- ---- ------<br>--- ----- --- --- ------ -------- ----- --- ------ ----- --<br>----- ----- ---------- --- --- ------ ------ ---- -- ------<br>------- --- ------ ----- was ---- ------- -- ---- --- --<br>------- ------,849453.3999999762,849452.1999999285,848996.979,848997,849013.646,849466.86,,47,was
screen,html.Screen,2_1_1_1_48,2022-02-15T16:41:32.698Z,,,,,,,,,,,,,,,,,54,,,,,,,,,,,,,,353.2400000238558,,response,,,,100,,,,,,,Space,keypress(Space),,,,,,,,-- --- ---- --- ------ ----- ------- ---- -- --- ------- --<br>------- ---------- ------ -- ----- -- ----- -- ---- ------<br>--- ----- --- --- ------ -------- ----- --- ------ ----- --<br>----- ----- ---------- --- --- ------ ------ ---- -- ------<br>------- --- ------ ----- --- left ------- -- ---- --- --<br>------- ------,849820.8999999762,849820.1000000238,849450.193,849454.3999999762,849466.86,849834.367,,48,left
screen,html.Screen,2_1_1_1_49,2022-02-15T16:41:33.042Z,,,,,,,,,,,,,,,,,54,,,,,,,,,,,,,,329.7330000238726,,response,,,,100,,,,,,,Space,keypress(Space),,,,,,,,-- --- ---- --- ------ ----- ------- ---- -- --- ------- --<br>------- ---------- ------ -- ----- -- ----- -- ---- ------<br>--- ----- --- --- ------ -------- ----- --- ------ ----- --<br>----- ----- ---------- --- --- ------ ------ ---- -- ------<br>------- --- ------ ----- --- ---- without -- ---- --- --<br>------- ------,850165,850164.1000000238,849817.7,849821,849834.367,850169.27,,49,without
screen,html.Screen,2_1_1_1_50,2022-02-15T16:41:33.418Z,,,,,,,,,,,,,,,,,54,,,,,,,,,,,,,,370.83000002382323,,response,,,,100,,,,,,,Space,keypress(Space),,,,,,,,-- --- ---- --- ------ ----- ------- ---- -- --- ------- --<br>------- ---------- ------ -- ----- -- ----- -- ---- ------<br>--- ----- --- --- ------ -------- ----- --- ------ ----- --<br>----- ----- ---------- --- --- ------ ------ ---- -- ------<br>------- --- ------ ----- --- ---- ------- an ---- --- --<br>------- ------,850541.1999999285,850540.1000000238,850152.603,850165.1999999285,850169.27,850553.448,,50,an
screen,html.Screen,2_1_1_1_51,2022-02-15T16:41:33.825Z,,,,,,,,,,,,,,,,,54,,,,,,,,,,,,,,394.652000023867,,response,,,,100,,,,,,,Space,keypress(Space),,,,,,,,-- --- ---- --- ------ ----- ------- ---- -- --- ------- --<br>------- ---------- ------ -- ----- -- ----- -- ---- ------<br>--- ----- --- --- ------ -------- ----- --- ------ ----- --<br>----- ----- ---------- --- --- ------ ------ ---- -- ------<br>------- --- ------ ----- --- ---- ------- -- easy --- --<br>------- ------,850948.7999999523,850948.1000000238,850536.781,850541.2999999523,850553.448,850955.037,,51,easy
screen,html.Screen,2_1_1_1_52,2022-02-15T16:41:34.162Z,,,,,,,,,,,,,,,,,54,,,,,,,,,,,,,,329.0630000238307,,response,,,,100,,,,,,,Space,keypress(Space),,,,,,,,-- --- ---- --- ------ ----- ------- ---- -- --- ------- --<br>------- ---------- ------ -- ----- -- ----- -- ---- ------<br>--- ----- --- --- ------ -------- ----- --- ------ ----- --<br>----- ----- ---------- --- --- ------ ------ ---- -- ------<br>------- --- ------ ----- --- ---- ------- -- ---- way --<br>------- ------,851284.8999999762,851284.1000000238,850938.37,850948.8999999762,850955.037,851289.155,,52,way
screen,html.Screen,2_1_1_1_53,2022-02-15T16:41:34.554Z,,,,,,,,,,,,,,,,,54,,,,,,,,,,,,,,386.9450000238139,,response,,,,100,,,,,,,Space,keypress(Space),,,,,,,,-- --- ---- --- ------ ----- ------- ---- -- --- ------- --<br>------- ---------- ------ -- ----- -- ----- -- ---- ------<br>--- ----- --- --- ------ -------- ----- --- ------ ----- --<br>----- ----- ---------- --- --- ------ ------ ---- -- ------<br>------- --- ------ ----- --- ---- ------- -- ---- --- of<br>------- ------,851676.8999999762,851676.1000000238,851272.488,851285.1000000238,851289.155,851689.969,,53,of
screen,html.Screen,2_1_1_1_54,2022-02-15T16:41:35.042Z,,,,,,,,,,,,,,,,,54,,,,,,,,,,,,,,474.23099992843345,,response,,,,100,,,,,,,Space,keypress(Space),,,,,,,,-- --- ---- --- ------ ----- ------- ---- -- --- ------- --<br>------- ---------- ------ -- ----- -- ----- -- ---- ------<br>--- ----- --- --- ------ -------- ----- --- ------ ----- --<br>----- ----- ---------- --- --- ------ ------ ---- -- ------<br>------- --- ------ ----- --- ---- ------- -- ---- --- --<br>raising ------,852165.3999999762,852164.1999999285,851673.302,851677,851689.969,852174.951,,54,raising
screen,html.Screen,2_1_1_1_55,2022-02-15T16:41:35.490Z,,,,,,,,,,,,,,,,,54,,,,,,,,,,,,,,437.34899995231535,,response,,,,100,,,,,,,Space,keypress(Space),,,,,,,,-- --- ---- --- ------ ----- ------- ---- -- --- ------- --<br>------- ---------- ------ -- ----- -- ----- -- ---- ------<br>--- ----- --- --- ------ -------- ----- --- ------ ----- --<br>----- ----- ---------- --- --- ------ ------ ---- -- ------<br>------- --- ------ ----- --- ---- ------- -- ---- --- --<br>------- money.,852613.2999999523,852612.2999999523,852158.284,852165.6000000238,852174.951,852626.61,,55,money.
Item 100,flow.Loop,2_1_1_1,2022-02-15T16:41:35.490Z,,,,,,,,,,,,,,,,,,,,,,,,,,,,,,,153244.35199995234,,completion,,,,,B,,,,,,,,,,,silence,,,,,852613.6000000238,852612.2999999523,699351.281,699353.3999999762,699367.948,852626.61,,,
Question 1,html.Screen,2_1_1_2,2022-02-15T16:41:38.522Z,,,,,,,,,,,,,,,,,,,,,,,,,,,,true,TRUE,,3017.289999976172,,response,,,,100,B,,,,,,TRUE,click #choice-1,,,,silence,,,,,855645,855643.8999999762,852609.943,852613.6999999285,852626.61,855653.916,,,
Question 2,html.Screen,2_1_1_3,2022-02-15T16:41:42.586Z,,,,,,,,,,,,,,,,,,,,,,,,,,,,true,FALSE,,4053.98399997619,,response,,,,100,B,,,,,,FALSE,click #choice-2,,,,silence,,,,,859709.1000000238,859707.8999999762,855636.355,855645.1000000238,855653.916,859716.438,,,
Item 100,flow.Sequence,2_1_1,2022-02-15T16:41:42.586Z,,,,,,,,,,,,,,,,,,,,,,,,,,,,,,,170335.33299997612,,completion,,,,,,,,,,,,,,,,,,,,,859709.1999999285,859707.8999999762,689355.9,689358,689372.567,859716.438,,,
End of Practice,html.Page,2_1_2,2022-02-15T16:42:02.578Z,,,,,,,,,,,,,,,,,,,,,,,,,,,,,,,20000.673000000068,,timeout,,,,,,,,,,,,,,,,,,,,,879701.3999999762,879700.444,859699.771,859709.2999999523,859716.438,879717.111,,,
Practice,flow.Sequence,2_1,2022-02-15T16:42:02.578Z,,,,,,,,,,,,,,,,,,,,,,,,,,,,,,,252653.424,,completion,,,,,,,,,,,,,,,,,,,,,879701.5,879700.444,627013.686,627042.2999999523,627047.02,879717.111,,,
Trap_instruction,html.Page,2_2_0,2022-02-15T16:42:13.523Z,,,,,,,,,,,,,,,,,,,,,,,,,,,,,,,10928.288999976125,,form submission,,,,,,,,,,,,,,,,,,,,,890646.1999999285,890645.3999999762,879700.444,879701.6999999285,879717.111,890676.717,,,
trap_trial,html.Screen,2_2_1,2022-02-15T16:42:22.707Z,,,,,,,,,,,,,,,,,,,,,,,,,,,,true,1,,9151.383000023896,,response,,,,,,,,,,,1,click #choice-1,,,,,,,,,899830.2999999523,899828.1000000238,890643.383,890646.3999999762,890676.717,899829.713,,,
end of trap trial,html.Page,2_2_2,2022-02-15T16:42:29.354Z,,,,,,,,,,,,,,,,,,,,,,,,,,,,,,,6647.5869999523275,,form submission,,,,,,,,,,,,,,,,,,,,,906477.5,906477.2999999523,899813.046,899830.6000000238,899829.713,906477.054,,,
Trap 1,flow.Sequence,2_2,2022-02-15T16:42:29.354Z,,,,,,,,,,,,,,,,,,,,,,,,,,,,,,,26760.188999952283,,completion,,,,,,,,,,,,,,,,,,,,,906477.7999999523,906477.2999999523,879700.444,879701.6000000238,879717.111,906477.054,,,
Standby,html.Page,2_3_0,2022-02-15T16:42:37.339Z,,,,,,,,,,,,,,,,,,,,,,,,,,,,,,,8000.91399999999,,timeout,,,,,,,,,,,,,,,,,,,,,914462.8999999762,914461.301,906460.387,906478.2999999523,906477.054,914477.968,,,
Holding screen,html.Screen,2_3_1_0_0,2022-02-15T16:42:44.331Z,,,,,,,,,,,,,,,,,,,,,,,,,,,,,,,6992.785000000033,,timeout,,,,,,,,,,,,,,,,,,,,,921455.1999999285,921454.086,914461.301,914463.1999999285,914477.968,921470.753,,,
screen,html.Screen,2_3_1_0_1_0,2022-02-15T16:42:51.336Z,,,,,,,,,,,,,,,,,15,,,,,,,,,,,,,,7003.277999999933,,timeout,,,,7,B,,,,,,,,,,,lyrical,,,,Greg --------- ---------- - --- ------- -- --- ------------<br>----- -- -------- ------- ---- ------ - -------- ---- -----<br>--- ------- ---- -- --- -------- --- - ----- ------ ---- --<br>-------- --- -------- -------- --- -------- ---- -- ----- -<br>-------- ---- --- ---------- --------- -- ------- ------ -<br>--------- ----- -----,928459.6000000238,928457.364,921454.086,921455.3999999762,921470.753,928474.031,,0,Greg
screen,html.Screen,2_3_1_0_1_1,2022-02-15T16:42:51.937Z,,,,,,,,,,,,,,,,,15,,,,,,,,,,,,,,585.969000000041,,response,,,,7,B,,,,,,Space,keypress(Space),,,,lyrical,,,,"---- Anderson, ---------- - --- ------- -- --- ------------<br>----- -- -------- ------- ---- ------ - -------- ---- -----<br>--- ------- ---- -- --- -------- --- - ----- ------ ---- --<br>-------- --- -------- -------- --- -------- ---- -- ----- -<br>-------- ---- --- ---------- --------- -- ------- ------ -<br>--------- ----- -----",929060.8999999762,929060,928457.364,928459.6999999285,928474.031,929062.379,,1,"Anderson,"
screen,html.Screen,2_3_1_0_1_2,2022-02-15T16:42:52.561Z,,,,,,,,,,,,,,,,,15,,,,,,,,,,,,,,621.8209999285173,,response,,,,7,B,,,,,,Space,keypress(Space),,,,lyrical,,,,---- --------- considered - --- ------- -- --- ------------<br>----- -- -------- ------- ---- ------ - -------- ---- -----<br>--- ------- ---- -- --- -------- --- - ----- ------ ---- --<br>-------- --- -------- -------- --- -------- ---- -- ----- -<br>-------- ---- --- ---------- --------- -- ------- ------ -<br>--------- ----- -----,929685.1000000238,929684.1999999285,929045.712,929061,929062.379,929697.397,,2,considered
screen,html.Screen,2_3_1_0_1_3,2022-02-15T16:42:52.993Z,,,,,,,,,,,,,,,,,15,,,,,,,,,,,,,,418.6030000000028,,response,,,,7,B,,,,,,Space,keypress(Space),,,,lyrical,,,,---- --------- ---------- a --- ------- -- --- ------------<br>----- -- -------- ------- ---- ------ - -------- ---- -----<br>--- ------- ---- -- --- -------- --- - ----- ------ ---- --<br>-------- --- -------- -------- --- -------- ---- -- ----- -<br>-------- ---- --- ---------- --------- -- ------- ------ -<br>--------- ----- -----,930116.6999999285,930116,929680.73,929685.1999999285,929697.397,930132.84,,3,a
screen,html.Screen,2_3_1_0_1_4,2022-02-15T16:42:53.489Z,,,,,,,,,,,,,,,,,15,,,,,,,,,,,,,,479.1600000000326,,response,,,,7,B,,,,,,Space,keypress(Space),,,,lyrical,,,,---- --------- ---------- - key ------- -- --- ------------<br>----- -- -------- ------- ---- ------ - -------- ---- -----<br>--- ------- ---- -- --- -------- --- - ----- ------ ---- --<br>-------- --- -------- -------- --- -------- ---- -- ----- -<br>-------- ---- --- ---------- --------- -- ------- ------ -<br>--------- ----- -----,930612.6999999285,930612,930116.173,930116.8999999762,930132.84,930617.491,,4,key
screen,html.Screen,2_3_1_0_1_5,2022-02-15T16:42:53.889Z,,,,,,,,,,,,,,,,,15,,,,,,,,,,,,,,394.5089999999618,,response,,,,7,B,,,,,,Space,keypress(Space),,,,lyrical,,,,---- --------- ---------- - --- witness -- --- ------------<br>----- -- -------- ------- ---- ------ - -------- ---- -----<br>--- ------- ---- -- --- -------- --- - ----- ------ ---- --<br>-------- --- -------- -------- --- -------- ---- -- ----- -<br>-------- ---- --- ---------- --------- -- ------- ------ -<br>--------- ----- -----,931012.7999999523,931012,930600.824,930612.8999999762,930617.491,931018.749,,5,witness
screen,html.Screen,2_3_1_0_1_6,2022-02-15T16:42:54.641Z,,,,,,,,,,,,,,,,,15,,,,,,,,,,,,,,745.2510000000475,,response,,,,7,B,,,,,,Space,keypress(Space),,,,lyrical,,,,---- --------- ---------- - --- ------- by --- ------------<br>----- -- -------- ------- ---- ------ - -------- ---- -----<br>--- ------- ---- -- --- -------- --- - ----- ------ ---- --<br>-------- --- -------- -------- --- -------- ---- -- ----- -<br>-------- ---- --- ---------- --------- -- ------- ------ -<br>--------- ----- -----,931764.8999999762,931764,931002.082,931013,931018.749,931770.296,,6,by
screen,html.Screen,2_3_1_0_1_7,2022-02-15T16:42:54.969Z,,,,,,,,,,,,,,,,,15,,,,,,,,,,,,,,321.704000000027,,response,,,,7,B,,,,,,Space,keypress(Space),,,,lyrical,,,,---- --------- ---------- - --- ------- -- the ------------<br>----- -- -------- ------- ---- ------ - -------- ---- -----<br>--- ------- ---- -- --- -------- --- - ----- ------ ---- --<br>-------- --- -------- -------- --- -------- ---- -- ----- -<br>-------- ---- --- ---------- --------- -- ------- ------ -<br>--------- ----- -----,932092.7999999523,932092,931753.629,931765,931770.296,932105.912,,7,the
screen,html.Screen,2_3_1_0_1_8,2022-02-15T16:42:55.361Z,,,,,,,,,,,,,,,,,15,,,,,,,,,,,,,,377.98799997614697,,response,,,,7,B,,,,,,Space,keypress(Space),,,,lyrical,,,,"---- --------- ---------- - --- ------- -- --- prosecution,<br>----- -- -------- ------- ---- ------ - -------- ---- -----<br>--- ------- ---- -- --- -------- --- - ----- ------ ---- --<br>-------- --- -------- -------- --- -------- ---- -- ----- -<br>-------- ---- --- ---------- --------- -- ------- ------ -<br>--------- ----- -----",932484.7999999523,932483.8999999762,932089.245,932092.8999999762,932105.912,932490.12,,8,"prosecution,"
screen,html.Screen,2_3_1_0_1_9,2022-02-15T16:42:56.001Z,,,,,,,,,,,,,,,,,15,,,,,,,,,,,,,,633.7799999761628,,response,,,,7,B,,,,,,Space,keypress(Space),,,,lyrical,,,,---- --------- ---------- - --- ------- -- --- ------------<br>vowed -- -------- ------- ---- ------ - -------- ---- -----<br>--- ------- ---- -- --- -------- --- - ----- ------ ---- --<br>-------- --- -------- -------- --- -------- ---- -- ----- -<br>-------- ---- --- ---------- --------- -- ------- ------ -<br>--------- ----- -----,933124.7999999523,933123.8999999762,932473.453,932484.8999999762,932490.12,933140.931,,9,vowed
screen,html.Screen,2_3_1_0_1_10,2022-02-15T16:42:56.353Z,,,,,,,,,,,,,,,,,15,,,,,,,,,,,,,,334.96899997617584,,response,,,,7,B,,,,,,Space,keypress(Space),,,,lyrical,,,,---- --------- ---------- - --- ------- -- --- ------------<br>----- he -------- ------- ---- ------ - -------- ---- -----<br>--- ------- ---- -- --- -------- --- - ----- ------ ---- --<br>-------- --- -------- -------- --- -------- ---- -- ----- -<br>-------- ---- --- ---------- --------- -- ------- ------ -<br>--------- ----- -----,933476.7999999523,933475.8999999762,933124.264,933124.7999999523,933140.931,933493.271,,10,he
screen,html.Screen,2_3_1_0_1_11,2022-02-15T16:42:56.993Z,,,,,,,,,,,,,,,,,15,,,,,,,,,,,,,,622.7290000000503,,response,,,,7,B,,,,,,Space,keypress(Space),,,,lyrical,,,,---- --------- ---------- - --- ------- -- --- ------------<br>----- -- wouldn't ------- ---- ------ - -------- ---- -----<br>--- ------- ---- -- --- -------- --- - ----- ------ ---- --<br>-------- --- -------- -------- --- -------- ---- -- ----- -<br>-------- ---- --- ---------- --------- -- ------- ------ -<br>--------- ----- -----,934116.7999999523,934116,933476.604,933477.1999999285,933493.271,934127.39,,11,wouldn't
screen,html.Screen,2_3_1_0_1_12,2022-02-15T16:42:57.346Z,,,,,,,,,,,,,,,,,15,,,,,,,,,,,,,,341.0099999761442,,response,,,,7,B,,,,,,Space,keypress(Space),,,,lyrical,,,,---- --------- ---------- - --- ------- -- --- ------------<br>----- -- -------- testify ---- ------ - -------- ---- -----<br>--- ------- ---- -- --- -------- --- - ----- ------ ---- --<br>-------- --- -------- -------- --- -------- ---- -- ----- -<br>-------- ---- --- ---------- --------- -- ------- ------ -<br>--------- ----- -----,934469.5,934468.3999999762,934110.723,934116.8999999762,934127.39,934479.756,,12,testify
screen,html.Screen,2_3_1_0_1_13,2022-02-15T16:42:57.785Z,,,,,,,,,,,,,,,,,15,,,,,,,,,,,,,,428.3440000237897,,response,,,,7,B,,,,,,Space,keypress(Space),,,,lyrical,,,,---- --------- ---------- - --- ------- -- --- ------------<br>----- -- -------- ------- when ------ - -------- ---- -----<br>--- ------- ---- -- --- -------- --- - ----- ------ ---- --<br>-------- --- -------- -------- --- -------- ---- -- ----- -<br>-------- ---- --- ---------- --------- -- ------- ------ -<br>--------- ----- -----,934908.8999999762,934908.1000000238,934463.089,934469.6999999285,934479.756,934913.869,,13,when
screen,html.Screen,2_3_1_0_1_14,2022-02-15T16:42:58.178Z,,,,,,,,,,,,,,,,,15,,,,,,,,,,,,,,386.231000023894,,response,,,,7,B,,,,,,Space,keypress(Space),,,,lyrical,,,,---- --------- ---------- - --- ------- -- --- ------------<br>----- -- -------- ------- ---- served - -------- ---- -----<br>--- ------- ---- -- --- -------- --- - ----- ------ ---- --<br>-------- --- -------- -------- --- -------- ---- -- ----- -<br>-------- ---- --- ---------- --------- -- ------- ------ -<br>--------- ----- -----,935301.6999999285,935300.1000000238,934897.202,934909,934913.869,935315.395,,14,served
screen,html.Screen,2_3_1_0_1_15,2022-02-15T16:42:58.617Z,,,,,,,,,,,,,,,,,15,,,,,,,,,,,,,,424.6049999999814,,response,,,,7,B,,,,,,Space,keypress(Space),,,,lyrical,,,,---- --------- ---------- - --- ------- -- --- ------------<br>----- -- -------- ------- ---- ------ a -------- ---- -----<br>--- ------- ---- -- --- -------- --- - ----- ------ ---- --<br>-------- --- -------- -------- --- -------- ---- -- ----- -<br>-------- ---- --- ---------- --------- -- ------- ------ -<br>--------- ----- -----,935740.7999999523,935740,935298.728,935301.7999999523,935315.395,935750.169,,15,a
screen,html.Screen,2_3_1_0_1_16,2022-02-15T16:42:59.121Z,,,,,,,,,,,,,,,,,15,,,,,,,,,,,,,,493.8310000000056,,response,,,,7,B,,,,,,Space,keypress(Space),,,,lyrical,,,,---- --------- ---------- - --- ------- -- --- ------------<br>----- -- -------- ------- ---- ------ - subpoena ---- -----<br>--- ------- ---- -- --- -------- --- - ----- ------ ---- --<br>-------- --- -------- -------- --- -------- ---- -- ----- -<br>-------- ---- --- ---------- --------- -- ------- ------ -<br>--------- ----- -----,936245.1000000238,936244,935733.502,935740.8999999762,935750.169,936251.053,,16,subpoena
screen,html.Screen,2_3_1_0_1_17,2022-02-15T16:42:59.745Z,,,,,,,,,,,,,,,,,15,,,,,,,,,,,,,,616.9470000000438,,response,,,,7,B,,,,,,Space,keypress(Space),,,,lyrical,,,,---- --------- ---------- - --- ------- -- --- ------------<br>----- -- -------- ------- ---- ------ - -------- last -----<br>--- ------- ---- -- --- -------- --- - ----- ------ ---- --<br>-------- --- -------- -------- --- -------- ---- -- ----- -<br>-------- ---- --- ---------- --------- -- ------- ------ -<br>--------- ----- -----,936868.8999999762,936868,936234.386,936245.2999999523,936251.053,936885.959,,17,last
screen,html.Screen,2_3_1_0_1_18,2022-02-15T16:43:00.217Z,,,,,,,,,,,,,,,,,15,,,,,,,,,,,,,,454.24099992844276,,response,,,,7,B,,,,,,Space,keypress(Space),,,,lyrical,,,,---- --------- ---------- - --- ------- -- --- ------------<br>----- -- -------- ------- ---- ------ - -------- ---- week.<br>--- ------- ---- -- --- -------- --- - ----- ------ ---- --<br>-------- --- -------- -------- --- -------- ---- -- ----- -<br>-------- ---- --- ---------- --------- -- ------- ------ -<br>--------- ----- -----,937341.1000000238,937340.1999999285,936869.292,936869,936885.959,937355.032,,18,week.
screen,html.Screen,2_3_1_0_1_19,2022-02-15T16:43:00.642Z,,,,,,,,,,,,,,,,,15,,,,,,,,,,,,,,409.4679999999935,,response,,,,7,B,,,,,,Space,keypress(Space),,,,lyrical,,,,---- --------- ---------- - --- ------- -- --- ------------<br>----- -- -------- ------- ---- ------ - -------- ---- -----<br>His ------- ---- -- --- -------- --- - ----- ------ ---- --<br>-------- --- -------- -------- --- -------- ---- -- ----- -<br>-------- ---- --- ---------- --------- -- ------- ------ -<br>--------- ----- -----,937765.1999999285,937764.5,937338.365,937341.1999999285,937355.032,937773.132,,19,His
screen,html.Screen,2_3_1_0_1_20,2022-02-15T16:43:01.017Z,,,,,,,,,,,,,,,,,15,,,,,,,,,,,,,,366.86800000001676,,response,,,,7,B,,,,,,Space,keypress(Space),,,,lyrical,,,,---- --------- ---------- - --- ------- -- --- ------------<br>----- -- -------- ------- ---- ------ - -------- ---- -----<br>--- lawyers ---- -- --- -------- --- - ----- ------ ---- --<br>-------- --- -------- -------- --- -------- ---- -- ----- -<br>-------- ---- --- ---------- --------- -- ------- ------ -<br>--------- ----- -----,938140.7999999523,938140,937756.465,937765.2999999523,937773.132,938157.344,,20,lawyers
screen,html.Screen,2_3_1_0_1_21,2022-02-15T16:43:01.426Z,,,,,,,,,,,,,,,,,15,,,,,,,,,,,,,,390.85599992843345,,response,,,,7,B,,,,,,Space,keypress(Space),,,,lyrical,,,,---- --------- ---------- - --- ------- -- --- ------------<br>----- -- -------- ------- ---- ------ - -------- ---- -----<br>--- ------- said -- --- -------- --- - ----- ------ ---- --<br>-------- --- -------- -------- --- -------- ---- -- ----- -<br>-------- ---- --- ---------- --------- -- ------- ------ -<br>--------- ----- -----,938549.6000000238,938548.1999999285,938140.677,938140.8999999762,938157.344,938558.919,,21,said
screen,html.Screen,2_3_1_0_1_22,2022-02-15T16:43:01.809Z,,,,,,,,,,,,,,,,,15,,,,,,,,,,,,,,373.0810000000056,,response,,,,7,B,,,,,,Space,keypress(Space),,,,lyrical,,,,---- --------- ---------- - --- ------- -- --- ------------<br>----- -- -------- ------- ---- ------ - -------- ---- -----<br>--- ------- ---- he --- -------- --- - ----- ------ ---- --<br>-------- --- -------- -------- --- -------- ---- -- ----- -<br>-------- ---- --- ---------- --------- -- ------- ------ -<br>--------- ----- -----,938932.7999999523,938932,938542.252,938549.7999999523,938558.919,938943.08,,22,he
screen,html.Screen,2_3_1_0_1_23,2022-02-15T16:43:02.201Z,,,,,,,,,,,,,,,,,15,,,,,,,,,,,,,,380.81999997620005,,response,,,,7,B,,,,,,Space,keypress(Space),,,,lyrical,,,,---- --------- ---------- - --- ------- -- --- ------------<br>----- -- -------- ------- ---- ------ - -------- ---- -----<br>--- ------- ---- -- was -------- --- - ----- ------ ---- --<br>-------- --- -------- -------- --- -------- ---- -- ----- -<br>-------- ---- --- ---------- --------- -- ------- ------ -<br>--------- ----- -----,939324.7999999523,939323.8999999762,938926.413,938932.8999999762,938943.08,939327.958,,23,was
screen,html.Screen,2_3_1_0_1_24,2022-02-15T16:43:02.681Z,,,,,,,,,,,,,,,,,15,,,,,,,,,,,,,,476.04200000001583,,response,,,,7,B,,,,,,Space,keypress(Space),,,,lyrical,,,,---- --------- ---------- - --- ------- -- --- ------------<br>----- -- -------- ------- ---- ------ - -------- ---- -----<br>--- ------- ---- -- --- prepared --- - ----- ------ ---- --<br>-------- --- -------- -------- --- -------- ---- -- ----- -<br>-------- ---- --- ---------- --------- -- ------- ------ -<br>--------- ----- -----,939804.7999999523,939804,939311.291,939324.7999999523,939327.958,939812.076,,24,prepared
screen,html.Screen,2_3_1_0_1_25,2022-02-15T16:43:03.073Z,,,,,,,,,,,,,,,,,15,,,,,,,,,,,,,,383.92399999999907,,response,,,,7,B,,,,,,Space,keypress(Space),,,,lyrical,,,,---- --------- ---------- - --- ------- -- --- ------------<br>----- -- -------- ------- ---- ------ - -------- ---- -----<br>--- ------- ---- -- --- -------- for - ----- ------ ---- --<br>-------- --- -------- -------- --- -------- ---- -- ----- -<br>-------- ---- --- ---------- --------- -- ------- ------ -<br>--------- ----- -----,940196.6999999285,940196,939795.409,939804.8999999762,939812.076,940213.671,,25,for
screen,html.Screen,2_3_1_0_1_26,2022-02-15T16:43:03.457Z,,,,,,,,,,,,,,,,,15,,,,,,,,,,,,,,366.329000000027,,response,,,,7,B,,,,,,Space,keypress(Space),,,,lyrical,,,,---- --------- ---------- - --- ------- -- --- ------------<br>----- -- -------- ------- ---- ------ - -------- ---- -----<br>--- ------- ---- -- --- -------- --- a ----- ------ ---- --<br>-------- --- -------- -------- --- -------- ---- -- ----- -<br>-------- ---- --- ---------- --------- -- ------- ------ -<br>--------- ----- -----,940580.7999999523,940580,940197.004,940196.7999999523,940213.671,940581.976,,26,a
screen,html.Screen,2_3_1_0_1_27,2022-02-15T16:43:03.833Z,,,,,,,,,,,,,,,,,15,,,,,,,,,,,,,,374.0239999999758,,response,,,,7,B,,,,,,Space,keypress(Space),,,,lyrical,,,,---- --------- ---------- - --- ------- -- --- ------------<br>----- -- -------- ------- ---- ------ - -------- ---- -----<br>--- ------- ---- -- --- -------- --- - third ------ ---- --<br>-------- --- -------- -------- --- -------- ---- -- ----- -<br>-------- ---- --- ---------- --------- -- ------- ------ -<br>--------- ----- -----,940956.6999999285,940956,940565.309,940580.7999999523,940581.976,940966.156,,27,third
screen,html.Screen,2_3_1_0_1_28,2022-02-15T16:43:04.321Z,,,,,,,,,,,,,,,,,15,,,,,,,,,,,,,,477.7439999761991,,response,,,,7,B,,,,,,Space,keypress(Space),,,,lyrical,,,,---- --------- ---------- - --- ------- -- --- ------------<br>----- -- -------- ------- ---- ------ - -------- ---- -----<br>--- ------- ---- -- --- -------- --- - ----- prison ---- --<br>-------- --- -------- -------- --- -------- ---- -- ----- -<br>-------- ---- --- ---------- --------- -- ------- ------ -<br>--------- ----- -----,941444.7999999523,941443.8999999762,940949.489,940956.7999999523,940966.156,941450.311,,28,prison
screen,html.Screen,2_3_1_0_1_29,2022-02-15T16:43:05.289Z,,,,,,,,,,,,,,,,,15,,,,,,,,,,,,,,961.689000000013,,response,,,,7,B,,,,,,Space,keypress(Space),,,,lyrical,,,,---- --------- ---------- - --- ------- -- --- ------------<br>----- -- -------- ------- ---- ------ - -------- ---- -----<br>--- ------- ---- -- --- -------- --- - ----- ------ stay --<br>-------- --- -------- -------- --- -------- ---- -- ----- -<br>-------- ---- --- ---------- --------- -- ------- ------ -<br>--------- ----- -----,942412.8999999762,942412,941433.644,941444.8999999762,941450.311,942418.541,,29,stay
screen,html.Screen,2_3_1_0_1_30,2022-02-15T16:43:05.706Z,,,,,,,,,,,,,,,,,15,,,,,,,,,,,,,,409.6589999285061,,response,,,,7,B,,,,,,Space,keypress(Space),,,,lyrical,,,,---- --------- ---------- - --- ------- -- --- ------------<br>----- -- -------- ------- ---- ------ - -------- ---- -----<br>--- ------- ---- -- --- -------- --- - ----- ------ ---- to<br>-------- --- -------- -------- --- -------- ---- -- ----- -<br>-------- ---- --- ---------- --------- -- ------- ------ -<br>--------- ----- -----,942829.3999999762,942828.1999999285,942401.874,942413.1000000238,942418.541,942838.272,,30,to
screen,html.Screen,2_3_1_0_1_31,2022-02-15T16:43:06.362Z,,,,,,,,,,,,,,,,,15,,,,,,,,,,,,,,645.9279999284772,,response,,,,7,B,,,,,,Space,keypress(Space),,,,lyrical,,,,---- --------- ---------- - --- ------- -- --- ------------<br>----- -- -------- ------- ---- ------ - -------- ---- -----<br>--- ------- ---- -- --- -------- --- - ----- ------ ---- --<br>maintain --- -------- -------- --- -------- ---- -- ----- -<br>-------- ---- --- ---------- --------- -- ------- ------ -<br>--------- ----- -----,943485.6999999285,943484.1999999285,942821.605,942829.6000000238,942838.272,943489.821,,31,maintain
screen,html.Screen,2_3_1_0_1_32,2022-02-15T16:43:06.753Z,,,,,,,,,,,,,,,,,15,,,,,,,,,,,,,,386.1790000000037,,response,,,,7,B,,,,,,Space,keypress(Space),,,,lyrical,,,,---- --------- ---------- - --- ------- -- --- ------------<br>----- -- -------- ------- ---- ------ - -------- ---- -----<br>--- ------- ---- -- --- -------- --- - ----- ------ ---- --<br>-------- his -------- -------- --- -------- ---- -- ----- -<br>-------- ---- --- ---------- --------- -- ------- ------ -<br>--------- ----- -----,943876.7999999523,943876,943473.154,943485.8999999762,943489.821,943892.157,,32,his
screen,html.Screen,2_3_1_0_1_33,2022-02-15T16:43:07.106Z,,,,,,,,,,,,,,,,,15,,,,,,,,,,,,,,335.94300002383534,,response,,,,7,B,,,,,,Space,keypress(Space),,,,lyrical,,,,---- --------- ---------- - --- ------- -- --- ------------<br>----- -- -------- ------- ---- ------ - -------- ---- -----<br>--- ------- ---- -- --- -------- --- - ----- ------ ---- --<br>-------- --- silence. -------- --- -------- ---- -- ----- -<br>-------- ---- --- ---------- --------- -- ------- ------ -<br>--------- ----- -----,944229.6000000238,944228.1000000238,943875.49,943877,943892.157,944243.024,,33,silence.
screen,html.Screen,2_3_1_0_1_34,2022-02-15T16:43:07.906Z,,,,,,,,,,,,,,,,,15,,,,,,,,,,,,,,784.9760000000242,,response,,,,7,B,,,,,,Space,keypress(Space),,,,lyrical,,,,---- --------- ---------- - --- ------- -- --- ------------<br>----- -- -------- ------- ---- ------ - -------- ---- -----<br>--- ------- ---- -- --- -------- --- - ----- ------ ---- --<br>-------- --- -------- Anderson --- -------- ---- -- ----- -<br>-------- ---- --- ---------- --------- -- ------- ------ -<br>--------- ----- -----,945029.2999999523,945028,944226.357,944229.6999999285,944243.024,945043.826,,34,Anderson
screen,html.Screen,2_3_1_0_1_35,2022-02-15T16:43:08.233Z,,,,,,,,,,,,,,,,,15,,,,,,,,,,,,,,312.0739999761572,,response,,,,7,B,,,,,,Space,keypress(Space),,,,lyrical,,,,---- --------- ---------- - --- ------- -- --- ------------<br>----- -- -------- ------- ---- ------ - -------- ---- -----<br>--- ------- ---- -- --- -------- --- - ----- ------ ---- --<br>-------- --- -------- -------- was -------- ---- -- ----- -<br>-------- ---- --- ---------- --------- -- ------- ------ -<br>--------- ----- -----,945356.6999999285,945355.8999999762,945027.159,945029.3999999762,945043.826,945363.562,,35,was
screen,html.Screen,2_3_1_0_1_36,2022-02-15T16:43:08.521Z,,,,,,,,,,,,,,,,,15,,,,,,,,,,,,,,280.43799999996554,,response,,,,7,B,,,,,,Space,keypress(Space),,,,lyrical,,,,---- --------- ---------- - --- ------- -- --- ------------<br>----- -- -------- ------- ---- ------ - -------- ---- -----<br>--- ------- ---- -- --- -------- --- - ----- ------ ---- --<br>-------- --- -------- -------- --- released ---- -- ----- -<br>-------- ---- --- ---------- --------- -- ------- ------ -<br>--------- ----- -----,945644.7999999523,945644,945346.895,945356.8999999762,945363.562,945647.717,,36,released
screen,html.Screen,2_3_1_0_1_37,2022-02-15T16:43:08.809Z,,,,,,,,,,,,,,,,,15,,,,,,,,,,,,,,284.283000000054,,response,,,,7,B,,,,,,Space,keypress(Space),,,,lyrical,,,,---- --------- ---------- - --- ------- -- --- ------------<br>----- -- -------- ------- ---- ------ - -------- ---- -----<br>--- ------- ---- -- --- -------- --- - ----- ------ ---- --<br>-------- --- -------- -------- --- -------- July -- ----- -<br>-------- ---- --- ---------- --------- -- ------- ------ -<br>--------- ----- -----,945932.7999999523,945932,945631.05,945644.8999999762,945647.717,945948.465,,37,July
screen,html.Screen,2_3_1_0_1_38,2022-02-15T16:43:09.121Z,,,,,,,,,,,,,,,,,15,,,,,,,,,,,,,,295.5350000000326,,response,,,,7,B,,,,,,Space,keypress(Space),,,,lyrical,,,,---- --------- ---------- - --- ------- -- --- ------------<br>----- -- -------- ------- ---- ------ - -------- ---- -----<br>--- ------- ---- -- --- -------- --- - ----- ------ ---- --<br>-------- --- -------- -------- --- -------- ---- 20 ----- -<br>-------- ---- --- ---------- --------- -- ------- ------ -<br>--------- ----- -----,946244.7999999523,946244,945931.798,945933,945948.465,946249.291,,38,20
screen,html.Screen,2_3_1_0_1_39,2022-02-15T16:43:09.641Z,,,,,,,,,,,,,,,,,15,,,,,,,,,,,,,,514.7090000000317,,response,,,,7,B,,,,,,Space,keypress(Space),,,,lyrical,,,,---- --------- ---------- - --- ------- -- --- ------------<br>----- -- -------- ------- ---- ------ - -------- ---- -----<br>--- ------- ---- -- --- -------- --- - ----- ------ ---- --<br>-------- --- -------- -------- --- -------- ---- -- after -<br>-------- ---- --- ---------- --------- -- ------- ------ -<br>--------- ----- -----,946764.7999999523,946764,946232.624,946244.8999999762,946249.291,946766.735,,39,after
screen,html.Screen,2_3_1_0_1_40,2022-02-15T16:43:10.189Z,,,,,,,,,,,,,,,,,15,,,,,,,,,,,,,,549.265000000014,,response,,,,7,B,,,,,,Space,keypress(Space),,,,lyrical,,,,---- --------- ---------- - --- ------- -- --- ------------<br>----- -- -------- ------- ---- ------ - -------- ---- -----<br>--- ------- ---- -- --- -------- --- - ----- ------ ---- --<br>-------- --- -------- -------- --- -------- ---- -- ----- a<br>-------- ---- --- ---------- --------- -- ------- ------ -<br>--------- ----- -----,947316.6999999285,947316,946750.068,946764.8999999762,946766.735,947318.291,,40,a
screen,html.Screen,2_3_1_0_1_41,2022-02-15T16:43:10.878Z,,,,,,,,,,,,,,,,,15,,,,,,,,,,,,,,686.1089999761898,,response,,,,7,B,,,,,,Space,keypress(Space),,,,lyrical,,,,---- --------- ---------- - --- ------- -- --- ------------<br>----- -- -------- ------- ---- ------ - -------- ---- -----<br>--- ------- ---- -- --- -------- --- - ----- ------ ---- --<br>-------- --- -------- -------- --- -------- ---- -- ----- -<br>two-week ---- --- ---------- --------- -- ------- ------ -<br>--------- ----- -----,948005.1999999285,948004.3999999762,947301.624,947316.7999999523,947318.291,948020.641,,41,two-week
