sender,sender_type,sender_id,timestamp,meta,,Blues,Classical,Country,Dance,Electronic,Folk,Gospel,Hip-Hop,Jazz,Latin,Musical/Film,New-age,Pop,Prolific_id,Provo_ID,R&B,Rap,Reggae,Religious,Rock,Soul,Swing,Traditional,age,artist_name,correct,correctResponse,distraction,duration,education,ended_on,familiarity,gender,headphone_check_performance,item,list,music_frequency,offensiveness,pleasantness,position_correct,preference,response,response_action,snippet_file,song_name,song_rating,sound,stimulus_1,stimulus_2,stimulus_3,text,time_commit,time_end,time_render,time_run,time_show,time_switch,url,word,word_ID
Prolific ID,html.Form,0,2022-02-03T14:34:06.131Z,"{""labjs_version"":""20.2.2"",""labjs_build"":{""flavor"":""production"",""commit"":""a25486e0c714a0ae2ce03ff94b7bb6896854dcfa""},""location"":""https://run.pavlovia.org/mvasilev/prolific2_music_a/"",""userAgent"":""Mozilla/5.0 (Windows NT 10.0; Win64; x64) AppleWebKit/537.36 (KHTML, like Gecko) Chrome/97.0.4692.99 Safari/537.36 Edg/97.0.1072.76"",""platform"":""Win32"",""language"":""en-GB"",""locale"":""en-GB"",""timeZone"":""Europe/London"",""timezoneOffset"":0,""screen_width"":1280,""screen_height"":720,""scroll_width"":1280,""scroll_height"":561,""window_innerWidth"":1280,""window_innerHeight"":609,""devicePixelRatio"":1.5}",,,,,,,,,,,,,,,6019bf90350fae16d35d4119,,,,,,,,,,,,,,,7426.254999976158,,form submission,,,,,,,,,,,,,,,,,,,,,33239.10000002384,33237.39999997616,25764.554,25779.899999976158,25811.145,33263.556,{},,
Introduction,html.Screen,1_0,2022-02-03T14:34:26.525Z,,,,,,,,,,,,,,,,,,,,,,,,,,,,,,,20362.84399997616,,response,,,,,,,,,,,continue,click button,,,,,,,,,53633.39999997616,53626.39999997616,33230.532,33240,33263.556,53644.29,,,
Volume calibration,html.Screen,1_1,2022-02-03T14:34:35.922Z,,,,,,,,,,,,,,,,,,,,,,,,,,,,,,,9378.810000023841,,response,,,,,,,,,,,continue,click button,,,,,,,,,63030.60000002384,63023.10000002384,53627.902,53633.800000071526,53644.29,63026.405,,,
Task instructions,html.Screen,1_2,2022-02-03T14:34:37.238Z,,,,,,,,,,,,,,,,,,,,,,,,,,,,,,,1317.8950000715267,,response,,,,,,,,,,,continue,click button,,,,,,,,,64346.60000002384,64344.300000071526,63009.991,63031.200000047684,63026.405,64359.619,,,
Sounds,html.Screen,1_3_0_0,2022-02-03T14:34:41.491Z,,,,,,,,,,,,,,,,,,,,,,,,,,,,,,,4249.370000000003,,timeout,,,,,,,,,2,,,,,,,,O,S,I,,68600,68592.401,64343.179,64347.300000071526,64359.619,68608.989,,,
Judgement,html.Screen,1_3_0_1,2022-02-03T14:34:44.420Z,,,,,,,,,,,,,,,,,,,,,,,,,,,,true,2,,2919.1110000238405,,response,,,,,,,,,2,,2,click #choice-2,,,,,O,S,I,,71528.80000007153,71528.10000002384,68592.401,68600.5,68608.989,71541.779,,,
Trial,flow.Sequence,1_3_0,2022-02-03T14:34:44.422Z,,,,,,,,,,,,,,,,,,,,,,,,,,,,,,,7168.481000023843,,completion,,,,,,,,,2,,,,,,,,O,S,I,,71530.70000004768,71528.10000002384,64343.179,64347.200000047684,64359.619,71541.779,,,
Sounds,html.Screen,1_3_1_0,2022-02-03T14:34:48.668Z,,,,,,,,,,,,,,,,,,,,,,,,,,,,,,,4249.489000000001,,timeout,,,,,,,,,2,,,,,,,,I,S,O,,75776.20000004768,75774.723,71525.192,71531.10000002384,71541.779,75791.268,,,
Judgement,html.Screen,1_3_1_1,2022-02-03T14:34:50.035Z,,,,,,,,,,,,,,,,,,,,,,,,,,,,true,2,,1350.0320000715292,,response,,,,,,,,,2,,2,click #choice-2,,,,,I,S,O,,77143.39999997616,77141.30000007153,75774.723,75776.39999997616,75791.268,77158.153,,,
Trial,flow.Sequence,1_3_1,2022-02-03T14:34:50.035Z,,,,,,,,,,,,,,,,,,,,,,,,,,,,,,,5599.521000071531,,completion,,,,,,,,,2,,,,,,,,I,S,O,,77143.89999997616,77141.30000007153,71525.192,71530.89999997616,71541.779,77158.153,,,
Sounds,html.Screen,1_3_2_0,2022-02-03T14:34:54.284Z,,,,,,,,,,,,,,,,,,,,,,,,,,,,,,,4249.284999999989,,timeout,,,,,,,,,1,,,,,,,,S,O,I,,81393,81390.712,77141.542,77144.30000007153,77158.153,81407.438,,,
Judgement,html.Screen,1_3_2_1,2022-02-03T14:34:55.064Z,,,,,,,,,,,,,,,,,,,,,,,,,,,,true,1,,763.5620000000054,,response,,,,,,,,,1,,1,click #choice-1,,,,,S,O,I,,82172.70000004768,82171,81390.712,81393.30000007153,81407.438,82173.848,,,
Trial,flow.Sequence,1_3_2,2022-02-03T14:34:55.065Z,,,,,,,,,,,,,,,,,,,,,,,,,,,,,,,5012.846999999994,,completion,,,,,,,,,1,,,,,,,,S,O,I,,82173.30000007153,82171,77141.542,77144.10000002384,77158.153,82173.848,,,
Sounds,html.Screen,1_3_3_0,2022-02-03T14:34:59.301Z,,,,,,,,,,,,,,,,,,,,,,,,,,,,,,,4249.493000000002,,timeout,,,,,,,,,3,,,,,,,,O,I,S,,86409.10000002384,86406.858,82157.491,82173.60000002384,82173.848,86423.341,,,
Judgement,html.Screen,1_3_3_1,2022-02-03T14:35:00.108Z,,,,,,,,,,,,,,,,,,,,,,,,,,,,true,3,,792.4590000715252,,response,,,,,,,,,3,,3,click #choice-3,,,,,O,I,S,,87216.89999997616,87215.80000007153,86406.858,86409.39999997616,86423.341,87223.113,,,
Trial,flow.Sequence,1_3_3,2022-02-03T14:35:00.109Z,,,,,,,,,,,,,,,,,,,,,,,,,,,,,,,5041.952000071527,,completion,,,,,,,,,3,,,,,,,,O,I,S,,87217.10000002384,87215.80000007153,82157.491,82173.5,82173.848,87223.113,,,
Sounds,html.Screen,1_3_4_0,2022-02-03T14:35:04.350Z,,,,,,,,,,,,,,,,,,,,,,,,,,,,,,,4249.497000000003,,timeout,,,,,,,,,1,,,,,,,,S,I,O,,91458,91456.286,87206.478,87217.30000007153,87223.113,91472.61,,,
Judgement,html.Screen,1_3_4_1,2022-02-03T14:35:04.935Z,,,,,,,,,,,,,,,,,,,,,,,,,,,,true,1,,569.0900000476831,,response,,,,,,,,,1,,1,click #choice-1,,,,,S,I,O,,92043.5,92041.70000004768,91456.286,91458.30000007153,91472.61,92055.807,,,
Trial,flow.Sequence,1_3_4,2022-02-03T14:35:04.935Z,,,,,,,,,,,,,,,,,,,,,,,,,,,,,,,4818.587000047686,,completion,,,,,,,,,1,,,,,,,,S,I,O,,92044,92041.70000004768,87206.478,87217.20000004768,87223.113,92055.807,,,
Sounds,html.Screen,1_3_5_0,2022-02-03T14:35:09.181Z,,,,,,,,,,,,,,,,,,,,,,,,,,,,,,,4249.414000000004,,timeout,,,,,,,,,3,,,,,,,,I,O,S,,96289.80000007153,96288.59,92039.569,92044.30000007153,92055.807,96305.221,,,
Judgement,html.Screen,1_3_5_1,2022-02-03T14:35:09.745Z,,,,,,,,,,,,,,,,,,,,,,,,,,,,true,3,,545.8790000238369,,response,,,,,,,,,3,,3,click #choice-3,,,,,I,O,S,,96853.39999997616,96851.10000002384,96288.59,96290.10000002384,96305.221,96871.952,,,
Trial,flow.Sequence,1_3_5,2022-02-03T14:35:09.745Z,,,,,,,,,,,,,,,,,,,,,,,,,,,,,,,4795.293000023841,,completion,,,,,,,,,3,,,,,,,,I,O,S,,96853.89999997616,96851.10000002384,92039.569,92044.20000004768,92055.807,96871.952,,,
Task,flow.Loop,1_3,2022-02-03T14:35:09.755Z,,,,,,,,,,,,,,,,,,,,,,,,,,,,,,,32491.481000023843,,completion,,,1,,,,,,,,,,,,,,,,,,96863.89999997616,96851.10000002384,64343.179,64347.10000002384,64359.619,96871.952,,,
Trap,html.Screen,1_4,2022-02-03T14:35:09.758Z,,,,,,,,,,,,,,,,,,,,,,,,,,,,,,,NaN,,skipped,,,,,,,,,,,,,,,,,,,,,96866.80000007153,96851.10000002384,,96866.5,,96871.952,,,
Thanks,html.Screen,1_5,2022-02-03T14:35:12.734Z,,,,,,,,,,,,,,,,,,,,,,,,,,,,,,,2969.248000047679,,response,,,,,,,,,,,continue,click button,,,,,,,,,99842.89999997616,99841.20000004768,96838.948,96867.10000002384,96871.952,102554.362,,,
Headphone screening,flow.Sequence,1,2022-02-03T14:35:12.735Z,,,,,,,,,,,,,,,,,,,,,,,,,,,,,,,66577.64400004769,,completion,,,,,,,,,,,,,,,,,,,,,99843.30000007153,99841.20000004768,33230.532,33239.89999997616,33263.556,102554.362,,,
Instructions,html.Page,2_0,2022-02-03T14:35:33.516Z,,,,,,,,,,,,,,,,,,,,,,,,,,,,,,,18068.638000000006,,form submission,,,,,,,,,,,,,,,,,,,,,120623.80000007153,120623,102537.734,102551.20000004768,102554.362,120635.439,,,
Holding screen,html.Screen,2_1_0_0,2022-02-03T14:35:43.512Z,,,,,,,,,,,,,,,,,,,,,,,,,,,,,,,9998.737999999998,,timeout,,,,,,,,,,,,,,,,,,,,,130620.60000002384,130618.104,120618.779,120624.20000004768,120635.439,130634.177,,,
screen,html.Screen,2_1_0_1_0,2022-02-03T14:35:44.328Z,,,,,,,,,,,,,,,,,53,,,,,,,,,,,,,,797.6230000715295,,response,,,,99,,,,,,,Space,keypress(Space),,,,,,,,When -- ----- -- ------ - ------- --- ----------<br>------------- ------ ------ ---- ---- ------- ----- -- ----<br>-------- ------- -- ---------- --- - --- ----- ----- ----<br>---- --- --- ----- --- ---- ---- ------- ----- ---- -------<br>--- --- -- ----- -- --- ---- -- --- ---- -- ------ ------<br>--- ----- -- ----,131436.5,131431.80000007153,130618.104,130622.80000007153,130634.177,131450.732,,0,When
screen,html.Screen,2_1_0_1_1,2022-02-03T14:35:44.751Z,,,,,,,,,,,,,,,,,53,,,,,,,,,,,,,,407.1679999761691,,response,,,,99,,,,,,,Space,keypress(Space),,,,,,,,---- it ----- -- ------ - ------- --- ----------<br>------------- ------ ------ ---- ---- ------- ----- -- ----<br>-------- ------- -- ---------- --- - --- ----- ----- ----<br>---- --- --- ----- --- ---- ---- ------- ----- ---- -------<br>--- --- -- ----- -- --- ---- -- --- ---- -- ------ ------<br>--- ----- -- ----,131859,131857.89999997616,131434.075,131436.80000007153,131450.732,131867.669,,1,it
screen,html.Screen,2_1_0_1_2,2022-02-03T14:35:45.131Z,,,,,,,,,,,,,,,,,53,,,,,,,,,,,,,,370.8310000000056,,response,,,,99,,,,,,,Space,keypress(Space),,,,,,,,---- -- comes -- ------ - ------- --- ----------<br>------------- ------ ------ ---- ---- ------- ----- -- ----<br>-------- ------- -- ---------- --- - --- ----- ----- ----<br>---- --- --- ----- --- ---- ---- ------- ----- ---- -------<br>--- --- -- ----- -- --- ---- -- --- ---- -- ------ ------<br>--- ----- -- ----,132239.20000004768,132238.5,131850.687,131859.30000007153,131867.669,132250.57,,2,comes
screen,html.Screen,2_1_0_1_3,2022-02-03T14:35:45.477Z,,,,,,,,,,,,,,,,,53,,,,,,,,,,,,,,333.63000004767673,,response,,,,99,,,,,,,Space,keypress(Space),,,,,,,,---- -- ----- to ------ - ------- --- ----------<br>------------- ------ ------ ---- ---- ------- ----- -- ----<br>-------- ------- -- ---------- --- - --- ----- ----- ----<br>---- --- --- ----- --- ---- ---- ------- ----- ---- -------<br>--- --- -- ----- -- --- ---- -- --- ---- -- ------ ------<br>--- ----- -- ----,132585.60000002384,132584.20000004768,132234.206,132239.39999997616,132250.57,132600.502,,3,to
screen,html.Screen,2_1_0_1_4,2022-02-03T14:35:45.816Z,,,,,,,,,,,,,,,,,53,,,,,,,,,,,,,,323.0980000238342,,response,,,,99,,,,,,,Space,keypress(Space),,,,,,,,---- -- ----- -- having - ------- --- ----------<br>------------- ------ ------ ---- ---- ------- ----- -- ----<br>-------- ------- -- ---------- --- - --- ----- ----- ----<br>---- --- --- ----- --- ---- ---- ------- ----- ---- -------<br>--- --- -- ----- -- --- ---- -- --- ---- -- ------ ------<br>--- ----- -- ----,132924.30000007153,132923.60000002384,132584.27,132585.89999997616,132600.502,132933.809,,4,having
screen,html.Screen,2_1_0_1_5,2022-02-03T14:35:46.140Z,,,,,,,,,,,,,,,,,53,,,,,,,,,,,,,,313.59099997614976,,response,,,,99,,,,,,,Space,keypress(Space),,,,,,,,---- -- ----- -- ------ a ------- --- ----------<br>------------- ------ ------ ---- ---- ------- ----- -- ----<br>-------- ------- -- ---------- --- - --- ----- ----- ----<br>---- --- --- ----- --- ---- ---- ------- ----- ---- -------<br>--- --- -- ----- -- --- ---- -- --- ---- -- ------ ------<br>--- ----- -- ----,133247.89999997616,133247.39999997616,132917.202,132924.39999997616,132933.809,133250.339,,5,a
screen,html.Screen,2_1_0_1_6,2022-02-03T14:35:46.505Z,,,,,,,,,,,,,,,,,53,,,,,,,,,,,,,,362.6609999999928,,response,,,,99,,,,,,,Space,keypress(Space),,,,,,,,---- -- ----- -- ------ - lasting --- ----------<br>------------- ------ ------ ---- ---- ------- ----- -- ----<br>-------- ------- -- ---------- --- - --- ----- ----- ----<br>---- --- --- ----- --- ---- ---- ------- ----- ---- -------<br>--- --- -- ----- -- --- ---- -- --- ---- -- ------ ------<br>--- ----- -- ----,133613.70000004768,133613,133233.687,133248.10000002384,133250.339,133616.994,,6,lasting
screen,html.Screen,2_1_0_1_7,2022-02-03T14:35:46.876Z,,,,,,,,,,,,,,,,,53,,,,,,,,,,,,,,366.70600004767766,,response,,,,99,,,,,,,Space,keypress(Space),,,,,,,,---- -- ----- -- ------ - ------- and ----------<br>------------- ------ ------ ---- ---- ------- ----- -- ----<br>-------- ------- -- ---------- --- - --- ----- ----- ----<br>---- --- --- ----- --- ---- ---- ------- ----- ---- -------<br>--- --- -- ----- -- --- ---- -- --- ---- -- ------ ------<br>--- ----- -- ----,133984.39999997616,133983.70000004768,133600.357,133613.80000007153,133616.994,134000.436,,7,and
screen,html.Screen,2_1_0_1_8,2022-02-03T14:35:47.247Z,,,,,,,,,,,,,,,,,53,,,,,,,,,,,,,,354.56400000001304,,response,,,,99,,,,,,,Space,keypress(Space),,,,,,,,---- -- ----- -- ------ - ------- --- fulfilling<br>------------- ------ ------ ---- ---- ------- ----- -- ----<br>-------- ------- -- ---------- --- - --- ----- ----- ----<br>---- --- --- ----- --- ---- ---- ------- ----- ---- -------<br>--- --- -- ----- -- --- ---- -- --- ---- -- ------ ------<br>--- ----- -- ----,134355.70000004768,134355,133983.641,133984.5,134000.436,134366.964,,8,fulfilling
screen,html.Screen,2_1_0_1_9,2022-02-03T14:35:47.558Z,,,,,,,,,,,,,,,,,53,,,,,,,,,,,,,,298.83600007151836,,response,,,,99,,,,,,,Space,keypress(Space),,,,,,,,"---- -- ----- -- ------ - ------- --- ----------<br>relationship, ------ ------ ---- ---- ------- ----- -- ----<br>-------- ------- -- ---------- --- - --- ----- ----- ----<br>---- --- --- ----- --- ---- ---- ------- ----- ---- -------<br>--- --- -- ----- -- --- ---- -- --- ---- -- ------ ------<br>--- ----- -- ----",134666.70000004768,134665.80000007153,134350.259,134355.80000007153,134366.964,134683.872,,9,"relationship,"
screen,html.Screen,2_1_0_1_10,2022-02-03T14:35:47.895Z,,,,,,,,,,,,,,,,,53,,,,,,,,,,,,,,318.22800002383883,,response,,,,99,,,,,,,Space,keypress(Space),,,,,,,,---- -- ----- -- ------ - ------- --- ----------<br>------------- common ------ ---- ---- ------- ----- -- ----<br>-------- ------- -- ---------- --- - --- ----- ----- ----<br>---- --- --- ----- --- ---- ---- ------- ----- ---- -------<br>--- --- -- ----- -- --- ---- -- --- ---- -- ------ ------<br>--- ----- -- ----,135002.89999997616,135002.10000002384,134666.903,134666.89999997616,134683.872,135016.876,,10,common
screen,html.Screen,2_1_0_1_11,2022-02-03T14:35:48.186Z,,,,,,,,,,,,,,,,,53,,,,,,,,,,,,,,276.9240000715363,,response,,,,99,,,,,,,Space,keypress(Space),,,,,,,,---- -- ----- -- ------ - ------- --- ----------<br>------------- ------ wisdom ---- ---- ------- ----- -- ----<br>-------- ------- -- ---------- --- - --- ----- ----- ----<br>---- --- --- ----- --- ---- ---- ------- ----- ---- -------<br>--- --- -- ----- -- --- ---- -- --- ---- -- ------ ------<br>--- ----- -- ----,135294.5,135293.80000007153,135000.149,135003,135016.876,135300.395,,11,wisdom
screen,html.Screen,2_1_0_1_12,2022-02-03T14:35:48.524Z,,,,,,,,,,,,,,,,,53,,,,,,,,,,,,,,331.5049999761686,,response,,,,99,,,,,,,Space,keypress(Space),,,,,,,,---- -- ----- -- ------ - ------- --- ----------<br>------------- ------ ------ says ---- ------- ----- -- ----<br>-------- ------- -- ---------- --- - --- ----- ----- ----<br>---- --- --- ----- --- ---- ---- ------- ----- ---- -------<br>--- --- -- ----- -- --- ---- -- --- ---- -- ------ ------<br>--- ----- -- ----,135632.5,135631.89999997616,135283.473,135294.60000002384,135300.395,135650.099,,12,says
screen,html.Screen,2_1_0_1_13,2022-02-03T14:35:48.898Z,,,,,,,,,,,,,,,,,53,,,,,,,,,,,,,,355.8009999761707,,response,,,,99,,,,,,,Space,keypress(Space),,,,,,,,---- -- ----- -- ------ - ------- --- ----------<br>------------- ------ ------ ---- that ------- ----- -- ----<br>-------- ------- -- ---------- --- - --- ----- ----- ----<br>---- --- --- ----- --- ---- ---- ------- ----- ---- -------<br>--- --- -- ----- -- --- ---- -- --- ---- -- ------ ------<br>--- ----- -- ----,136006.60000002384,136005.89999997616,135616.777,135632.60000002384,135650.099,136016.741,,13,that
screen,html.Screen,2_1_0_1_14,2022-02-03T14:35:49.675Z,,,,,,,,,,,,,,,,,53,,,,,,,,,,,,,,765.4590000476746,,response,,,,99,,,,,,,Space,keypress(Space),,,,,,,,---- -- ----- -- ------ - ------- --- ----------<br>------------- ------ ------ ---- ---- feeling ----- -- ----<br>-------- ------- -- ---------- --- - --- ----- ----- ----<br>---- --- --- ----- --- ---- ---- ------- ----- ---- -------<br>--- --- -- ----- -- --- ---- -- --- ---- -- ------ ------<br>--- ----- -- ----,136782.80000007153,136782.20000004768,136000.001,136006.70000004768,136016.741,136799.921,,14,feeling
screen,html.Screen,2_1_0_1_15,2022-02-03T14:35:50.935Z,,,,,,,,,,,,,,,,,53,,,,,,,,,,,,,,1242.1790000238398,,response,,,,99,,,,,,,Space,keypress(Space),,,,,,,,---- -- ----- -- ------ - ------- --- ----------<br>------------- ------ ------ ---- ---- ------- close -- ----<br>-------- ------- -- ---------- --- - --- ----- ----- ----<br>---- --- --- ----- --- ---- ---- ------- ----- ---- -------<br>--- --- -- ----- -- --- ---- -- --- ---- -- ------ ------<br>--- ----- -- ----,138042.89999997616,138042.10000002384,136783.273,136783,136799.921,138049.735,,15,close
screen,html.Screen,2_1_0_1_16,2022-02-03T14:35:51.267Z,,,,,,,,,,,,,,,,,53,,,,,,,,,,,,,,324.3650000238558,,response,,,,99,,,,,,,Space,keypress(Space),,,,,,,,---- -- ----- -- ------ - ------- --- ----------<br>------------- ------ ------ ---- ---- ------- ----- to ----<br>-------- ------- -- ---------- --- - --- ----- ----- ----<br>---- --- --- ----- --- ---- ---- ------- ----- ---- -------<br>--- --- -- ----- -- --- ---- -- --- ---- -- ------ ------<br>--- ----- -- ----,138374.80000007153,138374.10000002384,138033.104,138043.10000002384,138049.735,138383.108,,16,to
screen,html.Screen,2_1_0_1_17,2022-02-03T14:35:51.594Z,,,,,,,,,,,,,,,,,53,,,,,,,,,,,,,,318.4920000238344,,response,,,,99,,,,,,,Space,keypress(Space),,,,,,,,---- -- ----- -- ------ - ------- --- ----------<br>------------- ------ ------ ---- ---- ------- ----- -- your<br>-------- ------- -- ---------- --- - --- ----- ----- ----<br>---- --- --- ----- --- ---- ---- ------- ----- ---- -------<br>--- --- -- ----- -- --- ---- -- --- ---- -- ------ ------<br>--- ----- -- ----,138702.60000002384,138701.60000002384,138366.42,138375,138383.108,138716.791,,17,your
screen,html.Screen,2_1_0_1_18,2022-02-03T14:35:51.897Z,,,,,,,,,,,,,,,,,53,,,,,,,,,,,,,,287.3090000238444,,response,,,,99,,,,,,,Space,keypress(Space),,,,,,,,---- -- ----- -- ------ - ------- --- ----------<br>------------- ------ ------ ---- ---- ------- ----- -- ----<br>romantic ------- -- ---------- --- - --- ----- ----- ----<br>---- --- --- ----- --- ---- ---- ------- ----- ---- -------<br>--- --- -- ----- -- --- ---- -- --- ---- -- ------ ------<br>--- ----- -- ----,139005.10000002384,139004.10000002384,138700.095,138702.80000007153,138716.791,139016.477,,18,romantic
screen,html.Screen,2_1_0_1_19,2022-02-03T14:35:52.154Z,,,,,,,,,,,,,,,,,53,,,,,,,,,,,,,,245.2230000476702,,response,,,,99,,,,,,,Space,keypress(Space),,,,,,,,---- -- ----- -- ------ - ------- --- ----------<br>------------- ------ ------ ---- ---- ------- ----- -- ----<br>-------- partner -- ---------- --- - --- ----- ----- ----<br>---- --- --- ----- --- ---- ---- ------- ----- ---- -------<br>--- --- -- ----- -- --- ---- -- --- ---- -- ------ ------<br>--- ----- -- ----,139262.70000004768,139261.70000004768,138999.965,139005.39999997616,139016.477,139266.286,,19,partner
screen,html.Screen,2_1_0_1_20,2022-02-03T14:35:52.417Z,,,,,,,,,,,,,,,,,53,,,,,,,,,,,,,,257.61399997616536,,response,,,,99,,,,,,,Space,keypress(Space),,,,,,,,---- -- ----- -- ------ - ------- --- ----------<br>------------- ------ ------ ---- ---- ------- ----- -- ----<br>-------- ------- is ---------- --- - --- ----- ----- ----<br>---- --- --- ----- --- ---- ---- ------- ----- ---- -------<br>--- --- -- ----- -- --- ---- -- --- ---- -- ------ ------<br>--- ----- -- ----,139524.89999997616,139523.89999997616,139249.693,139263,139266.286,139532.94,,20,is
screen,html.Screen,2_1_0_1_21,2022-02-03T14:35:52.665Z,,,,,,,,,,,,,,,,,53,,,,,,,,,,,,,,239.05999999999767,,response,,,,99,,,,,,,Space,keypress(Space),,,,,,,,---- -- ----- -- ------ - ------- --- ----------<br>------------- ------ ------ ---- ---- ------- ----- -- ----<br>-------- ------- -- paramount. --- - --- ----- ----- ----<br>---- --- --- ----- --- ---- ---- ------- ----- ---- -------<br>--- --- -- ----- -- --- ---- -- --- ---- -- ------ ------<br>--- ----- -- ----,139773.10000002384,139772,139516.637,139525.20000004768,139532.94,139783.105,,21,paramount.
screen,html.Screen,2_1_0_1_22,2022-02-03T14:35:52.951Z,,,,,,,,,,,,,,,,,53,,,,,,,,,,,,,,275.3949999999895,,response,,,,99,,,,,,,Space,keypress(Space),,,,,,,,---- -- ----- -- ------ - ------- --- ----------<br>------------- ------ ------ ---- ---- ------- ----- -- ----<br>-------- ------- -- ---------- But - --- ----- ----- ----<br>---- --- --- ----- --- ---- ---- ------- ----- ---- -------<br>--- --- -- ----- -- --- ---- -- --- ---- -- ------ ------<br>--- ----- -- ----,140059.60000002384,140058.5,139766.584,139773.39999997616,139783.105,140066.211,,22,But
screen,html.Screen,2_1_0_1_23,2022-02-03T14:35:53.252Z,,,,,,,,,,,,,,,,,53,,,,,,,,,,,,,,292.8890000238316,,response,,,,99,,,,,,,Space,keypress(Space),,,,,,,,---- -- ----- -- ------ - ------- --- ----------<br>------------- ------ ------ ---- ---- ------- ----- -- ----<br>-------- ------- -- ---------- --- a --- ----- ----- ----<br>---- --- --- ----- --- ---- ---- ------- ----- ---- -------<br>--- --- -- ----- -- --- ---- -- --- ---- -- ------ ------<br>--- ----- -- ----,140360.30000007153,140359.10000002384,140049.834,140059.89999997616,140066.211,140366.125,,23,a
screen,html.Screen,2_1_0_1_24,2022-02-03T14:35:53.451Z,,,,,,,,,,,,,,,,,53,,,,,,,,,,,,,,192.27499997615814,,response,,,,99,,,,,,,Space,keypress(Space),,,,,,,,---- -- ----- -- ------ - ------- --- ----------<br>------------- ------ ------ ---- ---- ------- ----- -- ----<br>-------- ------- -- ---------- --- - new ----- ----- ----<br>---- --- --- ----- --- ---- ---- ------- ----- ---- -------<br>--- --- -- ----- -- --- ---- -- --- ---- -- ------ ------<br>--- ----- -- ----,140558.89999997616,140558.39999997616,140349.786,140360.60000002384,140366.125,140566.523,,24,new
screen,html.Screen,2_1_0_1_25,2022-02-03T14:35:53.638Z,,,,,,,,,,,,,,,,,53,,,,,,,,,,,,,,178.37699997617165,,response,,,,99,,,,,,,Space,keypress(Space),,,,,,,,---- -- ----- -- ------ - ------- --- ----------<br>------------- ------ ------ ---- ---- ------- ----- -- ----<br>-------- ------- -- ---------- --- - --- study ----- ----<br>---- --- --- ----- --- ---- ---- ------- ----- ---- -------<br>--- --- -- ----- -- --- ---- -- --- ---- -- ------ ------<br>--- ----- -- ----,140745.89999997616,140744.89999997616,140549.901,140559,140566.523,140749.383,,25,study
screen,html.Screen,2_1_0_1_26,2022-02-03T14:35:53.898Z,,,,,,,,,,,,,,,,,53,,,,,,,,,,,,,,256.2170000238402,,response,,,,99,,,,,,,Space,keypress(Space),,,,,,,,---- -- ----- -- ------ - ------- --- ----------<br>------------- ------ ------ ---- ---- ------- ----- -- ----<br>-------- ------- -- ---------- --- - --- ----- finds ----<br>---- --- --- ----- --- ---- ---- ------- ----- ---- -------<br>--- --- -- ----- -- --- ---- -- --- ---- -- ------ ------<br>--- ----- -- ----,141006.70000004768,141005.60000002384,140733.224,140746.20000004768,140749.383,141016.191,,26,finds
screen,html.Screen,2_1_0_1_27,2022-02-03T14:35:54.162Z,,,,,,,,,,,,,,,,,53,,,,,,,,,,,,,,252.80900000000838,,response,,,,99,,,,,,,Space,keypress(Space),,,,,,,,---- -- ----- -- ------ - ------- --- ----------<br>------------- ------ ------ ---- ---- ------- ----- -- ----<br>-------- ------- -- ---------- --- - --- ----- ----- that<br>---- --- --- ----- --- ---- ---- ------- ----- ---- -------<br>--- --- -- ----- -- --- ---- -- --- ---- -- ------ ------<br>--- ----- -- ----,141270.39999997616,141269,140999.79,141007.10000002384,141016.191,141282.994,,27,that
screen,html.Screen,2_1_0_1_28,2022-02-03T14:35:54.449Z,,,,,,,,,,,,,,,,,53,,,,,,,,,,,,,,272.70600004767766,,response,,,,99,,,,,,,Space,keypress(Space),,,,,,,,---- -- ----- -- ------ - ------- --- ----------<br>------------- ------ ------ ---- ---- ------- ----- -- ----<br>-------- ------- -- ---------- --- - --- ----- ----- ----<br>it's --- --- ----- --- ---- ---- ------- ----- ---- -------<br>--- --- -- ----- -- --- ---- -- --- ---- -- ------ ------<br>--- ----- -- ----,141556.89999997616,141555.70000004768,141266.39,141270.70000004768,141282.994,141565.992,,28,it's
screen,html.Screen,2_1_0_1_29,2022-02-03T14:35:54.693Z,,,,,,,,,,,,,,,,,53,,,,,,,,,,,,,,233.50800000000163,,response,,,,99,,,,,,,Space,keypress(Space),,,,,,,,---- -- ----- -- ------ - ------- --- ----------<br>------------- ------ ------ ---- ---- ------- ----- -- ----<br>-------- ------- -- ---------- --- - --- ----- ----- ----<br>---- not --- ----- --- ---- ---- ------- ----- ---- -------<br>--- --- -- ----- -- --- ---- -- --- ---- -- ------ ------<br>--- ----- -- ----,141800.80000007153,141799.5,141549.705,141557.30000007153,141565.992,141816.44,,29,not
screen,html.Screen,2_1_0_1_30,2022-02-03T14:35:54.978Z,,,,,,,,,,,,,,,,,53,,,,,,,,,,,,,,268.2600000476814,,response,,,,99,,,,,,,Space,keypress(Space),,,,,,,,---- -- ----- -- ------ - ------- --- ----------<br>------------- ------ ------ ---- ---- ------- ----- -- ----<br>-------- ------- -- ---------- --- - --- ----- ----- ----<br>---- --- how ----- --- ---- ---- ------- ----- ---- -------<br>--- --- -- ----- -- --- ---- -- --- ---- -- ------ ------<br>--- ----- -- ----,142085.80000007153,142084.70000004768,141799.725,141801.10000002384,141816.44,142099.665,,30,how
screen,html.Screen,2_1_0_1_31,2022-02-03T14:35:55.279Z,,,,,,,,,,,,,,,,,53,,,,,,,,,,,,,,286.03500004767557,,response,,,,99,,,,,,,Space,keypress(Space),,,,,,,,---- -- ----- -- ------ - ------- --- ----------<br>------------- ------ ------ ---- ---- ------- ----- -- ----<br>-------- ------- -- ---------- --- - --- ----- ----- ----<br>---- --- --- close --- ---- ---- ------- ----- ---- -------<br>--- --- -- ----- -- --- ---- -- --- ---- -- ------ ------<br>--- ----- -- ----,142387,142385.70000004768,142082.716,142086.10000002384,142099.665,142399.549,,31,close
screen,html.Screen,2_1_0_1_32,2022-02-03T14:35:55.514Z,,,,,,,,,,,,,,,,,53,,,,,,,,,,,,,,221.5510000238428,,response,,,,99,,,,,,,Space,keypress(Space),,,,,,,,---- -- ----- -- ------ - ------- --- ----------<br>------------- ------ ------ ---- ---- ------- ----- -- ----<br>-------- ------- -- ---------- --- - --- ----- ----- ----<br>---- --- --- ----- you ---- ---- ------- ----- ---- -------<br>--- --- -- ----- -- --- ---- -- --- ---- -- ------ ------<br>--- ----- -- ----,142621.89999997616,142621.10000002384,142382.951,142387.30000007153,142399.549,142632.871,,32,you
screen,html.Screen,2_1_0_1_33,2022-02-03T14:35:55.692Z,,,,,,,,,,,,,,,,,53,,,,,,,,,,,,,,166.12899999998626,,response,,,,99,,,,,,,Space,keypress(Space),,,,,,,,---- -- ----- -- ------ - ------- --- ----------<br>------------- ------ ------ ---- ---- ------- ----- -- ----<br>-------- ------- -- ---------- --- - --- ----- ----- ----<br>---- --- --- ----- --- feel ---- ------- ----- ---- -------<br>--- --- -- ----- -- --- ---- -- --- ---- -- ------ ------<br>--- ----- -- ----,142800,142799,142615.893,142622.20000004768,142632.871,142816.332,,33,feel
screen,html.Screen,2_1_0_1_34,2022-02-03T14:35:55.883Z,,,,,,,,,,,,,,,,,53,,,,,,,,,,,,,,174.06799997616326,,response,,,,99,,,,,,,Space,keypress(Space),,,,,,,,---- -- ----- -- ------ - ------- --- ----------<br>------------- ------ ------ ---- ---- ------- ----- -- ----<br>-------- ------- -- ---------- --- - --- ----- ----- ----<br>---- --- --- ----- --- ---- that ------- ----- ---- -------<br>--- --- -- ----- -- --- ---- -- --- ---- -- ------ ------<br>--- ----- -- ----,142991.5,142990.39999997616,142799.529,142800.20000004768,142816.332,142999.437,,34,that
screen,html.Screen,2_1_0_1_35,2022-02-03T14:35:56.078Z,,,,,,,,,,,,,,,,,53,,,,,,,,,,,,,,185.86300007152022,,response,,,,99,,,,,,,Space,keypress(Space),,,,,,,,---- -- ----- -- ------ - ------- --- ----------<br>------------- ------ ------ ---- ---- ------- ----- -- ----<br>-------- ------- -- ---------- --- - --- ----- ----- ----<br>---- --- --- ----- --- ---- ---- matters ----- ---- -------<br>--- --- -- ----- -- --- ---- -- --- ---- -- ------ ------<br>--- ----- -- ----,143186.39999997616,143185.30000007153,142982.916,142991.80000007153,142999.437,143199.184,,35,matters
screen,html.Screen,2_1_0_1_36,2022-02-03T14:35:56.407Z,,,,,,,,,,,,,,,,,53,,,,,,,,,,,,,,314.21599997614976,,response,,,,99,,,,,,,Space,keypress(Space),,,,,,,,"---- -- ----- -- ------ - ------- --- ----------<br>------------- ------ ------ ---- ---- ------- ----- -- ----<br>-------- ------- -- ---------- --- - --- ----- ----- ----<br>---- --- --- ----- --- ---- ---- ------- most, ---- -------<br>--- --- -- ----- -- --- ---- -- --- ---- -- ------ ------<br>--- ----- -- ----",143514.70000004768,143513.39999997616,143182.845,143186.80000007153,143199.184,143549.577,,36,"most,"
screen,html.Screen,2_1_0_1_37,2022-02-03T14:35:56.685Z,,,,,,,,,,,,,,,,,53,,,,,,,,,,,,,,242.82299997616792,,response,,,,99,,,,,,,Space,keypress(Space),,,,,,,,---- -- ----- -- ------ - ------- --- ----------<br>------------- ------ ------ ---- ---- ------- ----- -- ----<br>-------- ------- -- ---------- --- - --- ----- ----- ----<br>---- --- --- ----- --- ---- ---- ------- ----- it's -------<br>--- --- -- ----- -- --- ---- -- --- ---- -- ------ ------<br>--- ----- -- ----,143793.5,143792.39999997616,143532.841,143515,143549.577,143798.982,,37,it's
screen,html.Screen,2_1_0_1_38,2022-02-03T14:35:56.998Z,,,,,,,,,,,,,,,,,53,,,,,,,,,,,,,,306.01800000001094,,response,,,,99,,,,,,,Space,keypress(Space),,,,,,,,---- -- ----- -- ------ - ------- --- ----------<br>------------- ------ ------ ---- ---- ------- ----- -- ----<br>-------- ------- -- ---------- --- - --- ----- ----- ----<br>---- --- --- ----- --- ---- ---- ------- ----- ---- whether<br>--- --- -- ----- -- --- ---- -- --- ---- -- ------ ------<br>--- ----- -- ----,144106.20000004768,144105,143782.732,143793.80000007153,143798.982,144115.836,,38,whether
screen,html.Screen,2_1_0_1_39,2022-02-03T14:35:57.278Z,,,,,,,,,,,,,,,,,53,,,,,,,,,,,,,,268.86400004767347,,response,,,,99,,,,,,,Space,keypress(Space),,,,,,,,---- -- ----- -- ------ - ------- --- ----------<br>------------- ------ ------ ---- ---- ------- ----- -- ----<br>-------- ------- -- ---------- --- - --- ----- ----- ----<br>---- --- --- ----- --- ---- ---- ------- ----- ---- -------<br>you --- -- ----- -- --- ---- -- --- ---- -- ------ ------<br>--- ----- -- ----,144385.89999997616,144384.70000004768,144099.406,144106.60000002384,144115.836,144399.415,,39,you
screen,html.Screen,2_1_0_1_40,2022-02-03T14:35:57.576Z,,,,,,,,,,,,,,,,,53,,,,,,,,,,,,,,284.1850000238337,,response,,,,99,,,,,,,Space,keypress(Space),,,,,,,,---- -- ----- -- ------ - ------- --- ----------<br>------------- ------ ------ ---- ---- ------- ----- -- ----<br>-------- ------- -- ---------- --- - --- ----- ----- ----<br>---- --- --- ----- --- ---- ---- ------- ----- ---- -------<br>--- are -- ----- -- --- ---- -- --- ---- -- ------ ------<br>--- ----- -- ----,144684.70000004768,144683.60000002384,144382.621,144386.10000002384,144399.415,144699.41,,40,are
screen,html.Screen,2_1_0_1_41,2022-02-03T14:35:57.825Z,,,,,,,,,,,,,,,,,53,,,,,,,,,,,,,,232.29000004768022,,response,,,,99,,,,,,,Space,keypress(Space),,,,,,,,---- -- ----- -- ------ - ------- --- ----------<br>------------- ------ ------ ---- ---- ------- ----- -- ----<br>-------- ------- -- ---------- --- - --- ----- ----- ----<br>---- --- --- ----- --- ---- ---- ------- ----- ---- -------<br>--- --- as ----- -- --- ---- -- --- ---- -- ------ ------<br>--- ----- -- ----,144932.89999997616,144931.70000004768,144682.728,144684.89999997616,144699.41,144949.329,,41,as
screen,html.Screen,2_1_0_1_42,2022-02-03T14:35:58.027Z,,,,,,,,,,,,,,,,,53,,,,,,,,,,,,,,185.3710000476858,,response,,,,99,,,,,,,Space,keypress(Space),,,,,,,,---- -- ----- -- ------ - ------- --- ----------<br>------------- ------ ------ ---- ---- ------- ----- -- ----<br>-------- ------- -- ---------- --- - --- ----- ----- ----<br>---- --- --- ----- --- ---- ---- ------- ----- ---- -------<br>--- --- -- close -- --- ---- -- --- ---- -- ------ ------<br>--- ----- -- ----,145135.60000002384,145134.70000004768,144932.612,144933.20000004768,144949.329,145148.933,,42,close
screen,html.Screen,2_1_0_1_43,2022-02-03T14:35:58.236Z,,,,,,,,,,,,,,,,,53,,,,,,,,,,,,,,194.36700007153559,,response,,,,99,,,,,,,Space,keypress(Space),,,,,,,,---- -- ----- -- ------ - ------- --- ----------<br>------------- ------ ------ ---- ---- ------- ----- -- ----<br>-------- ------- -- ---------- --- - --- ----- ----- ----<br>---- --- --- ----- --- ---- ---- ------- ----- ---- -------<br>--- --- -- ----- as --- ---- -- --- ---- -- ------ ------<br>--- ----- -- ----,145344.30000007153,145343.30000007153,145132.623,145135.89999997616,145148.933,145348.754,,43,as
screen,html.Screen,2_1_0_1_44,2022-02-03T14:35:58.425Z,,,,,,,,,,,,,,,,,53,,,,,,,,,,,,,,183.24600000001374,,response,,,,99,,,,,,,Space,keypress(Space),,,,,,,,---- -- ----- -- ------ - ------- --- ----------<br>------------- ------ ------ ---- ---- ------- ----- -- ----<br>-------- ------- -- ---------- --- - --- ----- ----- ----<br>---- --- --- ----- --- ---- ---- ------- ----- ---- -------<br>--- --- -- ----- -- you ---- -- --- ---- -- ------ ------<br>--- ----- -- ----,145533,145532,145332.286,145344.60000002384,145348.754,145549.223,,44,you
screen,html.Screen,2_1_0_1_45,2022-02-03T14:35:58.705Z,,,,,,,,,,,,,,,,,53,,,,,,,,,,,,,,262.3770000238437,,response,,,,99,,,,,,,Space,keypress(Space),,,,,,,,---- -- ----- -- ------ - ------- --- ----------<br>------------- ------ ------ ---- ---- ------- ----- -- ----<br>-------- ------- -- ---------- --- - --- ----- ----- ----<br>---- --- --- ----- --- ---- ---- ------- ----- ---- -------<br>--- --- -- ----- -- --- want -- --- ---- -- ------ ------<br>--- ----- -- ----,145812.80000007153,145811.60000002384,145532.481,145533.30000007153,145549.223,145838.889,,45,want
screen,html.Screen,2_1_0_1_46,2022-02-03T14:35:58.964Z,,,,,,,,,,,,,,,,,53,,,,,,,,,,,,,,232.71100002384628,,response,,,,99,,,,,,,Space,keypress(Space),,,,,,,,---- -- ----- -- ------ - ------- --- ----------<br>------------- ------ ------ ---- ---- ------- ----- -- ----<br>-------- ------- -- ---------- --- - --- ----- ----- ----<br>---- --- --- ----- --- ---- ---- ------- ----- ---- -------<br>--- --- -- ----- -- --- ---- to --- ---- -- ------ ------<br>--- ----- -- ----,146072.70000004768,146071.60000002384,145798.841,145813,145838.889,146082.359,,46,to
screen,html.Screen,2_1_0_1_47,2022-02-03T14:35:59.185Z,,,,,,,,,,,,,,,,,53,,,,,,,,,,,,,,209.64100000000326,,response,,,,99,,,,,,,Space,keypress(Space),,,,,,,,"---- -- ----- -- ------ - ------- --- ----------<br>------------- ------ ------ ---- ---- ------- ----- -- ----<br>-------- ------- -- ---------- --- - --- ----- ----- ----<br>---- --- --- ----- --- ---- ---- ------- ----- ---- -------<br>--- --- -- ----- -- --- ---- -- be, ---- -- ------ ------<br>--- ----- -- ----",146293.10000002384,146292,146065.805,146072.89999997616,146082.359,146298.674,,47,"be,"
screen,html.Screen,2_1_0_1_48,2022-02-03T14:35:59.415Z,,,,,,,,,,,,,,,,,53,,,,,,,,,,,,,,223.32600000000093,,response,,,,99,,,,,,,Space,keypress(Space),,,,,,,,---- -- ----- -- ------ - ------- --- ----------<br>------------- ------ ------ ---- ---- ------- ----- -- ----<br>-------- ------- -- ---------- --- - --- ----- ----- ----<br>---- --- --- ----- --- ---- ---- ------- ----- ---- -------<br>--- --- -- ----- -- --- ---- -- --- even -- ------ ------<br>--- ----- -- ----,146523,146522,146282.465,146293.39999997616,146298.674,146532.208,,48,even
screen,html.Screen,2_1_0_1_49,2022-02-03T14:35:59.742Z,,,,,,,,,,,,,,,,,53,,,,,,,,,,,,,,317.19199997614487,,response,,,,99,,,,,,,Space,keypress(Space),,,,,,,,---- -- ----- -- ------ - ------- --- ----------<br>------------- ------ ------ ---- ---- ------- ----- -- ----<br>-------- ------- -- ---------- --- - --- ----- ----- ----<br>---- --- --- ----- --- ---- ---- ------- ----- ---- -------<br>--- --- -- ----- -- --- ---- -- --- ---- if ------ ------<br>--- ----- -- ----,146850.5,146849.39999997616,146515.709,146523.30000007153,146532.208,146865.776,,49,if
screen,html.Screen,2_1_0_1_50,2022-02-03T14:35:59.999Z,,,,,,,,,,,,,,,,,53,,,,,,,,,,,,,,240.22399999998743,,response,,,,99,,,,,,,Space,keypress(Space),,,,,,,,---- -- ----- -- ------ - ------- --- ----------<br>------------- ------ ------ ---- ---- ------- ----- -- ----<br>-------- ------- -- ---------- --- - --- ----- ----- ----<br>---- --- --- ----- --- ---- ---- ------- ----- ---- -------<br>--- --- -- ----- -- --- ---- -- --- ---- -- that's ------<br>--- ----- -- ----,147107,147106,146849.088,146850.70000004768,146865.776,147115.253,,50,that's
screen,html.Screen,2_1_0_1_51,2022-02-03T14:36:00.377Z,,,,,,,,,,,,,,,,,53,,,,,,,,,,,,,,368.94700004768674,,response,,,,99,,,,,,,Space,keypress(Space),,,,,,,,---- -- ----- -- ------ - ------- --- ----------<br>------------- ------ ------ ---- ---- ------- ----- -- ----<br>-------- ------- -- ---------- --- - --- ----- ----- ----<br>---- --- --- ----- --- ---- ---- ------- ----- ---- -------<br>--- --- -- ----- -- --- ---- -- --- ---- -- ------ really<br>--- ----- -- ----,147485.30000007153,147484.20000004768,147099.037,147107.30000007153,147115.253,147499.024,,51,really
screen,html.Screen,2_1_0_1_52,2022-02-03T14:36:00.731Z,,,,,,,,,,,,,,,,,53,,,,,,,,,,,,,,339.07600002383697,,response,,,,99,,,,,,,Space,keypress(Space),,,,,,,,---- -- ----- -- ------ - ------- --- ----------<br>------------- ------ ------ ---- ---- ------- ----- -- ----<br>-------- ------- -- ---------- --- - --- ----- ----- ----<br>---- --- --- ----- --- ---- ---- ------- ----- ---- -------<br>--- --- -- ----- -- --- ---- -- --- ---- -- ------ ------<br>not ----- -- ----,147839.10000002384,147838.10000002384,147481.881,147485.60000002384,147499.024,147848.596,,52,not
screen,html.Screen,2_1_0_1_53,2022-02-03T14:36:01.020Z,,,,,,,,,,,,,,,,,53,,,,,,,,,,,,,,279.5040000238514,,response,,,,99,,,,,,,Space,keypress(Space),,,,,,,,---- -- ----- -- ------ - ------- --- ----------<br>------------- ------ ------ ---- ---- ------- ----- -- ----<br>-------- ------- -- ---------- --- - --- ----- ----- ----<br>---- --- --- ----- --- ---- ---- ------- ----- ---- -------<br>--- --- -- ----- -- --- ---- -- --- ---- -- ------ ------<br>--- close -- ----,148128.5,148128.10000002384,147832.267,147839.30000007153,147848.596,148131.822,,53,close
screen,html.Screen,2_1_0_1_54,2022-02-03T14:36:01.396Z,,,,,,,,,,,,,,,,,53,,,,,,,,,,,,,,371.2780000238563,,response,,,,99,,,,,,,Space,keypress(Space),,,,,,,,---- -- ----- -- ------ - ------- --- ----------<br>------------- ------ ------ ---- ---- ------- ----- -- ----<br>-------- ------- -- ---------- --- - --- ----- ----- ----<br>---- --- --- ----- --- ---- ---- ------- ----- ---- -------<br>--- --- -- ----- -- --- ---- -- --- ---- -- ------ ------<br>--- ----- at ----,148504,148503.10000002384,148115.517,148128.60000002384,148131.822,148515.113,,54,at
screen,html.Screen,2_1_0_1_55,2022-02-03T14:36:01.835Z,,,,,,,,,,,,,,,,,53,,,,,,,,,,,,,,427.28699997614603,,response,,,,99,,,,,,,Space,keypress(Space),,,,,,,,---- -- ----- -- ------ - ------- --- ----------<br>------------- ------ ------ ---- ---- ------- ----- -- ----<br>-------- ------- -- ---------- --- - --- ----- ----- ----<br>---- --- --- ----- --- ---- ---- ------- ----- ---- -------<br>--- --- -- ----- -- --- ---- -- --- ---- -- ------ ------<br>--- ----- -- all.,148943.39999997616,148942.39999997616,148498.79,148504.20000004768,148515.113,148948.424,,55,all.
Item 99,flow.Loop,2_1_0_1,2022-02-03T14:36:01.836Z,,,,,,,,,,,,,,,,,,,,,,,,,,,,,,,18308.222999976162,,completion,,,,,A,,,,,,,,,,,silence,,,,,148944,148942.39999997616,130618.104,130620.80000007153,130634.177,148948.424,,,
Question 1,html.Screen,2_1_0_2,2022-02-03T14:36:04.807Z,,,,,,,,,,,,,,,,,,,,,,,,,,,,true,FALSE,,2965.176000023843,,response,,,,99,A,,,,,,FALSE,click #choice-2,,,,silence,,,,,151915.60000002384,151913.60000002384,148932.12,148944.20000004768,148948.424,151931.363,,,
Question 2,html.Screen,2_1_0_3,2022-02-03T14:36:10.425Z,,,,,,,,,,,,,,,,,,,,,,,,,,,,true,TRUE,,5600.036999976146,,response,,,,99,A,,,,,,TRUE,click #choice-1,,,,silence,,,,,157532.89999997616,157531.39999997616,151914.958,151915.89999997616,151931.363,157547.294,,,
Item 99,flow.Sequence,2_1_0,2022-02-03T14:36:10.425Z,,,,,,,,,,,,,,,,,,,,,,,,,,,,,,,36895.96099997616,,completion,,,,,,,,,,,,,,,,,,,,,157533.39999997616,157531.39999997616,120618.779,120624.20000004768,120635.439,157547.294,,,
Holding screen,html.Screen,2_1_1_0,2022-02-03T14:36:20.423Z,,,,,,,,,,,,,,,,,,,,,,,,,,,,,,,9998.858999999997,,timeout,,,,,,,,,,,,,,,,,,,,,167531.5,167529.69,157530.846,157533.80000007153,157547.294,167546.153,,,
screen,html.Screen,2_1_1_1_0,2022-02-03T14:36:20.849Z,,,,,,,,,,,,,,,,,54,,,,,,,,,,,,,,410.54700004769256,,response,,,,100,,,,,,,Space,keypress(Space),,,,,,,,At --- ---- --- ------ ----- ------- ---- -- --- ------- --<br>------- ---------- ------ -- ----- -- ----- -- ---- ------<br>--- ----- --- --- ------ -------- ----- --- ------ ----- --<br>----- ----- ---------- --- --- ------ ------ ---- -- ------<br>------- --- ------ ----- --- ---- ------- -- ---- --- --<br>------- ------,167957.30000007153,167956.70000004768,167529.69,167531.80000007153,167546.153,167962.57,,0,At
screen,html.Screen,2_1_1_1_1,2022-02-03T14:36:21.287Z,,,,,,,,,,,,,,,,,54,,,,,,,,,,,,,,431.2300000715186,,response,,,,100,,,,,,,Space,keypress(Space),,,,,,,,-- the ---- --- ------ ----- ------- ---- -- --- ------- --<br>------- ---------- ------ -- ----- -- ----- -- ---- ------<br>--- ----- --- --- ------ -------- ----- --- ------ ----- --<br>----- ----- ---------- --- --- ------ ------ ---- -- ------<br>------- --- ------ ----- --- ---- ------- -- ---- --- --<br>------- ------,168394.89999997616,168393.80000007153,167945.939,167957.5,167962.57,168412.847,,1,the
screen,html.Screen,2_1_1_1_2,2022-02-03T14:36:21.691Z,,,,,,,,,,,,,,,,,54,,,,,,,,,,,,,,385.4530000715167,,response,,,,100,,,,,,,Space,keypress(Space),,,,,,,,-- --- time --- ------ ----- ------- ---- -- --- ------- --<br>------- ---------- ------ -- ----- -- ----- -- ---- ------<br>--- ----- --- --- ------ -------- ----- --- ------ ----- --<br>----- ----- ---------- --- --- ------ ------ ---- -- ------<br>------- --- ------ ----- --- ---- ------- -- ---- --- --<br>------- ------,168799.39999997616,168798.30000007153,168379.463,168395.20000004768,168412.847,168812.881,,2,time
screen,html.Screen,2_1_1_1_3,2022-02-03T14:36:22.059Z,,,,,,,,,,,,,,,,,54,,,,,,,,,,,,,,354.0189999761642,,response,,,,100,,,,,,,Space,keypress(Space),,,,,,,,-- --- ---- the ------ ----- ------- ---- -- --- ------- --<br>------- ---------- ------ -- ----- -- ----- -- ---- ------<br>--- ----- --- --- ------ -------- ----- --- ------ ----- --<br>----- ----- ---------- --- --- ------ ------ ---- -- ------<br>------- --- ------ ----- --- ---- ------- -- ---- --- --<br>------- ------,169167.39999997616,169166.89999997616,168796.143,168799.70000004768,168812.881,169179.11,,3,the
screen,html.Screen,2_1_1_1_4,2022-02-03T14:36:22.379Z,,,,,,,,,,,,,,,,,54,,,,,,,,,,,,,,307.89000000001397,,response,,,,100,,,,,,,Space,keypress(Space),,,,,,,,-- --- ---- --- French ----- ------- ---- -- --- ------- --<br>------- ---------- ------ -- ----- -- ----- -- ---- ------<br>--- ----- --- --- ------ -------- ----- --- ------ ----- --<br>----- ----- ---------- --- --- ------ ------ ---- -- ------<br>------- --- ------ ----- --- ---- ------- -- ---- --- --<br>------- ------,169487.70000004768,169487,169162.702,169167.5,169179.11,169495.678,,4,French
screen,html.Screen,2_1_1_1_5,2022-02-03T14:36:22.705Z,,,,,,,,,,,,,,,,,54,,,,,,,,,,,,,,316.82199999998556,,response,,,,100,,,,,,,Space,keypress(Space),,,,,,,,-- --- ---- --- ------ crown ------- ---- -- --- ------- --<br>------- ---------- ------ -- ----- -- ----- -- ---- ------<br>--- ----- --- --- ------ -------- ----- --- ------ ----- --<br>----- ----- ---------- --- --- ------ ------ ---- -- ------<br>------- --- ------ ----- --- ---- ------- -- ---- --- --<br>------- ------,169813.60000002384,169812.5,169479.269,169487.80000007153,169495.678,169829.008,,5,crown
screen,html.Screen,2_1_1_1_6,2022-02-03T14:36:23.024Z,,,,,,,,,,,,,,,,,54,,,,,,,,,,,,,,301.6920000476821,,response,,,,100,,,,,,,Space,keypress(Space),,,,,,,,-- --- ---- --- ------ ----- secured ---- -- --- ------- --<br>------- ---------- ------ -- ----- -- ----- -- ---- ------<br>--- ----- --- --- ------ -------- ----- --- ------ ----- --<br>----- ----- ---------- --- --- ------ ------ ---- -- ------<br>------- --- ------ ----- --- ---- ------- -- ---- --- --<br>------- ------,170131.80000007153,170130.70000004768,169812.335,169813.89999997616,169829.008,170146.062,,6,secured
screen,html.Screen,2_1_1_1_7,2022-02-03T14:36:23.374Z,,,,,,,,,,,,,,,,,54,,,,,,,,,,,,,,335.3379999761528,,response,,,,100,,,,,,,Space,keypress(Space),,,,,,,,-- --- ---- --- ------ ----- ------- much -- --- ------- --<br>------- ---------- ------ -- ----- -- ----- -- ---- ------<br>--- ----- --- --- ------ -------- ----- --- ------ ----- --<br>----- ----- ---------- --- --- ------ ------ ---- -- ------<br>------- --- ------ ----- --- ---- ------- -- ---- --- --<br>------- ------,170482.5,170481.39999997616,170129.296,170132.10000002384,170146.062,170496,,7,much
screen,html.Screen,2_1_1_1_8,2022-02-03T14:36:24.212Z,,,,,,,,,,,,,,,,,54,,,,,,,,,,,,,,823,,response,,,,100,,,,,,,Space,keypress(Space),,,,,,,,-- --- ---- --- ------ ----- ------- ---- of --- ------- --<br>------- ---------- ------ -- ----- -- ----- -- ---- ------<br>--- ----- --- --- ------ -------- ----- --- ------ ----- --<br>----- ----- ---------- --- --- ------ ------ ---- -- ------<br>------- --- ------ ----- --- ---- ------- -- ---- --- --<br>------- ------,171320.10000002384,171319,170479.317,170482.70000004768,170496,171328.834,,8,of
screen,html.Screen,2_1_1_1_9,2022-02-03T14:36:25.385Z,,,,,,,,,,,,,,,,,54,,,,,,,,,,,,,,1162.8660000476812,,response,,,,100,,,,,,,Space,keypress(Space),,,,,,,,-- --- ---- --- ------ ----- ------- ---- -- its ------- --<br>------- ---------- ------ -- ----- -- ----- -- ---- ------<br>--- ----- --- --- ------ -------- ----- --- ------ ----- --<br>----- ----- ---------- --- --- ------ ------ ---- -- ------<br>------- --- ------ ----- --- ---- ------- -- ---- --- --<br>------- ------,172492.80000007153,172491.70000004768,171312.52,171320.30000007153,171328.834,172517.77,,9,its
screen,html.Screen,2_1_1_1_10,2022-02-03T14:36:25.937Z,,,,,,,,,,,,,,,,,54,,,,,,,,,,,,,,526.9300000476942,,response,,,,100,,,,,,,Space,keypress(Space),,,,,,,,-- --- ---- --- ------ ----- ------- ---- -- --- revenue --<br>------- ---------- ------ -- ----- -- ----- -- ---- ------<br>--- ----- --- --- ------ -------- ----- --- ------ ----- --<br>----- ----- ---------- --- --- ------ ------ ---- -- ------<br>------- --- ------ ----- --- ---- ------- -- ---- --- --<br>------- ------,173045.60000002384,173044.70000004768,172478.687,172493,172517.77,173062.17,,10,revenue
screen,html.Screen,2_1_1_1_11,2022-02-03T14:36:26.282Z,,,,,,,,,,,,,,,,,54,,,,,,,,,,,,,,326.8299999999872,,response,,,,100,,,,,,,Space,keypress(Space),,,,,,,,-- --- ---- --- ------ ----- ------- ---- -- --- ------- by<br>------- ---------- ------ -- ----- -- ----- -- ---- ------<br>--- ----- --- --- ------ -------- ----- --- ------ ----- --<br>----- ----- ---------- --- --- ------ ------ ---- -- ------<br>------- --- ------ ----- --- ---- ------- -- ---- --- --<br>------- ------,173390.10000002384,173389,173045.306,173045.80000007153,173062.17,173395.118,,11,by
screen,html.Screen,2_1_1_1_12,2022-02-03T14:36:26.697Z,,,,,,,,,,,,,,,,,54,,,,,,,,,,,,,,408.7819999761705,,response,,,,100,,,,,,,Space,keypress(Space),,,,,,,,-- --- ---- --- ------ ----- ------- ---- -- --- ------- --<br>issuing ---------- ------ -- ----- -- ----- -- ---- ------<br>--- ----- --- --- ------ -------- ----- --- ------ ----- --<br>----- ----- ---------- --- --- ------ ------ ---- -- ------<br>------- --- ------ ----- --- ---- ------- -- ---- --- --<br>------- ------,173805.10000002384,173803.89999997616,173378.561,173390.30000007153,173395.118,173811.835,,12,issuing
screen,html.Screen,2_1_1_1_13,2022-02-03T14:36:27.076Z,,,,,,,,,,,,,,,,,54,,,,,,,,,,,,,,371.36500004769186,,response,,,,100,,,,,,,Space,keypress(Space),,,,,,,,-- --- ---- --- ------ ----- ------- ---- -- --- ------- --<br>------- government ------ -- ----- -- ----- -- ---- ------<br>--- ----- --- --- ------ -------- ----- --- ------ ----- --<br>----- ----- ---------- --- --- ------ ------ ---- -- ------<br>------- --- ------ ----- --- ---- ------- -- ---- --- --<br>------- ------,174184.20000004768,174183.20000004768,173795.161,173805.30000007153,173811.835,174195.05,,13,government
screen,html.Screen,2_1_1_1_14,2022-02-03T14:36:27.460Z,,,,,,,,,,,,,,,,,54,,,,,,,,,,,,,,371.8499999761698,,response,,,,100,,,,,,,Space,keypress(Space),,,,,,,,-- --- ---- --- ------ ----- ------- ---- -- --- ------- --<br>------- ---------- bonds. -- ----- -- ----- -- ---- ------<br>--- ----- --- --- ------ -------- ----- --- ------ ----- --<br>----- ----- ---------- --- --- ------ ------ ---- -- ------<br>------- --- ------ ----- --- ---- ------- -- ---- --- --<br>------- ------,174567.89999997616,174566.89999997616,174178.454,174184.5,174195.05,174578.682,,14,bonds.
screen,html.Screen,2_1_1_1_15,2022-02-03T14:36:27.834Z,,,,,,,,,,,,,,,,,54,,,,,,,,,,,,,,362.1180000715249,,response,,,,100,,,,,,,Space,keypress(Space),,,,,,,,-- --- ---- --- ------ ----- ------- ---- -- --- ------- --<br>------- ---------- ------ In ----- -- ----- -- ---- ------<br>--- ----- --- --- ------ -------- ----- --- ------ ----- --<br>----- ----- ---------- --- --- ------ ------ ---- -- ------<br>------- --- ------ ----- --- ---- ------- -- ---- --- --<br>------- ------,174941.80000007153,174940.80000007153,174562.06,174568.10000002384,174578.682,174944.988,,15,In
screen,html.Screen,2_1_1_1_16,2022-02-03T14:36:28.105Z,,,,,,,,,,,,,,,,,54,,,,,,,,,,,,,,266.91199997614603,,response,,,,100,,,,,,,Space,keypress(Space),,,,,,,,"-- --- ---- --- ------ ----- ------- ---- -- --- ------- --<br>------- ---------- ------ -- 1727, -- ----- -- ---- ------<br>--- ----- --- --- ------ -------- ----- --- ------ ----- --<br>----- ----- ---------- --- --- ------ ------ ---- -- ------<br>------- --- ------ ----- --- ---- ------- -- ---- --- --<br>------- ------",175213,175211.89999997616,174928.676,174942.10000002384,174944.988,175228.665,,16,"1727,"
screen,html.Screen,2_1_1_1_17,2022-02-03T14:36:28.385Z,,,,,,,,,,,,,,,,,54,,,,,,,,,,,,,,263.53500004767557,,response,,,,100,,,,,,,Space,keypress(Space),,,,,,,,-- --- ---- --- ------ ----- ------- ---- -- --- ------- --<br>------- ---------- ------ -- ----- in ----- -- ---- ------<br>--- ----- --- --- ------ -------- ----- --- ------ ----- --<br>----- ----- ---------- --- --- ------ ------ ---- -- ------<br>------- --- ------ ----- --- ---- ------- -- ---- --- --<br>------- ------,175493.10000002384,175492.20000004768,175211.934,175213.20000004768,175228.665,175511.894,,17,in
screen,html.Screen,2_1_1_1_18,2022-02-03T14:36:28.666Z,,,,,,,,,,,,,,,,,54,,,,,,,,,,,,,,261.10599999999977,,response,,,,100,,,,,,,Space,keypress(Space),,,,,,,,-- --- ---- --- ------ ----- ------- ---- -- --- ------- --<br>------- ---------- ------ -- ----- -- order -- ---- ------<br>--- ----- --- --- ------ -------- ----- --- ------ ----- --<br>----- ----- ---------- --- --- ------ ------ ---- -- ------<br>------- --- ------ ----- --- ---- ------- -- ---- --- --<br>------- ------,175774,175773,175478.608,175493.30000007153,175511.894,175778.182,,18,order
screen,html.Screen,2_1_1_1_19,2022-02-03T14:36:28.933Z,,,,,,,,,,,,,,,,,54,,,,,,,,,,,,,,262.21799997615744,,response,,,,100,,,,,,,Space,keypress(Space),,,,,,,,-- --- ---- --- ------ ----- ------- ---- -- --- ------- --<br>------- ---------- ------ -- ----- -- ----- to ---- ------<br>--- ----- --- --- ------ -------- ----- --- ------ ----- --<br>----- ----- ---------- --- --- ------ ------ ---- -- ------<br>------- --- ------ ----- --- ---- ------- -- ---- --- --<br>------- ------,176041.60000002384,176040.39999997616,175761.904,175774.30000007153,175778.182,176044.86,,19,to
screen,html.Screen,2_1_1_1_20,2022-02-03T14:36:29.136Z,,,,,,,,,,,,,,,,,54,,,,,,,,,,,,,,197.94000007153954,,response,,,,100,,,,,,,Space,keypress(Space),,,,,,,,-- --- ---- --- ------ ----- ------- ---- -- --- ------- --<br>------- ---------- ------ -- ----- -- ----- -- save ------<br>--- ----- --- --- ------ -------- ----- --- ------ ----- --<br>----- ----- ---------- --- --- ------ ------ ---- -- ------<br>------- --- ------ ----- --- ---- ------- -- ---- --- --<br>------- ------,176243.89999997616,176242.80000007153,176028.529,176041.70000004768,176044.86,176261.894,,20,save
screen,html.Screen,2_1_1_1_21,2022-02-03T14:36:29.316Z,,,,,,,,,,,,,,,,,54,,,,,,,,,,,,,,160.90600007152534,,response,,,,100,,,,,,,Space,keypress(Space),,,,,,,,"-- --- ---- --- ------ ----- ------- ---- -- --- ------- --<br>------- ---------- ------ -- ----- -- ----- -- ---- money,<br>--- ----- --- --- ------ -------- ----- --- ------ ----- --<br>----- ----- ---------- --- --- ------ ------ ---- -- ------<br>------- --- ------ ----- --- ---- ------- -- ---- --- --<br>------- ------",176423.89999997616,176422.80000007153,176244.806,176244.20000004768,176261.894,176428.112,,21,"money,"
screen,html.Screen,2_1_1_1_22,2022-02-03T14:36:29.628Z,,,,,,,,,,,,,,,,,54,,,,,,,,,,,,,,306.8880000000063,,response,,,,100,,,,,,,Space,keypress(Space),,,,,,,,-- --- ---- --- ------ ----- ------- ---- -- --- ------- --<br>------- ---------- ------ -- ----- -- ----- -- ---- ------<br>the ----- --- --- ------ -------- ----- --- ------ ----- --<br>----- ----- ---------- --- --- ------ ------ ---- -- ------<br>------- --- ------ ----- --- ---- ------- -- ---- --- --<br>------- ------,176736,176735,176411.846,176424.20000004768,176428.112,176744.786,,22,the
screen,html.Screen,2_1_1_1_23,2022-02-03T14:36:29.910Z,,,,,,,,,,,,,,,,,54,,,,,,,,,,,,,,272.61399997616536,,response,,,,100,,,,,,,Space,keypress(Space),,,,,,,,-- --- ---- --- ------ ----- ------- ---- -- --- ------- --<br>------- ---------- ------ -- ----- -- ----- -- ---- ------<br>--- state --- --- ------ -------- ----- --- ------ ----- --<br>----- ----- ---------- --- --- ------ ------ ---- -- ------<br>------- --- ------ ----- --- ---- ------- -- ---- --- --<br>------- ------,177018.39999997616,177017.39999997616,176728.423,176736.20000004768,176744.786,177028.308,,23,state
screen,html.Screen,2_1_1_1_24,2022-02-03T14:36:30.138Z,,,,,,,,,,,,,,,,,54,,,,,,,,,,,,,,216.99200007153559,,response,,,,100,,,,,,,Space,keypress(Space),,,,,,,,-- --- ---- --- ------ ----- ------- ---- -- --- ------- --<br>------- ---------- ------ -- ----- -- ----- -- ---- ------<br>--- ----- cut --- ------ -------- ----- --- ------ ----- --<br>----- ----- ---------- --- --- ------ ------ ---- -- ------<br>------- --- ------ ----- --- ---- ------- -- ---- --- --<br>------- ------,177246.39999997616,177245.30000007153,177011.677,177018.70000004768,177028.308,177261.691,,24,cut
screen,html.Screen,2_1_1_1_25,2022-02-03T14:36:30.349Z,,,,,,,,,,,,,,,,,54,,,,,,,,,,,,,,194.60900007153396,,response,,,,100,,,,,,,Space,keypress(Space),,,,,,,,-- --- ---- --- ------ ----- ------- ---- -- --- ------- --<br>------- ---------- ------ -- ----- -- ----- -- ---- ------<br>--- ----- --- the ------ -------- ----- --- ------ ----- --<br>----- ----- ---------- --- --- ------ ------ ---- -- ------<br>------- --- ------ ----- --- ---- ------- -- ---- --- --<br>------- ------,177457.5,177456.30000007153,177244.943,177246.70000004768,177261.691,177461.283,,25,the
screen,html.Screen,2_1_1_1_26,2022-02-03T14:36:30.523Z,,,,,,,,,,,,,,,,,54,,,,,,,,,,,,,,169.2170000000042,,response,,,,100,,,,,,,Space,keypress(Space),,,,,,,,-- --- ---- --- ------ ----- ------- ---- -- --- ------- --<br>------- ---------- ------ -- ----- -- ----- -- ---- ------<br>--- ----- --- --- bonds' -------- ----- --- ------ ----- --<br>----- ----- ---------- --- --- ------ ------ ---- -- ------<br>------- --- ------ ----- --- ---- ------- -- ---- --- --<br>------- ------,177631.39999997616,177630.5,177445.038,177457.80000007153,177461.283,177645.048,,26,bonds'
screen,html.Screen,2_1_1_1_27,2022-02-03T14:36:30.746Z,,,,,,,,,,,,,,,,,54,,,,,,,,,,,,,,208.45199999999022,,response,,,,100,,,,,,,Space,keypress(Space),,,,,,,,-- --- ---- --- ------ ----- ------- ---- -- --- ------- --<br>------- ---------- ------ -- ----- -- ----- -- ---- ------<br>--- ----- --- --- ------ interest ----- --- ------ ----- --<br>----- ----- ---------- --- --- ------ ------ ---- -- ------<br>------- --- ------ ----- --- ---- ------- -- ---- --- --<br>------- ------,177854.5,177853.5,177628.03,177631.70000004768,177645.048,177861.294,,27,interest
screen,html.Screen,2_1_1_1_28,2022-02-03T14:36:31.013Z,,,,,,,,,,,,,,,,,54,,,,,,,,,,,,,,258.4060000476893,,response,,,,100,,,,,,,Space,keypress(Space),,,,,,,,-- --- ---- --- ------ ----- ------- ---- -- --- ------- --<br>------- ---------- ------ -- ----- -- ----- -- ---- ------<br>--- ----- --- --- ------ -------- rate. --- ------ ----- --<br>----- ----- ---------- --- --- ------ ------ ---- -- ------<br>------- --- ------ ----- --- ---- ------- -- ---- --- --<br>------- ------,178120.80000007153,178119.70000004768,177844.95,177854.80000007153,177861.294,178127.896,,28,rate.
screen,html.Screen,2_1_1_1_29,2022-02-03T14:36:31.307Z,,,,,,,,,,,,,,,,,54,,,,,,,,,,,,,,286.1039999999921,,response,,,,100,,,,,,,Space,keypress(Space),,,,,,,,-- --- ---- --- ------ ----- ------- ---- -- --- ------- --<br>------- ---------- ------ -- ----- -- ----- -- ---- ------<br>--- ----- --- --- ------ -------- ----- The ------ ----- --<br>----- ----- ---------- --- --- ------ ------ ---- -- ------<br>------- --- ------ ----- --- ---- ------- -- ---- --- --<br>------- ------,178415,178414,178111.547,178121,178127.896,178428.26,,29,The
screen,html.Screen,2_1_1_1_30,2022-02-03T14:36:31.587Z,,,,,,,,,,,,,,,,,54,,,,,,,,,,,,,,265.63999997614883,,response,,,,100,,,,,,,Space,keypress(Space),,,,,,,,-- --- ---- --- ------ ----- ------- ---- -- --- ------- --<br>------- ---------- ------ -- ----- -- ----- -- ---- ------<br>--- ----- --- --- ------ -------- ----- --- market ----- --<br>----- ----- ---------- --- --- ------ ------ ---- -- ------<br>------- --- ------ ----- --- ---- ------- -- ---- --- --<br>------- ------,178694.89999997616,178693.89999997616,178411.53,178415.30000007153,178428.26,178711.583,,30,market
screen,html.Screen,2_1_1_1_31,2022-02-03T14:36:31.811Z,,,,,,,,,,,,,,,,,54,,,,,,,,,,,,,,206.61700004767044,,response,,,,100,,,,,,,Space,keypress(Space),,,,,,,,-- --- ---- --- ------ ----- ------- ---- -- --- ------- --<br>------- ---------- ------ -- ----- -- ----- -- ---- ------<br>--- ----- --- --- ------ -------- ----- --- ------ value --<br>----- ----- ---------- --- --- ------ ------ ---- -- ------<br>------- --- ------ ----- --- ---- ------- -- ---- --- --<br>------- ------,178919.39999997616,178918.20000004768,178694.571,178695.10000002384,178711.583,178927.761,,31,value
screen,html.Screen,2_1_1_1_32,2022-02-03T14:36:31.996Z,,,,,,,,,,,,,,,,,54,,,,,,,,,,,,,,176.13899997615954,,response,,,,100,,,,,,,Space,keypress(Space),,,,,,,,-- --- ---- --- ------ ----- ------- ---- -- --- ------- --<br>------- ---------- ------ -- ----- -- ----- -- ---- ------<br>--- ----- --- --- ------ -------- ----- --- ------ ----- of<br>----- ----- ---------- --- --- ------ ------ ---- -- ------<br>------- --- ------ ----- --- ---- ------- -- ---- --- --<br>------- ------,179104.5,179103.89999997616,178911.517,178919.80000007153,178927.761,179111.112,,32,of
screen,html.Screen,2_1_1_1_33,2022-02-03T14:36:32.265Z,,,,,,,,,,,,,,,,,54,,,,,,,,,,,,,,261.78799997616443,,response,,,,100,,,,,,,Space,keypress(Space),,,,,,,,-- --- ---- --- ------ ----- ------- ---- -- --- ------- --<br>------- ---------- ------ -- ----- -- ----- -- ---- ------<br>--- ----- --- --- ------ -------- ----- --- ------ ----- --<br>these ----- ---------- --- --- ------ ------ ---- -- ------<br>------- --- ------ ----- --- ---- ------- -- ---- --- --<br>------- ------,179373.70000004768,179372.89999997616,179094.815,179104.80000007153,179111.112,179377.615,,33,these
screen,html.Screen,2_1_1_1_34,2022-02-03T14:36:32.470Z,,,,,,,,,,,,,,,,,54,,,,,,,,,,,,,,199.58500004769303,,response,,,,100,,,,,,,Space,keypress(Space),,,,,,,,-- --- ---- --- ------ ----- ------- ---- -- --- ------- --<br>------- ---------- ------ -- ----- -- ----- -- ---- ------<br>--- ----- --- --- ------ -------- ----- --- ------ ----- --<br>----- bonds ---------- --- --- ------ ------ ---- -- ------<br>------- --- ------ ----- --- ---- ------- -- ---- --- --<br>------- ------,179577.80000007153,179577.20000004768,179360.939,179373.89999997616,179377.615,179594.353,,34,bonds
screen,html.Screen,2_1_1_1_35,2022-02-03T14:36:32.699Z,,,,,,,,,,,,,,,,,54,,,,,,,,,,,,,,211.6469999999972,,response,,,,100,,,,,,,Space,keypress(Space),,,,,,,,"-- --- ---- --- ------ ----- ------- ---- -- --- ------- --<br>------- ---------- ------ -- ----- -- ----- -- ---- ------<br>--- ----- --- --- ------ -------- ----- --- ------ ----- --<br>----- ----- plummeted, --- --- ------ ------ ---- -- ------<br>------- --- ------ ----- --- ---- ------- -- ---- --- --<br>------- ------",179806.89999997616,179806,179577.667,179578,179594.353,179810.932,,35,"plummeted,"
screen,html.Screen,2_1_1_1_36,2022-02-03T14:36:32.987Z,,,,,,,,,,,,,,,,,54,,,,,,,,,,,,,,283.768000047683,,response,,,,100,,,,,,,Space,keypress(Space),,,,,,,,-- --- ---- --- ------ ----- ------- ---- -- --- ------- --<br>------- ---------- ------ -- ----- -- ----- -- ---- ------<br>--- ----- --- --- ------ -------- ----- --- ------ ----- --<br>----- ----- ---------- and --- ------ ------ ---- -- ------<br>------- --- ------ ----- --- ---- ------- -- ---- --- --<br>------- ------,180095.70000004768,180094.70000004768,179794.248,179807,179810.932,180111.024,,36,and
screen,html.Screen,2_1_1_1_37,2022-02-03T14:36:33.230Z,,,,,,,,,,,,,,,,,54,,,,,,,,,,,,,,225.9759999999951,,response,,,,100,,,,,,,Space,keypress(Space),,,,,,,,-- --- ---- --- ------ ----- ------- ---- -- --- ------- --<br>------- ---------- ------ -- ----- -- ----- -- ---- ------<br>--- ----- --- --- ------ -------- ----- --- ------ ----- --<br>----- ----- ---------- --- the ------ ------ ---- -- ------<br>------- --- ------ ----- --- ---- ------- -- ---- --- --<br>------- ------,180338.20000004768,180337,180094.644,180095.89999997616,180111.024,180344.223,,37,the
screen,html.Screen,2_1_1_1_38,2022-02-03T14:36:33.436Z,,,,,,,,,,,,,,,,,54,,,,,,,,,,,,,,198.57700007152744,,response,,,,100,,,,,,,Space,keypress(Space),,,,,,,,-- --- ---- --- ------ ----- ------- ---- -- --- ------- --<br>------- ---------- ------ -- ----- -- ----- -- ---- ------<br>--- ----- --- --- ------ -------- ----- --- ------ ----- --<br>----- ----- ---------- --- --- market ------ ---- -- ------<br>------- --- ------ ----- --- ---- ------- -- ---- --- --<br>------- ------,180543.80000007153,180542.80000007153,180327.614,180338.5,180344.223,180561.374,,38,market
screen,html.Screen,2_1_1_1_39,2022-02-03T14:36:33.632Z,,,,,,,,,,,,,,,,,54,,,,,,,,,,,,,,177.826000047673,,response,,,,100,,,,,,,Space,keypress(Space),,,,,,,,-- --- ---- --- ------ ----- ------- ---- -- --- ------- --<br>------- ---------- ------ -- ----- -- ----- -- ---- ------<br>--- ----- --- --- ------ -------- ----- --- ------ ----- --<br>----- ----- ---------- --- --- ------ became ---- -- ------<br>------- --- ------ ----- --- ---- ------- -- ---- --- --<br>------- ------,180740.20000004768,180739.20000004768,180544.554,180544.10000002384,180561.374,180744.158,,39,became
screen,html.Screen,2_1_1_1_40,2022-02-03T14:36:33.855Z,,,,,,,,,,,,,,,,,54,,,,,,,,,,,,,,217.64200007152976,,response,,,,100,,,,,,,Space,keypress(Space),,,,,,,,-- --- ---- --- ------ ----- ------- ---- -- --- ------- --<br>------- ---------- ------ -- ----- -- ----- -- ---- ------<br>--- ----- --- --- ------ -------- ----- --- ------ ----- --<br>----- ----- ---------- --- --- ------ ------ wary -- ------<br>------- --- ------ ----- --- ---- ------- -- ---- --- --<br>------- ------,180962.80000007153,180961.80000007153,180727.563,180740.39999997616,180744.158,180977.989,,40,wary
screen,html.Screen,2_1_1_1_41,2022-02-03T14:36:34.073Z,,,,,,,,,,,,,,,,,54,,,,,,,,,,,,,,202.91099997615675,,response,,,,100,,,,,,,Space,keypress(Space),,,,,,,,-- --- ---- --- ------ ----- ------- ---- -- --- ------- --<br>------- ---------- ------ -- ----- -- ----- -- ---- ------<br>--- ----- --- --- ------ -------- ----- --- ------ ----- --<br>----- ----- ---------- --- --- ------ ------ ---- of ------<br>------- --- ------ ----- --- ---- ------- -- ---- --- --<br>------- ------,181181.70000004768,181180.89999997616,180961.16,180963.10000002384,180977.989,181194.112,,41,of
screen,html.Screen,2_1_1_1_42,2022-02-03T14:36:34.295Z,,,,,,,,,,,,,,,,,54,,,,,,,,,,,,,,207.98800002384814,,response,,,,100,,,,,,,Space,keypress(Space),,,,,,,,-- --- ---- --- ------ ----- ------- ---- -- --- ------- --<br>------- ---------- ------ -- ----- -- ----- -- ---- ------<br>--- ----- --- --- ------ -------- ----- --- ------ ----- --<br>----- ----- ---------- --- --- ------ ------ ---- -- French<br>------- --- ------ ----- --- ---- ------- -- ---- --- --<br>------- ------,181403.10000002384,181402.10000002384,181177.44,181181.80000007153,181194.112,181410.749,,42,French
screen,html.Screen,2_1_1_1_43,2022-02-03T14:36:34.560Z,,,,,,,,,,,,,,,,,54,,,,,,,,,,,,,,256.15099997614743,,response,,,,100,,,,,,,Space,keypress(Space),,,,,,,,-- --- ---- --- ------ ----- ------- ---- -- --- ------- --<br>------- ---------- ------ -- ----- -- ----- -- ---- ------<br>--- ----- --- --- ------ -------- ----- --- ------ ----- --<br>----- ----- ---------- --- --- ------ ------ ---- -- ------<br>credit. --- ------ ----- --- ---- ------- -- ---- --- --<br>------- ------,181667.89999997616,181666.89999997616,181394.511,181403.39999997616,181410.749,181677.544,,43,credit.
screen,html.Screen,2_1_1_1_44,2022-02-03T14:36:34.882Z,,,,,,,,,,,,,,,,,54,,,,,,,,,,,,,,311.05600002384745,,response,,,,100,,,,,,,Space,keypress(Space),,,,,,,,-- --- ---- --- ------ ----- ------- ---- -- --- ------- --<br>------- ---------- ------ -- ----- -- ----- -- ---- ------<br>--- ----- --- --- ------ -------- ----- --- ------ ----- --<br>----- ----- ---------- --- --- ------ ------ ---- -- ------<br>------- The ------ ----- --- ---- ------- -- ---- --- --<br>------- ------,181989.70000004768,181988.60000002384,181661.115,181668.20000004768,181677.544,181993.98,,44,The
screen,html.Screen,2_1_1_1_45,2022-02-03T14:36:35.202Z,,,,,,,,,,,,,,,,,54,,,,,,,,,,,,,,315.6200000238314,,response,,,,100,,,,,,,Space,keypress(Space),,,,,,,,-- --- ---- --- ------ ----- ------- ---- -- --- ------- --<br>------- ---------- ------ -- ----- -- ----- -- ---- ------<br>--- ----- --- --- ------ -------- ----- --- ------ ----- --<br>----- ----- ---------- --- --- ------ ------ ---- -- ------<br>------- --- French ----- --- ---- ------- -- ---- --- --<br>------- ------,182310.60000002384,182309.60000002384,181977.343,181990,181993.98,182327.791,,45,French
screen,html.Screen,2_1_1_1_46,2022-02-03T14:36:35.452Z,,,,,,,,,,,,,,,,,54,,,,,,,,,,,,,,231.50900007152813,,response,,,,100,,,,,,,Space,keypress(Space),,,,,,,,-- --- ---- --- ------ ----- ------- ---- -- --- ------- --<br>------- ---------- ------ -- ----- -- ----- -- ---- ------<br>--- ----- --- --- ------ -------- ----- --- ------ ----- --<br>----- ----- ---------- --- --- ------ ------ ---- -- ------<br>------- --- ------ state --- ---- ------- -- ---- --- --<br>------- ------,182560.30000007153,182559.30000007153,182310.617,182310.80000007153,182327.791,182577.784,,46,state
screen,html.Screen,2_1_1_1_47,2022-02-03T14:36:35.677Z,,,,,,,,,,,,,,,,,54,,,,,,,,,,,,,,206.51600007151137,,response,,,,100,,,,,,,Space,keypress(Space),,,,,,,,-- --- ---- --- ------ ----- ------- ---- -- --- ------- --<br>------- ---------- ------ -- ----- -- ----- -- ---- ------<br>--- ----- --- --- ------ -------- ----- --- ------ ----- --<br>----- ----- ---------- --- --- ------ ------ ---- -- ------<br>------- --- ------ ----- was ---- ------- -- ---- --- --<br>------- ------,182785.30000007153,182784.30000007153,182561.022,182560.60000002384,182577.784,182794.081,,47,was
screen,html.Screen,2_1_1_1_48,2022-02-03T14:36:35.877Z,,,,,,,,,,,,,,,,,54,,,,,,,,,,,,,,189.71900007152,,response,,,,100,,,,,,,Space,keypress(Space),,,,,,,,-- --- ---- --- ------ ----- ------- ---- -- --- ------- --<br>------- ---------- ------ -- ----- -- ----- -- ---- ------<br>--- ----- --- --- ------ -------- ----- --- ------ ----- --<br>----- ----- ---------- --- --- ------ ------ ---- -- ------<br>------- --- ------ ----- --- left ------- -- ---- --- --<br>------- ------,182984.89999997616,182983.80000007153,182777.653,182785.60000002384,182794.081,182994.009,,48,left
screen,html.Screen,2_1_1_1_49,2022-02-03T14:36:36.107Z,,,,,,,,,,,,,,,,,54,,,,,,,,,,,,,,219.99100000000908,,response,,,,100,,,,,,,Space,keypress(Space),,,,,,,,-- --- ---- --- ------ ----- ------- ---- -- --- ------- --<br>------- ---------- ------ -- ----- -- ----- -- ---- ------<br>--- ----- --- --- ------ -------- ----- --- ------ ----- --<br>----- ----- ---------- --- --- ------ ------ ---- -- ------<br>------- --- ------ ----- --- ---- without -- ---- --- --<br>------- ------,183215,183214,182977.571,182985.10000002384,182994.009,183227.614,,49,without
screen,html.Screen,2_1_1_1_50,2022-02-03T14:36:36.381Z,,,,,,,,,,,,,,,,,54,,,,,,,,,,,,,,260.5860000476823,,response,,,,100,,,,,,,Space,keypress(Space),,,,,,,,-- --- ---- --- ------ ----- ------- ---- -- --- ------- --<br>------- ---------- ------ -- ----- -- ----- -- ---- ------<br>--- ----- --- --- ------ -------- ----- --- ------ ----- --<br>----- ----- ---------- --- --- ------ ------ ---- -- ------<br>------- --- ------ ----- --- ---- ------- an ---- --- --<br>------- ------,183489.20000004768,183488.20000004768,183210.889,183215.30000007153,183227.614,183493.887,,50,an
screen,html.Screen,2_1_1_1_51,2022-02-03T14:36:36.667Z,,,,,,,,,,,,,,,,,54,,,,,,,,,,,,,,280.4130000715377,,response,,,,100,,,,,,,Space,keypress(Space),,,,,,,,-- --- ---- --- ------ ----- ------- ---- -- --- ------- --<br>------- ---------- ------ -- ----- -- ----- -- ---- ------<br>--- ----- --- --- ------ -------- ----- --- ------ ----- --<br>----- ----- ---------- --- --- ------ ------ ---- -- ------<br>------- --- ------ ----- --- ---- ------- -- easy --- --<br>------- ------,183775.39999997616,183774.30000007153,183477.235,183489.5,183493.887,183794.044,,51,easy
screen,html.Screen,2_1_1_1_52,2022-02-03T14:36:36.923Z,,,,,,,,,,,,,,,,,54,,,,,,,,,,,,,,236.35599997616373,,response,,,,100,,,,,,,Space,keypress(Space),,,,,,,,-- --- ---- --- ------ ----- ------- ---- -- --- ------- --<br>------- ---------- ------ -- ----- -- ----- -- ---- ------<br>--- ----- --- --- ------ -------- ----- --- ------ ----- --<br>----- ----- ---------- --- --- ------ ------ ---- -- ------<br>------- --- ------ ----- --- ---- ------- -- ---- way --<br>------- ------,184031.60000002384,184030.39999997616,183760.789,183775.70000004768,183794.044,184044.158,,52,way
screen,html.Screen,2_1_1_1_53,2022-02-03T14:36:37.206Z,,,,,,,,,,,,,,,,,54,,,,,,,,,,,,,,269.5420000476879,,response,,,,100,,,,,,,Space,keypress(Space),,,,,,,,-- --- ---- --- ------ ----- ------- ---- -- --- ------- --<br>------- ---------- ------ -- ----- -- ----- -- ---- ------<br>--- ----- --- --- ------ -------- ----- --- ------ ----- --<br>----- ----- ---------- --- --- ------ ------ ---- -- ------<br>------- --- ------ ----- --- ---- ------- -- ---- --- of<br>------- ------,184314,184313.70000004768,184027.461,184031.80000007153,184044.158,184327.069,,53,of
screen,html.Screen,2_1_1_1_54,2022-02-03T14:36:37.536Z,,,,,,,,,,,,,,,,,54,,,,,,,,,,,,,,316.03100002385327,,response,,,,100,,,,,,,Space,keypress(Space),,,,,,,,-- --- ---- --- ------ ----- ------- ---- -- --- ------- --<br>------- ---------- ------ -- ----- -- ----- -- ---- ------<br>--- ----- --- --- ------ -------- ----- --- ------ ----- --<br>----- ----- ---------- --- --- ------ ------ ---- -- ------<br>------- --- ------ ----- --- ---- ------- -- ---- --- --<br>raising ------,184644.10000002384,184643.10000002384,184310.815,184314.20000004768,184327.069,184660.826,,54,raising
screen,html.Screen,2_1_1_1_55,2022-02-03T14:36:37.924Z,,,,,,,,,,,,,,,,,54,,,,,,,,,,,,,,370.47400007152464,,response,,,,100,,,,,,,Space,keypress(Space),,,,,,,,-- --- ---- --- ------ ----- ------- ---- -- --- ------- --<br>------- ---------- ------ -- ----- -- ----- -- ---- ------<br>--- ----- --- --- ------ -------- ----- --- ------ ----- --<br>----- ----- ---------- --- --- ------ ------ ---- -- ------<br>------- --- ------ ----- --- ---- ------- -- ---- --- --<br>------- money.,185032.10000002384,185031.30000007153,184644.039,184644.39999997616,184660.826,185043.945,,55,money.
Item 100,flow.Loop,2_1_1_1,2022-02-03T14:36:37.924Z,,,,,,,,,,,,,,,,,,,,,,,,,,,,,,,17485.147000071534,,completion,,,,,A,,,,,,,,,,,silence,,,,,185032.20000004768,185031.30000007153,167529.69,167531.70000004768,167546.153,185043.945,,,
Question 1,html.Screen,2_1_1_2,2022-02-03T14:36:40.874Z,,,,,,,,,,,,,,,,,,,,,,,,,,,,false,TRUE,,2937.454999976151,,response,,,,100,A,,,,,,FALSE,click #choice-2,,,,silence,,,,,187982.5,187981.39999997616,185027.378,185032.20000004768,185043.945,187993.541,,,
Question 2,html.Screen,2_1_1_3,2022-02-03T14:36:42.753Z,,,,,,,,,,,,,,,,,,,,,,,,,,,,true,FALSE,,1866.3589999761607,,response,,,,100,A,,,,,,FALSE,click #choice-2,,,,silence,,,,,189861.60000002384,189859.89999997616,187976.965,187982.60000002384,187993.541,189876.394,,,
Item 100,flow.Sequence,2_1_1,2022-02-03T14:36:42.754Z,,,,,,,,,,,,,,,,,,,,,,,,,,,,,,,32312.605999976164,,completion,,,,,,,,,,,,,,,,,,,,,189862,189859.89999997616,157530.846,157533.60000002384,157547.294,189876.394,,,
End of Practice,html.Page,2_1_2,2022-02-03T14:36:47.561Z,,,,,,,,,,,,,,,,,,,,,,,,,,,,,,,4792.206000023842,,form submission,,,,,,,,,,,,,,,,,,,,,194669.10000002384,194668.60000002384,189859.707,189862.30000007153,189876.394,194675.582,,,
Practice,flow.Sequence,2_1,2022-02-03T14:36:47.562Z,,,,,,,,,,,,,,,,,,,,,,,,,,,,,,,74033.16100002384,,completion,,,,,,,,,,,,,,,,,,,,,194669.60000002384,194668.60000002384,120618.779,120624.20000004768,120635.439,194675.582,,,
Trap_instruction,html.Page,2_2_0,2022-02-03T14:36:51.013Z,,,,,,,,,,,,,,,,,,,,,,,,,,,,,,,3444.418000000005,,form submission,,,,,,,,,,,,,,,,,,,,,198120.5,198120,194659.481,194669.80000007153,194675.582,198125.228,,,
trap_trial,html.Screen,2_2_1,2022-02-03T14:36:54.649Z,,,,,,,,,,,,,,,,,,,,,,,,,,,,true,1,,3629.771999999997,,response,,,,,,,,,,,1,click #choice-1,,,,,,,,,201757,201755,198109.219,198120.80000007153,198125.228,201758.087,,,
end of trap trial,html.Page,2_2_2,2022-02-03T14:36:56.382Z,,,,,,,,,,,,,,,,,,,,,,,,,,,,,,,1731.0130000238423,,form submission,,,,,,,,,,,,,,,,,,,,,203489.60000002384,203489.10000002384,201741.543,201757.30000007153,201758.087,203491.273,,,
Trap 1,flow.Sequence,2_2,2022-02-03T14:36:56.382Z,,,,,,,,,,,,,,,,,,,,,,,,,,,,,,,8813.518000023847,,completion,,,,,,,,,,,,,,,,,,,,,203490.10000002384,203489.10000002384,194659.481,194669.70000004768,194675.582,203491.273,,,
Standby,html.Page,2_3_0,2022-02-03T14:37:04.368Z,,,,,,,,,,,,,,,,,,,,,,,,,,,,,,,7998.878000000026,,timeout,,,,,,,,,,,,,,,,,,,,,211475.60000002384,211473.936,203474.926,203490.39999997616,203491.273,211490.151,,,
Holding screen,html.Screen,2_3_1_0_0,2022-02-03T14:37:11.367Z,,,,,,,,,,,,,,,,,,,,,,,,,,,,,,,6999.255999999994,,timeout,,,,,,,,,,,,,,,,,,,,,218474.70000004768,218472.967,211473.936,211476,211490.151,218489.407,,,
screen,html.Screen,2_3_1_0_1_0,2022-02-03T14:37:11.938Z,,,,,,,,,,,,,,,,,2,,,,,,,,,,,,,,555.9929999761516,,response,,,,1,A,,,,,,Space,keypress(Space),,,,silence,,,,Two ---- ------ --- ------- ---------- ------- ----------<br>--- --------- --- ----------- ------- ----- ------- ---<br>--------- ---- -- --- ---- -- --------- -- ---- -------<br>-- --------- ------ --- ----- ------ ---- --- --------- --<br>------ - ---- -- --- ----------- ------- ---- ----- -----<br>--- -------- - ------ ---- -- ----- ---- --- --- -----------<br>-- -------,219046,219045.39999997616,218472.967,218475,218489.407,219056.142,,0,Two
screen,html.Screen,2_3_1_0_1_1,2022-02-03T14:37:12.316Z,,,,,,,,,,,,,,,,,2,,,,,,,,,,,,,,366.55800004769117,,response,,,,1,A,,,,,,Space,keypress(Space),,,,silence,,,,--- days ------ --- ------- ---------- ------- ----------<br>--- --------- --- ----------- ------- ----- ------- ---<br>--------- ---- -- --- ---- -- --------- -- ---- -------<br>-- --------- ------ --- ----- ------ ---- --- --------- --<br>------ - ---- -- --- ----------- ------- ---- ----- -----<br>--- -------- - ------ ---- -- ----- ---- --- --- -----------<br>-- -------,219423.80000007153,219422.70000004768,219039.532,219046.10000002384,219056.142,219439.596,,1,days
screen,html.Screen,2_3_1_0_1_2,2022-02-03T14:37:12.650Z,,,,,,,,,,,,,,,,,2,,,,,,,,,,,,,,317.7040000715351,,response,,,,1,A,,,,,,Space,keypress(Space),,,,silence,,,,"--- ---- later, --- ------- ---------- ------- ----------<br>--- --------- --- ----------- ------- ----- ------- ---<br>--------- ---- -- --- ---- -- --------- -- ---- -------<br>-- --------- ------ --- ----- ------ ---- --- --------- --<br>------ - ---- -- --- ----------- ------- ---- ----- -----<br>--- -------- - ------ ---- -- ----- ---- --- --- -----------<br>-- -------",219758.30000007153,219757.30000007153,219422.497,219424,219439.596,219772.837,,2,"later,"
screen,html.Screen,2_3_1_0_1_3,2022-02-03T14:37:13.002Z,,,,,,,,,,,,,,,,,2,,,,,,,,,,,,,,335.7630000238423,,response,,,,1,A,,,,,,Space,keypress(Space),,,,silence,,,,--- ---- ------ the ------- ---------- ------- ----------<br>--- --------- --- ----------- ------- ----- ------- ---<br>--------- ---- -- --- ---- -- --------- -- ---- -------<br>-- --------- ------ --- ----- ------ ---- --- --------- --<br>------ - ---- -- --- ----------- ------- ---- ----- -----<br>--- -------- - ------ ---- -- ----- ---- --- --- -----------<br>-- -------,220109.70000004768,220108.60000002384,219756.156,219758.60000002384,219772.837,220122.823,,3,the
screen,html.Screen,2_3_1_0_1_4,2022-02-03T14:37:13.296Z,,,,,,,,,,,,,,,,,2,,,,,,,,,,,,,,280.2770000238379,,response,,,,1,A,,,,,,Space,keypress(Space),,,,silence,,,,--- ---- ------ --- British ---------- ------- ----------<br>--- --------- --- ----------- ------- ----- ------- ---<br>--------- ---- -- --- ---- -- --------- -- ---- -------<br>-- --------- ------ --- ----- ------ ---- --- --------- --<br>------ - ---- -- --- ----------- ------- ---- ----- -----<br>--- -------- - ------ ---- -- ----- ---- --- --- -----------<br>-- -------,220403.60000002384,220403.10000002384,220106.116,220109.89999997616,220122.823,220423.257,,4,British
screen,html.Screen,2_3_1_0_1_5,2022-02-03T14:37:13.538Z,,,,,,,,,,,,,,,,,2,,,,,,,,,,,,,,221.34300002382952,,response,,,,1,A,,,,,,Space,keypress(Space),,,,silence,,,,--- ---- ------ --- ------- astronomer ------- ----------<br>--- --------- --- ----------- ------- ----- ------- ---<br>--------- ---- -- --- ---- -- --------- -- ---- -------<br>-- --------- ------ --- ----- ------ ---- --- --------- --<br>------ - ---- -- --- ----------- ------- ---- ----- -----<br>--- -------- - ------ ---- -- ----- ---- --- --- -----------<br>-- -------,220645.80000007153,220644.60000002384,220389.408,220404.20000004768,220423.257,220655.952,,5,astronomer
screen,html.Screen,2_3_1_0_1_6,2022-02-03T14:37:13.955Z,,,,,,,,,,,,,,,,,2,,,,,,,,,,,,,,405.9479999761679,,response,,,,1,A,,,,,,Space,keypress(Space),,,,silence,,,,--- ---- ------ --- ------- ---------- Richard ----------<br>--- --------- --- ----------- ------- ----- ------- ---<br>--------- ---- -- --- ---- -- --------- -- ---- -------<br>-- --------- ------ --- ----- ------ ---- --- --------- --<br>------ - ---- -- --- ----------- ------- ---- ----- -----<br>--- -------- - ------ ---- -- ----- ---- --- --- -----------<br>-- -------,221062.89999997616,221061.89999997616,220639.265,220646.10000002384,220655.952,221072.409,,6,Richard
screen,html.Screen,2_3_1_0_1_7,2022-02-03T14:37:14.265Z,,,,,,,,,,,,,,,,,2,,,,,,,,,,,,,,299.49099997614394,,response,,,,1,A,,,,,,Space,keypress(Space),,,,silence,,,,--- ---- ------ --- ------- ---------- ------- Carrington<br>--- --------- --- ----------- ------- ----- ------- ---<br>--------- ---- -- --- ---- -- --------- -- ---- -------<br>-- --------- ------ --- ----- ------ ---- --- --------- --<br>------ - ---- -- --- ----------- ------- ---- ----- -----<br>--- -------- - ------ ---- -- ----- ---- --- --- -----------<br>-- -------,221373,221371.89999997616,221055.941,221063.10000002384,221072.409,221389.332,,7,Carrington
screen,html.Screen,2_3_1_0_1_8,2022-02-03T14:37:14.661Z,,,,,,,,,,,,,,,,,2,,,,,,,,,,,,,,378.768000023847,,response,,,,1,A,,,,,,Space,keypress(Space),,,,silence,,,,--- ---- ------ --- ------- ---------- ------- ----------<br>was --------- --- ----------- ------- ----- ------- ---<br>--------- ---- -- --- ---- -- --------- -- ---- -------<br>-- --------- ------ --- ----- ------ ---- --- --------- --<br>------ - ---- -- --- ----------- ------- ---- ----- -----<br>--- -------- - ------ ---- -- ----- ---- --- --- -----------<br>-- -------,221769.10000002384,221768.10000002384,221372.407,221373.30000007153,221389.332,221772.194,,8,was
screen,html.Screen,2_3_1_0_1_9,2022-02-03T14:37:14.953Z,,,,,,,,,,,,,,,,,2,,,,,,,,,,,,,,287.40600002385327,,response,,,,1,A,,,,,,Space,keypress(Space),,,,silence,,,,--- ---- ------ --- ------- ---------- ------- ----------<br>--- observing --- ----------- ------- ----- ------- ---<br>--------- ---- -- --- ---- -- --------- -- ---- -------<br>-- --------- ------ --- ----- ------ ---- --- --------- --<br>------ - ---- -- --- ----------- ------- ---- ----- -----<br>--- -------- - ------ ---- -- ----- ---- --- --- -----------<br>-- -------,222060.80000007153,222059.60000002384,221755.48,221769.30000007153,221772.194,222072.531,,9,observing
screen,html.Screen,2_3_1_0_1_10,2022-02-03T14:37:15.251Z,,,,,,,,,,,,,,,,,2,,,,,,,,,,,,,,284.86899997617,,response,,,,1,A,,,,,,Space,keypress(Space),,,,silence,,,,--- ---- ------ --- ------- ---------- ------- ----------<br>--- --------- the ----------- ------- ----- ------- ---<br>--------- ---- -- --- ---- -- --------- -- ---- -------<br>-- --------- ------ --- ----- ------ ---- --- --------- --<br>------ - ---- -- --- ----------- ------- ---- ----- -----<br>--- -------- - ------ ---- -- ----- ---- --- --- -----------<br>-- -------,222358.39999997616,222357.39999997616,222055.788,222061,222072.531,222372.472,,10,the
screen,html.Screen,2_3_1_0_1_11,2022-02-03T14:37:15.526Z,,,,,,,,,,,,,,,,,2,,,,,,,,,,,,,,260.8280000715167,,response,,,,1,A,,,,,,Space,keypress(Space),,,,silence,,,,--- ---- ------ --- ------- ---------- ------- ----------<br>--- --------- --- interesting ------- ----- ------- ---<br>--------- ---- -- --- ---- -- --------- -- ---- -------<br>-- --------- ------ --- ----- ------ ---- --- --------- --<br>------ - ---- -- --- ----------- ------- ---- ----- -----<br>--- -------- - ------ ---- -- ----- ---- --- --- -----------<br>-- -------,222634.30000007153,222633.30000007153,222355.805,222358.70000004768,222372.472,222638.726,,11,interesting
screen,html.Screen,2_3_1_0_1_12,2022-02-03T14:37:15.888Z,,,,,,,,,,,,,,,,,2,,,,,,,,,,,,,,356.57400007153046,,response,,,,1,A,,,,,,Space,keypress(Space),,,,silence,,,,--- ---- ------ --- ------- ---------- ------- ----------<br>--- --------- --- ----------- sunspot ----- ------- ---<br>--------- ---- -- --- ---- -- --------- -- ---- -------<br>-- --------- ------ --- ----- ------ ---- --- --------- --<br>------ - ---- -- --- ----------- ------- ---- ----- -----<br>--- -------- - ------ ---- -- ----- ---- --- --- -----------<br>-- -------,222996,222995.30000007153,222622.029,222634.60000002384,222638.726,223005.62,,12,sunspot
screen,html.Screen,2_3_1_0_1_13,2022-02-03T14:37:16.230Z,,,,,,,,,,,,,,,,,2,,,,,,,,,,,,,,330.88000000000466,,response,,,,1,A,,,,,,Space,keypress(Space),,,,silence,,,,--- ---- ------ --- ------- ---------- ------- ----------<br>--- --------- --- ----------- ------- group ------- ---<br>--------- ---- -- --- ---- -- --------- -- ---- -------<br>-- --------- ------ --- ----- ------ ---- --- --------- --<br>------ - ---- -- --- ----------- ------- ---- ----- -----<br>--- -------- - ------ ---- -- ----- ---- --- --- -----------<br>-- -------,223337.70000004768,223336.5,222989.027,222996.20000004768,223005.62,223372.038,,13,group
screen,html.Screen,2_3_1_0_1_14,2022-02-03T14:37:16.568Z,,,,,,,,,,,,,,,,,2,,,,,,,,,,,,,,302.8619999761577,,response,,,,1,A,,,,,,Space,keypress(Space),,,,silence,,,,--- ---- ------ --- ------- ---------- ------- ----------<br>--- --------- --- ----------- ------- ----- through ---<br>--------- ---- -- --- ---- -- --------- -- ---- -------<br>-- --------- ------ --- ----- ------ ---- --- --------- --<br>------ - ---- -- --- ----------- ------- ---- ----- -----<br>--- -------- - ------ ---- -- ----- ---- --- --- -----------<br>-- -------,223676,223674.89999997616,223355.665,223338,223372.038,223689.016,,14,through
screen,html.Screen,2_3_1_0_1_15,2022-02-03T14:37:16.940Z,,,,,,,,,,,,,,,,,2,,,,,,,,,,,,,,357.8839999761549,,response,,,,1,A,,,,,,Space,keypress(Space),,,,silence,,,,--- ---- ------ --- ------- ---------- ------- ----------<br>--- --------- --- ----------- ------- ----- ------- his<br>--------- ---- -- --- ---- -- --------- -- ---- -------<br>-- --------- ------ --- ----- ------ ---- --- --------- --<br>------ - ---- -- --- ----------- ------- ---- ----- -----<br>--- -------- - ------ ---- -- ----- ---- --- --- -----------<br>-- -------,224047.60000002384,224046.89999997616,223672.31,223676.20000004768,223689.016,224055.197,,15,his
screen,html.Screen,2_3_1_0_1_16,2022-02-03T14:37:17.224Z,,,,,,,,,,,,,,,,,2,,,,,,,,,,,,,,275.30300000001444,,response,,,,1,A,,,,,,Space,keypress(Space),,,,silence,,,,--- ---- ------ --- ------- ---------- ------- ----------<br>--- --------- --- ----------- ------- ----- ------- ---<br>telescope ---- -- --- ---- -- --------- -- ---- -------<br>-- --------- ------ --- ----- ------ ---- --- --------- --<br>------ - ---- -- --- ----------- ------- ---- ----- -----<br>--- -------- - ------ ---- -- ----- ---- --- --- -----------<br>-- -------,224331.60000002384,224330.5,224038.543,224047.89999997616,224055.197,224338.437,,16,telescope
screen,html.Screen,2_3_1_0_1_17,2022-02-03T14:37:17.523Z,,,,,,,,,,,,,,,,,2,,,,,,,,,,,,,,291.56299999999464,,response,,,,1,A,,,,,,Space,keypress(Space),,,,silence,,,,--- ---- ------ --- ------- ---------- ------- ----------<br>--- --------- --- ----------- ------- ----- ------- ---<br>--------- when -- --- ---- -- --------- -- ---- -------<br>-- --------- ------ --- ----- ------ ---- --- --------- --<br>------ - ---- -- --- ----------- ------- ---- ----- -----<br>--- -------- - ------ ---- -- ----- ---- --- --- -----------<br>-- -------,224631.10000002384,224630,224322.24,224331.80000007153,224338.437,224638.469,,17,when
screen,html.Screen,2_3_1_0_1_18,2022-02-03T14:37:17.852Z,,,,,,,,,,,,,,,,,2,,,,,,,,,,,,,,320.5309999999881,,response,,,,1,A,,,,,,Space,keypress(Space),,,,silence,,,,--- ---- ------ --- ------- ---------- ------- ----------<br>--- --------- --- ----------- ------- ----- ------- ---<br>--------- ---- he --- ---- -- --------- -- ---- -------<br>-- --------- ------ --- ----- ------ ---- --- --------- --<br>------ - ---- -- --- ----------- ------- ---- ----- -----<br>--- -------- - ------ ---- -- ----- ---- --- --- -----------<br>-- -------,224960.20000004768,224959,224622.172,224631.39999997616,224638.469,224971.756,,18,he
screen,html.Screen,2_3_1_0_1_19,2022-02-03T14:37:18.106Z,,,,,,,,,,,,,,,,,2,,,,,,,,,,,,,,241.1439999761642,,response,,,,1,A,,,,,,Space,keypress(Space),,,,silence,,,,--- ---- ------ --- ------- ---------- ------- ----------<br>--- --------- --- ----------- ------- ----- ------- ---<br>--------- ---- -- saw ---- -- --------- -- ---- -------<br>-- --------- ------ --- ----- ------ ---- --- --------- --<br>------ - ---- -- --- ----------- ------- ---- ----- -----<br>--- -------- - ------ ---- -- ----- ---- --- --- -----------<br>-- -------,225214,225212.89999997616,224955.412,224960.5,224971.756,225221.691,,19,saw
screen,html.Screen,2_3_1_0_1_20,2022-02-03T14:37:18.386Z,,,,,,,,,,,,,,,,,2,,,,,,,,,,,,,,271.0090000476921,,response,,,,1,A,,,,,,Space,keypress(Space),,,,silence,,,,--- ---- ------ --- ------- ---------- ------- ----------<br>--- --------- --- ----------- ------- ----- ------- ---<br>--------- ---- -- --- what -- --------- -- ---- -------<br>-- --------- ------ --- ----- ------ ---- --- --------- --<br>------ - ---- -- --- ----------- ------- ---- ----- -----<br>--- -------- - ------ ---- -- ----- ---- --- --- -----------<br>-- -------,225494,225492.70000004768,225204.998,225214.20000004768,225221.691,225505.375,,20,what
screen,html.Screen,2_3_1_0_1_21,2022-02-03T14:37:18.593Z,,,,,,,,,,,,,,,,,2,,,,,,,,,,,,,,194.22500002384186,,response,,,,1,A,,,,,,Space,keypress(Space),,,,silence,,,,--- ---- ------ --- ------- ---------- ------- ----------<br>--- --------- --- ----------- ------- ----- ------- ---<br>--------- ---- -- --- ---- he --------- -- ---- -------<br>-- --------- ------ --- ----- ------ ---- --- --------- --<br>------ - ---- -- --- ----------- ------- ---- ----- -----<br>--- -------- - ------ ---- -- ----- ---- --- --- -----------<br>-- -------,225700.70000004768,225699.60000002384,225488.723,225494.20000004768,225505.375,225705.016,,21,he
screen,html.Screen,2_3_1_0_1_22,2022-02-03T14:37:18.806Z,,,,,,,,,,,,,,,,,2,,,,,,,,,,,,,,207.38399997615488,,response,,,,1,A,,,,,,Space,keypress(Space),,,,silence,,,,--- ---- ------ --- ------- ---------- ------- ----------<br>--- --------- --- ----------- ------- ----- ------- ---<br>--------- ---- -- --- ---- -- described -- ---- -------<br>-- --------- ------ --- ----- ------ ---- --- --------- --<br>------ - ---- -- --- ----------- ------- ---- ----- -----<br>--- -------- - ------ ---- -- ----- ---- --- --- -----------<br>-- -------,225913.39999997616,225912.39999997616,225688.675,225700.89999997616,225705.016,225921.607,,22,described
screen,html.Screen,2_3_1_0_1_23,2022-02-03T14:37:19.000Z,,,,,,,,,,,,,,,,,2,,,,,,,,,,,,,,185.4930000238528,,response,,,,1,A,,,,,,Space,keypress(Space),,,,silence,,,,--- ---- ------ --- ------- ---------- ------- ----------<br>--- --------- --- ----------- ------- ----- ------- ---<br>--------- ---- -- --- ---- -- --------- as ---- -------<br>-- --------- ------ --- ----- ------ ---- --- --------- --<br>------ - ---- -- --- ----------- ------- ---- ----- -----<br>--- -------- - ------ ---- -- ----- ---- --- --- -----------<br>-- -------,226108.30000007153,226107.10000002384,225905.265,225913.70000004768,225921.607,226121.608,,23,as
screen,html.Screen,2_3_1_0_1_24,2022-02-03T14:37:19.244Z,,,,,,,,,,,,,,,,,2,,,,,,,,,,,,,,229.39199999999255,,response,,,,1,A,,,,,,Space,keypress(Space),,,,silence,,,,"--- ---- ------ --- ------- ---------- ------- ----------<br>--- --------- --- ----------- ------- ----- ------- ---<br>--------- ---- -- --- ---- -- --------- -- ""two -------<br>-- --------- ------ --- ----- ------ ---- --- --------- --<br>------ - ---- -- --- ----------- ------- ---- ----- -----<br>--- -------- - ------ ---- -- ----- ---- --- --- -----------<br>-- -------",226352.10000002384,226351,226105.306,226108.60000002384,226121.608,226354.913,,24,"""two"
screen,html.Screen,2_3_1_0_1_25,2022-02-03T14:37:19.615Z,,,,,,,,,,,,,,,,,2,,,,,,,,,,,,,,367.28700004768325,,response,,,,1,A,,,,,,Space,keypress(Space),,,,silence,,,,--- ---- ------ --- ------- ---------- ------- ----------<br>--- --------- --- ----------- ------- ----- ------- ---<br>--------- ---- -- --- ---- -- --------- -- ---- patches<br>-- --------- ------ --- ----- ------ ---- --- --------- --<br>------ - ---- -- --- ----------- ------- ---- ----- -----<br>--- -------- - ------ ---- -- ----- ---- --- --- -----------<br>-- -------,226723.20000004768,226722.20000004768,226338.626,226352.30000007153,226354.913,226738.21,,25,patches
screen,html.Screen,2_3_1_0_1_26,2022-02-03T14:37:19.917Z,,,,,,,,,,,,,,,,,2,,,,,,,,,,,,,,285.79000000000815,,response,,,,1,A,,,,,,Space,keypress(Space),,,,silence,,,,--- ---- ------ --- ------- ---------- ------- ----------<br>--- --------- --- ----------- ------- ----- ------- ---<br>--------- ---- -- --- ---- -- --------- -- ---- -------<br>of --------- ------ --- ----- ------ ---- --- --------- --<br>------ - ---- -- --- ----------- ------- ---- ----- -----<br>--- -------- - ------ ---- -- ----- ---- --- --- -----------<br>-- -------,227025.30000007153,227024,226721.864,226723.5,226738.21,227038.549,,26,of
screen,html.Screen,2_3_1_0_1_27,2022-02-03T14:37:20.247Z,,,,,,,,,,,,,,,,,2,,,,,,,,,,,,,,315.45100000000093,,response,,,,1,A,,,,,,Space,keypress(Space),,,,silence,,,,--- ---- ------ --- ------- ---------- ------- ----------<br>--- --------- --- ----------- ------- ----- ------- ---<br>--------- ---- -- --- ---- -- --------- -- ---- -------<br>-- intensely ------ --- ----- ------ ---- --- --------- --<br>------ - ---- -- --- ----------- ------- ---- ----- -----<br>--- -------- - ------ ---- -- ----- ---- --- --- -----------<br>-- -------,227355.10000002384,227354,227021.75,227025.60000002384,227038.549,227371.699,,27,intensely
screen,html.Screen,2_3_1_0_1_28,2022-02-03T14:37:20.543Z,,,,,,,,,,,,,,,,,2,,,,,,,,,,,,,,277.9010000238486,,response,,,,1,A,,,,,,Space,keypress(Space),,,,silence,,,,--- ---- ------ --- ------- ---------- ------- ----------<br>--- --------- --- ----------- ------- ----- ------- ---<br>--------- ---- -- --- ---- -- --------- -- ---- -------<br>-- --------- bright --- ----- ------ ---- --- --------- --<br>------ - ---- -- --- ----------- ------- ---- ----- -----<br>--- -------- - ------ ---- -- ----- ---- --- --- -----------<br>-- -------,227650.70000004768,227649.60000002384,227355.126,227355.30000007153,227371.699,227654.681,,28,bright
screen,html.Screen,2_3_1_0_1_29,2022-02-03T14:37:20.948Z,,,,,,,,,,,,,,,,,2,,,,,,,,,,,,,,400.11900007151417,,response,,,,1,A,,,,,,Space,keypress(Space),,,,silence,,,,--- ---- ------ --- ------- ---------- ------- ----------<br>--- --------- --- ----------- ------- ----- ------- ---<br>--------- ---- -- --- ---- -- --------- -- ---- -------<br>-- --------- ------ and ----- ------ ---- --- --------- --<br>------ - ---- -- --- ----------- ------- ---- ----- -----<br>--- -------- - ------ ---- -- ----- ---- --- --- -----------<br>-- -------,228055.89999997616,228054.80000007153,227638.109,227650.89999997616,227654.681,228071.771,,29,and
screen,html.Screen,2_3_1_0_1_30,2022-02-03T14:37:21.246Z,,,,,,,,,,,,,,,,,2,,,,,,,,,,,,,,281.2289999999921,,response,,,,1,A,,,,,,Space,keypress(Space),,,,silence,,,,--- ---- ------ --- ------- ---------- ------- ----------<br>--- --------- --- ----------- ------- ----- ------- ---<br>--------- ---- -- --- ---- -- --------- -- ---- -------<br>-- --------- ------ --- white ------ ---- --- --------- --<br>------ - ---- -- --- ----------- ------- ---- ----- -----<br>--- -------- - ------ ---- -- ----- ---- --- --- -----------<br>-- -------,228354,228353,228054.69,228056.10000002384,228071.771,228371.691,,30,white
screen,html.Screen,2_3_1_0_1_31,2022-02-03T14:37:21.524Z,,,,,,,,,,,,,,,,,2,,,,,,,,,,,,,,258.7089999761665,,response,,,,1,A,,,,,,Space,keypress(Space),,,,silence,,,,"--- ---- ------ --- ------- ---------- ------- ----------<br>--- --------- --- ----------- ------- ----- ------- ---<br>--------- ---- -- --- ---- -- --------- -- ---- -------<br>-- --------- ------ --- ----- light"" ---- --- --------- --<br>------ - ---- -- --- ----------- ------- ---- ----- -----<br>--- -------- - ------ ---- -- ----- ---- --- --- -----------<br>-- -------",228631.39999997616,228630.39999997616,228355.014,228354.20000004768,228371.691,228637.84,,31,"light"""
screen,html.Screen,2_3_1_0_1_32,2022-02-03T14:37:21.812Z,,,,,,,,,,,,,,,,,2,,,,,,,,,,,,,,281.3600000476872,,response,,,,1,A,,,,,,Space,keypress(Space),,,,silence,,,,--- ---- ------ --- ------- ---------- ------- ----------<br>--- --------- --- ----------- ------- ----- ------- ---<br>--------- ---- -- --- ---- -- --------- -- ---- -------<br>-- --------- ------ --- ----- ------ over --- --------- --<br>------ - ---- -- --- ----------- ------- ---- ----- -----<br>--- -------- - ------ ---- -- ----- ---- --- --- -----------<br>-- -------,228920.20000004768,228919.20000004768,228621.65,228631.70000004768,228637.84,228938.133,,32,over
screen,html.Screen,2_3_1_0_1_33,2022-02-03T14:37:22.077Z,,,,,,,,,,,,,,,,,2,,,,,,,,,,,,,,245.86699999999837,,response,,,,1,A,,,,,,Space,keypress(Space),,,,silence,,,,--- ---- ------ --- ------- ---------- ------- ----------<br>--- --------- --- ----------- ------- ----- ------- ---<br>--------- ---- -- --- ---- -- --------- -- ---- -------<br>-- --------- ------ --- ----- ------ ---- the --------- --<br>------ - ---- -- --- ----------- ------- ---- ----- -----<br>--- -------- - ------ ---- -- ----- ---- --- --- -----------<br>-- -------,229185.30000007153,229184,228904.847,228920.39999997616,228938.133,229187.807,,33,the
screen,html.Screen,2_3_1_0_1_34,2022-02-03T14:37:22.311Z,,,,,,,,,,,,,,,,,2,,,,,,,,,,,,,,230.49300007152488,,response,,,,1,A,,,,,,Space,keypress(Space),,,,silence,,,,--- ---- ------ --- ------- ---------- ------- ----------<br>--- --------- --- ----------- ------- ----- ------- ---<br>--------- ---- -- --- ---- -- --------- -- ---- -------<br>-- --------- ------ --- ----- ------ ---- --- sunspots. --<br>------ - ---- -- --- ----------- ------- ---- ----- -----<br>--- -------- - ------ ---- -- ----- ---- --- --- -----------<br>-- -------,229419.20000004768,229418.30000007153,229171.477,229185.5,229187.807,229445.039,,34,sunspots.
screen,html.Screen,2_3_1_0_1_35,2022-02-03T14:37:22.533Z,,,,,,,,,,,,,,,,,2,,,,,,,,,,,,,,194.3609999761684,,response,,,,1,A,,,,,,Space,keypress(Space),,,,silence,,,,--- ---- ------ --- ------- ---------- ------- ----------<br>--- --------- --- ----------- ------- ----- ------- ---<br>--------- ---- -- --- ---- -- --------- -- ---- -------<br>-- --------- ------ --- ----- ------ ---- --- --------- He<br>------ - ---- -- --- ----------- ------- ---- ----- -----<br>--- -------- - ------ ---- -- ----- ---- --- --- -----------<br>-- -------,229640.5,229639.39999997616,229404.474,229419.39999997616,229445.039,229654.906,,35,He
screen,html.Screen,2_3_1_0_1_36,2022-02-03T14:37:22.957Z,,,,,,,,,,,,,,,,,2,,,,,,,,,,,,,,408.5940000000119,,response,,,,1,A,,,,,,Space,keypress(Space),,,,silence,,,,--- ---- ------ --- ------- ---------- ------- ----------<br>--- --------- --- ----------- ------- ----- ------- ---<br>--------- ---- -- --- ---- -- --------- -- ---- -------<br>-- --------- ------ --- ----- ------ ---- --- --------- --<br>jotted - ---- -- --- ----------- ------- ---- ----- -----<br>--- -------- - ------ ---- -- ----- ---- --- --- -----------<br>-- -------,230064.5,230063.5,229638.124,229640.80000007153,229654.906,230071.04,,36,jotted
screen,html.Screen,2_3_1_0_1_37,2022-02-03T14:37:23.227Z,,,,,,,,,,,,,,,,,2,,,,,,,,,,,,,,262.7600000715174,,response,,,,1,A,,,,,,Space,keypress(Space),,,,silence,,,,--- ---- ------ --- ------- ---------- ------- ----------<br>--- --------- --- ----------- ------- ----- ------- ---<br>--------- ---- -- --- ---- -- --------- -- ---- -------<br>-- --------- ------ --- ----- ------ ---- --- --------- --<br>------ a ---- -- --- ----------- ------- ---- ----- -----<br>--- -------- - ------ ---- -- ----- ---- --- --- -----------<br>-- -------,230334.80000007153,230333.80000007153,230054.731,230064.80000007153,230071.04,230337.72,,37,a
