sender,sender_type,sender_id,timestamp,meta,,Blues,Classical,Country,Dance,Electronic,Folk,Gospel,Hip-Hop,Jazz,Latin,Musical/Film,New-age,Pop,Prolific_id,Provo_ID,R&B,Rap,Reggae,Religious,Rock,Soul,Swing,Traditional,age,artist_name,correct,correctResponse,distraction,duration,education,ended_on,familiarity,gender,headphone_check_performance,item,list,music_frequency,offensiveness,pleasantness,position_correct,preference,response,response_action,snippet_file,song_name,song_rating,sound,stimulus_1,stimulus_2,stimulus_3,text,time_commit,time_end,time_render,time_run,time_show,time_switch,url,word,word_ID
Prolific ID,html.Form,0,2022-02-15T16:34:11.437Z,"{""labjs_version"":""20.2.2"",""labjs_build"":{""flavor"":""production"",""commit"":""a25486e0c714a0ae2ce03ff94b7bb6896854dcfa""},""location"":""https://run.pavlovia.org/mvasilev/prolific2_music_b/"",""userAgent"":""Mozilla/5.0 (Macintosh; Intel Mac OS X 10_15_7) AppleWebKit/537.36 (KHTML, like Gecko) Chrome/98.0.4758.102 Safari/537.36"",""platform"":""MacIntel"",""language"":""en-US"",""locale"":""en-GB"",""timeZone"":""Europe/London"",""timezoneOffset"":0,""screen_width"":1440,""screen_height"":900,""scroll_width"":1440,""scroll_height"":852,""window_innerWidth"":1440,""window_innerHeight"":900,""devicePixelRatio"":2}",,,,,,,,,,,,,,,60f816ff1fa74fcfab532378,,,,,,,,,,,,,,,21211.586000000094,,form submission,,,,,,,,,,,,,,,,,,,,,27024.899999999907,27024.100000000093,5795.848,5797.399999999907,5812.514,27028.332,{},,
Introduction,html.Screen,1_0,2022-02-15T16:34:18.055Z,,,,,,,,,,,,,,,,,,,,,,,,,,,,,,,6609.468000000281,,response,,,,,,,,,,,continue,click button,,,,,,,,,33642.89999999991,33637.80000000028,27011.666,27025.600000000093,27028.332,33644.734,,,
Volume calibration,html.Screen,1_1,2022-02-15T16:34:30.336Z,,,,,,,,,,,,,,,,,,,,,,,,,,,,,,,12276.766000000003,,response,,,,,,,,,,,continue,click button,,,,,,,,,45924.5,45921.5,33628.068,33643.200000000186,33644.734,45927.576,,,
Task instructions,html.Screen,1_2,2022-02-15T16:34:34.602Z,,,,,,,,,,,,,,,,,,,,,,,,,,,,,,,4260.423999999999,,response,,,,,,,,,,,continue,click button,,,,,,,,,50190.5,50188,45910.91,45924.60000000009,45927.576,50194.072,,,
Sounds,html.Screen,1_3_0_0,2022-02-15T16:34:38.844Z,,,,,,,,,,,,,,,,,,,,,,,,,,,,,,,4249.830000000002,,timeout,,,,,,,,,3,,,,,,,,I,O,S,,54432.60000000009,54427.236,50177.406,50190.89999999991,50194.072,54443.902,,,
Judgement,html.Screen,1_3_0_1,2022-02-15T16:34:39.536Z,,,,,,,,,,,,,,,,,,,,,,,,,,,,true,3,,677.6980000000913,,response,,,,,,,,,3,,3,click #choice-3,,,,,I,O,S,,55123.89999999991,55121.60000000009,54427.236,54432.80000000028,54443.902,55127.208,,,
Trial,flow.Sequence,1_3_0,2022-02-15T16:34:39.536Z,,,,,,,,,,,,,,,,,,,,,,,,,,,,,,,4927.528000000093,,completion,,,,,,,,,3,,,,,,,,I,O,S,,55124.30000000028,55121.60000000009,50177.406,50190.89999999991,50194.072,55127.208,,,
Sounds,html.Screen,1_3_1_0,2022-02-15T16:34:43.774Z,,,,,,,,,,,,,,,,,,,,,,,,,,,,,,,4249.830000000002,,timeout,,,,,,,,,2,,,,,,,,O,S,I,,59362.60000000009,59360.372,55110.542,55124.89999999991,55127.208,59377.038,,,
Judgement,html.Screen,1_3_1_1,2022-02-15T16:34:44.219Z,,,,,,,,,,,,,,,,,,,,,,,,,,,,true,2,,427.8619999999064,,response,,,,,,,,,2,,2,click #choice-2,,,,,O,S,I,,59807.60000000009,59804.89999999991,59360.372,59362.89999999991,59377.038,59810.354,,,
Trial,flow.Sequence,1_3_1,2022-02-15T16:34:44.220Z,,,,,,,,,,,,,,,,,,,,,,,,,,,,,,,4677.691999999908,,completion,,,,,,,,,2,,,,,,,,O,S,I,,59807.89999999991,59804.89999999991,55110.542,55124.39999999991,55127.208,59810.354,,,
Sounds,html.Screen,1_3_2_0,2022-02-15T16:34:48.458Z,,,,,,,,,,,,,,,,,,,,,,,,,,,,,,,4249.830000000002,,timeout,,,,,,,,,2,,,,,,,,I,S,O,,64046.200000000186,64043.518,59793.688,59808.30000000028,59810.354,64060.184,,,
Judgement,html.Screen,1_3_2_1,2022-02-15T16:34:48.919Z,,,,,,,,,,,,,,,,,,,,,,,,,,,,true,2,,444.71599999990576,,response,,,,,,,,,2,,2,click #choice-2,,,,,I,S,O,,64507.200000000186,64504.89999999991,64043.518,64046.5,64060.184,64510.166,,,
Trial,flow.Sequence,1_3_2,2022-02-15T16:34:48.919Z,,,,,,,,,,,,,,,,,,,,,,,,,,,,,,,4694.5459999999075,,completion,,,,,,,,,2,,,,,,,,I,S,O,,64507.60000000009,64504.89999999991,59793.688,59808.10000000009,59810.354,64510.166,,,
Sounds,html.Screen,1_3_3_0,2022-02-15T16:34:53.157Z,,,,,,,,,,,,,,,,,,,,,,,,,,,,,,,4249.830000000002,,timeout,,,,,,,,,1,,,,,,,,S,O,I,,68745.8999999999,68743.33,64493.5,64507.80000000028,64510.166,68759.996,,,
Judgement,html.Screen,1_3_3_1,2022-02-15T16:34:53.619Z,,,,,,,,,,,,,,,,,,,,,,,,,,,,true,1,,445.10400000009395,,response,,,,,,,,,1,,1,click #choice-1,,,,,S,O,I,,69207.30000000028,69205.1000000001,68743.33,68746.1000000001,68759.996,69209.978,,,
Trial,flow.Sequence,1_3_3,2022-02-15T16:34:53.619Z,,,,,,,,,,,,,,,,,,,,,,,,,,,,,,,4694.934000000096,,completion,,,,,,,,,1,,,,,,,,S,O,I,,69207.6000000001,69205.1000000001,64493.5,64507.700000000186,64510.166,69209.978,,,
Sounds,html.Screen,1_3_4_0,2022-02-15T16:34:57.857Z,,,,,,,,,,,,,,,,,,,,,,,,,,,,,,,4249.830000000002,,timeout,,,,,,,,,3,,,,,,,,O,I,S,,73445.1000000001,73443.142,69193.312,69207.8999999999,69209.978,73459.808,,,
Judgement,html.Screen,1_3_4_1,2022-02-15T16:34:58.285Z,,,,,,,,,,,,,,,,,,,,,,,,,,,,true,3,,411.99200000027486,,response,,,,,,,,,3,,3,click #choice-3,,,,,O,I,S,,73873.8999999999,73871.80000000028,73443.142,73445.30000000028,73459.808,73876.458,,,
Trial,flow.Sequence,1_3_4,2022-02-15T16:34:58.286Z,,,,,,,,,,,,,,,,,,,,,,,,,,,,,,,4661.822000000277,,completion,,,,,,,,,3,,,,,,,,O,I,S,,73874.3999999999,73871.80000000028,69193.312,69207.80000000028,69209.978,73876.458,,,
Sounds,html.Screen,1_3_5_0,2022-02-15T16:35:02.523Z,,,,,,,,,,,,,,,,,,,,,,,,,,,,,,,4249.830000000002,,timeout,,,,,,,,,1,,,,,,,,S,I,O,,78112.1000000001,78109.622,73859.792,73874.5,73876.458,78126.288,,,
Judgement,html.Screen,1_3_5_1,2022-02-15T16:35:02.935Z,,,,,,,,,,,,,,,,,,,,,,,,,,,,true,1,,395.51200000027893,,response,,,,,,,,,1,,1,click #choice-1,,,,,S,I,O,,78523.8999999999,78521.80000000028,78109.622,78112.3999999999,78126.288,78526.272,,,
Trial,flow.Sequence,1_3_5,2022-02-15T16:35:02.936Z,,,,,,,,,,,,,,,,,,,,,,,,,,,,,,,4645.342000000281,,completion,,,,,,,,,1,,,,,,,,S,I,O,,78524.1000000001,78521.80000000028,73859.792,73874.5,73876.458,78526.272,,,
Task,flow.Loop,1_3,2022-02-15T16:35:02.941Z,,,,,,,,,,,,,,,,,,,,,,,,,,,,,,,28327.72800000028,,completion,,,1,,,,,,,,,,,,,,,,,,78529.70000000019,78521.80000000028,50177.406,50190.700000000186,50194.072,78526.272,,,
Trap,html.Screen,1_4,2022-02-15T16:35:02.942Z,,,,,,,,,,,,,,,,,,,,,,,,,,,,,,,NaN,,skipped,,,,,,,,,,,,,,,,,,,,,78530.5,78521.80000000028,,78530.3999999999,,78526.272,,,
Thanks,html.Screen,1_5,2022-02-15T16:35:05.536Z,,,,,,,,,,,,,,,,,,,,,,,,,,,,,,,2595.6279999999097,,response,,,,,,,,,,,continue,click button,,,,,,,,,81124.6000000001,81121.8999999999,78509.606,78530.5,78526.272,83159.42,,,
Headphone screening,flow.Sequence,1,2022-02-15T16:35:05.536Z,,,,,,,,,,,,,,,,,,,,,,,,,,,,,,,54093.56799999991,,completion,,,,,,,,,,,,,,,,,,,,,81124.8999999999,81121.8999999999,27011.666,27025.5,27028.332,83159.42,,,
Instructions,html.Page,2_0,2022-02-15T16:35:27.637Z,,,,,,,,,,,,,,,,,,,,,,,,,,,,,,,20065.680000000095,,form submission,,,,,,,,,,,,,,,,,,,,,103225.70000000019,103225.1000000001,83142.754,83159.5,83159.42,103225.284,,,
Holding screen,html.Screen,2_1_0_0,2022-02-15T16:35:37.621Z,,,,,,,,,,,,,,,,,,,,,,,,,,,,,,,9999.600000000006,,timeout,,,,,,,,,,,,,,,,,,,,,113209.8999999999,113208.218,103208.618,103225.8999999999,103225.284,113224.884,,,
screen,html.Screen,2_1_0_1_0,2022-02-15T16:35:38.483Z,,,,,,,,,,,,,,,,,53,,,,,,,,,,,,,,839.0159999999014,,response,,,,99,,,,,,,Space,keypress(Space),,,,,,,,When -- ----- -- ------ - ------- --- ----------<br>------------- ------ ------ ---- ---- ------- ----- -- ----<br>-------- ------- -- ---------- --- - --- ----- ----- ----<br>---- --- --- ----- --- ---- ---- ------- ----- ---- -------<br>--- --- -- ----- -- --- ---- -- --- ---- -- ------ ------<br>--- ----- -- ----,114072,114063.8999999999,113208.218,113210.5,113224.884,114074.85,,0,When
screen,html.Screen,2_1_0_1_1,2022-02-15T16:35:38.921Z,,,,,,,,,,,,,,,,,53,,,,,,,,,,,,,,432.4500000002736,,response,,,,99,,,,,,,Space,keypress(Space),,,,,,,,---- it ----- -- ------ - ------- --- ----------<br>------------- ------ ------ ---- ---- ------- ----- -- ----<br>-------- ------- -- ---------- --- - --- ----- ----- ----<br>---- --- --- ----- --- ---- ---- ------- ----- ---- -------<br>--- --- -- ----- -- --- ---- -- --- ---- -- ------ ------<br>--- ----- -- ----,114510.5,114507.30000000028,114058.184,114072.20000000019,114074.85,114524.832,,1,it
screen,html.Screen,2_1_0_1_2,2022-02-15T16:35:39.432Z,,,,,,,,,,,,,,,,,53,,,,,,,,,,,,,,491.8680000001914,,response,,,,99,,,,,,,Space,keypress(Space),,,,,,,,---- -- comes -- ------ - ------- --- ----------<br>------------- ------ ------ ---- ---- ------- ----- -- ----<br>-------- ------- -- ---------- --- - --- ----- ----- ----<br>---- --- --- ----- --- ---- ---- ------- ----- ---- -------<br>--- --- -- ----- -- --- ---- -- --- ---- -- ------ ------<br>--- ----- -- ----,115020.80000000028,115016.70000000019,114508.166,114510.70000000019,114524.832,115024.812,,2,comes
screen,html.Screen,2_1_0_1_3,2022-02-15T16:35:39.831Z,,,,,,,,,,,,,,,,,53,,,,,,,,,,,,,,392.48800000027404,,response,,,,99,,,,,,,Space,keypress(Space),,,,,,,,---- -- ----- to ------ - ------- --- ----------<br>------------- ------ ------ ---- ---- ------- ----- -- ----<br>-------- ------- -- ---------- --- - --- ----- ----- ----<br>---- --- --- ----- --- ---- ---- ------- ----- ---- -------<br>--- --- -- ----- -- --- ---- -- --- ---- -- ------ ------<br>--- ----- -- ----,115420.30000000028,115417.30000000028,115008.146,115021.1000000001,115024.812,115424.796,,3,to
screen,html.Screen,2_1_0_1_4,2022-02-15T16:35:40.272Z,,,,,,,,,,,,,,,,,53,,,,,,,,,,,,,,433.80400000009104,,response,,,,99,,,,,,,Space,keypress(Space),,,,,,,,---- -- ----- -- having - ------- --- ----------<br>------------- ------ ------ ---- ---- ------- ----- -- ----<br>-------- ------- -- ---------- --- - --- ----- ----- ----<br>---- --- --- ----- --- ---- ---- ------- ----- ---- -------<br>--- --- -- ----- -- --- ---- -- --- ---- -- ------ ------<br>--- ----- -- ----,115861.3999999999,115858.6000000001,115408.13,115420.6000000001,115424.796,115874.778,,4,having
screen,html.Screen,2_1_0_1_5,2022-02-15T16:35:40.697Z,,,,,,,,,,,,,,,,,53,,,,,,,,,,,,,,408.7219999999943,,response,,,,99,,,,,,,Space,keypress(Space),,,,,,,,---- -- ----- -- ------ a ------- --- ----------<br>------------- ------ ------ ---- ---- ------- ----- -- ----<br>-------- ------- -- ---------- --- - --- ----- ----- ----<br>---- --- --- ----- --- ---- ---- ------- ----- ---- -------<br>--- --- -- ----- -- --- ---- -- --- ---- -- ------ ------<br>--- ----- -- ----,116285.80000000028,116283.5,115858.112,115861.6000000001,115874.778,116291.428,,5,a
screen,html.Screen,2_1_0_1_6,2022-02-15T16:35:41.159Z,,,,,,,,,,,,,,,,,53,,,,,,,,,,,,,,454.0720000000001,,response,,,,99,,,,,,,Space,keypress(Space),,,,,,,,---- -- ----- -- ------ - lasting --- ----------<br>------------- ------ ------ ---- ---- ------- ----- -- ----<br>-------- ------- -- ---------- --- - --- ----- ----- ----<br>---- --- --- ----- --- ---- ---- ------- ----- ---- -------<br>--- --- -- ----- -- --- ---- -- --- ---- -- ------ ------<br>--- ----- -- ----,116748,116745.5,116274.762,116286.1000000001,116291.428,116758.076,,6,lasting
screen,html.Screen,2_1_0_1_7,2022-02-15T16:35:41.650Z,,,,,,,,,,,,,,,,,53,,,,,,,,,,,,,,478.32399999990594,,response,,,,99,,,,,,,Space,keypress(Space),,,,,,,,---- -- ----- -- ------ - ------- and ----------<br>------------- ------ ------ ---- ---- ------- ----- -- ----<br>-------- ------- -- ---------- --- - --- ----- ----- ----<br>---- --- --- ----- --- ---- ---- ------- ----- ---- -------<br>--- --- -- ----- -- --- ---- -- --- ---- -- ------ ------<br>--- ----- -- ----,117239.20000000019,117236.3999999999,116741.41,116748.20000000019,116758.076,117241.39,,7,and
screen,html.Screen,2_1_0_1_8,2022-02-15T16:35:42.128Z,,,,,,,,,,,,,,,,,53,,,,,,,,,,,,,,472.81000000018685,,response,,,,99,,,,,,,Space,keypress(Space),,,,,,,,---- -- ----- -- ------ - ------- --- fulfilling<br>------------- ------ ------ ---- ---- ------- ----- -- ----<br>-------- ------- -- ---------- --- - --- ----- ----- ----<br>---- --- --- ----- --- ---- ---- ------- ----- ---- -------<br>--- --- -- ----- -- --- ---- -- --- ---- -- ------ ------<br>--- ----- -- ----,117716.8999999999,117714.20000000019,117224.724,117239.6000000001,117241.39,117724.704,,8,fulfilling
screen,html.Screen,2_1_0_1_9,2022-02-15T16:35:42.670Z,,,,,,,,,,,,,,,,,53,,,,,,,,,,,,,,531.2960000000021,,response,,,,99,,,,,,,Space,keypress(Space),,,,,,,,"---- -- ----- -- ------ - ------- --- ----------<br>relationship, ------ ------ ---- ---- ------- ----- -- ----<br>-------- ------- -- ---------- --- - --- ----- ----- ----<br>---- --- --- ----- --- ---- ---- ------- ----- ---- -------<br>--- --- -- ----- -- --- ---- -- --- ---- -- ------ ------<br>--- ----- -- ----",118259,118256,117708.038,117717.1000000001,117724.704,118274.682,,9,"relationship,"
screen,html.Screen,2_1_0_1_10,2022-02-15T16:35:43.115Z,,,,,,,,,,,,,,,,,53,,,,,,,,,,,,,,426.41800000009243,,response,,,,99,,,,,,,Space,keypress(Space),,,,,,,,---- -- ----- -- ------ - ------- --- ----------<br>------------- common ------ ---- ---- ------- ----- -- ----<br>-------- ------- -- ---------- --- - --- ----- ----- ----<br>---- --- --- ----- --- ---- ---- ------- ----- ---- -------<br>--- --- -- ----- -- --- ---- -- --- ---- -- ------ ------<br>--- ----- -- ----,118704.1000000001,118701.1000000001,118258.016,118259.3999999999,118274.682,118707.998,,10,common
screen,html.Screen,2_1_0_1_11,2022-02-15T16:35:43.550Z,,,,,,,,,,,,,,,,,53,,,,,,,,,,,,,,428.50199999999313,,response,,,,99,,,,,,,Space,keypress(Space),,,,,,,,---- -- ----- -- ------ - ------- --- ----------<br>------------- ------ wisdom ---- ---- ------- ----- -- ----<br>-------- ------- -- ---------- --- - --- ----- ----- ----<br>---- --- --- ----- --- ---- ---- ------- ----- ---- -------<br>--- --- -- ----- -- --- ---- -- --- ---- -- ------ ------<br>--- ----- -- ----,119139.5,119136.5,118691.332,118704.3999999999,118707.998,119141.314,,11,wisdom
screen,html.Screen,2_1_0_1_12,2022-02-15T16:35:43.994Z,,,,,,,,,,,,,,,,,53,,,,,,,,,,,,,,439.0859999999084,,response,,,,99,,,,,,,Space,keypress(Space),,,,,,,,---- -- ----- -- ------ - ------- --- ----------<br>------------- ------ ------ says ---- ------- ----- -- ----<br>-------- ------- -- ---------- --- - --- ----- ----- ----<br>---- --- --- ----- --- ---- ---- ------- ----- ---- -------<br>--- --- -- ----- -- --- ---- -- --- ---- -- ------ ------<br>--- ----- -- ----,119583.30000000028,119580.3999999999,119124.648,119139.70000000019,119141.314,119591.296,,12,says
screen,html.Screen,2_1_0_1_13,2022-02-15T16:35:44.414Z,,,,,,,,,,,,,,,,,53,,,,,,,,,,,,,,408.80400000009104,,response,,,,99,,,,,,,Space,keypress(Space),,,,,,,,---- -- ----- -- ------ - ------- --- ----------<br>------------- ------ ------ ---- that ------- ----- -- ----<br>-------- ------- -- ---------- --- - --- ----- ----- ----<br>---- --- --- ----- --- ---- ---- ------- ----- ---- -------<br>--- --- -- ----- -- --- ---- -- --- ---- -- ------ ------<br>--- ----- -- ----,120003.1000000001,120000.1000000001,119574.63,119583.70000000019,119591.296,120007.946,,13,that
screen,html.Screen,2_1_0_1_14,2022-02-15T16:35:44.788Z,,,,,,,,,,,,,,,,,53,,,,,,,,,,,,,,366.65400000009686,,response,,,,99,,,,,,,Space,keypress(Space),,,,,,,,---- -- ----- -- ------ - ------- --- ----------<br>------------- ------ ------ ---- ---- feeling ----- -- ----<br>-------- ------- -- ---------- --- - --- ----- ----- ----<br>---- --- --- ----- --- ---- ---- ------- ----- ---- -------<br>--- --- -- ----- -- --- ---- -- --- ---- -- ------ ------<br>--- ----- -- ----,120377.20000000019,120374.6000000001,119991.28,120003.20000000019,120007.946,120391.264,,14,feeling
screen,html.Screen,2_1_0_1_15,2022-02-15T16:35:45.147Z,,,,,,,,,,,,,,,,,53,,,,,,,,,,,,,,342.33600000009756,,response,,,,99,,,,,,,Space,keypress(Space),,,,,,,,---- -- ----- -- ------ - ------- --- ----------<br>------------- ------ ------ ---- ---- ------- close -- ----<br>-------- ------- -- ---------- --- - --- ----- ----- ----<br>---- --- --- ----- --- ---- ---- ------- ----- ---- -------<br>--- --- -- ----- -- --- ---- -- --- ---- -- ------ ------<br>--- ----- -- ----,120736.70000000019,120733.6000000001,120374.598,120377.3999999999,120391.264,120741.25,,15,close
screen,html.Screen,2_1_0_1_16,2022-02-15T16:35:45.567Z,,,,,,,,,,,,,,,,,53,,,,,,,,,,,,,,412.45000000018626,,response,,,,99,,,,,,,Space,keypress(Space),,,,,,,,---- -- ----- -- ------ - ------- --- ----------<br>------------- ------ ------ ---- ---- ------- ----- to ----<br>-------- ------- -- ---------- --- - --- ----- ----- ----<br>---- --- --- ----- --- ---- ---- ------- ----- ---- -------<br>--- --- -- ----- -- --- ---- -- --- ---- -- ------ ------<br>--- ----- -- ----,121156.80000000028,121153.70000000019,120724.584,120737.1000000001,120741.25,121174.566,,16,to
screen,html.Screen,2_1_0_1_17,2022-02-15T16:35:45.976Z,,,,,,,,,,,,,,,,,53,,,,,,,,,,,,,,389.03400000008696,,response,,,,99,,,,,,,Space,keypress(Space),,,,,,,,---- -- ----- -- ------ - ------- --- ----------<br>------------- ------ ------ ---- ---- ------- ----- -- your<br>-------- ------- -- ---------- --- - --- ----- ----- ----<br>---- --- --- ----- --- ---- ---- ------- ----- ---- -------<br>--- --- -- ----- -- --- ---- -- --- ---- -- ------ ------<br>--- ----- -- ----,121564.80000000028,121563.6000000001,121157.9,121157.1000000001,121174.566,121574.55,,17,your
screen,html.Screen,2_1_0_1_18,2022-02-15T16:35:46.447Z,,,,,,,,,,,,,,,,,53,,,,,,,,,,,,,,460.84999999990396,,response,,,,99,,,,,,,Space,keypress(Space),,,,,,,,---- -- ----- -- ------ - ------- --- ----------<br>------------- ------ ------ ---- ---- ------- ----- -- ----<br>romantic ------- -- ---------- --- - --- ----- ----- ----<br>---- --- --- ----- --- ---- ---- ------- ----- ---- -------<br>--- --- -- ----- -- --- ---- -- --- ---- -- ------ ------<br>--- ----- -- ----,122036.70000000019,122035.3999999999,121557.884,121565,121574.55,122041.198,,18,romantic
screen,html.Screen,2_1_0_1_19,2022-02-15T16:35:46.773Z,,,,,,,,,,,,,,,,,53,,,,,,,,,,,,,,318.80199999999604,,response,,,,99,,,,,,,Space,keypress(Space),,,,,,,,---- -- ----- -- ------ - ------- --- ----------<br>------------- ------ ------ ---- ---- ------- ----- -- ----<br>-------- partner -- ---------- --- - --- ----- ----- ----<br>---- --- --- ----- --- ---- ---- ------- ----- ---- -------<br>--- --- -- ----- -- --- ---- -- --- ---- -- ------ ------<br>--- ----- -- ----,122362.70000000019,122360,122024.532,122036.8999999999,122041.198,122374.518,,19,partner
screen,html.Screen,2_1_0_1_20,2022-02-15T16:35:47.144Z,,,,,,,,,,,,,,,,,53,,,,,,,,,,,,,,356.1820000001899,,response,,,,99,,,,,,,Space,keypress(Space),,,,,,,,---- -- ----- -- ------ - ------- --- ----------<br>------------- ------ ------ ---- ---- ------- ----- -- ----<br>-------- ------- is ---------- --- - --- ----- ----- ----<br>---- --- --- ----- --- ---- ---- ------- ----- ---- -------<br>--- --- -- ----- -- --- ---- -- --- ---- -- ------ ------<br>--- ----- -- ----,122733.6000000001,122730.70000000019,122357.852,122363.1000000001,122374.518,122741.17,,20,is
screen,html.Screen,2_1_0_1_21,2022-02-15T16:35:47.699Z,,,,,,,,,,,,,,,,,53,,,,,,,,,,,,,,543.8300000000017,,response,,,,99,,,,,,,Space,keypress(Space),,,,,,,,---- -- ----- -- ------ - ------- --- ----------<br>------------- ------ ------ ---- ---- ------- ----- -- ----<br>-------- ------- -- paramount. --- - --- ----- ----- ----<br>---- --- --- ----- --- ---- ---- ------- ----- ---- -------<br>--- --- -- ----- -- --- ---- -- --- ---- -- ------ ------<br>--- ----- -- ----,123288.20000000019,123285,122724.504,122734,122741.17,123307.814,,21,paramount.
screen,html.Screen,2_1_0_1_22,2022-02-15T16:35:48.148Z,,,,,,,,,,,,,,,,,53,,,,,,,,,,,,,,426.6860000000015,,response,,,,99,,,,,,,Space,keypress(Space),,,,,,,,---- -- ----- -- ------ - ------- --- ----------<br>------------- ------ ------ ---- ---- ------- ----- -- ----<br>-------- ------- -- ---------- But - --- ----- ----- ----<br>---- --- --- ----- --- ---- ---- ------- ----- ---- -------<br>--- --- -- ----- -- --- ---- -- --- ---- -- ------ ------<br>--- ----- -- ----,123737.30000000028,123734.5,123291.148,123288.3999999999,123307.814,123741.13,,22,But
screen,html.Screen,2_1_0_1_23,2022-02-15T16:35:48.471Z,,,,,,,,,,,,,,,,,53,,,,,,,,,,,,,,316.0700000001816,,response,,,,99,,,,,,,Space,keypress(Space),,,,,,,,---- -- ----- -- ------ - ------- --- ----------<br>------------- ------ ------ ---- ---- ------- ----- -- ----<br>-------- ------- -- ---------- --- a --- ----- ----- ----<br>---- --- --- ----- --- ---- ---- ------- ----- ---- -------<br>--- --- -- ----- -- --- ---- -- --- ---- -- ------ ------<br>--- ----- -- ----,124060.3999999999,124057.20000000019,123724.464,123737.6000000001,123741.13,124074.45,,23,a
screen,html.Screen,2_1_0_1_24,2022-02-15T16:35:48.861Z,,,,,,,,,,,,,,,,,53,,,,,,,,,,,,,,371.65000000009604,,response,,,,99,,,,,,,Space,keypress(Space),,,,,,,,---- -- ----- -- ------ - ------- --- ----------<br>------------- ------ ------ ---- ---- ------- ----- -- ----<br>-------- ------- -- ---------- --- - new ----- ----- ----<br>---- --- --- ----- --- ---- ---- ------- ----- ---- -------<br>--- --- -- ----- -- --- ---- -- --- ---- -- ------ ------<br>--- ----- -- ----,124450.20000000019,124446.1000000001,124057.784,124060.70000000019,124074.45,124457.768,,24,new
screen,html.Screen,2_1_0_1_25,2022-02-15T16:35:49.161Z,,,,,,,,,,,,,,,,,53,,,,,,,,,,,,,,289.7320000000036,,response,,,,99,,,,,,,Space,keypress(Space),,,,,,,,---- -- ----- -- ------ - ------- --- ----------<br>------------- ------ ------ ---- ---- ------- ----- -- ----<br>-------- ------- -- ---------- --- - --- study ----- ----<br>---- --- --- ----- --- ---- ---- ------- ----- ---- -------<br>--- --- -- ----- -- --- ---- -- --- ---- -- ------ ------<br>--- ----- -- ----,124750.3999999999,124747.5,124441.102,124450.6000000001,124457.768,124757.756,,25,study
screen,html.Screen,2_1_0_1_26,2022-02-15T16:35:49.523Z,,,,,,,,,,,,,,,,,53,,,,,,,,,,,,,,351.8440000000992,,response,,,,99,,,,,,,Space,keypress(Space),,,,,,,,---- -- ----- -- ------ - ------- --- ----------<br>------------- ------ ------ ---- ---- ------- ----- -- ----<br>-------- ------- -- ---------- --- - --- ----- finds ----<br>---- --- --- ----- --- ---- ---- ------- ----- ---- -------<br>--- --- -- ----- -- --- ---- -- --- ---- -- ------ ------<br>--- ----- -- ----,125112.5,125109.6000000001,124741.09,124750.6000000001,124757.756,125124.408,,26,finds
screen,html.Screen,2_1_0_1_27,2022-02-15T16:35:49.842Z,,,,,,,,,,,,,,,,,53,,,,,,,,,,,,,,304.0920000000042,,response,,,,99,,,,,,,Space,keypress(Space),,,,,,,,---- -- ----- -- ------ - ------- --- ----------<br>------------- ------ ------ ---- ---- ------- ----- -- ----<br>-------- ------- -- ---------- --- - --- ----- ----- that<br>---- --- --- ----- --- ---- ---- ------- ----- ---- -------<br>--- --- -- ----- -- --- ---- -- --- ---- -- ------ ------<br>--- ----- -- ----,125431.80000000028,125428.5,125107.742,125112.80000000028,125124.408,125441.062,,27,that
screen,html.Screen,2_1_0_1_28,2022-02-15T16:35:50.273Z,,,,,,,,,,,,,,,,,53,,,,,,,,,,,,,,418.23800000027404,,response,,,,99,,,,,,,Space,keypress(Space),,,,,,,,---- -- ----- -- ------ - ------- --- ----------<br>------------- ------ ------ ---- ---- ------- ----- -- ----<br>-------- ------- -- ---------- --- - --- ----- ----- ----<br>it's --- --- ----- --- ---- ---- ------- ----- ---- -------<br>--- --- -- ----- -- --- ---- -- --- ---- -- ------ ------<br>--- ----- -- ----,125862.20000000019,125859.30000000028,125424.396,125432.1000000001,125441.062,125874.378,,28,it's
screen,html.Screen,2_1_0_1_29,2022-02-15T16:35:50.610Z,,,,,,,,,,,,,,,,,53,,,,,,,,,,,,,,322.0219999999099,,response,,,,99,,,,,,,Space,keypress(Space),,,,,,,,---- -- ----- -- ------ - ------- --- ----------<br>------------- ------ ------ ---- ---- ------- ----- -- ----<br>-------- ------- -- ---------- --- - --- ----- ----- ----<br>---- not --- ----- --- ---- ---- ------- ----- ---- -------<br>--- --- -- ----- -- --- ---- -- --- ---- -- ------ ------<br>--- ----- -- ----,126198.8999999999,126196.3999999999,125857.712,125862.70000000019,125874.378,126207.698,,29,not
screen,html.Screen,2_1_0_1_30,2022-02-15T16:35:50.962Z,,,,,,,,,,,,,,,,,53,,,,,,,,,,,,,,341.0020000001823,,response,,,,99,,,,,,,Space,keypress(Space),,,,,,,,---- -- ----- -- ------ - ------- --- ----------<br>------------- ------ ------ ---- ---- ------- ----- -- ----<br>-------- ------- -- ---------- --- - --- ----- ----- ----<br>---- --- how ----- --- ---- ---- ------- ----- ---- -------<br>--- --- -- ----- -- --- ---- -- --- ---- -- ------ ------<br>--- ----- -- ----,126551.3999999999,126548.70000000019,126191.032,126199.1000000001,126207.698,126557.684,,30,how
screen,html.Screen,2_1_0_1_31,2022-02-15T16:35:51.323Z,,,,,,,,,,,,,,,,,53,,,,,,,,,,,,,,351.71599999991304,,response,,,,99,,,,,,,Space,keypress(Space),,,,,,,,---- -- ----- -- ------ - ------- --- ----------<br>------------- ------ ------ ---- ---- ------- ----- -- ----<br>-------- ------- -- ---------- --- - --- ----- ----- ----<br>---- --- --- close --- ---- ---- ------- ----- ---- -------<br>--- --- -- ----- -- --- ---- -- --- ---- -- ------ ------<br>--- ----- -- ----,126912.3999999999,126909.3999999999,126541.018,126551.8999999999,126557.684,126924.336,,31,close
screen,html.Screen,2_1_0_1_32,2022-02-15T16:35:51.680Z,,,,,,,,,,,,,,,,,53,,,,,,,,,,,,,,342.5639999999112,,response,,,,99,,,,,,,Space,keypress(Space),,,,,,,,---- -- ----- -- ------ - ------- --- ----------<br>------------- ------ ------ ---- ---- ------- ----- -- ----<br>-------- ------- -- ---------- --- - --- ----- ----- ----<br>---- --- --- ----- you ---- ---- ------- ----- ---- -------<br>--- --- -- ----- -- --- ---- -- --- ---- -- ------ ------<br>--- ----- -- ----,127269.5,127266.8999999999,126907.67,126912.70000000019,126924.336,127274.322,,32,you
screen,html.Screen,2_1_0_1_33,2022-02-15T16:35:51.963Z,,,,,,,,,,,,,,,,,53,,,,,,,,,,,,,,274.9780000002793,,response,,,,99,,,,,,,Space,keypress(Space),,,,,,,,---- -- ----- -- ------ - ------- --- ----------<br>------------- ------ ------ ---- ---- ------- ----- -- ----<br>-------- ------- -- ---------- --- - --- ----- ----- ----<br>---- --- --- ----- --- feel ---- ------- ----- ---- -------<br>--- --- -- ----- -- --- ---- -- --- ---- -- ------ ------<br>--- ----- -- ----,127552.30000000028,127549.30000000028,127257.656,127269.8999999999,127274.322,127557.644,,33,feel
screen,html.Screen,2_1_0_1_34,2022-02-15T16:35:52.339Z,,,,,,,,,,,,,,,,,53,,,,,,,,,,,,,,367.55600000018603,,response,,,,99,,,,,,,Space,keypress(Space),,,,,,,,---- -- ----- -- ------ - ------- --- ----------<br>------------- ------ ------ ---- ---- ------- ----- -- ----<br>-------- ------- -- ---------- --- - --- ----- ----- ----<br>---- --- --- ----- --- ---- that ------- ----- ---- -------<br>--- --- -- ----- -- --- ---- -- --- ---- -- ------ ------<br>--- ----- -- ----,127928,127925.20000000019,127540.978,127552.3999999999,127557.644,127940.962,,34,that
screen,html.Screen,2_1_0_1_35,2022-02-15T16:35:52.699Z,,,,,,,,,,,,,,,,,53,,,,,,,,,,,,,,344.23800000018673,,response,,,,99,,,,,,,Space,keypress(Space),,,,,,,,---- -- ----- -- ------ - ------- --- ----------<br>------------- ------ ------ ---- ---- ------- ----- -- ----<br>-------- ------- -- ---------- --- - --- ----- ----- ----<br>---- --- --- ----- --- ---- ---- matters ----- ---- -------<br>--- --- -- ----- -- --- ---- -- --- ---- -- ------ ------<br>--- ----- -- ----,128288,128285.20000000019,127924.296,127928.30000000028,127940.962,128290.948,,35,matters
screen,html.Screen,2_1_0_1_36,2022-02-15T16:35:53.096Z,,,,,,,,,,,,,,,,,53,,,,,,,,,,,,,,390.9519999999029,,response,,,,99,,,,,,,Space,keypress(Space),,,,,,,,"---- -- ----- -- ------ - ------- --- ----------<br>------------- ------ ------ ---- ---- ------- ----- -- ----<br>-------- ------- -- ---------- --- - --- ----- ----- ----<br>---- --- --- ----- --- ---- ---- ------- most, ---- -------<br>--- --- -- ----- -- --- ---- -- --- ---- -- ------ ------<br>--- ----- -- ----",128685.20000000019,128681.8999999999,128274.282,128288.3999999999,128290.948,128690.932,,36,"most,"
screen,html.Screen,2_1_0_1_37,2022-02-15T16:35:53.581Z,,,,,,,,,,,,,,,,,53,,,,,,,,,,,,,,476.66800000009243,,response,,,,99,,,,,,,Space,keypress(Space),,,,,,,,---- -- ----- -- ------ - ------- --- ----------<br>------------- ------ ------ ---- ---- ------- ----- -- ----<br>-------- ------- -- ---------- --- - --- ----- ----- ----<br>---- --- --- ----- --- ---- ---- ------- ----- it's -------<br>--- --- -- ----- -- --- ---- -- --- ---- -- ------ ------<br>--- ----- -- ----,129170.6000000001,129167.6000000001,128674.266,128685.5,128690.932,129174.246,,37,it's
screen,html.Screen,2_1_0_1_38,2022-02-15T16:35:53.912Z,,,,,,,,,,,,,,,,,53,,,,,,,,,,,,,,323.85400000009395,,response,,,,99,,,,,,,Space,keypress(Space),,,,,,,,---- -- ----- -- ------ - ------- --- ----------<br>------------- ------ ------ ---- ---- ------- ----- -- ----<br>-------- ------- -- ---------- --- - --- ----- ----- ----<br>---- --- --- ----- --- ---- ---- ------- ----- ---- whether<br>--- --- -- ----- -- --- ---- -- --- ---- -- ------ ------<br>--- ----- -- ----,129501,129498.1000000001,129157.58,129170.80000000028,129174.246,129507.566,,38,whether
screen,html.Screen,2_1_0_1_39,2022-02-15T16:35:54.247Z,,,,,,,,,,,,,,,,,53,,,,,,,,,,,,,,325.7340000002732,,response,,,,99,,,,,,,Space,keypress(Space),,,,,,,,---- -- ----- -- ------ - ------- --- ----------<br>------------- ------ ------ ---- ---- ------- ----- -- ----<br>-------- ------- -- ---------- --- - --- ----- ----- ----<br>---- --- --- ----- --- ---- ---- ------- ----- ---- -------<br>you --- -- ----- -- --- ---- -- --- ---- -- ------ ------<br>--- ----- -- ----,129836.1000000001,129833.30000000028,129490.9,129501.20000000019,129507.566,129840.886,,39,you
screen,html.Screen,2_1_0_1_40,2022-02-15T16:35:54.615Z,,,,,,,,,,,,,,,,,53,,,,,,,,,,,,,,360.9140000002808,,response,,,,99,,,,,,,Space,keypress(Space),,,,,,,,---- -- ----- -- ------ - ------- --- ----------<br>------------- ------ ------ ---- ---- ------- ----- -- ----<br>-------- ------- -- ---------- --- - --- ----- ----- ----<br>---- --- --- ----- --- ---- ---- ------- ----- ---- -------<br>--- are -- ----- -- --- ---- -- --- ---- -- ------ ------<br>--- ----- -- ----,130204.30000000028,130201.80000000028,129824.22,129836.3999999999,129840.886,130207.538,,40,are
screen,html.Screen,2_1_0_1_41,2022-02-15T16:35:55.036Z,,,,,,,,,,,,,,,,,53,,,,,,,,,,,,,,414.8619999999064,,response,,,,99,,,,,,,Space,keypress(Space),,,,,,,,---- -- ----- -- ------ - ------- --- ----------<br>------------- ------ ------ ---- ---- ------- ----- -- ----<br>-------- ------- -- ---------- --- - --- ----- ----- ----<br>---- --- --- ----- --- ---- ---- ------- ----- ---- -------<br>--- --- as ----- -- --- ---- -- --- ---- -- ------ ------<br>--- ----- -- ----,130625.3999999999,130622.3999999999,130190.872,130204.6000000001,130207.538,130640.854,,41,as
screen,html.Screen,2_1_0_1_42,2022-02-15T16:35:55.414Z,,,,,,,,,,,,,,,,,53,,,,,,,,,,,,,,359.7460000000865,,response,,,,99,,,,,,,Space,keypress(Space),,,,,,,,---- -- ----- -- ------ - ------- --- ----------<br>------------- ------ ------ ---- ---- ------- ----- -- ----<br>-------- ------- -- ---------- --- - --- ----- ----- ----<br>---- --- --- ----- --- ---- ---- ------- ----- ---- -------<br>--- --- -- close -- --- ---- -- --- ---- -- ------ ------<br>--- ----- -- ----,131003.3999999999,131000.6000000001,130624.188,130625.6000000001,130640.854,131007.506,,42,close
screen,html.Screen,2_1_0_1_43,2022-02-15T16:35:55.878Z,,,,,,,,,,,,,,,,,53,,,,,,,,,,,,,,457.1940000001923,,response,,,,99,,,,,,,Space,keypress(Space),,,,,,,,---- -- ----- -- ------ - ------- --- ----------<br>------------- ------ ------ ---- ---- ------- ----- -- ----<br>-------- ------- -- ---------- --- - --- ----- ----- ----<br>---- --- --- ----- --- ---- ---- ------- ----- ---- -------<br>--- --- -- ----- as --- ---- -- --- ---- -- ------ ------<br>--- ----- -- ----,131467.5,131464.7000000002,130990.84,131003.80000000028,131007.506,131474.154,,43,as
screen,html.Screen,2_1_0_1_44,2022-02-15T16:35:56.182Z,,,,,,,,,,,,,,,,,53,,,,,,,,,,,,,,294.2459999998973,,response,,,,99,,,,,,,Space,keypress(Space),,,,,,,,---- -- ----- -- ------ - ------- --- ----------<br>------------- ------ ------ ---- ---- ------- ----- -- ----<br>-------- ------- -- ---------- --- - --- ----- ----- ----<br>---- --- --- ----- --- ---- ---- ------- ----- ---- -------<br>--- --- -- ----- -- you ---- -- --- ---- -- ------ ------<br>--- ----- -- ----,131771.30000000028,131768.3999999999,131457.488,131467.7000000002,131474.154,131774.142,,44,you
screen,html.Screen,2_1_0_1_45,2022-02-15T16:35:56.554Z,,,,,,,,,,,,,,,,,53,,,,,,,,,,,,,,367.15800000028685,,response,,,,99,,,,,,,Space,keypress(Space),,,,,,,,---- -- ----- -- ------ - ------- --- ----------<br>------------- ------ ------ ---- ---- ------- ----- -- ----<br>-------- ------- -- ---------- --- - --- ----- ----- ----<br>---- --- --- ----- --- ---- ---- ------- ----- ---- -------<br>--- --- -- ----- -- --- want -- --- ---- -- ------ ------<br>--- ----- -- ----,132143.7000000002,132141.30000000028,131757.476,131771.6000000001,131774.142,132157.46,,45,want
screen,html.Screen,2_1_0_1_46,2022-02-15T16:35:56.950Z,,,,,,,,,,,,,,,,,53,,,,,,,,,,,,,,379.54000000000815,,response,,,,99,,,,,,,Space,keypress(Space),,,,,,,,---- -- ----- -- ------ - ------- --- ----------<br>------------- ------ ------ ---- ---- ------- ----- -- ----<br>-------- ------- -- ---------- --- - --- ----- ----- ----<br>---- --- --- ----- --- ---- ---- ------- ----- ---- -------<br>--- --- -- ----- -- --- ---- to --- ---- -- ------ ------<br>--- ----- -- ----,132539.6000000001,132537,132140.794,132144.1000000001,132157.46,132557.444,,46,to
screen,html.Screen,2_1_0_1_47,2022-02-15T16:35:57.318Z,,,,,,,,,,,,,,,,,53,,,,,,,,,,,,,,347.0560000000114,,response,,,,99,,,,,,,Space,keypress(Space),,,,,,,,"---- -- ----- -- ------ - ------- --- ----------<br>------------- ------ ------ ---- ---- ------- ----- -- ----<br>-------- ------- -- ---------- --- - --- ----- ----- ----<br>---- --- --- ----- --- ---- ---- ------- ----- ---- -------<br>--- --- -- ----- -- --- ---- -- be, ---- -- ------ ------<br>--- ----- -- ----",132907.2000000002,132904.5,132540.778,132539.80000000028,132557.444,132924.096,,47,"be,"
screen,html.Screen,2_1_0_1_48,2022-02-15T16:35:57.776Z,,,,,,,,,,,,,,,,,53,,,,,,,,,,,,,,438.20400000028894,,response,,,,99,,,,,,,Space,keypress(Space),,,,,,,,---- -- ----- -- ------ - ------- --- ----------<br>------------- ------ ------ ---- ---- ------- ----- -- ----<br>-------- ------- -- ---------- --- - --- ----- ----- ----<br>---- --- --- ----- --- ---- ---- ------- ----- ---- -------<br>--- --- -- ----- -- --- ---- -- --- even -- ------ ------<br>--- ----- -- ----,133365.1000000001,133362.30000000028,132907.43,132907.6000000001,132924.096,133374.078,,48,even
screen,html.Screen,2_1_0_1_49,2022-02-15T16:35:58.142Z,,,,,,,,,,,,,,,,,53,,,,,,,,,,,,,,354.4219999999914,,response,,,,99,,,,,,,Space,keypress(Space),,,,,,,,---- -- ----- -- ------ - ------- --- ----------<br>------------- ------ ------ ---- ---- ------- ----- -- ----<br>-------- ------- -- ---------- --- - --- ----- ----- ----<br>---- --- --- ----- --- ---- ---- ------- ----- ---- -------<br>--- --- -- ----- -- --- ---- -- --- ---- if ------ ------<br>--- ----- -- ----,133731.30000000028,133728.5,133357.412,133365.30000000028,133374.078,133740.73,,49,if
screen,html.Screen,2_1_0_1_50,2022-02-15T16:35:58.445Z,,,,,,,,,,,,,,,,,53,,,,,,,,,,,,,,290.5700000002689,,response,,,,99,,,,,,,Space,keypress(Space),,,,,,,,---- -- ----- -- ------ - ------- --- ----------<br>------------- ------ ------ ---- ---- ------- ----- -- ----<br>-------- ------- -- ---------- --- - --- ----- ----- ----<br>---- --- --- ----- --- ---- ---- ------- ----- ---- -------<br>--- --- -- ----- -- --- ---- -- --- ---- -- that's ------<br>--- ----- -- ----,134034.1000000001,134031.30000000028,133724.064,133731.6000000001,133740.73,134040.718,,50,that's
screen,html.Screen,2_1_0_1_51,2022-02-15T16:35:58.837Z,,,,,,,,,,,,,,,,,53,,,,,,,,,,,,,,383.0820000002859,,response,,,,99,,,,,,,Space,keypress(Space),,,,,,,,---- -- ----- -- ------ - ------- --- ----------<br>------------- ------ ------ ---- ---- ------- ----- -- ----<br>-------- ------- -- ---------- --- - --- ----- ----- ----<br>---- --- --- ----- --- ---- ---- ------- ----- ---- -------<br>--- --- -- ----- -- --- ---- -- --- ---- -- ------ really<br>--- ----- -- ----,134426.6000000001,134423.80000000028,134024.052,134034.3999999999,134040.718,134440.702,,51,really
screen,html.Screen,2_1_0_1_52,2022-02-15T16:35:59.223Z,,,,,,,,,,,,,,,,,53,,,,,,,,,,,,,,368.7980000000098,,response,,,,99,,,,,,,Space,keypress(Space),,,,,,,,---- -- ----- -- ------ - ------- --- ----------<br>------------- ------ ------ ---- ---- ------- ----- -- ----<br>-------- ------- -- ---------- --- - --- ----- ----- ----<br>---- --- --- ----- --- ---- ---- ------- ----- ---- -------<br>--- --- -- ----- -- --- ---- -- --- ---- -- ------ ------<br>not ----- -- ----,134813,134809.5,134424.036,134426.80000000028,134440.702,134824.02,,52,not
screen,html.Screen,2_1_0_1_53,2022-02-15T16:35:59.500Z,,,,,,,,,,,,,,,,,53,,,,,,,,,,,,,,262.4800000000105,,response,,,,99,,,,,,,Space,keypress(Space),,,,,,,,---- -- ----- -- ------ - ------- --- ----------<br>------------- ------ ------ ---- ---- ------- ----- -- ----<br>-------- ------- -- ---------- --- - --- ----- ----- ----<br>---- --- --- ----- --- ---- ---- ------- ----- ---- -------<br>--- --- -- ----- -- --- ---- -- --- ---- -- ------ ------<br>--- close -- ----,135089.5,135086.5,134807.354,134813.2000000002,134824.02,135107.342,,53,close
screen,html.Screen,2_1_0_1_54,2022-02-15T16:35:59.853Z,,,,,,,,,,,,,,,,,53,,,,,,,,,,,,,,333.3580000001821,,response,,,,99,,,,,,,Space,keypress(Space),,,,,,,,---- -- ----- -- ------ - ------- --- ----------<br>------------- ------ ------ ---- ---- ------- ----- -- ----<br>-------- ------- -- ---------- --- - --- ----- ----- ----<br>---- --- --- ----- --- ---- ---- ------- ----- ---- -------<br>--- --- -- ----- -- --- ---- -- --- ---- -- ------ ------<br>--- ----- at ----,135442.80000000028,135440.7000000002,135090.676,135089.8999999999,135107.342,135457.328,,54,at
screen,html.Screen,2_1_0_1_55,2022-02-15T16:36:00.374Z,,,,,,,,,,,,,,,,,53,,,,,,,,,,,,,,502.6719999999914,,response,,,,99,,,,,,,Space,keypress(Space),,,,,,,,---- -- ----- -- ------ - ------- --- ----------<br>------------- ------ ------ ---- ---- ------- ----- -- ----<br>-------- ------- -- ---------- --- - --- ----- ----- ----<br>---- --- --- ----- --- ---- ---- ------- ----- ---- -------<br>--- --- -- ----- -- --- ---- -- --- ---- -- ------ ------<br>--- ----- -- all.,135963,135960,135440.662,135443.1000000001,135457.328,135973.974,,55,all.
Item 99,flow.Loop,2_1_0_1,2022-02-15T16:36:00.374Z,,,,,,,,,,,,,,,,,,,,,,,,,,,,,,,22735.115999999995,,completion,,,,,B,,,,,,,,,,,silence,,,,,135963.6000000001,135960,113208.218,113210.3999999999,113224.884,135973.974,,,
Question 1,html.Screen,2_1_0_2,2022-02-15T16:36:08.735Z,,,,,,,,,,,,,,,,,,,,,,,,,,,,false,FALSE,,8348.726000000199,,response,,,,99,B,,,,,,TRUE,click #choice-1,,,,silence,,,,,144324.5,144322.7000000002,135957.308,135963.7000000002,135973.974,144340.306,,,
Question 2,html.Screen,2_1_0_3,2022-02-15T16:36:15.269Z,,,,,,,,,,,,,,,,,,,,,,,,,,,,true,TRUE,,6515.794000000082,,response,,,,99,B,,,,,,TRUE,click #choice-1,,,,silence,,,,,150858.3999999999,150856.1000000001,144323.64,144324.7000000002,144340.306,150873.378,,,
Item 99,flow.Sequence,2_1_0,2022-02-15T16:36:15.269Z,,,,,,,,,,,,,,,,,,,,,,,,,,,,,,,47630.81600000009,,completion,,,,,,,,,,,,,,,,,,,,,150858.6000000001,150856.1000000001,103208.618,103225.8999999999,103225.284,150873.378,,,
Holding screen,html.Screen,2_1_1_0,2022-02-15T16:36:25.269Z,,,,,,,,,,,,,,,,,,,,,,,,,,,,,,,9999.600000000006,,timeout,,,,,,,,,,,,,,,,,,,,,160858.5,160856.312,150856.712,150858.8999999999,150873.378,160872.978,,,
screen,html.Screen,2_1_1_1_0,2022-02-15T16:36:25.831Z,,,,,,,,,,,,,,,,,54,,,,,,,,,,,,,,544.8220000002766,,response,,,,100,,,,,,,Space,keypress(Space),,,,,,,,At --- ---- --- ------ ----- ------- ---- -- --- ------- --<br>------- ---------- ------ -- ----- -- ----- -- ---- ------<br>--- ----- --- --- ------ -------- ----- --- ------ ----- --<br>----- ----- ---------- --- --- ------ ------ ---- -- ------<br>------- --- ------ ----- --- ---- ------- -- ---- --- --<br>------- ------,161421.30000000028,161417.80000000028,160856.312,160858.8999999999,160872.978,161422.956,,0,At
screen,html.Screen,2_1_1_1_1,2022-02-15T16:36:26.288Z,,,,,,,,,,,,,,,,,54,,,,,,,,,,,,,,452.5439999999944,,response,,,,100,,,,,,,Space,keypress(Space),,,,,,,,-- the ---- --- ------ ----- ------- ---- -- --- ------- --<br>------- ---------- ------ -- ----- -- ----- -- ---- ------<br>--- ----- --- --- ------ -------- ----- --- ------ ----- --<br>----- ----- ---------- --- --- ------ ------ ---- -- ------<br>------- --- ------ ----- --- ---- ------- -- ---- --- --<br>------- ------,161878.3999999999,161875.5,161406.29,161421.7000000002,161422.956,161889.604,,1,the
screen,html.Screen,2_1_1_1_2,2022-02-15T16:36:26.613Z,,,,,,,,,,,,,,,,,54,,,,,,,,,,,,,,310.99600000010105,,response,,,,100,,,,,,,Space,keypress(Space),,,,,,,,-- --- time --- ------ ----- ------- ---- -- --- ------- --<br>------- ---------- ------ -- ----- -- ----- -- ---- ------<br>--- ----- --- --- ------ -------- ----- --- ------ ----- --<br>----- ----- ---------- --- --- ------ ------ ---- -- ------<br>------- --- ------ ----- --- ---- ------- -- ---- --- --<br>------- ------,162203.2000000002,162200.6000000001,161872.938,161878.7000000002,161889.604,162206.258,,2,time
screen,html.Screen,2_1_1_1_3,2022-02-15T16:36:26.954Z,,,,,,,,,,,,,,,,,54,,,,,,,,,,,,,,335.24199999999837,,response,,,,100,,,,,,,Space,keypress(Space),,,,,,,,-- --- ---- the ------ ----- ------- ---- -- --- ------- --<br>------- ---------- ------ -- ----- -- ----- -- ---- ------<br>--- ----- --- --- ------ -------- ----- --- ------ ----- --<br>----- ----- ---------- --- --- ------ ------ ---- -- ------<br>------- --- ------ ----- --- ---- ------- -- ---- --- --<br>------- ------,162544.3999999999,162541.5,162189.592,162203.5,162206.258,162556.244,,3,the
screen,html.Screen,2_1_1_1_4,2022-02-15T16:36:27.307Z,,,,,,,,,,,,,,,,,54,,,,,,,,,,,,,,337.3560000000871,,response,,,,100,,,,,,,Space,keypress(Space),,,,,,,,-- --- ---- --- French ----- ------- ---- -- --- ------- --<br>------- ---------- ------ -- ----- -- ----- -- ---- ------<br>--- ----- --- --- ------ -------- ----- --- ------ ----- --<br>----- ----- ---------- --- --- ------ ------ ---- -- ------<br>------- --- ------ ----- --- ---- ------- -- ---- --- --<br>------- ------,162896.6000000001,162893.6000000001,162539.578,162544.6000000001,162556.244,162906.23,,4,French
screen,html.Screen,2_1_1_1_5,2022-02-15T16:36:27.680Z,,,,,,,,,,,,,,,,,54,,,,,,,,,,,,,,361.4700000001758,,response,,,,100,,,,,,,Space,keypress(Space),,,,,,,,-- --- ---- --- ------ crown ------- ---- -- --- ------- --<br>------- ---------- ------ -- ----- -- ----- -- ---- ------<br>--- ----- --- --- ------ -------- ----- --- ------ ----- --<br>----- ----- ---------- --- --- ------ ------ ---- -- ------<br>------- --- ------ ----- --- ---- ------- -- ---- --- --<br>------- ------,163270.3999999999,163267.7000000002,162889.564,162896.8999999999,162906.23,163272.882,,5,crown
screen,html.Screen,2_1_1_1_6,2022-02-15T16:36:28.058Z,,,,,,,,,,,,,,,,,54,,,,,,,,,,,,,,372.7180000000808,,response,,,,100,,,,,,,Space,keypress(Space),,,,,,,,-- --- ---- --- ------ ----- secured ---- -- --- ------- --<br>------- ---------- ------ -- ----- -- ----- -- ---- ------<br>--- ----- --- --- ------ -------- ----- --- ------ ----- --<br>----- ----- ---------- --- --- ------ ------ ---- -- ------<br>------- --- ------ ----- --- ---- ------- -- ---- --- --<br>------- ------,163648,163645.6000000001,163256.216,163270.6000000001,163272.882,163656.2,,6,secured
screen,html.Screen,2_1_1_1_7,2022-02-15T16:36:28.431Z,,,,,,,,,,,,,,,,,54,,,,,,,,,,,,,,361.60000000026776,,response,,,,100,,,,,,,Space,keypress(Space),,,,,,,,-- --- ---- --- ------ ----- ------- much -- --- ------- --<br>------- ---------- ------ -- ----- -- ----- -- ---- ------<br>--- ----- --- --- ------ -------- ----- --- ------ ----- --<br>----- ----- ---------- --- --- ------ ------ ---- -- ------<br>------- --- ------ ----- --- ---- ------- -- ---- --- --<br>------- ------,164020.7000000002,164017.80000000028,163639.534,163648.2000000002,163656.2,164022.852,,7,much
screen,html.Screen,2_1_1_1_8,2022-02-15T16:36:28.770Z,,,,,,,,,,,,,,,,,54,,,,,,,,,,,,,,334.4480000002659,,response,,,,100,,,,,,,Space,keypress(Space),,,,,,,,-- --- ---- --- ------ ----- ------- ---- of --- ------- --<br>------- ---------- ------ -- ----- -- ----- -- ---- ------<br>--- ----- --- --- ------ -------- ----- --- ------ ----- --<br>----- ----- ---------- --- --- ------ ------ ---- -- ------<br>------- --- ------ ----- --- ---- ------- -- ---- --- --<br>------- ------,164360.30000000028,164357.30000000028,164006.186,164020.8999999999,164022.852,164372.838,,8,of
screen,html.Screen,2_1_1_1_9,2022-02-15T16:36:29.065Z,,,,,,,,,,,,,,,,,54,,,,,,,,,,,,,,279.7620000001043,,response,,,,100,,,,,,,Space,keypress(Space),,,,,,,,-- --- ---- --- ------ ----- ------- ---- -- its ------- --<br>------- ---------- ------ -- ----- -- ----- -- ---- ------<br>--- ----- --- --- ------ -------- ----- --- ------ ----- --<br>----- ----- ---------- --- --- ------ ------ ---- -- ------<br>------- --- ------ ----- --- ---- ------- -- ---- --- --<br>------- ------,164655.30000000028,164652.6000000001,164356.172,164360.6000000001,164372.838,164672.826,,9,its
screen,html.Screen,2_1_1_1_10,2022-02-15T16:36:29.398Z,,,,,,,,,,,,,,,,,54,,,,,,,,,,,,,,312.17399999999907,,response,,,,100,,,,,,,Space,keypress(Space),,,,,,,,-- --- ---- --- ------ ----- ------- ---- -- --- revenue --<br>------- ---------- ------ -- ----- -- ----- -- ---- ------<br>--- ----- --- --- ------ -------- ----- --- ------ ----- --<br>----- ----- ---------- --- --- ------ ------ ---- -- ------<br>------- --- ------ ----- --- ---- ------- -- ---- --- --<br>------- ------,164987.8999999999,164985,164656.16,164655.6000000001,164672.826,164989.48,,10,revenue
screen,html.Screen,2_1_1_1_11,2022-02-15T16:36:29.767Z,,,,,,,,,,,,,,,,,54,,,,,,,,,,,,,,365.8200000002689,,response,,,,100,,,,,,,Space,keypress(Space),,,,,,,,-- --- ---- --- ------ ----- ------- ---- -- --- ------- by<br>------- ---------- ------ -- ----- -- ----- -- ---- ------<br>--- ----- --- --- ------ -------- ----- --- ------ ----- --<br>----- ----- ---------- --- --- ------ ------ ---- -- ------<br>------- --- ------ ----- --- ---- ------- -- ---- --- --<br>------- ------,165357.3999999999,165355.30000000028,164972.814,164988.1000000001,164989.48,165372.798,,11,by
screen,html.Screen,2_1_1_1_12,2022-02-15T16:36:30.114Z,,,,,,,,,,,,,,,,,54,,,,,,,,,,,,,,328.30200000008335,,response,,,,100,,,,,,,Space,keypress(Space),,,,,,,,-- --- ---- --- ------ ----- ------- ---- -- --- ------- --<br>issuing ---------- ------ -- ----- -- ----- -- ---- ------<br>--- ----- --- --- ------ -------- ----- --- ------ ----- --<br>----- ----- ---------- --- --- ------ ------ ---- -- ------<br>------- --- ------ ----- --- ---- ------- -- ---- --- --<br>------- ------,165703.8999999999,165701.1000000001,165356.132,165358.5,165372.798,165706.118,,12,issuing
screen,html.Screen,2_1_1_1_13,2022-02-15T16:36:30.508Z,,,,,,,,,,,,,,,,,54,,,,,,,,,,,,,,388.9820000001055,,response,,,,100,,,,,,,Space,keypress(Space),,,,,,,,-- --- ---- --- ------ ----- ------- ---- -- --- ------- --<br>------- government ------ -- ----- -- ----- -- ---- ------<br>--- ----- --- --- ------ -------- ----- --- ------ ----- --<br>----- ----- ---------- --- --- ------ ------ ---- -- ------<br>------- --- ------ ----- --- ---- ------- -- ---- --- --<br>------- ------,166098.1000000001,166095.1000000001,165689.452,165704.30000000028,165706.118,166106.102,,13,government
screen,html.Screen,2_1_1_1_14,2022-02-15T16:36:30.880Z,,,,,,,,,,,,,,,,,54,,,,,,,,,,,,,,361.29799999989336,,response,,,,100,,,,,,,Space,keypress(Space),,,,,,,,-- --- ---- --- ------ ----- ------- ---- -- --- ------- --<br>------- ---------- bonds. -- ----- -- ----- -- ---- ------<br>--- ----- --- --- ------ -------- ----- --- ------ ----- --<br>----- ----- ---------- --- --- ------ ------ ---- -- ------<br>------- --- ------ ----- --- ---- ------- -- ---- --- --<br>------- ------,166470.1000000001,166467.3999999999,166089.436,166098.3999999999,166106.102,166472.754,,14,bonds.
screen,html.Screen,2_1_1_1_15,2022-02-15T16:36:31.334Z,,,,,,,,,,,,,,,,,54,,,,,,,,,,,,,,448.24600000001374,,response,,,,100,,,,,,,Space,keypress(Space),,,,,,,,-- --- ---- --- ------ ----- ------- ---- -- --- ------- --<br>------- ---------- ------ In ----- -- ----- -- ---- ------<br>--- ----- --- --- ------ -------- ----- --- ------ ----- --<br>----- ----- ---------- --- --- ------ ------ ---- -- ------<br>------- --- ------ ----- --- ---- ------- -- ---- --- --<br>------- ------,166923.80000000028,166921,166456.088,166470.30000000028,166472.754,166939.402,,15,In
screen,html.Screen,2_1_1_1_16,2022-02-15T16:36:31.744Z,,,,,,,,,,,,,,,,,54,,,,,,,,,,,,,,391.89800000027753,,response,,,,100,,,,,,,Space,keypress(Space),,,,,,,,"-- --- ---- --- ------ ----- ------- ---- -- --- ------- --<br>------- ---------- ------ -- 1727, -- ----- -- ---- ------<br>--- ----- --- --- ------ -------- ----- --- ------ ----- --<br>----- ----- ---------- --- --- ------ ------ ---- -- ------<br>------- --- ------ ----- --- ---- ------- -- ---- --- --<br>------- ------",167334,167331.30000000028,166922.736,166924.30000000028,166939.402,167339.386,,16,"1727,"
screen,html.Screen,2_1_1_1_17,2022-02-15T16:36:32.498Z,,,,,,,,,,,,,,,,,54,,,,,,,,,,,,,,745.7140000000945,,response,,,,100,,,,,,,Space,keypress(Space),,,,,,,,-- --- ---- --- ------ ----- ------- ---- -- --- ------- --<br>------- ---------- ------ -- ----- in ----- -- ---- ------<br>--- ----- --- --- ------ -------- ----- --- ------ ----- --<br>----- ----- ---------- --- --- ------ ------ ---- -- ------<br>------- --- ------ ----- --- ---- ------- -- ---- --- --<br>------- ------,168087.8999999999,168085.1000000001,167322.72,167334.3999999999,167339.386,168089.356,,17,in
screen,html.Screen,2_1_1_1_18,2022-02-15T16:36:32.830Z,,,,,,,,,,,,,,,,,54,,,,,,,,,,,,,,328.14400000000023,,response,,,,100,,,,,,,Space,keypress(Space),,,,,,,,-- --- ---- --- ------ ----- ------- ---- -- --- ------- --<br>------- ---------- ------ -- ----- -- order -- ---- ------<br>--- ----- --- --- ------ -------- ----- --- ------ ----- --<br>----- ----- ---------- --- --- ------ ------ ---- -- ------<br>------- --- ------ ----- --- ---- ------- -- ---- --- --<br>------- ------,168420.30000000028,168417.5,168072.69,168088.1000000001,168089.356,168422.676,,18,order
screen,html.Screen,2_1_1_1_19,2022-02-15T16:36:33.251Z,,,,,,,,,,,,,,,,,54,,,,,,,,,,,,,,415.7239999999001,,response,,,,100,,,,,,,Space,keypress(Space),,,,,,,,-- --- ---- --- ------ ----- ------- ---- -- --- ------- --<br>------- ---------- ------ -- ----- -- ----- to ---- ------<br>--- ----- --- --- ------ -------- ----- --- ------ ----- --<br>----- ----- ---------- --- --- ------ ------ ---- -- ------<br>------- --- ------ ----- --- ---- ------- -- ---- --- --<br>------- ------,168841.2000000002,168838.3999999999,168406.01,168420.7000000002,168422.676,168855.992,,19,to
screen,html.Screen,2_1_1_1_20,2022-02-15T16:36:33.603Z,,,,,,,,,,,,,,,,,54,,,,,,,,,,,,,,334.60800000009476,,response,,,,100,,,,,,,Space,keypress(Space),,,,,,,,-- --- ---- --- ------ ----- ------- ---- -- --- ------- --<br>------- ---------- ------ -- ----- -- ----- -- save ------<br>--- ----- --- --- ------ -------- ----- --- ------ ----- --<br>----- ----- ---------- --- --- ------ ------ ---- -- ------<br>------- --- ------ ----- --- ---- ------- -- ---- --- --<br>------- ------,169193.3999999999,169190.6000000001,168839.326,168841.3999999999,168855.992,169205.978,,20,save
screen,html.Screen,2_1_1_1_21,2022-02-15T16:36:33.993Z,,,,,,,,,,,,,,,,,54,,,,,,,,,,,,,,373.9219999999041,,response,,,,100,,,,,,,Space,keypress(Space),,,,,,,,"-- --- ---- --- ------ ----- ------- ---- -- --- ------- --<br>------- ---------- ------ -- ----- -- ----- -- ---- money,<br>--- ----- --- --- ------ -------- ----- --- ------ ----- --<br>----- ----- ---------- --- --- ------ ------ ---- -- ------<br>------- --- ------ ----- --- ---- ------- -- ---- --- --<br>------- ------",169582.7000000002,169579.8999999999,169189.312,169193.6000000001,169205.978,169589.296,,21,"money,"
screen,html.Screen,2_1_1_1_22,2022-02-15T16:36:34.394Z,,,,,,,,,,,,,,,,,54,,,,,,,,,,,,,,392.40400000018417,,response,,,,100,,,,,,,Space,keypress(Space),,,,,,,,-- --- ---- --- ------ ----- ------- ---- -- --- ------- --<br>------- ---------- ------ -- ----- -- ----- -- ---- ------<br>the ----- --- --- ------ -------- ----- --- ------ ----- --<br>----- ----- ---------- --- --- ------ ------ ---- -- ------<br>------- --- ------ ----- --- ---- ------- -- ---- --- --<br>------- ------,169984.5,169981.7000000002,169572.63,169582.8999999999,169589.296,169989.28,,22,the
screen,html.Screen,2_1_1_1_23,2022-02-15T16:36:34.726Z,,,,,,,,,,,,,,,,,54,,,,,,,,,,,,,,324.42000000018743,,response,,,,100,,,,,,,Space,keypress(Space),,,,,,,,-- --- ---- --- ------ ----- ------- ---- -- --- ------- --<br>------- ---------- ------ -- ----- -- ----- -- ---- ------<br>--- state --- --- ------ -------- ----- --- ------ ----- --<br>----- ----- ---------- --- --- ------ ------ ---- -- ------<br>------- --- ------ ----- --- ---- ------- -- ---- --- --<br>------- ------,170316.3999999999,170313.7000000002,169972.614,169984.80000000028,169989.28,170322.6,,23,state
screen,html.Screen,2_1_1_1_24,2022-02-15T16:36:35.146Z,,,,,,,,,,,,,,,,,54,,,,,,,,,,,,,,410.79999999990105,,response,,,,100,,,,,,,Space,keypress(Space),,,,,,,,-- --- ---- --- ------ ----- ------- ---- -- --- ------- --<br>------- ---------- ------ -- ----- -- ----- -- ---- ------<br>--- ----- cut --- ------ -------- ----- --- ------ ----- --<br>----- ----- ---------- --- --- ------ ------ ---- -- ------<br>------- --- ------ ----- --- ---- ------- -- ---- --- --<br>------- ------,170736.3999999999,170733.3999999999,170305.934,170316.6000000001,170322.6,170739.25,,24,cut
screen,html.Screen,2_1_1_1_25,2022-02-15T16:36:35.497Z,,,,,,,,,,,,,,,,,54,,,,,,,,,,,,,,344.95000000018626,,response,,,,100,,,,,,,Space,keypress(Space),,,,,,,,-- --- ---- --- ------ ----- ------- ---- -- --- ------- --<br>------- ---------- ------ -- ----- -- ----- -- ---- ------<br>--- ----- --- the ------ -------- ----- --- ------ ----- --<br>----- ----- ---------- --- --- ------ ------ ---- -- ------<br>------- --- ------ ----- --- ---- ------- -- ---- --- --<br>------- ------,171087.5,171084.2000000002,170722.584,170736.6000000001,170739.25,171089.236,,25,the
screen,html.Screen,2_1_1_1_26,2022-02-15T16:36:35.832Z,,,,,,,,,,,,,,,,,54,,,,,,,,,,,,,,330.564000000275,,response,,,,100,,,,,,,Space,keypress(Space),,,,,,,,-- --- ---- --- ------ ----- ------- ---- -- --- ------- --<br>------- ---------- ------ -- ----- -- ----- -- ---- ------<br>--- ----- --- --- bonds' -------- ----- --- ------ ----- --<br>----- ----- ---------- --- --- ------ ------ ---- -- ------<br>------- --- ------ ----- --- ---- ------- -- ---- --- --<br>------- ------,171422.6000000001,171419.80000000028,171072.57,171087.7000000002,171089.236,171439.222,,26,bonds'
screen,html.Screen,2_1_1_1_27,2022-02-15T16:36:36.279Z,,,,,,,,,,,,,,,,,54,,,,,,,,,,,,,,425.77799999999115,,response,,,,100,,,,,,,Space,keypress(Space),,,,,,,,-- --- ---- --- ------ ----- ------- ---- -- --- ------- --<br>------- ---------- ------ -- ----- -- ----- -- ---- ------<br>--- ----- --- --- ------ interest ----- --- ------ ----- --<br>----- ----- ---------- --- --- ------ ------ ---- -- ------<br>------- --- ------ ----- --- ---- ------- -- ---- --- --<br>------- ------,171868.80000000028,171865,171422.556,171422.80000000028,171439.222,171872.538,,27,interest
screen,html.Screen,2_1_1_1_28,2022-02-15T16:36:36.667Z,,,,,,,,,,,,,,,,,54,,,,,,,,,,,,,,381.3619999999064,,response,,,,100,,,,,,,Space,keypress(Space),,,,,,,,-- --- ---- --- ------ ----- ------- ---- -- --- ------- --<br>------- ---------- ------ -- ----- -- ----- -- ---- ------<br>--- ----- --- --- ------ -------- rate. --- ------ ----- --<br>----- ----- ---------- --- --- ------ ------ ---- -- ------<br>------- --- ------ ----- --- ---- ------- -- ---- --- --<br>------- ------,172256.7000000002,172253.8999999999,171855.872,171869,171872.538,172272.522,,28,rate.
screen,html.Screen,2_1_1_1_29,2022-02-15T16:36:37.081Z,,,,,,,,,,,,,,,,,54,,,,,,,,,,,,,,397.4780000000028,,response,,,,100,,,,,,,Space,keypress(Space),,,,,,,,-- --- ---- --- ------ ----- ------- ---- -- --- ------- --<br>------- ---------- ------ -- ----- -- ----- -- ---- ------<br>--- ----- --- --- ------ -------- ----- The ------ ----- --<br>----- ----- ---------- --- --- ------ ------ ---- -- ------<br>------- --- ------ ----- --- ---- ------- -- ---- --- --<br>------- ------,172671.5,172670,172255.856,172257.1000000001,172272.522,172672.506,,29,The
screen,html.Screen,2_1_1_1_30,2022-02-15T16:36:37.415Z,,,,,,,,,,,,,,,,,54,,,,,,,,,,,,,,329.49400000000605,,response,,,,100,,,,,,,Space,keypress(Space),,,,,,,,-- --- ---- --- ------ ----- ------- ---- -- --- ------- --<br>------- ---------- ------ -- ----- -- ----- -- ---- ------<br>--- ----- --- --- ------ -------- ----- --- market ----- --<br>----- ----- ---------- --- --- ------ ------ ---- -- ------<br>------- --- ------ ----- --- ---- ------- -- ---- --- --<br>------- ------,173004.80000000028,173002,172655.84,172671.6000000001,172672.506,173022.492,,30,market
screen,html.Screen,2_1_1_1_31,2022-02-15T16:36:37.737Z,,,,,,,,,,,,,,,,,54,,,,,,,,,,,,,,302.00800000000163,,response,,,,100,,,,,,,Space,keypress(Space),,,,,,,,-- --- ---- --- ------ ----- ------- ---- -- --- ------- --<br>------- ---------- ------ -- ----- -- ----- -- ---- ------<br>--- ----- --- --- ------ -------- ----- --- ------ value --<br>----- ----- ---------- --- --- ------ ------ ---- -- ------<br>------- --- ------ ----- --- ---- ------- -- ---- --- --<br>------- ------,173327,173324.5,173005.826,173005.1000000001,173022.492,173339.146,,31,value
screen,html.Screen,2_1_1_1_32,2022-02-15T16:36:38.083Z,,,,,,,,,,,,,,,,,54,,,,,,,,,,,,,,331.8539999999921,,response,,,,100,,,,,,,Space,keypress(Space),,,,,,,,-- --- ---- --- ------ ----- ------- ---- -- --- ------- --<br>------- ---------- ------ -- ----- -- ----- -- ---- ------<br>--- ----- --- --- ------ -------- ----- --- ------ ----- of<br>----- ----- ---------- --- --- ------ ------ ---- -- ------<br>------- --- ------ ----- --- ---- ------- -- ---- --- --<br>------- ------,173673.2000000002,173671,173322.48,173327.3999999999,173339.146,173689.132,,32,of
screen,html.Screen,2_1_1_1_33,2022-02-15T16:36:38.410Z,,,,,,,,,,,,,,,,,54,,,,,,,,,,,,,,307.66800000026706,,response,,,,100,,,,,,,Space,keypress(Space),,,,,,,,-- --- ---- --- ------ ----- ------- ---- -- --- ------- --<br>------- ---------- ------ -- ----- -- ----- -- ---- ------<br>--- ----- --- --- ------ -------- ----- --- ------ ----- --<br>these ----- ---------- --- --- ------ ------ ---- -- ------<br>------- --- ------ ----- --- ---- ------- -- ---- --- --<br>------- ------,173999.80000000028,173996.80000000028,173672.466,173673.3999999999,173689.132,174005.786,,33,these
screen,html.Screen,2_1_1_1_34,2022-02-15T16:36:38.668Z,,,,,,,,,,,,,,,,,54,,,,,,,,,,,,,,250.11399999991409,,response,,,,100,,,,,,,Space,keypress(Space),,,,,,,,-- --- ---- --- ------ ----- ------- ---- -- --- ------- --<br>------- ---------- ------ -- ----- -- ----- -- ---- ------<br>--- ----- --- --- ------ -------- ----- --- ------ ----- --<br>----- bonds ---------- --- --- ------ ------ ---- -- ------<br>------- --- ------ ----- --- ---- ------- -- ---- --- --<br>------- ------,174258.30000000028,174255.8999999999,173989.12,173999.80000000028,174005.786,174272.442,,34,bonds
screen,html.Screen,2_1_1_1_35,2022-02-15T16:36:39.069Z,,,,,,,,,,,,,,,,,54,,,,,,,,,,,,,,383.95799999989686,,response,,,,100,,,,,,,Space,keypress(Space),,,,,,,,"-- --- ---- --- ------ ----- ------- ---- -- --- ------- --<br>------- ---------- ------ -- ----- -- ----- -- ---- ------<br>--- ----- --- --- ------ -------- ----- --- ------ ----- --<br>----- ----- plummeted, --- --- ------ ------ ---- -- ------<br>------- --- ------ ----- --- ---- ------- -- ---- --- --<br>------- ------",174659.2000000002,174656.3999999999,174255.776,174258.6000000001,174272.442,174672.426,,35,"plummeted,"
screen,html.Screen,2_1_1_1_36,2022-02-15T16:36:39.502Z,,,,,,,,,,,,,,,,,54,,,,,,,,,,,,,,416.9739999999001,,response,,,,100,,,,,,,Space,keypress(Space),,,,,,,,-- --- ---- --- ------ ----- ------- ---- -- --- ------- --<br>------- ---------- ------ -- ----- -- ----- -- ---- ------<br>--- ----- --- --- ------ -------- ----- --- ------ ----- --<br>----- ----- ---------- and --- ------ ------ ---- -- ------<br>------- --- ------ ----- --- ---- ------- -- ---- --- --<br>------- ------,175092.30000000028,175089.3999999999,174655.76,174659.5,174672.426,175105.742,,36,and
screen,html.Screen,2_1_1_1_37,2022-02-15T16:36:39.785Z,,,,,,,,,,,,,,,,,54,,,,,,,,,,,,,,266.75800000000163,,response,,,,100,,,,,,,Space,keypress(Space),,,,,,,,-- --- ---- --- ------ ----- ------- ---- -- --- ------- --<br>------- ---------- ------ -- ----- -- ----- -- ---- ------<br>--- ----- --- --- ------ -------- ----- --- ------ ----- --<br>----- ----- ---------- --- the ------ ------ ---- -- ------<br>------- --- ------ ----- --- ---- ------- -- ---- --- --<br>------- ------,175374.8999999999,175372.5,175089.076,175092.5,175105.742,175389.064,,37,the
screen,html.Screen,2_1_1_1_38,2022-02-15T16:36:40.063Z,,,,,,,,,,,,,,,,,54,,,,,,,,,,,,,,261.43599999998696,,response,,,,100,,,,,,,Space,keypress(Space),,,,,,,,-- --- ---- --- ------ ----- ------- ---- -- --- ------- --<br>------- ---------- ------ -- ----- -- ----- -- ---- ------<br>--- ----- --- --- ------ -------- ----- --- ------ ----- --<br>----- ----- ---------- --- --- market ------ ---- -- ------<br>------- --- ------ ----- --- ---- ------- -- ---- --- --<br>------- ------,175652.80000000028,175650.5,175372.398,175375.1000000001,175389.064,175655.72,,38,market
screen,html.Screen,2_1_1_1_39,2022-02-15T16:36:40.458Z,,,,,,,,,,,,,,,,,54,,,,,,,,,,,,,,389.4800000001851,,response,,,,100,,,,,,,Space,keypress(Space),,,,,,,,-- --- ---- --- ------ ----- ------- ---- -- --- ------- --<br>------- ---------- ------ -- ----- -- ----- -- ---- ------<br>--- ----- --- --- ------ -------- ----- --- ------ ----- --<br>----- ----- ---------- --- --- ------ became ---- -- ------<br>------- --- ------ ----- --- ---- ------- -- ---- --- --<br>------- ------,176048.2000000002,176045.2000000002,175639.054,175653.2000000002,175655.72,176055.704,,39,became
screen,html.Screen,2_1_1_1_40,2022-02-15T16:36:40.781Z,,,,,,,,,,,,,,,,,54,,,,,,,,,,,,,,313.0960000002815,,response,,,,100,,,,,,,Space,keypress(Space),,,,,,,,-- --- ---- --- ------ ----- ------- ---- -- --- ------- --<br>------- ---------- ------ -- ----- -- ----- -- ---- ------<br>--- ----- --- --- ------ -------- ----- --- ------ ----- --<br>----- ----- ---------- --- --- ------ ------ wary -- ------<br>------- --- ------ ----- --- ---- ------- -- ---- --- --<br>------- ------,176371.2000000002,176368.80000000028,176039.038,176048.5,176055.704,176372.358,,40,wary
screen,html.Screen,2_1_1_1_41,2022-02-15T16:36:41.080Z,,,,,,,,,,,,,,,,,54,,,,,,,,,,,,,,295.5419999998994,,response,,,,100,,,,,,,Space,keypress(Space),,,,,,,,-- --- ---- --- ------ ----- ------- ---- -- --- ------- --<br>------- ---------- ------ -- ----- -- ----- -- ---- ------<br>--- ----- --- --- ------ -------- ----- --- ------ ----- --<br>----- ----- ---------- --- --- ------ ------ ---- of ------<br>------- --- ------ ----- --- ---- ------- -- ---- --- --<br>------- ------,176670.6000000001,176667.8999999999,176355.692,176371.6000000001,176372.358,176672.346,,41,of
screen,html.Screen,2_1_1_1_42,2022-02-15T16:36:41.454Z,,,,,,,,,,,,,,,,,54,,,,,,,,,,,,,,368.7540000001027,,response,,,,100,,,,,,,Space,keypress(Space),,,,,,,,-- --- ---- --- ------ ----- ------- ---- -- --- ------- --<br>------- ---------- ------ -- ----- -- ----- -- ---- ------<br>--- ----- --- --- ------ -------- ----- --- ------ ----- --<br>----- ----- ---------- --- --- ------ ------ ---- -- French<br>------- --- ------ ----- --- ---- ------- -- ---- --- --<br>------- ------,177043.8999999999,177041.1000000001,176655.68,176670.80000000028,176672.346,177055.664,,42,French
screen,html.Screen,2_1_1_1_43,2022-02-15T16:36:41.821Z,,,,,,,,,,,,,,,,,54,,,,,,,,,,,,,,352.13600000028964,,response,,,,100,,,,,,,Space,keypress(Space),,,,,,,,-- --- ---- --- ------ ----- ------- ---- -- --- ------- --<br>------- ---------- ------ -- ----- -- ----- -- ---- ------<br>--- ----- --- --- ------ -------- ----- --- ------ ----- --<br>----- ----- ---------- --- --- ------ ------ ---- -- ------<br>credit. --- ------ ----- --- ---- ------- -- ---- --- --<br>------- ------,177411,177407.80000000028,177038.998,177044.1000000001,177055.664,177422.316,,43,credit.
screen,html.Screen,2_1_1_1_44,2022-02-15T16:36:42.327Z,,,,,,,,,,,,,,,,,54,,,,,,,,,,,,,,492.2840000001015,,response,,,,100,,,,,,,Space,keypress(Space),,,,,,,,-- --- ---- --- ------ ----- ------- ---- -- --- ------- --<br>------- ---------- ------ -- ----- -- ----- -- ---- ------<br>--- ----- --- --- ------ -------- ----- --- ------ ----- --<br>----- ----- ---------- --- --- ------ ------ ---- -- ------<br>------- The ------ ----- --- ---- ------- -- ---- --- --<br>------- ------,177917.6000000001,177914.6000000001,177405.65,177411.3999999999,177422.316,177922.296,,44,The
screen,html.Screen,2_1_1_1_45,2022-02-15T16:36:42.656Z,,,,,,,,,,,,,,,,,54,,,,,,,,,,,,,,321.30400000009104,,response,,,,100,,,,,,,Space,keypress(Space),,,,,,,,-- --- ---- --- ------ ----- ------- ---- -- --- ------- --<br>------- ---------- ------ -- ----- -- ----- -- ---- ------<br>--- ----- --- --- ------ -------- ----- --- ------ ----- --<br>----- ----- ---------- --- --- ------ ------ ---- -- ------<br>------- --- French ----- --- ---- ------- -- ---- --- --<br>------- ------,178246.2000000002,178243.6000000001,177905.63,177917.80000000028,177922.296,178255.616,,45,French
screen,html.Screen,2_1_1_1_46,2022-02-15T16:36:42.979Z,,,,,,,,,,,,,,,,,54,,,,,,,,,,,,,,311.1840000002703,,response,,,,100,,,,,,,Space,keypress(Space),,,,,,,,-- --- ---- --- ------ ----- ------- ---- -- --- ------- --<br>------- ---------- ------ -- ----- -- ----- -- ---- ------<br>--- ----- --- --- ------ -------- ----- --- ------ ----- --<br>----- ----- ---------- --- --- ------ ------ ---- -- ------<br>------- --- ------ state --- ---- ------- -- ---- --- --<br>------- ------,178569.6000000001,178566.80000000028,178238.95,178246.5,178255.616,178572.27,,46,state
screen,html.Screen,2_1_1_1_47,2022-02-15T16:36:43.418Z,,,,,,,,,,,,,,,,,54,,,,,,,,,,,,,,433.12999999991735,,response,,,,100,,,,,,,Space,keypress(Space),,,,,,,,-- --- ---- --- ------ ----- ------- ---- -- --- ------- --<br>------- ---------- ------ -- ----- -- ----- -- ---- ------<br>--- ----- --- --- ------ -------- ----- --- ------ ----- --<br>----- ----- ---------- --- --- ------ ------ ---- -- ------<br>------- --- ------ ----- was ---- ------- -- ---- --- --<br>------- ------,179008.1000000001,179005.3999999999,178555.604,178569.80000000028,178572.27,179022.252,,47,was
screen,html.Screen,2_1_1_1_48,2022-02-15T16:36:43.683Z,,,,,,,,,,,,,,,,,54,,,,,,,,,,,,,,248.0480000002717,,response,,,,100,,,,,,,Space,keypress(Space),,,,,,,,-- --- ---- --- ------ ----- ------- ---- -- --- ------- --<br>------- ---------- ------ -- ----- -- ----- -- ---- ------<br>--- ----- --- --- ------ -------- ----- --- ------ ----- --<br>----- ----- ---------- --- --- ------ ------ ---- -- ------<br>------- --- ------ ----- --- left ------- -- ---- --- --<br>------- ------,179273.1000000001,179270.30000000028,179005.586,179008.30000000028,179022.252,179288.908,,48,left
screen,html.Screen,2_1_1_1_49,2022-02-15T16:36:44.013Z,,,,,,,,,,,,,,,,,54,,,,,,,,,,,,,,311.6920000000973,,response,,,,100,,,,,,,Space,keypress(Space),,,,,,,,-- --- ---- --- ------ ----- ------- ---- -- --- ------- --<br>------- ---------- ------ -- ----- -- ----- -- ---- ------<br>--- ----- --- --- ------ -------- ----- --- ------ ----- --<br>----- ----- ---------- --- --- ------ ------ ---- -- ------<br>------- --- ------ ----- --- ---- without -- ---- --- --<br>------- ------,179603.2000000002,179600.6000000001,179272.242,179274.30000000028,179288.908,179605.562,,49,without
screen,html.Screen,2_1_1_1_50,2022-02-15T16:36:44.382Z,,,,,,,,,,,,,,,,,54,,,,,,,,,,,,,,363.5380000000878,,response,,,,100,,,,,,,Space,keypress(Space),,,,,,,,-- --- ---- --- ------ ----- ------- ---- -- --- ------- --<br>------- ---------- ------ -- ----- -- ----- -- ---- ------<br>--- ----- --- --- ------ -------- ----- --- ------ ----- --<br>----- ----- ---------- --- --- ------ ------ ---- -- ------<br>------- --- ------ ----- --- ---- ------- an ---- --- --<br>------- ------,179972,179969.1000000001,179588.896,179603.5,179605.562,179988.88,,50,an
screen,html.Screen,2_1_1_1_51,2022-02-15T16:36:44.719Z,,,,,,,,,,,,,,,,,54,,,,,,,,,,,,,,317.3200000001816,,response,,,,100,,,,,,,Space,keypress(Space),,,,,,,,-- --- ---- --- ------ ----- ------- ---- -- --- ------- --<br>------- ---------- ------ -- ----- -- ----- -- ---- ------<br>--- ----- --- --- ------ -------- ----- --- ------ ----- --<br>----- ----- ---------- --- --- ------ ------ ---- -- ------<br>------- --- ------ ----- --- ---- ------- -- easy --- --<br>------- ------,180309.3999999999,180306.2000000002,179972.214,179972.2000000002,179988.88,180322.2,,51,easy
screen,html.Screen,2_1_1_1_52,2022-02-15T16:36:44.947Z,,,,,,,,,,,,,,,,,54,,,,,,,,,,,,,,212.69999999989523,,response,,,,100,,,,,,,Space,keypress(Space),,,,,,,,-- --- ---- --- ------ ----- ------- ---- -- --- ------- --<br>------- ---------- ------ -- ----- -- ----- -- ---- ------<br>--- ----- --- --- ------ -------- ----- --- ------ ----- --<br>----- ----- ---------- --- --- ------ ------ ---- -- ------<br>------- --- ------ ----- --- ---- ------- -- ---- way --<br>------- ------,180537.5,180534.8999999999,180305.534,180309.7000000002,180322.2,180555.524,,52,way
screen,html.Screen,2_1_1_1_53,2022-02-15T16:36:45.309Z,,,,,,,,,,,,,,,,,54,,,,,,,,,,,,,,340.4759999999951,,response,,,,100,,,,,,,Space,keypress(Space),,,,,,,,-- --- ---- --- ------ ----- ------- ---- -- --- ------- --<br>------- ---------- ------ -- ----- -- ----- -- ---- ------<br>--- ----- --- --- ------ -------- ----- --- ------ ----- --<br>----- ----- ---------- --- --- ------ ------ ---- -- ------<br>------- --- ------ ----- --- ---- ------- -- ---- --- of<br>------- ------,180899,180896,180538.858,180537.7000000002,180555.524,180905.51,,53,of
screen,html.Screen,2_1_1_1_54,2022-02-15T16:36:45.685Z,,,,,,,,,,,,,,,,,54,,,,,,,,,,,,,,366.5900000000838,,response,,,,100,,,,,,,Space,keypress(Space),,,,,,,,-- --- ---- --- ------ ----- ------- ---- -- --- ------- --<br>------- ---------- ------ -- ----- -- ----- -- ---- ------<br>--- ----- --- --- ------ -------- ----- --- ------ ----- --<br>----- ----- ---------- --- --- ------ ------ ---- -- ------<br>------- --- ------ ----- --- ---- ------- -- ---- --- --<br>raising ------,181274.80000000028,181272.1000000001,180888.844,180899.30000000028,180905.51,181288.828,,54,raising
screen,html.Screen,2_1_1_1_55,2022-02-15T16:36:46.008Z,,,,,,,,,,,,,,,,,54,,,,,,,,,,,,,,306.87200000017765,,response,,,,100,,,,,,,Space,keypress(Space),,,,,,,,-- --- ---- --- ------ ----- ------- ---- -- --- ------- --<br>------- ---------- ------ -- ----- -- ----- -- ---- ------<br>--- ----- --- --- ------ -------- ----- --- ------ ----- --<br>----- ----- ---------- --- --- ------ ------ ---- -- ------<br>------- --- ------ ----- --- ---- ------- -- ---- --- --<br>------- money.,181598.6000000001,181595.7000000002,181272.162,181275.2000000002,181288.828,181605.482,,55,money.
Item 100,flow.Loop,2_1_1_1,2022-02-15T16:36:46.009Z,,,,,,,,,,,,,,,,,,,,,,,,,,,,,,,20722.722000000183,,completion,,,,,B,,,,,,,,,,,silence,,,,,181599.1000000001,181595.7000000002,160856.312,160858.7000000002,160872.978,181605.482,,,
Question 1,html.Screen,2_1_1_2,2022-02-15T16:36:48.319Z,,,,,,,,,,,,,,,,,,,,,,,,,,,,true,TRUE,,2301.218000000197,,response,,,,100,B,,,,,,TRUE,click #choice-1,,,,silence,,,,,183909.80000000028,183906.7000000002,181588.816,181599.2000000002,181605.482,183922.056,,,
Question 2,html.Screen,2_1_1_3,2022-02-15T16:36:51.503Z,,,,,,,,,,,,,,,,,,,,,,,,,,,,true,FALSE,,3167.9439999999886,,response,,,,100,B,,,,,,FALSE,click #choice-2,,,,silence,,,,,187092.8999999999,187090,183905.39,183909.8999999999,183922.056,187105.262,,,
Item 100,flow.Sequence,2_1_1,2022-02-15T16:36:51.503Z,,,,,,,,,,,,,,,,,,,,,,,,,,,,,,,36216.622,,completion,,,,,,,,,,,,,,,,,,,,,187093.2000000002,187090,150856.712,150858.7000000002,150873.378,187105.262,,,
End of Practice,html.Page,2_1_2,2022-02-15T16:36:56.502Z,,,,,,,,,,,,,,,,,,,,,,,,,,,,,,,4987.137999999919,,form submission,,,,,,,,,,,,,,,,,,,,,192092.7000000002,192092.3999999999,187088.596,187093.3999999999,187105.262,192105.062,,,
Practice,flow.Sequence,2_1,2022-02-15T16:36:56.503Z,,,,,,,,,,,,,,,,,,,,,,,,,,,,,,,88867.1159999999,,completion,,,,,,,,,,,,,,,,,,,,,192093,192092.3999999999,103208.618,103225.8999999999,103225.284,192105.062,,,
Trap_instruction,html.Page,2_2_0,2022-02-15T16:37:01.586Z,,,,,,,,,,,,,,,,,,,,,,,,,,,,,,,5070.738000000274,,form submission,,,,,,,,,,,,,,,,,,,,,197176.30000000028,197175.80000000028,192088.396,192093.1000000001,192105.062,197188.192,,,
trap_trial,html.Screen,2_2_1,2022-02-15T16:37:05.502Z,,,,,,,,,,,,,,,,,,,,,,,,,,,,true,1,,3902.0080000001763,,response,,,,,,,,,,,1,click #choice-1,,,,,,,,,201092.5,201090.2000000002,197171.526,197176.6000000001,197188.192,201104.702,,,
end of trap trial,html.Page,2_2_2,2022-02-15T16:37:07.036Z,,,,,,,,,,,,,,,,,,,,,,,,,,,,,,,1521.1979999999166,,form submission,,,,,,,,,,,,,,,,,,,,,202626.2000000002,202625.8999999999,201088.036,201092.7000000002,201104.702,202637.974,,,
Trap 1,flow.Sequence,2_2,2022-02-15T16:37:07.036Z,,,,,,,,,,,,,,,,,,,,,,,,,,,,,,,10520.837999999902,,completion,,,,,,,,,,,,,,,,,,,,,202626.3999999999,202625.8999999999,192088.396,192093.1000000001,192105.062,202637.974,,,
Standby,html.Page,2_3_0,2022-02-15T16:37:15.033Z,,,,,,,,,,,,,,,,,,,,,,,,,,,,,,,7999.680000000022,,timeout,,,,,,,,,,,,,,,,,,,,,210623.5,210620.988,202621.308,202626.80000000028,202637.974,210637.654,,,
Holding screen,html.Screen,2_3_1_0_0,2022-02-15T16:37:22.032Z,,,,,,,,,,,,,,,,,,,,,,,,,,,,,,,6999.720000000001,,timeout,,,,,,,,,,,,,,,,,,,,,217622.80000000028,217620.708,210620.988,210623.80000000028,210637.654,217637.374,,,
screen,html.Screen,2_3_1_0_1_0,2022-02-15T16:37:22.757Z,,,,,,,,,,,,,,,,,48,,,,,,,,,,,,,,706.1259999999893,,response,,,,10,B,,,,,,Space,keypress(Space),,,,lyrical,,,,As -- --- ------ ------- --------- ----------- --------<br>--------- -------- --- ------- -- ------- ---- -- ------<br>-- --- -------- -------- ---------- ---- ---- ---- ------<br>-- --------- -- ---- -- --- -- --- ------- -- - -----<br>---------- -- -- -- ---- ----- -- ------ -- --- ------<br>-------,218347.3999999999,218343.5,217620.708,217623.30000000028,217637.374,218354.012,,0,As
screen,html.Screen,2_3_1_0_1_1,2022-02-15T16:37:23.093Z,,,,,,,,,,,,,,,,,48,,,,,,,,,,,,,,326.58800000010524,,response,,,,10,B,,,,,,Space,keypress(Space),,,,lyrical,,,,-- in --- ------ ------- --------- ----------- --------<br>--------- -------- --- ------- -- ------- ---- -- ------<br>-- --- -------- -------- ---------- ---- ---- ---- ------<br>-- --------- -- ---- -- --- -- --- ------- -- - -----<br>---------- -- -- -- ---- ----- -- ------ -- --- ------<br>-------,218683.80000000028,218680.6000000001,218337.346,218347.8999999999,218354.012,218687.332,,1,in
screen,html.Screen,2_3_1_0_1_2,2022-02-15T16:37:23.436Z,,,,,,,,,,,,,,,,,48,,,,,,,,,,,,,,336.3680000001914,,response,,,,10,B,,,,,,Space,keypress(Space),,,,lyrical,,,,-- -- the ------ ------- --------- ----------- --------<br>--------- -------- --- ------- -- ------- ---- -- ------<br>-- --- -------- -------- ---------- ---- ---- ---- ------<br>-- --------- -- ---- -- --- -- --- ------- -- - -----<br>---------- -- -- -- ---- ----- -- ------ -- --- ------<br>-------,219026.80000000028,219023.7000000002,218670.666,218684,218687.332,219037.318,,2,the
screen,html.Screen,2_3_1_0_1_3,2022-02-15T16:37:23.867Z,,,,,,,,,,,,,,,,,48,,,,,,,,,,,,,,417.1820000000007,,response,,,,10,B,,,,,,Space,keypress(Space),,,,lyrical,,,,-- -- --- United ------- --------- ----------- --------<br>--------- -------- --- ------- -- ------- ---- -- ------<br>-- --- -------- -------- ---------- ---- ---- ---- ------<br>-- --------- -- ---- -- --- -- --- ------- -- - -----<br>---------- -- -- -- ---- ----- -- ------ -- --- ------<br>-------,219457.5,219454.5,219020.652,219027.1000000001,219037.318,219470.634,,3,United
screen,html.Screen,2_3_1_0_1_4,2022-02-15T16:37:24.286Z,,,,,,,,,,,,,,,,,48,,,,,,,,,,,,,,404.06600000019534,,response,,,,10,B,,,,,,Space,keypress(Space),,,,lyrical,,,,"-- -- --- ------ States, --------- ----------- --------<br>--------- -------- --- ------- -- ------- ---- -- ------<br>-- --- -------- -------- ---------- ---- ---- ---- ------<br>-- --------- -- ---- -- --- -- --- ------- -- - -----<br>---------- -- -- -- ---- ----- -- ------ -- --- ------<br>-------",219877.1000000001,219874.7000000002,219453.968,219457.7000000002,219470.634,219887.284,,4,"States,"
screen,html.Screen,2_3_1_0_1_5,2022-02-15T16:37:24.665Z,,,,,,,,,,,,,,,,,48,,,,,,,,,,,,,,364.81600000007893,,response,,,,10,B,,,,,,Space,keypress(Space),,,,lyrical,,,,-- -- --- ------ ------- Colombian ----------- --------<br>--------- -------- --- ------- -- ------- ---- -- ------<br>-- --- -------- -------- ---------- ---- ---- ---- ------<br>-- --------- -- ---- -- --- -- --- ------- -- - -----<br>---------- -- -- -- ---- ----- -- ------ -- --- ------<br>-------,220255.7000000002,220252.1000000001,219870.618,219877.5,219887.284,220270.602,,5,Colombian
screen,html.Screen,2_3_1_0_1_6,2022-02-15T16:37:25.144Z,,,,,,,,,,,,,,,,,48,,,,,,,,,,,,,,461.4980000000796,,response,,,,10,B,,,,,,Space,keypress(Space),,,,lyrical,,,,-- -- --- ------ ------- --------- legislation --------<br>--------- -------- --- ------- -- ------- ---- -- ------<br>-- --- -------- -------- ---------- ---- ---- ---- ------<br>-- --------- -- ---- -- --- -- --- ------- -- - -----<br>---------- -- -- -- ---- ----- -- ------ -- --- ------<br>-------,220735.30000000028,220732.1000000001,220253.936,220256,220270.602,220737.25,,6,legislation
screen,html.Screen,2_3_1_0_1_7,2022-02-15T16:37:25.761Z,,,,,,,,,,,,,,,,,48,,,,,,,,,,,,,,611.25,,response,,,,10,B,,,,,,Space,keypress(Space),,,,lyrical,,,,-- -- --- ------ ------- --------- ----------- requires<br>--------- -------- --- ------- -- ------- ---- -- ------<br>-- --- -------- -------- ---------- ---- ---- ---- ------<br>-- --------- -- ---- -- --- -- --- ------- -- - -----<br>---------- -- -- -- ---- ----- -- ------ -- --- ------<br>-------,221351.8999999999,221348.5,220720.584,220735.3999999999,220737.25,221353.892,,7,requires
screen,html.Screen,2_3_1_0_1_8,2022-02-15T16:37:26.306Z,,,,,,,,,,,,,,,,,48,,,,,,,,,,,,,,539.4080000002868,,response,,,,10,B,,,,,,Space,keypress(Space),,,,lyrical,,,,-- -- --- ------ ------- --------- ----------- --------<br>travelers -------- --- ------- -- ------- ---- -- ------<br>-- --- -------- -------- ---------- ---- ---- ---- ------<br>-- --------- -- ---- -- --- -- --- ------- -- - -----<br>---------- -- -- -- ---- ----- -- ------ -- --- ------<br>-------,221896.6000000001,221893.30000000028,221337.226,221352,221353.892,221903.87,,8,travelers
screen,html.Screen,2_3_1_0_1_9,2022-02-15T16:37:26.876Z,,,,,,,,,,,,,,,,,48,,,,,,,,,,,,,,560.2300000000978,,response,,,,10,B,,,,,,Space,keypress(Space),,,,lyrical,,,,-- -- --- ------ ------- --------- ----------- --------<br>--------- entering --- ------- -- ------- ---- -- ------<br>-- --- -------- -------- ---------- ---- ---- ---- ------<br>-- --------- -- ---- -- --- -- --- ------- -- - -----<br>---------- -- -- -- ---- ----- -- ------ -- --- ------<br>-------,222467.1000000001,222464.1000000001,221887.204,221897,221903.87,222470.514,,9,entering
screen,html.Screen,2_3_1_0_1_10,2022-02-15T16:37:27.279Z,,,,,,,,,,,,,,,,,48,,,,,,,,,,,,,,396.9860000000044,,response,,,,10,B,,,,,,Space,keypress(Space),,,,lyrical,,,,-- -- --- ------ ------- --------- ----------- --------<br>--------- -------- the ------- -- ------- ---- -- ------<br>-- --- -------- -------- ---------- ---- ---- ---- ------<br>-- --------- -- ---- -- --- -- --- ------- -- - -----<br>---------- -- -- -- ---- ----- -- ------ -- --- ------<br>-------,222870.30000000028,222867.5,222453.848,222467.30000000028,222470.514,222887.164,,10,the
screen,html.Screen,2_3_1_0_1_11,2022-02-15T16:37:27.709Z,,,,,,,,,,,,,,,,,48,,,,,,,,,,,,,,409.63600000028964,,response,,,,10,B,,,,,,Space,keypress(Space),,,,lyrical,,,,-- -- --- ------ ------- --------- ----------- --------<br>--------- -------- --- country -- ------- ---- -- ------<br>-- --- -------- -------- ---------- ---- ---- ---- ------<br>-- --------- -- ---- -- --- -- --- ------- -- - -----<br>---------- -- -- -- ---- ----- -- ------ -- --- ------<br>-------,223299.7000000002,223296.80000000028,222870.498,222870.7000000002,222887.164,223303.814,,11,country
screen,html.Screen,2_3_1_0_1_12,2022-02-15T16:37:28.194Z,,,,,,,,,,,,,,,,,48,,,,,,,,,,,,,,478.48600000026636,,response,,,,10,B,,,,,,Space,keypress(Space),,,,lyrical,,,,-- -- --- ------ ------- --------- ----------- --------<br>--------- -------- --- ------- to ------- ---- -- ------<br>-- --- -------- -------- ---------- ---- ---- ---- ------<br>-- --------- -- ---- -- --- -- --- ------- -- - -----<br>---------- -- -- -- ---- ----- -- ------ -- --- ------<br>-------,223785.3999999999,223782.30000000028,223287.148,223300,223303.814,223787.128,,12,to
screen,html.Screen,2_3_1_0_1_13,2022-02-15T16:37:28.625Z,,,,,,,,,,,,,,,,,48,,,,,,,,,,,,,,425.47200000009616,,response,,,,10,B,,,,,,Space,keypress(Space),,,,lyrical,,,,-- -- --- ------ ------- --------- ----------- --------<br>--------- -------- --- ------- -- declare ---- -- ------<br>-- --- -------- -------- ---------- ---- ---- ---- ------<br>-- --------- -- ---- -- --- -- --- ------- -- - -----<br>---------- -- -- -- ---- ----- -- ------ -- --- ------<br>-------,224215.8999999999,224212.6000000001,223770.462,223785.6000000001,223787.128,224220.444,,13,declare
screen,html.Screen,2_3_1_0_1_14,2022-02-15T16:37:28.932Z,,,,,,,,,,,,,,,,,48,,,,,,,,,,,,,,300.0560000000114,,response,,,,10,B,,,,,,Space,keypress(Space),,,,lyrical,,,,-- -- --- ------ ------- --------- ----------- --------<br>--------- -------- --- ------- -- ------- cash -- ------<br>-- --- -------- -------- ---------- ---- ---- ---- ------<br>-- --------- -- ---- -- --- -- --- ------- -- - -----<br>---------- -- -- -- ---- ----- -- ------ -- --- ------<br>-------,224523.2000000002,224520.5,224203.778,224216.2000000002,224220.444,224537.098,,14,cash
screen,html.Screen,2_3_1_0_1_15,2022-02-15T16:37:29.180Z,,,,,,,,,,,,,,,,,48,,,,,,,,,,,,,,231.20200000028126,,response,,,,10,B,,,,,,Space,keypress(Space),,,,lyrical,,,,-- -- --- ------ ------- --------- ----------- --------<br>--------- -------- --- ------- -- ------- ---- in ------<br>-- --- -------- -------- ---------- ---- ---- ---- ------<br>-- --------- -- ---- -- --- -- --- ------- -- - -----<br>---------- -- -- -- ---- ----- -- ------ -- --- ------<br>-------,224771.3999999999,224768.30000000028,224520.432,224523.5,224537.098,224787.088,,15,in
screen,html.Screen,2_3_1_0_1_16,2022-02-15T16:37:29.607Z,,,,,,,,,,,,,,,,,48,,,,,,,,,,,,,,408.2120000002906,,response,,,,10,B,,,,,,Space,keypress(Space),,,,lyrical,,,,-- -- --- ------ ------- --------- ----------- --------<br>--------- -------- --- ------- -- ------- ---- -- excess<br>-- --- -------- -------- ---------- ---- ---- ---- ------<br>-- --------- -- ---- -- --- -- --- ------- -- - -----<br>---------- -- -- -- ---- ----- -- ------ -- --- ------<br>-------,225198.2000000002,225195.30000000028,224770.422,224771.6000000001,224787.088,225203.738,,16,excess
screen,html.Screen,2_3_1_0_1_17,2022-02-15T16:37:30.008Z,,,,,,,,,,,,,,,,,48,,,,,,,,,,,,,,392.66199999989476,,response,,,,10,B,,,,,,Space,keypress(Space),,,,lyrical,,,,-- -- --- ------ ------- --------- ----------- --------<br>--------- -------- --- ------- -- ------- ---- -- ------<br>of --- -------- -------- ---------- ---- ---- ---- ------<br>-- --------- -- ---- -- --- -- --- ------- -- - -----<br>---------- -- -- -- ---- ----- -- ------ -- --- ------<br>-------,225599.3999999999,225596.3999999999,225187.072,225198.5,225203.738,225603.722,,17,of
screen,html.Screen,2_3_1_0_1_18,2022-02-15T16:37:30.297Z,,,,,,,,,,,,,,,,,48,,,,,,,,,,,,,,280.8780000000843,,response,,,,10,B,,,,,,Space,keypress(Space),,,,lyrical,,,,-- -- --- ------ ------- --------- ----------- --------<br>--------- -------- --- ------- -- ------- ---- -- ------<br>-- ten -------- -------- ---------- ---- ---- ---- ------<br>-- --------- -- ---- -- --- -- --- ------- -- - -----<br>---------- -- -- -- ---- ----- -- ------ -- --- ------<br>-------,225887.6000000001,225884.6000000001,225587.056,225599.7000000002,225603.722,225903.71,,18,ten
screen,html.Screen,2_3_1_0_1_19,2022-02-15T16:37:30.740Z,,,,,,,,,,,,,,,,,48,,,,,,,,,,,,,,424.29000000000815,,response,,,,10,B,,,,,,Space,keypress(Space),,,,lyrical,,,,-- -- --- ------ ------- --------- ----------- --------<br>--------- -------- --- ------- -- ------- ---- -- ------<br>-- --- thousand -------- ---------- ---- ---- ---- ------<br>-- --------- -- ---- -- --- -- --- ------- -- - -----<br>---------- -- -- -- ---- ----- -- ------ -- --- ------<br>-------,226331.30000000028,226328,225887.044,225887.8999999999,225903.71,226337.026,,19,thousand
screen,html.Screen,2_3_1_0_1_20,2022-02-15T16:37:31.111Z,,,,,,,,,,,,,,,,,48,,,,,,,,,,,,,,361.8739999998943,,response,,,,10,B,,,,,,Space,keypress(Space),,,,lyrical,,,,-- -- --- ------ ------- --------- ----------- --------<br>--------- -------- --- ------- -- ------- ---- -- ------<br>-- --- -------- dollars. ---------- ---- ---- ---- ------<br>-- --------- -- ---- -- --- -- --- ------- -- - -----<br>---------- -- -- -- ---- ----- -- ------ -- --- ------<br>-------,226702.1000000001,226698.8999999999,226320.36,226331.3999999999,226337.026,226703.678,,20,dollars.
screen,html.Screen,2_3_1_0_1_21,2022-02-15T16:37:31.562Z,,,,,,,,,,,,,,,,,48,,,,,,,,,,,,,,446.32199999998556,,response,,,,10,B,,,,,,Space,keypress(Space),,,,lyrical,,,,-- -- --- ------ ------- --------- ----------- --------<br>--------- -------- --- ------- -- ------- ---- -- ------<br>-- --- -------- -------- Concealing ---- ---- ---- ------<br>-- --------- -- ---- -- --- -- --- ------- -- - -----<br>---------- -- -- -- ---- ----- -- ------ -- --- ------<br>-------,227153.30000000028,227150,226687.012,226702.30000000028,226703.678,227170.326,,21,Concealing
screen,html.Screen,2_3_1_0_1_22,2022-02-15T16:37:32.350Z,,,,,,,,,,,,,,,,,48,,,,,,,,,,,,,,767.2740000000922,,response,,,,10,B,,,,,,Space,keypress(Space),,,,lyrical,,,,-- -- --- ------ ------- --------- ----------- --------<br>--------- -------- --- ------- -- ------- ---- -- ------<br>-- --- -------- -------- ---------- more ---- ---- ------<br>-- --------- -- ---- -- --- -- --- ------- -- - -----<br>---------- -- -- -- ---- ----- -- ------ -- --- ------<br>-------,227940.6000000001,227937.6000000001,227153.66,227153.5,227170.326,227953.628,,22,more
screen,html.Screen,2_3_1_0_1_23,2022-02-15T16:37:32.649Z,,,,,,,,,,,,,,,,,48,,,,,,,,,,,,,,282.872000000003,,response,,,,10,B,,,,,,Space,keypress(Space),,,,lyrical,,,,-- -- --- ------ ------- --------- ----------- --------<br>--------- -------- --- ------- -- ------- ---- -- ------<br>-- --- -------- -------- ---------- ---- than ---- ------<br>-- --------- -- ---- -- --- -- --- ------- -- - -----<br>---------- -- -- -- ---- ----- -- ------ -- --- ------<br>-------,228239.6000000001,228236.5,227936.962,227940.8999999999,227953.628,228253.616,,23,than
screen,html.Screen,2_3_1_0_1_24,2022-02-15T16:37:32.975Z,,,,,,,,,,,,,,,,,48,,,,,,,,,,,,,,308.5840000001772,,response,,,,10,B,,,,,,Space,keypress(Space),,,,lyrical,,,,-- -- --- ------ ------- --------- ----------- --------<br>--------- -------- --- ------- -- ------- ---- -- ------<br>-- --- -------- -------- ---------- ---- ---- that ------<br>-- --------- -- ---- -- --- -- --- ------- -- - -----<br>---------- -- -- -- ---- ----- -- ------ -- --- ------<br>-------,228565.80000000028,228562.2000000002,228236.95,228239.80000000028,228253.616,228570.27,,24,that
screen,html.Screen,2_3_1_0_1_25,2022-02-15T16:37:33.384Z,,,,,,,,,,,,,,,,,48,,,,,,,,,,,,,,401.0300000002899,,response,,,,10,B,,,,,,Space,keypress(Space),,,,lyrical,,,,-- -- --- ------ ------- --------- ----------- --------<br>--------- -------- --- ------- -- ------- ---- -- ------<br>-- --- -------- -------- ---------- ---- ---- ---- amount<br>-- --------- -- ---- -- --- -- --- ------- -- - -----<br>---------- -- -- -- ---- ----- -- ------ -- --- ------<br>-------,228974.6000000001,228971.30000000028,228553.604,228566.1000000001,228570.27,228986.92,,25,amount
screen,html.Screen,2_3_1_0_1_26,2022-02-15T16:37:33.775Z,,,,,,,,,,,,,,,,,48,,,,,,,,,,,,,,376.0799999999872,,response,,,,10,B,,,,,,Space,keypress(Space),,,,lyrical,,,,-- -- --- ------ ------- --------- ----------- --------<br>--------- -------- --- ------- -- ------- ---- -- ------<br>-- --- -------- -------- ---------- ---- ---- ---- ------<br>to --------- -- ---- -- --- -- --- ------- -- - -----<br>---------- -- -- -- ---- ----- -- ------ -- --- ------<br>-------,229365.8999999999,229363,228970.254,228974.80000000028,228986.92,229370.238,,26,to
screen,html.Screen,2_3_1_0_1_27,2022-02-15T16:37:34.193Z,,,,,,,,,,,,,,,,,48,,,,,,,,,,,,,,410.5620000002673,,response,,,,10,B,,,,,,Space,keypress(Space),,,,lyrical,,,,-- -- --- ------ ------- --------- ----------- --------<br>--------- -------- --- ------- -- ------- ---- -- ------<br>-- --- -------- -------- ---------- ---- ---- ---- ------<br>-- transport -- ---- -- --- -- --- ------- -- - -----<br>---------- -- -- -- ---- ----- -- ------ -- --- ------<br>-------,229783.80000000028,229780.80000000028,229353.572,229366.2000000002,229370.238,229786.888,,27,transport
screen,html.Screen,2_3_1_0_1_28,2022-02-15T16:37:34.643Z,,,,,,,,,,,,,,,,,48,,,,,,,,,,,,,,444.4120000002731,,response,,,,10,B,,,,,,Space,keypress(Space),,,,lyrical,,,,-- -- --- ------ ------- --------- ----------- --------<br>--------- -------- --- ------- -- ------- ---- -- ------<br>-- --- -------- -------- ---------- ---- ---- ---- ------<br>-- --------- it ---- -- --- -- --- ------- -- - -----<br>---------- -- -- -- ---- ----- -- ------ -- --- ------<br>-------,230234.1000000001,230231.30000000028,229770.222,229784.1000000001,229786.888,230236.87,,28,it
screen,html.Screen,2_3_1_0_1_29,2022-02-15T16:37:35.244Z,,,,,,,,,,,,,,,,,48,,,,,,,,,,,,,,594.8300000001909,,response,,,,10,B,,,,,,Space,keypress(Space),,,,lyrical,,,,-- -- --- ------ ------- --------- ----------- --------<br>--------- -------- --- ------- -- ------- ---- -- ------<br>-- --- -------- -------- ---------- ---- ---- ---- ------<br>-- --------- -- into -- --- -- --- ------- -- - -----<br>---------- -- -- -- ---- ----- -- ------ -- --- ------<br>-------,230834.8999999999,230831.7000000002,230220.204,230234.30000000028,230236.87,230836.846,,29,into
screen,html.Screen,2_3_1_0_1_30,2022-02-15T16:37:35.463Z,,,,,,,,,,,,,,,,,48,,,,,,,,,,,,,,214.45400000028894,,response,,,,10,B,,,,,,Space,keypress(Space),,,,lyrical,,,,-- -- --- ------ ------- --------- ----------- --------<br>--------- -------- --- ------- -- ------- ---- -- ------<br>-- --- -------- -------- ---------- ---- ---- ---- ------<br>-- --------- -- ---- or --- -- --- ------- -- - -----<br>---------- -- -- -- ---- ----- -- ------ -- --- ------<br>-------,231054.30000000028,231051.30000000028,230820.18,230835.1000000001,230836.846,231070.17,,30,or
screen,html.Screen,2_3_1_0_1_31,2022-02-15T16:37:35.894Z,,,,,,,,,,,,,,,,,48,,,,,,,,,,,,,,411.9300000000803,,response,,,,10,B,,,,,,Space,keypress(Space),,,,lyrical,,,,-- -- --- ------ ------- --------- ----------- --------<br>--------- -------- --- ------- -- ------- ---- -- ------<br>-- --- -------- -------- ---------- ---- ---- ---- ------<br>-- --------- -- ---- -- out -- --- ------- -- - -----<br>---------- -- -- -- ---- ----- -- ------ -- --- ------<br>-------,231485.2000000002,231482.1000000001,231053.504,231054.6000000001,231070.17,231486.82,,31,out
screen,html.Screen,2_3_1_0_1_32,2022-02-15T16:37:36.322Z,,,,,,,,,,,,,,,,,48,,,,,,,,,,,,,,422.8800000001793,,response,,,,10,B,,,,,,Space,keypress(Space),,,,lyrical,,,,-- -- --- ------ ------- --------- ----------- --------<br>--------- -------- --- ------- -- ------- ---- -- ------<br>-- --- -------- -------- ---------- ---- ---- ---- ------<br>-- --------- -- ---- -- --- of --- ------- -- - -----<br>---------- -- -- -- ---- ----- -- ------ -- --- ------<br>-------,231912.8999999999,231909.7000000002,231470.154,231485.5,231486.82,231920.136,,32,of
screen,html.Screen,2_3_1_0_1_33,2022-02-15T16:37:36.657Z,,,,,,,,,,,,,,,,,48,,,,,,,,,,,,,,324.96400000009453,,response,,,,10,B,,,,,,Space,keypress(Space),,,,lyrical,,,,-- -- --- ------ ------- --------- ----------- --------<br>--------- -------- --- ------- -- ------- ---- -- ------<br>-- --- -------- -------- ---------- ---- ---- ---- ------<br>-- --------- -- ---- -- --- -- the ------- -- - -----<br>---------- -- -- -- ---- ----- -- ------ -- --- ------<br>-------,232248.2000000002,232245.1000000001,231903.47,231913,231920.136,232253.456,,33,the
screen,html.Screen,2_3_1_0_1_34,2022-02-15T16:37:36.941Z,,,,,,,,,,,,,,,,,48,,,,,,,,,,,,,,275.2440000001807,,response,,,,10,B,,,,,,Space,keypress(Space),,,,lyrical,,,,-- -- --- ------ ------- --------- ----------- --------<br>--------- -------- --- ------- -- ------- ---- -- ------<br>-- --- -------- -------- ---------- ---- ---- ---- ------<br>-- --------- -- ---- -- --- -- --- country -- - -----<br>---------- -- -- -- ---- ----- -- ------ -- --- ------<br>-------,232531.7000000002,232528.7000000002,232236.79,232248.5,232253.456,232536.778,,34,country
screen,html.Screen,2_3_1_0_1_35,2022-02-15T16:37:37.447Z,,,,,,,,,,,,,,,,,48,,,,,,,,,,,,,,498.22200000000885,,response,,,,10,B,,,,,,Space,keypress(Space),,,,lyrical,,,,-- -- --- ------ ------- --------- ----------- --------<br>--------- -------- --- ------- -- ------- ---- -- ------<br>-- --- -------- -------- ---------- ---- ---- ---- ------<br>-- --------- -- ---- -- --- -- --- ------- is - -----<br>---------- -- -- -- ---- ----- -- ------ -- --- ------<br>-------,233037.8999999999,233035,232520.112,232532,232536.778,233053.424,,35,is
screen,html.Screen,2_3_1_0_1_36,2022-02-15T16:37:37.779Z,,,,,,,,,,,,,,,,,48,,,,,,,,,,,,,,314.17600000009406,,response,,,,10,B,,,,,,Space,keypress(Space),,,,lyrical,,,,-- -- --- ------ ------- --------- ----------- --------<br>--------- -------- --- ------- -- ------- ---- -- ------<br>-- --- -------- -------- ---------- ---- ---- ---- ------<br>-- --------- -- ---- -- --- -- --- ------- -- a -----<br>---------- -- -- -- ---- ----- -- ------ -- --- ------<br>-------,233370.3999999999,233367.6000000001,233036.758,233038.30000000028,233053.424,233386.744,,36,a
screen,html.Screen,2_3_1_0_1_37,2022-02-15T16:37:38.190Z,,,,,,,,,,,,,,,,,48,,,,,,,,,,,,,,391.25599999999395,,response,,,,10,B,,,,,,Space,keypress(Space),,,,lyrical,,,,-- -- --- ------ ------- --------- ----------- --------<br>--------- -------- --- ------- -- ------- ---- -- ------<br>-- --- -------- -------- ---------- ---- ---- ---- ------<br>-- --------- -- ---- -- --- -- --- ------- -- - crime<br>---------- -- -- -- ---- ----- -- ------ -- --- ------<br>-------,233781.1000000001,233778,233370.078,233370.7000000002,233386.744,233786.728,,37,crime
screen,html.Screen,2_3_1_0_1_38,2022-02-15T16:37:38.583Z,,,,,,,,,,,,,,,,,48,,,,,,,,,,,,,,384.5720000002766,,response,,,,10,B,,,,,,Space,keypress(Space),,,,lyrical,,,,-- -- --- ------ ------- --------- ----------- --------<br>--------- -------- --- ------- -- ------- ---- -- ------<br>-- --- -------- -------- ---------- ---- ---- ---- ------<br>-- --------- -- ---- -- --- -- --- ------- -- - -----<br>punishable -- -- -- ---- ----- -- ------ -- --- ------<br>-------,234174.30000000028,234171.30000000028,233770.062,233781.3999999999,233786.728,234186.712,,38,punishable
screen,html.Screen,2_3_1_0_1_39,2022-02-15T16:37:38.963Z,,,,,,,,,,,,,,,,,48,,,,,,,,,,,,,,364.3880000000936,,response,,,,10,B,,,,,,Space,keypress(Space),,,,lyrical,,,,-- -- --- ------ ------- --------- ----------- --------<br>--------- -------- --- ------- -- ------- ---- -- ------<br>-- --- -------- -------- ---------- ---- ---- ---- ------<br>-- --------- -- ---- -- --- -- --- ------- -- - -----<br>---------- by -- -- ---- ----- -- ------ -- --- ------<br>-------,234554.2000000002,234551.1000000001,234170.046,234174.6000000001,234186.712,234570.03,,39,by
screen,html.Screen,2_3_1_0_1_40,2022-02-15T16:37:39.273Z,,,,,,,,,,,,,,,,,48,,,,,,,,,,,,,,291.0700000000943,,response,,,,10,B,,,,,,Space,keypress(Space),,,,lyrical,,,,-- -- --- ------ ------- --------- ----------- --------<br>--------- -------- --- ------- -- ------- ---- -- ------<br>-- --- -------- -------- ---------- ---- ---- ---- ------<br>-- --------- -- ---- -- --- -- --- ------- -- - -----<br>---------- -- up -- ---- ----- -- ------ -- --- ------<br>-------,234864,234861.1000000001,234553.364,234554.5,234570.03,234870.018,,40,up
screen,html.Screen,2_3_1_0_1_41,2022-02-15T16:37:39.546Z,,,,,,,,,,,,,,,,,48,,,,,,,,,,,,,,264.0820000000822,,response,,,,10,B,,,,,,Space,keypress(Space),,,,lyrical,,,,-- -- --- ------ ------- --------- ----------- --------<br>--------- -------- --- ------- -- ------- ---- -- ------<br>-- --- -------- -------- ---------- ---- ---- ---- ------<br>-- --------- -- ---- -- --- -- --- ------- -- - -----<br>---------- -- -- to ---- ----- -- ------ -- --- ------<br>-------,235136.8999999999,235134.1000000001,234853.352,234864.2000000002,234870.018,235153.34,,41,to
screen,html.Screen,2_3_1_0_1_42,2022-02-15T16:37:39.946Z,,,,,,,,,,,,,,,,,48,,,,,,,,,,,,,,380.6600000000035,,response,,,,10,B,,,,,,Space,keypress(Space),,,,lyrical,,,,-- -- --- ------ ------- --------- ----------- --------<br>--------- -------- --- ------- -- ------- ---- -- ------<br>-- --- -------- -------- ---------- ---- ---- ---- ------<br>-- --------- -- ---- -- --- -- --- ------- -- - -----<br>---------- -- -- -- five ----- -- ------ -- --- ------<br>-------,235537.1000000001,235534,235136.674,235137.1000000001,235153.34,235553.324,,42,five
screen,html.Screen,2_3_1_0_1_43,2022-02-15T16:37:40.274Z,,,,,,,,,,,,,,,,,48,,,,,,,,,,,,,,309.0759999999136,,response,,,,10,B,,,,,,Space,keypress(Space),,,,lyrical,,,,-- -- --- ------ ------- --------- ----------- --------<br>--------- -------- --- ------- -- ------- ---- -- ------<br>-- --- -------- -------- ---------- ---- ---- ---- ------<br>-- --------- -- ---- -- --- -- --- ------- -- - -----<br>---------- -- -- -- ---- years -- ------ -- --- ------<br>-------,235865.5,235862.3999999999,235536.658,235537.2000000002,235553.324,235869.978,,43,years
