sender,sender_type,sender_id,timestamp,meta,,Blues,Classical,Country,Dance,Electronic,Folk,Gospel,Hip-Hop,Jazz,Latin,Musical/Film,New-age,Pop,Prolific_id,Provo_ID,R&B,Rap,Reggae,Religious,Rock,Soul,Swing,Traditional,age,artist_name,correct,correctResponse,distraction,duration,education,ended_on,familiarity,gender,headphone_check_performance,item,list,music_frequency,offensiveness,pleasantness,position_correct,preference,response,response_action,snippet_file,song_name,song_rating,sound,stimulus_1,stimulus_2,stimulus_3,text,time_commit,time_end,time_render,time_run,time_show,time_switch,url,word,word_ID
Prolific ID,html.Form,0,2022-02-17T10:53:46.184Z,"{""labjs_version"":""20.2.2"",""labjs_build"":{""flavor"":""production"",""commit"":""a25486e0c714a0ae2ce03ff94b7bb6896854dcfa""},""location"":""https://run.pavlovia.org/mvasilev/prolific2_music_c/"",""userAgent"":""Mozilla/5.0 (Windows NT 10.0; Win64; x64) AppleWebKit/537.36 (KHTML, like Gecko) Chrome/98.0.4758.82 Safari/537.36"",""platform"":""Win32"",""language"":""en-GB"",""locale"":""en-GB"",""timeZone"":""Europe/London"",""timezoneOffset"":0,""screen_width"":1536,""screen_height"":864,""scroll_width"":1536,""scroll_height"":706,""window_innerWidth"":1536,""window_innerHeight"":754,""devicePixelRatio"":1.25}",,,,,,,,,,,,,,,5927ee603497ad00010171c2,,,,,,,,,,,,,,,11533.132000047684,,form submission,,,,,,,,,,,,,,,,,,,,,54722.10000002384,54720.700000047684,42794.125,42806.200000047684,43187.568,55068.002,{},,
Introduction,html.Screen,1_0,2022-02-17T10:54:03.847Z,,,,,,,,,,,,,,,,,,,,,,,,,,,,,,,17311.897999976158,,response,,,,,,,,,,,continue,click button,,,,,,,,,72384.60000002384,72379.89999997616,54701.824,54723.299999952316,55068.002,72913.656,,,
Volume calibration,html.Screen,1_1,2022-02-17T10:54:21.182Z,,,,,,,,,,,,,,,,,,,,,,,,,,,,,,,16800.94400002384,,response,,,,,,,,,,,continue,click button,,,,,,,,,89719.60000002384,89714.60000002384,72380.525,72385.10000002384,72913.656,89726.835,,,
Task instructions,html.Screen,1_2,2022-02-17T10:54:28.627Z,,,,,,,,,,,,,,,,,,,,,,,,,,,,,,,7435.164999999994,,response,,,,,,,,,,,continue,click button,,,,,,,,,97163.89999997616,97162,89709.589,89719.79999995232,89726.835,97175.132,,,
Sounds,html.Screen,1_3_0_0,2022-02-17T10:54:32.884Z,,,,,,,,,,,,,,,,,,,,,,,,,,,,,,,4264.937000000005,,timeout,,,,,,,,,1,,,,,,,,S,I,O,,101421.5,101406.928,97157.818,97164.20000004768,97175.132,101440.069,,,
Judgement,html.Screen,1_3_0_1,2022-02-17T10:54:35.306Z,,,,,,,,,,,,,,,,,,,,,,,,,,,,true,1,,2400.330999976155,,response,,,,,,,,,1,,1,click #choice-1,,,,,S,I,O,,103843.20000004768,103840.39999997616,101406.928,101421.70000004768,101440.069,103858.393,,,
Trial,flow.Sequence,1_3_0,2022-02-17T10:54:35.308Z,,,,,,,,,,,,,,,,,,,,,,,,,,,,,,,6665.26799997616,,completion,,,,,,,,,1,,,,,,,,S,I,O,,103845.29999995232,103840.39999997616,97157.818,97164.20000004768,97175.132,103858.393,,,
Sounds,html.Screen,1_3_1_0,2022-02-17T10:54:39.552Z,,,,,,,,,,,,,,,,,,,,,,,,,,,,,,,4246.881999999998,,timeout,,,,,,,,,3,,,,,,,,O,I,S,,108089.5,108088.619,103840.937,103845.70000004768,103858.393,108105.275,,,
Judgement,html.Screen,1_3_1_1,2022-02-17T10:54:40.762Z,,,,,,,,,,,,,,,,,,,,,,,,,,,,true,3,,1192.2250000000058,,response,,,,,,,,,3,,3,click #choice-3,,,,,O,I,S,,109299.5,109297.5,108088.619,108089.70000004768,108105.275,109305.579,,,
Trial,flow.Sequence,1_3_1,2022-02-17T10:54:40.763Z,,,,,,,,,,,,,,,,,,,,,,,,,,,,,,,5439.107000000004,,completion,,,,,,,,,3,,,,,,,,O,I,S,,109299.89999997616,109297.5,103840.937,103845.5,103858.393,109305.579,,,
Sounds,html.Screen,1_3_2_0,2022-02-17T10:54:45.011Z,,,,,,,,,,,,,,,,,,,,,,,,,,,,,,,4248.619000000006,,timeout,,,,,,,,,2,,,,,,,,I,S,O,,113548.29999995232,113537.243,109288.416,109300.10000002384,109305.579,113554.198,,,
Judgement,html.Screen,1_3_2_1,2022-02-17T10:54:46.891Z,,,,,,,,,,,,,,,,,,,,,,,,,,,,true,2,,1872.6019999523123,,response,,,,,,,,,2,,2,click #choice-2,,,,,I,S,O,,115428.39999997616,115426.79999995232,113537.243,113548.39999997616,113554.198,115436.803,,,
Trial,flow.Sequence,1_3_2,2022-02-17T10:54:46.892Z,,,,,,,,,,,,,,,,,,,,,,,,,,,,,,,6121.220999952318,,completion,,,,,,,,,2,,,,,,,,I,S,O,,115428.70000004768,115426.79999995232,109288.416,109300,109305.579,115436.803,,,
Sounds,html.Screen,1_3_3_0,2022-02-17T10:54:51.134Z,,,,,,,,,,,,,,,,,,,,,,,,,,,,,,,4249.069000000003,,timeout,,,,,,,,,2,,,,,,,,O,S,I,,119671,119669.835,115420.009,115429,115436.803,119685.872,,,
Judgement,html.Screen,1_3_3_1,2022-02-17T10:54:52.517Z,,,,,,,,,,,,,,,,,,,,,,,,,,,,true,2,,1364.4279999523133,,response,,,,,,,,,2,,2,click #choice-2,,,,,O,S,I,,121054.29999995232,121050.29999995232,119669.835,119671.20000004768,119685.872,121052.009,,,
Trial,flow.Sequence,1_3_3,2022-02-17T10:54:52.517Z,,,,,,,,,,,,,,,,,,,,,,,,,,,,,,,5613.496999952316,,completion,,,,,,,,,2,,,,,,,,O,S,I,,121054.60000002384,121050.29999995232,115420.009,115429,115436.803,121052.009,,,
Sounds,html.Screen,1_3_4_0,2022-02-17T10:54:56.748Z,,,,,,,,,,,,,,,,,,,,,,,,,,,,,,,4249.300999999992,,timeout,,,,,,,,,1,,,,,,,,S,O,I,,125285.79999995232,125284.286,121035.413,121054.79999995232,121052.009,125301.31,,,
Judgement,html.Screen,1_3_4_1,2022-02-17T10:54:57.999Z,,,,,,,,,,,,,,,,,,,,,,,,,,,,true,1,,1234.0899999761605,,response,,,,,,,,,1,,1,click #choice-1,,,,,S,O,I,,126537.20000004768,126535.39999997616,125284.286,125286.20000004768,125301.31,126550.665,,,
Trial,flow.Sequence,1_3_4,2022-02-17T10:54:58.000Z,,,,,,,,,,,,,,,,,,,,,,,,,,,,,,,5483.390999976153,,completion,,,,,,,,,1,,,,,,,,S,O,I,,126537.60000002384,126535.39999997616,121035.413,121054.60000002384,121052.009,126550.665,,,
Sounds,html.Screen,1_3_5_0,2022-02-17T10:55:02.246Z,,,,,,,,,,,,,,,,,,,,,,,,,,,,,,,4248.9100000000035,,timeout,,,,,,,,,3,,,,,,,,I,O,S,,130784.10000002384,130782.936,126534.132,126537.70000004768,126550.665,130799.575,,,
Judgement,html.Screen,1_3_5_1,2022-02-17T10:55:03.542Z,,,,,,,,,,,,,,,,,,,,,,,,,,,,true,3,,1278.5250000238448,,response,,,,,,,,,3,,3,click #choice-3,,,,,I,O,S,,132080.10000002384,132078.10000002384,130782.936,130784.29999995232,130799.575,132599.298,,,
Trial,flow.Sequence,1_3_5,2022-02-17T10:55:03.543Z,,,,,,,,,,,,,,,,,,,,,,,,,,,,,,,5527.435000023848,,completion,,,,,,,,,3,,,,,,,,I,O,S,,132080.39999997616,132078.10000002384,126534.132,126537.70000004768,126550.665,132599.298,,,
Task,flow.Loop,1_3,2022-02-17T10:55:03.549Z,,,,,,,,,,,,,,,,,,,,,,,,,,,,,,,34902.968000023844,,completion,,,1,,,,,,,,,,,,,,,,,,132086.70000004768,132078.10000002384,97157.818,97164.10000002384,97175.132,132599.298,,,
Trap,html.Screen,1_4,2022-02-17T10:55:04.009Z,,,,,,,,,,,,,,,,,,,,,,,,,,,,,,,NaN,,skipped,,,,,,,,,,,,,,,,,,,,,132546.79999995232,132078.10000002384,,132546.39999997616,,132599.298,,,
Thanks,html.Screen,1_5,2022-02-17T10:55:08.615Z,,,,,,,,,,,,,,,,,,,,,,,,,,,,,,,4551.5019999523065,,response,,,,,,,,,,,continue,click button,,,,,,,,,137152.5,137150.79999995232,132066.615,132547.10000002384,132599.298,148845.154,,,
Headphone screening,flow.Sequence,1,2022-02-17T10:55:08.615Z,,,,,,,,,,,,,,,,,,,,,,,,,,,,,,,82082.79799995231,,completion,,,,,,,,,,,,,,,,,,,,,137152.79999995232,137150.79999995232,54701.824,54723.299999952316,55068.002,148845.154,,,
Instructions,html.Page,2_0,2022-02-17T10:55:43.911Z,,,,,,,,,,,,,,,,,,,,,,,,,,,,,,,23602.74599997615,,form submission,,,,,,,,,,,,,,,,,,,,,172448.39999997616,172447.89999997616,147979.426,148438.10000002384,148845.154,172456.089,,,
Holding screen,html.Screen,2_1_0_0,2022-02-17T10:55:53.900Z,,,,,,,,,,,,,,,,,,,,,,,,,,,,,,,10830.881999999983,,timeout,,,,,,,,,,,,,,,,,,,,,182438.29999995232,182437.165,172439.43,172449,172456.089,183286.971,,,
screen,html.Screen,2_1_0_1_0,2022-02-17T10:55:55.890Z,,,,,,,,,,,,,,,,,53,,,,,,,,,,,,,,1081.1290000238514,,response,,,,99,,,,,,,Space,keypress(Space),,,,,,,,When -- ----- -- ------ - ------- --- ----------<br>------------- ------ ------ ---- ---- ------- ----- -- ----<br>-------- ------- -- ---------- --- - --- ----- ----- ----<br>---- --- --- ----- --- ---- ---- ------- ----- ---- -------<br>--- --- -- ----- -- --- ---- -- --- ---- -- ------ ------<br>--- ----- -- ----,184428.20000004768,184368.10000002384,182437.165,182438.60000002384,183286.971,184436.516,,0,When
screen,html.Screen,2_1_0_1_1,2022-02-17T10:55:56.328Z,,,,,,,,,,,,,,,,,53,,,,,,,,,,,,,,428.68400004768046,,response,,,,99,,,,,,,Space,keypress(Space),,,,,,,,---- it ----- -- ------ - ------- --- ----------<br>------------- ------ ------ ---- ---- ------- ----- -- ----<br>-------- ------- -- ---------- --- - --- ----- ----- ----<br>---- --- --- ----- --- ---- ---- ------- ----- ---- -------<br>--- --- -- ----- -- --- ---- -- --- ---- -- ------ ------<br>--- ----- -- ----,184866.20000004768,184865.20000004768,184420.077,184428.60000002384,184436.516,184869.767,,1,it
screen,html.Screen,2_1_0_1_2,2022-02-17T10:55:56.776Z,,,,,,,,,,,,,,,,,53,,,,,,,,,,,,,,442.73300000000745,,response,,,,99,,,,,,,Space,keypress(Space),,,,,,,,---- -- comes -- ------ - ------- --- ----------<br>------------- ------ ------ ---- ---- ------- ----- -- ----<br>-------- ------- -- ---------- --- - --- ----- ----- ----<br>---- --- --- ----- --- ---- ---- ------- ----- ---- -------<br>--- --- -- ----- -- --- ---- -- --- ---- -- ------ ------<br>--- ----- -- ----,185313.89999997616,185312.5,184853.166,184866.29999995232,184869.767,185320.238,,2,comes
screen,html.Screen,2_1_0_1_3,2022-02-17T10:55:57.156Z,,,,,,,,,,,,,,,,,53,,,,,,,,,,,,,,371.5619999523042,,response,,,,99,,,,,,,Space,keypress(Space),,,,,,,,---- -- ----- to ------ - ------- --- ----------<br>------------- ------ ------ ---- ---- ------- ----- -- ----<br>-------- ------- -- ---------- --- - --- ----- ----- ----<br>---- --- --- ----- --- ---- ---- ------- ----- ---- -------<br>--- --- -- ----- -- --- ---- -- --- ---- -- ------ ------<br>--- ----- -- ----,185693.60000002384,185691.79999995232,185303.237,185314.10000002384,185320.238,185703.345,,3,to
screen,html.Screen,2_1_0_1_4,2022-02-17T10:55:57.660Z,,,,,,,,,,,,,,,,,53,,,,,,,,,,,,,,492.554999976157,,response,,,,99,,,,,,,Space,keypress(Space),,,,,,,,---- -- ----- -- having - ------- --- ----------<br>------------- ------ ------ ---- ---- ------- ----- -- ----<br>-------- ------- -- ---------- --- - --- ----- ----- ----<br>---- --- --- ----- --- ---- ---- ------- ----- ---- -------<br>--- --- -- ----- -- --- ---- -- --- ---- -- ------ ------<br>--- ----- -- ----,186197.89999997616,186195.89999997616,185686.46,185693.79999995232,185703.345,186202.796,,4,having
screen,html.Screen,2_1_0_1_5,2022-02-17T10:55:58.039Z,,,,,,,,,,,,,,,,,53,,,,,,,,,,,,,,371.2039999999979,,response,,,,99,,,,,,,Space,keypress(Space),,,,,,,,---- -- ----- -- ------ a ------- --- ----------<br>------------- ------ ------ ---- ---- ------- ----- -- ----<br>-------- ------- -- ---------- --- - --- ----- ----- ----<br>---- --- --- ----- --- ---- ---- ------- ----- ---- -------<br>--- --- -- ----- -- --- ---- -- --- ---- -- ------ ------<br>--- ----- -- ----,186576.39999997616,186574,186186.382,186198.20000004768,186202.796,186586.148,,5,a
screen,html.Screen,2_1_0_1_6,2022-02-17T10:55:58.473Z,,,,,,,,,,,,,,,,,53,,,,,,,,,,,,,,403.5520000476972,,response,,,,99,,,,,,,Space,keypress(Space),,,,,,,,---- -- ----- -- ------ - lasting --- ----------<br>------------- ------ ------ ---- ---- ------- ----- -- ----<br>-------- ------- -- ---------- --- - --- ----- ----- ----<br>---- --- --- ----- --- ---- ---- ------- ----- ---- -------<br>--- --- -- ----- -- --- ---- -- --- ---- -- ------ ------<br>--- ----- -- ----,187010.79999995232,186989.70000004768,186569.424,186576.60000002384,186586.148,187019.223,,6,lasting
screen,html.Screen,2_1_0_1_7,2022-02-17T10:55:59.004Z,,,,,,,,,,,,,,,,,53,,,,,,,,,,,,,,520.7770000000019,,response,,,,99,,,,,,,Space,keypress(Space),,,,,,,,---- -- ----- -- ------ - ------- and ----------<br>------------- ------ ------ ---- ---- ------- ----- -- ----<br>-------- ------- -- ---------- --- - --- ----- ----- ----<br>---- --- --- ----- --- ---- ---- ------- ----- ---- -------<br>--- --- -- ----- -- --- ---- -- --- ---- -- ------ ------<br>--- ----- -- ----,187541.89999997616,187540,187002.831,187010.89999997616,187019.223,187552.671,,7,and
screen,html.Screen,2_1_0_1_8,2022-02-17T10:55:59.501Z,,,,,,,,,,,,,,,,,53,,,,,,,,,,,,,,484.92900002383976,,response,,,,99,,,,,,,Space,keypress(Space),,,,,,,,---- -- ----- -- ------ - ------- --- fulfilling<br>------------- ------ ------ ---- ---- ------- ----- -- ----<br>-------- ------- -- ---------- --- - --- ----- ----- ----<br>---- --- --- ----- --- ---- ---- ------- ----- ---- -------<br>--- --- -- ----- -- --- ---- -- --- ---- -- ------ ------<br>--- ----- -- ----,188039,188037.60000002384,187535.843,187542.10000002384,187552.671,188052.307,,8,fulfilling
screen,html.Screen,2_1_0_1_9,2022-02-17T10:55:59.991Z,,,,,,,,,,,,,,,,,53,,,,,,,,,,,,,,474.4929999523156,,response,,,,99,,,,,,,Space,keypress(Space),,,,,,,,"---- -- ----- -- ------ - ------- --- ----------<br>relationship, ------ ------ ---- ---- ------- ----- -- ----<br>-------- ------- -- ---------- --- - --- ----- ----- ----<br>---- --- --- ----- --- ---- ---- ------- ----- ---- -------<br>--- --- -- ----- -- --- ---- -- --- ---- -- ------ ------<br>--- ----- -- ----",188528.5,188526.79999995232,188035.91,188039.29999995232,188052.307,188536.151,,9,"relationship,"
screen,html.Screen,2_1_0_1_10,2022-02-17T10:56:00.463Z,,,,,,,,,,,,,,,,,53,,,,,,,,,,,,,,463.04900004767114,,response,,,,99,,,,,,,Space,keypress(Space),,,,,,,,---- -- ----- -- ------ - ------- --- ----------<br>------------- common ------ ---- ---- ------- ----- -- ----<br>-------- ------- -- ---------- --- - --- ----- ----- ----<br>---- --- --- ----- --- ---- ---- ------- ----- ---- -------<br>--- --- -- ----- -- --- ---- -- --- ---- -- ------ ------<br>--- ----- -- ----,189000.5,188999.20000004768,188518.931,188528.79999995232,188536.151,189019.163,,10,common
screen,html.Screen,2_1_0_1_11,2022-02-17T10:56:00.966Z,,,,,,,,,,,,,,,,,53,,,,,,,,,,,,,,482.83699999999953,,response,,,,99,,,,,,,Space,keypress(Space),,,,,,,,---- -- ----- -- ------ - ------- --- ----------<br>------------- ------ wisdom ---- ---- ------- ----- -- ----<br>-------- ------- -- ---------- --- - --- ----- ----- ----<br>---- --- --- ----- --- ---- ---- ------- ----- ---- -------<br>--- --- -- ----- -- --- ---- -- --- ---- -- ------ ------<br>--- ----- -- ----,189503.79999995232,189502,188985.475,189000.79999995232,189019.163,189518.913,,11,wisdom
screen,html.Screen,2_1_0_1_12,2022-02-17T10:56:01.455Z,,,,,,,,,,,,,,,,,53,,,,,,,,,,,,,,472.28700004768325,,response,,,,99,,,,,,,Space,keypress(Space),,,,,,,,---- -- ----- -- ------ - ------- --- ----------<br>------------- ------ ------ says ---- ------- ----- -- ----<br>-------- ------- -- ---------- --- - --- ----- ----- ----<br>---- --- --- ----- --- ---- ---- ------- ----- ---- -------<br>--- --- -- ----- -- --- ---- -- --- ---- -- ------ ------<br>--- ----- -- ----,189993.10000002384,189991.20000004768,189502.218,189504.10000002384,189518.913,190002.143,,12,says
screen,html.Screen,2_1_0_1_13,2022-02-17T10:56:01.929Z,,,,,,,,,,,,,,,,,53,,,,,,,,,,,,,,462.9570000238309,,response,,,,99,,,,,,,Space,keypress(Space),,,,,,,,---- -- ----- -- ------ - ------- --- ----------<br>------------- ------ ------ ---- that ------- ----- -- ----<br>-------- ------- -- ---------- --- - --- ----- ----- ----<br>---- --- --- ----- --- ---- ---- ------- ----- ---- -------<br>--- --- -- ----- -- --- ---- -- --- ---- -- ------ ------<br>--- ----- -- ----,190466.89999997616,190465.10000002384,189985.468,189993.29999995232,190002.143,190485.811,,13,that
screen,html.Screen,2_1_0_1_14,2022-02-17T10:56:02.359Z,,,,,,,,,,,,,,,,,53,,,,,,,,,,,,,,409.18900000001304,,response,,,,99,,,,,,,Space,keypress(Space),,,,,,,,---- -- ----- -- ------ - ------- --- ----------<br>------------- ------ ------ ---- ---- feeling ----- -- ----<br>-------- ------- -- ---------- --- - --- ----- ----- ----<br>---- --- --- ----- --- ---- ---- ------- ----- ---- -------<br>--- --- -- ----- -- --- ---- -- --- ---- -- ------ ------<br>--- ----- -- ----,190896.89999997616,190895,190452.01,190467.10000002384,190485.811,190901.64,,14,feeling
screen,html.Screen,2_1_0_1_15,2022-02-17T10:56:02.788Z,,,,,,,,,,,,,,,,,53,,,,,,,,,,,,,,421.2599999761442,,response,,,,99,,,,,,,Space,keypress(Space),,,,,,,,---- -- ----- -- ------ - ------- --- ----------<br>------------- ------ ------ ---- ---- ------- close -- ----<br>-------- ------- -- ---------- --- - --- ----- ----- ----<br>---- --- --- ----- --- ---- ---- ------- ----- ---- -------<br>--- --- -- ----- -- --- ---- -- --- ---- -- ------ ------<br>--- ----- -- ----,191325.60000002384,191322.89999997616,190885.202,190897.10000002384,190901.64,191334.83,,15,close
screen,html.Screen,2_1_0_1_16,2022-02-17T10:56:03.206Z,,,,,,,,,,,,,,,,,53,,,,,,,,,,,,,,407.27000002385466,,response,,,,99,,,,,,,Space,keypress(Space),,,,,,,,---- -- ----- -- ------ - ------- --- ----------<br>------------- ------ ------ ---- ---- ------- ----- to ----<br>-------- ------- -- ---------- --- - --- ----- ----- ----<br>---- --- --- ----- --- ---- ---- ------- ----- ---- -------<br>--- --- -- ----- -- --- ---- -- --- ---- -- ------ ------<br>--- ----- -- ----,191743.89999997616,191742.10000002384,191319.782,191326,191334.83,191768.141,,16,to
screen,html.Screen,2_1_0_1_17,2022-02-17T10:56:03.635Z,,,,,,,,,,,,,,,,,53,,,,,,,,,,,,,,401.85899999999674,,response,,,,99,,,,,,,Space,keypress(Space),,,,,,,,---- -- ----- -- ------ - ------- --- ----------<br>------------- ------ ------ ---- ---- ------- ----- -- your<br>-------- ------- -- ---------- --- - --- ----- ----- ----<br>---- --- --- ----- --- ---- ---- ------- ----- ---- -------<br>--- --- -- ----- -- --- ---- -- --- ---- -- ------ ------<br>--- ----- -- ----,192172.29999995232,192170,191734.992,191744.10000002384,191768.141,192184.73,,17,your
screen,html.Screen,2_1_0_1_18,2022-02-17T10:56:04.053Z,,,,,,,,,,,,,,,,,53,,,,,,,,,,,,,,404.66999997614766,,response,,,,99,,,,,,,Space,keypress(Space),,,,,,,,---- -- ----- -- ------ - ------- --- ----------<br>------------- ------ ------ ---- ---- ------- ----- -- ----<br>romantic ------- -- ---------- --- - --- ----- ----- ----<br>---- --- --- ----- --- ---- ---- ------- ----- ---- -------<br>--- --- -- ----- -- --- ---- -- --- ---- -- ------ ------<br>--- ----- -- ----,192591,192589.39999997616,192170.611,192172.60000002384,192184.73,192601.185,,18,romantic
screen,html.Screen,2_1_0_1_19,2022-02-17T10:56:04.431Z,,,,,,,,,,,,,,,,,53,,,,,,,,,,,,,,364.9150000238442,,response,,,,99,,,,,,,Space,keypress(Space),,,,,,,,---- -- ----- -- ------ - ------- --- ----------<br>------------- ------ ------ ---- ---- ------- ----- -- ----<br>-------- partner -- ---------- --- - --- ----- ----- ----<br>---- --- --- ----- --- ---- ---- ------- ----- ---- -------<br>--- --- -- ----- -- --- ---- -- --- ---- -- ------ ------<br>--- ----- -- ----,192968.5,192966.10000002384,192584.631,192591.10000002384,192601.185,192984.469,,19,partner
screen,html.Screen,2_1_0_1_20,2022-02-17T10:56:04.824Z,,,,,,,,,,,,,,,,,53,,,,,,,,,,,,,,375.8309999523044,,response,,,,99,,,,,,,Space,keypress(Space),,,,,,,,---- -- ----- -- ------ - ------- --- ----------<br>------------- ------ ------ ---- ---- ------- ----- -- ----<br>-------- ------- is ---------- --- - --- ----- ----- ----<br>---- --- --- ----- --- ---- ---- ------- ----- ---- -------<br>--- --- -- ----- -- --- ---- -- --- ---- -- ------ ------<br>--- ----- -- ----,193362,193360.29999995232,192967.824,192968.70000004768,192984.469,193367.679,,20,is
screen,html.Screen,2_1_0_1_21,2022-02-17T10:56:05.201Z,,,,,,,,,,,,,,,,,53,,,,,,,,,,,,,,370.12099995231256,,response,,,,99,,,,,,,Space,keypress(Space),,,,,,,,---- -- ----- -- ------ - ------- --- ----------<br>------------- ------ ------ ---- ---- ------- ----- -- ----<br>-------- ------- -- paramount. --- - --- ----- ----- ----<br>---- --- --- ----- --- ---- ---- ------- ----- ---- -------<br>--- --- -- ----- -- --- ---- -- --- ---- -- ------ ------<br>--- ----- -- ----,193738.60000002384,193737.79999995232,193351.28,193362.29999995232,193367.679,193750.912,,21,paramount.
screen,html.Screen,2_1_0_1_22,2022-02-17T10:56:05.704Z,,,,,,,,,,,,,,,,,53,,,,,,,,,,,,,,489.1880000238307,,response,,,,99,,,,,,,Space,keypress(Space),,,,,,,,---- -- ----- -- ------ - ------- --- ----------<br>------------- ------ ------ ---- ---- ------- ----- -- ----<br>-------- ------- -- ---------- But - --- ----- ----- ----<br>---- --- --- ----- --- ---- ---- ------- ----- ---- -------<br>--- --- -- ----- -- --- ---- -- --- ---- -- ------ ------<br>--- ----- -- ----,194241.39999997616,194240.10000002384,193734.342,193738.70000004768,193750.912,194250.797,,22,But
screen,html.Screen,2_1_0_1_23,2022-02-17T10:56:06.087Z,,,,,,,,,,,,,,,,,53,,,,,,,,,,,,,,372.5029999523249,,response,,,,99,,,,,,,Space,keypress(Space),,,,,,,,---- -- ----- -- ------ - ------- --- ----------<br>------------- ------ ------ ---- ---- ------- ----- -- ----<br>-------- ------- -- ---------- --- a --- ----- ----- ----<br>---- --- --- ----- --- ---- ---- ------- ----- ---- -------<br>--- --- -- ----- -- --- ---- -- --- ---- -- ------ ------<br>--- ----- -- ----,194625.20000004768,194623.29999995232,194234.206,194241.60000002384,194250.797,194634.087,,23,a
screen,html.Screen,2_1_0_1_24,2022-02-17T10:56:06.462Z,,,,,,,,,,,,,,,,,53,,,,,,,,,,,,,,364.21299995231675,,response,,,,99,,,,,,,Space,keypress(Space),,,,,,,,---- -- ----- -- ------ - ------- --- ----------<br>------------- ------ ------ ---- ---- ------- ----- -- ----<br>-------- ------- -- ---------- --- - new ----- ----- ----<br>---- --- --- ----- --- ---- ---- ------- ----- ---- -------<br>--- --- -- ----- -- --- ---- -- --- ---- -- ------ ------<br>--- ----- -- ----,195000,194998.29999995232,194617.613,194625.39999997616,194634.087,195017.372,,24,new
screen,html.Screen,2_1_0_1_25,2022-02-17T10:56:06.807Z,,,,,,,,,,,,,,,,,53,,,,,,,,,,,,,,326.8280000476807,,response,,,,99,,,,,,,Space,keypress(Space),,,,,,,,---- -- ----- -- ------ - ------- --- ----------<br>------------- ------ ------ ---- ---- ------- ----- -- ----<br>-------- ------- -- ---------- --- - --- study ----- ----<br>---- --- --- ----- --- ---- ---- ------- ----- ---- -------<br>--- --- -- ----- -- --- ---- -- --- ---- -- ------ ------<br>--- ----- -- ----,195345.10000002384,195344.20000004768,195000.856,195000.20000004768,195017.372,195350.51,,25,study
screen,html.Screen,2_1_0_1_26,2022-02-17T10:56:07.210Z,,,,,,,,,,,,,,,,,53,,,,,,,,,,,,,,396.59000002383254,,response,,,,99,,,,,,,Space,keypress(Space),,,,,,,,---- -- ----- -- ------ - ------- --- ----------<br>------------- ------ ------ ---- ---- ------- ----- -- ----<br>-------- ------- -- ---------- --- - --- ----- finds ----<br>---- --- --- ----- --- ---- ---- ------- ----- ---- -------<br>--- --- -- ----- -- --- ---- -- --- ---- -- ------ ------<br>--- ----- -- ----,195748,195747.10000002384,195334.123,195345.29999995232,195350.51,195750.417,,26,finds
screen,html.Screen,2_1_0_1_27,2022-02-17T10:56:07.631Z,,,,,,,,,,,,,,,,,53,,,,,,,,,,,,,,416.283000047697,,response,,,,99,,,,,,,Space,keypress(Space),,,,,,,,---- -- ----- -- ------ - ------- --- ----------<br>------------- ------ ------ ---- ---- ------- ----- -- ----<br>-------- ------- -- ---------- --- - --- ----- ----- that<br>---- --- --- ----- --- ---- ---- ------- ----- ---- -------<br>--- --- -- ----- -- --- ---- -- --- ---- -- ------ ------<br>--- ----- -- ----,196168.5,196166.70000004768,195733.871,195748.20000004768,195750.417,196183.68,,27,that
screen,html.Screen,2_1_0_1_28,2022-02-17T10:56:08.083Z,,,,,,,,,,,,,,,,,53,,,,,,,,,,,,,,434.820000000007,,response,,,,99,,,,,,,Space,keypress(Space),,,,,,,,---- -- ----- -- ------ - ------- --- ----------<br>------------- ------ ------ ---- ---- ------- ----- -- ----<br>-------- ------- -- ---------- --- - --- ----- ----- ----<br>it's --- --- ----- --- ---- ---- ------- ----- ---- -------<br>--- --- -- ----- -- --- ---- -- --- ---- -- ------ ------<br>--- ----- -- ----,196620.29999995232,196618.5,196167.267,196168.70000004768,196183.68,196633.592,,28,it's
screen,html.Screen,2_1_0_1_29,2022-02-17T10:56:08.437Z,,,,,,,,,,,,,,,,,53,,,,,,,,,,,,,,339.1080000476795,,response,,,,99,,,,,,,Space,keypress(Space),,,,,,,,---- -- ----- -- ------ - ------- --- ----------<br>------------- ------ ------ ---- ---- ------- ----- -- ----<br>-------- ------- -- ---------- --- - --- ----- ----- ----<br>---- not --- ----- --- ---- ---- ------- ----- ---- -------<br>--- --- -- ----- -- --- ---- -- --- ---- -- ------ ------<br>--- ----- -- ----,196974.5,196972.70000004768,196616.978,196620.5,196633.592,196983.636,,29,not
screen,html.Screen,2_1_0_1_30,2022-02-17T10:56:08.777Z,,,,,,,,,,,,,,,,,53,,,,,,,,,,,,,,329.3640000000014,,response,,,,99,,,,,,,Space,keypress(Space),,,,,,,,---- -- ----- -- ------ - ------- --- ----------<br>------------- ------ ------ ---- ---- ------- ----- -- ----<br>-------- ------- -- ---------- --- - --- ----- ----- ----<br>---- --- how ----- --- ---- ---- ------- ----- ---- -------<br>--- --- -- ----- -- --- ---- -- --- ---- -- ------ ------<br>--- ----- -- ----,197314.70000004768,197313,196967.059,196974.79999995232,196983.636,197333.971,,30,how
screen,html.Screen,2_1_0_1_31,2022-02-17T10:56:09.152Z,,,,,,,,,,,,,,,,,53,,,,,,,,,,,,,,353.9289999761677,,response,,,,99,,,,,,,Space,keypress(Space),,,,,,,,---- -- ----- -- ------ - ------- --- ----------<br>------------- ------ ------ ---- ---- ------- ----- -- ----<br>-------- ------- -- ---------- --- - --- ----- ----- ----<br>---- --- --- close --- ---- ---- ------- ----- ---- -------<br>--- --- -- ----- -- --- ---- -- --- ---- -- ------ ------<br>--- ----- -- ----,197689.60000002384,197687.89999997616,197300.084,197315,197333.971,197700.456,,31,close
screen,html.Screen,2_1_0_1_32,2022-02-17T10:56:09.482Z,,,,,,,,,,,,,,,,,53,,,,,,,,,,,,,,316.94399997615255,,response,,,,99,,,,,,,Space,keypress(Space),,,,,,,,---- -- ----- -- ------ - ------- --- ----------<br>------------- ------ ------ ---- ---- ------- ----- -- ----<br>-------- ------- -- ---------- --- - --- ----- ----- ----<br>---- --- --- ----- you ---- ---- ------- ----- ---- -------<br>--- --- -- ----- -- --- ---- -- --- ---- -- ------ ------<br>--- ----- -- ----,198019.39999997616,198017.39999997616,197683.553,197689.79999995232,197700.456,198033.411,,32,you
screen,html.Screen,2_1_0_1_33,2022-02-17T10:56:09.903Z,,,,,,,,,,,,,,,,,53,,,,,,,,,,,,,,405.8889999523235,,response,,,,99,,,,,,,Space,keypress(Space),,,,,,,,---- -- ----- -- ------ - ------- --- ----------<br>------------- ------ ------ ---- ---- ------- ----- -- ----<br>-------- ------- -- ---------- --- - --- ----- ----- ----<br>---- --- --- ----- --- feel ---- ------- ----- ---- -------<br>--- --- -- ----- -- --- ---- -- --- ---- -- ------ ------<br>--- ----- -- ----,198441,198439.29999995232,198016.774,198019.70000004768,198033.411,198450.169,,33,feel
screen,html.Screen,2_1_0_1_34,2022-02-17T10:56:10.311Z,,,,,,,,,,,,,,,,,53,,,,,,,,,,,,,,396.5310000476893,,response,,,,99,,,,,,,Space,keypress(Space),,,,,,,,---- -- ----- -- ------ - ------- --- ----------<br>------------- ------ ------ ---- ---- ------- ----- -- ----<br>-------- ------- -- ---------- --- - --- ----- ----- ----<br>---- --- --- ----- --- ---- that ------- ----- ---- -------<br>--- --- -- ----- -- --- ---- -- --- ---- -- ------ ------<br>--- ----- -- ----,198848.29999995232,198846.70000004768,198433.215,198441.20000004768,198450.169,198883.298,,34,that
screen,html.Screen,2_1_0_1_35,2022-02-17T10:56:10.678Z,,,,,,,,,,,,,,,,,53,,,,,,,,,,,,,,330.2019999999902,,response,,,,99,,,,,,,Space,keypress(Space),,,,,,,,---- -- ----- -- ------ - ------- --- ----------<br>------------- ------ ------ ---- ---- ------- ----- -- ----<br>-------- ------- -- ---------- --- - --- ----- ----- ----<br>---- --- --- ----- --- ---- ---- matters ----- ---- -------<br>--- --- -- ----- -- --- ---- -- --- ---- -- ------ ------<br>--- ----- -- ----,199216,199213.5,198866.509,198848.60000002384,198883.298,199232.914,,35,matters
screen,html.Screen,2_1_0_1_36,2022-02-17T10:56:11.047Z,,,,,,,,,,,,,,,,,53,,,,,,,,,,,,,,350.4859999761684,,response,,,,99,,,,,,,Space,keypress(Space),,,,,,,,"---- -- ----- -- ------ - ------- --- ----------<br>------------- ------ ------ ---- ---- ------- ----- -- ----<br>-------- ------- -- ---------- --- - --- ----- ----- ----<br>---- --- --- ----- --- ---- ---- ------- most, ---- -------<br>--- --- -- ----- -- --- ---- -- --- ---- -- ------ ------<br>--- ----- -- ----",199585.20000004768,199583.39999997616,199216.467,199216.29999995232,199232.914,199599.791,,36,"most,"
screen,html.Screen,2_1_0_1_37,2022-02-17T10:56:11.524Z,,,,,,,,,,,,,,,,,53,,,,,,,,,,,,,,458.3090000238444,,response,,,,99,,,,,,,Space,keypress(Space),,,,,,,,---- -- ----- -- ------ - ------- --- ----------<br>------------- ------ ------ ---- ---- ------- ----- -- ----<br>-------- ------- -- ---------- --- - --- ----- ----- ----<br>---- --- --- ----- --- ---- ---- ------- ----- it's -------<br>--- --- -- ----- -- --- ---- -- --- ---- -- ------ ------<br>--- ----- -- ----,200061.20000004768,200058.10000002384,199582.869,199585.39999997616,199599.791,200066.042,,37,it's
screen,html.Screen,2_1_0_1_38,2022-02-17T10:56:11.905Z,,,,,,,,,,,,,,,,,53,,,,,,,,,,,,,,356.8579999761714,,response,,,,99,,,,,,,Space,keypress(Space),,,,,,,,---- -- ----- -- ------ - ------- --- ----------<br>------------- ------ ------ ---- ---- ------- ----- -- ----<br>-------- ------- -- ---------- --- - --- ----- ----- ----<br>---- --- --- ----- --- ---- ---- ------- ----- ---- whether<br>--- --- -- ----- -- --- ---- -- --- ---- -- ------ ------<br>--- ----- -- ----,200442.60000002384,200422.89999997616,200049.467,200061.5,200066.042,200449.3,,38,whether
screen,html.Screen,2_1_0_1_39,2022-02-17T10:56:12.280Z,,,,,,,,,,,,,,,,,53,,,,,,,,,,,,,,366.0999999761698,,response,,,,99,,,,,,,Space,keypress(Space),,,,,,,,---- -- ----- -- ------ - ------- --- ----------<br>------------- ------ ------ ---- ---- ------- ----- -- ----<br>-------- ------- -- ---------- --- - --- ----- ----- ----<br>---- --- --- ----- --- ---- ---- ------- ----- ---- -------<br>you --- -- ----- -- --- ---- -- --- ---- -- ------ ------<br>--- ----- -- ----,200817.29999995232,200815.39999997616,200432.866,200442.70000004768,200449.3,200833.154,,39,you
screen,html.Screen,2_1_0_1_40,2022-02-17T10:56:12.594Z,,,,,,,,,,,,,,,,,53,,,,,,,,,,,,,,296.9460000238323,,response,,,,99,,,,,,,Space,keypress(Space),,,,,,,,---- -- ----- -- ------ - ------- --- ----------<br>------------- ------ ------ ---- ---- ------- ----- -- ----<br>-------- ------- -- ---------- --- - --- ----- ----- ----<br>---- --- --- ----- --- ---- ---- ------- ----- ---- -------<br>--- are -- ----- -- --- ---- -- --- ---- -- ------ ------<br>--- ----- -- ----,201131.39999997616,201130.10000002384,200815.919,200817.60000002384,200833.154,201165.975,,40,are
screen,html.Screen,2_1_0_1_41,2022-02-17T10:56:12.967Z,,,,,,,,,,,,,,,,,53,,,,,,,,,,,,,,337.7250000476779,,response,,,,99,,,,,,,Space,keypress(Space),,,,,,,,---- -- ----- -- ------ - ------- --- ----------<br>------------- ------ ------ ---- ---- ------- ----- -- ----<br>-------- ------- -- ---------- --- - --- ----- ----- ----<br>---- --- --- ----- --- ---- ---- ------- ----- ---- -------<br>--- --- as ----- -- --- ---- -- --- ---- -- ------ ------<br>--- ----- -- ----,201504.5,201503.70000004768,201149.283,201131.60000002384,201165.975,201515.676,,41,as
screen,html.Screen,2_1_0_1_42,2022-02-17T10:56:13.383Z,,,,,,,,,,,,,,,,,53,,,,,,,,,,,,,,403.52400004767696,,response,,,,99,,,,,,,Space,keypress(Space),,,,,,,,---- -- ----- -- ------ - ------- --- ----------<br>------------- ------ ------ ---- ---- ------- ----- -- ----<br>-------- ------- -- ---------- --- - --- ----- ----- ----<br>---- --- --- ----- --- ---- ---- ------- ----- ---- -------<br>--- --- -- close -- --- ---- -- --- ---- -- ------ ------<br>--- ----- -- ----,201920.89999997616,201919.20000004768,201499.253,201504.60000002384,201515.676,201932.437,,42,close
screen,html.Screen,2_1_0_1_43,2022-02-17T10:56:13.767Z,,,,,,,,,,,,,,,,,53,,,,,,,,,,,,,,370.9629999761528,,response,,,,99,,,,,,,Space,keypress(Space),,,,,,,,---- -- ----- -- ------ - ------- --- ----------<br>------------- ------ ------ ---- ---- ------- ----- -- ----<br>-------- ------- -- ---------- --- - --- ----- ----- ----<br>---- --- --- ----- --- ---- ---- ------- ----- ---- -------<br>--- --- -- ----- as --- ---- -- --- ---- -- ------ ------<br>--- ----- -- ----,202305.20000004768,202303.39999997616,201915.65,201921.10000002384,201932.437,202315.546,,43,as
screen,html.Screen,2_1_0_1_44,2022-02-17T10:56:14.293Z,,,,,,,,,,,,,,,,,53,,,,,,,,,,,,,,512.9539999999979,,response,,,,99,,,,,,,Space,keypress(Space),,,,,,,,---- -- ----- -- ------ - ------- --- ----------<br>------------- ------ ------ ---- ---- ------- ----- -- ----<br>-------- ------- -- ---------- --- - --- ----- ----- ----<br>---- --- --- ----- --- ---- ---- ------- ----- ---- -------<br>--- --- -- ----- -- you ---- -- --- ---- -- ------ ------<br>--- ----- -- ----,202830.29999995232,202828.5,202298.925,202305.39999997616,202315.546,202849.809,,44,you
screen,html.Screen,2_1_0_1_45,2022-02-17T10:56:14.631Z,,,,,,,,,,,,,,,,,53,,,,,,,,,,,,,,317.6909999999916,,response,,,,99,,,,,,,Space,keypress(Space),,,,,,,,---- -- ----- -- ------ - ------- --- ----------<br>------------- ------ ------ ---- ---- ------- ----- -- ----<br>-------- ------- -- ---------- --- - --- ----- ----- ----<br>---- --- --- ----- --- ---- ---- ------- ----- ---- -------<br>--- --- -- ----- -- --- want -- --- ---- -- ------ ------<br>--- ----- -- ----,203168.79999995232,203167.5,202815.407,202830.60000002384,202849.809,203182.158,,45,want
screen,html.Screen,2_1_0_1_46,2022-02-17T10:56:15.101Z,,,,,,,,,,,,,,,,,53,,,,,,,,,,,,,,454.94200002384605,,response,,,,99,,,,,,,Space,keypress(Space),,,,,,,,---- -- ----- -- ------ - ------- --- ----------<br>------------- ------ ------ ---- ---- ------- ----- -- ----<br>-------- ------- -- ---------- --- - --- ----- ----- ----<br>---- --- --- ----- --- ---- ---- ------- ----- ---- -------<br>--- --- -- ----- -- --- ---- to --- ---- -- ------ ------<br>--- ----- -- ----,203638.79999995232,203637.10000002384,203165.374,203169,203182.158,203648.774,,46,to
screen,html.Screen,2_1_0_1_47,2022-02-17T10:56:15.494Z,,,,,,,,,,,,,,,,,53,,,,,,,,,,,,,,381.32600002383697,,response,,,,99,,,,,,,Space,keypress(Space),,,,,,,,"---- -- ----- -- ------ - ------- --- ----------<br>------------- ------ ------ ---- ---- ------- ----- -- ----<br>-------- ------- -- ---------- --- - --- ----- ----- ----<br>---- --- --- ----- --- ---- ---- ------- ----- ---- -------<br>--- --- -- ----- -- --- ---- -- be, ---- -- ------ ------<br>--- ----- -- ----",204031.39999997616,204030.10000002384,203631.95,203639.10000002384,203648.774,204050.743,,47,"be,"
screen,html.Screen,2_1_0_1_48,2022-02-17T10:56:16.111Z,,,,,,,,,,,,,,,,,53,,,,,,,,,,,,,,596.0569999523286,,response,,,,99,,,,,,,Space,keypress(Space),,,,,,,,---- -- ----- -- ------ - ------- --- ----------<br>------------- ------ ------ ---- ---- ------- ----- -- ----<br>-------- ------- -- ---------- --- - --- ----- ----- ----<br>---- --- --- ----- --- ---- ---- ------- ----- ---- -------<br>--- --- -- ----- -- --- ---- -- --- even -- ------ ------<br>--- ----- -- ----,204648.60000002384,204646.79999995232,204032.082,204031.70000004768,204050.743,204665.131,,48,even
screen,html.Screen,2_1_0_1_49,2022-02-17T10:56:16.516Z,,,,,,,,,,,,,,,,,53,,,,,,,,,,,,,,386.4690000238479,,response,,,,99,,,,,,,Space,keypress(Space),,,,,,,,---- -- ----- -- ------ - ------- --- ----------<br>------------- ------ ------ ---- ---- ------- ----- -- ----<br>-------- ------- -- ---------- --- - --- ----- ----- ----<br>---- --- --- ----- --- ---- ---- ------- ----- ---- -------<br>--- --- -- ----- -- --- ---- -- --- ---- if ------ ------<br>--- ----- -- ----,205053.20000004768,205051.60000002384,204648.554,204648.79999995232,204665.131,205064.921,,49,if
screen,html.Screen,2_1_0_1_50,2022-02-17T10:56:16.893Z,,,,,,,,,,,,,,,,,53,,,,,,,,,,,,,,363.5789999999979,,response,,,,99,,,,,,,Space,keypress(Space),,,,,,,,---- -- ----- -- ------ - ------- --- ----------<br>------------- ------ ------ ---- ---- ------- ----- -- ----<br>-------- ------- -- ---------- --- - --- ----- ----- ----<br>---- --- --- ----- --- ---- ---- ------- ----- ---- -------<br>--- --- -- ----- -- --- ---- -- --- ---- -- that's ------<br>--- ----- -- ----,205430.20000004768,205428.5,205048.287,205053.5,205064.921,205464.793,,50,that's
screen,html.Screen,2_1_0_1_51,2022-02-17T10:56:17.307Z,,,,,,,,,,,,,,,,,53,,,,,,,,,,,,,,378.4070000476786,,response,,,,99,,,,,,,Space,keypress(Space),,,,,,,,---- -- ----- -- ------ - ------- --- ----------<br>------------- ------ ------ ---- ---- ------- ----- -- ----<br>-------- ------- -- ---------- --- - --- ----- ----- ----<br>---- --- --- ----- --- ---- ---- ------- ----- ---- -------<br>--- --- -- ----- -- --- ---- -- --- ---- -- ------ really<br>--- ----- -- ----,205845,205843.20000004768,205448.244,205430.39999997616,205464.793,205847.992,,51,really
screen,html.Screen,2_1_0_1_52,2022-02-17T10:56:17.834Z,,,,,,,,,,,,,,,,,53,,,,,,,,,,,,,,522.0080000000016,,response,,,,99,,,,,,,Space,keypress(Space),,,,,,,,---- -- ----- -- ------ - ------- --- ----------<br>------------- ------ ------ ---- ---- ------- ----- -- ----<br>-------- ------- -- ---------- --- - --- ----- ----- ----<br>---- --- --- ----- --- ---- ---- ------- ----- ---- -------<br>--- --- -- ----- -- --- ---- -- --- ---- -- ------ ------<br>not ----- -- ----,206371.79999995232,206370,205831.368,205845.29999995232,205847.992,206381.173,,52,not
screen,html.Screen,2_1_0_1_53,2022-02-17T10:56:18.219Z,,,,,,,,,,,,,,,,,53,,,,,,,,,,,,,,373.8269999999902,,response,,,,99,,,,,,,Space,keypress(Space),,,,,,,,---- -- ----- -- ------ - ------- --- ----------<br>------------- ------ ------ ---- ---- ------- ----- -- ----<br>-------- ------- -- ---------- --- - --- ----- ----- ----<br>---- --- --- ----- --- ---- ---- ------- ----- ---- -------<br>--- --- -- ----- -- --- ---- -- --- ---- -- ------ ------<br>--- close -- ----,206756.89999997616,206755,206364.845,206372,206381.173,206764.417,,53,close
screen,html.Screen,2_1_0_1_54,2022-02-17T10:56:18.636Z,,,,,,,,,,,,,,,,,53,,,,,,,,,,,,,,408.68300002385513,,response,,,,99,,,,,,,Space,keypress(Space),,,,,,,,---- -- ----- -- ------ - ------- --- ----------<br>------------- ------ ------ ---- ---- ------- ----- -- ----<br>-------- ------- -- ---------- --- - --- ----- ----- ----<br>---- --- --- ----- --- ---- ---- ------- ----- ---- -------<br>--- --- -- ----- -- --- ---- -- --- ---- -- ------ ------<br>--- ----- at ----,207173.89999997616,207173.10000002384,206748.017,206757.10000002384,206764.417,207180.944,,54,at
screen,html.Screen,2_1_0_1_55,2022-02-17T10:56:20.331Z,,,,,,,,,,,,,,,,,53,,,,,,,,,,,,,,1684.3559999523277,,response,,,,99,,,,,,,Space,keypress(Space),,,,,,,,---- -- ----- -- ------ - ------- --- ----------<br>------------- ------ ------ ---- ---- ------- ----- -- ----<br>-------- ------- -- ---------- --- - --- ----- ----- ----<br>---- --- --- ----- --- ---- ---- ------- ----- ---- -------<br>--- --- -- ----- -- --- ---- -- --- ---- -- ------ ------<br>--- ----- -- all.,208868.29999995232,208865.29999995232,207164.591,207174.10000002384,207180.944,208880.578,,55,all.
Item 99,flow.Loop,2_1_0_1,2022-02-17T10:56:20.331Z,,,,,,,,,,,,,,,,,,,,,,,,,,,,,,,25578.328999952326,,completion,,,,,C,,,,,,,,,,,silence,,,,,208868.70000004768,208865.29999995232,182437.165,182438.39999997616,183286.971,208880.578,,,
Question 1,html.Screen,2_1_0_2,2022-02-17T10:56:28.948Z,,,,,,,,,,,,,,,,,,,,,,,,,,,,true,FALSE,,8603.421999999991,,response,,,,99,C,,,,,,FALSE,click #choice-2,,,,silence,,,,,217486.10000002384,217484,208864.358,208868.89999997616,208880.578,217495.667,,,
Question 2,html.Screen,2_1_0_3,2022-02-17T10:56:34.662Z,,,,,,,,,,,,,,,,,,,,,,,,,,,,true,TRUE,,5702.533000047697,,response,,,,99,C,,,,,,TRUE,click #choice-1,,,,silence,,,,,223200,223198.20000004768,217478.706,217486.29999995232,217495.667,223210.512,,,
Item 99,flow.Sequence,2_1_0,2022-02-17T10:56:34.662Z,,,,,,,,,,,,,,,,,,,,,,,,,,,,,,,50742.11100004768,,completion,,,,,,,,,,,,,,,,,,,,,223200.20000004768,223198.20000004768,172439.43,172449,172456.089,223210.512,,,
Holding screen,html.Screen,2_1_1_0,2022-02-17T10:56:44.655Z,,,,,,,,,,,,,,,,,,,,,,,,,,,,,,,9997.569000000018,,timeout,,,,,,,,,,,,,,,,,,,,,233192.39999997616,233191.495,223194.072,223200.29999995232,223210.512,233208.081,,,
screen,html.Screen,2_1_1_1_0,2022-02-17T10:56:45.673Z,,,,,,,,,,,,,,,,,54,,,,,,,,,,,,,,1000.5190000238363,,response,,,,100,,,,,,,Space,keypress(Space),,,,,,,,At --- ---- --- ------ ----- ------- ---- -- --- ------- --<br>------- ---------- ------ -- ----- -- ----- -- ---- ------<br>--- ----- --- --- ------ -------- ----- --- ------ ----- --<br>----- ----- ---------- --- --- ------ ------ ---- -- ------<br>------- --- ------ ----- --- ---- ------- -- ---- --- --<br>------- ------,234210.60000002384,234208.60000002384,233191.495,233193.29999995232,233208.081,234224.485,,0,At
screen,html.Screen,2_1_1_1_1,2022-02-17T10:56:46.067Z,,,,,,,,,,,,,,,,,54,,,,,,,,,,,,,,378.1150000238558,,response,,,,100,,,,,,,Space,keypress(Space),,,,,,,,-- the ---- --- ------ ----- ------- ---- -- --- ------- --<br>------- ---------- ------ -- ----- -- ----- -- ---- ------<br>--- ----- --- --- ------ -------- ----- --- ------ ----- --<br>----- ----- ---------- --- --- ------ ------ ---- -- ------<br>------- --- ------ ----- --- ---- ------- -- ---- --- --<br>------- ------,234604.39999997616,234602.60000002384,234207.907,234210.89999997616,234224.485,234607.654,,1,the
screen,html.Screen,2_1_1_1_2,2022-02-17T10:56:46.390Z,,,,,,,,,,,,,,,,,54,,,,,,,,,,,,,,318.54600004767417,,response,,,,100,,,,,,,Space,keypress(Space),,,,,,,,-- --- time --- ------ ----- ------- ---- -- --- ------- --<br>------- ---------- ------ -- ----- -- ----- -- ---- ------<br>--- ----- --- --- ------ -------- ----- --- ------ ----- --<br>----- ----- ---------- --- --- ------ ------ ---- -- ------<br>------- --- ------ ----- --- ---- ------- -- ---- --- --<br>------- ------,234928,234926.20000004768,234591.241,234604.60000002384,234607.654,234941.131,,2,time
screen,html.Screen,2_1_1_1_3,2022-02-17T10:56:46.716Z,,,,,,,,,,,,,,,,,54,,,,,,,,,,,,,,310.9690000238479,,response,,,,100,,,,,,,Space,keypress(Space),,,,,,,,-- --- ---- the ------ ----- ------- ---- -- --- ------- --<br>------- ---------- ------ -- ----- -- ----- -- ---- ------<br>--- ----- --- --- ------ -------- ----- --- ------ ----- --<br>----- ----- ---------- --- --- ------ ------ ---- -- ------<br>------- --- ------ ----- --- ---- ------- -- ---- --- --<br>------- ------,235253.5,235252.10000002384,234924.46,234928.20000004768,234941.131,235257.507,,3,the
screen,html.Screen,2_1_1_1_4,2022-02-17T10:56:47.051Z,,,,,,,,,,,,,,,,,54,,,,,,,,,,,,,,329.1930000476714,,response,,,,100,,,,,,,Space,keypress(Space),,,,,,,,-- --- ---- --- French ----- ------- ---- -- --- ------- --<br>------- ---------- ------ -- ----- -- ----- -- ---- ------<br>--- ----- --- --- ------ -------- ----- --- ------ ----- --<br>----- ----- ---------- --- --- ------ ------ ---- -- ------<br>------- --- ------ ----- --- ---- ------- -- ---- --- --<br>------- ------,235588.5,235586.70000004768,235240.964,235253.70000004768,235257.507,235607.936,,4,French
screen,html.Screen,2_1_1_1_5,2022-02-17T10:56:47.390Z,,,,,,,,,,,,,,,,,54,,,,,,,,,,,,,,317.76400004769675,,response,,,,100,,,,,,,Space,keypress(Space),,,,,,,,-- --- ---- --- ------ crown ------- ---- -- --- ------- --<br>------- ---------- ------ -- ----- -- ----- -- ---- ------<br>--- ----- --- --- ------ -------- ----- --- ------ ----- --<br>----- ----- ---------- --- --- ------ ------ ---- -- ------<br>------- --- ------ ----- --- ---- ------- -- ---- --- --<br>------- ------,235927.5,235925.70000004768,235574.331,235588.70000004768,235607.936,235940.898,,5,crown
screen,html.Screen,2_1_1_1_6,2022-02-17T10:56:47.919Z,,,,,,,,,,,,,,,,,54,,,,,,,,,,,,,,514.2020000238554,,response,,,,100,,,,,,,Space,keypress(Space),,,,,,,,-- --- ---- --- ------ ----- secured ---- -- --- ------- --<br>------- ---------- ------ -- ----- -- ----- -- ---- ------<br>--- ----- --- --- ------ -------- ----- --- ------ ----- --<br>----- ----- ---------- --- --- ------ ------ ---- -- ------<br>------- --- ------ ----- --- ---- ------- -- ---- --- --<br>------- ------,236457,236455.10000002384,235924.249,235927.79999995232,235940.898,236474.096,,6,secured
screen,html.Screen,2_1_1_1_7,2022-02-17T10:56:48.406Z,,,,,,,,,,,,,,,,,54,,,,,,,,,,,,,,467.8039999761677,,response,,,,100,,,,,,,Space,keypress(Space),,,,,,,,-- --- ---- --- ------ ----- ------- much -- --- ------- --<br>------- ---------- ------ -- ----- -- ----- -- ---- ------<br>--- ----- --- --- ------ -------- ----- --- ------ ----- --<br>----- ----- ---------- --- --- ------ ------ ---- -- ------<br>------- --- ------ ----- --- ---- ------- -- ---- --- --<br>------- ------,236943.29999995232,236941.89999997616,236457.295,236457.20000004768,236474.096,236957.113,,7,much
screen,html.Screen,2_1_1_1_8,2022-02-17T10:56:48.779Z,,,,,,,,,,,,,,,,,54,,,,,,,,,,,,,,358.6869999523042,,response,,,,100,,,,,,,Space,keypress(Space),,,,,,,,-- --- ---- --- ------ ----- ------- ---- of --- ------- --<br>------- ---------- ------ -- ----- -- ----- -- ---- ------<br>--- ----- --- --- ------ -------- ----- --- ------ ----- --<br>----- ----- ---------- --- --- ------ ------ ---- -- ------<br>------- --- ------ ----- --- ---- ------- -- ---- --- --<br>------- ------,237316.60000002384,237315.79999995232,236940.474,236943.70000004768,236957.113,237323.789,,8,of
screen,html.Screen,2_1_1_1_9,2022-02-17T10:56:49.395Z,,,,,,,,,,,,,,,,,54,,,,,,,,,,,,,,607.2110000000102,,response,,,,100,,,,,,,Space,keypress(Space),,,,,,,,-- --- ---- --- ------ ----- ------- ---- -- its ------- --<br>------- ---------- ------ -- ----- -- ----- -- ---- ------<br>--- ----- --- --- ------ -------- ----- --- ------ ----- --<br>----- ----- ---------- --- --- ------ ------ ---- -- ------<br>------- --- ------ ----- --- ---- ------- -- ---- --- --<br>------- ------,237932.70000004768,237931,237307.219,237316.79999995232,237323.789,237940.79,,9,its
screen,html.Screen,2_1_1_1_10,2022-02-17T10:56:49.914Z,,,,,,,,,,,,,,,,,54,,,,,,,,,,,,,,501.10999997615,,response,,,,100,,,,,,,Space,keypress(Space),,,,,,,,-- --- ---- --- ------ ----- ------- ---- -- --- revenue --<br>------- ---------- ------ -- ----- -- ----- -- ---- ------<br>--- ----- --- --- ------ -------- ----- --- ------ ----- --<br>----- ----- ---------- --- --- ------ ------ ---- -- ------<br>------- --- ------ ----- --- ---- ------- -- ---- --- --<br>------- ------,238451.5,238441.89999997616,237923.601,237932.89999997616,237940.79,238456.682,,10,revenue
screen,html.Screen,2_1_1_1_11,2022-02-17T10:56:50.734Z,,,,,,,,,,,,,,,,,54,,,,,,,,,,,,,,812.8179999999993,,response,,,,100,,,,,,,Space,keypress(Space),,,,,,,,-- --- ---- --- ------ ----- ------- ---- -- --- ------- by<br>------- ---------- ------ -- ----- -- ----- -- ---- ------<br>--- ----- --- --- ------ -------- ----- --- ------ ----- --<br>----- ----- ---------- --- --- ------ ------ ---- -- ------<br>------- --- ------ ----- --- ---- ------- -- ---- --- --<br>------- ------,239271.29999995232,239269.5,238440.346,238451.60000002384,238456.682,239273.179,,11,by
screen,html.Screen,2_1_1_1_12,2022-02-17T10:56:51.104Z,,,,,,,,,,,,,,,,,54,,,,,,,,,,,,,,367.52100004768,,response,,,,100,,,,,,,Space,keypress(Space),,,,,,,,-- --- ---- --- ------ ----- ------- ---- -- --- ------- --<br>issuing ---------- ------ -- ----- -- ----- -- ---- ------<br>--- ----- --- --- ------ -------- ----- --- ------ ----- --<br>----- ----- ---------- --- --- ------ ------ ---- -- ------<br>------- --- ------ ----- --- ---- ------- -- ---- --- --<br>------- ------,239641.70000004768,239640.70000004768,239256.649,239271.39999997616,239273.179,239656.625,,12,issuing
screen,html.Screen,2_1_1_1_13,2022-02-17T10:56:51.441Z,,,,,,,,,,,,,,,,,54,,,,,,,,,,,,,,319.77499997615814,,response,,,,100,,,,,,,Space,keypress(Space),,,,,,,,-- --- ---- --- ------ ----- ------- ---- -- --- ------- --<br>------- government ------ -- ----- -- ----- -- ---- ------<br>--- ----- --- --- ------ -------- ----- --- ------ ----- --<br>----- ----- ---------- --- --- ------ ------ ---- -- ------<br>------- --- ------ ----- --- ---- ------- -- ---- --- --<br>------- ------,239978.5,239976.39999997616,239639.987,239641.79999995232,239656.625,239989.818,,13,government
screen,html.Screen,2_1_1_1_14,2022-02-17T10:56:51.752Z,,,,,,,,,,,,,,,,,54,,,,,,,,,,,,,,298.481999952317,,response,,,,100,,,,,,,Space,keypress(Space),,,,,,,,-- --- ---- --- ------ ----- ------- ---- -- --- ------- --<br>------- ---------- bonds. -- ----- -- ----- -- ---- ------<br>--- ----- --- --- ------ -------- ----- --- ------ ----- --<br>----- ----- ---------- --- --- ------ ------ ---- -- ------<br>------- --- ------ ----- --- ---- ------- -- ---- --- --<br>------- ------,240290.10000002384,240288.29999995232,239973.087,239978.70000004768,239989.818,240306.412,,14,bonds.
screen,html.Screen,2_1_1_1_15,2022-02-17T10:56:52.142Z,,,,,,,,,,,,,,,,,54,,,,,,,,,,,,,,370.98799997614697,,response,,,,100,,,,,,,Space,keypress(Space),,,,,,,,-- --- ---- --- ------ ----- ------- ---- -- --- ------- --<br>------- ---------- ------ In ----- -- ----- -- ---- ------<br>--- ----- --- --- ------ -------- ----- --- ------ ----- --<br>----- ----- ---------- --- --- ------ ------ ---- -- ------<br>------- --- ------ ----- --- ---- ------- -- ---- --- --<br>------- ------,240679.5,240677.39999997616,240289.639,240290.29999995232,240306.412,240689.463,,15,In
screen,html.Screen,2_1_1_1_16,2022-02-17T10:56:52.529Z,,,,,,,,,,,,,,,,,54,,,,,,,,,,,,,,375.4369999761693,,response,,,,100,,,,,,,Space,keypress(Space),,,,,,,,"-- --- ---- --- ------ ----- ------- ---- -- --- ------- --<br>------- ---------- ------ -- 1727, -- ----- -- ---- ------<br>--- ----- --- --- ------ -------- ----- --- ------ ----- --<br>----- ----- ---------- --- --- ------ ------ ---- -- ------<br>------- --- ------ ----- --- ---- ------- -- ---- --- --<br>------- ------",241066.29999995232,241064.89999997616,240672.914,240679.60000002384,240689.463,241072.723,,16,"1727,"
screen,html.Screen,2_1_1_1_17,2022-02-17T10:56:52.887Z,,,,,,,,,,,,,,,,,54,,,,,,,,,,,,,,349.67699997616,,response,,,,100,,,,,,,Space,keypress(Space),,,,,,,,-- --- ---- --- ------ ----- ------- ---- -- --- ------- --<br>------- ---------- ------ -- ----- in ----- -- ---- ------<br>--- ----- --- --- ------ -------- ----- --- ------ ----- --<br>----- ----- ---------- --- --- ------ ------ ---- -- ------<br>------- --- ------ ----- --- ---- ------- -- ---- --- --<br>------- ------,241424.20000004768,241422.39999997616,241056.127,241066.5,241072.723,241439.362,,17,in
screen,html.Screen,2_1_1_1_18,2022-02-17T10:56:53.371Z,,,,,,,,,,,,,,,,,54,,,,,,,,,,,,,,467.33800004769,,response,,,,100,,,,,,,Space,keypress(Space),,,,,,,,-- --- ---- --- ------ ----- ------- ---- -- --- ------- --<br>------- ---------- ------ -- ----- -- order -- ---- ------<br>--- ----- --- --- ------ -------- ----- --- ------ ----- --<br>----- ----- ---------- --- --- ------ ------ ---- -- ------<br>------- --- ------ ----- --- ---- ------- -- ---- --- --<br>------- ------,241908.60000002384,241906.70000004768,241422.731,241424.5,241439.362,241923.094,,18,order
screen,html.Screen,2_1_1_1_19,2022-02-17T10:56:53.715Z,,,,,,,,,,,,,,,,,54,,,,,,,,,,,,,,328.60600004767184,,response,,,,100,,,,,,,Space,keypress(Space),,,,,,,,-- --- ---- --- ------ ----- ------- ---- -- --- ------- --<br>------- ---------- ------ -- ----- -- ----- to ---- ------<br>--- ----- --- --- ------ -------- ----- --- ------ ----- --<br>----- ----- ---------- --- --- ------ ------ ---- -- ------<br>------- --- ------ ----- --- ---- ------- -- ---- --- --<br>------- ------,242253,242251.70000004768,241906.082,241908.79999995232,241923.094,242255.771,,19,to
screen,html.Screen,2_1_1_1_20,2022-02-17T10:56:53.995Z,,,,,,,,,,,,,,,,,54,,,,,,,,,,,,,,275.02899995230837,,response,,,,100,,,,,,,Space,keypress(Space),,,,,,,,-- --- ---- --- ------ ----- ------- ---- -- --- ------- --<br>------- ---------- ------ -- ----- -- ----- -- save ------<br>--- ----- --- --- ------ -------- ----- --- ------ ----- --<br>----- ----- ---------- --- --- ------ ------ ---- -- ------<br>------- --- ------ ----- --- ---- ------- -- ---- --- --<br>------- ------,242532.5,242530.79999995232,242239.178,242253.29999995232,242255.771,242539.048,,20,save
screen,html.Screen,2_1_1_1_21,2022-02-17T10:56:54.242Z,,,,,,,,,,,,,,,,,54,,,,,,,,,,,,,,238.95199999999022,,response,,,,100,,,,,,,Space,keypress(Space),,,,,,,,"-- --- ---- --- ------ ----- ------- ---- -- --- ------- --<br>------- ---------- ------ -- ----- -- ----- -- ---- money,<br>--- ----- --- --- ------ -------- ----- --- ------ ----- --<br>----- ----- ---------- --- --- ------ ------ ---- -- ------<br>------- --- ------ ----- --- ---- ------- -- ---- --- --<br>------- ------",242779.29999995232,242778,242522.598,242532.70000004768,242539.048,242788.957,,21,"money,"
screen,html.Screen,2_1_1_1_22,2022-02-17T10:56:54.623Z,,,,,,,,,,,,,,,,,54,,,,,,,,,,,,,,370.8429999523214,,response,,,,100,,,,,,,Space,keypress(Space),,,,,,,,-- --- ---- --- ------ ----- ------- ---- -- --- ------- --<br>------- ---------- ------ -- ----- -- ----- -- ---- ------<br>the ----- --- --- ------ -------- ----- --- ------ ----- --<br>----- ----- ---------- --- --- ------ ------ ---- -- ------<br>------- --- ------ ----- --- ---- ------- -- ---- --- --<br>------- ------,243160.70000004768,243159.79999995232,242772.531,242779.5,242788.957,243172.249,,22,the
screen,html.Screen,2_1_1_1_23,2022-02-17T10:56:54.962Z,,,,,,,,,,,,,,,,,54,,,,,,,,,,,,,,325.15099997614743,,response,,,,100,,,,,,,Space,keypress(Space),,,,,,,,-- --- ---- --- ------ ----- ------- ---- -- --- ------- --<br>------- ---------- ------ -- ----- -- ----- -- ---- ------<br>--- state --- --- ------ -------- ----- --- ------ ----- --<br>----- ----- ---------- --- --- ------ ------ ---- -- ------<br>------- --- ------ ----- --- ---- ------- -- ---- --- --<br>------- ------,243499.5,243497.39999997616,243155.618,243160.79999995232,243172.249,243505.506,,23,state
screen,html.Screen,2_1_1_1_24,2022-02-17T10:56:55.199Z,,,,,,,,,,,,,,,,,54,,,,,,,,,,,,,,229.5940000238479,,response,,,,100,,,,,,,Space,keypress(Space),,,,,,,,-- --- ---- --- ------ ----- ------- ---- -- --- ------- --<br>------- ---------- ------ -- ----- -- ----- -- ---- ------<br>--- ----- cut --- ------ -------- ----- --- ------ ----- --<br>----- ----- ---------- --- --- ------ ------ ---- -- ------<br>------- --- ------ ----- --- ---- ------- -- ---- --- --<br>------- ------,243736.5,243735.10000002384,243489.041,243499.79999995232,243505.506,243738.763,,24,cut
screen,html.Screen,2_1_1_1_25,2022-02-17T10:56:55.580Z,,,,,,,,,,,,,,,,,54,,,,,,,,,,,,,,377.93700004767743,,response,,,,100,,,,,,,Space,keypress(Space),,,,,,,,-- --- ---- --- ------ ----- ------- ---- -- --- ------- --<br>------- ---------- ------ -- ----- -- ----- -- ---- ------<br>--- ----- --- the ------ -------- ----- --- ------ ----- --<br>----- ----- ---------- --- --- ------ ------ ---- -- ------<br>------- --- ------ ----- --- ---- ------- -- ---- --- --<br>------- ------,244117.89999997616,244116.70000004768,243722.294,243736.70000004768,243738.763,244122.003,,25,the
screen,html.Screen,2_1_1_1_26,2022-02-17T10:56:55.889Z,,,,,,,,,,,,,,,,,54,,,,,,,,,,,,,,302.89699997616117,,response,,,,100,,,,,,,Space,keypress(Space),,,,,,,,-- --- ---- --- ------ ----- ------- ---- -- --- ------- --<br>------- ---------- ------ -- ----- -- ----- -- ---- ------<br>--- ----- --- --- bonds' -------- ----- --- ------ ----- --<br>----- ----- ---------- --- --- ------ ------ ---- -- ------<br>------- --- ------ ----- --- ---- ------- -- ---- --- --<br>------- ------,244426.79999995232,244424.89999997616,244105.572,244118.20000004768,244122.003,244438.746,,26,bonds'
screen,html.Screen,2_1_1_1_27,2022-02-17T10:56:56.463Z,,,,,,,,,,,,,,,,,54,,,,,,,,,,,,,,559.95400004767,,response,,,,100,,,,,,,Space,keypress(Space),,,,,,,,-- --- ---- --- ------ ----- ------- ---- -- --- ------- --<br>------- ---------- ------ -- ----- -- ----- -- ---- ------<br>--- ----- --- --- ------ interest ----- --- ------ ----- --<br>----- ----- ---------- --- --- ------ ------ ---- -- ------<br>------- --- ------ ----- --- ---- ------- -- ---- --- --<br>------- ------,245000.39999997616,244998.70000004768,244422.153,244429.20000004768,244438.746,245005.113,,27,interest
screen,html.Screen,2_1_1_1_28,2022-02-17T10:56:56.807Z,,,,,,,,,,,,,,,,,54,,,,,,,,,,,,,,338.1869999523042,,response,,,,100,,,,,,,Space,keypress(Space),,,,,,,,-- --- ---- --- ------ ----- ------- ---- -- --- ------- --<br>------- ---------- ------ -- ----- -- ----- -- ---- ------<br>--- ----- --- --- ------ -------- rate. --- ------ ----- --<br>----- ----- ---------- --- --- ------ ------ ---- -- ------<br>------- --- ------ ----- --- ---- ------- -- ---- --- --<br>------- ------,245345.20000004768,245343.29999995232,244988.718,245000.60000002384,245005.113,245355.025,,28,rate.
screen,html.Screen,2_1_1_1_29,2022-02-17T10:56:57.154Z,,,,,,,,,,,,,,,,,54,,,,,,,,,,,,,,335.0750000238477,,response,,,,100,,,,,,,Space,keypress(Space),,,,,,,,-- --- ---- --- ------ ----- ------- ---- -- --- ------- --<br>------- ---------- ------ -- ----- -- ----- -- ---- ------<br>--- ----- --- --- ------ -------- ----- The ------ ----- --<br>----- ----- ---------- --- --- ------ ------ ---- -- ------<br>------- --- ------ ----- --- ---- ------- -- ---- --- --<br>------- ------,245691.5,245690.10000002384,245338.624,245345.39999997616,245355.025,245705.148,,29,The
screen,html.Screen,2_1_1_1_30,2022-02-17T10:56:57.481Z,,,,,,,,,,,,,,,,,54,,,,,,,,,,,,,,311.75199997617165,,response,,,,100,,,,,,,Space,keypress(Space),,,,,,,,-- --- ---- --- ------ ----- ------- ---- -- --- ------- --<br>------- ---------- ------ -- ----- -- ----- -- ---- ------<br>--- ----- --- --- ------ -------- ----- --- market ----- --<br>----- ----- ---------- --- --- ------ ------ ---- -- ------<br>------- --- ------ ----- --- ---- ------- -- ---- --- --<br>------- ------,246018.5,246016.89999997616,245688.51,245691.70000004768,245705.148,246021.534,,30,market
screen,html.Screen,2_1_1_1_31,2022-02-17T10:56:57.782Z,,,,,,,,,,,,,,,,,54,,,,,,,,,,,,,,297.36599997614394,,response,,,,100,,,,,,,Space,keypress(Space),,,,,,,,-- --- ---- --- ------ ----- ------- ---- -- --- ------- --<br>------- ---------- ------ -- ----- -- ----- -- ---- ------<br>--- ----- --- --- ------ -------- ----- --- ------ value --<br>----- ----- ---------- --- --- ------ ------ ---- -- ------<br>------- --- ------ ----- --- ---- ------- -- ---- --- --<br>------- ------,246319.70000004768,246318.89999997616,246005.015,246018.79999995232,246021.534,246321.425,,31,value
screen,html.Screen,2_1_1_1_32,2022-02-17T10:56:58.101Z,,,,,,,,,,,,,,,,,54,,,,,,,,,,,,,,315.9749999761698,,response,,,,100,,,,,,,Space,keypress(Space),,,,,,,,-- --- ---- --- ------ ----- ------- ---- -- --- ------- --<br>------- ---------- ------ -- ----- -- ----- -- ---- ------<br>--- ----- --- --- ------ -------- ----- --- ------ ----- of<br>----- ----- ---------- --- --- ------ ------ ---- -- ------<br>------- --- ------ ----- --- ---- ------- -- ---- --- --<br>------- ------,246639.20000004768,246637.39999997616,246305.014,246319.79999995232,246321.425,246654.754,,32,of
screen,html.Screen,2_1_1_1_33,2022-02-17T10:56:58.397Z,,,,,,,,,,,,,,,,,54,,,,,,,,,,,,,,276.74600000001374,,response,,,,100,,,,,,,Space,keypress(Space),,,,,,,,-- --- ---- --- ------ ----- ------- ---- -- --- ------- --<br>------- ---------- ------ -- ----- -- ----- -- ---- ------<br>--- ----- --- --- ------ -------- ----- --- ------ ----- --<br>these ----- ---------- --- --- ------ ------ ---- -- ------<br>------- --- ------ ----- --- ---- ------- -- ---- --- --<br>------- ------,246935,246931.5,246638.102,246639.39999997616,246654.754,246937.955,,33,these
screen,html.Screen,2_1_1_1_34,2022-02-17T10:56:58.685Z,,,,,,,,,,,,,,,,,54,,,,,,,,,,,,,,283.3449999523291,,response,,,,100,,,,,,,Space,keypress(Space),,,,,,,,-- --- ---- --- ------ ----- ------- ---- -- --- ------- --<br>------- ---------- ------ -- ----- -- ----- -- ---- ------<br>--- ----- --- --- ------ -------- ----- --- ------ ----- --<br>----- bonds ---------- --- --- ------ ------ ---- -- ------<br>------- --- ------ ----- --- ---- ------- -- ---- --- --<br>------- ------,247222.89999997616,247221.29999995232,246921.523,246935.60000002384,246937.955,247237.891,,34,bonds
screen,html.Screen,2_1_1_1_35,2022-02-17T10:56:58.972Z,,,,,,,,,,,,,,,,,54,,,,,,,,,,,,,,270.908999952313,,response,,,,100,,,,,,,Space,keypress(Space),,,,,,,,"-- --- ---- --- ------ ----- ------- ---- -- --- ------- --<br>------- ---------- ------ -- ----- -- ----- -- ---- ------<br>--- ----- --- --- ------ -------- ----- --- ------ ----- --<br>----- ----- plummeted, --- --- ------ ------ ---- -- ------<br>------- --- ------ ----- --- ---- ------- -- ---- --- --<br>------- ------",247510,247508.79999995232,247221.459,247223.20000004768,247237.891,247521.418,,35,"plummeted,"
screen,html.Screen,2_1_1_1_36,2022-02-17T10:56:59.352Z,,,,,,,,,,,,,,,,,54,,,,,,,,,,,,,,366.88199995231116,,response,,,,100,,,,,,,Space,keypress(Space),,,,,,,,-- --- ---- --- ------ ----- ------- ---- -- --- ------- --<br>------- ---------- ------ -- ----- -- ----- -- ---- ------<br>--- ----- --- --- ------ -------- ----- --- ------ ----- --<br>----- ----- ---------- and --- ------ ------ ---- -- ------<br>------- --- ------ ----- --- ---- ------- -- ---- --- --<br>------- ------,247890.10000002384,247888.29999995232,247504.585,247510.29999995232,247521.418,247904.754,,36,and
screen,html.Screen,2_1_1_1_37,2022-02-17T10:56:59.672Z,,,,,,,,,,,,,,,,,54,,,,,,,,,,,,,,303.54599995233,,response,,,,100,,,,,,,Space,keypress(Space),,,,,,,,-- --- ---- --- ------ ----- ------- ---- -- --- ------- --<br>------- ---------- ------ -- ----- -- ----- -- ---- ------<br>--- ----- --- --- ------ -------- ----- --- ------ ----- --<br>----- ----- ---------- --- the ------ ------ ---- -- ------<br>------- --- ------ ----- --- ---- ------- -- ---- --- --<br>------- ------,248210,248208.29999995232,247887.982,247890.29999995232,247904.754,248221.011,,37,the
screen,html.Screen,2_1_1_1_38,2022-02-17T10:56:59.941Z,,,,,,,,,,,,,,,,,54,,,,,,,,,,,,,,241.9890000000014,,response,,,,100,,,,,,,Space,keypress(Space),,,,,,,,-- --- ---- --- ------ ----- ------- ---- -- --- ------- --<br>------- ---------- ------ -- ----- -- ----- -- ---- ------<br>--- ----- --- --- ------ -------- ----- --- ------ ----- --<br>----- ----- ---------- --- --- market ------ ---- -- ------<br>------- --- ------ ----- --- ---- ------- -- ---- --- --<br>------- ------,248479.20000004768,248463,248204.55,248210.20000004768,248221.011,248487.627,,38,market
screen,html.Screen,2_1_1_1_39,2022-02-17T10:57:00.231Z,,,,,,,,,,,,,,,,,54,,,,,,,,,,,,,,280.27299997615046,,response,,,,100,,,,,,,Space,keypress(Space),,,,,,,,-- --- ---- --- ------ ----- ------- ---- -- --- ------- --<br>------- ---------- ------ -- ----- -- ----- -- ---- ------<br>--- ----- --- --- ------ -------- ----- --- ------ ----- --<br>----- ----- ---------- --- --- ------ became ---- -- ------<br>------- --- ------ ----- --- ---- ------- -- ---- --- --<br>------- ------,248769.29999995232,248767.89999997616,248470.988,248479.20000004768,248487.627,248788.527,,39,became
screen,html.Screen,2_1_1_1_40,2022-02-17T10:57:00.512Z,,,,,,,,,,,,,,,,,54,,,,,,,,,,,,,,259.7729999523144,,response,,,,100,,,,,,,Space,keypress(Space),,,,,,,,-- --- ---- --- ------ ----- ------- ---- -- --- ------- --<br>------- ---------- ------ -- ----- -- ----- -- ---- ------<br>--- ----- --- --- ------ -------- ----- --- ------ ----- --<br>----- ----- ---------- --- --- ------ ------ wary -- ------<br>------- --- ------ ----- --- ---- ------- -- ---- --- --<br>------- ------,249050,249048.29999995232,248754.227,248769.5,248788.527,249054.138,,40,wary
screen,html.Screen,2_1_1_1_41,2022-02-17T10:57:00.829Z,,,,,,,,,,,,,,,,,54,,,,,,,,,,,,,,311.06200004767743,,response,,,,100,,,,,,,Space,keypress(Space),,,,,,,,-- --- ---- --- ------ ----- ------- ---- -- --- ------- --<br>------- ---------- ------ -- ----- -- ----- -- ---- ------<br>--- ----- --- --- ------ -------- ----- --- ------ ----- --<br>----- ----- ---------- --- --- ------ ------ ---- of ------<br>------- --- ------ ----- --- ---- ------- -- ---- --- --<br>------- ------,249366.60000002384,249365.20000004768,249037.48,249050.29999995232,249054.138,249370.747,,41,of
screen,html.Screen,2_1_1_1_42,2022-02-17T10:57:01.122Z,,,,,,,,,,,,,,,,,54,,,,,,,,,,,,,,288.1529999761551,,response,,,,100,,,,,,,Space,keypress(Space),,,,,,,,-- --- ---- --- ------ ----- ------- ---- -- --- ------- --<br>------- ---------- ------ -- ----- -- ----- -- ---- ------<br>--- ----- --- --- ------ -------- ----- --- ------ ----- --<br>----- ----- ---------- --- --- ------ ------ ---- -- French<br>------- --- ------ ----- --- ---- ------- -- ---- --- --<br>------- ------,249659.60000002384,249658.89999997616,249354.273,249366.70000004768,249370.747,249670.624,,42,French
screen,html.Screen,2_1_1_1_43,2022-02-17T10:57:01.451Z,,,,,,,,,,,,,,,,,54,,,,,,,,,,,,,,316.3759999999893,,response,,,,100,,,,,,,Space,keypress(Space),,,,,,,,-- --- ---- --- ------ ----- ------- ---- -- --- ------- --<br>------- ---------- ------ -- ----- -- ----- -- ---- ------<br>--- ----- --- --- ------ -------- ----- --- ------ ----- --<br>----- ----- ---------- --- --- ------ ------ ---- -- ------<br>credit. --- ------ ----- --- ---- ------- -- ---- --- --<br>------- ------,249989.10000002384,249987,249654.196,249659.70000004768,249670.624,250004.025,,43,credit.
screen,html.Screen,2_1_1_1_44,2022-02-17T10:57:01.784Z,,,,,,,,,,,,,,,,,54,,,,,,,,,,,,,,315.7749999523221,,response,,,,100,,,,,,,Space,keypress(Space),,,,,,,,-- --- ---- --- ------ ----- ------- ---- -- --- ------- --<br>------- ---------- ------ -- ----- -- ----- -- ---- ------<br>--- ----- --- --- ------ -------- ----- --- ------ ----- --<br>----- ----- ---------- --- --- ------ ------ ---- -- ------<br>------- The ------ ----- --- ---- ------- -- ---- --- --<br>------- ------,250321.60000002384,250319.79999995232,249987.255,249989.29999995232,250004.025,250337.21,,44,The
screen,html.Screen,2_1_1_1_45,2022-02-17T10:57:02.082Z,,,,,,,,,,,,,,,,,54,,,,,,,,,,,,,,281.6899999761663,,response,,,,100,,,,,,,Space,keypress(Space),,,,,,,,-- --- ---- --- ------ ----- ------- ---- -- --- ------- --<br>------- ---------- ------ -- ----- -- ----- -- ---- ------<br>--- ----- --- --- ------ -------- ----- --- ------ ----- --<br>----- ----- ---------- --- --- ------ ------ ---- -- ------<br>------- --- French ----- --- ---- ------- -- ---- --- --<br>------- ------,250620.29999995232,250618.89999997616,250320.727,250322,250337.21,250637.271,,45,French
screen,html.Screen,2_1_1_1_46,2022-02-17T10:57:02.377Z,,,,,,,,,,,,,,,,,54,,,,,,,,,,,,,,276.02899995230837,,response,,,,100,,,,,,,Space,keypress(Space),,,,,,,,-- --- ---- --- ------ ----- ------- ---- -- --- ------- --<br>------- ---------- ------ -- ----- -- ----- -- ---- ------<br>--- ----- --- --- ------ -------- ----- --- ------ ----- --<br>----- ----- ---------- --- --- ------ ------ ---- -- ------<br>------- --- ------ state --- ---- ------- -- ---- --- --<br>------- ------,250915.10000002384,250913.29999995232,250620.434,250620.60000002384,250637.271,250920.333,,46,state
screen,html.Screen,2_1_1_1_47,2022-02-17T10:57:02.713Z,,,,,,,,,,,,,,,,,54,,,,,,,,,,,,,,328.66699999998673,,response,,,,100,,,,,,,Space,keypress(Space),,,,,,,,-- --- ---- --- ------ ----- ------- ---- -- --- ------- --<br>------- ---------- ------ -- ----- -- ----- -- ---- ------<br>--- ----- --- --- ------ -------- ----- --- ------ ----- --<br>----- ----- ---------- --- --- ------ ------ ---- -- ------<br>------- --- ------ ----- was ---- ------- -- ---- --- --<br>------- ------,251250.60000002384,251249,250903.685,250916.5,250920.333,251253.612,,47,was
screen,html.Screen,2_1_1_1_48,2022-02-17T10:57:02.980Z,,,,,,,,,,,,,,,,,54,,,,,,,,,,,,,,262.58800004769,,response,,,,100,,,,,,,Space,keypress(Space),,,,,,,,-- --- ---- --- ------ ----- ------- ---- -- --- ------- --<br>------- ---------- ------ -- ----- -- ----- -- ---- ------<br>--- ----- --- --- ------ -------- ----- --- ------ ----- --<br>----- ----- ---------- --- --- ------ ------ ---- -- ------<br>------- --- ------ ----- --- left ------- -- ---- --- --<br>------- ------,251517.89999997616,251516.20000004768,251236.992,251250.89999997616,251253.612,251520.201,,48,left
screen,html.Screen,2_1_1_1_49,2022-02-17T10:57:03.260Z,,,,,,,,,,,,,,,,,54,,,,,,,,,,,,,,277.09899995231535,,response,,,,100,,,,,,,Space,keypress(Space),,,,,,,,-- --- ---- --- ------ ----- ------- ---- -- --- ------- --<br>------- ---------- ------ -- ----- -- ----- -- ---- ------<br>--- ----- --- --- ------ -------- ----- --- ------ ----- --<br>----- ----- ---------- --- --- ------ ------ ---- -- ------<br>------- --- ------ ----- --- ---- without -- ---- --- --<br>------- ------,251798.20000004768,251797.29999995232,251503.748,251518.10000002384,251520.201,251803.446,,49,without
screen,html.Screen,2_1_1_1_50,2022-02-17T10:57:03.628Z,,,,,,,,,,,,,,,,,54,,,,,,,,,,,,,,357.1540000238456,,response,,,,100,,,,,,,Space,keypress(Space),,,,,,,,-- --- ---- --- ------ ----- ------- ---- -- --- ------- --<br>------- ---------- ------ -- ----- -- ----- -- ---- ------<br>--- ----- --- --- ------ -------- ----- --- ------ ----- --<br>----- ----- ---------- --- --- ------ ------ ---- -- ------<br>------- --- ------ ----- --- ---- ------- an ---- --- --<br>------- ------,252165.60000002384,252160.60000002384,251786.921,251798.39999997616,251803.446,252170.023,,50,an
screen,html.Screen,2_1_1_1_51,2022-02-17T10:57:03.951Z,,,,,,,,,,,,,,,,,54,,,,,,,,,,,,,,317.37699997617165,,response,,,,100,,,,,,,Space,keypress(Space),,,,,,,,-- --- ---- --- ------ ----- ------- ---- -- --- ------- --<br>------- ---------- ------ -- ----- -- ----- -- ---- ------<br>--- ----- --- --- ------ -------- ----- --- ------ ----- --<br>----- ----- ---------- --- --- ------ ------ ---- -- ------<br>------- --- ------ ----- --- ---- ------- -- easy --- --<br>------- ------,252489.29999995232,252487.39999997616,252153.41,252165.79999995232,252170.023,252503.51,,51,easy
screen,html.Screen,2_1_1_1_52,2022-02-17T10:57:05.075Z,,,,,,,,,,,,,,,,,54,,,,,,,,,,,,,,1107.1900000476744,,response,,,,100,,,,,,,Space,keypress(Space),,,,,,,,-- --- ---- --- ------ ----- ------- ---- -- --- ------- --<br>------- ---------- ------ -- ----- -- ----- -- ---- ------<br>--- ----- --- --- ------ -------- ----- --- ------ ----- --<br>----- ----- ---------- --- --- ------ ------ ---- -- ------<br>------- --- ------ ----- --- ---- ------- -- ---- way --<br>------- ------,253612.5,253610.70000004768,252486.85,252489.60000002384,252503.51,253636.351,,52,way
screen,html.Screen,2_1_1_1_53,2022-02-17T10:57:05.499Z,,,,,,,,,,,,,,,,,54,,,,,,,,,,,,,,391.04899997616303,,response,,,,100,,,,,,,Space,keypress(Space),,,,,,,,-- --- ---- --- ------ ----- ------- ---- -- --- ------- --<br>------- ---------- ------ -- ----- -- ----- -- ---- ------<br>--- ----- --- --- ------ -------- ----- --- ------ ----- --<br>----- ----- ---------- --- --- ------ ------ ---- -- ------<br>------- --- ------ ----- --- ---- ------- -- ---- --- of<br>------- ------,254037.20000004768,254027.39999997616,253603.403,253612.70000004768,253636.351,254052.882,,53,of
screen,html.Screen,2_1_1_1_54,2022-02-17T10:57:05.864Z,,,,,,,,,,,,,,,,,54,,,,,,,,,,,,,,347.0179999761458,,response,,,,100,,,,,,,Space,keypress(Space),,,,,,,,-- --- ---- --- ------ ----- ------- ---- -- --- ------- --<br>------- ---------- ------ -- ----- -- ----- -- ---- ------<br>--- ----- --- --- ------ -------- ----- --- ------ ----- --<br>----- ----- ---------- --- --- ------ ------ ---- -- ------<br>------- --- ------ ----- --- ---- ------- -- ---- --- --<br>raising ------,254401.60000002384,254399.89999997616,254036.51,254037.39999997616,254052.882,254420.614,,54,raising
screen,html.Screen,2_1_1_1_55,2022-02-17T10:57:06.579Z,,,,,,,,,,,,,,,,,54,,,,,,,,,,,,,,694.5860000476823,,response,,,,100,,,,,,,Space,keypress(Space),,,,,,,,-- --- ---- --- ------ ----- ------- ---- -- --- ------- --<br>------- ---------- ------ -- ----- -- ----- -- ---- ------<br>--- ----- --- --- ------ -------- ----- --- ------ ----- --<br>----- ----- ---------- --- --- ------ ------ ---- -- ------<br>------- --- ------ ----- --- ---- ------- -- ---- --- --<br>------- money.,255116.39999997616,255115.20000004768,254386.203,254401.79999995232,254420.614,255119.321,,55,money.
Item 100,flow.Loop,2_1_1_1,2022-02-17T10:57:06.579Z,,,,,,,,,,,,,,,,,,,,,,,,,,,,,,,21907.119000047678,,completion,,,,,C,,,,,,,,,,,silence,,,,,255116.89999997616,255115.20000004768,233191.495,233193.20000004768,233208.081,255119.321,,,
Question 1,html.Screen,2_1_1_2,2022-02-17T10:57:11.317Z,,,,,,,,,,,,,,,,,,,,,,,,,,,,true,TRUE,,4733.47899995232,,response,,,,100,C,,,,,,TRUE,click #choice-1,,,,silence,,,,,259855.20000004768,259852.79999995232,255102.839,255117.10000002384,255119.321,259869.065,,,
Question 2,html.Screen,2_1_1_3,2022-02-17T10:57:15.862Z,,,,,,,,,,,,,,,,,,,,,,,,,,,,true,FALSE,,4528.734999952314,,response,,,,100,C,,,,,,FALSE,click #choice-2,,,,silence,,,,,264399.89999997616,264397.7999999523,259851.488,259855.39999997616,259869.065,264401.205,,,
Item 100,flow.Sequence,2_1_1,2022-02-17T10:57:15.862Z,,,,,,,,,,,,,,,,,,,,,,,,,,,,,,,41187.28799995233,,completion,,,,,,,,,,,,,,,,,,,,,264400.10000002384,264397.7999999523,223194.072,223200.29999995232,223210.512,264401.205,,,
End of Practice,html.Page,2_1_2,2022-02-17T10:57:20.706Z,,,,,,,,,,,,,,,,,,,,,,,,,,,,,,,4842.495000047667,,form submission,,,,,,,,,,,,,,,,,,,,,269244.10000002384,269243.7000000477,264383.797,264400.2000000477,264401.205,269249.252,,,
Practice,flow.Sequence,2_1,2022-02-17T10:57:20.706Z,,,,,,,,,,,,,,,,,,,,,,,,,,,,,,,96787.61100004768,,completion,,,,,,,,,,,,,,,,,,,,,269244.2999999523,269243.7000000477,172439.43,172448.89999997616,172456.089,269249.252,,,
Trap_instruction,html.Page,2_2_0,2022-02-17T10:57:26.390Z,,,,,,,,,,,,,,,,,,,,,,,,,,,,,,,5677.748000000021,,form submission,,,,,,,,,,,,,,,,,,,,,274927.7999999523,274927,269232.567,269244.60000002384,269249.252,275214.405,,,
trap_trial,html.Screen,2_2_1,2022-02-17T10:57:31.449Z,,,,,,,,,,,,,,,,,,,,,,,,,,,,true,1,,4723.695000023814,,response,,,,,,,,,,,1,click #choice-1,,,,,,,,,279987.2000000477,279938.10000002384,274914.504,274928,275214.405,279996.635,,,
end of trap trial,html.Page,2_2_2,2022-02-17T10:57:36.087Z,,,,,,,,,,,,,,,,,,,,,,,,,,,,,,,4627.864999999991,,form submission,,,,,,,,,,,,,,,,,,,,,284624.89999997616,284624.5,279980.089,279987.7000000477,279996.635,284629.31,,,
Trap 1,flow.Sequence,2_2,2022-02-17T10:57:36.087Z,,,,,,,,,,,,,,,,,,,,,,,,,,,,,,,15375.248000000021,,completion,,,,,,,,,,,,,,,,,,,,,284625,284624.5,269232.567,269244.60000002384,269249.252,284629.31,,,
Standby,html.Page,2_3_0,2022-02-17T10:57:44.074Z,,,,,,,,,,,,,,,,,,,,,,,,,,,,,,,7997.563000000024,,timeout,,,,,,,,,,,,,,,,,,,,,292611.39999997616,292610.34,284612.118,284625.2000000477,284629.31,292626.873,,,
Holding screen,html.Screen,2_3_1_0_0,2022-02-17T10:57:51.072Z,,,,,,,,,,,,,,,,,,,,,,,,,,,,,,,6998.26999999996,,timeout,,,,,,,,,,,,,,,,,,,,,299609.5,299608.559,292610.34,292611.7999999523,292626.873,299625.143,,,
screen,html.Screen,2_3_1_0_1_0,2022-02-17T10:57:52.236Z,,,,,,,,,,,,,,,,,15,,,,,,,,,,,,,,1146.8570000000182,,response,,,,7,C,,,,,,Space,keypress(Space),,,,instrumental,,,,Greg --------- ---------- - --- ------- -- --- ------------<br>----- -- -------- ------- ---- ------ - -------- ---- -----<br>--- ------- ---- -- --- -------- --- - ----- ------ ---- --<br>-------- --- -------- -------- --- -------- ---- -- ----- -<br>-------- ---- --- ---------- --------- -- ------- ------ -<br>--------- ----- -----,300773.7999999523,300772,299608.559,299609.89999997616,299625.143,300774.893,,0,Greg
screen,html.Screen,2_3_1_0_1_1,2022-02-17T10:57:52.606Z,,,,,,,,,,,,,,,,,15,,,,,,,,,,,,,,367.90699995233444,,response,,,,7,C,,,,,,Space,keypress(Space),,,,instrumental,,,,"---- Anderson, ---------- - --- ------- -- --- ------------<br>----- -- -------- ------- ---- ------ - -------- ---- -----<br>--- ------- ---- -- --- -------- --- - ----- ------ ---- --<br>-------- --- -------- -------- --- -------- ---- -- ----- -<br>-------- ---- --- ---------- --------- -- ------- ------ -<br>--------- ----- -----",301144.2000000477,301142.7999999523,300758.475,300774.10000002384,300774.893,301158.148,,1,"Anderson,"
screen,html.Screen,2_3_1_0_1_2,2022-02-17T10:57:52.937Z,,,,,,,,,,,,,,,,,15,,,,,,,,,,,,,,314.6519999523298,,response,,,,7,C,,,,,,Space,keypress(Space),,,,instrumental,,,,---- --------- considered - --- ------- -- --- ------------<br>----- -- -------- ------- ---- ------ - -------- ---- -----<br>--- ------- ---- -- --- -------- --- - ----- ------ ---- --<br>-------- --- -------- -------- --- -------- ---- -- ----- -<br>-------- ---- --- ---------- --------- -- ------- ------ -<br>--------- ----- -----,301474.60000002384,301472.7999999523,301141.504,301144.2999999523,301158.148,301492.833,,2,considered
screen,html.Screen,2_3_1_0_1_3,2022-02-17T10:57:53.318Z,,,,,,,,,,,,,,,,,15,,,,,,,,,,,,,,361.7670000238577,,response,,,,7,C,,,,,,Space,keypress(Space),,,,instrumental,,,,---- --------- ---------- a --- ------- -- --- ------------<br>----- -- -------- ------- ---- ------ - -------- ---- -----<br>--- ------- ---- -- --- -------- --- - ----- ------ ---- --<br>-------- --- -------- -------- --- -------- ---- -- ----- -<br>-------- ---- --- ---------- --------- -- ------- ------ -<br>--------- ----- -----,301856,301854.60000002384,301474.917,301474.7000000477,301492.833,301857.958,,3,a
screen,html.Screen,2_3_1_0_1_4,2022-02-17T10:57:53.586Z,,,,,,,,,,,,,,,,,15,,,,,,,,,,,,,,264.74200004769955,,response,,,,7,C,,,,,,Space,keypress(Space),,,,instrumental,,,,---- --------- ---------- - key ------- -- --- ------------<br>----- -- -------- ------- ---- ------ - -------- ---- -----<br>--- ------- ---- -- --- -------- --- - ----- ------ ---- --<br>-------- --- -------- -------- --- -------- ---- -- ----- -<br>-------- ---- --- ---------- --------- -- ------- ------ -<br>--------- ----- -----,302124.2999999523,302122.7000000477,301841.538,301856.2999999523,301857.958,302141.396,,4,key
screen,html.Screen,2_3_1_0_1_5,2022-02-17T10:57:53.824Z,,,,,,,,,,,,,,,,,15,,,,,,,,,,,,,,218.60399999999208,,response,,,,7,C,,,,,,Space,keypress(Space),,,,instrumental,,,,---- --------- ---------- - --- witness -- --- ------------<br>----- -- -------- ------- ---- ------ - -------- ---- -----<br>--- ------- ---- -- --- -------- --- - ----- ------ ---- --<br>-------- --- -------- -------- --- -------- ---- -- ----- -<br>-------- ---- --- ---------- --------- -- ------- ------ -<br>--------- ----- -----,302361.7999999523,302360,302124.75,302124.60000002384,302141.396,302374.558,,5,witness
screen,html.Screen,2_3_1_0_1_6,2022-02-17T10:57:54.157Z,,,,,,,,,,,,,,,,,15,,,,,,,,,,,,,,318.84199997613905,,response,,,,7,C,,,,,,Space,keypress(Space),,,,instrumental,,,,---- --------- ---------- - --- ------- by --- ------------<br>----- -- -------- ------- ---- ------ - -------- ---- -----<br>--- ------- ---- -- --- -------- --- - ----- ------ ---- --<br>-------- --- -------- -------- --- -------- ---- -- ----- -<br>-------- ---- --- ---------- --------- -- ------- ------ -<br>--------- ----- -----,302694.7000000477,302693.39999997616,302357.855,302362.10000002384,302374.558,302707.899,,6,by
screen,html.Screen,2_3_1_0_1_7,2022-02-17T10:57:54.434Z,,,,,,,,,,,,,,,,,15,,,,,,,,,,,,,,263.1010000000242,,response,,,,7,C,,,,,,Space,keypress(Space),,,,instrumental,,,,---- --------- ---------- - --- ------- -- the ------------<br>----- -- -------- ------- ---- ------ - -------- ---- -----<br>--- ------- ---- -- --- -------- --- - ----- ------ ---- --<br>-------- --- -------- -------- --- -------- ---- -- ----- -<br>-------- ---- --- ---------- --------- -- ------- ------ -<br>--------- ----- -----,302972.2999999523,302971,302691.143,302695,302707.899,302974.344,,7,the
screen,html.Screen,2_3_1_0_1_8,2022-02-17T10:57:54.779Z,,,,,,,,,,,,,,,,,15,,,,,,,,,,,,,,341.05599997617537,,response,,,,7,C,,,,,,Space,keypress(Space),,,,instrumental,,,,"---- --------- ---------- - --- ------- -- --- prosecution,<br>----- -- -------- ------- ---- ------ - -------- ---- -----<br>--- ------- ---- -- --- -------- --- - ----- ------ ---- --<br>-------- --- -------- -------- --- -------- ---- -- ----- -<br>-------- ---- --- ---------- --------- -- ------- ------ -<br>--------- ----- -----",303317.10000002384,303315.39999997616,302957.731,302972.60000002384,302974.344,303324.675,,8,"prosecution,"
screen,html.Screen,2_3_1_0_1_9,2022-02-17T10:57:55.237Z,,,,,,,,,,,,,,,,,15,,,,,,,,,,,,,,448.02500004769536,,response,,,,7,C,,,,,,Space,keypress(Space),,,,instrumental,,,,---- --------- ---------- - --- ------- -- --- ------------<br>vowed -- -------- ------- ---- ------ - -------- ---- -----<br>--- ------- ---- -- --- -------- --- - ----- ------ ---- --<br>-------- --- -------- -------- --- -------- ---- -- ----- -<br>-------- ---- --- ---------- --------- -- ------- ------ -<br>--------- ----- -----,303774.39999997616,303772.7000000477,303307.673,303318.10000002384,303324.675,303791.096,,9,vowed
screen,html.Screen,2_3_1_0_1_10,2022-02-17T10:57:55.526Z,,,,,,,,,,,,,,,,,15,,,,,,,,,,,,,,271.40399999998044,,response,,,,7,C,,,,,,Space,keypress(Space),,,,instrumental,,,,---- --------- ---------- - --- ------- -- --- ------------<br>----- he -------- ------- ---- ------ - -------- ---- -----<br>--- ------- ---- -- --- -------- --- - ----- ------ ---- --<br>-------- --- -------- -------- --- -------- ---- -- ----- -<br>-------- ---- --- ---------- --------- -- ------- ------ -<br>--------- ----- -----,304063.89999997616,304062.5,303774.235,303774.7000000477,303791.096,304074.213,,10,he
screen,html.Screen,2_3_1_0_1_11,2022-02-17T10:57:55.734Z,,,,,,,,,,,,,,,,,15,,,,,,,,,,,,,,196.08699995232746,,response,,,,7,C,,,,,,Space,keypress(Space),,,,instrumental,,,,---- --------- ---------- - --- ------- -- --- ------------<br>----- -- wouldn't ------- ---- ------ - -------- ---- -----<br>--- ------- ---- -- --- -------- --- - ----- ------ ---- --<br>-------- --- -------- -------- --- -------- ---- -- ----- -<br>-------- ---- --- ---------- --------- -- ------- ------ -<br>--------- ----- -----,304272,304270.2999999523,304057.644,304064.2000000477,304074.213,304291.06,,11,wouldn't
screen,html.Screen,2_3_1_0_1_12,2022-02-17T10:57:56.069Z,,,,,,,,,,,,,,,,,15,,,,,,,,,,,,,,312.64000004768604,,response,,,,7,C,,,,,,Space,keypress(Space),,,,instrumental,,,,---- --------- ---------- - --- ------- -- --- ------------<br>----- -- -------- testify ---- ------ - -------- ---- -----<br>--- ------- ---- -- --- -------- --- - ----- ------ ---- --<br>-------- --- -------- -------- --- -------- ---- -- ----- -<br>-------- ---- --- ---------- --------- -- ------- ------ -<br>--------- ----- -----,304607.2000000477,304603.7000000477,304257.469,304272.2000000477,304291.06,304624.218,,12,testify
screen,html.Screen,2_3_1_0_1_13,2022-02-17T10:57:56.372Z,,,,,,,,,,,,,,,,,15,,,,,,,,,,,,,,284.18199997616466,,response,,,,7,C,,,,,,Space,keypress(Space),,,,instrumental,,,,---- --------- ---------- - --- ------- -- --- ------------<br>----- -- -------- ------- when ------ - -------- ---- -----<br>--- ------- ---- -- --- -------- --- - ----- ------ ---- --<br>-------- --- -------- -------- --- -------- ---- -- ----- -<br>-------- ---- --- ---------- --------- -- ------- ------ -<br>--------- ----- -----,304909.7000000477,304908.39999997616,304607.488,304608.2999999523,304624.218,304924.05,,13,when
screen,html.Screen,2_3_1_0_1_14,2022-02-17T10:57:56.698Z,,,,,,,,,,,,,,,,,15,,,,,,,,,,,,,,311.0500000238535,,response,,,,7,C,,,,,,Space,keypress(Space),,,,instrumental,,,,---- --------- ---------- - --- ------- -- --- ------------<br>----- -- -------- ------- ---- served - -------- ---- -----<br>--- ------- ---- -- --- -------- --- - ----- ------ ---- --<br>-------- --- -------- -------- --- -------- ---- -- ----- -<br>-------- ---- --- ---------- --------- -- ------- ------ -<br>--------- ----- -----,305236.2000000477,305235.10000002384,304907.653,304909.89999997616,304924.05,305240.414,,14,served
screen,html.Screen,2_3_1_0_1_15,2022-02-17T10:57:56.985Z,,,,,,,,,,,,,,,,,15,,,,,,,,,,,,,,281.08600000001024,,response,,,,7,C,,,,,,Space,keypress(Space),,,,instrumental,,,,---- --------- ---------- - --- ------- -- --- ------------<br>----- -- -------- ------- ---- ------ a -------- ---- -----<br>--- ------- ---- -- --- -------- --- - ----- ------ ---- --<br>-------- --- -------- -------- --- -------- ---- -- ----- -<br>-------- ---- --- ---------- --------- -- ------- ------ -<br>--------- ----- -----,305522.5,305521.5,305224.039,305236.39999997616,305240.414,305540.732,,15,a
screen,html.Screen,2_3_1_0_1_16,2022-02-17T10:57:57.310Z,,,,,,,,,,,,,,,,,15,,,,,,,,,,,,,,278.0679999522981,,response,,,,7,C,,,,,,Space,keypress(Space),,,,instrumental,,,,---- --------- ---------- - --- ------- -- --- ------------<br>----- -- -------- ------- ---- ------ - subpoena ---- -----<br>--- ------- ---- -- --- -------- --- - ----- ------ ---- --<br>-------- --- -------- -------- --- -------- ---- -- ----- -<br>-------- ---- --- ---------- --------- -- ------- ------ -<br>--------- ----- -----,305848,305818.7999999523,305507.093,305522.60000002384,305540.732,305856.943,,16,subpoena
screen,html.Screen,2_3_1_0_1_17,2022-02-17T10:57:57.641Z,,,,,,,,,,,,,,,,,15,,,,,,,,,,,,,,319.65700002381345,,response,,,,7,C,,,,,,Space,keypress(Space),,,,instrumental,,,,---- --------- ---------- - --- ------- -- --- ------------<br>----- -- -------- ------- ---- ------ - -------- last -----<br>--- ------- ---- -- --- -------- --- - ----- ------ ---- --<br>-------- --- -------- -------- --- -------- ---- -- ----- -<br>-------- ---- --- ---------- --------- -- ------- ------ -<br>--------- ----- -----,306179.10000002384,306176.60000002384,305840.519,305848.10000002384,305856.943,306190.317,,17,last
screen,html.Screen,2_3_1_0_1_18,2022-02-17T10:57:58.284Z,,,,,,,,,,,,,,,,,15,,,,,,,,,,,,,,630.1830000000191,,response,,,,7,C,,,,,,Space,keypress(Space),,,,instrumental,,,,---- --------- ---------- - --- ------- -- --- ------------<br>----- -- -------- ------- ---- ------ - -------- ---- week.<br>--- ------- ---- -- --- -------- --- - ----- ------ ---- --<br>-------- --- -------- -------- --- -------- ---- -- ----- -<br>-------- ---- --- ---------- --------- -- ------- ------ -<br>--------- ----- -----,306822,306820.5,306173.829,306179.39999997616,306190.317,306840.453,,18,week.
screen,html.Screen,2_3_1_0_1_19,2022-02-17T10:57:58.697Z,,,,,,,,,,,,,,,,,15,,,,,,,,,,,,,,392.7470000477042,,response,,,,7,C,,,,,,Space,keypress(Space),,,,instrumental,,,,---- --------- ---------- - --- ------- -- --- ------------<br>----- -- -------- ------- ---- ------ - -------- ---- -----<br>His ------- ---- -- --- -------- --- - ----- ------ ---- --<br>-------- --- -------- -------- --- -------- ---- -- ----- -<br>-------- ---- --- ---------- --------- -- ------- ------ -<br>--------- ----- -----,307235,307233.2000000477,306807.043,306822.2000000477,306840.453,307239.948,,19,His
screen,html.Screen,2_3_1_0_1_20,2022-02-17T10:57:58.994Z,,,,,,,,,,,,,,,,,15,,,,,,,,,,,,,,291.25200004770886,,response,,,,7,C,,,,,,Space,keypress(Space),,,,instrumental,,,,---- --------- ---------- - --- ------- -- --- ------------<br>----- -- -------- ------- ---- ------ - -------- ---- -----<br>--- lawyers ---- -- --- -------- --- - ----- ------ ---- --<br>-------- --- -------- -------- --- -------- ---- -- ----- -<br>-------- ---- --- ---------- --------- -- ------- ------ -<br>--------- ----- -----,307532.10000002384,307531.2000000477,307223.531,307235.2999999523,307239.948,307539.853,,20,lawyers
screen,html.Screen,2_3_1_0_1_21,2022-02-17T10:57:59.298Z,,,,,,,,,,,,,,,,,15,,,,,,,,,,,,,,294.24700002383906,,response,,,,7,C,,,,,,Space,keypress(Space),,,,instrumental,,,,---- --------- ---------- - --- ------- -- --- ------------<br>----- -- -------- ------- ---- ------ - -------- ---- -----<br>--- ------- said -- --- -------- --- - ----- ------ ---- --<br>-------- --- -------- -------- --- -------- ---- -- ----- -<br>-------- ---- --- ---------- --------- -- ------- ------ -<br>--------- ----- -----,307835.7999999523,307834.10000002384,307523.437,307532.2000000477,307539.853,307839.818,,21,said
screen,html.Screen,2_3_1_0_1_22,2022-02-17T10:57:59.576Z,,,,,,,,,,,,,,,,,15,,,,,,,,,,,,,,273.4819999522879,,response,,,,7,C,,,,,,Space,keypress(Space),,,,instrumental,,,,---- --------- ---------- - --- ------- -- --- ------------<br>----- -- -------- ------- ---- ------ - -------- ---- -----<br>--- ------- ---- he --- -------- --- - ----- ------ ---- --<br>-------- --- -------- -------- --- -------- ---- -- ----- -<br>-------- ---- --- ---------- --------- -- ------- ------ -<br>--------- ----- -----,308114.39999997616,308113.2999999523,307823.382,307835.89999997616,307839.818,308123.07,,22,he
screen,html.Screen,2_3_1_0_1_23,2022-02-17T10:57:59.842Z,,,,,,,,,,,,,,,,,15,,,,,,,,,,,,,,255.42999999999302,,response,,,,7,C,,,,,,Space,keypress(Space),,,,instrumental,,,,---- --------- ---------- - --- ------- -- --- ------------<br>----- -- -------- ------- ---- ------ - -------- ---- -----<br>--- ------- ---- -- was -------- --- - ----- ------ ---- --<br>-------- --- -------- -------- --- -------- ---- -- ----- -<br>-------- ---- --- ---------- --------- -- ------- ------ -<br>--------- ----- -----,308380,308378.5,308106.723,308114.5,308123.07,308389.894,,23,was
screen,html.Screen,2_3_1_0_1_24,2022-02-17T10:58:00.058Z,,,,,,,,,,,,,,,,,15,,,,,,,,,,,,,,204.70600002387073,,response,,,,7,C,,,,,,Space,keypress(Space),,,,instrumental,,,,---- --------- ---------- - --- ------- -- --- ------------<br>----- -- -------- ------- ---- ------ - -------- ---- -----<br>--- ------- ---- -- --- prepared --- - ----- ------ ---- --<br>-------- --- -------- -------- --- -------- ---- -- ----- -<br>-------- ---- --- ---------- --------- -- ------- ------ -<br>--------- ----- -----,308595.60000002384,308594.60000002384,308373.254,308380.2000000477,308389.894,308606.279,,24,prepared
screen,html.Screen,2_3_1_0_1_25,2022-02-17T10:58:00.417Z,,,,,,,,,,,,,,,,,15,,,,,,,,,,,,,,347.1209999761777,,response,,,,7,C,,,,,,Space,keypress(Space),,,,instrumental,,,,---- --------- ---------- - --- ------- -- --- ------------<br>----- -- -------- ------- ---- ------ - -------- ---- -----<br>--- ------- ---- -- --- -------- for - ----- ------ ---- --<br>-------- --- -------- -------- --- -------- ---- -- ----- -<br>-------- ---- --- ---------- --------- -- ------- ------ -<br>--------- ----- -----,308954.89999997616,308953.39999997616,308589.699,308595.7999999523,308606.279,308973.845,,25,for
screen,html.Screen,2_3_1_0_1_26,2022-02-17T10:58:00.692Z,,,,,,,,,,,,,,,,,15,,,,,,,,,,,,,,220.35500004771166,,response,,,,7,C,,,,,,Space,keypress(Space),,,,instrumental,,,,---- --------- ---------- - --- ------- -- --- ------------<br>----- -- -------- ------- ---- ------ - -------- ---- -----<br>--- ------- ---- -- --- -------- --- a ----- ------ ---- --<br>-------- --- -------- -------- --- -------- ---- -- ----- -<br>-------- ---- --- ---------- --------- -- ------- ------ -<br>--------- ----- -----,309229.7999999523,309194.2000000477,308939.766,308955.10000002384,308973.845,309239.454,,26,a
screen,html.Screen,2_3_1_0_1_27,2022-02-17T10:58:00.924Z,,,,,,,,,,,,,,,,,15,,,,,,,,,,,,,,220.94599997613113,,response,,,,7,C,,,,,,Space,keypress(Space),,,,instrumental,,,,---- --------- ---------- - --- ------- -- --- ------------<br>----- -- -------- ------- ---- ------ - -------- ---- -----<br>--- ------- ---- -- --- -------- --- - third ------ ---- --<br>-------- --- -------- -------- --- -------- ---- -- ----- -<br>-------- ---- --- ---------- --------- -- ------- ------ -<br>--------- ----- -----,309462.2000000477,309460.39999997616,309223.036,309229.89999997616,309239.454,309472.763,,27,third
screen,html.Screen,2_3_1_0_1_28,2022-02-17T10:58:01.304Z,,,,,,,,,,,,,,,,,15,,,,,,,,,,,,,,367.2370000000228,,response,,,,7,C,,,,,,Space,keypress(Space),,,,instrumental,,,,---- --------- ---------- - --- ------- -- --- ------------<br>----- -- -------- ------- ---- ------ - -------- ---- -----<br>--- ------- ---- -- --- -------- --- - ----- prison ---- --<br>-------- --- -------- -------- --- -------- ---- -- ----- -<br>-------- ---- --- ---------- --------- -- ------- ------ -<br>--------- ----- -----,309841.60000002384,309840,309456.112,309462.39999997616,309472.763,309856.276,,28,prison
screen,html.Screen,2_3_1_0_1_29,2022-02-17T10:58:01.610Z,,,,,,,,,,,,,,,,,15,,,,,,,,,,,,,,289.7239999999874,,response,,,,7,C,,,,,,Space,keypress(Space),,,,instrumental,,,,---- --------- ---------- - --- ------- -- --- ------------<br>----- -- -------- ------- ---- ------ - -------- ---- -----<br>--- ------- ---- -- --- -------- --- - ----- ------ stay --<br>-------- --- -------- -------- --- -------- ---- -- ----- -<br>-------- ---- --- ---------- --------- -- ------- ------ -<br>--------- ----- -----,310147.5,310146,309839.554,309841.89999997616,309856.276,310155.935,,29,stay
screen,html.Screen,2_3_1_0_1_30,2022-02-17T10:58:02.055Z,,,,,,,,,,,,,,,,,15,,,,,,,,,,,,,,435.3649999523186,,response,,,,7,C,,,,,,Space,keypress(Space),,,,instrumental,,,,---- --------- ---------- - --- ------- -- --- ------------<br>----- -- -------- ------- ---- ------ - -------- ---- -----<br>--- ------- ---- -- --- -------- --- - ----- ------ ---- to<br>-------- --- -------- -------- --- -------- ---- -- ----- -<br>-------- ---- --- ---------- --------- -- ------- ------ -<br>--------- ----- -----,310593,310591.2999999523,310139.541,310147.89999997616,310155.935,310605.815,,30,to
screen,html.Screen,2_3_1_0_1_31,2022-02-17T10:58:02.400Z,,,,,,,,,,,,,,,,,15,,,,,,,,,,,,,,330.6849999999977,,response,,,,7,C,,,,,,Space,keypress(Space),,,,instrumental,,,,---- --------- ---------- - --- ------- -- --- ------------<br>----- -- -------- ------- ---- ------ - -------- ---- -----<br>--- ------- ---- -- --- -------- --- - ----- ------ ---- --<br>maintain --- -------- -------- --- -------- ---- -- ----- -<br>-------- ---- --- ---------- --------- -- ------- ------ -<br>--------- ----- -----,310937.7999999523,310936.5,310589.424,310593.2000000477,310605.815,310956.388,,31,maintain
screen,html.Screen,2_3_1_0_1_32,2022-02-17T10:58:02.615Z,,,,,,,,,,,,,,,,,15,,,,,,,,,,,,,,194.61200000002282,,response,,,,7,C,,,,,,Space,keypress(Space),,,,instrumental,,,,---- --------- ---------- - --- ------- -- --- ------------<br>----- -- -------- ------- ---- ------ - -------- ---- -----<br>--- ------- ---- -- --- -------- --- - ----- ------ ---- --<br>-------- his -------- -------- --- -------- ---- -- ----- -<br>-------- ---- --- ---------- --------- -- ------- ------ -<br>--------- ----- -----,311152.7000000477,311151,310922.645,310938,310956.388,311155.674,,32,his
screen,html.Screen,2_3_1_0_1_33,2022-02-17T10:58:02.952Z,,,,,,,,,,,,,,,,,15,,,,,,,,,,,,,,296.6259999523172,,response,,,,7,C,,,,,,Space,keypress(Space),,,,instrumental,,,,---- --------- ---------- - --- ------- -- --- ------------<br>----- -- -------- ------- ---- ------ - -------- ---- -----<br>--- ------- ---- -- --- -------- --- - ----- ------ ---- --<br>-------- --- silence. -------- --- -------- ---- -- ----- -<br>-------- ---- --- ---------- --------- -- ------- ------ -<br>--------- ----- -----,311489.60000002384,311452.2999999523,311139.216,311152.89999997616,311155.674,311505.596,,33,silence.
screen,html.Screen,2_3_1_0_1_34,2022-02-17T10:58:03.204Z,,,,,,,,,,,,,,,,,15,,,,,,,,,,,,,,234.70399995229673,,response,,,,7,C,,,,,,Space,keypress(Space),,,,instrumental,,,,---- --------- ---------- - --- ------- -- --- ------------<br>----- -- -------- ------- ---- ------ - -------- ---- -----<br>--- ------- ---- -- --- -------- --- - ----- ------ ---- --<br>-------- --- -------- Anderson --- -------- ---- -- ----- -<br>-------- ---- --- ---------- --------- -- ------- ------ -<br>--------- ----- -----,311742,311740.2999999523,311489.173,311489.7999999523,311505.596,311755.685,,34,Anderson
screen,html.Screen,2_3_1_0_1_35,2022-02-17T10:58:03.562Z,,,,,,,,,,,,,,,,,15,,,,,,,,,,,,,,341.3150000000023,,response,,,,7,C,,,,,,Space,keypress(Space),,,,instrumental,,,,---- --------- ---------- - --- ------- -- --- ------------<br>----- -- -------- ------- ---- ------ - -------- ---- -----<br>--- ------- ---- -- --- -------- --- - ----- ------ ---- --<br>-------- --- -------- -------- was -------- ---- -- ----- -<br>-------- ---- --- ---------- --------- -- ------- ------ -<br>--------- ----- -----,312099.39999997616,312097,311738.876,311742.2999999523,311755.685,312106.001,,35,was
screen,html.Screen,2_3_1_0_1_36,2022-02-17T10:58:03.868Z,,,,,,,,,,,,,,,,,15,,,,,,,,,,,,,,298.59900002385257,,response,,,,7,C,,,,,,Space,keypress(Space),,,,instrumental,,,,---- --------- ---------- - --- ------- -- --- ------------<br>----- -- -------- ------- ---- ------ - -------- ---- -----<br>--- ------- ---- -- --- -------- --- - ----- ------ ---- --<br>-------- --- -------- -------- --- released ---- -- ----- -<br>-------- ---- --- ---------- --------- -- ------- ------ -<br>--------- ----- -----,312405.89999997616,312404.60000002384,312088.999,312099.7000000477,312106.001,312422.218,,36,released
screen,html.Screen,2_3_1_0_1_37,2022-02-17T10:58:04.079Z,,,,,,,,,,,,,,,,,15,,,,,,,,,,,,,,180.48200004769024,,response,,,,7,C,,,,,,Space,keypress(Space),,,,instrumental,,,,---- --------- ---------- - --- ------- -- --- ------------<br>----- -- -------- ------- ---- ------ - -------- ---- -----<br>--- ------- ---- -- --- -------- --- - ----- ------ ---- --<br>-------- --- -------- -------- --- -------- July -- ----- -<br>-------- ---- --- ---------- --------- -- ------- ------ -<br>--------- ----- -----,312616.60000002384,312602.7000000477,312405.435,312406.10000002384,312422.218,312621.939,,37,July
screen,html.Screen,2_3_1_0_1_38,2022-02-17T10:58:04.388Z,,,,,,,,,,,,,,,,,15,,,,,,,,,,,,,,303.1610000238288,,response,,,,7,C,,,,,,Space,keypress(Space),,,,instrumental,,,,---- --------- ---------- - --- ------- -- --- ------------<br>----- -- -------- ------- ---- ------ - -------- ---- -----<br>--- ------- ---- -- --- -------- --- - ----- ------ ---- --<br>-------- --- -------- -------- --- -------- ---- 20 ----- -<br>-------- ---- --- ---------- --------- -- ------- ------ -<br>--------- ----- -----,312926.2000000477,312925.10000002384,312605.523,312616.7999999523,312621.939,312938.779,,38,20
screen,html.Screen,2_3_1_0_1_39,2022-02-17T10:58:05.373Z,,,,,,,,,,,,,,,,,15,,,,,,,,,,,,,,971.0209999523358,,response,,,,7,C,,,,,,Space,keypress(Space),,,,instrumental,,,,---- --------- ---------- - --- ------- -- --- ------------<br>----- -- -------- ------- ---- ------ - -------- ---- -----<br>--- ------- ---- -- --- -------- --- - ----- ------ ---- --<br>-------- --- -------- -------- --- -------- ---- -- after -<br>-------- ---- --- ---------- --------- -- ------- ------ -<br>--------- ----- -----,313910.7999999523,313909.7999999523,312921.94,312926.2999999523,312938.779,313921.699,,39,after
screen,html.Screen,2_3_1_0_1_40,2022-02-17T10:58:05.864Z,,,,,,,,,,,,,,,,,15,,,,,,,,,,,,,,478.4010000238195,,response,,,,7,C,,,,,,Space,keypress(Space),,,,instrumental,,,,---- --------- ---------- - --- ------- -- --- ------------<br>----- -- -------- ------- ---- ------ - -------- ---- -----<br>--- ------- ---- -- --- -------- --- - ----- ------ ---- --<br>-------- --- -------- -------- --- -------- ---- -- ----- a<br>-------- ---- --- ---------- --------- -- ------- ------ -<br>--------- ----- -----,314401.89999997616,314400.10000002384,313905.404,313911,313921.699,314404.896,,40,a
