sender,sender_type,sender_id,timestamp,meta,,Blues,Classical,Country,Dance,Electronic,Folk,Gospel,Hip-Hop,Jazz,Latin,Musical/Film,New-age,Pop,Prolific_id,Provo_ID,R&B,Rap,Reggae,Religious,Rock,Soul,Swing,Traditional,age,artist_name,correct,correctResponse,distraction,duration,education,ended_on,familiarity,gender,headphone_check_performance,item,list,music_frequency,offensiveness,pleasantness,position_correct,preference,response,response_action,snippet_file,song_name,song_rating,sound,stimulus_1,stimulus_2,stimulus_3,text,time_commit,time_end,time_render,time_run,time_show,time_switch,url,word,word_ID
Prolific ID,html.Form,0,2022-02-03T14:22:47.728Z,"{""labjs_version"":""20.2.2"",""labjs_build"":{""flavor"":""production"",""commit"":""a25486e0c714a0ae2ce03ff94b7bb6896854dcfa""},""location"":""https://run.pavlovia.org/mvasilev/prolific2_music_a/"",""userAgent"":""Mozilla/5.0 (Macintosh; Intel Mac OS X 10_15_7) AppleWebKit/537.36 (KHTML, like Gecko) Chrome/97.0.4692.99 Safari/537.36"",""platform"":""MacIntel"",""language"":""en-GB"",""locale"":""en-GB"",""timeZone"":""Europe/London"",""timezoneOffset"":0,""screen_width"":1440,""screen_height"":900,""scroll_width"":1440,""scroll_height"":740,""window_innerWidth"":1440,""window_innerHeight"":788,""devicePixelRatio"":1}",,,,,,,,,,,,,,,5dc97b86f375a969573c2c7a,,,,,,,,,,,,,,,5419.803000005961,,form submission,,,,,,,,,,,,,,,,,,,,,15054.299999982119,15053.40000000596,9600.263,9601.299999982119,9633.597,15050.879,{},,
Introduction,html.Screen,1_0,2022-02-03T14:23:08.880Z,,,,,,,,,,,,,,,,,,,,,,,,,,,,,,,21148.420999982118,,response,,,,,,,,,,,continue,click button,,,,,,,,,36206.09999999404,36199.29999998212,15034.212,15055.299999982119,15050.879,36218.808,,,
Volume calibration,html.Screen,1_1,2022-02-03T14:24:07.555Z,,,,,,,,,,,,,,,,,,,,,,,,,,,,,,,58643.29199999404,,response,,,,,,,,,,,continue,click button,,,,,,,,,94879.90000000596,94862.09999999404,36202.141,36206.40000000596,36218.808,94871.464,,,
Task instructions,html.Screen,1_2,2022-02-03T14:25:10.868Z,,,,,,,,,,,,,,,,,,,,,,,,,,,,,,,63256.83599998211,,response,,,,,,,,,,,continue,click button,,,,,,,,,158191,158128.29999998212,94854.797,94880.79999998212,94871.464,158307.914,,,
Sounds,html.Screen,1_3_0_0,2022-02-03T14:25:15.239Z,,,,,,,,,,,,,,,,,,,,,,,,,,,,,,,4286.545000000013,,timeout,,,,,,,,,1,,,,,,,,S,O,I,,162561.79999998212,162544.458,158091.243,158202.19999998808,158307.914,162594.459,,,
Judgement,html.Screen,1_3_0_1,2022-02-03T14:25:17.183Z,,,,,,,,,,,,,,,,,,,,,,,,,,,,true,1,,1908.441000005958,,response,,,,,,,,,1,,1,click #choice-1,,,,,S,O,I,,164506.5,164502.90000000596,162544.458,162563.09999999404,162594.459,164511.164,,,
Trial,flow.Sequence,1_3_0,2022-02-03T14:25:17.184Z,,,,,,,,,,,,,,,,,,,,,,,,,,,,,,,6194.986000005971,,completion,,,,,,,,,1,,,,,,,,S,O,I,,164507.19999998808,164502.90000000596,158091.243,158202.09999999404,158307.914,164511.164,,,
Sounds,html.Screen,1_3_1_0,2022-02-03T14:25:21.423Z,,,,,,,,,,,,,,,,,,,,,,,,,,,,,,,4250.085000000021,,timeout,,,,,,,,,2,,,,,,,,O,S,I,,168746.29999998212,168744.582,164494.497,164508.19999998808,164511.164,168761.249,,,
Judgement,html.Screen,1_3_1_1,2022-02-03T14:25:22.386Z,,,,,,,,,,,,,,,,,,,,,,,,,,,,true,2,,944.0509999821079,,response,,,,,,,,,2,,2,click #choice-2,,,,,O,S,I,,169709,169705.29999998212,168744.582,168746.59999999404,168761.249,169711.268,,,
Trial,flow.Sequence,1_3_1,2022-02-03T14:25:22.387Z,,,,,,,,,,,,,,,,,,,,,,,,,,,,,,,5194.135999982129,,completion,,,,,,,,,2,,,,,,,,O,S,I,,169710.29999998212,169705.29999998212,164494.497,164507.40000000596,164511.164,169711.268,,,
Sounds,html.Screen,1_3_2_0,2022-02-03T14:25:26.625Z,,,,,,,,,,,,,,,,,,,,,,,,,,,,,,,4250.609999999986,,timeout,,,,,,,,,1,,,,,,,,S,I,O,,173947.90000000596,173945.211,169694.601,169710.90000000596,169711.268,173961.878,,,
Judgement,html.Screen,1_3_2_1,2022-02-03T14:25:47.940Z,,,,,,,,,,,,,,,,,,,,,,,,,,,,true,1,,21296.221999994043,,response,,,,,,,,,1,,1,click #choice-1,,,,,S,I,O,,195262.90000000596,195258.09999999404,173945.211,173948.09999999404,173961.878,195278.971,,,
Trial,flow.Sequence,1_3_2,2022-02-03T14:25:47.941Z,,,,,,,,,,,,,,,,,,,,,,,,,,,,,,,25546.83199999403,,completion,,,,,,,,,1,,,,,,,,S,I,O,,195263.5,195258.09999999404,169694.601,169710.59999999404,169711.268,195278.971,,,
Sounds,html.Screen,1_3_3_0,2022-02-03T14:25:52.194Z,,,,,,,,,,,,,,,,,,,,,,,,,,,,,,,4251.411000000022,,timeout,,,,,,,,,3,,,,,,,,I,O,S,,199516,199513.715,195262.304,195264.09999999404,195278.971,199530.382,,,
Judgement,html.Screen,1_3_3_1,2022-02-03T14:25:52.854Z,,,,,,,,,,,,,,,,,,,,,,,,,,,,true,3,,642.6179999999877,,response,,,,,,,,,3,,3,click #choice-3,,,,,I,O,S,,200176.90000000596,200173,199513.715,199516.19999998808,199530.382,200180.395,,,
Trial,flow.Sequence,1_3_3,2022-02-03T14:25:52.855Z,,,,,,,,,,,,,,,,,,,,,,,,,,,,,,,4894.02900000001,,completion,,,,,,,,,3,,,,,,,,I,O,S,,200177.29999998212,200173,195262.304,195263.90000000596,195278.971,200180.395,,,
Sounds,html.Screen,1_3_4_0,2022-02-03T14:25:57.093Z,,,,,,,,,,,,,,,,,,,,,,,,,,,,,,,4250.085000000021,,timeout,,,,,,,,,2,,,,,,,,I,S,O,,204415.79999998212,204413.813,200163.728,200177.59999999404,200180.395,204430.48,,,
Judgement,html.Screen,1_3_4_1,2022-02-03T14:25:57.874Z,,,,,,,,,,,,,,,,,,,,,,,,,,,,true,2,,762.42000000595,,response,,,,,,,,,2,,2,click #choice-2,,,,,I,S,O,,205196.19999998808,205192.90000000596,204413.813,204416.09999999404,204430.48,205197.162,,,
Trial,flow.Sequence,1_3_4,2022-02-03T14:25:57.874Z,,,,,,,,,,,,,,,,,,,,,,,,,,,,,,,5012.505000005971,,completion,,,,,,,,,2,,,,,,,,I,S,O,,205196.5,205192.90000000596,200163.728,200177.40000000596,200180.395,205197.162,,,
Sounds,html.Screen,1_3_5_0,2022-02-03T14:26:02.110Z,,,,,,,,,,,,,,,,,,,,,,,,,,,,,,,4250.084999999992,,timeout,,,,,,,,,3,,,,,,,,O,I,S,,209432.40000000596,209430.58,205180.495,205196.90000000596,205197.162,209447.247,,,
Judgement,html.Screen,1_3_5_1,2022-02-03T14:26:02.684Z,,,,,,,,,,,,,,,,,,,,,,,,,,,,true,3,,555.452999988076,,response,,,,,,,,,3,,3,click #choice-3,,,,,O,I,S,,210006.5,210002.69999998808,209430.58,209432.69999998808,209447.247,210064.621,,,
Trial,flow.Sequence,1_3_5,2022-02-03T14:26:02.685Z,,,,,,,,,,,,,,,,,,,,,,,,,,,,,,,4805.537999988068,,completion,,,,,,,,,3,,,,,,,,O,I,S,,210006.79999998212,210002.69999998808,205180.495,205196.69999998808,205197.162,210064.621,,,
Task,flow.Loop,1_3,2022-02-03T14:26:02.700Z,,,,,,,,,,,,,,,,,,,,,,,,,,,,,,,51694.78599998809,,completion,,,1,,,,,,,,,,,,,,,,,,210021.69999998808,210002.69999998808,158091.243,158201.69999998808,158307.914,210064.621,,,
Trap,html.Screen,1_4,2022-02-03T14:26:02.725Z,,,,,,,,,,,,,,,,,,,,,,,,,,,,,,,NaN,,skipped,,,,,,,,,,,,,,,,,,,,,210047.09999999404,210002.69999998808,,210046.90000000596,,210064.621,,,
Thanks,html.Screen,1_5,2022-02-03T14:26:05.829Z,,,,,,,,,,,,,,,,,,,,,,,,,,,,,,,3082.5789999880653,,response,,,,,,,,,,,continue,click button,,,,,,,,,213151.09999999404,213147.19999998808,209997.953,210047.29999998212,210064.621,215531.397,,,
Headphone screening,flow.Sequence,1,2022-02-03T14:26:05.829Z,,,,,,,,,,,,,,,,,,,,,,,,,,,,,,,198096.32099998806,,completion,,,,,,,,,,,,,,,,,,,,,213151.40000000596,213147.19999998808,15034.212,15055.199999988079,15050.879,215531.397,,,
Instructions,html.Page,2_0,2022-02-03T14:26:21.807Z,,,,,,,,,,,,,,,,,,,,,,,,,,,,,,,13596.402999982121,,form submission,,,,,,,,,,,,,,,,,,,,,229128.5,229127.79999998212,215481.396,215529.09999999404,215531.397,229148.336,,,
Holding screen,html.Screen,2_1_0_0,2022-02-03T14:26:31.813Z,,,,,,,,,,,,,,,,,,,,,,,,,,,,,,,10101.529999999999,,timeout,,,,,,,,,,,,,,,,,,,,,239135,239133.197,229081.668,229129.19999998808,229148.336,239249.866,,,
screen,html.Screen,2_1_0_1_0,2022-02-03T14:26:33.003Z,,,,,,,,,,,,,,,,,53,,,,,,,,,,,,,,1050.33399998807,,response,,,,99,,,,,,,Space,keypress(Space),,,,,,,,When -- ----- -- ------ - ------- --- ----------<br>------------- ------ ------ ---- ---- ------- ----- -- ----<br>-------- ------- -- ---------- --- - --- ----- ----- ----<br>---- --- --- ----- --- ---- ---- ------- ----- ---- -------<br>--- --- -- ----- -- --- ---- -- --- ---- -- ------ ------<br>--- ----- -- ----,240324.59999999404,240300.19999998808,239133.197,239135.29999998212,239249.866,240333.221,,0,When
screen,html.Screen,2_1_0_1_1,2022-02-03T14:26:33.628Z,,,,,,,,,,,,,,,,,53,,,,,,,,,,,,,,610.4789999880886,,response,,,,99,,,,,,,Space,keypress(Space),,,,,,,,---- it ----- -- ------ - ------- --- ----------<br>------------- ------ ------ ---- ---- ------- ----- -- ----<br>-------- ------- -- ---------- --- - --- ----- ----- ----<br>---- --- --- ----- --- ---- ---- ------- ----- ---- -------<br>--- --- -- ----- -- --- ---- -- --- ---- -- ------ ------<br>--- ----- -- ----,240949.40000000596,240943.69999998808,240316.554,240324.79999998212,240333.221,240966.567,,1,it
screen,html.Screen,2_1_0_1_2,2022-02-03T14:26:34.134Z,,,,,,,,,,,,,,,,,53,,,,,,,,,,,,,,482.93299999999,,response,,,,99,,,,,,,Space,keypress(Space),,,,,,,,---- -- comes -- ------ - ------- --- ----------<br>------------- ------ ------ ---- ---- ------- ----- -- ----<br>-------- ------- -- ---------- --- - --- ----- ----- ----<br>---- --- --- ----- --- ---- ---- ------- ----- ---- -------<br>--- --- -- ----- -- --- ---- -- --- ---- -- ------ ------<br>--- ----- -- ----,241455.5,241449.5,240949.9,240949.59999999404,240966.567,241466.577,,2,comes
screen,html.Screen,2_1_0_1_3,2022-02-03T14:26:34.590Z,,,,,,,,,,,,,,,,,53,,,,,,,,,,,,,,439.2229999821284,,response,,,,99,,,,,,,Space,keypress(Space),,,,,,,,---- -- ----- to ------ - ------- --- ----------<br>------------- ------ ------ ---- ---- ------- ----- -- ----<br>-------- ------- -- ---------- --- - --- ----- ----- ----<br>---- --- --- ----- --- ---- ---- ------- ----- ---- -------<br>--- --- -- ----- -- --- ---- -- --- ---- -- ------ ------<br>--- ----- -- ----,241911.59999999404,241905.79999998212,241449.91,241455.69999998808,241466.577,241916.586,,3,to
screen,html.Screen,2_1_0_1_4,2022-02-03T14:26:35.216Z,,,,,,,,,,,,,,,,,53,,,,,,,,,,,,,,615.0139999940293,,response,,,,99,,,,,,,Space,keypress(Space),,,,,,,,---- -- ----- -- having - ------- --- ----------<br>------------- ------ ------ ---- ---- ------- ----- -- ----<br>-------- ------- -- ---------- --- - --- ----- ----- ----<br>---- --- --- ----- --- ---- ---- ------- ----- ---- -------<br>--- --- -- ----- -- --- ---- -- --- ---- -- ------ ------<br>--- ----- -- ----,242537.19999998808,242531.59999999404,241899.919,241911.79999998212,241916.586,242549.932,,4,having
screen,html.Screen,2_1_0_1_5,2022-02-03T14:26:35.643Z,,,,,,,,,,,,,,,,,53,,,,,,,,,,,,,,408.66799999403884,,response,,,,99,,,,,,,Space,keypress(Space),,,,,,,,---- -- ----- -- ------ a ------- --- ----------<br>------------- ------ ------ ---- ---- ------- ----- -- ----<br>-------- ------- -- ---------- --- - --- ----- ----- ----<br>---- --- --- ----- --- ---- ---- ------- ----- ---- -------<br>--- --- -- ----- -- --- ---- -- --- ---- -- ------ ------<br>--- ----- -- ----,242964.09999999404,242958.59999999404,242533.265,242537.40000000596,242549.932,242966.607,,5,a
screen,html.Screen,2_1_0_1_6,2022-02-03T14:26:36.105Z,,,,,,,,,,,,,,,,,53,,,,,,,,,,,,,,453.89300000001094,,response,,,,99,,,,,,,Space,keypress(Space),,,,,,,,---- -- ----- -- ------ - lasting --- ----------<br>------------- ------ ------ ---- ---- ------- ----- -- ----<br>-------- ------- -- ---------- --- - --- ----- ----- ----<br>---- --- --- ----- --- ---- ---- ------- ----- ---- -------<br>--- --- -- ----- -- --- ---- -- --- ---- -- ------ ------<br>--- ----- -- ----,243426.29999998212,243420.5,242949.94,242964.29999998212,242966.607,243449.95,,6,lasting
screen,html.Screen,2_1_0_1_7,2022-02-03T14:26:36.549Z,,,,,,,,,,,,,,,,,53,,,,,,,,,,,,,,415.54999999998836,,response,,,,99,,,,,,,Space,keypress(Space),,,,,,,,---- -- ----- -- ------ - ------- and ----------<br>------------- ------ ------ ---- ---- ------- ----- -- ----<br>-------- ------- -- ---------- --- - --- ----- ----- ----<br>---- --- --- ----- --- ---- ---- ------- ----- ---- -------<br>--- --- -- ----- -- --- ---- -- --- ---- -- ------ ------<br>--- ----- -- ----,243870.79999998212,243865.5,243433.283,243438,243449.95,243883.292,,7,and
screen,html.Screen,2_1_0_1_8,2022-02-03T14:26:36.985Z,,,,,,,,,,,,,,,,,53,,,,,,,,,,,,,,415.20800000001327,,response,,,,99,,,,,,,Space,keypress(Space),,,,,,,,---- -- ----- -- ------ - ------- --- fulfilling<br>------------- ------ ------ ---- ---- ------- ----- -- ----<br>-------- ------- -- ---------- --- - --- ----- ----- ----<br>---- --- --- ----- --- ---- ---- ------- ----- ---- -------<br>--- --- -- ----- -- --- ---- -- --- ---- -- ------ ------<br>--- ----- -- ----,244306,244298.5,243866.625,243870.90000000596,243883.292,244316.634,,8,fulfilling
screen,html.Screen,2_1_0_1_9,2022-02-03T14:26:37.433Z,,,,,,,,,,,,,,,,,53,,,,,,,,,,,,,,423.8660000000091,,response,,,,99,,,,,,,Space,keypress(Space),,,,,,,,"---- -- ----- -- ------ - ------- --- ----------<br>relationship, ------ ------ ---- ---- ------- ----- -- ----<br>-------- ------- -- ---------- --- - --- ----- ----- ----<br>---- --- --- ----- --- ---- ---- ------- ----- ---- -------<br>--- --- -- ----- -- --- ---- -- --- ---- -- ------ ------<br>--- ----- -- ----",244754.19999998808,244740.5,244299.967,244306.19999998808,244316.634,244766.643,,9,"relationship,"
screen,html.Screen,2_1_0_1_10,2022-02-03T14:26:37.997Z,,,,,,,,,,,,,,,,,53,,,,,,,,,,,,,,544.8569999999891,,response,,,,99,,,,,,,Space,keypress(Space),,,,,,,,---- -- ----- -- ------ - ------- --- ----------<br>------------- common ------ ---- ---- ------- ----- -- ----<br>-------- ------- -- ---------- --- - --- ----- ----- ----<br>---- --- --- ----- --- ---- ---- ------- ----- ---- -------<br>--- --- -- ----- -- --- ---- -- --- ---- -- ------ ------<br>--- ----- -- ----,245318.19999998808,245311.5,244749.976,244754.90000000596,244766.643,245333.321,,10,common
screen,html.Screen,2_1_0_1_11,2022-02-03T14:26:38.471Z,,,,,,,,,,,,,,,,,53,,,,,,,,,,,,,,455.0790000059642,,response,,,,99,,,,,,,Space,keypress(Space),,,,,,,,---- -- ----- -- ------ - ------- --- ----------<br>------------- ------ wisdom ---- ---- ------- ----- -- ----<br>-------- ------- -- ---------- --- - --- ----- ----- ----<br>---- --- --- ----- --- ---- ---- ------- ----- ---- -------<br>--- --- -- ----- -- --- ---- -- --- ---- -- ------ ------<br>--- ----- -- ----,245793,245788.40000000596,245316.654,245318.29999998212,245333.321,245799.997,,11,wisdom
screen,html.Screen,2_1_0_1_12,2022-02-03T14:26:38.907Z,,,,,,,,,,,,,,,,,53,,,,,,,,,,,,,,422.40300000595744,,response,,,,99,,,,,,,Space,keypress(Space),,,,,,,,---- -- ----- -- ------ - ------- --- ----------<br>------------- ------ ------ says ---- ------- ----- -- ----<br>-------- ------- -- ---------- --- - --- ----- ----- ----<br>---- --- --- ----- --- ---- ---- ------- ----- ---- -------<br>--- --- -- ----- -- --- ---- -- --- ---- -- ------ ------<br>--- ----- -- ----,246228,246222.40000000596,245783.33,245793.09999999404,245799.997,246233.339,,12,says
screen,html.Screen,2_1_0_1_13,2022-02-03T14:26:39.329Z,,,,,,,,,,,,,,,,,53,,,,,,,,,,,,,,411.06100000595325,,response,,,,99,,,,,,,Space,keypress(Space),,,,,,,,---- -- ----- -- ------ - ------- --- ----------<br>------------- ------ ------ ---- that ------- ----- -- ----<br>-------- ------- -- ---------- --- - --- ----- ----- ----<br>---- --- --- ----- --- ---- ---- ------- ----- ---- -------<br>--- --- -- ----- -- --- ---- -- --- ---- -- ------ ------<br>--- ----- -- ----,246650.40000000596,246644.40000000596,246216.672,246228.19999998808,246233.339,246666.681,,13,that
screen,html.Screen,2_1_0_1_14,2022-02-03T14:26:39.745Z,,,,,,,,,,,,,,,,,53,,,,,,,,,,,,,,393.8189999999886,,response,,,,99,,,,,,,Space,keypress(Space),,,,,,,,---- -- ----- -- ------ - ------- --- ----------<br>------------- ------ ------ ---- ---- feeling ----- -- ----<br>-------- ------- -- ---------- --- - --- ----- ----- ----<br>---- --- --- ----- --- ---- ---- ------- ----- ---- -------<br>--- --- -- ----- -- --- ---- -- --- ---- -- ------ ------<br>--- ----- -- ----,247066,247060.5,246650.014,246650.59999999404,246666.681,247083.356,,14,feeling
screen,html.Screen,2_1_0_1_15,2022-02-03T14:26:40.159Z,,,,,,,,,,,,,,,,,53,,,,,,,,,,,,,,391.0440000059607,,response,,,,99,,,,,,,Space,keypress(Space),,,,,,,,---- -- ----- -- ------ - ------- --- ----------<br>------------- ------ ------ ---- ---- ------- close -- ----<br>-------- ------- -- ---------- --- - --- ----- ----- ----<br>---- --- --- ----- --- ---- ---- ------- ----- ---- -------<br>--- --- -- ----- -- --- ---- -- --- ---- -- ------ ------<br>--- ----- -- ----,247480.09999999404,247474.40000000596,247066.689,247066.19999998808,247083.356,247483.364,,15,close
screen,html.Screen,2_1_0_1_16,2022-02-03T14:26:40.507Z,,,,,,,,,,,,,,,,,53,,,,,,,,,,,,,,339.03600000595907,,response,,,,99,,,,,,,Space,keypress(Space),,,,,,,,---- -- ----- -- ------ - ------- --- ----------<br>------------- ------ ------ ---- ---- ------- ----- to ----<br>-------- ------- -- ---------- --- - --- ----- ----- ----<br>---- --- --- ----- --- ---- ---- ------- ----- ---- -------<br>--- --- -- ----- -- --- ---- -- --- ---- -- ------ ------<br>--- ----- -- ----,247828.59999999404,247822.40000000596,247466.697,247481,247483.364,247833.371,,16,to
screen,html.Screen,2_1_0_1_17,2022-02-03T14:26:40.869Z,,,,,,,,,,,,,,,,,53,,,,,,,,,,,,,,351.0290000059467,,response,,,,99,,,,,,,Space,keypress(Space),,,,,,,,---- -- ----- -- ------ - ------- --- ----------<br>------------- ------ ------ ---- ---- ------- ----- -- your<br>-------- ------- -- ---------- --- - --- ----- ----- ----<br>---- --- --- ----- --- ---- ---- ------- ----- ---- -------<br>--- --- -- ----- -- --- ---- -- --- ---- -- ------ ------<br>--- ----- -- ----,248190.19999998808,248184.40000000596,247816.704,247828.79999998212,247833.371,248200.576,,17,your
screen,html.Screen,2_1_0_1_18,2022-02-03T14:26:41.345Z,,,,,,,,,,,,,,,,,53,,,,,,,,,,,,,,459.82400000595953,,response,,,,99,,,,,,,Space,keypress(Space),,,,,,,,---- -- ----- -- ------ - ------- --- ----------<br>------------- ------ ------ ---- ---- ------- ----- -- ----<br>romantic ------- -- ---------- --- - --- ----- ----- ----<br>---- --- --- ----- --- ---- ---- ------- ----- ---- -------<br>--- --- -- ----- -- --- ---- -- --- ---- -- ------ ------<br>--- ----- -- ----,248666,248660.40000000596,248183.909,248190.40000000596,248200.576,248683.919,,18,romantic
screen,html.Screen,2_1_0_1_19,2022-02-03T14:26:41.786Z,,,,,,,,,,,,,,,,,53,,,,,,,,,,,,,,416.28099998808466,,response,,,,99,,,,,,,Space,keypress(Space),,,,,,,,---- -- ----- -- ------ - ------- --- ----------<br>------------- ------ ------ ---- ---- ------- ----- -- ----<br>-------- partner -- ---------- --- - --- ----- ----- ----<br>---- --- --- ----- --- ---- ---- ------- ----- ---- -------<br>--- --- -- ----- -- --- ---- -- --- ---- -- ------ ------<br>--- ----- -- ----,249107.40000000596,249100.19999998808,248667.252,248666.5,248683.919,249117.261,,19,partner
screen,html.Screen,2_1_0_1_20,2022-02-03T14:26:42.192Z,,,,,,,,,,,,,,,,,53,,,,,,,,,,,,,,390.93899998808047,,response,,,,99,,,,,,,Space,keypress(Space),,,,,,,,---- -- ----- -- ------ - ------- --- ----------<br>------------- ------ ------ ---- ---- ------- ----- -- ----<br>-------- ------- is ---------- --- - --- ----- ----- ----<br>---- --- --- ----- --- ---- ---- ------- ----- ---- -------<br>--- --- -- ----- -- --- ---- -- --- ---- -- ------ ------<br>--- ----- -- ----,249513.79999998212,249508.19999998808,249100.594,249107.59999999404,249117.261,249517.269,,20,is
screen,html.Screen,2_1_0_1_21,2022-02-03T14:26:42.572Z,,,,,,,,,,,,,,,,,53,,,,,,,,,,,,,,369.8309999940393,,response,,,,99,,,,,,,Space,keypress(Space),,,,,,,,---- -- ----- -- ------ - ------- --- ----------<br>------------- ------ ------ ---- ---- ------- ----- -- ----<br>-------- ------- -- paramount. --- - --- ----- ----- ----<br>---- --- --- ----- --- ---- ---- ------- ----- ---- -------<br>--- --- -- ----- -- --- ---- -- --- ---- -- ------ ------<br>--- ----- -- ----,249893,249887.09999999404,249500.602,249514.09999999404,249517.269,249900.61,,21,paramount.
screen,html.Screen,2_1_0_1_22,2022-02-03T14:26:43.064Z,,,,,,,,,,,,,,,,,53,,,,,,,,,,,,,,476.58999998809304,,response,,,,99,,,,,,,Space,keypress(Space),,,,,,,,---- -- ----- -- ------ - ------- --- ----------<br>------------- ------ ------ ---- ---- ------- ----- -- ----<br>-------- ------- -- ---------- But - --- ----- ----- ----<br>---- --- --- ----- --- ---- ---- ------- ----- ---- -------<br>--- --- -- ----- -- --- ---- -- --- ---- -- ------ ------<br>--- ----- -- ----,250385.19999998808,250377.19999998808,249883.943,249893.19999998808,249900.61,250400.62,,22,But
screen,html.Screen,2_1_0_1_23,2022-02-03T14:26:43.424Z,,,,,,,,,,,,,,,,,53,,,,,,,,,,,,,,339.5799999880837,,response,,,,99,,,,,,,Space,keypress(Space),,,,,,,,---- -- ----- -- ------ - ------- --- ----------<br>------------- ------ ------ ---- ---- ------- ----- -- ----<br>-------- ------- -- ---------- --- a --- ----- ----- ----<br>---- --- --- ----- --- ---- ---- ------- ----- ---- -------<br>--- --- -- ----- -- --- ---- -- --- ---- -- ------ ------<br>--- ----- -- ----,250745.69999998808,250740.19999998808,250383.953,250385.40000000596,250400.62,250750.627,,23,a
screen,html.Screen,2_1_0_1_24,2022-02-03T14:26:43.772Z,,,,,,,,,,,,,,,,,53,,,,,,,,,,,,,,336.47299999403185,,response,,,,99,,,,,,,Space,keypress(Space),,,,,,,,---- -- ----- -- ------ - ------- --- ----------<br>------------- ------ ------ ---- ---- ------- ----- -- ----<br>-------- ------- -- ---------- --- - new ----- ----- ----<br>---- --- --- ----- --- ---- ---- ------- ----- ---- -------<br>--- --- -- ----- -- --- ---- -- --- ---- -- ------ ------<br>--- ----- -- ----,251093.69999998808,251087.09999999404,250733.96,250745.90000000596,250750.627,251100.634,,24,new
screen,html.Screen,2_1_0_1_25,2022-02-03T14:26:44.131Z,,,,,,,,,,,,,,,,,53,,,,,,,,,,,,,,346.56599998808815,,response,,,,99,,,,,,,Space,keypress(Space),,,,,,,,---- -- ----- -- ------ - ------- --- ----------<br>------------- ------ ------ ---- ---- ------- ----- -- ----<br>-------- ------- -- ---------- --- - --- study ----- ----<br>---- --- --- ----- --- ---- ---- ------- ----- ---- -------<br>--- --- -- ----- -- --- ---- -- --- ---- -- ------ ------<br>--- ----- -- ----,251452.79999998212,251447.19999998808,251083.967,251094.09999999404,251100.634,251467.308,,25,study
screen,html.Screen,2_1_0_1_26,2022-02-03T14:26:44.484Z,,,,,,,,,,,,,,,,,53,,,,,,,,,,,,,,332.79199999404955,,response,,,,99,,,,,,,Space,keypress(Space),,,,,,,,---- -- ----- -- ------ - ------- --- ----------<br>------------- ------ ------ ---- ---- ------- ----- -- ----<br>-------- ------- -- ---------- --- - --- ----- finds ----<br>---- --- --- ----- --- ---- ---- ------- ----- ---- -------<br>--- --- -- ----- -- --- ---- -- --- ---- -- ------ ------<br>--- ----- -- ----,251805.40000000596,251800.09999999404,251450.641,251452.90000000596,251467.308,251817.315,,26,finds
screen,html.Screen,2_1_0_1_27,2022-02-03T14:26:44.839Z,,,,,,,,,,,,,,,,,53,,,,,,,,,,,,,,337.7849999940372,,response,,,,99,,,,,,,Space,keypress(Space),,,,,,,,---- -- ----- -- ------ - ------- --- ----------<br>------------- ------ ------ ---- ---- ------- ----- -- ----<br>-------- ------- -- ---------- --- - --- ----- ----- that<br>---- --- --- ----- --- ---- ---- ------- ----- ---- -------<br>--- --- -- ----- -- --- ---- -- --- ---- -- ------ ------<br>--- ----- -- ----,252160.5,252155.09999999404,251800.648,251805.59999999404,251817.315,252167.322,,27,that
screen,html.Screen,2_1_0_1_28,2022-02-03T14:26:45.176Z,,,,,,,,,,,,,,,,,53,,,,,,,,,,,,,,324.77799999405397,,response,,,,99,,,,,,,Space,keypress(Space),,,,,,,,---- -- ----- -- ------ - ------- --- ----------<br>------------- ------ ------ ---- ---- ------- ----- -- ----<br>-------- ------- -- ---------- --- - --- ----- ----- ----<br>it's --- --- ----- --- ---- ---- ------- ----- ---- -------<br>--- --- -- ----- -- --- ---- -- --- ---- -- ------ ------<br>--- ----- -- ----,252497.69999998808,252492.09999999404,252150.655,252160.79999998212,252167.322,252500.662,,28,it's
screen,html.Screen,2_1_0_1_29,2022-02-03T14:26:45.606Z,,,,,,,,,,,,,,,,,53,,,,,,,,,,,,,,421.3379999999888,,response,,,,99,,,,,,,Space,keypress(Space),,,,,,,,---- -- ----- -- ------ - ------- --- ----------<br>------------- ------ ------ ---- ---- ------- ----- -- ----<br>-------- ------- -- ---------- --- - --- ----- ----- ----<br>---- not --- ----- --- ---- ---- ------- ----- ---- -------<br>--- --- -- ----- -- --- ---- -- --- ---- -- ------ ------<br>--- ----- -- ----,252927.69999998808,252922,252483.995,252498,252500.662,252934.004,,29,not
screen,html.Screen,2_1_0_1_30,2022-02-03T14:26:46.000Z,,,,,,,,,,,,,,,,,53,,,,,,,,,,,,,,381.99600000001374,,response,,,,99,,,,,,,Space,keypress(Space),,,,,,,,---- -- ----- -- ------ - ------- --- ----------<br>------------- ------ ------ ---- ---- ------- ----- -- ----<br>-------- ------- -- ---------- --- - --- ----- ----- ----<br>---- --- how ----- --- ---- ---- ------- ----- ---- -------<br>--- --- -- ----- -- --- ---- -- --- ---- -- ------ ------<br>--- ----- -- ----,253321.5,253316,252917.337,252927.90000000596,252934.004,253334.012,,30,how
screen,html.Screen,2_1_0_1_31,2022-02-03T14:26:46.383Z,,,,,,,,,,,,,,,,,53,,,,,,,,,,,,,,364.9880000000121,,response,,,,99,,,,,,,Space,keypress(Space),,,,,,,,---- -- ----- -- ------ - ------- --- ----------<br>------------- ------ ------ ---- ---- ------- ----- -- ----<br>-------- ------- -- ---------- --- - --- ----- ----- ----<br>---- --- --- close --- ---- ---- ------- ----- ---- -------<br>--- --- -- ----- -- --- ---- -- --- ---- -- ------ ------<br>--- ----- -- ----,253704.59999999404,253699,253317.345,253321.69999998808,253334.012,253717.353,,31,close
screen,html.Screen,2_1_0_1_32,2022-02-03T14:26:46.791Z,,,,,,,,,,,,,,,,,53,,,,,,,,,,,,,,387.74699999403674,,response,,,,99,,,,,,,Space,keypress(Space),,,,,,,,---- -- ----- -- ------ - ------- --- ----------<br>------------- ------ ------ ---- ---- ------- ----- -- ----<br>-------- ------- -- ---------- --- - --- ----- ----- ----<br>---- --- --- ----- you ---- ---- ------- ----- ---- -------<br>--- --- -- ----- -- --- ---- -- --- ---- -- ------ ------<br>--- ----- -- ----,254112.19999998808,254105.09999999404,253700.686,253704.79999998212,253717.353,254117.361,,32,you
screen,html.Screen,2_1_0_1_33,2022-02-03T14:26:47.142Z,,,,,,,,,,,,,,,,,53,,,,,,,,,,,,,,340.6389999999956,,response,,,,99,,,,,,,Space,keypress(Space),,,,,,,,---- -- ----- -- ------ - ------- --- ----------<br>------------- ------ ------ ---- ---- ------- ----- -- ----<br>-------- ------- -- ---------- --- - --- ----- ----- ----<br>---- --- --- ----- --- feel ---- ------- ----- ---- -------<br>--- --- -- ----- -- --- ---- -- --- ---- -- ------ ------<br>--- ----- -- ----,254463.59999999404,254458,254100.694,254112.29999998212,254117.361,254467.368,,33,feel
screen,html.Screen,2_1_0_1_34,2022-02-03T14:26:47.550Z,,,,,,,,,,,,,,,,,53,,,,,,,,,,,,,,398.5320000059728,,response,,,,99,,,,,,,Space,keypress(Space),,,,,,,,---- -- ----- -- ------ - ------- --- ----------<br>------------- ------ ------ ---- ---- ------- ----- -- ----<br>-------- ------- -- ---------- --- - --- ----- ----- ----<br>---- --- --- ----- --- ---- that ------- ----- ---- -------<br>--- --- -- ----- -- --- ---- -- --- ---- -- ------ ------<br>--- ----- -- ----,254871.69999998808,254865.90000000596,254450.701,254463.79999998212,254467.368,254884.043,,34,that
screen,html.Screen,2_1_0_1_35,2022-02-03T14:26:48.031Z,,,,,,,,,,,,,,,,,53,,,,,,,,,,,,,,460.85700000595534,,response,,,,99,,,,,,,Space,keypress(Space),,,,,,,,---- -- ----- -- ------ - ------- --- ----------<br>------------- ------ ------ ---- ---- ------- ----- -- ----<br>-------- ------- -- ---------- --- - --- ----- ----- ----<br>---- --- --- ----- --- ---- ---- matters ----- ---- -------<br>--- --- -- ----- -- --- ---- -- --- ---- -- ------ ------<br>--- ----- -- ----,255352.09999999404,255344.90000000596,254867.376,254871.90000000596,254884.043,255367.386,,35,matters
screen,html.Screen,2_1_0_1_36,2022-02-03T14:26:48.479Z,,,,,,,,,,,,,,,,,53,,,,,,,,,,,,,,427.41399998212,,response,,,,99,,,,,,,Space,keypress(Space),,,,,,,,"---- -- ----- -- ------ - ------- --- ----------<br>------------- ------ ------ ---- ---- ------- ----- -- ----<br>-------- ------- -- ---------- --- - --- ----- ----- ----<br>---- --- --- ----- --- ---- ---- ------- most, ---- -------<br>--- --- -- ----- -- --- ---- -- --- ---- -- ------ ------<br>--- ----- -- ----",255800.5,255794.79999998212,255350.719,255352.40000000596,255367.386,255817.395,,36,"most,"
screen,html.Screen,2_1_0_1_37,2022-02-03T14:26:48.859Z,,,,,,,,,,,,,,,,,53,,,,,,,,,,,,,,357.50500000597094,,response,,,,99,,,,,,,Space,keypress(Space),,,,,,,,---- -- ----- -- ------ - ------- --- ----------<br>------------- ------ ------ ---- ---- ------- ----- -- ----<br>-------- ------- -- ---------- --- - --- ----- ----- ----<br>---- --- --- ----- --- ---- ---- ------- ----- it's -------<br>--- --- -- ----- -- --- ---- -- --- ---- -- ------ ------<br>--- ----- -- ----,256180.5,256174.90000000596,255800.728,255800.69999998808,255817.395,256184.069,,37,it's
screen,html.Screen,2_1_0_1_38,2022-02-03T14:26:49.197Z,,,,,,,,,,,,,,,,,53,,,,,,,,,,,,,,328.73099998213,,response,,,,99,,,,,,,Space,keypress(Space),,,,,,,,---- -- ----- -- ------ - ------- --- ----------<br>------------- ------ ------ ---- ---- ------- ----- -- ----<br>-------- ------- -- ---------- --- - --- ----- ----- ----<br>---- --- --- ----- --- ---- ---- ------- ----- ---- whether<br>--- --- -- ----- -- --- ---- -- --- ---- -- ------ ------<br>--- ----- -- ----,256518.59999999404,256512.79999998212,256167.402,256180.59999999404,256184.069,256534.076,,38,whether
screen,html.Screen,2_1_0_1_39,2022-02-03T14:26:49.587Z,,,,,,,,,,,,,,,,,53,,,,,,,,,,,,,,368.7239999821177,,response,,,,99,,,,,,,Space,keypress(Space),,,,,,,,---- -- ----- -- ------ - ------- --- ----------<br>------------- ------ ------ ---- ---- ------- ----- -- ----<br>-------- ------- -- ---------- --- - --- ----- ----- ----<br>---- --- --- ----- --- ---- ---- ------- ----- ---- -------<br>you --- -- ----- -- --- ---- -- --- ---- -- ------ ------<br>--- ----- -- ----,256908.29999998212,256902.79999998212,256517.409,256518.69999998808,256534.076,256917.417,,39,you
screen,html.Screen,2_1_0_1_40,2022-02-03T14:26:49.940Z,,,,,,,,,,,,,,,,,53,,,,,,,,,,,,,,338.1829999940528,,response,,,,99,,,,,,,Space,keypress(Space),,,,,,,,---- -- ----- -- ------ - ------- --- ----------<br>------------- ------ ------ ---- ---- ------- ----- -- ----<br>-------- ------- -- ---------- --- - --- ----- ----- ----<br>---- --- --- ----- --- ---- ---- ------- ----- ---- -------<br>--- are -- ----- -- --- ---- -- --- ---- -- ------ ------<br>--- ----- -- ----,257261.40000000596,257255.59999999404,256900.75,256908.5,256917.417,257267.424,,40,are
screen,html.Screen,2_1_0_1_41,2022-02-03T14:26:50.332Z,,,,,,,,,,,,,,,,,53,,,,,,,,,,,,,,380.37599998211954,,response,,,,99,,,,,,,Space,keypress(Space),,,,,,,,---- -- ----- -- ------ - ------- --- ----------<br>------------- ------ ------ ---- ---- ------- ----- -- ----<br>-------- ------- -- ---------- --- - --- ----- ----- ----<br>---- --- --- ----- --- ---- ---- ------- ----- ---- -------<br>--- --- as ----- -- --- ---- -- --- ---- -- ------ ------<br>--- ----- -- ----,257653.40000000596,257647.79999998212,257250.757,257261.69999998808,257267.424,257667.432,,41,as
screen,html.Screen,2_1_0_1_42,2022-02-03T14:26:50.756Z,,,,,,,,,,,,,,,,,53,,,,,,,,,,,,,,403.16799999403884,,response,,,,99,,,,,,,Space,keypress(Space),,,,,,,,---- -- ----- -- ------ - ------- --- ----------<br>------------- ------ ------ ---- ---- ------- ----- -- ----<br>-------- ------- -- ---------- --- - --- ----- ----- ----<br>---- --- --- ----- --- ---- ---- ------- ----- ---- -------<br>--- --- -- close -- --- ---- -- --- ---- -- ------ ------<br>--- ----- -- ----,258076.79999998212,258070.59999999404,257650.765,257664.69999998808,257667.432,258084.107,,42,close
screen,html.Screen,2_1_0_1_43,2022-02-03T14:26:51.142Z,,,,,,,,,,,,,,,,,53,,,,,,,,,,,,,,373.4929999940505,,response,,,,99,,,,,,,Space,keypress(Space),,,,,,,,---- -- ----- -- ------ - ------- --- ----------<br>------------- ------ ------ ---- ---- ------- ----- -- ----<br>-------- ------- -- ---------- --- - --- ----- ----- ----<br>---- --- --- ----- --- ---- ---- ------- ----- ---- -------<br>--- --- -- ----- as --- ---- -- --- ---- -- ------ ------<br>--- ----- -- ----,258463.09999999404,258457.59999999404,258067.44,258076.90000000596,258084.107,258467.948,,43,as
screen,html.Screen,2_1_0_1_44,2022-02-03T14:26:51.567Z,,,,,,,,,,,,,,,,,53,,,,,,,,,,,,,,413.55199999999604,,response,,,,99,,,,,,,Space,keypress(Space),,,,,,,,---- -- ----- -- ------ - ------- --- ----------<br>------------- ------ ------ ---- ---- ------- ----- -- ----<br>-------- ------- -- ---------- --- - --- ----- ----- ----<br>---- --- --- ----- --- ---- ---- ------- ----- ---- -------<br>--- --- -- ----- -- you ---- -- --- ---- -- ------ ------<br>--- ----- -- ----,258888.19999998808,258881.5,258451.281,258463.19999998808,258467.948,258901.29,,44,you
screen,html.Screen,2_1_0_1_45,2022-02-03T14:26:51.965Z,,,,,,,,,,,,,,,,,53,,,,,,,,,,,,,,379.4099999880709,,response,,,,99,,,,,,,Space,keypress(Space),,,,,,,,---- -- ----- -- ------ - ------- --- ----------<br>------------- ------ ------ ---- ---- ------- ----- -- ----<br>-------- ------- -- ---------- --- - --- ----- ----- ----<br>---- --- --- ----- --- ---- ---- ------- ----- ---- -------<br>--- --- -- ----- -- --- want -- --- ---- -- ------ ------<br>--- ----- -- ----,259286.5,259280.69999998808,258884.623,258888.5,258901.29,259301.298,,45,want
screen,html.Screen,2_1_0_1_46,2022-02-03T14:26:52.336Z,,,,,,,,,,,,,,,,,53,,,,,,,,,,,,,,350.30199999402976,,response,,,,99,,,,,,,Space,keypress(Space),,,,,,,,---- -- ----- -- ------ - ------- --- ----------<br>------------- ------ ------ ---- ---- ------- ----- -- ----<br>-------- ------- -- ---------- --- - --- ----- ----- ----<br>---- --- --- ----- --- ---- ---- ------- ----- ---- -------<br>--- --- -- ----- -- --- ---- to --- ---- -- ------ ------<br>--- ----- -- ----,259657.40000000596,259651.59999999404,259284.631,259286.59999999404,259301.298,259667.972,,46,to
screen,html.Screen,2_1_0_1_47,2022-02-03T14:26:52.637Z,,,,,,,,,,,,,,,,,53,,,,,,,,,,,,,,284.7279999880702,,response,,,,99,,,,,,,Space,keypress(Space),,,,,,,,"---- -- ----- -- ------ - ------- --- ----------<br>------------- ------ ------ ---- ---- ------- ----- -- ----<br>-------- ------- -- ---------- --- - --- ----- ----- ----<br>---- --- --- ----- --- ---- ---- ------- ----- ---- -------<br>--- --- -- ----- -- --- ---- -- be, ---- -- ------ ------<br>--- ----- -- ----",259958.29999998212,259952.69999998808,259651.305,259657.59999999404,259667.972,259967.978,,47,"be,"
screen,html.Screen,2_1_0_1_48,2022-02-03T14:26:53.069Z,,,,,,,,,,,,,,,,,53,,,,,,,,,,,,,,415.62199999403674,,response,,,,99,,,,,,,Space,keypress(Space),,,,,,,,---- -- ----- -- ------ - ------- --- ----------<br>------------- ------ ------ ---- ---- ------- ----- -- ----<br>-------- ------- -- ---------- --- - --- ----- ----- ----<br>---- --- --- ----- --- ---- ---- ------- ----- ---- -------<br>--- --- -- ----- -- --- ---- -- --- even -- ------ ------<br>--- ----- -- ----,260390.40000000596,260383.59999999404,259951.311,259958.5,259967.978,260401.32,,48,even
screen,html.Screen,2_1_0_1_49,2022-02-03T14:26:53.498Z,,,,,,,,,,,,,,,,,53,,,,,,,,,,,,,,412.179999999993,,response,,,,99,,,,,,,Space,keypress(Space),,,,,,,,---- -- ----- -- ------ - ------- --- ----------<br>------------- ------ ------ ---- ---- ------- ----- -- ----<br>-------- ------- -- ---------- --- - --- ----- ----- ----<br>---- --- --- ----- --- ---- ---- ------- ----- ---- -------<br>--- --- -- ----- -- --- ---- -- --- ---- if ------ ------<br>--- ----- -- ----,260819.19999998808,260813.5,260384.653,260390.5,260401.32,260834.662,,49,if
screen,html.Screen,2_1_0_1_50,2022-02-03T14:26:53.868Z,,,,,,,,,,,,,,,,,53,,,,,,,,,,,,,,347.8379999999888,,response,,,,99,,,,,,,Space,keypress(Space),,,,,,,,---- -- ----- -- ------ - ------- --- ----------<br>------------- ------ ------ ---- ---- ------- ----- -- ----<br>-------- ------- -- ---------- --- - --- ----- ----- ----<br>---- --- --- ----- --- ---- ---- ------- ----- ---- -------<br>--- --- -- ----- -- --- ---- -- --- ---- -- that's ------<br>--- ----- -- ----,261189.59999999404,261182.5,260817.995,260819.29999998212,260834.662,261201.336,,50,that's
screen,html.Screen,2_1_0_1_51,2022-02-03T14:26:54.248Z,,,,,,,,,,,,,,,,,53,,,,,,,,,,,,,,362.0640000059502,,response,,,,99,,,,,,,Space,keypress(Space),,,,,,,,---- -- ----- -- ------ - ------- --- ----------<br>------------- ------ ------ ---- ---- ------- ----- -- ----<br>-------- ------- -- ---------- --- - --- ----- ----- ----<br>---- --- --- ----- --- ---- ---- ------- ----- ---- -------<br>--- --- -- ----- -- --- ---- -- --- ---- -- ------ really<br>--- ----- -- ----,261569,261563.40000000596,261184.669,261189.90000000596,261201.336,261584.677,,51,really
screen,html.Screen,2_1_0_1_52,2022-02-03T14:26:54.669Z,,,,,,,,,,,,,,,,,53,,,,,,,,,,,,,,399.82300000000396,,response,,,,99,,,,,,,Space,keypress(Space),,,,,,,,---- -- ----- -- ------ - ------- --- ----------<br>------------- ------ ------ ---- ---- ------- ----- -- ----<br>-------- ------- -- ---------- --- - --- ----- ----- ----<br>---- --- --- ----- --- ---- ---- ------- ----- ---- -------<br>--- --- -- ----- -- --- ---- -- --- ---- -- ------ ------<br>not ----- -- ----,261990.19999998808,261984.5,261568.01,261569.19999998808,261584.677,262001.352,,52,not
screen,html.Screen,2_1_0_1_53,2022-02-03T14:26:55.054Z,,,,,,,,,,,,,,,,,53,,,,,,,,,,,,,,366.1479999999865,,response,,,,99,,,,,,,Space,keypress(Space),,,,,,,,---- -- ----- -- ------ - ------- --- ----------<br>------------- ------ ------ ---- ---- ------- ----- -- ----<br>-------- ------- -- ---------- --- - --- ----- ----- ----<br>---- --- --- ----- --- ---- ---- ------- ----- ---- -------<br>--- --- -- ----- -- --- ---- -- --- ---- -- ------ ------<br>--- close -- ----,262374.7999999821,262367.5,261984.685,261990.29999998212,262001.352,262384.693,,53,close
screen,html.Screen,2_1_0_1_54,2022-02-03T14:26:55.383Z,,,,,,,,,,,,,,,,,53,,,,,,,,,,,,,,313.8069999999716,,response,,,,99,,,,,,,Space,keypress(Space),,,,,,,,---- -- ----- -- ------ - ------- --- ----------<br>------------- ------ ------ ---- ---- ------- ----- -- ----<br>-------- ------- -- ---------- --- - --- ----- ----- ----<br>---- --- --- ----- --- ---- ---- ------- ----- ---- -------<br>--- --- -- ----- -- --- ---- -- --- ---- -- ------ ------<br>--- ----- at ----,262704.09999999404,262698.5,262368.026,262375,262384.693,262718.033,,54,at
screen,html.Screen,2_1_0_1_55,2022-02-03T14:26:55.664Z,,,,,,,,,,,,,,,,,53,,,,,,,,,,,,,,261.4670000000042,,response,,,,99,,,,,,,Space,keypress(Space),,,,,,,,---- -- ----- -- ------ - ------- --- ----------<br>------------- ------ ------ ---- ---- ------- ----- -- ----<br>-------- ------- -- ---------- --- - --- ----- ----- ----<br>---- --- --- ----- --- ---- ---- ------- ----- ---- -------<br>--- --- -- ----- -- --- ---- -- --- ---- -- ------ ------<br>--- ----- -- all.,262985.09999999404,262979.5,262701.366,262704.2999999821,262718.033,263001.372,,55,all.
Item 99,flow.Loop,2_1_0_1,2022-02-03T14:26:55.664Z,,,,,,,,,,,,,,,,,,,,,,,,,,,,,,,23729.63399999999,,completion,,,,,A,,,,,,,,,,,silence,,,,,262985.40000000596,262979.5,239133.197,239135.09999999404,239249.866,263001.372,,,
Question 1,html.Screen,2_1_0_2,2022-02-03T14:26:59.191Z,,,,,,,,,,,,,,,,,,,,,,,,,,,,true,FALSE,,3507.628000000026,,response,,,,99,A,,,,,,FALSE,click #choice-2,,,,silence,,,,,266512.2999999821,266509,262984.705,262985.59999999404,263001.372,266518.109,,,
Question 2,html.Screen,2_1_0_3,2022-02-03T14:27:04.863Z,,,,,,,,,,,,,,,,,,,,,,,,,,,,true,TRUE,,5663.391000000003,,response,,,,99,A,,,,,,TRUE,click #choice-1,,,,silence,,,,,272184.1999999881,272181.5,266501.442,266512.5,266518.109,272185.365,,,
Item 99,flow.Sequence,2_1_0,2022-02-03T14:27:04.864Z,,,,,,,,,,,,,,,,,,,,,,,,,,,,,,,43033.16399999999,,completion,,,,,,,,,,,,,,,,,,,,,272184.40000000596,272181.5,229081.668,229129,229148.336,272185.365,,,
Holding screen,html.Screen,2_1_1_0,2022-02-03T14:27:14.851Z,,,,,,,,,,,,,,,,,,,,,,,,,,,,,,,10000.728000000003,,timeout,,,,,,,,,,,,,,,,,,,,,282171.5,282169.426,272168.698,272184.59999999404,272185.365,282186.093,,,
screen,html.Screen,2_1_1_1_0,2022-02-03T14:27:15.716Z,,,,,,,,,,,,,,,,,54,,,,,,,,,,,,,,840.9070000000065,,response,,,,100,,,,,,,Space,keypress(Space),,,,,,,,At --- ---- --- ------ ----- ------- ---- -- --- ------- --<br>------- ---------- ------ -- ----- -- ----- -- ---- ------<br>--- ----- --- --- ------ -------- ----- --- ------ ----- --<br>----- ----- ---------- --- --- ------ ------ ---- -- ------<br>------- --- ------ ----- --- ---- ------- -- ---- --- --<br>------- ------,283036.2999999821,283027,282169.426,282171.7999999821,282186.093,283052.777,,0,At
screen,html.Screen,2_1_1_1_1,2022-02-03T14:27:16.148Z,,,,,,,,,,,,,,,,,54,,,,,,,,,,,,,,410.72299999999814,,response,,,,100,,,,,,,Space,keypress(Space),,,,,,,,-- the ---- --- ------ ----- ------- ---- -- --- ------- --<br>------- ---------- ------ -- ----- -- ----- -- ---- ------<br>--- ----- --- --- ------ -------- ----- --- ------ ----- --<br>----- ----- ---------- --- --- ------ ------ ---- -- ------<br>------- --- ------ ----- --- ---- ------- -- ---- --- --<br>------- ------,283469,283463.5,283036.11,283036.40000000596,283052.777,283486.119,,1,the
screen,html.Screen,2_1_1_1_2,2022-02-03T14:27:16.481Z,,,,,,,,,,,,,,,,,54,,,,,,,,,,,,,,310.38099999999395,,response,,,,100,,,,,,,Space,keypress(Space),,,,,,,,-- --- time --- ------ ----- ------- ---- -- --- ------- --<br>------- ---------- ------ -- ----- -- ----- -- ---- ------<br>--- ----- --- --- ------ -------- ----- --- ------ ----- --<br>----- ----- ---------- --- --- ------ ------ ---- -- ------<br>------- --- ------ ----- --- ---- ------- -- ---- --- --<br>------- ------,283802.09999999404,283796.5,283469.452,283469.1999999881,283486.119,283819.459,,2,time
screen,html.Screen,2_1_1_1_3,2022-02-03T14:27:16.921Z,,,,,,,,,,,,,,,,,54,,,,,,,,,,,,,,416.04100000002654,,response,,,,100,,,,,,,Space,keypress(Space),,,,,,,,-- --- ---- the ------ ----- ------- ---- -- --- ------- --<br>------- ---------- ------ -- ----- -- ----- -- ---- ------<br>--- ----- --- --- ------ -------- ----- --- ------ ----- --<br>----- ----- ---------- --- --- ------ ------ ---- -- ------<br>------- --- ------ ----- --- ---- ------- -- ---- --- --<br>------- ------,284241.6999999881,284235.5,283802.792,283802.2999999821,283819.459,284252.801,,3,the
screen,html.Screen,2_1_1_1_4,2022-02-03T14:27:17.361Z,,,,,,,,,,,,,,,,,54,,,,,,,,,,,,,,423.69900000002235,,response,,,,100,,,,,,,Space,keypress(Space),,,,,,,,-- --- ---- --- French ----- ------- ---- -- --- ------- --<br>------- ---------- ------ -- ----- -- ----- -- ---- ------<br>--- ----- --- --- ------ -------- ----- --- ------ ----- --<br>----- ----- ---------- --- --- ------ ------ ---- -- ------<br>------- --- ------ ----- --- ---- ------- -- ---- --- --<br>------- ------,284682.09999999404,284676.5,284236.134,284241.90000000596,284252.801,284686.143,,4,French
screen,html.Screen,2_1_1_1_5,2022-02-03T14:27:17.717Z,,,,,,,,,,,,,,,,,54,,,,,,,,,,,,,,346.35700000001816,,response,,,,100,,,,,,,Space,keypress(Space),,,,,,,,-- --- ---- --- ------ crown ------- ---- -- --- ------- --<br>------- ---------- ------ -- ----- -- ----- -- ---- ------<br>--- ----- --- --- ------ -------- ----- --- ------ ----- --<br>----- ----- ---------- --- --- ------ ------ ---- -- ------<br>------- --- ------ ----- --- ---- ------- -- ---- --- --<br>------- ------,285037.6999999881,285032.5,284669.476,284682.40000000596,284686.143,285052.817,,5,crown
screen,html.Screen,2_1_1_1_6,2022-02-03T14:27:18.178Z,,,,,,,,,,,,,,,,,54,,,,,,,,,,,,,,439.6830000000191,,response,,,,100,,,,,,,Space,keypress(Space),,,,,,,,-- --- ---- --- ------ ----- secured ---- -- --- ------- --<br>------- ---------- ------ -- ----- -- ----- -- ---- ------<br>--- ----- --- --- ------ -------- ----- --- ------ ----- --<br>----- ----- ---------- --- --- ------ ------ ---- -- ------<br>------- --- ------ ----- --- ---- ------- -- ---- --- --<br>------- ------,285498.40000000596,285492.5,285036.15,285037.7999999821,285052.817,285502.826,,6,secured
screen,html.Screen,2_1_1_1_7,2022-02-03T14:27:18.600Z,,,,,,,,,,,,,,,,,54,,,,,,,,,,,,,,412.57400000595953,,response,,,,100,,,,,,,Space,keypress(Space),,,,,,,,-- --- ---- --- ------ ----- ------- much -- --- ------- --<br>------- ---------- ------ -- ----- -- ----- -- ---- ------<br>--- ----- --- --- ------ -------- ----- --- ------ ----- --<br>----- ----- ---------- --- --- ------ ------ ---- -- ------<br>------- --- ------ ----- --- ---- ------- -- ---- --- --<br>------- ------,285920.7999999821,285915.40000000596,285486.159,285498.59999999404,285502.826,285936.168,,7,much
screen,html.Screen,2_1_1_1_8,2022-02-03T14:27:19.041Z,,,,,,,,,,,,,,,,,54,,,,,,,,,,,,,,420.1319999821135,,response,,,,100,,,,,,,Space,keypress(Space),,,,,,,,-- --- ---- --- ------ ----- ------- ---- of --- ------- --<br>------- ---------- ------ -- ----- -- ----- -- ---- ------<br>--- ----- --- --- ------ -------- ----- --- ------ ----- --<br>----- ----- ---------- --- --- ------ ------ ---- -- ------<br>------- --- ------ ----- --- ---- ------- -- ---- --- --<br>------- ------,286362.09999999404,286356.2999999821,285919.501,285921,285936.168,286369.51,,8,of
screen,html.Screen,2_1_1_1_9,2022-02-03T14:27:19.419Z,,,,,,,,,,,,,,,,,54,,,,,,,,,,,,,,364.7899999821093,,response,,,,100,,,,,,,Space,keypress(Space),,,,,,,,-- --- ---- --- ------ ----- ------- ---- -- its ------- --<br>------- ---------- ------ -- ----- -- ----- -- ---- ------<br>--- ----- --- --- ------ -------- ----- --- ------ ----- --<br>----- ----- ---------- --- --- ------ ------ ---- -- ------<br>------- --- ------ ----- --- ---- ------- -- ---- --- --<br>------- ------,286740.09999999404,286734.2999999821,286352.843,286362.2999999821,286369.51,286752.851,,9,its
screen,html.Screen,2_1_1_1_10,2022-02-03T14:27:19.775Z,,,,,,,,,,,,,,,,,54,,,,,,,,,,,,,,335.34899998805486,,response,,,,100,,,,,,,Space,keypress(Space),,,,,,,,-- --- ---- --- ------ ----- ------- ---- -- --- revenue --<br>------- ---------- ------ -- ----- -- ----- -- ---- ------<br>--- ----- --- --- ------ -------- ----- --- ------ ----- --<br>----- ----- ---------- --- --- ------ ------ ---- -- ------<br>------- --- ------ ----- --- ---- ------- -- ---- --- --<br>------- ------,287095.2999999821,287088.1999999881,286736.184,286740.2999999821,286752.851,287102.858,,10,revenue
screen,html.Screen,2_1_1_1_11,2022-02-03T14:27:20.212Z,,,,,,,,,,,,,,,,,54,,,,,,,,,,,,,,424.44199998211116,,response,,,,100,,,,,,,Space,keypress(Space),,,,,,,,-- --- ---- --- ------ ----- ------- ---- -- --- ------- by<br>------- ---------- ------ -- ----- -- ----- -- ---- ------<br>--- ----- --- --- ------ -------- ----- --- ------ ----- --<br>----- ----- ---------- --- --- ------ ------ ---- -- ------<br>------- --- ------ ----- --- ---- ------- -- ---- --- --<br>------- ------,287532.90000000596,287527.2999999821,287086.191,287095.5,287102.858,287536.2,,11,by
screen,html.Screen,2_1_1_1_12,2022-02-03T14:27:20.590Z,,,,,,,,,,,,,,,,,54,,,,,,,,,,,,,,368.09999998210697,,response,,,,100,,,,,,,Space,keypress(Space),,,,,,,,-- --- ---- --- ------ ----- ------- ---- -- --- ------- --<br>issuing ---------- ------ -- ----- -- ----- -- ---- ------<br>--- ----- --- --- ------ -------- ----- --- ------ ----- --<br>----- ----- ---------- --- --- ------ ------ ---- -- ------<br>------- --- ------ ----- --- ---- ------- -- ---- --- --<br>------- ------,287910.1999999881,287904.2999999821,287519.533,287533.09999999404,287536.2,287919.541,,12,issuing
screen,html.Screen,2_1_1_1_13,2022-02-03T14:27:21.026Z,,,,,,,,,,,,,,,,,54,,,,,,,,,,,,,,421.75899998209206,,response,,,,100,,,,,,,Space,keypress(Space),,,,,,,,-- --- ---- --- ------ ----- ------- ---- -- --- ------- --<br>------- government ------ -- ----- -- ----- -- ---- ------<br>--- ----- --- --- ------ -------- ----- --- ------ ----- --<br>----- ----- ---------- --- --- ------ ------ ---- -- ------<br>------- --- ------ ----- --- ---- ------- -- ---- --- --<br>------- ------,288346.7999999821,288341.2999999821,287902.874,287910.40000000596,287919.541,288352.883,,13,government
screen,html.Screen,2_1_1_1_14,2022-02-03T14:27:21.474Z,,,,,,,,,,,,,,,,,54,,,,,,,,,,,,,,435.51700000598794,,response,,,,100,,,,,,,Space,keypress(Space),,,,,,,,-- --- ---- --- ------ ----- ------- ---- -- --- ------- --<br>------- ---------- bonds. -- ----- -- ----- -- ---- ------<br>--- ----- --- --- ------ -------- ----- --- ------ ----- --<br>----- ----- ---------- --- --- ------ ------ ---- -- ------<br>------- --- ------ ----- --- ---- ------- -- ---- --- --<br>------- ------,288794,288788.40000000596,288336.216,288347.09999999404,288352.883,288802.892,,14,bonds.
screen,html.Screen,2_1_1_1_15,2022-02-03T14:27:21.934Z,,,,,,,,,,,,,,,,,54,,,,,,,,,,,,,,445.3079999880865,,response,,,,100,,,,,,,Space,keypress(Space),,,,,,,,-- --- ---- --- ------ ----- ------- ---- -- --- ------- --<br>------- ---------- ------ In ----- -- ----- -- ---- ------<br>--- ----- --- --- ------ -------- ----- --- ------ ----- --<br>----- ----- ---------- --- --- ------ ------ ---- -- ------<br>------- --- ------ ----- --- ---- ------- -- ---- --- --<br>------- ------,289254.1999999881,289248.1999999881,288786.225,288794.1999999881,288802.892,289270.065,,15,In
screen,html.Screen,2_1_1_1_16,2022-02-03T14:27:22.410Z,,,,,,,,,,,,,,,,,54,,,,,,,,,,,,,,454.13499998807674,,response,,,,100,,,,,,,Space,keypress(Space),,,,,,,,"-- --- ---- --- ------ ----- ------- ---- -- --- ------- --<br>------- ---------- ------ -- 1727, -- ----- -- ---- ------<br>--- ----- --- --- ------ -------- ----- --- ------ ----- --<br>----- ----- ---------- --- --- ------ ------ ---- -- ------<br>------- --- ------ ----- --- ---- ------- -- ---- --- --<br>------- ------",289730.09999999404,289724.1999999881,289253.398,289254.40000000596,289270.065,289736.741,,16,"1727,"
screen,html.Screen,2_1_1_1_17,2022-02-03T14:27:22.893Z,,,,,,,,,,,,,,,,,54,,,,,,,,,,,,,,471.25900000002,,response,,,,100,,,,,,,Space,keypress(Space),,,,,,,,-- --- ---- --- ------ ----- ------- ---- -- --- ------- --<br>------- ---------- ------ -- ----- in ----- -- ---- ------<br>--- ----- --- --- ------ -------- ----- --- ------ ----- --<br>----- ----- ---------- --- --- ------ ------ ---- -- ------<br>------- --- ------ ----- --- ---- ------- -- ---- --- --<br>------- ------,290213.5,290208,289720.074,289730.2999999821,289736.741,290220.084,,17,in
screen,html.Screen,2_1_1_1_18,2022-02-03T14:27:23.429Z,,,,,,,,,,,,,,,,,54,,,,,,,,,,,,,,523.0159999940661,,response,,,,100,,,,,,,Space,keypress(Space),,,,,,,,-- --- ---- --- ------ ----- ------- ---- -- --- ------- --<br>------- ---------- ------ -- ----- -- order -- ---- ------<br>--- ----- --- --- ------ -------- ----- --- ------ ----- --<br>----- ----- ---------- --- --- ------ ------ ---- -- ------<br>------- --- ------ ----- --- ---- ------- -- ---- --- --<br>------- ------,290749.09999999404,290743.09999999404,290203.417,290213.6999999881,290220.084,290753.428,,18,order
screen,html.Screen,2_1_1_1_19,2022-02-03T14:27:23.780Z,,,,,,,,,,,,,,,,,54,,,,,,,,,,,,,,340.47200000594603,,response,,,,100,,,,,,,Space,keypress(Space),,,,,,,,-- --- ---- --- ------ ----- ------- ---- -- --- ------- --<br>------- ---------- ------ -- ----- -- ----- to ---- ------<br>--- ----- --- --- ------ -------- ----- --- ------ ----- --<br>----- ----- ---------- --- --- ------ ------ ---- -- ------<br>------- --- ------ ----- --- ---- ------- -- ---- --- --<br>------- ------,291100.59999999404,291093.90000000596,290736.761,290749.2999999821,290753.428,291103.435,,19,to
screen,html.Screen,2_1_1_1_20,2022-02-03T14:27:24.107Z,,,,,,,,,,,,,,,,,54,,,,,,,,,,,,,,318.66499999404186,,response,,,,100,,,,,,,Space,keypress(Space),,,,,,,,-- --- ---- --- ------ ----- ------- ---- -- --- ------- --<br>------- ---------- ------ -- ----- -- ----- -- save ------<br>--- ----- --- --- ------ -------- ----- --- ------ ----- --<br>----- ----- ---------- --- --- ------ ------ ---- -- ------<br>------- --- ------ ----- --- ---- ------- -- ---- --- --<br>------- ------,291427.59999999404,291422.09999999404,291086.768,291100.90000000596,291103.435,291436.775,,20,save
screen,html.Screen,2_1_1_1_21,2022-02-03T14:27:24.474Z,,,,,,,,,,,,,,,,,54,,,,,,,,,,,,,,352.5249999820953,,response,,,,100,,,,,,,Space,keypress(Space),,,,,,,,"-- --- ---- --- ------ ----- ------- ---- -- --- ------- --<br>------- ---------- ------ -- ----- -- ----- -- ---- money,<br>--- ----- --- --- ------ -------- ----- --- ------ ----- --<br>----- ----- ---------- --- --- ------ ------ ---- -- ------<br>------- --- ------ ----- --- ---- ------- -- ---- --- --<br>------- ------",291795,291789.2999999821,291420.108,291427.7999999821,291436.775,291803.449,,21,"money,"
screen,html.Screen,2_1_1_1_22,2022-02-03T14:27:24.863Z,,,,,,,,,,,,,,,,,54,,,,,,,,,,,,,,374.6509999940172,,response,,,,100,,,,,,,Space,keypress(Space),,,,,,,,-- --- ---- --- ------ ----- ------- ---- -- --- ------- --<br>------- ---------- ------ -- ----- -- ----- -- ---- ------<br>the ----- --- --- ------ -------- ----- --- ------ ----- --<br>----- ----- ---------- --- --- ------ ------ ---- -- ------<br>------- --- ------ ----- --- ---- ------- -- ---- --- --<br>------- ------,292183.7999999821,292178.09999999404,291786.782,291795.1999999881,291803.449,292186.79,,22,the
screen,html.Screen,2_1_1_1_23,2022-02-03T14:27:25.217Z,,,,,,,,,,,,,,,,,54,,,,,,,,,,,,,,345.21000000002095,,response,,,,100,,,,,,,Space,keypress(Space),,,,,,,,-- --- ---- --- ------ ----- ------- ---- -- --- ------- --<br>------- ---------- ------ -- ----- -- ----- -- ---- ------<br>--- state --- --- ------ -------- ----- --- ------ ----- --<br>----- ----- ---------- --- --- ------ ------ ---- -- ------<br>------- --- ------ ----- --- ---- ------- -- ---- --- --<br>------- ------,292537.5,292532,292170.123,292184,292186.79,292553.464,,23,state
screen,html.Screen,2_1_1_1_24,2022-02-03T14:27:25.578Z,,,,,,,,,,,,,,,,,54,,,,,,,,,,,,,,339.5360000000219,,response,,,,100,,,,,,,Space,keypress(Space),,,,,,,,-- --- ---- --- ------ ----- ------- ---- -- --- ------- --<br>------- ---------- ------ -- ----- -- ----- -- ---- ------<br>--- ----- cut --- ------ -------- ----- --- ------ ----- --<br>----- ----- ---------- --- --- ------ ------ ---- -- ------<br>------- --- ------ ----- --- ---- ------- -- ---- --- --<br>------- ------,292898.5,292893,292536.797,292537.59999999404,292553.464,292903.471,,24,cut
screen,html.Screen,2_1_1_1_25,2022-02-03T14:27:25.969Z,,,,,,,,,,,,,,,,,54,,,,,,,,,,,,,,378.52899999998044,,response,,,,100,,,,,,,Space,keypress(Space),,,,,,,,-- --- ---- --- ------ ----- ------- ---- -- --- ------- --<br>------- ---------- ------ -- ----- -- ----- -- ---- ------<br>--- ----- --- the ------ -------- ----- --- ------ ----- --<br>----- ----- ---------- --- --- ------ ------ ---- -- ------<br>------- --- ------ ----- --- ---- ------- -- ---- --- --<br>------- ------,293289.2999999821,293282,292886.804,292898.7999999821,292903.471,293303.479,,25,the
screen,html.Screen,2_1_1_1_26,2022-02-03T14:27:26.300Z,,,,,,,,,,,,,,,,,54,,,,,,,,,,,,,,311.5210000000079,,response,,,,100,,,,,,,Space,keypress(Space),,,,,,,,-- --- ---- --- ------ ----- ------- ---- -- --- ------- --<br>------- ---------- ------ -- ----- -- ----- -- ---- ------<br>--- ----- --- --- bonds' -------- ----- --- ------ ----- --<br>----- ----- ---------- --- --- ------ ------ ---- -- ------<br>------- --- ------ ----- --- ---- ------- -- ---- --- --<br>------- ------,293620.5,293615,293286.812,293289.5,293303.479,293636.819,,26,bonds'
screen,html.Screen,2_1_1_1_27,2022-02-03T14:27:26.695Z,,,,,,,,,,,,,,,,,54,,,,,,,,,,,,,,372.9809999821009,,response,,,,100,,,,,,,Space,keypress(Space),,,,,,,,-- --- ---- --- ------ ----- ------- ---- -- --- ------- --<br>------- ---------- ------ -- ----- -- ----- -- ---- ------<br>--- ----- --- --- ------ interest ----- --- ------ ----- --<br>----- ----- ---------- --- --- ------ ------ ---- -- ------<br>------- --- ------ ----- --- ---- ------- -- ---- --- --<br>------- ------,294015.5,294009.7999999821,293620.152,293620.7999999821,293636.819,294020.16,,27,interest
screen,html.Screen,2_1_1_1_28,2022-02-03T14:27:27.125Z,,,,,,,,,,,,,,,,,54,,,,,,,,,,,,,,419.7400000059861,,response,,,,100,,,,,,,Space,keypress(Space),,,,,,,,-- --- ---- --- ------ ----- ------- ---- -- --- ------- --<br>------- ---------- ------ -- ----- -- ----- -- ---- ------<br>--- ----- --- --- ------ -------- rate. --- ------ ----- --<br>----- ----- ---------- --- --- ------ ------ ---- -- ------<br>------- --- ------ ----- --- ---- ------- -- ---- --- --<br>------- ------,294445.5,294439.90000000596,294003.493,294015.6999999881,294020.16,294453.502,,28,rate.
screen,html.Screen,2_1_1_1_29,2022-02-03T14:27:27.631Z,,,,,,,,,,,,,,,,,54,,,,,,,,,,,,,,492.3980000059819,,response,,,,100,,,,,,,Space,keypress(Space),,,,,,,,-- --- ---- --- ------ ----- ------- ---- -- --- ------- --<br>------- ---------- ------ -- ----- -- ----- -- ---- ------<br>--- ----- --- --- ------ -------- ----- The ------ ----- --<br>----- ----- ---------- --- --- ------ ------ ---- -- ------<br>------- --- ------ ----- --- ---- ------- -- ---- --- --<br>------- ------,294951.59999999404,294945.90000000596,294436.835,294445.6999999881,294453.502,294970.179,,29,The
screen,html.Screen,2_1_1_1_30,2022-02-03T14:27:27.969Z,,,,,,,,,,,,,,,,,54,,,,,,,,,,,,,,313.72100000595674,,response,,,,100,,,,,,,Space,keypress(Space),,,,,,,,-- --- ---- --- ------ ----- ------- ---- -- --- ------- --<br>------- ---------- ------ -- ----- -- ----- -- ---- ------<br>--- ----- --- --- ------ -------- ----- --- market ----- --<br>----- ----- ---------- --- --- ------ ------ ---- -- ------<br>------- --- ------ ----- --- ---- ------- -- ---- --- --<br>------- ------,295289.5,295283.90000000596,294953.512,294951.7999999821,294970.179,295303.519,,30,market
screen,html.Screen,2_1_1_1_31,2022-02-03T14:27:28.340Z,,,,,,,,,,,,,,,,,54,,,,,,,,,,,,,,352.48100000002887,,response,,,,100,,,,,,,Space,keypress(Space),,,,,,,,-- --- ---- --- ------ ----- ------- ---- -- --- ------- --<br>------- ---------- ------ -- ----- -- ----- -- ---- ------<br>--- ----- --- --- ------ -------- ----- --- ------ value --<br>----- ----- ---------- --- --- ------ ------ ---- -- ------<br>------- --- ------ ----- --- ---- ------- -- ---- --- --<br>------- ------,295660.6999999881,295656,295286.852,295289.6999999881,295303.519,295670.193,,31,value
screen,html.Screen,2_1_1_1_32,2022-02-03T14:27:28.685Z,,,,,,,,,,,,,,,,,54,,,,,,,,,,,,,,329.50699998805067,,response,,,,100,,,,,,,Space,keypress(Space),,,,,,,,-- --- ---- --- ------ ----- ------- ---- -- --- ------- --<br>------- ---------- ------ -- ----- -- ----- -- ---- ------<br>--- ----- --- --- ------ -------- ----- --- ------ ----- of<br>----- ----- ---------- --- --- ------ ------ ---- -- ------<br>------- --- ------ ----- --- ---- ------- -- ---- --- --<br>------- ------,296004.90000000596,295999.6999999881,295653.526,295660.90000000596,295670.193,296020.2,,32,of
screen,html.Screen,2_1_1_1_33,2022-02-03T14:27:29.008Z,,,,,,,,,,,,,,,,,54,,,,,,,,,,,,,,302.59999998210697,,response,,,,100,,,,,,,Space,keypress(Space),,,,,,,,-- --- ---- --- ------ ----- ------- ---- -- --- ------- --<br>------- ---------- ------ -- ----- -- ----- -- ---- ------<br>--- ----- --- --- ------ -------- ----- --- ------ ----- --<br>these ----- ---------- --- --- ------ ------ ---- -- ------<br>------- --- ------ ----- --- ---- ------- -- ---- --- --<br>------- ------,296328.5,296322.7999999821,296003.533,296005.09999999404,296020.2,296336.873,,33,these
screen,html.Screen,2_1_1_1_34,2022-02-03T14:27:29.358Z,,,,,,,,,,,,,,,,,54,,,,,,,,,,,,,,335.9269999820972,,response,,,,100,,,,,,,Space,keypress(Space),,,,,,,,-- --- ---- --- ------ ----- ------- ---- -- --- ------- --<br>------- ---------- ------ -- ----- -- ----- -- ---- ------<br>--- ----- --- --- ------ -------- ----- --- ------ ----- --<br>----- bonds ---------- --- --- ------ ------ ---- -- ------<br>------- --- ------ ----- --- ---- ------- -- ---- --- --<br>------- ------,296678.59999999404,296672.7999999821,296320.206,296328.59999999404,296336.873,296686.88,,34,bonds
screen,html.Screen,2_1_1_1_35,2022-02-03T14:27:29.780Z,,,,,,,,,,,,,,,,,54,,,,,,,,,,,,,,407.8199999880744,,response,,,,100,,,,,,,Space,keypress(Space),,,,,,,,"-- --- ---- --- ------ ----- ------- ---- -- --- ------- --<br>------- ---------- ------ -- ----- -- ----- -- ---- ------<br>--- ----- --- --- ------ -------- ----- --- ------ ----- --<br>----- ----- plummeted, --- --- ------ ------ ---- -- ------<br>------- --- ------ ----- --- ---- ------- -- ---- --- --<br>------- ------",297100.2999999821,297094.6999999881,296670.213,296678.90000000596,296686.88,297103.555,,35,"plummeted,"
screen,html.Screen,2_1_1_1_36,2022-02-03T14:27:30.267Z,,,,,,,,,,,,,,,,,54,,,,,,,,,,,,,,478.14499998808606,,response,,,,100,,,,,,,Space,keypress(Space),,,,,,,,-- --- ---- --- ------ ----- ------- ---- -- --- ------- --<br>------- ---------- ------ -- ----- -- ----- -- ---- ------<br>--- ----- --- --- ------ -------- ----- --- ------ ----- --<br>----- ----- ---------- and --- ------ ------ ---- -- ------<br>------- --- ------ ----- --- ---- ------- -- ---- --- --<br>------- ------,297587.40000000596,297581.6999999881,297086.888,297100.6999999881,297103.555,297603.565,,36,and
screen,html.Screen,2_1_1_1_37,2022-02-03T14:27:30.743Z,,,,,,,,,,,,,,,,,54,,,,,,,,,,,,,,453.13499998807674,,response,,,,100,,,,,,,Space,keypress(Space),,,,,,,,-- --- ---- --- ------ ----- ------- ---- -- --- ------- --<br>------- ---------- ------ -- ----- -- ----- -- ---- ------<br>--- ----- --- --- ------ -------- ----- --- ------ ----- --<br>----- ----- ---------- --- the ------ ------ ---- -- ------<br>------- --- ------ ----- --- ---- ------- -- ---- --- --<br>------- ------,298063.6999999881,298056.6999999881,297586.898,297587.59999999404,297603.565,298070.241,,37,the
screen,html.Screen,2_1_1_1_38,2022-02-03T14:27:31.158Z,,,,,,,,,,,,,,,,,54,,,,,,,,,,,,,,402.35899999405956,,response,,,,100,,,,,,,Space,keypress(Space),,,,,,,,-- --- ---- --- ------ ----- ------- ---- -- --- ------- --<br>------- ---------- ------ -- ----- -- ----- -- ---- ------<br>--- ----- --- --- ------ -------- ----- --- ------ ----- --<br>----- ----- ---------- --- --- market ------ ---- -- ------<br>------- --- ------ ----- --- ---- ------- -- ---- --- --<br>------- ------,298478.5,298472.59999999404,298053.574,298063.90000000596,298070.241,298486.916,,38,market
screen,html.Screen,2_1_1_1_39,2022-02-03T14:27:31.557Z,,,,,,,,,,,,,,,,,54,,,,,,,,,,,,,,384.88399998209206,,response,,,,100,,,,,,,Space,keypress(Space),,,,,,,,-- --- ---- --- ------ ----- ------- ---- -- --- ------- --<br>------- ---------- ------ -- ----- -- ----- -- ---- ------<br>--- ----- --- --- ------ -------- ----- --- ------ ----- --<br>----- ----- ---------- --- --- ------ became ---- -- ------<br>------- --- ------ ----- --- ---- ------- -- ---- --- --<br>------- ------,298877.40000000596,298871.7999999821,298470.249,298478.6999999881,298486.916,298886.924,,39,became
screen,html.Screen,2_1_1_1_40,2022-02-03T14:27:31.929Z,,,,,,,,,,,,,,,,,54,,,,,,,,,,,,,,354.77599998808,,response,,,,100,,,,,,,Space,keypress(Space),,,,,,,,-- --- ---- --- ------ ----- ------- ---- -- --- ------- --<br>------- ---------- ------ -- ----- -- ----- -- ---- ------<br>--- ----- --- --- ------ -------- ----- --- ------ ----- --<br>----- ----- ---------- --- --- ------ ------ wary -- ------<br>------- --- ------ ----- --- ---- ------- -- ---- --- --<br>------- ------,299248.90000000596,299241.6999999881,298870.257,298877.59999999404,298886.924,299254.095,,40,wary
screen,html.Screen,2_1_1_1_41,2022-02-03T14:27:32.264Z,,,,,,,,,,,,,,,,,54,,,,,,,,,,,,,,324.5049999940675,,response,,,,100,,,,,,,Space,keypress(Space),,,,,,,,-- --- ---- --- ------ ----- ------- ---- -- --- ------- --<br>------- ---------- ------ -- ----- -- ----- -- ---- ------<br>--- ----- --- --- ------ -------- ----- --- ------ ----- --<br>----- ----- ---------- --- --- ------ ------ ---- of ------<br>------- --- ------ ----- --- ---- ------- -- ---- --- --<br>------- ------,299584.1999999881,299578.59999999404,299237.428,299249.09999999404,299254.095,299587.435,,41,of
screen,html.Screen,2_1_1_1_42,2022-02-03T14:27:32.623Z,,,,,,,,,,,,,,,,,54,,,,,,,,,,,,,,350.16499999404186,,response,,,,100,,,,,,,Space,keypress(Space),,,,,,,,-- --- ---- --- ------ ----- ------- ---- -- --- ------- --<br>------- ---------- ------ -- ----- -- ----- -- ---- ------<br>--- ----- --- --- ------ -------- ----- --- ------ ----- --<br>----- ----- ---------- --- --- ------ ------ ---- -- French<br>------- --- ------ ----- --- ---- ------- -- ---- --- --<br>------- ------,299943.1999999881,299937.59999999404,299570.768,299584.40000000596,299587.435,299954.109,,42,French
screen,html.Screen,2_1_1_1_43,2022-02-03T14:27:32.985Z,,,,,,,,,,,,,,,,,54,,,,,,,,,,,,,,345.39100000000326,,response,,,,100,,,,,,,Space,keypress(Space),,,,,,,,-- --- ---- --- ------ ----- ------- ---- -- --- ------- --<br>------- ---------- ------ -- ----- -- ----- -- ---- ------<br>--- ----- --- --- ------ -------- ----- --- ------ ----- --<br>----- ----- ---------- --- --- ------ ------ ---- -- ------<br>credit. --- ------ ----- --- ---- ------- -- ---- --- --<br>------- ------,300305.09999999404,300299.5,299937.442,299943.40000000596,299954.109,300320.783,,43,credit.
screen,html.Screen,2_1_1_1_44,2022-02-03T14:27:33.457Z,,,,,,,,,,,,,,,,,54,,,,,,,,,,,,,,450.7170000000042,,response,,,,100,,,,,,,Space,keypress(Space),,,,,,,,-- --- ---- --- ------ ----- ------- ---- -- --- ------- --<br>------- ---------- ------ -- ----- -- ----- -- ---- ------<br>--- ----- --- --- ------ -------- ----- --- ------ ----- --<br>----- ----- ---------- --- --- ------ ------ ---- -- ------<br>------- The ------ ----- --- ---- ------- -- ---- --- --<br>------- ------,300777.1999999881,300771.5,300304.116,300305.2999999821,300320.783,300787.459,,44,The
screen,html.Screen,2_1_1_1_45,2022-02-03T14:27:33.985Z,,,,,,,,,,,,,,,,,54,,,,,,,,,,,,,,512.1409999940661,,response,,,,100,,,,,,,Space,keypress(Space),,,,,,,,-- --- ---- --- ------ ----- ------- ---- -- --- ------- --<br>------- ---------- ------ -- ----- -- ----- -- ---- ------<br>--- ----- --- --- ------ -------- ----- --- ------ ----- --<br>----- ----- ---------- --- --- ------ ------ ---- -- ------<br>------- --- French ----- --- ---- ------- -- ---- --- --<br>------- ------,301305.2999999821,301299.59999999404,300770.792,300777.40000000596,300787.459,301320.803,,45,French
screen,html.Screen,2_1_1_1_46,2022-02-03T14:27:34.358Z,,,,,,,,,,,,,,,,,54,,,,,,,,,,,,,,351.69699999998556,,response,,,,100,,,,,,,Space,keypress(Space),,,,,,,,-- --- ---- --- ------ ----- ------- ---- -- --- ------- --<br>------- ---------- ------ -- ----- -- ----- -- ---- ------<br>--- ----- --- --- ------ -------- ----- --- ------ ----- --<br>----- ----- ---------- --- --- ------ ------ ---- -- ------<br>------- --- ------ state --- ---- ------- -- ---- --- --<br>------- ------,301678,301672.5,301304.136,301305.5,301320.803,301687.477,,46,state
screen,html.Screen,2_1_1_1_47,2022-02-03T14:27:34.710Z,,,,,,,,,,,,,,,,,54,,,,,,,,,,,,,,336.92300000594696,,response,,,,100,,,,,,,Space,keypress(Space),,,,,,,,-- --- ---- --- ------ ----- ------- ---- -- --- ------- --<br>------- ---------- ------ -- ----- -- ----- -- ---- ------<br>--- ----- --- --- ------ -------- ----- --- ------ ----- --<br>----- ----- ---------- --- --- ------ ------ ---- -- ------<br>------- --- ------ ----- was ---- ------- -- ---- --- --<br>------- ------,302029.90000000596,302024.40000000596,301670.81,301678.1999999881,301687.477,302037.484,,47,was
screen,html.Screen,2_1_1_1_48,2022-02-03T14:27:35.071Z,,,,,,,,,,,,,,,,,54,,,,,,,,,,,,,,348.01600000000326,,response,,,,100,,,,,,,Space,keypress(Space),,,,,,,,-- --- ---- --- ------ ----- ------- ---- -- --- ------- --<br>------- ---------- ------ -- ----- -- ----- -- ---- ------<br>--- ----- --- --- ------ -------- ----- --- ------ ----- --<br>----- ----- ---------- --- --- ------ ------ ---- -- ------<br>------- --- ------ ----- --- left ------- -- ---- --- --<br>------- ------,302391.1999999881,302385.5,302020.817,302030.1999999881,302037.484,302404.158,,48,left
screen,html.Screen,2_1_1_1_49,2022-02-03T14:27:35.502Z,,,,,,,,,,,,,,,,,54,,,,,,,,,,,,,,412.24200000596466,,response,,,,100,,,,,,,Space,keypress(Space),,,,,,,,-- --- ---- --- ------ ----- ------- ---- -- --- ------- --<br>------- ---------- ------ -- ----- -- ----- -- ---- ------<br>--- ----- --- --- ------ -------- ----- --- ------ ----- --<br>----- ----- ---------- --- --- ------ ------ ---- -- ------<br>------- --- ------ ----- --- ---- without -- ---- --- --<br>------- ------,302822.2999999821,302816.40000000596,302387.491,302391.40000000596,302404.158,302837.5,,49,without
screen,html.Screen,2_1_1_1_50,2022-02-03T14:27:35.860Z,,,,,,,,,,,,,,,,,54,,,,,,,,,,,,,,336.90000000596046,,response,,,,100,,,,,,,Space,keypress(Space),,,,,,,,-- --- ---- --- ------ ----- ------- ---- -- --- ------- --<br>------- ---------- ------ -- ----- -- ----- -- ---- ------<br>--- ----- --- --- ------ -------- ----- --- ------ ----- --<br>----- ----- ---------- --- --- ------ ------ ---- -- ------<br>------- --- ------ ----- --- ---- ------- an ---- --- --<br>------- ------,303180.1999999881,303174.40000000596,302820.833,302822.5,302837.5,303187.507,,50,an
screen,html.Screen,2_1_1_1_51,2022-02-03T14:27:36.239Z,,,,,,,,,,,,,,,,,54,,,,,,,,,,,,,,364.79299998213537,,response,,,,100,,,,,,,Space,keypress(Space),,,,,,,,-- --- ---- --- ------ ----- ------- ---- -- --- ------- --<br>------- ---------- ------ -- ----- -- ----- -- ---- ------<br>--- ----- --- --- ------ -------- ----- --- ------ ----- --<br>----- ----- ---------- --- --- ------ ------ ---- -- ------<br>------- --- ------ ----- --- ---- ------- -- easy --- --<br>------- ------,303558.90000000596,303552.2999999821,303170.84,303180.40000000596,303187.507,303570.848,,51,easy
screen,html.Screen,2_1_1_1_52,2022-02-03T14:27:36.612Z,,,,,,,,,,,,,,,,,54,,,,,,,,,,,,,,355.45199998212047,,response,,,,100,,,,,,,Space,keypress(Space),,,,,,,,-- --- ---- --- ------ ----- ------- ---- -- --- ------- --<br>------- ---------- ------ -- ----- -- ----- -- ---- ------<br>--- ----- --- --- ------ -------- ----- --- ------ ----- --<br>----- ----- ---------- --- --- ------ ------ ---- -- ------<br>------- --- ------ ----- --- ---- ------- -- ---- way --<br>------- ------,303932.09999999404,303926.2999999821,303554.181,303559.09999999404,303570.848,303937.522,,52,way
screen,html.Screen,2_1_1_1_53,2022-02-03T14:27:36.974Z,,,,,,,,,,,,,,,,,54,,,,,,,,,,,,,,350.67799998808187,,response,,,,100,,,,,,,Space,keypress(Space),,,,,,,,-- --- ---- --- ------ ----- ------- ---- -- --- ------- --<br>------- ---------- ------ -- ----- -- ----- -- ---- ------<br>--- ----- --- --- ------ -------- ----- --- ------ ----- --<br>----- ----- ---------- --- --- ------ ------ ---- -- ------<br>------- --- ------ ----- --- ---- ------- -- ---- --- of<br>------- ------,304293.7999999821,304288.1999999881,303920.855,303932.1999999881,303937.522,304304.196,,53,of
screen,html.Screen,2_1_1_1_54,2022-02-03T14:27:37.301Z,,,,,,,,,,,,,,,,,54,,,,,,,,,,,,,,311.2040000059642,,response,,,,100,,,,,,,Space,keypress(Space),,,,,,,,-- --- ---- --- ------ ----- ------- ---- -- --- ------- --<br>------- ---------- ------ -- ----- -- ----- -- ---- ------<br>--- ----- --- --- ------ -------- ----- --- ------ ----- --<br>----- ----- ---------- --- --- ------ ------ ---- -- ------<br>------- --- ------ ----- --- ---- ------- -- ---- --- --<br>raising ------,304620.90000000596,304615.40000000596,304287.529,304294,304304.196,304637.536,,54,raising
screen,html.Screen,2_1_1_1_55,2022-02-03T14:27:39.476Z,,,,,,,,,,,,,,,,,54,,,,,,,,,,,,,,2152.8640000059386,,response,,,,100,,,,,,,Space,keypress(Space),,,,,,,,-- --- ---- --- ------ ----- ------- ---- -- --- ------- --<br>------- ---------- ------ -- ----- -- ----- -- ---- ------<br>--- ----- --- --- ------ -------- ----- --- ------ ----- --<br>----- ----- ---------- --- --- ------ ------ ---- -- ------<br>------- --- ------ ----- --- ---- ------- -- ---- --- --<br>------- money.,306796,306790.40000000596,304620.869,304621.09999999404,304637.536,306820.913,,55,money.
Item 100,flow.Loop,2_1_1_1,2022-02-03T14:27:39.476Z,,,,,,,,,,,,,,,,,,,,,,,,,,,,,,,24604.307000005967,,completion,,,,,A,,,,,,,,,,,silence,,,,,306796.40000000596,306790.40000000596,282169.426,282171.6999999881,282186.093,306820.913,,,
Question 1,html.Screen,2_1_1_2,2022-02-03T14:27:41.626Z,,,,,,,,,,,,,,,,,,,,,,,,,,,,true,TRUE,,2122.2869999880786,,response,,,,100,A,,,,,,TRUE,click #choice-1,,,,silence,,,,,308946.40000000596,308943.1999999881,306804.246,306807.40000000596,306820.913,308954.289,,,
Question 2,html.Screen,2_1_1_3,2022-02-03T14:27:44.190Z,,,,,,,,,,,,,,,,,,,,,,,,,,,,true,FALSE,,2552.6110000059707,,response,,,,100,A,,,,,,FALSE,click #choice-2,,,,silence,,,,,311510.2999999821,311506.90000000596,308937.622,308946.5,308954.289,311521.511,,,
Item 100,flow.Sequence,2_1_1,2022-02-03T14:27:44.191Z,,,,,,,,,,,,,,,,,,,,,,,,,,,,,,,39321.53500000597,,completion,,,,,,,,,,,,,,,,,,,,,311510.59999999404,311506.90000000596,272168.698,272184.59999999404,272185.365,311521.511,,,
End of Practice,html.Page,2_1_2,2022-02-03T14:27:49.427Z,,,,,,,,,,,,,,,,,,,,,,,,,,,,,,,5225.588999994041,,form submission,,,,,,,,,,,,,,,,,,,,,316747.40000000596,316747.09999999404,311504.844,311510.6999999881,311521.511,316754.949,,,
Practice,flow.Sequence,2_1,2022-02-03T14:27:49.428Z,,,,,,,,,,,,,,,,,,,,,,,,,,,,,,,87598.76399999403,,completion,,,,,,,,,,,,,,,,,,,,,316747.6999999881,316747.09999999404,229081.668,229128.79999998212,229148.336,316754.949,,,
Trap_instruction,html.Page,2_2_0,2022-02-03T14:27:52.163Z,,,,,,,,,,,,,,,,,,,,,,,,,,,,,,,2727.2509999880567,,form submission,,,,,,,,,,,,,,,,,,,,,319482.5,319482.1999999881,316738.282,316747.90000000596,316754.949,319555.005,,,
trap_trial,html.Screen,2_2_1,2022-02-03T14:27:55.083Z,,,,,,,,,,,,,,,,,,,,,,,,,,,,true,1,,2844.4949999999953,,response,,,,,,,,,,,1,click #choice-1,,,,,,,,,322402.7999999821,322399.5,319471.67,319482.6999999881,319555.005,322405.599,,,
end of trap trial,html.Page,2_2_2,2022-02-03T14:27:56.766Z,,,,,,,,,,,,,,,,,,,,,,,,,,,,,,,1679.9010000000126,,form submission,,,,,,,,,,,,,,,,,,,,,324085.7999999821,324085.5,322388.932,322403,322405.599,324088.966,,,
Trap 1,flow.Sequence,2_2,2022-02-03T14:27:56.766Z,,,,,,,,,,,,,,,,,,,,,,,,,,,,,,,7330.550999999978,,completion,,,,,,,,,,,,,,,,,,,,,324086.09999999404,324085.5,316738.282,316747.7999999821,316754.949,324088.966,,,
Standby,html.Page,2_3_0,2022-02-03T14:28:04.755Z,,,,,,,,,,,,,,,,,,,,,,,,,,,,,,,8000.159999999974,,timeout,,,,,,,,,,,,,,,,,,,,,332074.5,332072.459,324072.299,324086.2999999821,324088.966,332089.126,,,
Holding screen,html.Screen,2_3_1_0_0,2022-02-03T14:28:11.756Z,,,,,,,,,,,,,,,,,,,,,,,,,,,,,,,7000.699000000022,,timeout,,,,,,,,,,,,,,,,,,,,,339075.5,339073.158,332072.459,332074.7999999821,332089.126,339089.825,,,
screen,html.Screen,2_3_1_0_1_0,2022-02-03T14:28:14.622Z,,,,,,,,,,,,,,,,,2,,,,,,,,,,,,,,2843.575000005949,,response,,,,1,A,,,,,,Space,keypress(Space),,,,silence,,,,Two ---- ------ --- ------- ---------- ------- ----------<br>--- --------- --- ----------- ------- ----- ------- ---<br>--------- ---- -- --- ---- -- --------- -- ---- -------<br>-- --------- ------ --- ----- ------ ---- --- --------- --<br>------ - ---- -- --- ----------- ------- ---- ----- -----<br>--- -------- - ------ ---- -- ----- ---- --- --- -----------<br>-- -------,341941.90000000596,341933.40000000596,339073.158,339075.7999999821,339089.825,341956.549,,0,Two
screen,html.Screen,2_3_1_0_1_1,2022-02-03T14:28:15.037Z,,,,,,,,,,,,,,,,,2,,,,,,,,,,,,,,394.3510000059614,,response,,,,1,A,,,,,,Space,keypress(Space),,,,silence,,,,--- days ------ --- ------- ---------- ------- ----------<br>--- --------- --- ----------- ------- ----- ------- ---<br>--------- ---- -- --- ---- -- --------- -- ---- -------<br>-- --------- ------ --- ----- ------ ---- --- --------- --<br>------ - ---- -- --- ----------- ------- ---- ----- -----<br>--- -------- - ------ ---- -- ----- ---- --- --- -----------<br>-- -------,342356.59999999404,342350.90000000596,341939.882,341942.59999999404,341956.549,342373.224,,1,days
screen,html.Screen,2_3_1_0_1_2,2022-02-03T14:28:15.451Z,,,,,,,,,,,,,,,,,2,,,,,,,,,,,,,,391.67600000597304,,response,,,,1,A,,,,,,Space,keypress(Space),,,,silence,,,,"--- ---- later, --- ------- ---------- ------- ----------<br>--- --------- --- ----------- ------- ----- ------- ---<br>--------- ---- -- --- ---- -- --------- -- ---- -------<br>-- --------- ------ --- ----- ------ ---- --- --------- --<br>------ - ---- -- --- ----------- ------- ---- ----- -----<br>--- -------- - ------ ---- -- ----- ---- --- --- -----------<br>-- -------",342770.5,342764.90000000596,342356.557,342356.7999999821,342373.224,342773.232,,2,"later,"
screen,html.Screen,2_3_1_0_1_3,2022-02-03T14:28:15.889Z,,,,,,,,,,,,,,,,,2,,,,,,,,,,,,,,428.56799998210045,,response,,,,1,A,,,,,,Space,keypress(Space),,,,silence,,,,--- ---- ------ the ------- ---------- ------- ----------<br>--- --------- --- ----------- ------- ----- ------- ---<br>--------- ---- -- --- ---- -- --------- -- ---- -------<br>-- --------- ------ --- ----- ------ ---- --- --------- --<br>------ - ---- -- --- ----------- ------- ---- ----- -----<br>--- -------- - ------ ---- -- ----- ---- --- --- -----------<br>-- -------,343208.09999999404,343201.7999999821,342756.565,342770.6999999881,342773.232,343223.795,,3,the
screen,html.Screen,2_3_1_0_1_4,2022-02-03T14:28:16.226Z,,,,,,,,,,,,,,,,,2,,,,,,,,,,,,,,317.10500000597676,,response,,,,1,A,,,,,,Space,keypress(Space),,,,silence,,,,--- ---- ------ --- British ---------- ------- ----------<br>--- --------- --- ----------- ------- ----- ------- ---<br>--------- ---- -- --- ---- -- --------- -- ---- -------<br>-- --------- ------ --- ----- ------ ---- --- --------- --<br>------ - ---- -- --- ----------- ------- ---- ----- -----<br>--- -------- - ------ ---- -- ----- ---- --- --- -----------<br>-- -------,343545.5,343540.90000000596,343207.128,343208.40000000596,343223.795,343557.135,,4,British
screen,html.Screen,2_3_1_0_1_5,2022-02-03T14:28:16.624Z,,,,,,,,,,,,,,,,,2,,,,,,,,,,,,,,380.76500000595115,,response,,,,1,A,,,,,,Space,keypress(Space),,,,silence,,,,--- ---- ------ --- ------- astronomer ------- ----------<br>--- --------- --- ----------- ------- ----- ------- ---<br>--------- ---- -- --- ---- -- --------- -- ---- -------<br>-- --------- ------ --- ----- ------ ---- --- --------- --<br>------ - ---- -- --- ----------- ------- ---- ----- -----<br>--- -------- - ------ ---- -- ----- ---- --- --- -----------<br>-- -------,343943.5,343937.90000000596,343540.468,343545.59999999404,343557.135,343957.143,,5,astronomer
screen,html.Screen,2_3_1_0_1_6,2022-02-03T14:28:16.976Z,,,,,,,,,,,,,,,,,2,,,,,,,,,,,,,,332.65699998213677,,response,,,,1,A,,,,,,Space,keypress(Space),,,,silence,,,,--- ---- ------ --- ------- ---------- Richard ----------<br>--- --------- --- ----------- ------- ----- ------- ---<br>--------- ---- -- --- ---- -- --------- -- ---- -------<br>-- --------- ------ --- ----- ------ ---- --- --------- --<br>------ - ---- -- --- ----------- ------- ---- ----- -----<br>--- -------- - ------ ---- -- ----- ---- --- --- -----------<br>-- -------,344295.7999999821,344289.7999999821,343940.476,343943.59999999404,343957.143,344307.15,,6,Richard
screen,html.Screen,2_3_1_0_1_7,2022-02-03T14:28:17.280Z,,,,,,,,,,,,,,,,,2,,,,,,,,,,,,,,285.5499999880558,,response,,,,1,A,,,,,,Space,keypress(Space),,,,silence,,,,--- ---- ------ --- ------- ---------- ------- Carrington<br>--- --------- --- ----------- ------- ----- ------- ---<br>--------- ---- -- --- ---- -- --------- -- ---- -------<br>-- --------- ------ --- ----- ------ ---- --- --------- --<br>------ - ---- -- --- ----------- ------- ---- ----- -----<br>--- -------- - ------ ---- -- ----- ---- --- --- -----------<br>-- -------,344599.7999999821,344592.6999999881,344290.483,344295.90000000596,344307.15,344607.156,,7,Carrington
screen,html.Screen,2_3_1_0_1_8,2022-02-03T14:28:17.696Z,,,,,,,,,,,,,,,,,2,,,,,,,,,,,,,,402.54399998806184,,response,,,,1,A,,,,,,Space,keypress(Space),,,,silence,,,,--- ---- ------ --- ------- ---------- ------- ----------<br>was --------- --- ----------- ------- ----- ------- ---<br>--------- ---- -- --- ---- -- --------- -- ---- -------<br>-- --------- ------ --- ----- ------ ---- --- --------- --<br>------ - ---- -- --- ----------- ------- ---- ----- -----<br>--- -------- - ------ ---- -- ----- ---- --- --- -----------<br>-- -------,345015.40000000596,345009.6999999881,344590.489,344599.90000000596,344607.156,345023.831,,8,was
screen,html.Screen,2_3_1_0_1_9,2022-02-03T14:28:18.066Z,,,,,,,,,,,,,,,,,2,,,,,,,,,,,,,,355.968999982113,,response,,,,1,A,,,,,,Space,keypress(Space),,,,silence,,,,--- ---- ------ --- ------- ---------- ------- ----------<br>--- observing --- ----------- ------- ----- ------- ---<br>--------- ---- -- --- ---- -- --------- -- ---- -------<br>-- --------- ------ --- ----- ------ ---- --- --------- --<br>------ - ---- -- --- ----------- ------- ---- ----- -----<br>--- -------- - ------ ---- -- ----- ---- --- --- -----------<br>-- -------,345385.40000000596,345379.7999999821,345007.164,345015.59999999404,345023.831,345390.505,,9,observing
screen,html.Screen,2_3_1_0_1_10,2022-02-03T14:28:18.473Z,,,,,,,,,,,,,,,,,2,,,,,,,,,,,,,,396.1949999880744,,response,,,,1,A,,,,,,Space,keypress(Space),,,,silence,,,,--- ---- ------ --- ------- ---------- ------- ----------<br>--- --------- the ----------- ------- ----- ------- ---<br>--------- ---- -- --- ---- -- --------- -- ---- -------<br>-- --------- ------ --- ----- ------ ---- --- --------- --<br>------ - ---- -- --- ----------- ------- ---- ----- -----<br>--- -------- - ------ ---- -- ----- ---- --- --- -----------<br>-- -------,345792.5,345786.6999999881,345373.838,345385.59999999404,345390.505,345807.18,,10,the
screen,html.Screen,2_3_1_0_1_11,2022-02-03T14:28:18.865Z,,,,,,,,,,,,,,,,,2,,,,,,,,,,,,,,371.51999998808606,,response,,,,1,A,,,,,,Space,keypress(Space),,,,silence,,,,--- ---- ------ --- ------- ---------- ------- ----------<br>--- --------- --- interesting ------- ----- ------- ---<br>--------- ---- -- --- ---- -- --------- -- ---- -------<br>-- --------- ------ --- ----- ------ ---- --- --------- --<br>------ - ---- -- --- ----------- ------- ---- ----- -----<br>--- -------- - ------ ---- -- ----- ---- --- --- -----------<br>-- -------,346184.2999999821,346178.6999999881,345790.513,345792.7999999821,345807.18,346190.521,,11,interesting
screen,html.Screen,2_3_1_0_1_12,2022-02-03T14:28:19.202Z,,,,,,,,,,,,,,,,,2,,,,,,,,,,,,,,325.17899998807115,,response,,,,1,A,,,,,,Space,keypress(Space),,,,silence,,,,--- ---- ------ --- ------- ---------- ------- ----------<br>--- --------- --- ----------- sunspot ----- ------- ---<br>--------- ---- -- --- ---- -- --------- -- ---- -------<br>-- --------- ------ --- ----- ------ ---- --- --------- --<br>------ - ---- -- --- ----------- ------- ---- ----- -----<br>--- -------- - ------ ---- -- ----- ---- --- --- -----------<br>-- -------,346521.2999999821,346515.6999999881,346173.854,346184.5,346190.521,346523.861,,12,sunspot
screen,html.Screen,2_3_1_0_1_13,2022-02-03T14:28:19.877Z,,,,,,,,,,,,,,,,,2,,,,,,,,,,,,,,665.6390000000247,,response,,,,1,A,,,,,,Space,keypress(Space),,,,silence,,,,--- ---- ------ --- ------- ---------- ------- ----------<br>--- --------- --- ----------- ------- group ------- ---<br>--------- ---- -- --- ---- -- --------- -- ---- -------<br>-- --------- ------ --- ----- ------ ---- --- --------- --<br>------ - ---- -- --- ----------- ------- ---- ----- -----<br>--- -------- - ------ ---- -- ----- ---- --- --- -----------<br>-- -------,347196.59999999404,347189.5,346507.194,346521.40000000596,346523.861,347207.208,,13,group
screen,html.Screen,2_3_1_0_1_14,2022-02-03T14:28:20.171Z,,,,,,,,,,,,,,,,,2,,,,,,,,,,,,,,277.39199999405537,,response,,,,1,A,,,,,,Space,keypress(Space),,,,silence,,,,--- ---- ------ --- ------- ---------- ------- ----------<br>--- --------- --- ----------- ------- ----- through ---<br>--------- ---- -- --- ---- -- --------- -- ---- -------<br>-- --------- ------ --- ----- ------ ---- --- --------- --<br>------ - ---- -- --- ----------- ------- ---- ----- -----<br>--- -------- - ------ ---- -- ----- ---- --- --- -----------<br>-- -------,347490.2999999821,347484.59999999404,347190.541,347196.7999999821,347207.208,347507.214,,14,through
screen,html.Screen,2_3_1_0_1_15,2022-02-03T14:28:20.535Z,,,,,,,,,,,,,,,,,2,,,,,,,,,,,,,,341.3859999940614,,response,,,,1,A,,,,,,Space,keypress(Space),,,,silence,,,,--- ---- ------ --- ------- ---------- ------- ----------<br>--- --------- --- ----------- ------- ----- ------- his<br>--------- ---- -- --- ---- -- --------- -- ---- -------<br>-- --------- ------ --- ----- ------ ---- --- --------- --<br>------ - ---- -- --- ----------- ------- ---- ----- -----<br>--- -------- - ------ ---- -- ----- ---- --- --- -----------<br>-- -------,347854.2999999821,347848.59999999404,347490.547,347490.5,347507.214,347857.221,,15,his
screen,html.Screen,2_3_1_0_1_16,2022-02-03T14:28:20.925Z,,,,,,,,,,,,,,,,,2,,,,,,,,,,,,,,381.27899999998044,,response,,,,1,A,,,,,,Space,keypress(Space),,,,silence,,,,--- ---- ------ --- ------- ---------- ------- ----------<br>--- --------- --- ----------- ------- ----- ------- ---<br>telescope ---- -- --- ---- -- --------- -- ---- -------<br>-- --------- ------ --- ----- ------ ---- --- --------- --<br>------ - ---- -- --- ----------- ------- ---- ----- -----<br>--- -------- - ------ ---- -- ----- ---- --- --- -----------<br>-- -------,348244.2999999821,348238.5,347840.554,347854.40000000596,347857.221,348257.229,,16,telescope
screen,html.Screen,2_3_1_0_1_17,2022-02-03T14:28:21.330Z,,,,,,,,,,,,,,,,,2,,,,,,,,,,,,,,386.2710000000079,,response,,,,1,A,,,,,,Space,keypress(Space),,,,silence,,,,--- ---- ------ --- ------- ---------- ------- ----------<br>--- --------- --- ----------- ------- ----- ------- ---<br>--------- when -- --- ---- -- --------- -- ---- -------<br>-- --------- ------ --- ----- ------ ---- --- --------- --<br>------ - ---- -- --- ----------- ------- ---- ----- -----<br>--- -------- - ------ ---- -- ----- ---- --- --- -----------<br>-- -------,348649.40000000596,348643.5,348240.562,348244.5,348257.229,348657.237,,17,when
screen,html.Screen,2_3_1_0_1_18,2022-02-03T14:28:21.728Z,,,,,,,,,,,,,,,,,2,,,,,,,,,,,,,,384.3629999940167,,response,,,,1,A,,,,,,Space,keypress(Space),,,,silence,,,,--- ---- ------ --- ------- ---------- ------- ----------<br>--- --------- --- ----------- ------- ----- ------- ---<br>--------- ---- he --- ---- -- --------- -- ---- -------<br>-- --------- ------ --- ----- ------ ---- --- --------- --<br>------ - ---- -- --- ----------- ------- ---- ----- -----<br>--- -------- - ------ ---- -- ----- ---- --- --- -----------<br>-- -------,349047.09999999404,349041.59999999404,348640.57,348649.6999999881,348657.237,349057.245,,18,he
screen,html.Screen,2_3_1_0_1_19,2022-02-03T14:28:22.345Z,,,,,,,,,,,,,,,,,2,,,,,,,,,,,,,,601.2550000000047,,response,,,,1,A,,,,,,Space,keypress(Space),,,,silence,,,,--- ---- ------ --- ------- ---------- ------- ----------<br>--- --------- --- ----------- ------- ----- ------- ---<br>--------- ---- -- saw ---- -- --------- -- ---- -------<br>-- --------- ------ --- ----- ------ ---- --- --------- --<br>------ - ---- -- --- ----------- ------- ---- ----- -----<br>--- -------- - ------ ---- -- ----- ---- --- --- -----------<br>-- -------,349664.6999999881,349658.5,349040.578,349047.2999999821,349057.245,349673.924,,19,saw
screen,html.Screen,2_3_1_0_1_20,2022-02-03T14:28:22.720Z,,,,,,,,,,,,,,,,,2,,,,,,,,,,,,,,359.57600000000093,,response,,,,1,A,,,,,,Space,keypress(Space),,,,silence,,,,--- ---- ------ --- ------- ---------- ------- ----------<br>--- --------- --- ----------- ------- ----- ------- ---<br>--------- ---- -- --- what -- --------- -- ---- -------<br>-- --------- ------ --- ----- ------ ---- --- --------- --<br>------ - ---- -- --- ----------- ------- ---- ----- -----<br>--- -------- - ------ ---- -- ----- ---- --- --- -----------<br>-- -------,350039.09999999404,350033.5,349657.257,349664.90000000596,349673.924,350057.265,,20,what
screen,html.Screen,2_3_1_0_1_21,2022-02-03T14:28:23.055Z,,,,,,,,,,,,,,,,,2,,,,,,,,,,,,,,311.03499998210464,,response,,,,1,A,,,,,,Space,keypress(Space),,,,silence,,,,--- ---- ------ --- ------- ---------- ------- ----------<br>--- --------- --- ----------- ------- ----- ------- ---<br>--------- ---- -- --- ---- he --------- -- ---- -------<br>-- --------- ------ --- ----- ------ ---- --- --------- --<br>------ - ---- -- --- ----------- ------- ---- ----- -----<br>--- -------- - ------ ---- -- ----- ---- --- --- -----------<br>-- -------,350374,350368.2999999821,350040.598,350039.2999999821,350057.265,350390.605,,21,he
screen,html.Screen,2_3_1_0_1_22,2022-02-03T14:28:23.377Z,,,,,,,,,,,,,,,,,2,,,,,,,,,,,,,,299.7950000059791,,response,,,,1,A,,,,,,Space,keypress(Space),,,,silence,,,,--- ---- ------ --- ------- ---------- ------- ----------<br>--- --------- --- ----------- ------- ----- ------- ---<br>--------- ---- -- --- ---- -- described -- ---- -------<br>-- --------- ------ --- ----- ------ ---- --- --------- --<br>------ - ---- -- --- ----------- ------- ---- ----- -----<br>--- -------- - ------ ---- -- ----- ---- --- --- -----------<br>-- -------,350696.09999999404,350690.40000000596,350373.938,350374.09999999404,350390.605,350707.278,,22,described
screen,html.Screen,2_3_1_0_1_23,2022-02-03T14:28:23.710Z,,,,,,,,,,,,,,,,,2,,,,,,,,,,,,,,316.22200000000885,,response,,,,1,A,,,,,,Space,keypress(Space),,,,silence,,,,--- ---- ------ --- ------- ---------- ------- ----------<br>--- --------- --- ----------- ------- ----- ------- ---<br>--------- ---- -- --- ---- -- --------- as ---- -------<br>-- --------- ------ --- ----- ------ ---- --- --------- --<br>------ - ---- -- --- ----------- ------- ---- ----- -----<br>--- -------- - ------ ---- -- ----- ---- --- --- -----------<br>-- -------,351029.09999999404,351023.5,350690.611,350696.2999999821,350707.278,351040.618,,23,as
screen,html.Screen,2_3_1_0_1_24,2022-02-03T14:28:24.034Z,,,,,,,,,,,,,,,,,2,,,,,,,,,,,,,,306.5819999880623,,response,,,,1,A,,,,,,Space,keypress(Space),,,,silence,,,,"--- ---- ------ --- ------- ---------- ------- ----------<br>--- --------- --- ----------- ------- ----- ------- ---<br>--------- ---- -- --- ---- -- --------- -- ""two -------<br>-- --------- ------ --- ----- ------ ---- --- --------- --<br>------ - ---- -- --- ----------- ------- ---- ----- -----<br>--- -------- - ------ ---- -- ----- ---- --- --- -----------<br>-- -------",351353.09999999404,351347.1999999881,351023.951,351029.2999999821,351040.618,351357.291,,24,"""two"
screen,html.Screen,2_3_1_0_1_25,2022-02-03T14:28:24.394Z,,,,,,,,,,,,,,,,,2,,,,,,,,,,,,,,350.1090000059339,,response,,,,1,A,,,,,,Space,keypress(Space),,,,silence,,,,--- ---- ------ --- ------- ---------- ------- ----------<br>--- --------- --- ----------- ------- ----- ------- ---<br>--------- ---- -- --- ---- -- --------- -- ---- patches<br>-- --------- ------ --- ----- ------ ---- --- --------- --<br>------ - ---- -- --- ----------- ------- ---- ----- -----<br>--- -------- - ------ ---- -- ----- ---- --- --- -----------<br>-- -------,351713.09999999404,351707.40000000596,351340.624,351353.2999999821,351357.291,351723.965,,25,patches
screen,html.Screen,2_3_1_0_1_26,2022-02-03T14:28:24.788Z,,,,,,,,,,,,,,,,,2,,,,,,,,,,,,,,371.23499998805346,,response,,,,1,A,,,,,,Space,keypress(Space),,,,silence,,,,--- ---- ------ --- ------- ---------- ------- ----------<br>--- --------- --- ----------- ------- ----- ------- ---<br>--------- ---- -- --- ---- -- --------- -- ---- -------<br>of --------- ------ --- ----- ------ ---- --- --------- --<br>------ - ---- -- --- ----------- ------- ---- ----- -----<br>--- -------- - ------ ---- -- ----- ---- --- --- -----------<br>-- -------,352106.90000000596,352095.1999999881,351707.298,351713.2999999821,351723.965,352123.973,,26,of
screen,html.Screen,2_3_1_0_1_27,2022-02-03T14:28:25.115Z,,,,,,,,,,,,,,,,,2,,,,,,,,,,,,,,305.22699998808093,,response,,,,1,A,,,,,,Space,keypress(Space),,,,silence,,,,--- ---- ------ --- ------- ---------- ------- ----------<br>--- --------- --- ----------- ------- ----- ------- ---<br>--------- ---- -- --- ---- -- --------- -- ---- -------<br>-- intensely ------ --- ----- ------ ---- --- --------- --<br>------ - ---- -- --- ----------- ------- ---- ----- -----<br>--- -------- - ------ ---- -- ----- ---- --- --- -----------<br>-- -------,352434,352429.1999999881,352107.306,352107.09999999404,352123.973,352440.646,,27,intensely
screen,html.Screen,2_3_1_0_1_28,2022-02-03T14:28:25.536Z,,,,,,,,,,,,,,,,,2,,,,,,,,,,,,,,408.6539999821107,,response,,,,1,A,,,,,,Space,keypress(Space),,,,silence,,,,--- ---- ------ --- ------- ---------- ------- ----------<br>--- --------- --- ----------- ------- ----- ------- ---<br>--------- ---- -- --- ---- -- --------- -- ---- -------<br>-- --------- bright --- ----- ------ ---- --- --------- --<br>------ - ---- -- --- ----------- ------- ---- ----- -----<br>--- -------- - ------ ---- -- ----- ---- --- --- -----------<br>-- -------,352854.7999999821,352849.2999999821,352423.979,352434.09999999404,352440.646,352857.321,,28,bright
screen,html.Screen,2_3_1_0_1_29,2022-02-03T14:28:25.872Z,,,,,,,,,,,,,,,,,2,,,,,,,,,,,,,,324.77899999404326,,response,,,,1,A,,,,,,Space,keypress(Space),,,,silence,,,,--- ---- ------ --- ------- ---------- ------- ----------<br>--- --------- --- ----------- ------- ----- ------- ---<br>--------- ---- -- --- ---- -- --------- -- ---- -------<br>-- --------- ------ and ----- ------ ---- --- --------- --<br>------ - ---- -- --- ----------- ------- ---- ----- -----<br>--- -------- - ------ ---- -- ----- ---- --- --- -----------<br>-- -------,353191.59999999404,353182.09999999404,352840.654,352854.90000000596,352857.321,353207.823,,29,and
screen,html.Screen,2_3_1_0_1_30,2022-02-03T14:28:26.224Z,,,,,,,,,,,,,,,,,2,,,,,,,,,,,,,,329.47699998214375,,response,,,,1,A,,,,,,Space,keypress(Space),,,,silence,,,,--- ---- ------ --- ------- ---------- ------- ----------<br>--- --------- --- ----------- ------- ----- ------- ---<br>--------- ---- -- --- ---- -- --------- -- ---- -------<br>-- --------- ------ --- white ------ ---- --- --------- --<br>------ - ---- -- --- ----------- ------- ---- ----- -----<br>--- -------- - ------ ---- -- ----- ---- --- --- -----------<br>-- -------,353542.90000000596,353537.2999999821,353191.156,353191.7999999821,353207.823,353557.83,,30,white
screen,html.Screen,2_3_1_0_1_31,2022-02-03T14:28:26.630Z,,,,,,,,,,,,,,,,,2,,,,,,,,,,,,,,386.26999999402324,,response,,,,1,A,,,,,,Space,keypress(Space),,,,silence,,,,"--- ---- ------ --- ------- ---------- ------- ----------<br>--- --------- --- ----------- ------- ----- ------- ---<br>--------- ---- -- --- ---- -- --------- -- ---- -------<br>-- --------- ------ --- ----- light"" ---- --- --------- --<br>------ - ---- -- --- ----------- ------- ---- ----- -----<br>--- -------- - ------ ---- -- ----- ---- --- --- -----------<br>-- -------",353949.5,353944.09999999404,353541.163,353543.1999999881,353557.83,353957.838,,31,"light"""
screen,html.Screen,2_3_1_0_1_32,2022-02-03T14:28:27.031Z,,,,,,,,,,,,,,,,,2,,,,,,,,,,,,,,386.4619999821298,,response,,,,1,A,,,,,,Space,keypress(Space),,,,silence,,,,--- ---- ------ --- ------- ---------- ------- ----------<br>--- --------- --- ----------- ------- ----- ------- ---<br>--------- ---- -- --- ---- -- --------- -- ---- -------<br>-- --------- ------ --- ----- ------ over --- --------- --<br>------ - ---- -- --- ----------- ------- ---- ----- -----<br>--- -------- - ------ ---- -- ----- ---- --- --- -----------<br>-- -------,354350,354344.2999999821,353941.171,353949.7999999821,353957.838,354357.846,,32,over
screen,html.Screen,2_3_1_0_1_33,2022-02-03T14:28:27.414Z,,,,,,,,,,,,,,,,,2,,,,,,,,,,,,,,369.45399998209905,,response,,,,1,A,,,,,,Space,keypress(Space),,,,silence,,,,--- ---- ------ --- ------- ---------- ------- ----------<br>--- --------- --- ----------- ------- ----- ------- ---<br>--------- ---- -- --- ---- -- --------- -- ---- -------<br>-- --------- ------ --- ----- ------ ---- the --------- --<br>------ - ---- -- --- ----------- ------- ---- ----- -----<br>--- -------- - ------ ---- -- ----- ---- --- --- -----------<br>-- -------,354732.7999999821,354727.2999999821,354341.179,354350.09999999404,354357.846,354741.187,,33,the
screen,html.Screen,2_3_1_0_1_34,2022-02-03T14:28:27.765Z,,,,,,,,,,,,,,,,,2,,,,,,,,,,,,,,336.9129999940633,,response,,,,1,A,,,,,,Space,keypress(Space),,,,silence,,,,--- ---- ------ --- ------- ---------- ------- ----------<br>--- --------- --- ----------- ------- ----- ------- ---<br>--------- ---- -- --- ---- -- --------- -- ---- -------<br>-- --------- ------ --- ----- ------ ---- --- sunspots. --<br>------ - ---- -- --- ----------- ------- ---- ----- -----<br>--- -------- - ------ ---- -- ----- ---- --- --- -----------<br>-- -------,355083.6999999881,355078.09999999404,354724.52,354733.1999999881,354741.187,355091.194,,34,sunspots.
screen,html.Screen,2_3_1_0_1_35,2022-02-03T14:28:28.211Z,,,,,,,,,,,,,,,,,2,,,,,,,,,,,,,,432.90599999402184,,response,,,,1,A,,,,,,Space,keypress(Space),,,,silence,,,,--- ---- ------ --- ------- ---------- ------- ----------<br>--- --------- --- ----------- ------- ----- ------- ---<br>--------- ---- -- --- ---- -- --------- -- ---- -------<br>-- --------- ------ --- ----- ------ ---- --- --------- He<br>------ - ---- -- --- ----------- ------- ---- ----- -----<br>--- -------- - ------ ---- -- ----- ---- --- --- -----------<br>-- -------,355529.7999999821,355524.09999999404,355074.527,355083.7999999821,355091.194,355541.203,,35,He
screen,html.Screen,2_3_1_0_1_36,2022-02-03T14:28:28.609Z,,,,,,,,,,,,,,,,,2,,,,,,,,,,,,,,381.7970000000205,,response,,,,1,A,,,,,,Space,keypress(Space),,,,silence,,,,--- ---- ------ --- ------- ---------- ------- ----------<br>--- --------- --- ----------- ------- ----- ------- ---<br>--------- ---- -- --- ---- -- --------- -- ---- -------<br>-- --------- ------ --- ----- ------ ---- --- --------- --<br>jotted - ---- -- --- ----------- ------- ---- ----- -----<br>--- -------- - ------ ---- -- ----- ---- --- --- -----------<br>-- -------,355927.6999999881,355923,355524.536,355530,355541.203,355941.211,,36,jotted
screen,html.Screen,2_3_1_0_1_37,2022-02-03T14:28:29.010Z,,,,,,,,,,,,,,,,,2,,,,,,,,,,,,,,382.8889999940293,,response,,,,1,A,,,,,,Space,keypress(Space),,,,silence,,,,--- ---- ------ --- ------- ---------- ------- ----------<br>--- --------- --- ----------- ------- ----- ------- ---<br>--------- ---- -- --- ---- -- --------- -- ---- -------<br>-- --------- ------ --- ----- ------ ---- --- --------- --<br>------ a ---- -- --- ----------- ------- ---- ----- -----<br>--- -------- - ------ ---- -- ----- ---- --- --- -----------<br>-- -------,356329.59999999404,356324.09999999404,355924.544,355927.6999999881,355941.211,356341.219,,37,a
