sender,sender_type,sender_id,timestamp,meta,,Blues,Classical,Country,Dance,Electronic,Folk,Gospel,Hip-Hop,Jazz,Latin,Musical/Film,New-age,Pop,Prolific_id,Provo_ID,R&B,Rap,Reggae,Religious,Rock,Soul,Swing,Traditional,age,artist_name,correct,correctResponse,distraction,duration,education,ended_on,familiarity,gender,headphone_check_performance,item,list,music_frequency,offensiveness,pleasantness,position_correct,preference,response,response_action,snippet_file,song_name,song_rating,sound,stimulus_1,stimulus_2,stimulus_3,text,time_commit,time_end,time_render,time_run,time_show,time_switch,url,word,word_ID
Prolific ID,html.Form,0,2022-02-02T12:28:32.813Z,"{""labjs_version"":""20.2.2"",""labjs_build"":{""flavor"":""production"",""commit"":""a25486e0c714a0ae2ce03ff94b7bb6896854dcfa""},""location"":""https://run.pavlovia.org/mvasilev/prolific2_music_a/"",""userAgent"":""Mozilla/5.0 (X11; Linux x86_64) AppleWebKit/537.36 (KHTML, like Gecko) Chrome/97.0.4692.99 Safari/537.36"",""platform"":""Linux x86_64"",""language"":""en-US"",""locale"":""en-GB"",""timeZone"":""Europe/London"",""timezoneOffset"":0,""screen_width"":1366,""screen_height"":768,""scroll_width"":1316,""scroll_height"":620,""window_innerWidth"":1316,""window_innerHeight"":668,""devicePixelRatio"":1}",,,,,,,,,,,,,,,5f522c40069004482b3af322,,,,,,,,,,,,,,,5727.171999999255,,form submission,,,,,,,,,,,,,,,,,,,,,17596.199999999255,17595.199999999255,11834.718,11848.599999999627,11868.028,17600.027,{},,
Introduction,html.Screen,1_0,2022-02-02T12:28:48.493Z,,,,,,,,,,,,,,,,,,,,,,,,,,,,,,,15670.57299999963,,response,,,,,,,,,,,continue,click button,,,,,,,,,33276.59999999963,33270.59999999963,17583.372,17596.699999999255,17600.027,33275.573,,,
Volume calibration,html.Screen,1_1,2022-02-02T12:29:33.916Z,,,,,,,,,,,,,,,,,,,,,,,,,,,,,,,45414.02699999963,,response,,,,,,,,,,,continue,click button,,,,,,,,,78699.59999999963,78689.59999999963,33258.918,33276.79999999888,33275.573,78703.854,,,
Task instructions,html.Screen,1_2,2022-02-02T12:30:26.518Z,,,,,,,,,,,,,,,,,,,,,,,,,,,,,,,52595.74599999962,,response,,,,,,,,,,,continue,click button,,,,,,,,,131301.09999999963,131299.59999999963,78687.199,78699.79999999888,78703.854,131311.069,,,
Sounds,html.Screen,1_3_0_0,2022-02-02T12:30:30.765Z,,,,,,,,,,,,,,,,,,,,,,,,,,,,,,,4247.885000000009,,timeout,,,,,,,,,2,,,,,,,,O,S,I,,135547.79999999888,135542.299,131294.414,131301.5,131311.069,135558.954,,,
Judgement,html.Screen,1_3_0_1,2022-02-02T12:30:31.928Z,,,,,,,,,,,,,,,,,,,,,,,,,,,,true,2,,1149.6459999996296,,response,,,,,,,,,2,,2,click #choice-2,,,,,O,S,I,,136711.09999999963,136708.59999999963,135542.299,135548.09999999963,135558.954,136725.778,,,
Trial,flow.Sequence,1_3_0,2022-02-02T12:30:31.928Z,,,,,,,,,,,,,,,,,,,,,,,,,,,,,,,5397.530999999639,,completion,,,,,,,,,2,,,,,,,,O,S,I,,136711.59999999963,136708.59999999963,131294.414,131301.40000000037,131311.069,136725.778,,,
Sounds,html.Screen,1_3_1_0,2022-02-02T12:30:36.174Z,,,,,,,,,,,,,,,,,,,,,,,,,,,,,,,4247.111000000004,,timeout,,,,,,,,,3,,,,,,,,I,O,S,,140957.19999999925,140956.234,136709.123,136711.69999999925,136725.778,140972.889,,,
Judgement,html.Screen,1_3_1_1,2022-02-02T12:30:36.955Z,,,,,,,,,,,,,,,,,,,,,,,,,,,,true,3,,762.7109999996319,,response,,,,,,,,,3,,3,click #choice-3,,,,,I,O,S,,141737.90000000037,141735.59999999963,140956.234,140957.5,140972.889,141739.999,,,
Trial,flow.Sequence,1_3_1,2022-02-02T12:30:36.955Z,,,,,,,,,,,,,,,,,,,,,,,,,,,,,,,5009.821999999636,,completion,,,,,,,,,3,,,,,,,,I,O,S,,141738.59999999963,141735.59999999963,136709.123,136711.69999999925,136725.778,141739.999,,,
Sounds,html.Screen,1_3_2_0,2022-02-02T12:30:41.189Z,,,,,,,,,,,,,,,,,,,,,,,,,,,,,,,4247.135999999999,,timeout,,,,,,,,,3,,,,,,,,O,I,S,,145972.19999999925,145970.48,141723.344,141739,141739.999,145987.135,,,
Judgement,html.Screen,1_3_2_1,2022-02-02T12:30:41.875Z,,,,,,,,,,,,,,,,,,,,,,,,,,,,true,3,,668.4649999996182,,response,,,,,,,,,3,,3,click #choice-3,,,,,O,I,S,,146658.40000000037,146655.59999999963,145970.48,145972.40000000037,145987.135,146670.916,,,
Trial,flow.Sequence,1_3_2,2022-02-02T12:30:41.876Z,,,,,,,,,,,,,,,,,,,,,,,,,,,,,,,4915.600999999617,,completion,,,,,,,,,3,,,,,,,,O,I,S,,146659,146655.59999999963,141723.344,141738.90000000037,141739.999,146670.916,,,
Sounds,html.Screen,1_3_3_0,2022-02-02T12:30:46.119Z,,,,,,,,,,,,,,,,,,,,,,,,,,,,,,,4247.171000000002,,timeout,,,,,,,,,1,,,,,,,,S,O,I,,150902.59999999963,150901.432,146654.261,146659.40000000037,146670.916,150918.087,,,
Judgement,html.Screen,1_3_3_1,2022-02-02T12:30:46.868Z,,,,,,,,,,,,,,,,,,,,,,,,,,,,true,1,,730.5129999996279,,response,,,,,,,,,1,,1,click #choice-1,,,,,S,O,I,,151651.19999999925,151648.59999999963,150901.432,150902.79999999888,150918.087,151651.839,,,
Trial,flow.Sequence,1_3_3,2022-02-02T12:30:46.868Z,,,,,,,,,,,,,,,,,,,,,,,,,,,,,,,4977.68399999963,,completion,,,,,,,,,1,,,,,,,,S,O,I,,151651.5,151648.59999999963,146654.261,146659.19999999925,146670.916,151651.839,,,
Sounds,html.Screen,1_3_4_0,2022-02-02T12:30:51.100Z,,,,,,,,,,,,,,,,,,,,,,,,,,,,,,,4247.176999999996,,timeout,,,,,,,,,1,,,,,,,,S,I,O,,155883.29999999888,155882.361,151635.184,151651.79999999888,151651.839,155899.016,,,
Judgement,html.Screen,1_3_4_1,2022-02-02T12:30:51.778Z,,,,,,,,,,,,,,,,,,,,,,,,,,,,true,1,,659.5839999996242,,response,,,,,,,,,1,,1,click #choice-1,,,,,S,I,O,,156561,156558.59999999963,155882.361,155883.59999999963,155899.016,156566.148,,,
Trial,flow.Sequence,1_3_4,2022-02-02T12:30:51.778Z,,,,,,,,,,,,,,,,,,,,,,,,,,,,,,,4906.76099999962,,completion,,,,,,,,,1,,,,,,,,S,I,O,,156561.5,156558.59999999963,151635.184,151651.69999999925,151651.839,156566.148,,,
Sounds,html.Screen,1_3_5_0,2022-02-02T12:30:56.015Z,,,,,,,,,,,,,,,,,,,,,,,,,,,,,,,4247.159000000014,,timeout,,,,,,,,,2,,,,,,,,I,S,O,,160797.90000000037,160796.652,156549.493,156561.79999999888,156566.148,160813.307,,,
Judgement,html.Screen,1_3_5_1,2022-02-02T12:30:56.895Z,,,,,,,,,,,,,,,,,,,,,,,,,,,,true,2,,862.2929999996268,,response,,,,,,,,,2,,2,click #choice-2,,,,,I,S,O,,161678.09999999963,161675.59999999963,160796.652,160798,160813.307,161680.289,,,
Trial,flow.Sequence,1_3_5,2022-02-02T12:30:56.895Z,,,,,,,,,,,,,,,,,,,,,,,,,,,,,,,5109.451999999641,,completion,,,,,,,,,2,,,,,,,,I,S,O,,161678.40000000037,161675.59999999963,156549.493,156561.69999999925,156566.148,161680.289,,,
Task,flow.Loop,1_3,2022-02-02T12:30:56.906Z,,,,,,,,,,,,,,,,,,,,,,,,,,,,,,,30364.53099999964,,completion,,,1,,,,,,,,,,,,,,,,,,161688.79999999888,161675.59999999963,131294.414,131301.29999999888,131311.069,161680.289,,,
Trap,html.Screen,1_4,2022-02-02T12:30:56.907Z,,,,,,,,,,,,,,,,,,,,,,,,,,,,,,,NaN,,skipped,,,,,,,,,,,,,,,,,,,,,161690.5,161675.59999999963,,161690.29999999888,,161680.289,,,
Thanks,html.Screen,1_5,2022-02-02T12:31:03.031Z,,,,,,,,,,,,,,,,,,,,,,,,,,,,,,,6131.310999999638,,response,,,,,,,,,,,continue,click button,,,,,,,,,167813.79999999888,167811.59999999963,161663.634,161690.69999999925,161680.289,180452.026,,,
Headphone screening,flow.Sequence,1,2022-02-02T12:31:03.031Z,,,,,,,,,,,,,,,,,,,,,,,,,,,,,,,150211.57299999963,,completion,,,,,,,,,,,,,,,,,,,,,167814.19999999925,167811.59999999963,17583.372,17596.699999999255,17600.027,180452.026,,,
Instructions,html.Page,2_0,2022-02-02T12:32:25.625Z,,,,,,,,,,,,,,,,,,,,,,,,,,,,,,,69954.87400000036,,form submission,,,,,,,,,,,,,,,,,,,,,250407.79999999888,250406.90000000037,180435.371,180447.5,180452.026,250420.9,,,
Holding screen,html.Screen,2_1_0_0,2022-02-02T12:32:35.617Z,,,,,,,,,,,,,,,,,,,,,,,,,,,,,,,9994.977000000014,,timeout,,,,,,,,,,,,,,,,,,,,,260399.90000000037,260399.222,250404.245,250408.40000000037,250420.9,260415.877,,,
screen,html.Screen,2_1_0_1_0,2022-02-02T12:32:36.804Z,,,,,,,,,,,,,,,,,53,,,,,,,,,,,,,,1164.7229999996198,,response,,,,99,,,,,,,Space,keypress(Space),,,,,,,,When -- ----- -- ------ - ------- --- ----------<br>------------- ------ ------ ---- ---- ------- ----- -- ----<br>-------- ------- -- ---------- --- - --- ----- ----- ----<br>---- --- --- ----- --- ---- ---- ------- ----- ---- -------<br>--- --- -- ----- -- --- ---- -- --- ---- -- ------ ------<br>--- ----- -- ----,261586.79999999888,261580.59999999963,260399.222,260400.29999999888,260415.877,261598.594,,0,When
screen,html.Screen,2_1_0_1_1,2022-02-02T12:32:37.273Z,,,,,,,,,,,,,,,,,53,,,,,,,,,,,,,,455.0059999996156,,response,,,,99,,,,,,,Space,keypress(Space),,,,,,,,---- it ----- -- ------ - ------- --- ----------<br>------------- ------ ------ ---- ---- ------- ----- -- ----<br>-------- ------- -- ---------- --- - --- ----- ----- ----<br>---- --- --- ----- --- ---- ---- ------- ----- ---- -------<br>--- --- -- ----- -- --- ---- -- --- ---- -- ------ ------<br>--- ----- -- ----,262056.40000000037,262053.59999999963,261581.939,261587,261598.594,262065.19,,1,it
screen,html.Screen,2_1_0_1_2,2022-02-02T12:32:37.746Z,,,,,,,,,,,,,,,,,53,,,,,,,,,,,,,,461.40999999962514,,response,,,,99,,,,,,,Space,keypress(Space),,,,,,,,---- -- comes -- ------ - ------- --- ----------<br>------------- ------ ------ ---- ---- ------- ----- -- ----<br>-------- ------- -- ---------- --- - --- ----- ----- ----<br>---- --- --- ----- --- ---- ---- ------- ----- ---- -------<br>--- --- -- ----- -- --- ---- -- --- ---- -- ------ ------<br>--- ----- -- ----,262529.0999999996,262526.5999999996,262048.535,262056.69999999925,262065.19,262531.632,,2,comes
screen,html.Screen,2_1_0_1_3,2022-02-02T12:32:38.181Z,,,,,,,,,,,,,,,,,53,,,,,,,,,,,,,,429.96799999964423,,response,,,,99,,,,,,,Space,keypress(Space),,,,,,,,---- -- ----- to ------ - ------- --- ----------<br>------------- ------ ------ ---- ---- ------- ----- -- ----<br>-------- ------- -- ---------- --- - --- ----- ----- ----<br>---- --- --- ----- --- ---- ---- ------- ----- ---- -------<br>--- --- -- ----- -- --- ---- -- --- ---- -- ------ ------<br>--- ----- -- ----,262964.2999999989,262961.5999999996,262514.977,262529.19999999925,262531.632,262981.417,,3,to
screen,html.Screen,2_1_0_1_4,2022-02-02T12:32:38.788Z,,,,,,,,,,,,,,,,,53,,,,,,,,,,,,,,587.1829999996116,,response,,,,99,,,,,,,Space,keypress(Space),,,,,,,,---- -- ----- -- having - ------- --- ----------<br>------------- ------ ------ ---- ---- ------- ----- -- ----<br>-------- ------- -- ---------- --- - --- ----- ----- ----<br>---- --- --- ----- --- ---- ---- ------- ----- ---- -------<br>--- --- -- ----- -- --- ---- -- --- ---- -- ------ ------<br>--- ----- -- ----,263570.9000000004,263568.5999999996,262964.762,262964.5,262981.417,263581.092,,4,having
screen,html.Screen,2_1_0_1_5,2022-02-02T12:32:39.205Z,,,,,,,,,,,,,,,,,53,,,,,,,,,,,,,,404.5079999996233,,response,,,,99,,,,,,,Space,keypress(Space),,,,,,,,---- -- ----- -- ------ a ------- --- ----------<br>------------- ------ ------ ---- ---- ------- ----- -- ----<br>-------- ------- -- ---------- --- - --- ----- ----- ----<br>---- --- --- ----- --- ---- ---- ------- ----- ---- -------<br>--- --- -- ----- -- --- ---- -- --- ---- -- ------ ------<br>--- ----- -- ----,263988,263985.5999999996,263564.437,263571.19999999925,263581.092,263997.596,,5,a
screen,html.Screen,2_1_0_1_6,2022-02-02T12:32:40.456Z,,,,,,,,,,,,,,,,,53,,,,,,,,,,,,,,1239.003999999608,,response,,,,99,,,,,,,Space,keypress(Space),,,,,,,,---- -- ----- -- ------ - lasting --- ----------<br>------------- ------ ------ ---- ---- ------- ----- -- ----<br>-------- ------- -- ---------- --- - --- ----- ----- ----<br>---- --- --- ----- --- ---- ---- ------- ----- ---- -------<br>--- --- -- ----- -- --- ---- -- --- ---- -- ------ ------<br>--- ----- -- ----,265239.19999999925,265236.5999999996,263980.941,263988.2999999989,263997.596,265246.814,,6,lasting
screen,html.Screen,2_1_0_1_7,2022-02-02T12:32:40.915Z,,,,,,,,,,,,,,,,,53,,,,,,,,,,,,,,448.78599999961443,,response,,,,99,,,,,,,Space,keypress(Space),,,,,,,,---- -- ----- -- ------ - ------- and ----------<br>------------- ------ ------ ---- ---- ------- ----- -- ----<br>-------- ------- -- ---------- --- - --- ----- ----- ----<br>---- --- --- ----- --- ---- ---- ------- ----- ---- -------<br>--- --- -- ----- -- --- ---- -- --- ---- -- ------ ------<br>--- ----- -- ----,265697.9000000004,265695.5999999996,265230.159,265239.5,265246.814,265713.426,,7,and
screen,html.Screen,2_1_0_1_8,2022-02-02T12:32:42.167Z,,,,,,,,,,,,,,,,,53,,,,,,,,,,,,,,1234.1739999996498,,response,,,,99,,,,,,,Space,keypress(Space),,,,,,,,---- -- ----- -- ------ - ------- --- fulfilling<br>------------- ------ ------ ---- ---- ------- ----- -- ----<br>-------- ------- -- ---------- --- - --- ----- ----- ----<br>---- --- --- ----- --- ---- ---- ------- ----- ---- -------<br>--- --- -- ----- -- --- ---- -- --- ---- -- ------ ------<br>--- ----- -- ----,266949.69999999925,266947.5999999996,265696.771,265698.19999999925,265713.426,266962.658,,8,fulfilling
screen,html.Screen,2_1_0_1_9,2022-02-02T12:32:42.800Z,,,,,,,,,,,,,,,,,53,,,,,,,,,,,,,,617.9419999996317,,response,,,,99,,,,,,,Space,keypress(Space),,,,,,,,"---- -- ----- -- ------ - ------- --- ----------<br>relationship, ------ ------ ---- ---- ------- ----- -- ----<br>-------- ------- -- ---------- --- - --- ----- ----- ----<br>---- --- --- ----- --- ---- ---- ------- ----- ---- -------<br>--- --- -- ----- -- --- ---- -- --- ---- -- ------ ------<br>--- ----- -- ----",267583.5,267580.5999999996,266946.003,266950,266962.658,267595.814,,9,"relationship,"
screen,html.Screen,2_1_0_1_10,2022-02-02T12:32:43.243Z,,,,,,,,,,,,,,,,,53,,,,,,,,,,,,,,426.78599999961443,,response,,,,99,,,,,,,Space,keypress(Space),,,,,,,,---- -- ----- -- ------ - ------- --- ----------<br>------------- common ------ ---- ---- ------- ----- -- ----<br>-------- ------- -- ---------- --- - --- ----- ----- ----<br>---- --- --- ----- --- ---- ---- ------- ----- ---- -------<br>--- --- -- ----- -- --- ---- -- --- ---- -- ------ ------<br>--- ----- -- ----,268025.69999999925,268022.5999999996,267579.159,267583.7999999989,267595.814,268028.984,,10,common
screen,html.Screen,2_1_0_1_11,2022-02-02T12:32:44.198Z,,,,,,,,,,,,,,,,,53,,,,,,,,,,,,,,948.6159999996307,,response,,,,99,,,,,,,Space,keypress(Space),,,,,,,,---- -- ----- -- ------ - ------- --- ----------<br>------------- ------ wisdom ---- ---- ------- ----- -- ----<br>-------- ------- -- ---------- --- - --- ----- ----- ----<br>---- --- --- ----- --- ---- ---- ------- ----- ---- -------<br>--- --- -- ----- -- --- ---- -- --- ---- -- ------ ------<br>--- ----- -- ----,268980.7999999989,268977.5999999996,268012.329,268026,268028.984,268995.064,,11,wisdom
screen,html.Screen,2_1_0_1_12,2022-02-02T12:32:44.698Z,,,,,,,,,,,,,,,,,53,,,,,,,,,,,,,,483.53599999961443,,response,,,,99,,,,,,,Space,keypress(Space),,,,,,,,---- -- ----- -- ------ - ------- --- ----------<br>------------- ------ ------ says ---- ------- ----- -- ----<br>-------- ------- -- ---------- --- - --- ----- ----- ----<br>---- --- --- ----- --- ---- ---- ------- ----- ---- -------<br>--- --- -- ----- -- --- ---- -- --- ---- -- ------ ------<br>--- ----- -- ----,269481.4000000004,269478.5999999996,268978.409,268981.0999999996,268995.064,269494.918,,12,says
screen,html.Screen,2_1_0_1_13,2022-02-02T12:32:45.129Z,,,,,,,,,,,,,,,,,53,,,,,,,,,,,,,,414.68199999962235,,response,,,,99,,,,,,,Space,keypress(Space),,,,,,,,---- -- ----- -- ------ - ------- --- ----------<br>------------- ------ ------ ---- that ------- ----- -- ----<br>-------- ------- -- ---------- --- - --- ----- ----- ----<br>---- --- --- ----- --- ---- ---- ------- ----- ---- -------<br>--- --- -- ----- -- --- ---- -- --- ---- -- ------ ------<br>--- ----- -- ----,269912.5999999996,269909.5999999996,269478.263,269481.5999999996,269494.918,269928.058,,13,that
screen,html.Screen,2_1_0_1_14,2022-02-02T12:32:45.745Z,,,,,,,,,,,,,,,,,53,,,,,,,,,,,,,,597.5419999996084,,response,,,,99,,,,,,,Space,keypress(Space),,,,,,,,---- -- ----- -- ------ - ------- --- ----------<br>------------- ------ ------ ---- ---- feeling ----- -- ----<br>-------- ------- -- ---------- --- - --- ----- ----- ----<br>---- --- --- ----- --- ---- ---- ------- ----- ---- -------<br>--- --- -- ----- -- --- ---- -- --- ---- -- ------ ------<br>--- ----- -- ----,270527.9000000004,270525.5999999996,269911.403,269912.7999999989,269928.058,270544.394,,14,feeling
screen,html.Screen,2_1_0_1_15,2022-02-02T12:32:46.267Z,,,,,,,,,,,,,,,,,53,,,,,,,,,,,,,,503.20599999965634,,response,,,,99,,,,,,,Space,keypress(Space),,,,,,,,---- -- ----- -- ------ - ------- --- ----------<br>------------- ------ ------ ---- ---- ------- close -- ----<br>-------- ------- -- ---------- --- - --- ----- ----- ----<br>---- --- --- ----- --- ---- ---- ------- ----- ---- -------<br>--- --- -- ----- -- --- ---- -- --- ---- -- ------ ------<br>--- ----- -- ----,271050.5,271047.5999999996,270527.739,270528.0999999996,270544.394,271060.825,,15,close
screen,html.Screen,2_1_0_1_16,2022-02-02T12:32:46.630Z,,,,,,,,,,,,,,,,,53,,,,,,,,,,,,,,349.77499999961583,,response,,,,99,,,,,,,Space,keypress(Space),,,,,,,,---- -- ----- -- ------ - ------- --- ----------<br>------------- ------ ------ ---- ---- ------- ----- to ----<br>-------- ------- -- ---------- --- - --- ----- ----- ----<br>---- --- --- ----- --- ---- ---- ------- ----- ---- -------<br>--- --- -- ----- -- --- ---- -- --- ---- -- ------ ------<br>--- ----- -- ----,271413.5999999996,271410.5999999996,271044.17,271050.5999999996,271060.825,271427.351,,16,to
screen,html.Screen,2_1_0_1_17,2022-02-02T12:32:47.257Z,,,,,,,,,,,,,,,,,53,,,,,,,,,,,,,,609.2489999996033,,response,,,,99,,,,,,,Space,keypress(Space),,,,,,,,---- -- ----- -- ------ - ------- --- ----------<br>------------- ------ ------ ---- ---- ------- ----- -- your<br>-------- ------- -- ---------- --- - --- ----- ----- ----<br>---- --- --- ----- --- ---- ---- ------- ----- ---- -------<br>--- --- -- ----- -- --- ---- -- --- ---- -- ------ ------<br>--- ----- -- ----,272039.69999999925,272036.5999999996,271410.696,271413.7999999989,271427.351,272043.668,,17,your
screen,html.Screen,2_1_0_1_18,2022-02-02T12:32:48.054Z,,,,,,,,,,,,,,,,,53,,,,,,,,,,,,,,789.9319999996223,,response,,,,99,,,,,,,Space,keypress(Space),,,,,,,,---- -- ----- -- ------ - ------- --- ----------<br>------------- ------ ------ ---- ---- ------- ----- -- ----<br>romantic ------- -- ---------- --- - --- ----- ----- ----<br>---- --- --- ----- --- ---- ---- ------- ----- ---- -------<br>--- --- -- ----- -- --- ---- -- --- ---- -- ------ ------<br>--- ----- -- ----,272836.7999999989,272833.5999999996,272027.013,272039.9000000004,272043.668,272843.247,,18,romantic
screen,html.Screen,2_1_0_1_19,2022-02-02T12:32:48.515Z,,,,,,,,,,,,,,,,,53,,,,,,,,,,,,,,451.35299999965355,,response,,,,99,,,,,,,Space,keypress(Space),,,,,,,,---- -- ----- -- ------ - ------- --- ----------<br>------------- ------ ------ ---- ---- ------- ----- -- ----<br>-------- partner -- ---------- --- - --- ----- ----- ----<br>---- --- --- ----- --- ---- ---- ------- ----- ---- -------<br>--- --- -- ----- -- --- ---- -- --- ---- -- ------ ------<br>--- ----- -- ----,273297.69999999925,273294.5999999996,272826.592,272837,272843.247,273309.76,,19,partner
screen,html.Screen,2_1_0_1_20,2022-02-02T12:32:48.916Z,,,,,,,,,,,,,,,,,53,,,,,,,,,,,,,,386.83999999961816,,response,,,,99,,,,,,,Space,keypress(Space),,,,,,,,---- -- ----- -- ------ - ------- --- ----------<br>------------- ------ ------ ---- ---- ------- ----- -- ----<br>-------- ------- is ---------- --- - --- ----- ----- ----<br>---- --- --- ----- --- ---- ---- ------- ----- ---- -------<br>--- --- -- ----- -- --- ---- -- --- ---- -- ------ ------<br>--- ----- -- ----,273699.5,273696.5999999996,273293.105,273298.0999999996,273309.76,273709.571,,20,is
screen,html.Screen,2_1_0_1_21,2022-02-02T12:32:51.133Z,,,,,,,,,,,,,,,,,53,,,,,,,,,,,,,,2204.028999999631,,response,,,,99,,,,,,,Space,keypress(Space),,,,,,,,---- -- ----- -- ------ - ------- --- ----------<br>------------- ------ ------ ---- ---- ------- ----- -- ----<br>-------- ------- -- paramount. --- - --- ----- ----- ----<br>---- --- --- ----- --- ---- ---- ------- ----- ---- -------<br>--- --- -- ----- -- --- ---- -- --- ---- -- ------ ------<br>--- ----- -- ----,275916.5999999996,275913.5999999996,273692.916,273699.7999999989,273709.571,275924.778,,21,paramount.
screen,html.Screen,2_1_0_1_22,2022-02-02T12:32:52.259Z,,,,,,,,,,,,,,,,,53,,,,,,,,,,,,,,1115.8219999996363,,response,,,,99,,,,,,,Space,keypress(Space),,,,,,,,---- -- ----- -- ------ - ------- --- ----------<br>------------- ------ ------ ---- ---- ------- ----- -- ----<br>-------- ------- -- ---------- But - --- ----- ----- ----<br>---- --- --- ----- --- ---- ---- ------- ----- ---- -------<br>--- --- -- ----- -- --- ---- -- --- ---- -- ------ ------<br>--- ----- -- ----,277042.69999999925,277040.5999999996,275908.123,275916.9000000004,275924.778,277057.789,,22,But
screen,html.Screen,2_1_0_1_23,2022-02-02T12:32:52.680Z,,,,,,,,,,,,,,,,,53,,,,,,,,,,,,,,402.8109999996377,,response,,,,99,,,,,,,Space,keypress(Space),,,,,,,,---- -- ----- -- ------ - ------- --- ----------<br>------------- ------ ------ ---- ---- ------- ----- -- ----<br>-------- ------- -- ---------- --- a --- ----- ----- ----<br>---- --- --- ----- --- ---- ---- ------- ----- ---- -------<br>--- --- -- ----- -- --- ---- -- --- ---- -- ------ ------<br>--- ----- -- ----,277463.4000000004,277460.5999999996,277041.134,277043,277057.789,277474.418,,23,a
screen,html.Screen,2_1_0_1_24,2022-02-02T12:32:53.097Z,,,,,,,,,,,,,,,,,53,,,,,,,,,,,,,,403.18199999962235,,response,,,,99,,,,,,,Space,keypress(Space),,,,,,,,---- -- ----- -- ------ - ------- --- ----------<br>------------- ------ ------ ---- ---- ------- ----- -- ----<br>-------- ------- -- ---------- --- - new ----- ----- ----<br>---- --- --- ----- --- ---- ---- ------- ----- ---- -------<br>--- --- -- ----- -- --- ---- -- --- ---- -- ------ ------<br>--- ----- -- ----,277880.69999999925,277877.5999999996,277457.763,277463.5999999996,277474.418,277890.883,,24,new
screen,html.Screen,2_1_0_1_25,2022-02-02T12:32:53.507Z,,,,,,,,,,,,,,,,,53,,,,,,,,,,,,,,396.71699999965494,,response,,,,99,,,,,,,Space,keypress(Space),,,,,,,,---- -- ----- -- ------ - ------- --- ----------<br>------------- ------ ------ ---- ---- ------- ----- -- ----<br>-------- ------- -- ---------- --- - --- study ----- ----<br>---- --- --- ----- --- ---- ---- ------- ----- ---- -------<br>--- --- -- ----- -- --- ---- -- --- ---- -- ------ ------<br>--- ----- -- ----,278289.9000000004,278287.5999999996,277874.228,277881,277890.883,278307.351,,25,study
screen,html.Screen,2_1_0_1_26,2022-02-02T12:32:53.937Z,,,,,,,,,,,,,,,,,53,,,,,,,,,,,,,,410.24899999960326,,response,,,,99,,,,,,,Space,keypress(Space),,,,,,,,---- -- ----- -- ------ - ------- --- ----------<br>------------- ------ ------ ---- ---- ------- ----- -- ----<br>-------- ------- -- ---------- --- - --- ----- finds ----<br>---- --- --- ----- --- ---- ---- ------- ----- ---- -------<br>--- --- -- ----- -- --- ---- -- --- ---- -- ------ ------<br>--- ----- -- ----,278720.5,278717.5999999996,278290.696,278290.19999999925,278307.351,278723.813,,26,finds
screen,html.Screen,2_1_0_1_27,2022-02-02T12:32:54.323Z,,,,,,,,,,,,,,,,,53,,,,,,,,,,,,,,379.7869999996037,,response,,,,99,,,,,,,Space,keypress(Space),,,,,,,,---- -- ----- -- ------ - ------- --- ----------<br>------------- ------ ------ ---- ---- ------- ----- -- ----<br>-------- ------- -- ---------- --- - --- ----- ----- that<br>---- --- --- ----- --- ---- ---- ------- ----- ---- -------<br>--- --- -- ----- -- --- ---- -- --- ---- -- ------ ------<br>--- ----- -- ----,279105.9000000004,279103.5999999996,278707.158,278721.0999999996,278723.813,279123.618,,27,that
screen,html.Screen,2_1_0_1_28,2022-02-02T12:32:54.926Z,,,,,,,,,,,,,,,,,53,,,,,,,,,,,,,,581.9819999996107,,response,,,,99,,,,,,,Space,keypress(Space),,,,,,,,---- -- ----- -- ------ - ------- --- ----------<br>------------- ------ ------ ---- ---- ------- ----- -- ----<br>-------- ------- -- ---------- --- - --- ----- ----- ----<br>it's --- --- ----- --- ---- ---- ------- ----- ---- -------<br>--- --- -- ----- -- --- ---- -- --- ---- -- ------ ------<br>--- ----- -- ----,279708.69999999925,279705.5999999996,279106.963,279106.0999999996,279123.618,279723.295,,28,it's
screen,html.Screen,2_1_0_1_29,2022-02-02T12:32:55.323Z,,,,,,,,,,,,,,,,,53,,,,,,,,,,,,,,379.30499999964377,,response,,,,99,,,,,,,Space,keypress(Space),,,,,,,,---- -- ----- -- ------ - ------- --- ----------<br>------------- ------ ------ ---- ---- ------- ----- -- ----<br>-------- ------- -- ---------- --- - --- ----- ----- ----<br>---- not --- ----- --- ---- ---- ------- ----- ---- -------<br>--- --- -- ----- -- --- ---- -- --- ---- -- ------ ------<br>--- ----- -- ----,280105.7999999989,280102.5999999996,279706.64,279709,279723.295,280123.136,,29,not
screen,html.Screen,2_1_0_1_30,2022-02-02T12:32:55.747Z,,,,,,,,,,,,,,,,,53,,,,,,,,,,,,,,404.46399999962887,,response,,,,99,,,,,,,Space,keypress(Space),,,,,,,,---- -- ----- -- ------ - ------- --- ----------<br>------------- ------ ------ ---- ---- ------- ----- -- ----<br>-------- ------- -- ---------- --- - --- ----- ----- ----<br>---- --- how ----- --- ---- ---- ------- ----- ---- -------<br>--- --- -- ----- -- --- ---- -- --- ---- -- ------ ------<br>--- ----- -- ----,280529.69999999925,280527.5999999996,280106.481,280106.0999999996,280123.136,280539.605,,30,how
screen,html.Screen,2_1_0_1_31,2022-02-02T12:32:56.254Z,,,,,,,,,,,,,,,,,53,,,,,,,,,,,,,,492.9949999996461,,response,,,,99,,,,,,,Space,keypress(Space),,,,,,,,---- -- ----- -- ------ - ------- --- ----------<br>------------- ------ ------ ---- ---- ------- ----- -- ----<br>-------- ------- -- ---------- --- - --- ----- ----- ----<br>---- --- --- close --- ---- ---- ------- ----- ---- -------<br>--- --- -- ----- -- --- ---- -- --- ---- -- ------ ------<br>--- ----- -- ----,281037.5,281032.5999999996,280522.95,280529.7999999989,280539.605,281039.35,,31,close
screen,html.Screen,2_1_0_1_32,2022-02-02T12:32:56.658Z,,,,,,,,,,,,,,,,,53,,,,,,,,,,,,,,399.24999999965075,,response,,,,99,,,,,,,Space,keypress(Space),,,,,,,,---- -- ----- -- ------ - ------- --- ----------<br>------------- ------ ------ ---- ---- ------- ----- -- ----<br>-------- ------- -- ---------- --- - --- ----- ----- ----<br>---- --- --- ----- you ---- ---- ------- ----- ---- -------<br>--- --- -- ----- -- --- ---- -- --- ---- -- ------ ------<br>--- ----- -- ----,281441.5999999996,281438.5999999996,281022.695,281037.69999999925,281039.35,281455.826,,32,you
screen,html.Screen,2_1_0_1_33,2022-02-02T12:32:57.413Z,,,,,,,,,,,,,,,,,53,,,,,,,,,,,,,,736.7739999996265,,response,,,,99,,,,,,,Space,keypress(Space),,,,,,,,---- -- ----- -- ------ - ------- --- ----------<br>------------- ------ ------ ---- ---- ------- ----- -- ----<br>-------- ------- -- ---------- --- - --- ----- ----- ----<br>---- --- --- ----- --- feel ---- ------- ----- ---- -------<br>--- --- -- ----- -- --- ---- -- --- ---- -- ------ ------<br>--- ----- -- ----,282196,282192.5999999996,281439.171,281441.7999999989,281455.826,282205.396,,33,feel
screen,html.Screen,2_1_0_1_34,2022-02-02T12:32:57.861Z,,,,,,,,,,,,,,,,,53,,,,,,,,,,,,,,436.20399999961955,,response,,,,99,,,,,,,Space,keypress(Space),,,,,,,,---- -- ----- -- ------ - ------- --- ----------<br>------------- ------ ------ ---- ---- ------- ----- -- ----<br>-------- ------- -- ---------- --- - --- ----- ----- ----<br>---- --- --- ----- --- ---- that ------- ----- ---- -------<br>--- --- -- ----- -- --- ---- -- --- ---- -- ------ ------<br>--- ----- -- ----,282644.5,282641.5999999996,282188.741,282196.2999999989,282205.396,282655.238,,34,that
screen,html.Screen,2_1_0_1_35,2022-02-02T12:32:58.608Z,,,,,,,,,,,,,,,,,53,,,,,,,,,,,,,,733.3619999996154,,response,,,,99,,,,,,,Space,keypress(Space),,,,,,,,---- -- ----- -- ------ - ------- --- ----------<br>------------- ------ ------ ---- ---- ------- ----- -- ----<br>-------- ------- -- ---------- --- - --- ----- ----- ----<br>---- --- --- ----- --- ---- ---- matters ----- ---- -------<br>--- --- -- ----- -- --- ---- -- --- ---- -- ------ ------<br>--- ----- -- ----,283391.5,283388.5999999996,282638.583,282644.9000000004,282655.238,283404.817,,35,matters
screen,html.Screen,2_1_0_1_36,2022-02-02T12:32:59.362Z,,,,,,,,,,,,,,,,,53,,,,,,,,,,,,,,737.7829999996466,,response,,,,99,,,,,,,Space,keypress(Space),,,,,,,,"---- -- ----- -- ------ - ------- --- ----------<br>------------- ------ ------ ---- ---- ------- ----- -- ----<br>-------- ------- -- ---------- --- - --- ----- ----- ----<br>---- --- --- ----- --- ---- ---- ------- most, ---- -------<br>--- --- -- ----- -- --- ---- -- --- ---- -- ------ ------<br>--- ----- -- ----",284145.4000000004,284142.5999999996,283388.162,283391.7999999989,283404.817,284154.446,,36,"most,"
screen,html.Screen,2_1_0_1_37,2022-02-02T12:32:59.836Z,,,,,,,,,,,,,,,,,53,,,,,,,,,,,,,,462.1539999996312,,response,,,,99,,,,,,,Space,keypress(Space),,,,,,,,---- -- ----- -- ------ - ------- --- ----------<br>------------- ------ ------ ---- ---- ------- ----- -- ----<br>-------- ------- -- ---------- --- - --- ----- ----- ----<br>---- --- --- ----- --- ---- ---- ------- ----- it's -------<br>--- --- -- ----- -- --- ---- -- --- ---- -- ------ ------<br>--- ----- -- ----,284619.0999999996,284616.5999999996,284137.791,284145.69999999925,284154.446,284620.955,,37,it's
screen,html.Screen,2_1_0_1_38,2022-02-02T12:33:00.532Z,,,,,,,,,,,,,,,,,53,,,,,,,,,,,,,,691.6449999996112,,response,,,,99,,,,,,,Space,keypress(Space),,,,,,,,---- -- ----- -- ------ - ------- --- ----------<br>------------- ------ ------ ---- ---- ------- ----- -- ----<br>-------- ------- -- ---------- --- - --- ----- ----- ----<br>---- --- --- ----- --- ---- ---- ------- ----- ---- whether<br>--- --- -- ----- -- --- ---- -- --- ---- -- ------ ------<br>--- ----- -- ----,285315.69999999925,285312.5999999996,284604.3,284619.4000000004,284620.955,285320.572,,38,whether
screen,html.Screen,2_1_0_1_39,2022-02-02T12:33:00.981Z,,,,,,,,,,,,,,,,,53,,,,,,,,,,,,,,441.0279999996419,,response,,,,99,,,,,,,Space,keypress(Space),,,,,,,,---- -- ----- -- ------ - ------- --- ----------<br>------------- ------ ------ ---- ---- ------- ----- -- ----<br>-------- ------- -- ---------- --- - --- ----- ----- ----<br>---- --- --- ----- --- ---- ---- ------- ----- ---- -------<br>you --- -- ----- -- --- ---- -- --- ---- -- ------ ------<br>--- ----- -- ----,285764,285761.5999999996,285303.917,285315.9000000004,285320.572,285770.396,,39,you
screen,html.Screen,2_1_0_1_40,2022-02-02T12:33:01.387Z,,,,,,,,,,,,,,,,,53,,,,,,,,,,,,,,396.20399999961955,,response,,,,99,,,,,,,Space,keypress(Space),,,,,,,,---- -- ----- -- ------ - ------- --- ----------<br>------------- ------ ------ ---- ---- ------- ----- -- ----<br>-------- ------- -- ---------- --- - --- ----- ----- ----<br>---- --- --- ----- --- ---- ---- ------- ----- ---- -------<br>--- are -- ----- -- --- ---- -- --- ---- -- ------ ------<br>--- ----- -- ----,286169.7999999989,286166.5999999996,285753.741,285764.19999999925,285770.396,286186.871,,40,are
screen,html.Screen,2_1_0_1_41,2022-02-02T12:33:01.772Z,,,,,,,,,,,,,,,,,53,,,,,,,,,,,,,,365.72899999964284,,response,,,,99,,,,,,,Space,keypress(Space),,,,,,,,---- -- ----- -- ------ - ------- --- ----------<br>------------- ------ ------ ---- ---- ------- ----- -- ----<br>-------- ------- -- ---------- --- - --- ----- ----- ----<br>---- --- --- ----- --- ---- ---- ------- ----- ---- -------<br>--- --- as ----- -- --- ---- -- --- ---- -- ------ ------<br>--- ----- -- ----,286555.4000000004,286552.5999999996,286170.216,286170,286186.871,286570.018,,41,as
screen,html.Screen,2_1_0_1_42,2022-02-02T12:33:02.255Z,,,,,,,,,,,,,,,,,53,,,,,,,,,,,,,,465.58199999964563,,response,,,,99,,,,,,,Space,keypress(Space),,,,,,,,---- -- ----- -- ------ - ------- --- ----------<br>------------- ------ ------ ---- ---- ------- ----- -- ----<br>-------- ------- -- ---------- --- - --- ----- ----- ----<br>---- --- --- ----- --- ---- ---- ------- ----- ---- -------<br>--- --- -- close -- --- ---- -- --- ---- -- ------ ------<br>--- ----- -- ----,287038.4000000004,287035.5999999996,286553.363,286555.5999999996,286570.018,287053.109,,42,close
screen,html.Screen,2_1_0_1_43,2022-02-02T12:33:02.616Z,,,,,,,,,,,,,,,,,53,,,,,,,,,,,,,,343.49099999963073,,response,,,,99,,,,,,,Space,keypress(Space),,,,,,,,---- -- ----- -- ------ - ------- --- ----------<br>------------- ------ ------ ---- ---- ------- ----- -- ----<br>-------- ------- -- ---------- --- - --- ----- ----- ----<br>---- --- --- ----- --- ---- ---- ------- ----- ---- -------<br>--- --- -- ----- as --- ---- -- --- ---- -- ------ ------<br>--- ----- -- ----,287399.2999999989,287396.5999999996,287036.454,287038.5999999996,287053.109,287402.961,,43,as
screen,html.Screen,2_1_0_1_44,2022-02-02T12:33:03.081Z,,,,,,,,,,,,,,,,,53,,,,,,,,,,,,,,458.6389999996172,,response,,,,99,,,,,,,Space,keypress(Space),,,,,,,,---- -- ----- -- ------ - ------- --- ----------<br>------------- ------ ------ ---- ---- ------- ----- -- ----<br>-------- ------- -- ---------- --- - --- ----- ----- ----<br>---- --- --- ----- --- ---- ---- ------- ----- ---- -------<br>--- --- -- ----- -- you ---- -- --- ---- -- ------ ------<br>--- ----- -- ----,287864.5999999996,287861.5999999996,287386.306,287399.5,287402.961,287869.379,,44,you
screen,html.Screen,2_1_0_1_45,2022-02-02T12:33:03.531Z,,,,,,,,,,,,,,,,,53,,,,,,,,,,,,,,442.2209999996121,,response,,,,99,,,,,,,Space,keypress(Space),,,,,,,,---- -- ----- -- ------ - ------- --- ----------<br>------------- ------ ------ ---- ---- ------- ----- -- ----<br>-------- ------- -- ---------- --- - --- ----- ----- ----<br>---- --- --- ----- --- ---- ---- ------- ----- ---- -------<br>--- --- -- ----- -- --- want -- --- ---- -- ------ ------<br>--- ----- -- ----,288314.5,288311.5999999996,287852.724,287864.7999999989,287869.379,288319.173,,45,want
screen,html.Screen,2_1_0_1_46,2022-02-02T12:33:03.934Z,,,,,,,,,,,,,,,,,53,,,,,,,,,,,,,,395.4269999996177,,response,,,,99,,,,,,,Space,keypress(Space),,,,,,,,---- -- ----- -- ------ - ------- --- ----------<br>------------- ------ ------ ---- ---- ------- ----- -- ----<br>-------- ------- -- ---------- --- - --- ----- ----- ----<br>---- --- --- ----- --- ---- ---- ------- ----- ---- -------<br>--- --- -- ----- -- --- ---- to --- ---- -- ------ ------<br>--- ----- -- ----,288717.0999999996,288714.5999999996,288302.518,288314.69999999925,288319.173,288718.984,,46,to
screen,html.Screen,2_1_0_1_47,2022-02-02T12:33:04.324Z,,,,,,,,,,,,,,,,,53,,,,,,,,,,,,,,385.61599999963073,,response,,,,99,,,,,,,Space,keypress(Space),,,,,,,,"---- -- ----- -- ------ - ------- --- ----------<br>------------- ------ ------ ---- ---- ------- ----- -- ----<br>-------- ------- -- ---------- --- - --- ----- ----- ----<br>---- --- --- ----- --- ---- ---- ------- ----- ---- -------<br>--- --- -- ----- -- --- ---- -- be, ---- -- ------ ------<br>--- ----- -- ----",289107.19999999925,289104.5999999996,288702.329,288717.2999999989,288718.984,289118.792,,47,"be,"
screen,html.Screen,2_1_0_1_48,2022-02-02T12:33:04.998Z,,,,,,,,,,,,,,,,,53,,,,,,,,,,,,,,659.8079999996116,,response,,,,99,,,,,,,Space,keypress(Space),,,,,,,,---- -- ----- -- ------ - ------- --- ----------<br>------------- ------ ------ ---- ---- ------- ----- -- ----<br>-------- ------- -- ---------- --- - --- ----- ----- ----<br>---- --- --- ----- --- ---- ---- ------- ----- ---- -------<br>--- --- -- ----- -- --- ---- -- --- even -- ------ ------<br>--- ----- -- ----,289781.4000000004,289778.5999999996,289102.137,289107.5,289118.792,289785.084,,48,even
screen,html.Screen,2_1_0_1_49,2022-02-02T12:33:05.448Z,,,,,,,,,,,,,,,,,53,,,,,,,,,,,,,,443.515999999654,,response,,,,99,,,,,,,Space,keypress(Space),,,,,,,,---- -- ----- -- ------ - ------- --- ----------<br>------------- ------ ------ ---- ---- ------- ----- -- ----<br>-------- ------- -- ---------- --- - --- ----- ----- ----<br>---- --- --- ----- --- ---- ---- ------- ----- ---- -------<br>--- --- -- ----- -- --- ---- -- --- ---- if ------ ------<br>--- ----- -- ----,290230.7999999989,290228.5999999996,289768.429,289781.69999999925,289785.084,290234.91,,49,if
screen,html.Screen,2_1_0_1_50,2022-02-02T12:33:06.152Z,,,,,,,,,,,,,,,,,53,,,,,,,,,,,,,,696.6899999996531,,response,,,,99,,,,,,,Space,keypress(Space),,,,,,,,---- -- ----- -- ------ - ------- --- ----------<br>------------- ------ ------ ---- ---- ------- ----- -- ----<br>-------- ------- -- ---------- --- - --- ----- ----- ----<br>---- --- --- ----- --- ---- ---- ------- ----- ---- -------<br>--- --- -- ----- -- --- ---- -- --- ---- -- that's ------<br>--- ----- -- ----,290934.7999999989,290931.5999999996,290218.255,290231,290234.91,290951.178,,50,that's
screen,html.Screen,2_1_0_1_51,2022-02-02T12:33:07.326Z,,,,,,,,,,,,,,,,,53,,,,,,,,,,,,,,1155.421999999613,,response,,,,99,,,,,,,Space,keypress(Space),,,,,,,,---- -- ----- -- ------ - ------- --- ----------<br>------------- ------ ------ ---- ---- ------- ----- -- ----<br>-------- ------- -- ---------- --- - --- ----- ----- ----<br>---- --- --- ----- --- ---- ---- ------- ----- ---- -------<br>--- --- -- ----- -- --- ---- -- --- ---- -- ------ really<br>--- ----- -- ----,292109.5,292106.5999999996,290934.523,290935.0999999996,290951.178,292117.172,,51,really
screen,html.Screen,2_1_0_1_52,2022-02-02T12:33:07.750Z,,,,,,,,,,,,,,,,,53,,,,,,,,,,,,,,413.427999999607,,response,,,,99,,,,,,,Space,keypress(Space),,,,,,,,---- -- ----- -- ------ - ------- --- ----------<br>------------- ------ ------ ---- ---- ------- ----- -- ----<br>-------- ------- -- ---------- --- - --- ----- ----- ----<br>---- --- --- ----- --- ---- ---- ------- ----- ---- -------<br>--- --- -- ----- -- --- ---- -- --- ---- -- ------ ------<br>not ----- -- ----,292533.19999999925,292530.5999999996,292100.517,292109.5999999996,292117.172,292550.455,,52,not
screen,html.Screen,2_1_0_1_53,2022-02-02T12:33:08.226Z,,,,,,,,,,,,,,,,,53,,,,,,,,,,,,,,456.1449999996112,,response,,,,99,,,,,,,Space,keypress(Space),,,,,,,,---- -- ----- -- ------ - ------- --- ----------<br>------------- ------ ------ ---- ---- ------- ----- -- ----<br>-------- ------- -- ---------- --- - --- ----- ----- ----<br>---- --- --- ----- --- ---- ---- ------- ----- ---- -------<br>--- --- -- ----- -- --- ---- -- --- ---- -- ------ ------<br>--- close -- ----,293009,293006.5999999996,292533.8,292533.5,292550.455,293016.891,,53,close
screen,html.Screen,2_1_0_1_54,2022-02-02T12:33:08.704Z,,,,,,,,,,,,,,,,,53,,,,,,,,,,,,,,466.7089999996242,,response,,,,99,,,,,,,Space,keypress(Space),,,,,,,,---- -- ----- -- ------ - ------- --- ----------<br>------------- ------ ------ ---- ---- ------- ----- -- ----<br>-------- ------- -- ---------- --- - --- ----- ----- ----<br>---- --- --- ----- --- ---- ---- ------- ----- ---- -------<br>--- --- -- ----- -- --- ---- -- --- ---- -- ------ ------<br>--- ----- at ----,293486.9000000004,293483.5999999996,293000.236,293009.19999999925,293016.891,293499.983,,54,at
screen,html.Screen,2_1_0_1_55,2022-02-02T12:33:09.144Z,,,,,,,,,,,,,,,,,53,,,,,,,,,,,,,,424.61699999962,,response,,,,99,,,,,,,Space,keypress(Space),,,,,,,,---- -- ----- -- ------ - ------- --- ----------<br>------------- ------ ------ ---- ---- ------- ----- -- ----<br>-------- ------- -- ---------- --- - --- ----- ----- ----<br>---- --- --- ----- --- ---- ---- ------- ----- ---- -------<br>--- --- -- ----- -- --- ---- -- --- ---- -- ------ ------<br>--- ----- -- all.,293927.5999999996,293924.5999999996,293483.328,293487.0999999996,293499.983,293933.118,,55,all.
Item 99,flow.Loop,2_1_0_1,2022-02-02T12:33:09.145Z,,,,,,,,,,,,,,,,,,,,,,,,,,,,,,,33508.72299999962,,completion,,,,,A,,,,,,,,,,,silence,,,,,293927.9000000004,293924.5999999996,260399.222,260400.09999999963,260415.877,293933.118,,,
Question 1,html.Screen,2_1_0_2,2022-02-02T12:33:19.349Z,,,,,,,,,,,,,,,,,,,,,,,,,,,,true,FALSE,,10196.48199999961,,response,,,,99,A,,,,,,FALSE,click #choice-2,,,,silence,,,,,304132.5,304129.5999999996,293916.463,293928.0999999996,293933.118,304144.91,,,
Question 2,html.Screen,2_1_0_3,2022-02-02T12:33:33.807Z,,,,,,,,,,,,,,,,,,,,,,,,,,,,true,TRUE,,14442.689999999653,,response,,,,99,A,,,,,,TRUE,click #choice-1,,,,silence,,,,,318589.69999999925,318587.5999999996,304128.255,304132.7999999989,304144.91,318604.585,,,
Item 99,flow.Sequence,2_1_0,2022-02-02T12:33:33.807Z,,,,,,,,,,,,,,,,,,,,,,,,,,,,,,,68166.69999999963,,completion,,,,,,,,,,,,,,,,,,,,,318590.0999999996,318587.5999999996,250404.245,250408.29999999888,250420.9,318604.585,,,
Holding screen,html.Screen,2_1_1_0,2022-02-02T12:33:43.801Z,,,,,,,,,,,,,,,,,,,,,,,,,,,,,,,9994.984999999986,,timeout,,,,,,,,,,,,,,,,,,,,,328584.19999999925,328582.915,318587.93,318590.2999999989,318604.585,328599.57,,,
screen,html.Screen,2_1_1_1_0,2022-02-02T12:33:44.850Z,,,,,,,,,,,,,,,,,54,,,,,,,,,,,,,,1031.0299999996205,,response,,,,100,,,,,,,Space,keypress(Space),,,,,,,,At --- ---- --- ------ ----- ------- ---- -- --- ------- --<br>------- ---------- ------ -- ----- -- ----- -- ---- ------<br>--- ----- --- --- ------ -------- ----- --- ------ ----- --<br>----- ----- ---------- --- --- ------ ------ ---- -- ------<br>------- --- ------ ----- --- ---- ------- -- ---- --- --<br>------- ------,329633.2999999989,329630.5999999996,328582.915,328584.5,328599.57,329649.053,,0,At
screen,html.Screen,2_1_1_1_1,2022-02-02T12:33:45.314Z,,,,,,,,,,,,,,,,,54,,,,,,,,,,,,,,445.54699999961304,,response,,,,100,,,,,,,Space,keypress(Space),,,,,,,,-- the ---- --- ------ ----- ------- ---- -- --- ------- --<br>------- ---------- ------ -- ----- -- ----- -- ---- ------<br>--- ----- --- --- ------ -------- ----- --- ------ ----- --<br>----- ----- ---------- --- --- ------ ------ ---- -- ------<br>------- --- ------ ----- --- ---- ------- -- ---- --- --<br>------- ------,330097.5,330094.5999999996,329632.398,329633.5,329649.053,330098.962,,1,the
screen,html.Screen,2_1_1_1_2,2022-02-02T12:33:45.813Z,,,,,,,,,,,,,,,,,54,,,,,,,,,,,,,,494.63799999962794,,response,,,,100,,,,,,,Space,keypress(Space),,,,,,,,-- --- time --- ------ ----- ------- ---- -- --- ------- --<br>------- ---------- ------ -- ----- -- ----- -- ---- ------<br>--- ----- --- --- ------ -------- ----- --- ------ ----- --<br>----- ----- ---------- --- --- ------ ------ ---- -- ------<br>------- --- ------ ----- --- ---- ------- -- ---- --- --<br>------- ------,330596.5999999996,330593.5999999996,330082.307,330097.69999999925,330098.962,330598.72,,2,time
screen,html.Screen,2_1_1_1_3,2022-02-02T12:33:46.453Z,,,,,,,,,,,,,,,,,54,,,,,,,,,,,,,,634.8799999996554,,response,,,,100,,,,,,,Space,keypress(Space),,,,,,,,-- --- ---- the ------ ----- ------- ---- -- --- ------- --<br>------- ---------- ------ -- ----- -- ----- -- ---- ------<br>--- ----- --- --- ------ -------- ----- --- ------ ----- --<br>----- ----- ---------- --- --- ------ ------ ---- -- ------<br>------- --- ------ ----- --- ---- ------- -- ---- --- --<br>------- ------,331236.4000000004,331233.5999999996,330582.065,330596.9000000004,330598.72,331248.365,,3,the
screen,html.Screen,2_1_1_1_4,2022-02-02T12:33:47.066Z,,,,,,,,,,,,,,,,,54,,,,,,,,,,,,,,598.2349999996368,,response,,,,100,,,,,,,Space,keypress(Space),,,,,,,,-- --- ---- --- French ----- ------- ---- -- --- ------- --<br>------- ---------- ------ -- ----- -- ----- -- ---- ------<br>--- ----- --- --- ------ -------- ----- --- ------ ----- --<br>----- ----- ---------- --- --- ------ ------ ---- -- ------<br>------- --- ------ ----- --- ---- ------- -- ---- --- --<br>------- ------,331849.2999999989,331846.5999999996,331231.71,331236.69999999925,331248.365,331864.731,,4,French
screen,html.Screen,2_1_1_1_5,2022-02-02T12:33:47.456Z,,,,,,,,,,,,,,,,,54,,,,,,,,,,,,,,371.8689999995986,,response,,,,100,,,,,,,Space,keypress(Space),,,,,,,,-- --- ---- --- ------ crown ------- ---- -- --- ------- --<br>------- ---------- ------ -- ----- -- ----- -- ---- ------<br>--- ----- --- --- ------ -------- ----- --- ------ ----- --<br>----- ----- ---------- --- --- ------ ------ ---- -- ------<br>------- --- ------ ----- --- ---- ------- -- ---- --- --<br>------- ------,332239.4000000004,332236.5999999996,331848.076,331849.5,331864.731,332247.945,,5,crown
screen,html.Screen,2_1_1_1_6,2022-02-02T12:33:48.699Z,,,,,,,,,,,,,,,,,54,,,,,,,,,,,,,,1231.6549999996205,,response,,,,100,,,,,,,Space,keypress(Space),,,,,,,,-- --- ---- --- ------ ----- secured ---- -- --- ------- --<br>------- ---------- ------ -- ----- -- ----- -- ---- ------<br>--- ----- --- --- ------ -------- ----- --- ------ ----- --<br>----- ----- ---------- --- --- ------ ------ ---- -- ------<br>------- --- ------ ----- --- ---- ------- -- ---- --- --<br>------- ------,333482.4000000004,333479.5999999996,332231.29,332239.69999999925,332247.945,333497.153,,6,secured
screen,html.Screen,2_1_1_1_7,2022-02-02T12:33:49.444Z,,,,,,,,,,,,,,,,,54,,,,,,,,,,,,,,727.4469999996363,,response,,,,100,,,,,,,Space,keypress(Space),,,,,,,,-- --- ---- --- ------ ----- ------- much -- --- ------- --<br>------- ---------- ------ -- ----- -- ----- -- ---- ------<br>--- ----- --- --- ------ -------- ----- --- ------ ----- --<br>----- ----- ---------- --- --- ------ ------ ---- -- ------<br>------- --- ------ ----- --- ---- ------- -- ---- --- --<br>------- ------,334227,334224.5999999996,333480.498,333482.69999999925,333497.153,334230.245,,7,much
screen,html.Screen,2_1_1_1_8,2022-02-02T12:33:49.904Z,,,,,,,,,,,,,,,,,54,,,,,,,,,,,,,,454.3549999996321,,response,,,,100,,,,,,,Space,keypress(Space),,,,,,,,-- --- ---- --- ------ ----- ------- ---- of --- ------- --<br>------- ---------- ------ -- ----- -- ----- -- ---- ------<br>--- ----- --- --- ------ -------- ----- --- ------ ----- --<br>----- ----- ---------- --- --- ------ ------ ---- -- ------<br>------- --- ------ ----- --- ---- ------- -- ---- --- --<br>------- ------,334687.2999999989,334684.5999999996,334213.59,334227.19999999925,334230.245,334696.737,,8,of
screen,html.Screen,2_1_1_1_9,2022-02-02T12:33:50.380Z,,,,,,,,,,,,,,,,,54,,,,,,,,,,,,,,463.86299999960465,,response,,,,100,,,,,,,Space,keypress(Space),,,,,,,,-- --- ---- --- ------ ----- ------- ---- -- its ------- --<br>------- ---------- ------ -- ----- -- ----- -- ---- ------<br>--- ----- --- --- ------ -------- ----- --- ------ ----- --<br>----- ----- ---------- --- --- ------ ------ ---- -- ------<br>------- --- ------ ----- --- ---- ------- -- ---- --- --<br>------- ------,335162.7999999989,335160.5999999996,334680.082,334687.5,334696.737,335179.831,,9,its
screen,html.Screen,2_1_1_1_10,2022-02-02T12:33:51.100Z,,,,,,,,,,,,,,,,,54,,,,,,,,,,,,,,700.7689999996219,,response,,,,100,,,,,,,Space,keypress(Space),,,,,,,,-- --- ---- --- ------ ----- ------- ---- -- --- revenue --<br>------- ---------- ------ -- ----- -- ----- -- ---- ------<br>--- ----- --- --- ------ -------- ----- --- ------ ----- --<br>----- ----- ---------- --- --- ------ ------ ---- -- ------<br>------- --- ------ ----- --- ---- ------- -- ---- --- --<br>------- ------,335883.2999999989,335880.5999999996,335163.176,335162.9000000004,335179.831,335896.108,,10,revenue
screen,html.Screen,2_1_1_1_11,2022-02-02T12:33:51.527Z,,,,,,,,,,,,,,,,,54,,,,,,,,,,,,,,411.49199999962,,response,,,,100,,,,,,,Space,keypress(Space),,,,,,,,-- --- ---- --- ------ ----- ------- ---- -- --- ------- by<br>------- ---------- ------ -- ----- -- ----- -- ---- ------<br>--- ----- --- --- ------ -------- ----- --- ------ ----- --<br>----- ----- ---------- --- --- ------ ------ ---- -- ------<br>------- --- ------ ----- --- ---- ------- -- ---- --- --<br>------- ------,336310.19999999925,336307.5999999996,335879.453,335883.5,335896.108,336312.639,,11,by
screen,html.Screen,2_1_1_1_12,2022-02-02T12:33:52.388Z,,,,,,,,,,,,,,,,,54,,,,,,,,,,,,,,855.9609999996028,,response,,,,100,,,,,,,Space,keypress(Space),,,,,,,,-- --- ---- --- ------ ----- ------- ---- -- --- ------- --<br>issuing ---------- ------ -- ----- -- ----- -- ---- ------<br>--- ----- --- --- ------ -------- ----- --- ------ ----- --<br>----- ----- ---------- --- --- ------ ------ ---- -- ------<br>------- --- ------ ----- --- ---- ------- -- ---- --- --<br>------- ------,337170.69999999925,337168.5999999996,336295.984,336310.5,336312.639,337178.786,,12,issuing
screen,html.Screen,2_1_1_1_13,2022-02-02T12:33:53.002Z,,,,,,,,,,,,,,,,,54,,,,,,,,,,,,,,603.8139999996056,,response,,,,100,,,,,,,Space,keypress(Space),,,,,,,,-- --- ---- --- ------ ----- ------- ---- -- --- ------- --<br>------- government ------ -- ----- -- ----- -- ---- ------<br>--- ----- --- --- ------ -------- ----- --- ------ ----- --<br>----- ----- ---------- --- --- ------ ------ ---- -- ------<br>------- --- ------ ----- --- ---- ------- -- ---- --- --<br>------- ------,337785.19999999925,337782.5999999996,337162.131,337171,337178.786,337795.204,,13,government
screen,html.Screen,2_1_1_1_14,2022-02-02T12:33:54.261Z,,,,,,,,,,,,,,,,,54,,,,,,,,,,,,,,1246.3959999996005,,response,,,,100,,,,,,,Space,keypress(Space),,,,,,,,-- --- ---- --- ------ ----- ------- ---- -- --- ------- --<br>------- ---------- bonds. -- ----- -- ----- -- ---- ------<br>--- ----- --- --- ------ -------- ----- --- ------ ----- --<br>----- ----- ---------- --- --- ------ ------ ---- -- ------<br>------- --- ------ ----- --- ---- ------- -- ---- --- --<br>------- ------,339044.5,339041.5999999996,337778.549,337785.5,337795.204,339061.119,,14,bonds.
screen,html.Screen,2_1_1_1_15,2022-02-02T12:33:54.811Z,,,,,,,,,,,,,,,,,54,,,,,,,,,,,,,,530.4809999996214,,response,,,,100,,,,,,,Space,keypress(Space),,,,,,,,-- --- ---- --- ------ ----- ------- ---- -- --- ------- --<br>------- ---------- ------ In ----- -- ----- -- ---- ------<br>--- ----- --- --- ------ -------- ----- --- ------ ----- --<br>----- ----- ---------- --- --- ------ ------ ---- -- ------<br>------- --- ------ ----- --- ---- ------- -- ---- --- --<br>------- ------,339594.0999999996,339591.5999999996,339044.464,339044.69999999925,339061.119,339611.006,,15,In
screen,html.Screen,2_1_1_1_16,2022-02-02T12:33:55.915Z,,,,,,,,,,,,,,,,,54,,,,,,,,,,,,,,1083.5939999996335,,response,,,,100,,,,,,,Space,keypress(Space),,,,,,,,"-- --- ---- --- ------ ----- ------- ---- -- --- ------- --<br>------- ---------- ------ -- 1727, -- ----- -- ---- ------<br>--- ----- --- --- ------ -------- ----- --- ------ ----- --<br>----- ----- ---------- --- --- ------ ------ ---- -- ------<br>------- --- ------ ----- --- ---- ------- -- ---- --- --<br>------- ------",340698.0999999996,340694.5999999996,339594.351,339594.2999999989,339611.006,340710.35,,16,"1727,"
screen,html.Screen,2_1_1_1_17,2022-02-02T12:33:56.330Z,,,,,,,,,,,,,,,,,54,,,,,,,,,,,,,,400.24999999965075,,response,,,,100,,,,,,,Space,keypress(Space),,,,,,,,-- --- ---- --- ------ ----- ------- ---- -- --- ------- --<br>------- ---------- ------ -- ----- in ----- -- ---- ------<br>--- ----- --- --- ------ -------- ----- --- ------ ----- --<br>----- ----- ---------- --- --- ------ ------ ---- -- ------<br>------- --- ------ ----- --- ---- ------- -- ---- --- --<br>------- ------,341113.5999999996,341110.5999999996,340693.695,340698.2999999989,340710.35,341126.977,,17,in
screen,html.Screen,2_1_1_1_18,2022-02-02T12:33:57.029Z,,,,,,,,,,,,,,,,,54,,,,,,,,,,,,,,682.622999999614,,response,,,,100,,,,,,,Space,keypress(Space),,,,,,,,-- --- ---- --- ------ ----- ------- ---- -- --- ------- --<br>------- ---------- ------ -- ----- -- order -- ---- ------<br>--- ----- --- --- ------ -------- ----- --- ------ ----- --<br>----- ----- ---------- --- --- ------ ------ ---- -- ------<br>------- --- ------ ----- --- ---- ------- -- ---- --- --<br>------- ------,341811.9000000004,341809.5999999996,341110.322,341113.9000000004,341126.977,341826.569,,18,order
screen,html.Screen,2_1_1_1_19,2022-02-02T12:33:57.407Z,,,,,,,,,,,,,,,,,54,,,,,,,,,,,,,,361.0309999996098,,response,,,,100,,,,,,,Space,keypress(Space),,,,,,,,-- --- ---- --- ------ ----- ------- ---- -- --- ------- --<br>------- ---------- ------ -- ----- -- ----- to ---- ------<br>--- ----- --- --- ------ -------- ----- --- ------ ----- --<br>----- ----- ---------- --- --- ------ ------ ---- -- ------<br>------- --- ------ ----- --- ---- ------- -- ---- --- --<br>------- ------,342189.7999999989,342187.5999999996,341809.914,341812.19999999925,341826.569,342193.132,,19,to
screen,html.Screen,2_1_1_1_20,2022-02-02T12:33:57.826Z,,,,,,,,,,,,,,,,,54,,,,,,,,,,,,,,413.46799999964423,,response,,,,100,,,,,,,Space,keypress(Space),,,,,,,,-- --- ---- --- ------ ----- ------- ---- -- --- ------- --<br>------- ---------- ------ -- ----- -- ----- -- save ------<br>--- ----- --- --- ------ -------- ----- --- ------ ----- --<br>----- ----- ---------- --- --- ------ ------ ---- -- ------<br>------- --- ------ ----- --- ---- ------- -- ---- --- --<br>------- ------,342608.69999999925,342606.5999999996,342176.477,342190,342193.132,342626.245,,20,save
screen,html.Screen,2_1_1_1_21,2022-02-02T12:33:58.430Z,,,,,,,,,,,,,,,,,54,,,,,,,,,,,,,,584.3549999996321,,response,,,,100,,,,,,,Space,keypress(Space),,,,,,,,"-- --- ---- --- ------ ----- ------- ---- -- --- ------- --<br>------- ---------- ------ -- ----- -- ----- -- ---- money,<br>--- ----- --- --- ------ -------- ----- --- ------ ----- --<br>----- ----- ---------- --- --- ------ ------ ---- -- ------<br>------- --- ------ ----- --- ---- ------- -- ---- --- --<br>------- ------",343213,343210.5999999996,342609.59,342609,342626.245,343225.914,,21,"money,"
screen,html.Screen,2_1_1_1_22,2022-02-02T12:33:59.259Z,,,,,,,,,,,,,,,,,54,,,,,,,,,,,,,,812.6859999996377,,response,,,,100,,,,,,,Space,keypress(Space),,,,,,,,-- --- ---- --- ------ ----- ------- ---- -- --- ------- --<br>------- ---------- ------ -- ----- -- ----- -- ---- ------<br>the ----- --- --- ------ -------- ----- --- ------ ----- --<br>----- ----- ---------- --- --- ------ ------ ---- -- ------<br>------- --- ------ ----- --- ---- ------- -- ---- --- --<br>------- ------,344041.69999999925,344038.5999999996,343209.259,343213.0999999996,343225.914,344058.793,,22,the
screen,html.Screen,2_1_1_1_23,2022-02-02T12:33:59.970Z,,,,,,,,,,,,,,,,,54,,,,,,,,,,,,,,691.8069999996223,,response,,,,100,,,,,,,Space,keypress(Space),,,,,,,,-- --- ---- --- ------ ----- ------- ---- -- --- ------- --<br>------- ---------- ------ -- ----- -- ----- -- ---- ------<br>--- state --- --- ------ -------- ----- --- ------ ----- --<br>----- ----- ---------- --- --- ------ ------ ---- -- ------<br>------- --- ------ ----- --- ---- ------- -- ---- --- --<br>------- ------,344752.9000000004,344750.5999999996,344042.138,344042,344058.793,344758.479,,23,state
screen,html.Screen,2_1_1_1_24,2022-02-02T12:34:00.367Z,,,,,,,,,,,,,,,,,54,,,,,,,,,,,,,,385.1209999996354,,response,,,,100,,,,,,,Space,keypress(Space),,,,,,,,-- --- ---- --- ------ ----- ------- ---- -- --- ------- --<br>------- ---------- ------ -- ----- -- ----- -- ---- ------<br>--- ----- cut --- ------ -------- ----- --- ------ ----- --<br>----- ----- ---------- --- --- ------ ------ ---- -- ------<br>------- --- ------ ----- --- ---- ------- -- ---- --- --<br>------- ------,345150,345143.5999999996,344741.824,344753.19999999925,344758.479,345158.367,,24,cut
screen,html.Screen,2_1_1_1_25,2022-02-02T12:34:00.765Z,,,,,,,,,,,,,,,,,54,,,,,,,,,,,,,,386.2329999996,,response,,,,100,,,,,,,Space,keypress(Space),,,,,,,,-- --- ---- --- ------ ----- ------- ---- -- --- ------- --<br>------- ---------- ------ -- ----- -- ----- -- ---- ------<br>--- ----- --- the ------ -------- ----- --- ------ ----- --<br>----- ----- ---------- --- --- ------ ------ ---- -- ------<br>------- --- ------ ----- --- ---- ------- -- ---- --- --<br>------- ------,345547.69999999925,345544.5999999996,345141.712,345150.2999999989,345158.367,345558.164,,25,the
screen,html.Screen,2_1_1_1_26,2022-02-02T12:34:01.242Z,,,,,,,,,,,,,,,,,54,,,,,,,,,,,,,,464.4359999996377,,response,,,,100,,,,,,,Space,keypress(Space),,,,,,,,-- --- ---- --- ------ ----- ------- ---- -- --- ------- --<br>------- ---------- ------ -- ----- -- ----- -- ---- ------<br>--- ----- --- --- bonds' -------- ----- --- ------ ----- --<br>----- ----- ---------- --- --- ------ ------ ---- -- ------<br>------- --- ------ ----- --- ---- ------- -- ---- --- --<br>------- ------,346025.4000000004,346022.5999999996,345541.509,345548,345558.164,346041.252,,26,bonds'
screen,html.Screen,2_1_1_1_27,2022-02-02T12:34:01.956Z,,,,,,,,,,,,,,,,,54,,,,,,,,,,,,,,695.3479999996489,,response,,,,100,,,,,,,Space,keypress(Space),,,,,,,,-- --- ---- --- ------ ----- ------- ---- -- --- ------- --<br>------- ---------- ------ -- ----- -- ----- -- ---- ------<br>--- ----- --- --- ------ interest ----- --- ------ ----- --<br>----- ----- ---------- --- --- ------ ------ ---- -- ------<br>------- --- ------ ----- --- ---- ------- -- ---- --- --<br>------- ------,346739.5999999996,346736.5999999996,346024.597,346025.5999999996,346041.252,346740.859,,27,interest
screen,html.Screen,2_1_1_1_28,2022-02-02T12:34:03.399Z,,,,,,,,,,,,,,,,,54,,,,,,,,,,,,,,1438.7409999996307,,response,,,,100,,,,,,,Space,keypress(Space),,,,,,,,-- --- ---- --- ------ ----- ------- ---- -- --- ------- --<br>------- ---------- ------ -- ----- -- ----- -- ---- ------<br>--- ----- --- --- ------ -------- rate. --- ------ ----- --<br>----- ----- ---------- --- --- ------ ------ ---- -- ------<br>------- --- ------ ----- --- ---- ------- -- ---- --- --<br>------- ------,348182.19999999925,348179.5999999996,346724.204,346739.7999999989,346740.859,348190.003,,28,rate.
screen,html.Screen,2_1_1_1_29,2022-02-02T12:34:04.335Z,,,,,,,,,,,,,,,,,54,,,,,,,,,,,,,,924.5969999996014,,response,,,,100,,,,,,,Space,keypress(Space),,,,,,,,-- --- ---- --- ------ ----- ------- ---- -- --- ------- --<br>------- ---------- ------ -- ----- -- ----- -- ---- ------<br>--- ----- --- --- ------ -------- ----- The ------ ----- --<br>----- ----- ---------- --- --- ------ ------ ---- -- ------<br>------- --- ------ ----- --- ---- ------- -- ---- --- --<br>------- ------,349117.7999999989,349114.5999999996,348173.348,348182.4000000004,348190.003,349123.003,,29,The
screen,html.Screen,2_1_1_1_30,2022-02-02T12:34:04.982Z,,,,,,,,,,,,,,,,,54,,,,,,,,,,,,,,639.5969999996014,,response,,,,100,,,,,,,Space,keypress(Space),,,,,,,,-- --- ---- --- ------ ----- ------- ---- -- --- ------- --<br>------- ---------- ------ -- ----- -- ----- -- ---- ------<br>--- ----- --- --- ------ -------- ----- --- market ----- --<br>----- ----- ---------- --- --- ------ ------ ---- -- ------<br>------- --- ------ ----- --- ---- ------- -- ---- --- --<br>------- ------,349765,349762.5999999996,349106.348,349118,349123.003,349772.739,,30,market
screen,html.Screen,2_1_1_1_31,2022-02-02T12:34:05.384Z,,,,,,,,,,,,,,,,,54,,,,,,,,,,,,,,390.8609999996261,,response,,,,100,,,,,,,Space,keypress(Space),,,,,,,,-- --- ---- --- ------ ----- ------- ---- -- --- ------- --<br>------- ---------- ------ -- ----- -- ----- -- ---- ------<br>--- ----- --- --- ------ -------- ----- --- ------ value --<br>----- ----- ---------- --- --- ------ ------ ---- -- ------<br>------- --- ------ ----- --- ---- ------- -- ---- --- --<br>------- ------,350166.9000000004,350163.5999999996,349756.084,349765.19999999925,349772.739,350172.598,,31,value
screen,html.Screen,2_1_1_1_32,2022-02-02T12:34:05.738Z,,,,,,,,,,,,,,,,,54,,,,,,,,,,,,,,346.00199999962933,,response,,,,100,,,,,,,Space,keypress(Space),,,,,,,,-- --- ---- --- ------ ----- ------- ---- -- --- ------- --<br>------- ---------- ------ -- ----- -- ----- -- ---- ------<br>--- ----- --- --- ------ -------- ----- --- ------ ----- of<br>----- ----- ---------- --- --- ------ ------ ---- -- ------<br>------- --- ------ ----- --- ---- ------- -- ---- --- --<br>------- ------,350521,350518.5999999996,350155.943,350167.0999999996,350172.598,350522.445,,32,of
screen,html.Screen,2_1_1_1_33,2022-02-02T12:34:06.287Z,,,,,,,,,,,,,,,,,54,,,,,,,,,,,,,,544.1549999996205,,response,,,,100,,,,,,,Space,keypress(Space),,,,,,,,-- --- ---- --- ------ ----- ------- ---- -- --- ------- --<br>------- ---------- ------ -- ----- -- ----- -- ---- ------<br>--- ----- --- --- ------ -------- ----- --- ------ ----- --<br>these ----- ---------- --- --- ------ ------ ---- -- ------<br>------- --- ------ ----- --- ---- ------- -- ---- --- --<br>------- ------,351069.7999999989,351066.5999999996,350505.79,350521.2999999989,350522.445,351072.135,,33,these
screen,html.Screen,2_1_1_1_34,2022-02-02T12:34:06.687Z,,,,,,,,,,,,,,,,,54,,,,,,,,,,,,,,395.46499999961816,,response,,,,100,,,,,,,Space,keypress(Space),,,,,,,,-- --- ---- --- ------ ----- ------- ---- -- --- ------- --<br>------- ---------- ------ -- ----- -- ----- -- ---- ------<br>--- ----- --- --- ------ -------- ----- --- ------ ----- --<br>----- bonds ---------- --- --- ------ ------ ---- -- ------<br>------- --- ------ ----- --- ---- ------- -- ---- --- --<br>------- ------,351470,351467.5999999996,351055.48,351070,351072.135,351471.977,,34,bonds
screen,html.Screen,2_1_1_1_35,2022-02-02T12:34:08.533Z,,,,,,,,,,,,,,,,,54,,,,,,,,,,,,,,1841.622999999614,,response,,,,100,,,,,,,Space,keypress(Space),,,,,,,,"-- --- ---- --- ------ ----- ------- ---- -- --- ------- --<br>------- ---------- ------ -- ----- -- ----- -- ---- ------<br>--- ----- --- --- ------ -------- ----- --- ------ ----- --<br>----- ----- plummeted, --- --- ------ ------ ---- -- ------<br>------- --- ------ ----- --- ---- ------- -- ---- --- --<br>------- ------",353316.5999999996,353313.5999999996,351455.322,351470.19999999925,351471.977,353320.771,,35,"plummeted,"
screen,html.Screen,2_1_1_1_36,2022-02-02T12:34:08.966Z,,,,,,,,,,,,,,,,,54,,,,,,,,,,,,,,425.82899999961955,,response,,,,100,,,,,,,Space,keypress(Space),,,,,,,,-- --- ---- --- ------ ----- ------- ---- -- --- ------- --<br>------- ---------- ------ -- ----- -- ----- -- ---- ------<br>--- ----- --- --- ------ -------- ----- --- ------ ----- --<br>----- ----- ---------- and --- ------ ------ ---- -- ------<br>------- --- ------ ----- --- ---- ------- -- ---- --- --<br>------- ------,353749.4000000004,353746.5999999996,353304.116,353316.9000000004,353320.771,353754.195,,36,and
screen,html.Screen,2_1_1_1_37,2022-02-02T12:34:09.322Z,,,,,,,,,,,,,,,,,54,,,,,,,,,,,,,,348.4049999996205,,response,,,,100,,,,,,,Space,keypress(Space),,,,,,,,-- --- ---- --- ------ ----- ------- ---- -- --- ------- --<br>------- ---------- ------ -- ----- -- ----- -- ---- ------<br>--- ----- --- --- ------ -------- ----- --- ------ ----- --<br>----- ----- ---------- --- the ------ ------ ---- -- ------<br>------- --- ------ ----- --- ---- ------- -- ---- --- --<br>------- ------,354105.4000000004,354102.5999999996,353737.54,353749.69999999925,353754.195,354120.709,,37,the
screen,html.Screen,2_1_1_1_38,2022-02-02T12:34:09.803Z,,,,,,,,,,,,,,,,,54,,,,,,,,,,,,,,462.890999999654,,response,,,,100,,,,,,,Space,keypress(Space),,,,,,,,-- --- ---- --- ------ ----- ------- ---- -- --- ------- --<br>------- ---------- ------ -- ----- -- ----- -- ---- ------<br>--- ----- --- --- ------ -------- ----- --- ------ ----- --<br>----- ----- ---------- --- --- market ------ ---- -- ------<br>------- --- ------ ----- --- ---- ------- -- ---- --- --<br>------- ------,354586.5999999996,354583.5999999996,354104.054,354105.5999999996,354120.709,354603.778,,38,market
screen,html.Screen,2_1_1_1_39,2022-02-02T12:34:10.106Z,,,,,,,,,,,,,,,,,54,,,,,,,,,,,,,,282.8219999996363,,response,,,,100,,,,,,,Space,keypress(Space),,,,,,,,-- --- ---- --- ------ ----- ------- ---- -- --- ------- --<br>------- ---------- ------ -- ----- -- ----- -- ---- ------<br>--- ----- --- --- ------ -------- ----- --- ------ ----- --<br>----- ----- ---------- --- --- ------ became ---- -- ------<br>------- --- ------ ----- --- ---- ------- -- ---- --- --<br>------- ------,354889.5999999996,354886.5999999996,354587.123,354587,354603.778,354903.67,,39,became
screen,html.Screen,2_1_1_1_40,2022-02-02T12:34:11.295Z,,,,,,,,,,,,,,,,,54,,,,,,,,,,,,,,1171.9299999996438,,response,,,,100,,,,,,,Space,keypress(Space),,,,,,,,-- --- ---- --- ------ ----- ------- ---- -- --- ------- --<br>------- ---------- ------ -- ----- -- ----- -- ---- ------<br>--- ----- --- --- ------ -------- ----- --- ------ ----- --<br>----- ----- ---------- --- --- ------ ------ wary -- ------<br>------- --- ------ ----- --- ---- ------- -- ---- --- --<br>------- ------,356078.5,356075.5999999996,354887.015,354889.7999999989,354903.67,356086.241,,40,wary
screen,html.Screen,2_1_1_1_41,2022-02-02T12:34:11.759Z,,,,,,,,,,,,,,,,,54,,,,,,,,,,,,,,453.3589999996475,,response,,,,100,,,,,,,Space,keypress(Space),,,,,,,,-- --- ---- --- ------ ----- ------- ---- -- --- ------- --<br>------- ---------- ------ -- ----- -- ----- -- ---- ------<br>--- ----- --- --- ------ -------- ----- --- ------ ----- --<br>----- ----- ---------- --- --- ------ ------ ---- of ------<br>------- --- ------ ----- --- ---- ------- -- ---- --- --<br>------- ------,356542.5999999996,356539.5999999996,356069.586,356078.69999999925,356086.241,356552.844,,41,of
screen,html.Screen,2_1_1_1_42,2022-02-02T12:34:12.359Z,,,,,,,,,,,,,,,,,54,,,,,,,,,,,,,,586.7559999996447,,response,,,,100,,,,,,,Space,keypress(Space),,,,,,,,-- --- ---- --- ------ ----- ------- ---- -- --- ------- --<br>------- ---------- ------ -- ----- -- ----- -- ---- ------<br>--- ----- --- --- ------ -------- ----- --- ------ ----- --<br>----- ----- ---------- --- --- ------ ------ ---- -- French<br>------- --- ------ ----- --- ---- ------- -- ---- --- --<br>------- ------,357142.5999999996,357139.5999999996,356536.189,356542.69999999925,356552.844,357152.514,,42,French
screen,html.Screen,2_1_1_1_43,2022-02-02T12:34:14.609Z,,,,,,,,,,,,,,,,,54,,,,,,,,,,,,,,2237.085999999603,,response,,,,100,,,,,,,Space,keypress(Space),,,,,,,,-- --- ---- --- ------ ----- ------- ---- -- --- ------- --<br>------- ---------- ------ -- ----- -- ----- -- ---- ------<br>--- ----- --- --- ------ -------- ----- --- ------ ----- --<br>----- ----- ---------- --- --- ------ ------ ---- -- ------<br>credit. --- ------ ----- --- ---- ------- -- ---- --- --<br>------- ------,359392,359389.5999999996,357135.859,357142.7999999989,357152.514,359401.07,,43,credit.
screen,html.Screen,2_1_1_1_44,2022-02-02T12:34:14.992Z,,,,,,,,,,,,,,,,,54,,,,,,,,,,,,,,371.5299999996205,,response,,,,100,,,,,,,Space,keypress(Space),,,,,,,,-- --- ---- --- ------ ----- ------- ---- -- --- ------- --<br>------- ---------- ------ -- ----- -- ----- -- ---- ------<br>--- ----- --- --- ------ -------- ----- --- ------ ----- --<br>----- ----- ---------- --- --- ------ ------ ---- -- ------<br>------- The ------ ----- --- ---- ------- -- ---- --- --<br>------- ------,359774.7999999989,359772.5999999996,359384.415,359392.19999999925,359401.07,359784.626,,44,The
screen,html.Screen,2_1_1_1_45,2022-02-02T12:34:15.181Z,,,,,,,,,,,,,,,,,54,,,,,,,,,,,,,,176.97399999963818,,response,,,,100,,,,,,,Space,keypress(Space),,,,,,,,-- --- ---- --- ------ ----- ------- ---- -- --- ------- --<br>------- ---------- ------ -- ----- -- ----- -- ---- ------<br>--- ----- --- --- ------ -------- ----- --- ------ ----- --<br>----- ----- ---------- --- --- ------ ------ ---- -- ------<br>------- --- French ----- --- ---- ------- -- ---- --- --<br>------- ------,359964.5999999996,359961.5999999996,359767.971,359775,359784.626,359967.912,,45,French
screen,html.Screen,2_1_1_1_46,2022-02-02T12:34:16.342Z,,,,,,,,,,,,,,,,,54,,,,,,,,,,,,,,1153.6879999996163,,response,,,,100,,,,,,,Space,keypress(Space),,,,,,,,-- --- ---- --- ------ ----- ------- ---- -- --- ------- --<br>------- ---------- ------ -- ----- -- ----- -- ---- ------<br>--- ----- --- --- ------ -------- ----- --- ------ ----- --<br>----- ----- ---------- --- --- ------ ------ ---- -- ------<br>------- --- ------ state --- ---- ------- -- ---- --- --<br>------- ------,361124.69999999925,361121.5999999996,359951.257,359964.69999999925,359967.912,361133.803,,46,state
screen,html.Screen,2_1_1_1_47,2022-02-02T12:34:16.870Z,,,,,,,,,,,,,,,,,54,,,,,,,,,,,,,,516.796999999613,,response,,,,100,,,,,,,Space,keypress(Space),,,,,,,,-- --- ---- --- ------ ----- ------- ---- -- --- ------- --<br>------- ---------- ------ -- ----- -- ----- -- ---- ------<br>--- ----- --- --- ------ -------- ----- --- ------ ----- --<br>----- ----- ---------- --- --- ------ ------ ---- -- ------<br>------- --- ------ ----- was ---- ------- -- ---- --- --<br>------- ------,361652.69999999925,361650.5999999996,361117.148,361125,361133.803,361667.016,,47,was
screen,html.Screen,2_1_1_1_48,2022-02-02T12:34:17.377Z,,,,,,,,,,,,,,,,,54,,,,,,,,,,,,,,490.5839999996242,,response,,,,100,,,,,,,Space,keypress(Space),,,,,,,,-- --- ---- --- ------ ----- ------- ---- -- --- ------- --<br>------- ---------- ------ -- ----- -- ----- -- ---- ------<br>--- ----- --- --- ------ -------- ----- --- ------ ----- --<br>----- ----- ---------- --- --- ------ ------ ---- -- ------<br>------- --- ------ ----- --- left ------- -- ---- --- --<br>------- ------,362160.2999999989,362157.5999999996,361650.361,361653,361667.016,362166.777,,48,left
screen,html.Screen,2_1_1_1_49,2022-02-02T12:34:17.879Z,,,,,,,,,,,,,,,,,54,,,,,,,,,,,,,,492.8229999996256,,response,,,,100,,,,,,,Space,keypress(Space),,,,,,,,-- --- ---- --- ------ ----- ------- ---- -- --- ------- --<br>------- ---------- ------ -- ----- -- ----- -- ---- ------<br>--- ----- --- --- ------ -------- ----- --- ------ ----- --<br>----- ----- ---------- --- --- ------ ------ ---- -- ------<br>------- --- ------ ----- --- ---- without -- ---- --- --<br>------- ------,362662.2999999989,362659.5999999996,362150.122,362160.5,362166.777,362666.536,,49,without
screen,html.Screen,2_1_1_1_50,2022-02-02T12:34:18.314Z,,,,,,,,,,,,,,,,,54,,,,,,,,,,,,,,428.0639999996056,,response,,,,100,,,,,,,Space,keypress(Space),,,,,,,,-- --- ---- --- ------ ----- ------- ---- -- --- ------- --<br>------- ---------- ------ -- ----- -- ----- -- ---- ------<br>--- ----- --- --- ------ -------- ----- --- ------ ----- --<br>----- ----- ---------- --- --- ------ ------ ---- -- ------<br>------- --- ------ ----- --- ---- ------- an ---- --- --<br>------- ------,363097.69999999925,363094.5999999996,362649.881,362662.5999999996,362666.536,363099.677,,50,an
screen,html.Screen,2_1_1_1_51,2022-02-02T12:34:18.741Z,,,,,,,,,,,,,,,,,54,,,,,,,,,,,,,,421.9229999996023,,response,,,,100,,,,,,,Space,keypress(Space),,,,,,,,-- --- ---- --- ------ ----- ------- ---- -- --- ------- --<br>------- ---------- ------ -- ----- -- ----- -- ---- ------<br>--- ----- --- --- ------ -------- ----- --- ------ ----- --<br>----- ----- ---------- --- --- ------ ------ ---- -- ------<br>------- --- ------ ----- --- ---- ------- -- easy --- --<br>------- ------,363524.0999999996,363521.5999999996,363083.022,363097.9000000004,363099.677,363532.809,,51,easy
screen,html.Screen,2_1_1_1_52,2022-02-02T12:34:19.199Z,,,,,,,,,,,,,,,,,54,,,,,,,,,,,,,,445.7909999996191,,response,,,,100,,,,,,,Space,keypress(Space),,,,,,,,-- --- ---- --- ------ ----- ------- ---- -- --- ------- --<br>------- ---------- ------ -- ----- -- ----- -- ---- ------<br>--- ----- --- --- ------ -------- ----- --- ------ ----- --<br>----- ----- ---------- --- --- ------ ------ ---- -- ------<br>------- --- ------ ----- --- ---- ------- -- ---- way --<br>------- ------,363981.69999999925,363978.5999999996,363516.154,363524.2999999989,363532.809,363982.591,,52,way
screen,html.Screen,2_1_1_1_53,2022-02-02T12:34:19.558Z,,,,,,,,,,,,,,,,,54,,,,,,,,,,,,,,356.00899999961257,,response,,,,100,,,,,,,Space,keypress(Space),,,,,,,,-- --- ---- --- ------ ----- ------- ---- -- --- ------- --<br>------- ---------- ------ -- ----- -- ----- -- ---- ------<br>--- ----- --- --- ------ -------- ----- --- ------ ----- --<br>----- ----- ---------- --- --- ------ ------ ---- -- ------<br>------- --- ------ ----- --- ---- ------- -- ---- --- of<br>------- ------,364341.2999999989,364338.5999999996,363965.936,363982,363982.591,364349.088,,53,of
screen,html.Screen,2_1_1_1_54,2022-02-02T12:34:20.793Z,,,,,,,,,,,,,,,,,54,,,,,,,,,,,,,,1224.5119999996386,,response,,,,100,,,,,,,Space,keypress(Space),,,,,,,,-- --- ---- --- ------ ----- ------- ---- -- --- ------- --<br>------- ---------- ------ -- ----- -- ----- -- ---- ------<br>--- ----- --- --- ------ -------- ----- --- ------ ----- --<br>----- ----- ---------- --- --- ------ ------ ---- -- ------<br>------- --- ------ ----- --- ---- ------- -- ---- --- --<br>raising ------,365576.0999999996,365573.5999999996,364332.433,364341.5,364349.088,365581.643,,54,raising
screen,html.Screen,2_1_1_1_55,2022-02-02T12:34:21.283Z,,,,,,,,,,,,,,,,,54,,,,,,,,,,,,,,481.95699999964563,,response,,,,100,,,,,,,Space,keypress(Space),,,,,,,,-- --- ---- --- ------ ----- ------- ---- -- --- ------- --<br>------- ---------- ------ -- ----- -- ----- -- ---- ------<br>--- ----- --- --- ------ -------- ----- --- ------ ----- --<br>----- ----- ---------- --- --- ------ ------ ---- -- ------<br>------- --- ------ ----- --- ---- ------- -- ---- --- --<br>------- money.,366066.5999999996,366063.5999999996,365564.988,365576.2999999989,365581.643,366081.554,,55,money.
Item 100,flow.Loop,2_1_1_1,2022-02-02T12:34:21.284Z,,,,,,,,,,,,,,,,,,,,,,,,,,,,,,,37464.02999999962,,completion,,,,,A,,,,,,,,,,,silence,,,,,366066.9000000004,366063.5999999996,328582.915,328584.2999999989,328599.57,366081.554,,,
Question 1,html.Screen,2_1_1_2,2022-02-02T12:34:26.412Z,,,,,,,,,,,,,,,,,,,,,,,,,,,,true,TRUE,,5111.045999999624,,response,,,,100,A,,,,,,TRUE,click #choice-1,,,,silence,,,,,371195.0999999996,371192.5999999996,366064.899,366067.0999999996,366081.554,371195.827,,,
Question 2,html.Screen,2_1_1_3,2022-02-02T12:34:31.051Z,,,,,,,,,,,,,,,,,,,,,,,,,,,,true,FALSE,,4635.772999999637,,response,,,,100,A,,,,,,FALSE,click #choice-2,,,,silence,,,,,375834.19999999925,375831.5999999996,371179.172,371195.4000000004,371195.827,375843.562,,,
Item 100,flow.Sequence,2_1_1,2022-02-02T12:34:31.052Z,,,,,,,,,,,,,,,,,,,,,,,,,,,,,,,57227.01499999961,,completion,,,,,,,,,,,,,,,,,,,,,375834.69999999925,375831.5999999996,318587.93,318590.2999999989,318604.585,375843.562,,,
End of Practice,html.Page,2_1_2,2022-02-02T12:34:51.048Z,,,,,,,,,,,,,,,,,,,,,,,,,,,,,,,20002.703000000038,,timeout,,,,,,,,,,,,,,,,,,,,,395831.2999999989,395829.61,375826.907,375835,375843.562,395846.265,,,
Practice,flow.Sequence,2_1,2022-02-02T12:34:51.048Z,,,,,,,,,,,,,,,,,,,,,,,,,,,,,,,145408.71,,completion,,,,,,,,,,,,,,,,,,,,,395831.69999999925,395829.61,250404.245,250408,250420.9,395846.265,,,
Trap_instruction,html.Page,2_2_0,2022-02-02T12:34:51.470Z,,,,,,,,,,,,,,,,,,,,,,,,,,,,,,,405.73499999998603,,form submission,,,,,,,,,,,,,,,,,,,,,396252.69999999925,396252,395829.61,395832,395846.265,396267.051,,,
trap_trial,html.Screen,2_2_1,2022-02-02T12:34:56.529Z,,,,,,,,,,,,,,,,,,,,,,,,,,,,true,1,,5043.54899999965,,response,,,,,,,,,,,1,click #choice-1,,,,,,,,,401312.5999999996,401310.5999999996,396250.349,396253,396267.051,401314.608,,,
end of trap trial,html.Page,2_2_2,2022-02-02T12:35:00.842Z,,,,,,,,,,,,,,,,,,,,,,,,,,,,,,,4310.0919999992475,,form submission,,,,,,,,,,,,,,,,,,,,,405625.19999999925,405624.69999999925,401297.953,401312.9000000004,401314.608,405629.181,,,
Trap 1,flow.Sequence,2_2,2022-02-02T12:35:00.842Z,,,,,,,,,,,,,,,,,,,,,,,,,,,,,,,9778.434999999241,,completion,,,,,,,,,,,,,,,,,,,,,405625.4000000004,405624.69999999925,395829.61,395831.9000000004,395846.265,405629.181,,,
Standby,html.Page,2_3_0,2022-02-02T12:35:08.825Z,,,,,,,,,,,,,,,,,,,,,,,,,,,,,,,7994.42300000001,,timeout,,,,,,,,,,,,,,,,,,,,,413608.4000000004,413606.949,405612.526,405625.69999999925,405629.181,413623.604,,,
Holding screen,html.Screen,2_3_1_0_0,2022-02-02T12:35:15.823Z,,,,,,,,,,,,,,,,,,,,,,,,,,,,,,,6998.135000000009,,timeout,,,,,,,,,,,,,,,,,,,,,420605.9000000004,420605.084,413606.949,413608.69999999925,413623.604,420621.739,,,
screen,html.Screen,2_3_1_0_1_0,2022-02-02T12:35:17.505Z,,,,,,,,,,,,,,,,,15,,,,,,,,,,,,,,1663.860999999626,,response,,,,7,A,,,,,,Space,keypress(Space),,,,silence,,,,Greg --------- ---------- - --- ------- -- --- ------------<br>----- -- -------- ------- ---- ------ - -------- ---- -----<br>--- ------- ---- -- --- -------- --- - ----- ------ ---- --<br>-------- --- -------- -------- --- -------- ---- -- ----- -<br>-------- ---- --- ---------- --------- -- ------- ------ -<br>--------- ----- -----,422288.0999999996,422285.5999999996,420605.084,420606.4000000004,420621.739,422304.102,,0,Greg
screen,html.Screen,2_3_1_0_1_1,2022-02-02T12:35:18.371Z,,,,,,,,,,,,,,,,,15,,,,,,,,,,,,,,847.497999999614,,response,,,,7,A,,,,,,Space,keypress(Space),,,,silence,,,,"---- Anderson, ---------- - --- ------- -- --- ------------<br>----- -- -------- ------- ---- ------ - -------- ---- -----<br>--- ------- ---- -- --- -------- --- - ----- ------ ---- --<br>-------- --- -------- -------- --- -------- ---- -- ----- -<br>-------- ---- --- ---------- --------- -- ------- ------ -<br>--------- ----- -----",423154.19999999925,423151.5999999996,422287.447,422288.4000000004,422304.102,423170.537,,1,"Anderson,"
screen,html.Screen,2_3_1_0_1_2,2022-02-02T12:35:19.289Z,,,,,,,,,,,,,,,,,15,,,,,,,,,,,,,,899.0629999996163,,response,,,,7,A,,,,,,Space,keypress(Space),,,,silence,,,,---- --------- considered - --- ------- -- --- ------------<br>----- -- -------- ------- ---- ------ - -------- ---- -----<br>--- ------- ---- -- --- -------- --- - ----- ------ ---- --<br>-------- --- -------- -------- --- -------- ---- -- ----- -<br>-------- ---- --- ---------- --------- -- ------- ------ -<br>--------- ----- -----,424071.7999999989,424069.5999999996,423153.882,423154.4000000004,423170.537,424086.742,,2,considered
screen,html.Screen,2_3_1_0_1_3,2022-02-02T12:35:19.792Z,,,,,,,,,,,,,,,,,15,,,,,,,,,,,,,,485.8579999996,,response,,,,7,A,,,,,,Space,keypress(Space),,,,silence,,,,---- --------- ---------- a --- ------- -- --- ------------<br>----- -- -------- ------- ---- ------ - -------- ---- -----<br>--- ------- ---- -- --- -------- --- - ----- ------ ---- --<br>-------- --- -------- -------- --- -------- ---- -- ----- -<br>-------- ---- --- ---------- --------- -- ------- ------ -<br>--------- ----- -----,424575.4000000004,424572.5999999996,424070.087,424072.0999999996,424086.742,424586.591,,3,a
screen,html.Screen,2_3_1_0_1_4,2022-02-02T12:35:20.164Z,,,,,,,,,,,,,,,,,15,,,,,,,,,,,,,,358.00899999961257,,response,,,,7,A,,,,,,Space,keypress(Space),,,,silence,,,,---- --------- ---------- - key ------- -- --- ------------<br>----- -- -------- ------- ---- ------ - -------- ---- -----<br>--- ------- ---- -- --- -------- --- - ----- ------ ---- --<br>-------- --- -------- -------- --- -------- ---- -- ----- -<br>-------- ---- --- ---------- --------- -- ------- ------ -<br>--------- ----- -----,424946.7999999989,424944.5999999996,424569.936,424575.5,424586.591,424953.112,,4,key
screen,html.Screen,2_3_1_0_1_5,2022-02-02T12:35:21.054Z,,,,,,,,,,,,,,,,,15,,,,,,,,,,,,,,881.4879999996047,,response,,,,7,A,,,,,,Space,keypress(Space),,,,silence,,,,---- --------- ---------- - --- witness -- --- ------------<br>----- -- -------- ------- ---- ------ - -------- ---- -----<br>--- ------- ---- -- --- -------- --- - ----- ------ ---- --<br>-------- --- -------- -------- --- -------- ---- -- ----- -<br>-------- ---- --- ---------- --------- -- ------- ------ -<br>--------- ----- -----,425836.69999999925,425834.5999999996,424936.457,424947.0999999996,424953.112,425852.558,,5,witness
screen,html.Screen,2_3_1_0_1_6,2022-02-02T12:35:21.472Z,,,,,,,,,,,,,,,,,15,,,,,,,,,,,,,,400.0419999996084,,response,,,,7,A,,,,,,Space,keypress(Space),,,,silence,,,,---- --------- ---------- - --- ------- by --- ------------<br>----- -- -------- ------- ---- ------ - -------- ---- -----<br>--- ------- ---- -- --- -------- --- - ----- ------ ---- --<br>-------- --- -------- -------- --- -------- ---- -- ----- -<br>-------- ---- --- ---------- --------- -- ------- ------ -<br>--------- ----- -----,426255.2999999989,426252.5999999996,425835.903,425837,425852.558,426269.127,,6,by
screen,html.Screen,2_3_1_0_1_7,2022-02-02T12:35:21.985Z,,,,,,,,,,,,,,,,,15,,,,,,,,,,,,,,496.4729999996489,,response,,,,7,A,,,,,,Space,keypress(Space),,,,silence,,,,---- --------- ---------- - --- ------- -- the ------------<br>----- -- -------- ------- ---- ------ - -------- ---- -----<br>--- ------- ---- -- --- -------- --- - ----- ------ ---- --<br>-------- --- -------- -------- --- -------- ---- -- ----- -<br>-------- ---- --- ---------- --------- -- ------- ------ -<br>--------- ----- -----,426768.2999999989,426765.5999999996,426252.472,426255.5,426269.127,426785.523,,7,the
screen,html.Screen,2_3_1_0_1_8,2022-02-02T12:35:24.507Z,,,,,,,,,,,,,,,,,15,,,,,,,,,,,,,,2502.076999999641,,response,,,,7,A,,,,,,Space,keypress(Space),,,,silence,,,,"---- --------- ---------- - --- ------- -- --- prosecution,<br>----- -- -------- ------- ---- ------ - -------- ---- -----<br>--- ------- ---- -- --- -------- --- - ----- ------ ---- --<br>-------- --- -------- -------- --- -------- ---- -- ----- -<br>-------- ---- --- ---------- --------- -- ------- ------ -<br>--------- ----- -----",429290.2999999989,429287.5999999996,426768.868,426768.5,426785.523,429300.54,,8,"prosecution,"
screen,html.Screen,2_3_1_0_1_9,2022-02-02T12:35:26.106Z,,,,,,,,,,,,,,,,,15,,,,,,,,,,,,,,1586.0599999996484,,response,,,,7,A,,,,,,Space,keypress(Space),,,,silence,,,,---- --------- ---------- - --- ------- -- --- ------------<br>vowed -- -------- ------- ---- ------ - -------- ---- -----<br>--- ------- ---- -- --- -------- --- - ----- ------ ---- --<br>-------- --- -------- -------- --- -------- ---- -- ----- -<br>-------- ---- --- ---------- --------- -- ------- ------ -<br>--------- ----- -----,430889.5999999996,430886.5999999996,429283.885,429290.5,429300.54,430899.976,,9,vowed
screen,html.Screen,2_3_1_0_1_10,2022-02-02T12:35:26.576Z,,,,,,,,,,,,,,,,,15,,,,,,,,,,,,,,455.62399999960326,,response,,,,7,A,,,,,,Space,keypress(Space),,,,silence,,,,---- --------- ---------- - --- ------- -- --- ------------<br>----- he -------- ------- ---- ------ - -------- ---- -----<br>--- ------- ---- -- --- -------- --- - ----- ------ ---- --<br>-------- --- -------- -------- --- -------- ---- -- ----- -<br>-------- ---- --- ---------- --------- -- ------- ------ -<br>--------- ----- -----,431358.69999999925,431355.5999999996,430883.321,430889.9000000004,430899.976,431366.654,,10,he
screen,html.Screen,2_3_1_0_1_11,2022-02-02T12:35:27.310Z,,,,,,,,,,,,,,,,,15,,,,,,,,,,,,,,723.945999999647,,response,,,,7,A,,,,,,Space,keypress(Space),,,,silence,,,,---- --------- ---------- - --- ------- -- --- ------------<br>----- -- wouldn't ------- ---- ------ - -------- ---- -----<br>--- ------- ---- -- --- -------- --- - ----- ------ ---- --<br>-------- --- -------- -------- --- -------- ---- -- ----- -<br>-------- ---- --- ---------- --------- -- ------- ------ -<br>--------- ----- -----,432092.7999999989,432090.5999999996,431349.999,431358.9000000004,431366.654,432099.58,,11,wouldn't
screen,html.Screen,2_3_1_0_1_12,2022-02-02T12:35:28.097Z,,,,,,,,,,,,,,,,,15,,,,,,,,,,,,,,777.0199999996112,,response,,,,7,A,,,,,,Space,keypress(Space),,,,silence,,,,---- --------- ---------- - --- ------- -- --- ------------<br>----- -- -------- testify ---- ------ - -------- ---- -----<br>--- ------- ---- -- --- -------- --- - ----- ------ ---- --<br>-------- --- -------- -------- --- -------- ---- -- ----- -<br>-------- ---- --- ---------- --------- -- ------- ------ -<br>--------- ----- -----,432880.0999999996,432876.5999999996,432082.925,432093,432099.58,432882.519,,12,testify
screen,html.Screen,2_3_1_0_1_13,2022-02-02T12:35:28.851Z,,,,,,,,,,,,,,,,,15,,,,,,,,,,,,,,749.0809999996563,,response,,,,7,A,,,,,,Space,keypress(Space),,,,silence,,,,---- --------- ---------- - --- ------- -- --- ------------<br>----- -- -------- ------- when ------ - -------- ---- -----<br>--- ------- ---- -- --- -------- --- - ----- ------ ---- --<br>-------- --- -------- -------- --- -------- ---- -- ----- -<br>-------- ---- --- ---------- --------- -- ------- ------ -<br>--------- ----- -----,433633.9000000004,433631.5999999996,432865.864,432880.2999999989,432882.519,433648.821,,13,when
screen,html.Screen,2_3_1_0_1_14,2022-02-02T12:35:30.311Z,,,,,,,,,,,,,,,,,15,,,,,,,,,,,,,,1441.7789999996312,,response,,,,7,A,,,,,,Space,keypress(Space),,,,silence,,,,---- --------- ---------- - --- ------- -- --- ------------<br>----- -- -------- ------- ---- served - -------- ---- -----<br>--- ------- ---- -- --- -------- --- - ----- ------ ---- --<br>-------- --- -------- -------- --- -------- ---- -- ----- -<br>-------- ---- --- ---------- --------- -- ------- ------ -<br>--------- ----- -----,435093.9000000004,435090.5999999996,433632.166,433634.19999999925,433648.821,435097.968,,14,served
screen,html.Screen,2_3_1_0_1_15,2022-02-02T12:35:30.808Z,,,,,,,,,,,,,,,,,15,,,,,,,,,,,,,,489.631999999634,,response,,,,7,A,,,,,,Space,keypress(Space),,,,silence,,,,---- --------- ---------- - --- ------- -- --- ------------<br>----- -- -------- ------- ---- ------ a -------- ---- -----<br>--- ------- ---- -- --- -------- --- - ----- ------ ---- --<br>-------- --- -------- -------- --- -------- ---- -- ----- -<br>-------- ---- --- ---------- --------- -- ------- ------ -<br>--------- ----- -----,435591,435587.5999999996,435081.313,435094.4000000004,435097.968,435597.936,,15,a
screen,html.Screen,2_3_1_0_1_16,2022-02-02T12:35:33.769Z,,,,,,,,,,,,,,,,,15,,,,,,,,,,,,,,2951.6639999996405,,response,,,,7,A,,,,,,Space,keypress(Space),,,,silence,,,,---- --------- ---------- - --- ------- -- --- ------------<br>----- -- -------- ------- ---- ------ - subpoena ---- -----<br>--- ------- ---- -- --- -------- --- - ----- ------ ---- --<br>-------- --- -------- -------- --- -------- ---- -- ----- -<br>-------- ---- --- ---------- --------- -- ------- ------ -<br>--------- ----- -----,438551.69999999925,438549.5999999996,435581.281,435591.19999999925,435597.936,438562.635,,16,subpoena
screen,html.Screen,2_3_1_0_1_17,2022-02-02T12:35:34.410Z,,,,,,,,,,,,,,,,,15,,,,,,,,,,,,,,627.9649999996182,,response,,,,7,A,,,,,,Space,keypress(Space),,,,silence,,,,---- --------- ---------- - --- ------- -- --- ------------<br>----- -- -------- ------- ---- ------ - -------- last -----<br>--- ------- ---- -- --- -------- --- - ----- ------ ---- --<br>-------- --- -------- -------- --- -------- ---- -- ----- -<br>-------- ---- --- ---------- --------- -- ------- ------ -<br>--------- ----- -----,439193.2999999989,439190.5999999996,438545.98,438551.9000000004,438562.635,439196.165,,17,last
screen,html.Screen,2_3_1_0_1_18,2022-02-02T12:35:35.203Z,,,,,,,,,,,,,,,,,15,,,,,,,,,,,,,,786.4349999996484,,response,,,,7,A,,,,,,Space,keypress(Space),,,,silence,,,,---- --------- ---------- - --- ------- -- --- ------------<br>----- -- -------- ------- ---- ------ - -------- ---- week.<br>--- ------- ---- -- --- -------- --- - ----- ------ ---- --<br>-------- --- -------- -------- --- -------- ---- -- ----- -<br>-------- ---- --- ---------- --------- -- ------- ------ -<br>--------- ----- -----,439986,439982.5999999996,439179.51,439193.5,439196.165,439995.744,,18,week.
screen,html.Screen,2_3_1_0_1_19,2022-02-02T12:35:35.834Z,,,,,,,,,,,,,,,,,15,,,,,,,,,,,,,,617.8559999996214,,response,,,,7,A,,,,,,Space,keypress(Space),,,,silence,,,,---- --------- ---------- - --- ------- -- --- ------------<br>----- -- -------- ------- ---- ------ - -------- ---- -----<br>His ------- ---- -- --- -------- --- - ----- ------ ---- --<br>-------- --- -------- -------- --- -------- ---- -- ----- -<br>-------- ---- --- ---------- --------- -- ------- ------ -<br>--------- ----- -----,440616.9000000004,440613.5999999996,439979.089,439986.2999999989,439995.744,440628.808,,19,His
screen,html.Screen,2_3_1_0_1_20,2022-02-02T12:35:36.373Z,,,,,,,,,,,,,,,,,15,,,,,,,,,,,,,,523.7919999996084,,response,,,,7,A,,,,,,Space,keypress(Space),,,,silence,,,,---- --------- ---------- - --- ------- -- --- ------------<br>----- -- -------- ------- ---- ------ - -------- ---- -----<br>--- lawyers ---- -- --- -------- --- - ----- ------ ---- --<br>-------- --- -------- -------- --- -------- ---- -- ----- -<br>-------- ---- --- ---------- --------- -- ------- ------ -<br>--------- ----- -----,441155.7999999989,441152.5999999996,440612.153,440617.0999999996,440628.808,441161.91,,20,lawyers
screen,html.Screen,2_3_1_0_1_21,2022-02-02T12:35:36.965Z,,,,,,,,,,,,,,,,,15,,,,,,,,,,,,,,583.6899999996531,,response,,,,7,A,,,,,,Space,keypress(Space),,,,silence,,,,---- --------- ---------- - --- ------- -- --- ------------<br>----- -- -------- ------- ---- ------ - -------- ---- -----<br>--- ------- said -- --- -------- --- - ----- ------ ---- --<br>-------- --- -------- -------- --- -------- ---- -- ----- -<br>-------- ---- --- ---------- --------- -- ------- ------ -<br>--------- ----- -----,441748,441745.5999999996,441145.255,441155.9000000004,441161.91,441761.59,,21,said
screen,html.Screen,2_3_1_0_1_22,2022-02-02T12:35:37.412Z,,,,,,,,,,,,,,,,,15,,,,,,,,,,,,,,431.00999999960186,,response,,,,7,A,,,,,,Space,keypress(Space),,,,silence,,,,---- --------- ---------- - --- ------- -- --- ------------<br>----- -- -------- ------- ---- ------ - -------- ---- -----<br>--- ------- ---- he --- -------- --- - ----- ------ ---- --<br>-------- --- -------- -------- --- -------- ---- -- ----- -<br>-------- ---- --- ---------- --------- -- ------- ------ -<br>--------- ----- -----,442195.4000000004,442192.5999999996,441744.935,441748.2999999989,441761.59,442211.413,,22,he
screen,html.Screen,2_3_1_0_1_23,2022-02-02T12:35:37.781Z,,,,,,,,,,,,,,,,,15,,,,,,,,,,,,,,350.186999999627,,response,,,,7,A,,,,,,Space,keypress(Space),,,,silence,,,,---- --------- ---------- - --- ------- -- --- ------------<br>----- -- -------- ------- ---- ------ - -------- ---- -----<br>--- ------- ---- -- was -------- --- - ----- ------ ---- --<br>-------- --- -------- -------- --- -------- ---- -- ----- -<br>-------- ---- --- ---------- --------- -- ------- ------ -<br>--------- ----- -----,442564,442561.5999999996,442194.758,442195.5999999996,442211.413,442577.918,,23,was
screen,html.Screen,2_3_1_0_1_24,2022-02-02T12:35:38.520Z,,,,,,,,,,,,,,,,,15,,,,,,,,,,,,,,721.6819999996223,,response,,,,7,A,,,,,,Space,keypress(Space),,,,silence,,,,---- --------- ---------- - --- ------- -- --- ------------<br>----- -- -------- ------- ---- ------ - -------- ---- -----<br>--- ------- ---- -- --- prepared --- - ----- ------ ---- --<br>-------- --- -------- -------- --- -------- ---- -- ----- -<br>-------- ---- --- ---------- --------- -- ------- ------ -<br>--------- ----- -----,443302.9000000004,443299.5999999996,442561.263,442564.19999999925,442577.918,443310.818,,24,prepared
screen,html.Screen,2_3_1_0_1_25,2022-02-02T12:35:38.863Z,,,,,,,,,,,,,,,,,15,,,,,,,,,,,,,,332.78199999959907,,response,,,,7,A,,,,,,Space,keypress(Space),,,,silence,,,,---- --------- ---------- - --- ------- -- --- ------------<br>----- -- -------- ------- ---- ------ - -------- ---- -----<br>--- ------- ---- -- --- -------- for - ----- ------ ---- --<br>-------- --- -------- -------- --- -------- ---- -- ----- -<br>-------- ---- --- ---------- --------- -- ------- ------ -<br>--------- ----- -----,443646.19999999925,443643.5999999996,443294.163,443303.0999999996,443310.818,443660.738,,25,for
screen,html.Screen,2_3_1_0_1_26,2022-02-02T12:35:39.280Z,,,,,,,,,,,,,,,,,15,,,,,,,,,,,,,,399.86199999961536,,response,,,,7,A,,,,,,Space,keypress(Space),,,,silence,,,,---- --------- ---------- - --- ------- -- --- ------------<br>----- -- -------- ------- ---- ------ - -------- ---- -----<br>--- ------- ---- -- --- -------- --- a ----- ------ ---- --<br>-------- --- -------- -------- --- -------- ---- -- ----- -<br>-------- ---- --- ---------- --------- -- ------- ------ -<br>--------- ----- -----,444063.0999999996,444060.5999999996,443644.083,443646.5,443660.738,444077.186,,26,a
screen,html.Screen,2_3_1_0_1_27,2022-02-02T12:35:39.805Z,,,,,,,,,,,,,,,,,15,,,,,,,,,,,,,,507.4139999996405,,response,,,,7,A,,,,,,Space,keypress(Space),,,,silence,,,,---- --------- ---------- - --- ------- -- --- ------------<br>----- -- -------- ------- ---- ------ - -------- ---- -----<br>--- ------- ---- -- --- -------- --- - third ------ ---- --<br>-------- --- -------- -------- --- -------- ---- -- ----- -<br>-------- ---- --- ---------- --------- -- ------- ------ -<br>--------- ----- -----,444587.7999999989,444584.5999999996,444060.531,444063.2999999989,444077.186,444593.576,,27,third
screen,html.Screen,2_3_1_0_1_28,2022-02-02T12:35:40.382Z,,,,,,,,,,,,,,,,,15,,,,,,,,,,,,,,568.0239999996265,,response,,,,7,A,,,,,,Space,keypress(Space),,,,silence,,,,---- --------- ---------- - --- ------- -- --- ------------<br>----- -- -------- ------- ---- ------ - -------- ---- -----<br>--- ------- ---- -- --- -------- --- - ----- prison ---- --<br>-------- --- -------- -------- --- -------- ---- -- ----- -<br>-------- ---- --- ---------- --------- -- ------- ------ -<br>--------- ----- -----,445164.69999999925,445161.5999999996,444576.921,444588,444593.576,445176.616,,28,prison
screen,html.Screen,2_3_1_0_1_29,2022-02-02T12:35:40.985Z,,,,,,,,,,,,,,,,,15,,,,,,,,,,,,,,588.9839999996475,,response,,,,7,A,,,,,,Space,keypress(Space),,,,silence,,,,---- --------- ---------- - --- ------- -- --- ------------<br>----- -- -------- ------- ---- ------ - -------- ---- -----<br>--- ------- ---- -- --- -------- --- - ----- ------ stay --<br>-------- --- -------- -------- --- -------- ---- -- ----- -<br>-------- ---- --- ---------- --------- -- ------- ------ -<br>--------- ----- -----,445768,445765.5999999996,445159.961,445165,445176.616,445776.322,,29,stay
screen,html.Screen,2_3_1_0_1_30,2022-02-02T12:35:41.672Z,,,,,,,,,,,,,,,,,15,,,,,,,,,,,,,,676.2779999996419,,response,,,,7,A,,,,,,Space,keypress(Space),,,,silence,,,,---- --------- ---------- - --- ------- -- --- ------------<br>----- -- -------- ------- ---- ------ - -------- ---- -----<br>--- ------- ---- -- --- -------- --- - ----- ------ ---- to<br>-------- --- -------- -------- --- -------- ---- -- ----- -<br>-------- ---- --- ---------- --------- -- ------- ------ -<br>--------- ----- -----,446455.19999999925,446452.5999999996,445759.667,445768.19999999925,445776.322,446459.308,,30,to
screen,html.Screen,2_3_1_0_1_31,2022-02-02T12:35:42.601Z,,,,,,,,,,,,,,,,,15,,,,,,,,,,,,,,922.2919999996084,,response,,,,7,A,,,,,,Space,keypress(Space),,,,silence,,,,---- --------- ---------- - --- ------- -- --- ------------<br>----- -- -------- ------- ---- ------ - -------- ---- -----<br>--- ------- ---- -- --- -------- --- - ----- ------ ---- --<br>maintain --- -------- -------- --- -------- ---- -- ----- -<br>-------- ---- --- ---------- --------- -- ------- ------ -<br>--------- ----- -----,447383.7999999989,447381.5999999996,446442.653,446455.2999999989,446459.308,447392.15,,31,maintain
screen,html.Screen,2_3_1_0_1_32,2022-02-02T12:35:43.050Z,,,,,,,,,,,,,,,,,15,,,,,,,,,,,,,,438.4499999996042,,response,,,,7,A,,,,,,Space,keypress(Space),,,,silence,,,,---- --------- ---------- - --- ------- -- --- ------------<br>----- -- -------- ------- ---- ------ - -------- ---- -----<br>--- ------- ---- -- --- -------- --- - ----- ------ ---- --<br>-------- his -------- -------- --- -------- ---- -- ----- -<br>-------- ---- --- ---------- --------- -- ------- ------ -<br>--------- ----- -----,447833.5,447830.5999999996,447375.495,447384.0999999996,447392.15,447842.024,,32,his
screen,html.Screen,2_3_1_0_1_33,2022-02-02T12:35:43.487Z,,,,,,,,,,,,,,,,,15,,,,,,,,,,,,,,424.5759999996517,,response,,,,7,A,,,,,,Space,keypress(Space),,,,silence,,,,---- --------- ---------- - --- ------- -- --- ------------<br>----- -- -------- ------- ---- ------ - -------- ---- -----<br>--- ------- ---- -- --- -------- --- - ----- ------ ---- --<br>-------- --- silence. -------- --- -------- ---- -- ----- -<br>-------- ---- --- ---------- --------- -- ------- ------ -<br>--------- ----- -----,448269.9000000004,448266.5999999996,447825.369,447833.69999999925,447842.024,448275.15,,33,silence.
screen,html.Screen,2_3_1_0_1_34,2022-02-02T12:35:46.524Z,,,,,,,,,,,,,,,,,15,,,,,,,,,,,,,,3028.449999999604,,response,,,,7,A,,,,,,Space,keypress(Space),,,,silence,,,,---- --------- ---------- - --- ------- -- --- ------------<br>----- -- -------- ------- ---- ------ - -------- ---- -----<br>--- ------- ---- -- --- -------- --- - ----- ------ ---- --<br>-------- --- -------- Anderson --- -------- ---- -- ----- -<br>-------- ---- --- ---------- --------- -- ------- ------ -<br>--------- ----- -----,451307.19999999925,451303.5999999996,448258.495,448270.2999999989,448275.15,451323.109,,34,Anderson
screen,html.Screen,2_3_1_0_1_35,2022-02-02T12:35:46.964Z,,,,,,,,,,,,,,,,,15,,,,,,,,,,,,,,421.49099999963073,,response,,,,7,A,,,,,,Space,keypress(Space),,,,silence,,,,---- --------- ---------- - --- ------- -- --- ------------<br>----- -- -------- ------- ---- ------ - -------- ---- -----<br>--- ------- ---- -- --- -------- --- - ----- ------ ---- --<br>-------- --- -------- -------- was -------- ---- -- ----- -<br>-------- ---- --- ---------- --------- -- ------- ------ -<br>--------- ----- -----,451747.5999999996,451744.5999999996,451306.454,451307.5,451323.109,451756.797,,35,was
screen,html.Screen,2_3_1_0_1_36,2022-02-02T12:35:47.585Z,,,,,,,,,,,,,,,,,15,,,,,,,,,,,,,,608.802999999607,,response,,,,7,A,,,,,,Space,keypress(Space),,,,silence,,,,---- --------- ---------- - --- ------- -- --- ------------<br>----- -- -------- ------- ---- ------ - -------- ---- -----<br>--- ------- ---- -- --- -------- --- - ----- ------ ---- --<br>-------- --- -------- -------- --- released ---- -- ----- -<br>-------- ---- --- ---------- --------- -- ------- ------ -<br>--------- ----- -----,452368.4000000004,452365.5999999996,451740.142,451747.7999999989,451756.797,452373.131,,36,released
screen,html.Screen,2_3_1_0_1_37,2022-02-02T12:35:48.013Z,,,,,,,,,,,,,,,,,15,,,,,,,,,,,,,,419.4689999996335,,response,,,,7,A,,,,,,Space,keypress(Space),,,,silence,,,,---- --------- ---------- - --- ------- -- --- ------------<br>----- -- -------- ------- ---- ------ - -------- ---- -----<br>--- ------- ---- -- --- -------- --- - ----- ------ ---- --<br>-------- --- -------- -------- --- -------- July -- ----- -<br>-------- ---- --- ---------- --------- -- ------- ------ -<br>--------- ----- -----,452795.69999999925,452792.5999999996,452356.476,452369.9000000004,452373.131,452806.296,,37,July
screen,html.Screen,2_3_1_0_1_38,2022-02-02T12:35:48.468Z,,,,,,,,,,,,,,,,,15,,,,,,,,,,,,,,442.3039999996545,,response,,,,7,A,,,,,,Space,keypress(Space),,,,silence,,,,---- --------- ---------- - --- ------- -- --- ------------<br>----- -- -------- ------- ---- ------ - -------- ---- -----<br>--- ------- ---- -- --- -------- --- - ----- ------ ---- --<br>-------- --- -------- -------- --- -------- ---- 20 ----- -<br>-------- ---- --- ---------- --------- -- ------- ------ -<br>--------- ----- -----,453250.69999999925,453248.5999999996,452789.641,452795.9000000004,452806.296,453256.07,,38,20
screen,html.Screen,2_3_1_0_1_39,2022-02-02T12:35:49.114Z,,,,,,,,,,,,,,,,,15,,,,,,,,,,,,,,638.5299999996205,,response,,,,7,A,,,,,,Space,keypress(Space),,,,silence,,,,---- --------- ---------- - --- ------- -- --- ------------<br>----- -- -------- ------- ---- ------ - -------- ---- -----<br>--- ------- ---- -- --- -------- --- - ----- ------ ---- --<br>-------- --- -------- -------- --- -------- ---- -- after -<br>-------- ---- --- ---------- --------- -- ------- ------ -<br>--------- ----- -----,453897.19999999925,453894.5999999996,453239.415,453251.0999999996,453256.07,453905.727,,39,after
screen,html.Screen,2_3_1_0_1_40,2022-02-02T12:35:50.053Z,,,,,,,,,,,,,,,,,15,,,,,,,,,,,,,,926.872999999614,,response,,,,7,A,,,,,,Space,keypress(Space),,,,silence,,,,---- --------- ---------- - --- ------- -- --- ------------<br>----- -- -------- ------- ---- ------ - -------- ---- -----<br>--- ------- ---- -- --- -------- --- - ----- ------ ---- --<br>-------- --- -------- -------- --- -------- ---- -- ----- a<br>-------- ---- --- ---------- --------- -- ------- ------ -<br>--------- ----- -----,454835.69999999925,454832.5999999996,453889.072,453897.2999999989,453905.727,454838.529,,40,a
