sender,sender_type,sender_id,timestamp,meta,,Blues,Classical,Country,Dance,Electronic,Folk,Gospel,Hip-Hop,Jazz,Latin,Musical/Film,New-age,Pop,Prolific_id,Provo_ID,R&B,Rap,Reggae,Religious,Rock,Soul,Swing,Traditional,age,artist_name,correct,correctResponse,distraction,duration,education,ended_on,familiarity,gender,headphone_check_performance,item,list,music_frequency,offensiveness,pleasantness,position_correct,preference,response,response_action,snippet_file,song_name,song_rating,sound,stimulus_1,stimulus_2,stimulus_3,text,time_commit,time_end,time_render,time_run,time_show,time_switch,url,word,word_ID
Prolific ID,html.Form,0,2022-02-15T15:54:43.083Z,"{""labjs_version"":""20.2.2"",""labjs_build"":{""flavor"":""production"",""commit"":""a25486e0c714a0ae2ce03ff94b7bb6896854dcfa""},""location"":""https://run.pavlovia.org/mvasilev/prolific2_music_a/"",""userAgent"":""Mozilla/5.0 (Windows NT 10.0; Win64; x64) AppleWebKit/537.36 (KHTML, like Gecko) Chrome/98.0.4758.82 Safari/537.36"",""platform"":""Win32"",""language"":""en-US"",""locale"":""en-US"",""timeZone"":""Europe/London"",""timezoneOffset"":0,""screen_width"":1920,""screen_height"":1080,""scroll_width"":1920,""scroll_height"":921,""window_innerWidth"":1920,""window_innerHeight"":969,""devicePixelRatio"":1}",,,,,,,,,,,,,,,5ba6d33077f30d00014fe202,,,,,,,,,,,,,,,9836.080999964237,,form submission,,,,,,,,,,,,,,,,,,,,,24574.5,24574.099999964237,12187.161,12185.5,14738.019,24704.096,{},,
Introduction,html.Screen,1_0,2022-02-15T15:54:59.168Z,,,,,,,,,,,,,,,,,,,,,,,,,,,,,,,15952.503999964236,,response,,,,,,,,,,,continue,click button,,,,,,,,,40659.09999996424,40656.59999996424,24554.355,24574.799999952316,24704.096,40670.838,,,
Volume calibration,html.Screen,1_1,2022-02-15T15:55:33.082Z,,,,,,,,,,,,,,,,,,,,,,,,,,,,,,,33898.361999988076,,response,,,,,,,,,,,continue,click button,,,,,,,,,74572.5,74569.19999998808,40654.793,40659.19999998808,40670.838,74570.829,,,
Task instructions,html.Screen,1_2,2022-02-15T15:55:45.263Z,,,,,,,,,,,,,,,,,,,,,,,,,,,,,,,12181.870999988081,,response,,,,,,,,,,,continue,click button,,,,,,,,,86753.5,86752.69999998808,74554.679,74572.59999996424,74570.829,86786.178,,,
Sounds,html.Screen,1_3_0_0,2022-02-15T15:55:49.540Z,,,,,,,,,,,,,,,,,,,,,,,,,,,,,,,4251.356,,timeout,,,,,,,,,1,,,,,,,,S,O,I,,91030.5,91021.303,86738.071,86753.59999996424,86786.178,91037.534,,,
Judgement,html.Screen,1_3_0_1,2022-02-15T15:55:51.535Z,,,,,,,,,,,,,,,,,,,,,,,,,,,,true,1,,1987.5659999642376,,response,,,,,,,,,1,,1,click #choice-1,,,,,S,O,I,,93026.09999996424,93025.09999996424,91021.303,91030.69999998808,91037.534,93037.5,,,
Trial,flow.Sequence,1_3_0,2022-02-15T15:55:51.536Z,,,,,,,,,,,,,,,,,,,,,,,,,,,,,,,6238.921999964237,,completion,,,,,,,,,1,,,,,,,,S,O,I,,93026.39999997616,93025.09999996424,86738.071,86753.59999996424,86786.178,93037.5,,,
Sounds,html.Screen,1_3_1_0,2022-02-15T15:55:55.782Z,,,,,,,,,,,,,,,,,,,,,,,,,,,,,,,4250.239000000001,,timeout,,,,,,,,,1,,,,,,,,S,I,O,,97272.5,97271.065,93021.296,93026.59999996424,93037.5,97287.739,,,
Judgement,html.Screen,1_3_1_1,2022-02-15T15:55:56.591Z,,,,,,,,,,,,,,,,,,,,,,,,,,,,true,1,,792.8609999642358,,response,,,,,,,,,1,,1,click #choice-1,,,,,S,I,O,,98081.5,98080.59999996424,97271.065,97272.89999997616,97287.739,98087.62,,,
Trial,flow.Sequence,1_3_1,2022-02-15T15:55:56.591Z,,,,,,,,,,,,,,,,,,,,,,,,,,,,,,,5043.099999964237,,completion,,,,,,,,,1,,,,,,,,S,I,O,,98081.79999995232,98080.59999996424,93021.296,93026.39999997616,93037.5,98087.62,,,
Sounds,html.Screen,1_3_2_0,2022-02-15T15:56:00.833Z,,,,,,,,,,,,,,,,,,,,,,,,,,,,,,,4249.9100000000035,,timeout,,,,,,,,,3,,,,,,,,O,I,S,,102323.89999997616,102320.887,98071.135,98081.89999997616,98087.62,102337.53,,,
Judgement,html.Screen,1_3_2_1,2022-02-15T15:56:01.631Z,,,,,,,,,,,,,,,,,,,,,,,,,,,,true,3,,783.4700000000012,,response,,,,,,,,,3,,3,click #choice-3,,,,,O,I,S,,103122,103121,102320.887,102324.19999998808,102337.53,103137.783,,,
Trial,flow.Sequence,1_3_2,2022-02-15T15:56:01.632Z,,,,,,,,,,,,,,,,,,,,,,,,,,,,,,,5033.380000000005,,completion,,,,,,,,,3,,,,,,,,O,I,S,,103122.19999998808,103121,98071.135,98081.89999997616,98087.62,103137.783,,,
Sounds,html.Screen,1_3_3_0,2022-02-15T15:56:05.881Z,,,,,,,,,,,,,,,,,,,,,,,,,,,,,,,4250.012000000002,,timeout,,,,,,,,,3,,,,,,,,I,O,S,,107371.79999995232,107370.887,103121.241,103122.29999995232,103137.783,107387.795,,,
Judgement,html.Screen,1_3_3_1,2022-02-15T15:56:06.751Z,,,,,,,,,,,,,,,,,,,,,,,,,,,,true,3,,853.004999952318,,response,,,,,,,,,3,,3,click #choice-3,,,,,I,O,S,,108241.69999998808,108240.79999995232,107370.887,107372.09999996424,107387.795,108254.613,,,
Trial,flow.Sequence,1_3_3,2022-02-15T15:56:06.751Z,,,,,,,,,,,,,,,,,,,,,,,,,,,,,,,5103.0169999523205,,completion,,,,,,,,,3,,,,,,,,I,O,S,,108241.89999997616,108240.79999995232,103121.241,103122.29999995232,103137.783,108254.613,,,
Sounds,html.Screen,1_3_4_0,2022-02-15T15:56:11.000Z,,,,,,,,,,,,,,,,,,,,,,,,,,,,,,,4249.896999999997,,timeout,,,,,,,,,2,,,,,,,,O,S,I,,112490.5,112487.767,108238.111,108241.89999997616,108254.613,112504.51,,,
Judgement,html.Screen,1_3_4_1,2022-02-15T15:56:11.623Z,,,,,,,,,,,,,,,,,,,,,,,,,,,,true,2,,608.6899999880843,,response,,,,,,,,,2,,2,click #choice-2,,,,,O,S,I,,113114,113113.19999998808,112487.767,112490.69999998808,112504.51,113121.277,,,
Trial,flow.Sequence,1_3_4,2022-02-15T15:56:11.623Z,,,,,,,,,,,,,,,,,,,,,,,,,,,,,,,4858.5869999880815,,completion,,,,,,,,,2,,,,,,,,O,S,I,,113114.09999996424,113113.19999998808,108238.111,108241.89999997616,108254.613,113121.277,,,
Sounds,html.Screen,1_3_5_0,2022-02-15T15:56:15.864Z,,,,,,,,,,,,,,,,,,,,,,,,,,,,,,,4249.520000000004,,timeout,,,,,,,,,2,,,,,,,,I,S,O,,117354.89999997616,117354.137,113104.511,113114.19999998808,113121.277,117370.797,,,
Judgement,html.Screen,1_3_5_1,2022-02-15T15:56:16.423Z,,,,,,,,,,,,,,,,,,,,,,,,,,,,true,2,,541.6029999761522,,response,,,,,,,,,2,,2,click #choice-2,,,,,I,S,O,,117913.5,117912.39999997616,117354.137,117355,117370.797,117920.805,,,
Trial,flow.Sequence,1_3_5,2022-02-15T15:56:16.423Z,,,,,,,,,,,,,,,,,,,,,,,,,,,,,,,4791.122999976156,,completion,,,,,,,,,2,,,,,,,,I,S,O,,117914,117912.39999997616,113104.511,113114.19999998808,113121.277,117920.805,,,
Task,flow.Loop,1_3,2022-02-15T15:56:16.429Z,,,,,,,,,,,,,,,,,,,,,,,,,,,,,,,31126.22199997616,,completion,,,1,,,,,,,,,,,,,,,,,,117919.59999996424,117912.39999997616,86738.071,86753.5,86786.178,117920.805,,,
Trap,html.Screen,1_4,2022-02-15T15:56:16.431Z,,,,,,,,,,,,,,,,,,,,,,,,,,,,,,,NaN,,skipped,,,,,,,,,,,,,,,,,,,,,117921.5,117912.39999997616,,117921.29999995232,,117920.805,,,
Thanks,html.Screen,1_5,2022-02-15T15:56:21.215Z,,,,,,,,,,,,,,,,,,,,,,,,,,,,,,,4784.494999952323,,response,,,,,,,,,,,continue,click button,,,,,,,,,122706.09999996424,122705.29999995232,117904.637,117921.69999998808,117920.805,130654.213,,,
Headphone screening,flow.Sequence,1,2022-02-15T15:56:21.216Z,,,,,,,,,,,,,,,,,,,,,,,,,,,,,,,98001.20399995231,,completion,,,,,,,,,,,,,,,,,,,,,122706.19999998808,122705.29999995232,24554.355,24574.799999952316,24704.096,130654.213,,,
Instructions,html.Page,2_0,2022-02-15T15:56:56.380Z,,,,,,,,,,,,,,,,,,,,,,,,,,,,,,,27217.286999999997,,form submission,,,,,,,,,,,,,,,,,,,,,157871.79999995232,157871.5,130570.892,130647.5,130654.213,157870.837,,,
Holding screen,html.Screen,2_1_0_0,2022-02-15T15:57:06.365Z,,,,,,,,,,,,,,,,,,,,,,,,,,,,,,,10033.348999999987,,timeout,,,,,,,,,,,,,,,,,,,,,167856,167854.887,157854.313,157872,157870.837,167904.186,,,
screen,html.Screen,2_1_0_1_0,2022-02-15T15:57:07.552Z,,,,,,,,,,,,,,,,,53,,,,,,,,,,,,,,1130.4139999642503,,response,,,,99,,,,,,,Space,keypress(Space),,,,,,,,When -- ----- -- ------ - ------- --- ----------<br>------------- ------ ------ ---- ---- ------- ----- -- ----<br>-------- ------- -- ---------- --- - --- ----- ----- ----<br>---- --- --- ----- --- ---- ---- ------- ----- ---- -------<br>--- --- -- ----- -- --- ---- -- --- ---- -- ------ ------<br>--- ----- -- ----,169043.09999996424,169034.59999996424,167854.887,167856.59999996424,167904.186,169054.545,,0,When
screen,html.Screen,2_1_0_1_1,2022-02-15T15:57:08.903Z,,,,,,,,,,,,,,,,,53,,,,,,,,,,,,,,1339.2549999523035,,response,,,,99,,,,,,,Space,keypress(Space),,,,,,,,---- it ----- -- ------ - ------- --- ----------<br>------------- ------ ------ ---- ---- ------- ----- -- ----<br>-------- ------- -- ---------- --- - --- ----- ----- ----<br>---- --- --- ----- --- ---- ---- ------- ----- ---- -------<br>--- --- -- ----- -- --- ---- -- --- ---- -- ------ ------<br>--- ----- -- ----,170394.69999998808,170393.79999995232,169038.155,169043.39999997616,169054.545,170404.284,,1,it
screen,html.Screen,2_1_0_1_2,2022-02-15T15:57:09.951Z,,,,,,,,,,,,,,,,,53,,,,,,,,,,,,,,1037.615999976144,,response,,,,99,,,,,,,Space,keypress(Space),,,,,,,,---- -- comes -- ------ - ------- --- ----------<br>------------- ------ ------ ---- ---- ------- ----- -- ----<br>-------- ------- -- ---------- --- - --- ----- ----- ----<br>---- --- --- ----- --- ---- ---- ------- ----- ---- -------<br>--- --- -- ----- -- --- ---- -- --- ---- -- ------ ------<br>--- ----- -- ----,171442.79999995232,171441.89999997616,170387.716,170395,170404.284,171454.518,,2,comes
screen,html.Screen,2_1_0_1_3,2022-02-15T15:57:10.815Z,,,,,,,,,,,,,,,,,53,,,,,,,,,,,,,,851.1819999880681,,response,,,,99,,,,,,,Space,keypress(Space),,,,,,,,---- -- ----- to ------ - ------- --- ----------<br>------------- ------ ------ ---- ---- ------- ----- -- ----<br>-------- ------- -- ---------- --- - --- ----- ----- ----<br>---- --- --- ----- --- ---- ---- ------- ----- ---- -------<br>--- --- -- ----- -- --- ---- -- --- ---- -- ------ ------<br>--- ----- -- ----,172306.5,172305.69999998808,171437.891,171443,171454.518,172320.914,,3,to
screen,html.Screen,2_1_0_1_4,2022-02-15T15:57:11.903Z,,,,,,,,,,,,,,,,,53,,,,,,,,,,,,,,1072.7859999880893,,response,,,,99,,,,,,,Space,keypress(Space),,,,,,,,---- -- ----- -- having - ------- --- ----------<br>------------- ------ ------ ---- ---- ------- ----- -- ----<br>-------- ------- -- ---------- --- - --- ----- ----- ----<br>---- --- --- ----- --- ---- ---- ------- ----- ---- -------<br>--- --- -- ----- -- --- ---- -- --- ---- -- ------ ------<br>--- ----- -- ----,173394.59999996424,173393.69999998808,172304.761,172306.69999998808,172320.914,173404.58,,4,having
screen,html.Screen,2_1_0_1_5,2022-02-15T15:57:13.247Z,,,,,,,,,,,,,,,,,53,,,,,,,,,,,,,,1333.219999952329,,response,,,,99,,,,,,,Space,keypress(Space),,,,,,,,---- -- ----- -- ------ a ------- --- ----------<br>------------- ------ ------ ---- ---- ------- ----- -- ----<br>-------- ------- -- ---------- --- - --- ----- ----- ----<br>---- --- --- ----- --- ---- ---- ------- ----- ---- -------<br>--- --- -- ----- -- --- ---- -- --- ---- -- ------ ------<br>--- ----- -- ----,174738.79999995232,174737.79999995232,173388.037,173394.79999995232,173404.58,174754.791,,5,a
screen,html.Screen,2_1_0_1_6,2022-02-15T15:57:13.983Z,,,,,,,,,,,,,,,,,53,,,,,,,,,,,,,,718.8089999642398,,response,,,,99,,,,,,,Space,keypress(Space),,,,,,,,---- -- ----- -- ------ - lasting --- ----------<br>------------- ------ ------ ---- ---- ------- ----- -- ----<br>-------- ------- -- ---------- --- - --- ----- ----- ----<br>---- --- --- ----- --- ---- ---- ------- ----- ---- -------<br>--- --- -- ----- -- --- ---- -- --- ---- -- ------ ------<br>--- ----- -- ----,175474.39999997616,175473.59999996424,174738.088,174738.89999997616,174754.791,175487.835,,6,lasting
screen,html.Screen,2_1_0_1_7,2022-02-15T15:57:14.615Z,,,,,,,,,,,,,,,,,53,,,,,,,,,,,,,,617.4649999523244,,response,,,,99,,,,,,,Space,keypress(Space),,,,,,,,---- -- ----- -- ------ - ------- and ----------<br>------------- ------ ------ ---- ---- ------- ----- -- ----<br>-------- ------- -- ---------- --- - --- ----- ----- ----<br>---- --- --- ----- --- ---- ---- ------- ----- ---- -------<br>--- --- -- ----- -- --- ---- -- --- ---- -- ------ ------<br>--- ----- -- ----,176106.29999995232,176105.29999995232,175471.387,175474.59999996424,175487.835,176120.874,,7,and
screen,html.Screen,2_1_0_1_8,2022-02-15T15:57:15.255Z,,,,,,,,,,,,,,,,,53,,,,,,,,,,,,,,625.1259999999893,,response,,,,99,,,,,,,Space,keypress(Space),,,,,,,,---- -- ----- -- ------ - ------- --- fulfilling<br>------------- ------ ------ ---- ---- ------- ----- -- ----<br>-------- ------- -- ---------- --- - --- ----- ----- ----<br>---- --- --- ----- --- ---- ---- ------- ----- ---- -------<br>--- --- -- ----- -- --- ---- -- --- ---- -- ------ ------<br>--- ----- -- ----,176746.89999997616,176746,176104.328,176106.59999996424,176120.874,176754.177,,8,fulfilling
screen,html.Screen,2_1_0_1_9,2022-02-15T15:57:16.079Z,,,,,,,,,,,,,,,,,53,,,,,,,,,,,,,,815.6229999523202,,response,,,,99,,,,,,,Space,keypress(Space),,,,,,,,"---- -- ----- -- ------ - ------- --- ----------<br>relationship, ------ ------ ---- ---- ------- ----- -- ----<br>-------- ------- -- ---------- --- - --- ----- ----- ----<br>---- --- --- ----- --- ---- ---- ------- ----- ---- -------<br>--- --- -- ----- -- --- ---- -- --- ---- -- ------ ------<br>--- ----- -- ----",177570.59999996424,177569.79999995232,176737.495,176747.19999998808,176754.177,177604.698,,9,"relationship,"
screen,html.Screen,2_1_0_1_10,2022-02-15T15:57:17.359Z,,,,,,,,,,,,,,,,,53,,,,,,,,,,,,,,1245.001999988075,,response,,,,99,,,,,,,Space,keypress(Space),,,,,,,,---- -- ----- -- ------ - ------- --- ----------<br>------------- common ------ ---- ---- ------- ----- -- ----<br>-------- ------- -- ---------- --- - --- ----- ----- ----<br>---- --- --- ----- --- ---- ---- ------- ----- ---- -------<br>--- --- -- ----- -- --- ---- -- --- ---- -- ------ ------<br>--- ----- -- ----,178850.59999996424,178849.69999998808,177588.121,177570.79999995232,177604.698,178854.188,,10,common
screen,html.Screen,2_1_0_1_11,2022-02-15T15:57:18.186Z,,,,,,,,,,,,,,,,,53,,,,,,,,,,,,,,821.1119999523216,,response,,,,99,,,,,,,Space,keypress(Space),,,,,,,,---- -- ----- -- ------ - ------- --- ----------<br>------------- ------ wisdom ---- ---- ------- ----- -- ----<br>-------- ------- -- ---------- --- - --- ----- ----- ----<br>---- --- --- ----- --- ---- ---- ------- ----- ---- -------<br>--- --- -- ----- -- --- ---- -- --- ---- -- ------ ------<br>--- ----- -- ----,179677.29999995232,179675.29999995232,178838.095,178850.69999998808,178854.188,179687.572,,11,wisdom
screen,html.Screen,2_1_0_1_12,2022-02-15T15:57:19.064Z,,,,,,,,,,,,,,,,,53,,,,,,,,,,,,,,866.2279999523307,,response,,,,99,,,,,,,Space,keypress(Space),,,,,,,,---- -- ----- -- ------ - ------- --- ----------<br>------------- ------ ------ says ---- ------- ----- -- ----<br>-------- ------- -- ---------- --- - --- ----- ----- ----<br>---- --- --- ----- --- ---- ---- ------- ----- ---- -------<br>--- --- -- ----- -- --- ---- -- --- ---- -- ------ ------<br>--- ----- -- ----,180555.69999998808,180553.79999995232,179670.918,179677.69999998808,179687.572,180570.961,,12,says
screen,html.Screen,2_1_0_1_13,2022-02-15T15:57:19.648Z,,,,,,,,,,,,,,,,,53,,,,,,,,,,,,,,567.138999964227,,response,,,,99,,,,,,,Space,keypress(Space),,,,,,,,---- -- ----- -- ------ - ------- --- ----------<br>------------- ------ ------ ---- that ------- ----- -- ----<br>-------- ------- -- ---------- --- - --- ----- ----- ----<br>---- --- --- ----- --- ---- ---- ------- ----- ---- -------<br>--- --- -- ----- -- --- ---- -- --- ---- -- ------ ------<br>--- ----- -- ----,181139,181138.09999996424,180554.198,180556,180570.961,181154.84,,13,that
screen,html.Screen,2_1_0_1_14,2022-02-15T15:57:20.240Z,,,,,,,,,,,,,,,,,53,,,,,,,,,,,,,,575.0599999761616,,response,,,,99,,,,,,,Space,keypress(Space),,,,,,,,---- -- ----- -- ------ - ------- --- ----------<br>------------- ------ ------ ---- ---- feeling ----- -- ----<br>-------- ------- -- ---------- --- - --- ----- ----- ----<br>---- --- --- ----- --- ---- ---- ------- ----- ---- -------<br>--- --- -- ----- -- --- ---- -- --- ---- -- ------ ------<br>--- ----- -- ----,181731,181729.89999997616,181138.131,181139.19999998808,181154.84,181737.63,,14,feeling
screen,html.Screen,2_1_0_1_15,2022-02-15T15:57:20.720Z,,,,,,,,,,,,,,,,,53,,,,,,,,,,,,,,472.36999999999534,,response,,,,99,,,,,,,Space,keypress(Space),,,,,,,,---- -- ----- -- ------ - ------- --- ----------<br>------------- ------ ------ ---- ---- ------- close -- ----<br>-------- ------- -- ---------- --- - --- ----- ----- ----<br>---- --- --- ----- --- ---- ---- ------- ----- ---- -------<br>--- --- -- ----- -- --- ---- -- --- ---- -- ------ ------<br>--- ----- -- ----,182211.29999995232,182210,181721.425,181731.19999998808,181737.63,182221.23,,15,close
screen,html.Screen,2_1_0_1_16,2022-02-15T15:57:21.103Z,,,,,,,,,,,,,,,,,53,,,,,,,,,,,,,,372.4699999880686,,response,,,,99,,,,,,,Space,keypress(Space),,,,,,,,---- -- ----- -- ------ - ------- --- ----------<br>------------- ------ ------ ---- ---- ------- ----- to ----<br>-------- ------- -- ---------- --- - --- ----- ----- ----<br>---- --- --- ----- --- ---- ---- ------- ----- ---- -------<br>--- --- -- ----- -- --- ---- -- --- ---- -- ------ ------<br>--- ----- -- ----,182594.69999998808,182593.69999998808,182204.377,182211.5,182221.23,182604.343,,16,to
screen,html.Screen,2_1_0_1_17,2022-02-15T15:57:21.671Z,,,,,,,,,,,,,,,,,53,,,,,,,,,,,,,,556.9569999523228,,response,,,,99,,,,,,,Space,keypress(Space),,,,,,,,---- -- ----- -- ------ - ------- --- ----------<br>------------- ------ ------ ---- ---- ------- ----- -- your<br>-------- ------- -- ---------- --- - --- ----- ----- ----<br>---- --- --- ----- --- ---- ---- ------- ----- ---- -------<br>--- --- -- ----- -- --- ---- -- --- ---- -- ------ ------<br>--- ----- -- ----,183162.19999998808,183161.29999995232,182587.777,182594.79999995232,182604.343,183170.93,,17,your
screen,html.Screen,2_1_0_1_18,2022-02-15T15:57:22.392Z,,,,,,,,,,,,,,,,,53,,,,,,,,,,,,,,711.269999988086,,response,,,,99,,,,,,,Space,keypress(Space),,,,,,,,---- -- ----- -- ------ - ------- --- ----------<br>------------- ------ ------ ---- ---- ------- ----- -- ----<br>romantic ------- -- ---------- --- - --- ----- ----- ----<br>---- --- --- ----- --- ---- ---- ------- ----- ---- -------<br>--- --- -- ----- -- --- ---- -- --- ---- -- ------ ------<br>--- ----- -- ----,183883.09999996424,183882.19999998808,183154.201,183162.39999997616,183170.93,183887.567,,18,romantic
screen,html.Screen,2_1_0_1_19,2022-02-15T15:57:22.959Z,,,,,,,,,,,,,,,,,53,,,,,,,,,,,,,,562.3329999761481,,response,,,,99,,,,,,,Space,keypress(Space),,,,,,,,---- -- ----- -- ------ - ------- --- ----------<br>------------- ------ ------ ---- ---- ------- ----- -- ----<br>-------- partner -- ---------- --- - --- ----- ----- ----<br>---- --- --- ----- --- ---- ---- ------- ----- ---- -------<br>--- --- -- ----- -- --- ---- -- --- ---- -- ------ ------<br>--- ----- -- ----,184450.79999995232,184449.89999997616,183870.88,183883.39999997616,183887.567,184454.189,,19,partner
screen,html.Screen,2_1_0_1_20,2022-02-15T15:57:23.375Z,,,,,,,,,,,,,,,,,53,,,,,,,,,,,,,,411.7109999761451,,response,,,,99,,,,,,,Space,keypress(Space),,,,,,,,---- -- ----- -- ------ - ------- --- ----------<br>------------- ------ ------ ---- ---- ------- ----- -- ----<br>-------- ------- is ---------- --- - --- ----- ----- ----<br>---- --- --- ----- --- ---- ---- ------- ----- ---- -------<br>--- --- -- ----- -- --- ---- -- --- ---- -- ------ ------<br>--- ----- -- ----,184866.89999997616,184865.89999997616,184437.742,184450.89999997616,184454.189,184870.867,,20,is
screen,html.Screen,2_1_0_1_21,2022-02-15T15:57:24.367Z,,,,,,,,,,,,,,,,,53,,,,,,,,,,,,,,986.8329999880807,,response,,,,99,,,,,,,Space,keypress(Space),,,,,,,,---- -- ----- -- ------ - ------- --- ----------<br>------------- ------ ------ ---- ---- ------- ----- -- ----<br>-------- ------- -- paramount. --- - --- ----- ----- ----<br>---- --- --- ----- --- ---- ---- ------- ----- ---- -------<br>--- --- -- ----- -- --- ---- -- --- ---- -- ------ ------<br>--- ----- -- ----,185858.5,185857.69999998808,184854.411,184867.09999996424,184870.867,185870.867,,21,paramount.
screen,html.Screen,2_1_0_1_22,2022-02-15T15:57:24.839Z,,,,,,,,,,,,,,,,,53,,,,,,,,,,,,,,459.0329999761598,,response,,,,99,,,,,,,Space,keypress(Space),,,,,,,,---- -- ----- -- ------ - ------- --- ----------<br>------------- ------ ------ ---- ---- ------- ----- -- ----<br>-------- ------- -- ---------- But - --- ----- ----- ----<br>---- --- --- ----- --- ---- ---- ------- ----- ---- -------<br>--- --- -- ----- -- --- ---- -- --- ---- -- ------ ------<br>--- ----- -- ----,186330.89999997616,186329.89999997616,185854.746,185858.59999996424,185870.867,186337.635,,22,But
screen,html.Screen,2_1_0_1_23,2022-02-15T15:57:25.215Z,,,,,,,,,,,,,,,,,53,,,,,,,,,,,,,,368.26499997614883,,response,,,,99,,,,,,,Space,keypress(Space),,,,,,,,---- -- ----- -- ------ - ------- --- ----------<br>------------- ------ ------ ---- ---- ------- ----- -- ----<br>-------- ------- -- ---------- --- a --- ----- ----- ----<br>---- --- --- ----- --- ---- ---- ------- ----- ---- -------<br>--- --- -- ----- -- --- ---- -- --- ---- -- ------ ------<br>--- ----- -- ----,186706.69999998808,186705.89999997616,186321.416,186331.09999996424,186337.635,186720.94,,23,a
screen,html.Screen,2_1_0_1_24,2022-02-15T15:57:25.584Z,,,,,,,,,,,,,,,,,53,,,,,,,,,,,,,,352.75999998807674,,response,,,,99,,,,,,,Space,keypress(Space),,,,,,,,---- -- ----- -- ------ - ------- --- ----------<br>------------- ------ ------ ---- ---- ------- ----- -- ----<br>-------- ------- -- ---------- --- - new ----- ----- ----<br>---- --- --- ----- --- ---- ---- ------- ----- ---- -------<br>--- --- -- ----- -- --- ---- -- --- ---- -- ------ ------<br>--- ----- -- ----,187074.59999996424,187073.69999998808,186704.241,186707,186720.94,187088.092,,24,new
screen,html.Screen,2_1_0_1_25,2022-02-15T15:57:26.008Z,,,,,,,,,,,,,,,,,53,,,,,,,,,,,,,,410.2079999523121,,response,,,,99,,,,,,,Space,keypress(Space),,,,,,,,---- -- ----- -- ------ - ------- --- ----------<br>------------- ------ ------ ---- ---- ------- ----- -- ----<br>-------- ------- -- ---------- --- - --- study ----- ----<br>---- --- --- ----- --- ---- ---- ------- ----- ---- -------<br>--- --- -- ----- -- --- ---- -- --- ---- -- ------ ------<br>--- ----- -- ----,187499.09999996424,187498.29999995232,187071.181,187074.69999998808,187088.092,187504.19,,25,study
screen,html.Screen,2_1_0_1_26,2022-02-15T15:57:26.560Z,,,,,,,,,,,,,,,,,53,,,,,,,,,,,,,,545.8099999999977,,response,,,,99,,,,,,,Space,keypress(Space),,,,,,,,---- -- ----- -- ------ - ------- --- ----------<br>------------- ------ ------ ---- ---- ------- ----- -- ----<br>-------- ------- -- ---------- --- - --- ----- finds ----<br>---- --- --- ----- --- ---- ---- ------- ----- ---- -------<br>--- --- -- ----- -- --- ---- -- --- ---- -- ------ ------<br>--- ----- -- ----,188051,188050,187487.729,187499.29999995232,187504.19,188054.195,,26,finds
screen,html.Screen,2_1_0_1_27,2022-02-15T15:57:26.968Z,,,,,,,,,,,,,,,,,53,,,,,,,,,,,,,,403.804999999993,,response,,,,99,,,,,,,Space,keypress(Space),,,,,,,,---- -- ----- -- ------ - ------- --- ----------<br>------------- ------ ------ ---- ---- ------- ----- -- ----<br>-------- ------- -- ---------- --- - --- ----- ----- that<br>---- --- --- ----- --- ---- ---- ------- ----- ---- -------<br>--- --- -- ----- -- --- ---- -- --- ---- -- ------ ------<br>--- ----- -- ----,188459.19999998808,188458,188038.087,188051.89999997616,188054.195,188471.103,,27,that
screen,html.Screen,2_1_0_1_28,2022-02-15T15:57:27.496Z,,,,,,,,,,,,,,,,,53,,,,,,,,,,,,,,514.6969999523135,,response,,,,99,,,,,,,Space,keypress(Space),,,,,,,,---- -- ----- -- ------ - ------- --- ----------<br>------------- ------ ------ ---- ---- ------- ----- -- ----<br>-------- ------- -- ---------- --- - --- ----- ----- ----<br>it's --- --- ----- --- ---- ---- ------- ----- ---- -------<br>--- --- -- ----- -- --- ---- -- --- ---- -- ------ ------<br>--- ----- -- ----,188986.69999998808,188985.79999995232,188454.49,188459.39999997616,188471.103,189014.534,,28,it's
screen,html.Screen,2_1_0_1_29,2022-02-15T15:57:27.999Z,,,,,,,,,,,,,,,,,53,,,,,,,,,,,,,,474.86599997614394,,response,,,,99,,,,,,,Space,keypress(Space),,,,,,,,---- -- ----- -- ------ - ------- --- ----------<br>------------- ------ ------ ---- ---- ------- ----- -- ----<br>-------- ------- -- ---------- --- - --- ----- ----- ----<br>---- not --- ----- --- ---- ---- ------- ----- ---- -------<br>--- --- -- ----- -- --- ---- -- --- ---- -- ------ ------<br>--- ----- -- ----,189490.39999997616,189489.39999997616,188971.405,188986.89999997616,189014.534,189504.441,,29,not
screen,html.Screen,2_1_0_1_30,2022-02-15T15:57:28.449Z,,,,,,,,,,,,,,,,,53,,,,,,,,,,,,,,434.6589999642456,,response,,,,99,,,,,,,Space,keypress(Space),,,,,,,,---- -- ----- -- ------ - ------- --- ----------<br>------------- ------ ------ ---- ---- ------- ----- -- ----<br>-------- ------- -- ---------- --- - --- ----- ----- ----<br>---- --- how ----- --- ---- ---- ------- ----- ---- -------<br>--- --- -- ----- -- --- ---- -- --- ---- -- ------ ------<br>--- ----- -- ----,189940.09999996424,189939.09999996424,189488.109,189490.59999996424,189504.441,189954.768,,30,how
screen,html.Screen,2_1_0_1_31,2022-02-15T15:57:28.928Z,,,,,,,,,,,,,,,,,53,,,,,,,,,,,,,,463.53199995230534,,response,,,,99,,,,,,,Space,keypress(Space),,,,,,,,---- -- ----- -- ------ - ------- --- ----------<br>------------- ------ ------ ---- ---- ------- ----- -- ----<br>-------- ------- -- ---------- --- - --- ----- ----- ----<br>---- --- --- close --- ---- ---- ------- ----- ---- -------<br>--- --- -- ----- -- --- ---- -- --- ---- -- ------ ------<br>--- ----- -- ----,190419.29999995232,190418.29999995232,189937.805,189940.19999998808,189954.768,190438.14,,31,close
screen,html.Screen,2_1_0_1_32,2022-02-15T15:57:29.384Z,,,,,,,,,,,,,,,,,53,,,,,,,,,,,,,,435.45999996422324,,response,,,,99,,,,,,,Space,keypress(Space),,,,,,,,---- -- ----- -- ------ - ------- --- ----------<br>------------- ------ ------ ---- ---- ------- ----- -- ----<br>-------- ------- -- ---------- --- - --- ----- ----- ----<br>---- --- --- ----- you ---- ---- ------- ----- ---- -------<br>--- --- -- ----- -- --- ---- -- --- ---- -- ------ ------<br>--- ----- -- ----,190874.59999996424,190873.59999996424,190420.912,190419.59999996424,190438.14,190888.156,,32,you
screen,html.Screen,2_1_0_1_33,2022-02-15T15:57:29.896Z,,,,,,,,,,,,,,,,,53,,,,,,,,,,,,,,497.8440000000119,,response,,,,99,,,,,,,Space,keypress(Space),,,,,,,,---- -- ----- -- ------ - ------- --- ----------<br>------------- ------ ------ ---- ---- ------- ----- -- ----<br>-------- ------- -- ---------- --- - --- ----- ----- ----<br>---- --- --- ----- --- feel ---- ------- ----- ---- -------<br>--- --- -- ----- -- --- ---- -- --- ---- -- ------ ------<br>--- ----- -- ----,191387,191386,190871.445,190874.89999997616,190888.156,191404.316,,33,feel
screen,html.Screen,2_1_0_1_34,2022-02-15T15:57:30.352Z,,,,,,,,,,,,,,,,,53,,,,,,,,,,,,,,437.2839999642456,,response,,,,99,,,,,,,Space,keypress(Space),,,,,,,,---- -- ----- -- ------ - ------- --- ----------<br>------------- ------ ------ ---- ---- ------- ----- -- ----<br>-------- ------- -- ---------- --- - --- ----- ----- ----<br>---- --- --- ----- --- ---- that ------- ----- ---- -------<br>--- --- -- ----- -- --- ---- -- --- ---- -- ------ ------<br>--- ----- -- ----,191842.69999998808,191841.59999996424,191387.558,191387.19999998808,191404.316,191854.28,,34,that
screen,html.Screen,2_1_0_1_35,2022-02-15T15:57:31.040Z,,,,,,,,,,,,,,,,,53,,,,,,,,,,,,,,675.6199999761593,,response,,,,99,,,,,,,Space,keypress(Space),,,,,,,,---- -- ----- -- ------ - ------- --- ----------<br>------------- ------ ------ ---- ---- ------- ----- -- ----<br>-------- ------- -- ---------- --- - --- ----- ----- ----<br>---- --- --- ----- --- ---- ---- matters ----- ---- -------<br>--- --- -- ----- -- --- ---- -- --- ---- -- ------ ------<br>--- ----- -- ----,192531,192529.89999997616,191838.134,191842.89999997616,191854.28,192537.55,,35,matters
screen,html.Screen,2_1_0_1_36,2022-02-15T15:57:32.008Z,,,,,,,,,,,,,,,,,53,,,,,,,,,,,,,,960.5499999642489,,response,,,,99,,,,,,,Space,keypress(Space),,,,,,,,"---- -- ----- -- ------ - ------- --- ----------<br>------------- ------ ------ ---- ---- ------- ----- -- ----<br>-------- ------- -- ---------- --- - --- ----- ----- ----<br>---- --- --- ----- --- ---- ---- ------- most, ---- -------<br>--- --- -- ----- -- --- ---- -- --- ---- -- ------ ------<br>--- ----- -- ----",193499.19999998808,193498.09999996424,192520.922,192531.19999998808,192537.55,193504.185,,36,"most,"
screen,html.Screen,2_1_0_1_37,2022-02-15T15:57:32.432Z,,,,,,,,,,,,,,,,,53,,,,,,,,,,,,,,417.71499997616047,,response,,,,99,,,,,,,Space,keypress(Space),,,,,,,,---- -- ----- -- ------ - ------- --- ----------<br>------------- ------ ------ ---- ---- ------- ----- -- ----<br>-------- ------- -- ---------- --- - --- ----- ----- ----<br>---- --- --- ----- --- ---- ---- ------- ----- it's -------<br>--- --- -- ----- -- --- ---- -- --- ---- -- ------ ------<br>--- ----- -- ----,193922.89999997616,193921.89999997616,193487.596,193499.39999997616,193504.185,193938.139,,37,it's
screen,html.Screen,2_1_0_1_38,2022-02-15T15:57:32.944Z,,,,,,,,,,,,,,,,,53,,,,,,,,,,,,,,495.76099997616257,,response,,,,99,,,,,,,Space,keypress(Space),,,,,,,,---- -- ----- -- ------ - ------- --- ----------<br>------------- ------ ------ ---- ---- ------- ----- -- ----<br>-------- ------- -- ---------- --- - --- ----- ----- ----<br>---- --- --- ----- --- ---- ---- ------- ----- ---- whether<br>--- --- -- ----- -- --- ---- -- --- ---- -- ------ ------<br>--- ----- -- ----,194434.79999995232,194433.89999997616,193921.119,193923,193938.139,194437.571,,38,whether
screen,html.Screen,2_1_0_1_39,2022-02-15T15:57:33.663Z,,,,,,,,,,,,,,,,,53,,,,,,,,,,,,,,715.4290000000037,,response,,,,99,,,,,,,Space,keypress(Space),,,,,,,,---- -- ----- -- ------ - ------- --- ----------<br>------------- ------ ------ ---- ---- ------- ----- -- ----<br>-------- ------- -- ---------- --- - --- ----- ----- ----<br>---- --- --- ----- --- ---- ---- ------- ----- ---- -------<br>you --- -- ----- -- --- ---- -- --- ---- -- ------ ------<br>--- ----- -- ----,195154,195153,194421.119,194435,194437.571,195170.873,,39,you
screen,html.Screen,2_1_0_1_40,2022-02-15T15:57:34.080Z,,,,,,,,,,,,,,,,,53,,,,,,,,,,,,,,399.0269999761658,,response,,,,99,,,,,,,Space,keypress(Space),,,,,,,,---- -- ----- -- ------ - ------- --- ----------<br>------------- ------ ------ ---- ---- ------- ----- -- ----<br>-------- ------- -- ---------- --- - --- ----- ----- ----<br>---- --- --- ----- --- ---- ---- ------- ----- ---- -------<br>--- are -- ----- -- --- ---- -- --- ---- -- ------ ------<br>--- ----- -- ----,195570.89999997616,195569.89999997616,195154.361,195154.19999998808,195170.873,195588.128,,40,are
screen,html.Screen,2_1_0_1_41,2022-02-15T15:57:34.592Z,,,,,,,,,,,,,,,,,53,,,,,,,,,,,,,,493.872000000003,,response,,,,99,,,,,,,Space,keypress(Space),,,,,,,,---- -- ----- -- ------ - ------- --- ----------<br>------------- ------ ------ ---- ---- ------- ----- -- ----<br>-------- ------- -- ---------- --- - --- ----- ----- ----<br>---- --- --- ----- --- ---- ---- ------- ----- ---- -------<br>--- --- as ----- -- --- ---- -- --- ---- -- ------ ------<br>--- ----- -- ----,196082.89999997616,196082,195571.397,195571.09999996424,195588.128,196087.548,,41,as
screen,html.Screen,2_1_0_1_42,2022-02-15T15:57:35.240Z,,,,,,,,,,,,,,,,,53,,,,,,,,,,,,,,642.2519999523065,,response,,,,99,,,,,,,Space,keypress(Space),,,,,,,,---- -- ----- -- ------ - ------- --- ----------<br>------------- ------ ------ ---- ---- ------- ----- -- ----<br>-------- ------- -- ---------- --- - --- ----- ----- ----<br>---- --- --- ----- --- ---- ---- ------- ----- ---- -------<br>--- --- -- close -- --- ---- -- --- ---- -- ------ ------<br>--- ----- -- ----,196730.69999998808,196729.79999995232,196070.891,196083,196087.548,196737.585,,42,close
screen,html.Screen,2_1_0_1_43,2022-02-15T15:57:35.784Z,,,,,,,,,,,,,,,,,53,,,,,,,,,,,,,,536.2149999523244,,response,,,,99,,,,,,,Space,keypress(Space),,,,,,,,---- -- ----- -- ------ - ------- --- ----------<br>------------- ------ ------ ---- ---- ------- ----- -- ----<br>-------- ------- -- ---------- --- - --- ----- ----- ----<br>---- --- --- ----- --- ---- ---- ------- ----- ---- -------<br>--- --- -- ----- as --- ---- -- --- ---- -- ------ ------<br>--- ----- -- ----,197274.79999995232,197273.79999995232,196720.845,196730.89999997616,196737.585,197288.155,,43,as
screen,html.Screen,2_1_0_1_44,2022-02-15T15:57:36.344Z,,,,,,,,,,,,,,,,,53,,,,,,,,,,,,,,545.5449999880802,,response,,,,99,,,,,,,Space,keypress(Space),,,,,,,,---- -- ----- -- ------ - ------- --- ----------<br>------------- ------ ------ ---- ---- ------- ----- -- ----<br>-------- ------- -- ---------- --- - --- ----- ----- ----<br>---- --- --- ----- --- ---- ---- ------- ----- ---- -------<br>--- --- -- ----- -- you ---- -- --- ---- -- ------ ------<br>--- ----- -- ----,197834.59999996424,197833.69999998808,197271.053,197275,197288.155,197837.534,,44,you
screen,html.Screen,2_1_0_1_45,2022-02-15T15:57:36.952Z,,,,,,,,,,,,,,,,,53,,,,,,,,,,,,,,604.065999964223,,response,,,,99,,,,,,,Space,keypress(Space),,,,,,,,---- -- ----- -- ------ - ------- --- ----------<br>------------- ------ ------ ---- ---- ------- ----- -- ----<br>-------- ------- -- ---------- --- - --- ----- ----- ----<br>---- --- --- ----- --- ---- ---- ------- ----- ---- -------<br>--- --- -- ----- -- --- want -- --- ---- -- ------ ------<br>--- ----- -- ----,198442.39999997616,198441.59999996424,197820.867,197834.69999998808,197837.534,198454.84,,45,want
screen,html.Screen,2_1_0_1_46,2022-02-15T15:57:37.480Z,,,,,,,,,,,,,,,,,53,,,,,,,,,,,,,,515.0599999761616,,response,,,,99,,,,,,,Space,keypress(Space),,,,,,,,---- -- ----- -- ------ - ------- --- ----------<br>------------- ------ ------ ---- ---- ------- ----- -- ----<br>-------- ------- -- ---------- --- - --- ----- ----- ----<br>---- --- --- ----- --- ---- ---- ------- ----- ---- -------<br>--- --- -- ----- -- --- ---- to --- ---- -- ------ ------<br>--- ----- -- ----,198971,198969.89999997616,198437.542,198444,198454.84,198988.129,,46,to
screen,html.Screen,2_1_0_1_47,2022-02-15T15:57:38.239Z,,,,,,,,,,,,,,,,,53,,,,,,,,,,,,,,741.470999964251,,response,,,,99,,,,,,,Space,keypress(Space),,,,,,,,"---- -- ----- -- ------ - ------- --- ----------<br>------------- ------ ------ ---- ---- ------- ----- -- ----<br>-------- ------- -- ---------- --- - --- ----- ----- ----<br>---- --- --- ----- --- ---- ---- ------- ----- ---- -------<br>--- --- -- ----- -- --- ---- -- be, ---- -- ------ ------<br>--- ----- -- ----",199730.39999997616,199729.59999996424,198971.442,198971.19999998808,198988.129,199737.814,,47,"be,"
screen,html.Screen,2_1_0_1_48,2022-02-15T15:57:38.936Z,,,,,,,,,,,,,,,,,53,,,,,,,,,,,,,,688.5859999761451,,response,,,,99,,,,,,,Space,keypress(Space),,,,,,,,---- -- ----- -- ------ - ------- --- ----------<br>------------- ------ ------ ---- ---- ------- ----- -- ----<br>-------- ------- -- ---------- --- - --- ----- ----- ----<br>---- --- --- ----- --- ---- ---- ------- ----- ---- -------<br>--- --- -- ----- -- --- ---- -- --- even -- ------ ------<br>--- ----- -- ----,200427.29999995232,200426.39999997616,199721.146,199730.5,199737.814,200438.157,,48,even
screen,html.Screen,2_1_0_1_49,2022-02-15T15:57:39.424Z,,,,,,,,,,,,,,,,,53,,,,,,,,,,,,,,475.4429999642307,,response,,,,99,,,,,,,Space,keypress(Space),,,,,,,,---- -- ----- -- ------ - ------- --- ----------<br>------------- ------ ------ ---- ---- ------- ----- -- ----<br>-------- ------- -- ---------- --- - --- ----- ----- ----<br>---- --- --- ----- --- ---- ---- ------- ----- ---- -------<br>--- --- -- ----- -- --- ---- -- --- ---- if ------ ------<br>--- ----- -- ----,200914.39999997616,200913.59999996424,200420.906,200427.39999997616,200438.157,200921.041,,49,if
screen,html.Screen,2_1_0_1_50,2022-02-15T15:57:39.960Z,,,,,,,,,,,,,,,,,53,,,,,,,,,,,,,,528.8589999761607,,response,,,,99,,,,,,,Space,keypress(Space),,,,,,,,---- -- ----- -- ------ - ------- --- ----------<br>------------- ------ ------ ---- ---- ------- ----- -- ----<br>-------- ------- -- ---------- --- - --- ----- ----- ----<br>---- --- --- ----- --- ---- ---- ------- ----- ---- -------<br>--- --- -- ----- -- --- ---- -- --- ---- -- that's ------<br>--- ----- -- ----,201451,201449.89999997616,200904.296,200914.59999996424,200921.041,201454.227,,50,that's
screen,html.Screen,2_1_0_1_51,2022-02-15T15:57:40.744Z,,,,,,,,,,,,,,,,,53,,,,,,,,,,,,,,779.4729999880656,,response,,,,99,,,,,,,Space,keypress(Space),,,,,,,,---- -- ----- -- ------ - ------- --- ----------<br>------------- ------ ------ ---- ---- ------- ----- -- ----<br>-------- ------- -- ---------- --- - --- ----- ----- ----<br>---- --- --- ----- --- ---- ---- ------- ----- ---- -------<br>--- --- -- ----- -- --- ---- -- --- ---- -- ------ really<br>--- ----- -- ----,202234.59999996424,202233.69999998808,201437.513,201451.19999998808,201454.227,202237.549,,51,really
screen,html.Screen,2_1_0_1_52,2022-02-15T15:57:41.360Z,,,,,,,,,,,,,,,,,53,,,,,,,,,,,,,,612.3509999761591,,response,,,,99,,,,,,,Space,keypress(Space),,,,,,,,---- -- ----- -- ------ - ------- --- ----------<br>------------- ------ ------ ---- ---- ------- ----- -- ----<br>-------- ------- -- ---------- --- - --- ----- ----- ----<br>---- --- --- ----- --- ---- ---- ------- ----- ---- -------<br>--- --- -- ----- -- --- ---- -- --- ---- -- ------ ------<br>not ----- -- ----,202851,202849.89999997616,202221.495,202234.79999995232,202237.549,202854.259,,52,not
screen,html.Screen,2_1_0_1_53,2022-02-15T15:57:42.056Z,,,,,,,,,,,,,,,,,53,,,,,,,,,,,,,,691.6409999761672,,response,,,,99,,,,,,,Space,keypress(Space),,,,,,,,---- -- ----- -- ------ - ------- --- ----------<br>------------- ------ ------ ---- ---- ------- ----- -- ----<br>-------- ------- -- ---------- --- - --- ----- ----- ----<br>---- --- --- ----- --- ---- ---- ------- ----- ---- -------<br>--- --- -- ----- -- --- ---- -- --- ---- -- ------ ------<br>--- close -- ----,203546.69999998808,203545.89999997616,202837.551,202851.09999996424,202854.259,203554.272,,53,close
screen,html.Screen,2_1_0_1_54,2022-02-15T15:57:42.591Z,,,,,,,,,,,,,,,,,53,,,,,,,,,,,,,,527.0279999523191,,response,,,,99,,,,,,,Space,keypress(Space),,,,,,,,---- -- ----- -- ------ - ------- --- ----------<br>------------- ------ ------ ---- ---- ------- ----- -- ----<br>-------- ------- -- ---------- --- - --- ----- ----- ----<br>---- --- --- ----- --- ---- ---- ------- ----- ---- -------<br>--- --- -- ----- -- --- ---- -- --- ---- -- ------ ------<br>--- ----- at ----,204082.19999998808,204081.29999995232,203537.821,203546.89999997616,203554.272,204087.529,,54,at
screen,html.Screen,2_1_0_1_55,2022-02-15T15:57:43.791Z,,,,,,,,,,,,,,,,,53,,,,,,,,,,,,,,1193.6709999880695,,response,,,,99,,,,,,,Space,keypress(Space),,,,,,,,---- -- ----- -- ------ - ------- --- ----------<br>------------- ------ ------ ---- ---- ------- ----- -- ----<br>-------- ------- -- ---------- --- - --- ----- ----- ----<br>---- --- --- ----- --- ---- ---- ------- ----- ---- -------<br>--- --- -- ----- -- --- ---- -- --- ---- -- ------ ------<br>--- ----- -- all.,205282,205281.19999998808,204071.407,204082.5,204087.529,205287.543,,55,all.
Item 99,flow.Loop,2_1_0_1,2022-02-15T15:57:43.792Z,,,,,,,,,,,,,,,,,,,,,,,,,,,,,,,37377.01399998809,,completion,,,,,A,,,,,,,,,,,silence,,,,,205282.5,205281.19999998808,167854.887,167856.39999997616,167904.186,205287.543,,,
Question 1,html.Screen,2_1_0_2,2022-02-15T15:57:50.591Z,,,,,,,,,,,,,,,,,,,,,,,,,,,,true,FALSE,,6793.556999964232,,response,,,,99,A,,,,,,FALSE,click #choice-2,,,,silence,,,,,212081.89999997616,212081.09999996424,205270.842,205282.59999996424,205287.543,212087.523,,,
Question 2,html.Screen,2_1_0_3,2022-02-15T15:57:56.503Z,,,,,,,,,,,,,,,,,,,,,,,,,,,,false,TRUE,,5905.4770000000135,,response,,,,99,A,,,,,,FALSE,click #choice-2,,,,silence,,,,,217993.79999995232,217993,212071.27,212082,212087.523,218004.416,,,
Item 99,flow.Sequence,2_1_0,2022-02-15T15:57:56.503Z,,,,,,,,,,,,,,,,,,,,,,,,,,,,,,,60122.163,,completion,,,,,,,,,,,,,,,,,,,,,217993.89999997616,217993,157854.313,157872,157870.837,218004.416,,,
Holding screen,html.Screen,2_1_1_0,2022-02-15T15:58:06.498Z,,,,,,,,,,,,,,,,,,,,,,,,,,,,,,,9999.839000000007,,timeout,,,,,,,,,,,,,,,,,,,,,227988.89999997616,227988.149,217987.815,217994,218004.416,228004.255,,,
screen,html.Screen,2_1_1_1_0,2022-02-15T15:58:07.729Z,,,,,,,,,,,,,,,,,54,,,,,,,,,,,,,,1214.2449999999953,,response,,,,100,,,,,,,Space,keypress(Space),,,,,,,,At --- ---- --- ------ ----- ------- ---- -- --- ------- --<br>------- ---------- ------ -- ----- -- ----- -- ---- ------<br>--- ----- --- --- ------ -------- ----- --- ------ ----- --<br>----- ----- ---------- --- --- ------ ------ ---- -- ------<br>------- --- ------ ----- --- ---- ------- -- ---- --- --<br>------- ------,229219.69999998808,229218.5,227988.149,227989.19999998808,228004.255,229220.907,,0,At
screen,html.Screen,2_1_1_1_1,2022-02-15T15:58:08.224Z,,,,,,,,,,,,,,,,,54,,,,,,,,,,,,,,492.79299998807255,,response,,,,100,,,,,,,Space,keypress(Space),,,,,,,,-- the ---- --- ------ ----- ------- ---- -- --- ------- --<br>------- ---------- ------ -- ----- -- ----- -- ---- ------<br>--- ----- --- --- ------ -------- ----- --- ------ ----- --<br>----- ----- ---------- --- --- ------ ------ ---- -- ------<br>------- --- ------ ----- --- ---- ------- -- ---- --- --<br>------- ------,229714.59999996424,229713.69999998808,229204.742,229219.89999997616,229220.907,229720.955,,1,the
screen,html.Screen,2_1_1_1_2,2022-02-15T15:58:08.904Z,,,,,,,,,,,,,,,,,54,,,,,,,,,,,,,,672.5450000000128,,response,,,,100,,,,,,,Space,keypress(Space),,,,,,,,-- --- time --- ------ ----- ------- ---- -- --- ------- --<br>------- ---------- ------ -- ----- -- ----- -- ---- ------<br>--- ----- --- --- ------ -------- ----- --- ------ ----- --<br>----- ----- ---------- --- --- ------ ------ ---- -- ------<br>------- --- ------ ----- --- ---- ------- -- ---- --- --<br>------- ------,230394.5,230393.5,229704.745,229714.69999998808,229720.955,230404.466,,2,time
screen,html.Screen,2_1_1_1_3,2022-02-15T15:58:09.416Z,,,,,,,,,,,,,,,,,54,,,,,,,,,,,,,,501.43399997617234,,response,,,,100,,,,,,,Space,keypress(Space),,,,,,,,-- --- ---- the ------ ----- ------- ---- -- --- ------- --<br>------- ---------- ------ -- ----- -- ----- -- ---- ------<br>--- ----- --- --- ------ -------- ----- --- ------ ----- --<br>----- ----- ---------- --- --- ------ ------ ---- -- ------<br>------- --- ------ ----- --- ---- ------- -- ---- --- --<br>------- ------,230906.79999995232,230905.89999997616,230387.888,230394.69999998808,230404.466,230921.133,,3,the
screen,html.Screen,2_1_1_1_4,2022-02-15T15:58:09.888Z,,,,,,,,,,,,,,,,,54,,,,,,,,,,,,,,456.86699999999837,,response,,,,100,,,,,,,Space,keypress(Space),,,,,,,,-- --- ---- --- French ----- ------- ---- -- --- ------- --<br>------- ---------- ------ -- ----- -- ----- -- ---- ------<br>--- ----- --- --- ------ -------- ----- --- ------ ----- --<br>----- ----- ---------- --- --- ------ ------ ---- -- ------<br>------- --- ------ ----- --- ---- ------- -- ---- --- --<br>------- ------,231379,231378,230904.445,230907,230921.133,231387.606,,4,French
screen,html.Screen,2_1_1_1_5,2022-02-15T15:58:10.784Z,,,,,,,,,,,,,,,,,54,,,,,,,,,,,,,,886.1939999523165,,response,,,,100,,,,,,,Space,keypress(Space),,,,,,,,-- --- ---- --- ------ crown ------- ---- -- --- ------- --<br>------- ---------- ------ -- ----- -- ----- -- ---- ------<br>--- ----- --- --- ------ -------- ----- --- ------ ----- --<br>----- ----- ---------- --- --- ------ ------ ---- -- ------<br>------- --- ------ ----- --- ---- ------- -- ---- --- --<br>------- ------,232274.79999995232,232273.79999995232,231370.887,231379.19999998808,231387.606,232288.147,,5,crown
screen,html.Screen,2_1_1_1_6,2022-02-15T15:58:11.344Z,,,,,,,,,,,,,,,,,54,,,,,,,,,,,,,,545.7529999761609,,response,,,,100,,,,,,,Space,keypress(Space),,,,,,,,-- --- ---- --- ------ ----- secured ---- -- --- ------- --<br>------- ---------- ------ -- ----- -- ----- -- ---- ------<br>--- ----- --- --- ------ -------- ----- --- ------ ----- --<br>----- ----- ---------- --- --- ------ ------ ---- -- ------<br>------- --- ------ ----- --- ---- ------- -- ---- --- --<br>------- ------,232835,232833.89999997616,232271.054,232275,232288.147,232837.599,,6,secured
screen,html.Screen,2_1_1_1_7,2022-02-15T15:58:11.833Z,,,,,,,,,,,,,,,,,54,,,,,,,,,,,,,,485.60099998809164,,response,,,,100,,,,,,,Space,keypress(Space),,,,,,,,-- --- ---- --- ------ ----- ------- much -- --- ------- --<br>------- ---------- ------ -- ----- -- ----- -- ---- ------<br>--- ----- --- --- ------ -------- ----- --- ------ ----- --<br>----- ----- ---------- --- --- ------ ------ ---- -- ------<br>------- --- ------ ----- --- ---- ------- -- ---- --- --<br>------- ------,233324,233323.19999998808,232821.205,232835.09999996424,232837.599,233338.138,,7,much
screen,html.Screen,2_1_1_1_8,2022-02-15T15:58:12.288Z,,,,,,,,,,,,,,,,,54,,,,,,,,,,,,,,439.76199997615186,,response,,,,100,,,,,,,Space,keypress(Space),,,,,,,,-- --- ---- --- ------ ----- ------- ---- of --- ------- --<br>------- ---------- ------ -- ----- -- ----- -- ---- ------<br>--- ----- --- --- ------ -------- ----- --- ------ ----- --<br>----- ----- ---------- --- --- ------ ------ ---- -- ------<br>------- --- ------ ----- --- ---- ------- -- ---- --- --<br>------- ------,233778.89999997616,233777.89999997616,233320.938,233324.29999995232,233338.138,233787.783,,8,of
screen,html.Screen,2_1_1_1_9,2022-02-15T15:58:12.784Z,,,,,,,,,,,,,,,,,54,,,,,,,,,,,,,,485.8169999642414,,response,,,,100,,,,,,,Space,keypress(Space),,,,,,,,-- --- ---- --- ------ ----- ------- ---- -- its ------- --<br>------- ---------- ------ -- ----- -- ----- -- ---- ------<br>--- ----- --- --- ------ -------- ----- --- ------ ----- --<br>----- ----- ---------- --- --- ------ ------ ---- -- ------<br>------- --- ------ ----- --- ---- ------- -- ---- --- --<br>------- ------,234274.5,234273.59999996424,233770.904,233779.09999996424,233787.783,234288.01,,9,its
screen,html.Screen,2_1_1_1_10,2022-02-15T15:58:13.440Z,,,,,,,,,,,,,,,,,54,,,,,,,,,,,,,,642.289999952307,,response,,,,100,,,,,,,Space,keypress(Space),,,,,,,,-- --- ---- --- ------ ----- ------- ---- -- --- revenue --<br>------- ---------- ------ -- ----- -- ----- -- ---- ------<br>--- ----- --- --- ------ -------- ----- --- ------ ----- --<br>----- ----- ---------- --- --- ------ ------ ---- -- ------<br>------- --- ------ ----- --- ---- ------- -- ---- --- --<br>------- ------,234931.09999996424,234930.29999995232,234271.19,234274.79999995232,234288.01,234937.718,,10,revenue
screen,html.Screen,2_1_1_1_11,2022-02-15T15:58:13.960Z,,,,,,,,,,,,,,,,,54,,,,,,,,,,,,,,511.9819999880856,,response,,,,100,,,,,,,Space,keypress(Space),,,,,,,,-- --- ---- --- ------ ----- ------- ---- -- --- ------- by<br>------- ---------- ------ -- ----- -- ----- -- ---- ------<br>--- ----- --- --- ------ -------- ----- --- ------ ----- --<br>----- ----- ---------- --- --- ------ ------ ---- -- ------<br>------- --- ------ ----- --- ---- ------- -- ---- --- --<br>------- ------,235450.5,235449.69999998808,234920.98,234931.29999995232,234937.718,235454.206,,11,by
screen,html.Screen,2_1_1_1_12,2022-02-15T15:58:14.560Z,,,,,,,,,,,,,,,,,54,,,,,,,,,,,,,,595.9939999880735,,response,,,,100,,,,,,,Space,keypress(Space),,,,,,,,-- --- ---- --- ------ ----- ------- ---- -- --- ------- --<br>issuing ---------- ------ -- ----- -- ----- -- ---- ------<br>--- ----- --- --- ------ -------- ----- --- ------ ----- --<br>----- ----- ---------- --- --- ------ ------ ---- -- ------<br>------- --- ------ ----- --- ---- ------- -- ---- --- --<br>------- ------,236051.19999998808,236050.19999998808,235437.623,235450.69999998808,235454.206,236054.28,,12,issuing
screen,html.Screen,2_1_1_1_13,2022-02-15T15:58:15.176Z,,,,,,,,,,,,,,,,,54,,,,,,,,,,,,,,611.9199999880802,,response,,,,100,,,,,,,Space,keypress(Space),,,,,,,,-- --- ---- --- ------ ----- ------- ---- -- --- ------- --<br>------- government ------ -- ----- -- ----- -- ---- ------<br>--- ----- --- --- ------ -------- ----- --- ------ ----- --<br>----- ----- ---------- --- --- ------ ------ ---- -- ------<br>------- --- ------ ----- --- ---- ------- -- ---- --- --<br>------- ------,236667.29999995232,236666.19999998808,236038.012,236051.39999997616,236054.28,236670.905,,13,government
screen,html.Screen,2_1_1_1_14,2022-02-15T15:58:16.096Z,,,,,,,,,,,,,,,,,54,,,,,,,,,,,,,,915.0950000000012,,response,,,,100,,,,,,,Space,keypress(Space),,,,,,,,-- --- ---- --- ------ ----- ------- ---- -- --- ------- --<br>------- ---------- bonds. -- ----- -- ----- -- ---- ------<br>--- ----- --- --- ------ -------- ----- --- ------ ----- --<br>----- ----- ---------- --- --- ------ ------ ---- -- ------<br>------- --- ------ ----- --- ---- ------- -- ---- --- --<br>------- ------,237587.09999996424,237586,236654.765,236667.59999996424,236670.905,237620.973,,14,bonds.
screen,html.Screen,2_1_1_1_15,2022-02-15T15:58:17.448Z,,,,,,,,,,,,,,,,,54,,,,,,,,,,,,,,1317.226999988081,,response,,,,100,,,,,,,Space,keypress(Space),,,,,,,,-- --- ---- --- ------ ----- ------- ---- -- --- ------- --<br>------- ---------- ------ In ----- -- ----- -- ---- ------<br>--- ----- --- --- ------ -------- ----- --- ------ ----- --<br>----- ----- ---------- --- --- ------ ------ ---- -- ------<br>------- --- ------ ----- --- ---- ------- -- ---- --- --<br>------- ------,238939.09999996424,238938.19999998808,237604.779,237587.19999998808,237620.973,238954.792,,15,In
screen,html.Screen,2_1_1_1_16,2022-02-15T15:58:18.577Z,,,,,,,,,,,,,,,,,54,,,,,,,,,,,,,,1112.3079999642505,,response,,,,100,,,,,,,Space,keypress(Space),,,,,,,,"-- --- ---- --- ------ ----- ------- ---- -- --- ------- --<br>------- ---------- ------ -- 1727, -- ----- -- ---- ------<br>--- ----- --- --- ------ -------- ----- --- ------ ----- --<br>----- ----- ---------- --- --- ------ ------ ---- -- ------<br>------- --- ------ ----- --- ---- ------- -- ---- --- --<br>------- ------",240068.29999995232,240067.09999996424,238938.466,238939.29999995232,238954.792,240070.926,,16,"1727,"
screen,html.Screen,2_1_1_1_17,2022-02-15T15:58:19.040Z,,,,,,,,,,,,,,,,,54,,,,,,,,,,,,,,458.87399995230953,,response,,,,100,,,,,,,Space,keypress(Space),,,,,,,,-- --- ---- --- ------ ----- ------- ---- -- --- ------- --<br>------- ---------- ------ -- ----- in ----- -- ---- ------<br>--- ----- --- --- ------ -------- ----- --- ------ ----- --<br>----- ----- ---------- --- --- ------ ------ ---- -- ------<br>------- --- ------ ----- --- ---- ------- -- ---- --- --<br>------- ------,240530.69999998808,240529.79999995232,240054.774,240068.5,240070.926,240537.64,,17,in
screen,html.Screen,2_1_1_1_18,2022-02-15T15:58:19.616Z,,,,,,,,,,,,,,,,,54,,,,,,,,,,,,,,568.4599999642232,,response,,,,100,,,,,,,Space,keypress(Space),,,,,,,,-- --- ---- --- ------ ----- ------- ---- -- --- ------- --<br>------- ---------- ------ -- ----- -- order -- ---- ------<br>--- ----- --- --- ------ -------- ----- --- ------ ----- --<br>----- ----- ---------- --- --- ------ ------ ---- -- ------<br>------- --- ------ ----- --- ---- ------- -- ---- --- --<br>------- ------,241107,241106.09999996424,240521.481,240531,240537.64,241120.975,,18,order
screen,html.Screen,2_1_1_1_19,2022-02-15T15:58:20.024Z,,,,,,,,,,,,,,,,,54,,,,,,,,,,,,,,392.72499998807325,,response,,,,100,,,,,,,Space,keypress(Space),,,,,,,,-- --- ---- --- ------ ----- ------- ---- -- --- ------- --<br>------- ---------- ------ -- ----- -- ----- to ---- ------<br>--- ----- --- --- ------ -------- ----- --- ------ ----- --<br>----- ----- ---------- --- --- ------ ------ ---- -- ------<br>------- --- ------ ----- --- ---- ------- -- ---- --- --<br>------- ------,241514.69999998808,241513.69999998808,241104.365,241107.19999998808,241120.975,241520.913,,19,to
screen,html.Screen,2_1_1_1_20,2022-02-15T15:58:20.456Z,,,,,,,,,,,,,,,,,54,,,,,,,,,,,,,,424.8869999523158,,response,,,,100,,,,,,,Space,keypress(Space),,,,,,,,-- --- ---- --- ------ ----- ------- ---- -- --- ------- --<br>------- ---------- ------ -- ----- -- ----- -- save ------<br>--- ----- --- --- ------ -------- ----- --- ------ ----- --<br>----- ----- ---------- --- --- ------ ------ ---- -- ------<br>------- --- ------ ----- --- ---- ------- -- ---- --- --<br>------- ------,241946.69999998808,241945.79999995232,241504.778,241514.89999997616,241520.913,241954.305,,20,save
screen,html.Screen,2_1_1_1_21,2022-02-15T15:58:21.072Z,,,,,,,,,,,,,,,,,54,,,,,,,,,,,,,,606.9949999523233,,response,,,,100,,,,,,,Space,keypress(Space),,,,,,,,"-- --- ---- --- ------ ----- ------- ---- -- --- ------- --<br>------- ---------- ------ -- ----- -- ----- -- ---- money,<br>--- ----- --- --- ------ -------- ----- --- ------ ----- --<br>----- ----- ---------- --- --- ------ ------ ---- -- ------<br>------- --- ------ ----- --- ---- ------- -- ---- --- --<br>------- ------",242562.59999996424,242561.29999995232,241938.091,241946.79999995232,241954.305,242570.875,,21,"money,"
screen,html.Screen,2_1_1_1_22,2022-02-15T15:58:21.487Z,,,,,,,,,,,,,,,,,54,,,,,,,,,,,,,,406.52499997615814,,response,,,,100,,,,,,,Space,keypress(Space),,,,,,,,-- --- ---- --- ------ ----- ------- ---- -- --- ------- --<br>------- ---------- ------ -- ----- -- ----- -- ---- ------<br>the ----- --- --- ------ -------- ----- --- ------ ----- --<br>----- ----- ---------- --- --- ------ ------ ---- -- ------<br>------- --- ------ ----- --- ---- ------- -- ---- --- --<br>------- ------,242978.19999998808,242977.39999997616,242554.806,242564.19999998808,242570.875,242987.883,,22,the
screen,html.Screen,2_1_1_1_23,2022-02-15T15:58:22.071Z,,,,,,,,,,,,,,,,,54,,,,,,,,,,,,,,573.5169999761565,,response,,,,100,,,,,,,Space,keypress(Space),,,,,,,,-- --- ---- --- ------ ----- ------- ---- -- --- ------- --<br>------- ---------- ------ -- ----- -- ----- -- ---- ------<br>--- state --- --- ------ -------- ----- --- ------ ----- --<br>----- ----- ---------- --- --- ------ ------ ---- -- ------<br>------- --- ------ ----- --- ---- ------- -- ---- --- --<br>------- ------,243562.29999995232,243561.39999997616,242971.447,242978.39999997616,242987.883,243571.176,,23,state
screen,html.Screen,2_1_1_1_24,2022-02-15T15:58:22.735Z,,,,,,,,,,,,,,,,,54,,,,,,,,,,,,,,654.2239999761514,,response,,,,100,,,,,,,Space,keypress(Space),,,,,,,,-- --- ---- --- ------ ----- ------- ---- -- --- ------- --<br>------- ---------- ------ -- ----- -- ----- -- ---- ------<br>--- ----- cut --- ------ -------- ----- --- ------ ----- --<br>----- ----- ---------- --- --- ------ ------ ---- -- ------<br>------- --- ------ ----- --- ---- ------- -- ---- --- --<br>------- ------,244226.29999995232,244225.39999997616,243554.299,243562.5,243571.176,244238.103,,24,cut
screen,html.Screen,2_1_1_1_25,2022-02-15T15:58:23.176Z,,,,,,,,,,,,,,,,,54,,,,,,,,,,,,,,428.0969999880763,,response,,,,100,,,,,,,Space,keypress(Space),,,,,,,,-- --- ---- --- ------ ----- ------- ---- -- --- ------- --<br>------- ---------- ------ -- ----- -- ----- -- ---- ------<br>--- ----- --- the ------ -------- ----- --- ------ ----- --<br>----- ----- ---------- --- --- ------ ------ ---- -- ------<br>------- --- ------ ----- --- ---- ------- -- ---- --- --<br>------- ------,244667.29999995232,244666.19999998808,244221.46,244226.69999998808,244238.103,244670.935,,25,the
screen,html.Screen,2_1_1_1_26,2022-02-15T15:58:23.992Z,,,,,,,,,,,,,,,,,54,,,,,,,,,,,,,,810.7649999880814,,response,,,,100,,,,,,,Space,keypress(Space),,,,,,,,-- --- ---- --- ------ ----- ------- ---- -- --- ------- --<br>------- ---------- ------ -- ----- -- ----- -- ---- ------<br>--- ----- --- --- bonds' -------- ----- --- ------ ----- --<br>----- ----- ---------- --- --- ------ ------ ---- -- ------<br>------- --- ------ ----- --- ---- ------- -- ---- --- --<br>------- ------,245482.69999998808,245481.69999998808,244654.263,244667.5,244670.935,245487.577,,26,bonds'
screen,html.Screen,2_1_1_1_27,2022-02-15T15:58:24.545Z,,,,,,,,,,,,,,,,,54,,,,,,,,,,,,,,546.4230000000098,,response,,,,100,,,,,,,Space,keypress(Space),,,,,,,,-- --- ---- --- ------ ----- ------- ---- -- --- ------- --<br>------- ---------- ------ -- ----- -- ----- -- ---- ------<br>--- ----- --- --- ------ interest ----- --- ------ ----- --<br>----- ----- ---------- --- --- ------ ------ ---- -- ------<br>------- --- ------ ----- --- ---- ------- -- ---- --- --<br>------- ------,246035.59999996424,246034,245471.109,245482.89999997616,245487.577,246037.622,,27,interest
screen,html.Screen,2_1_1_1_28,2022-02-15T15:58:25.121Z,,,,,,,,,,,,,,,,,54,,,,,,,,,,,,,,572.6779999523133,,response,,,,100,,,,,,,Space,keypress(Space),,,,,,,,-- --- ---- --- ------ ----- ------- ---- -- --- ------- --<br>------- ---------- ------ -- ----- -- ----- -- ---- ------<br>--- ----- --- --- ------ -------- rate. --- ------ ----- --<br>----- ----- ---------- --- --- ------ ------ ---- -- ------<br>------- --- ------ ----- --- ---- ------- -- ---- --- --<br>------- ------,246611.79999995232,246610.29999995232,246020.894,246035.89999997616,246037.622,246621.059,,28,rate.
screen,html.Screen,2_1_1_1_29,2022-02-15T15:58:25.601Z,,,,,,,,,,,,,,,,,54,,,,,,,,,,,,,,469.1409999880707,,response,,,,100,,,,,,,Space,keypress(Space),,,,,,,,-- --- ---- --- ------ ----- ------- ---- -- --- ------- --<br>------- ---------- ------ -- ----- -- ----- -- ---- ------<br>--- ----- --- --- ------ -------- ----- The ------ ----- --<br>----- ----- ---------- --- --- ------ ------ ---- -- ------<br>------- --- ------ ----- --- ---- ------- -- ---- --- --<br>------- ------,247091.69999998808,247090.19999998808,246604.225,246612.09999996424,246621.059,247104.641,,29,The
screen,html.Screen,2_1_1_1_30,2022-02-15T15:58:26.040Z,,,,,,,,,,,,,,,,,54,,,,,,,,,,,,,,425.158999952313,,response,,,,100,,,,,,,Space,keypress(Space),,,,,,,,-- --- ---- --- ------ ----- ------- ---- -- --- ------- --<br>------- ---------- ------ -- ----- -- ----- -- ---- ------<br>--- ----- --- --- ------ -------- ----- --- market ----- --<br>----- ----- ---------- --- --- ------ ------ ---- -- ------<br>------- --- ------ ----- --- ---- ------- -- ---- --- --<br>------- ------,247531.09999996424,247529.79999995232,247087.787,247092,247104.641,247537.593,,30,market
screen,html.Screen,2_1_1_1_31,2022-02-15T15:58:26.489Z,,,,,,,,,,,,,,,,,54,,,,,,,,,,,,,,440.7069999523228,,response,,,,100,,,,,,,Space,keypress(Space),,,,,,,,-- --- ---- --- ------ ----- ------- ---- -- --- ------- --<br>------- ---------- ------ -- ----- -- ----- -- ---- ------<br>--- ----- --- --- ------ -------- ----- --- ------ value --<br>----- ----- ---------- --- --- ------ ------ ---- -- ------<br>------- --- ------ ----- --- ---- ------- -- ---- --- --<br>------- ------,247979.59999996424,247978.29999995232,247521.491,247531.39999997616,247537.593,247987.613,,31,value
screen,html.Screen,2_1_1_1_32,2022-02-15T15:58:26.864Z,,,,,,,,,,,,,,,,,54,,,,,,,,,,,,,,365.9869999642251,,response,,,,100,,,,,,,Space,keypress(Space),,,,,,,,-- --- ---- --- ------ ----- ------- ---- -- --- ------- --<br>------- ---------- ------ -- ----- -- ----- -- ---- ------<br>--- ----- --- --- ------ -------- ----- --- ------ ----- of<br>----- ----- ---------- --- --- ------ ------ ---- -- ------<br>------- --- ------ ----- --- ---- ------- -- ---- --- --<br>------- ------,248354.79999995232,248353.59999996424,247971.213,247979.89999997616,247987.613,248371.009,,32,of
screen,html.Screen,2_1_1_1_33,2022-02-15T15:58:27.256Z,,,,,,,,,,,,,,,,,54,,,,,,,,,,,,,,374.9910000000091,,response,,,,100,,,,,,,Space,keypress(Space),,,,,,,,-- --- ---- --- ------ ----- ------- ---- -- --- ------- --<br>------- ---------- ------ -- ----- -- ----- -- ---- ------<br>--- ----- --- --- ------ -------- ----- --- ------ ----- --<br>these ----- ---------- --- --- ------ ------ ---- -- ------<br>------- --- ------ ----- --- ---- ------- -- ---- --- --<br>------- ------,248747.09999996424,248746,248354.286,248355,248371.009,248754.241,,33,these
screen,html.Screen,2_1_1_1_34,2022-02-15T15:58:27.664Z,,,,,,,,,,,,,,,,,54,,,,,,,,,,,,,,399.95899998807,,response,,,,100,,,,,,,Space,keypress(Space),,,,,,,,-- --- ---- --- ------ ----- ------- ---- -- --- ------- --<br>------- ---------- ------ -- ----- -- ----- -- ---- ------<br>--- ----- --- --- ------ -------- ----- --- ------ ----- --<br>----- bonds ---------- --- --- ------ ------ ---- -- ------<br>------- --- ------ ----- --- ---- ------- -- ---- --- --<br>------- ------,249155.5,249154.19999998808,248738.124,248747.39999997616,248754.241,249171.157,,34,bonds
screen,html.Screen,2_1_1_1_35,2022-02-15T15:58:28.609Z,,,,,,,,,,,,,,,,,54,,,,,,,,,,,,,,927.9429999642307,,response,,,,100,,,,,,,Space,keypress(Space),,,,,,,,"-- --- ---- --- ------ ----- ------- ---- -- --- ------- --<br>------- ---------- ------ -- ----- -- ----- -- ---- ------<br>--- ----- --- --- ------ -------- ----- --- ------ ----- --<br>----- ----- plummeted, --- --- ------ ------ ---- -- ------<br>------- --- ------ ----- --- ---- ------- -- ---- --- --<br>------- ------",250100.29999995232,250099.09999996424,249154.785,249155.69999998808,249171.157,250104.296,,35,"plummeted,"
screen,html.Screen,2_1_1_1_36,2022-02-15T15:58:29.072Z,,,,,,,,,,,,,,,,,54,,,,,,,,,,,,,,458.0039999523142,,response,,,,100,,,,,,,Space,keypress(Space),,,,,,,,-- --- ---- --- ------ ----- ------- ---- -- --- ------- --<br>------- ---------- ------ -- ----- -- ----- -- ---- ------<br>--- ----- --- --- ------ -------- ----- --- ------ ----- --<br>----- ----- ---------- and --- ------ ------ ---- -- ------<br>------- --- ------ ----- --- ---- ------- -- ---- --- --<br>------- ------,250563.39999997616,250562.29999995232,250088.162,250100.79999995232,250104.296,250570.944,,36,and
screen,html.Screen,2_1_1_1_37,2022-02-15T15:58:29.472Z,,,,,,,,,,,,,,,,,54,,,,,,,,,,,,,,390.8559999523277,,response,,,,100,,,,,,,Space,keypress(Space),,,,,,,,-- --- ---- --- ------ ----- ------- ---- -- --- ------- --<br>------- ---------- ------ -- ----- -- ----- -- ---- ------<br>--- ----- --- --- ------ -------- ----- --- ------ ----- --<br>----- ----- ---------- --- the ------ ------ ---- -- ------<br>------- --- ------ ----- --- ---- ------- -- ---- --- --<br>------- ------,250962.89999997616,250961.79999995232,250554.79,250563.69999998808,250570.944,250970.982,,37,the
screen,html.Screen,2_1_1_1_38,2022-02-15T15:58:29.896Z,,,,,,,,,,,,,,,,,54,,,,,,,,,,,,,,415.21799998809,,response,,,,100,,,,,,,Space,keypress(Space),,,,,,,,-- --- ---- --- ------ ----- ------- ---- -- --- ------- --<br>------- ---------- ------ -- ----- -- ----- -- ---- ------<br>--- ----- --- --- ------ -------- ----- --- ------ ----- --<br>----- ----- ---------- --- --- market ------ ---- -- ------<br>------- --- ------ ----- --- ---- ------- -- ---- --- --<br>------- ------,251387.39999997616,251386.19999998808,250954.336,250963.19999998808,250970.982,251404.838,,38,market
screen,html.Screen,2_1_1_1_39,2022-02-15T15:58:30.616Z,,,,,,,,,,,,,,,,,54,,,,,,,,,,,,,,701.4619999523275,,response,,,,100,,,,,,,Space,keypress(Space),,,,,,,,-- --- ---- --- ------ ----- ------- ---- -- --- ------- --<br>------- ---------- ------ -- ----- -- ----- -- ---- ------<br>--- ----- --- --- ------ -------- ----- --- ------ ----- --<br>----- ----- ---------- --- --- ------ became ---- -- ------<br>------- --- ------ ----- --- ---- ------- -- ---- --- --<br>------- ------,252107.39999997616,252106.29999995232,251388.123,251387.69999998808,251404.838,252121.18,,39,became
screen,html.Screen,2_1_1_1_40,2022-02-15T15:58:31.112Z,,,,,,,,,,,,,,,,,54,,,,,,,,,,,,,,480.61999995232327,,response,,,,100,,,,,,,Space,keypress(Space),,,,,,,,-- --- ---- --- ------ ----- ------- ---- -- --- ------- --<br>------- ---------- ------ -- ----- -- ----- -- ---- ------<br>--- ----- --- --- ------ -------- ----- --- ------ ----- --<br>----- ----- ---------- --- --- ------ ------ wary -- ------<br>------- --- ------ ----- --- ---- ------- -- ---- --- --<br>------- ------,252602.89999997616,252601.79999995232,252104.817,252107.69999998808,252121.18,252636.782,,40,wary
screen,html.Screen,2_1_1_1_41,2022-02-15T15:58:31.481Z,,,,,,,,,,,,,,,,,54,,,,,,,,,,,,,,333.41799998807255,,response,,,,100,,,,,,,Space,keypress(Space),,,,,,,,-- --- ---- --- ------ ----- ------- ---- -- --- ------- --<br>------- ---------- ------ -- ----- -- ----- -- ---- ------<br>--- ----- --- --- ------ -------- ----- --- ------ ----- --<br>----- ----- ---------- --- --- ------ ------ ---- of ------<br>------- --- ------ ----- --- ---- ------- -- ---- --- --<br>------- ------,252971.69999998808,252970.19999998808,252588.152,252603.09999996424,252636.782,252988.08,,41,of
screen,html.Screen,2_1_1_1_42,2022-02-15T15:58:31.944Z,,,,,,,,,,,,,,,,,54,,,,,,,,,,,,,,445.81999997617095,,response,,,,100,,,,,,,Space,keypress(Space),,,,,,,,-- --- ---- --- ------ ----- ------- ---- -- --- ------- --<br>------- ---------- ------ -- ----- -- ----- -- ---- ------<br>--- ----- --- --- ------ -------- ----- --- ------ ----- --<br>----- ----- ---------- --- --- ------ ------ ---- -- French<br>------- --- ------ ----- --- ---- ------- -- ---- --- --<br>------- ------,253435.09999996424,253433.89999997616,252971.186,252972,252988.08,253437.618,,42,French
screen,html.Screen,2_1_1_1_43,2022-02-15T15:58:32.880Z,,,,,,,,,,,,,,,,,54,,,,,,,,,,,,,,932.2819999761705,,response,,,,100,,,,,,,Space,keypress(Space),,,,,,,,-- --- ---- --- ------ ----- ------- ---- -- --- ------- --<br>------- ---------- ------ -- ----- -- ----- -- ---- ------<br>--- ----- --- --- ------ -------- ----- --- ------ ----- --<br>----- ----- ---------- --- --- ------ ------ ---- -- ------<br>credit. --- ------ ----- --- ---- ------- -- ---- --- --<br>------- ------,254371.59999996424,254369.89999997616,253420.934,253435.39999997616,253437.618,254387.826,,43,credit.
screen,html.Screen,2_1_1_1_44,2022-02-15T15:58:33.410Z,,,,,,,,,,,,,,,,,54,,,,,,,,,,,,,,511.17399999999907,,response,,,,100,,,,,,,Space,keypress(Space),,,,,,,,-- --- ---- --- ------ ----- ------- ---- -- --- ------- --<br>------- ---------- ------ -- ----- -- ----- -- ---- ------<br>--- ----- --- --- ------ -------- ----- --- ------ ----- --<br>----- ----- ---------- --- --- ------ ------ ---- -- ------<br>------- The ------ ----- --- ---- ------- -- ---- --- --<br>------- ------,254900.69999998808,254899,254370.889,254371.69999998808,254387.826,254920.956,,44,The
screen,html.Screen,2_1_1_1_45,2022-02-15T15:58:33.920Z,,,,,,,,,,,,,,,,,54,,,,,,,,,,,,,,488.8439999523107,,response,,,,100,,,,,,,Space,keypress(Space),,,,,,,,-- --- ---- --- ------ ----- ------- ---- -- --- ------- --<br>------- ---------- ------ -- ----- -- ----- -- ---- ------<br>--- ----- --- --- ------ -------- ----- --- ------ ----- --<br>----- ----- ---------- --- --- ------ ------ ---- -- ------<br>------- --- French ----- --- ---- ------- -- ---- --- --<br>------- ------,255411.09999996424,255409.79999995232,254904.341,254901.09999996424,254920.956,255420.938,,45,French
screen,html.Screen,2_1_1_1_46,2022-02-15T15:58:34.632Z,,,,,,,,,,,,,,,,,54,,,,,,,,,,,,,,701.0620000000054,,response,,,,100,,,,,,,Space,keypress(Space),,,,,,,,-- --- ---- --- ------ ----- ------- ---- -- --- ------- --<br>------- ---------- ------ -- ----- -- ----- -- ---- ------<br>--- ----- --- --- ------ -------- ----- --- ------ ----- --<br>----- ----- ---------- --- --- ------ ------ ---- -- ------<br>------- --- ------ state --- ---- ------- -- ---- --- --<br>------- ------,256123.19999998808,256122,255404.803,255411.39999997616,255420.938,256138.221,,46,state
screen,html.Screen,2_1_1_1_47,2022-02-15T15:58:35.041Z,,,,,,,,,,,,,,,,,54,,,,,,,,,,,,,,391.57899995232583,,response,,,,100,,,,,,,Space,keypress(Space),,,,,,,,-- --- ---- --- ------ ----- ------- ---- -- --- ------- --<br>------- ---------- ------ -- ----- -- ----- -- ---- ------<br>--- ----- --- --- ------ -------- ----- --- ------ ----- --<br>----- ----- ---------- --- --- ------ ------ ---- -- ------<br>------- --- ------ ----- was ---- ------- -- ---- --- --<br>------- ------,256532.09999996424,256529.79999995232,256121.453,256123.5,256138.221,256537.588,,47,was
screen,html.Screen,2_1_1_1_48,2022-02-15T15:58:35.456Z,,,,,,,,,,,,,,,,,54,,,,,,,,,,,,,,408.5119999642484,,response,,,,100,,,,,,,Space,keypress(Space),,,,,,,,-- --- ---- --- ------ ----- ------- ---- -- --- ------- --<br>------- ---------- ------ -- ----- -- ----- -- ---- ------<br>--- ----- --- --- ------ -------- ----- --- ------ ----- --<br>----- ----- ---------- --- --- ------ ------ ---- -- ------<br>------- --- ------ ----- --- left ------- -- ---- --- --<br>------- ------,256947.09999996424,256946.09999996424,256521.155,256532.39999997616,256537.588,256954.26,,48,left
screen,html.Screen,2_1_1_1_49,2022-02-15T15:58:35.904Z,,,,,,,,,,,,,,,,,54,,,,,,,,,,,,,,439.8399999642279,,response,,,,100,,,,,,,Space,keypress(Space),,,,,,,,-- --- ---- --- ------ ----- ------- ---- -- --- ------- --<br>------- ---------- ------ -- ----- -- ----- -- ---- ------<br>--- ----- --- --- ------ -------- ----- --- ------ ----- --<br>----- ----- ---------- --- --- ------ ------ ---- -- ------<br>------- --- ------ ----- --- ---- without -- ---- --- --<br>------- ------,257395.39999997616,257394.09999996424,256937.747,256947.5,256954.26,257404.346,,49,without
screen,html.Screen,2_1_1_1_50,2022-02-15T15:58:36.321Z,,,,,,,,,,,,,,,,,54,,,,,,,,,,,,,,406.65400000000955,,response,,,,100,,,,,,,Space,keypress(Space),,,,,,,,-- --- ---- --- ------ ----- ------- ---- -- --- ------- --<br>------- ---------- ------ -- ----- -- ----- -- ---- ------<br>--- ----- --- --- ------ -------- ----- --- ------ ----- --<br>----- ----- ---------- --- --- ------ ------ ---- -- ------<br>------- --- ------ ----- --- ---- ------- an ---- --- --<br>------- ------,257812.19999998808,257811,257388.17,257395.69999998808,257404.346,257821.041,,50,an
screen,html.Screen,2_1_1_1_51,2022-02-15T15:58:36.744Z,,,,,,,,,,,,,,,,,54,,,,,,,,,,,,,,413.0589999642398,,response,,,,100,,,,,,,Space,keypress(Space),,,,,,,,-- --- ---- --- ------ ----- ------- ---- -- --- ------- --<br>------- ---------- ------ -- ----- -- ----- -- ---- ------<br>--- ----- --- --- ------ -------- ----- --- ------ ----- --<br>----- ----- ---------- --- --- ------ ------ ---- -- ------<br>------- --- ------ ----- --- ---- ------- -- easy --- --<br>------- ------,258235.39999997616,258234.09999996424,257804.514,257812.5,257821.041,258237.624,,51,easy
screen,html.Screen,2_1_1_1_52,2022-02-15T15:58:37.128Z,,,,,,,,,,,,,,,,,54,,,,,,,,,,,,,,380.4759999642265,,response,,,,100,,,,,,,Space,keypress(Space),,,,,,,,-- --- ---- --- ------ ----- ------- ---- -- --- ------- --<br>------- ---------- ------ -- ----- -- ----- -- ---- ------<br>--- ----- --- --- ------ -------- ----- --- ------ ----- --<br>----- ----- ---------- --- --- ------ ------ ---- -- ------<br>------- --- ------ ----- --- ---- ------- -- ---- way --<br>------- ------,258619.39999997616,258618.09999996424,258221.052,258235.59999996424,258237.624,258651.077,,52,way
screen,html.Screen,2_1_1_1_53,2022-02-15T15:58:37.633Z,,,,,,,,,,,,,,,,,54,,,,,,,,,,,,,,471.12299998808885,,response,,,,100,,,,,,,Space,keypress(Space),,,,,,,,-- --- ---- --- ------ ----- ------- ---- -- --- ------- --<br>------- ---------- ------ -- ----- -- ----- -- ---- ------<br>--- ----- --- --- ------ -------- ----- --- ------ ----- --<br>----- ----- ---------- --- --- ------ ------ ---- -- ------<br>------- --- ------ ----- --- ---- ------- -- ---- --- of<br>------- ------,259123.79999995232,259122.19999998808,258604.272,258619.69999998808,258651.077,259138.227,,53,of
screen,html.Screen,2_1_1_1_54,2022-02-15T15:58:38.169Z,,,,,,,,,,,,,,,,,54,,,,,,,,,,,,,,520.0729999523028,,response,,,,100,,,,,,,Space,keypress(Space),,,,,,,,-- --- ---- --- ------ ----- ------- ---- -- --- ------- --<br>------- ---------- ------ -- ----- -- ----- -- ---- ------<br>--- ----- --- --- ------ -------- ----- --- ------ ----- --<br>----- ----- ---------- --- --- ------ ------ ---- -- ------<br>------- --- ------ ----- --- ---- ------- -- ---- --- --<br>raising ------,259659.59999996424,259658.29999995232,259121.155,259124.09999996424,259138.227,259671.226,,54,raising
screen,html.Screen,2_1_1_1_55,2022-02-15T15:58:38.785Z,,,,,,,,,,,,,,,,,54,,,,,,,,,,,,,,603.5739999523212,,response,,,,100,,,,,,,Space,keypress(Space),,,,,,,,-- --- ---- --- ------ ----- ------- ---- -- --- ------- --<br>------- ---------- ------ -- ----- -- ----- -- ---- ------<br>--- ----- --- --- ------ -------- ----- --- ------ ----- --<br>----- ----- ---------- --- --- ------ ------ ---- -- ------<br>------- --- ------ ----- --- ---- ------- -- ---- --- --<br>------- money.,260275.89999997616,260274.79999995232,259654.423,259659.89999997616,259671.226,260287.581,,55,money.
Item 100,flow.Loop,2_1_1_1,2022-02-15T15:58:38.785Z,,,,,,,,,,,,,,,,,,,,,,,,,,,,,,,32270.54499995231,,completion,,,,,A,,,,,,,,,,,silence,,,,,260276.29999995232,260274.79999995232,227988.149,227989.09999996424,228004.255,260287.581,,,
Question 1,html.Screen,2_1_1_2,2022-02-15T15:58:43.519Z,,,,,,,,,,,,,,,,,,,,,,,,,,,,true,TRUE,,4721.518999964232,,response,,,,100,A,,,,,,TRUE,click #choice-1,,,,silence,,,,,265009.89999997616,265009.09999996424,260271.479,260276.5,260287.581,265021.16,,,
Question 2,html.Screen,2_1_1_3,2022-02-15T15:58:46.326Z,,,,,,,,,,,,,,,,,,,,,,,,,,,,true,FALSE,,2794.8400000000256,,response,,,,100,A,,,,,,FALSE,click #choice-2,,,,silence,,,,,267816.89999997616,267816,265004.769,265010,265021.16,267820.845,,,
Item 100,flow.Sequence,2_1_1,2022-02-15T15:58:46.326Z,,,,,,,,,,,,,,,,,,,,,,,,,,,,,,,49811.584,,completion,,,,,,,,,,,,,,,,,,,,,267817.09999996424,267816,217987.815,217994,218004.416,267820.845,,,
End of Practice,html.Page,2_1_2,2022-02-15T15:58:52.303Z,,,,,,,,,,,,,,,,,,,,,,,,,,,,,,,5972.854999988107,,form submission,,,,,,,,,,,,,,,,,,,,,273793.89999997616,273793.6999999881,267804.762,267817.1999999881,267820.845,273804.629,,,
Practice,flow.Sequence,2_1,2022-02-15T15:58:52.303Z,,,,,,,,,,,,,,,,,,,,,,,,,,,,,,,115922.86299998808,,completion,,,,,,,,,,,,,,,,,,,,,273794,273793.6999999881,157854.313,157872,157870.837,273804.629,,,
Trap_instruction,html.Page,2_2_0,2022-02-15T15:58:58.263Z,,,,,,,,,,,,,,,,,,,,,,,,,,,,,,,5949.070999988064,,form submission,,,,,,,,,,,,,,,,,,,,,279753.89999997616,279753.6999999881,273788.127,273794.09999996424,273804.629,279787.57,,,
trap_trial,html.Screen,2_2_1,2022-02-15T15:59:01.231Z,,,,,,,,,,,,,,,,,,,,,,,,,,,,true,1,,2933.5299999642302,,response,,,,,,,,,,,1,click #choice-1,,,,,,,,,282721.89999997616,282721.09999996424,279738.166,279754,279787.57,282737.841,,,
end of trap trial,html.Page,2_2_2,2022-02-15T15:59:03.103Z,,,,,,,,,,,,,,,,,,,,,,,,,,,,,,,1855.8589999880642,,form submission,,,,,,,,,,,,,,,,,,,,,284593.89999997616,284593.6999999881,282720.938,282722,282737.841,284604.578,,,
Trap 1,flow.Sequence,2_2,2022-02-15T15:59:03.103Z,,,,,,,,,,,,,,,,,,,,,,,,,,,,,,,10789.070999988064,,completion,,,,,,,,,,,,,,,,,,,,,284594,284593.6999999881,273788.127,273794.09999996424,273804.629,284604.578,,,
Standby,html.Page,2_3_0,2022-02-15T15:59:11.098Z,,,,,,,,,,,,,,,,,,,,,,,,,,,,,,,7999.763000000035,,timeout,,,,,,,,,,,,,,,,,,,,,292589,292588.148,284588.178,284594.09999996424,284604.578,292604.341,,,
Holding screen,html.Screen,2_3_1_0_0,2022-02-15T15:59:18.098Z,,,,,,,,,,,,,,,,,,,,,,,,,,,,,,,7000.162000000011,,timeout,,,,,,,,,,,,,,,,,,,,,299589,299588.181,292588.148,292589.2999999523,292604.341,299604.503,,,
screen,html.Screen,2_3_1_0_1_0,2022-02-15T15:59:19.145Z,,,,,,,,,,,,,,,,,48,,,,,,,,,,,,,,1029.896999976132,,response,,,,10,A,,,,,,Space,keypress(Space),,,,silence,,,,As -- --- ------ ------- --------- ----------- --------<br>--------- -------- --- ------- -- ------- ---- -- ------<br>-- --- -------- -------- ---------- ---- ---- ---- ------<br>-- --------- -- ---- -- --- -- --- ------- -- - -----<br>---------- -- -- -- ---- ----- -- ------ -- --- ------<br>-------,300635.59999996424,300634.39999997616,299588.181,299589.1999999881,299604.503,300637.609,,0,As
screen,html.Screen,2_3_1_0_1_1,2022-02-15T15:59:20.151Z,,,,,,,,,,,,,,,,,48,,,,,,,,,,,,,,1003.6909999523195,,response,,,,10,A,,,,,,Space,keypress(Space),,,,silence,,,,-- in --- ------ ------- --------- ----------- --------<br>--------- -------- --- ------- -- ------- ---- -- ------<br>-- --- -------- -------- ---------- ---- ---- ---- ------<br>-- --------- -- ---- -- --- -- --- ------- -- - -----<br>---------- -- -- -- ---- ----- -- ------ -- --- ------<br>-------,301642.1999999881,301641.2999999523,300621.201,300635.89999997616,300637.609,301654.316,,1,in
screen,html.Screen,2_3_1_0_1_2,2022-02-15T15:59:20.575Z,,,,,,,,,,,,,,,,,48,,,,,,,,,,,,,,411.1840000000084,,response,,,,10,A,,,,,,Space,keypress(Space),,,,silence,,,,-- -- the ------ ------- --------- ----------- --------<br>--------- -------- --- ------- -- ------- ---- -- ------<br>-- --- -------- -------- ---------- ---- ---- ---- ------<br>-- --------- -- ---- -- --- -- --- ------- -- - -----<br>---------- -- -- -- ---- ----- -- ------ -- --- ------<br>-------,302066.2999999523,302065.5,301637.594,301642.2999999523,301654.316,302070.898,,2,the
screen,html.Screen,2_3_1_0_1_3,2022-02-15T15:59:21.232Z,,,,,,,,,,,,,,,,,48,,,,,,,,,,,,,,650.9019999523298,,response,,,,10,A,,,,,,Space,keypress(Space),,,,silence,,,,-- -- --- United ------- --------- ----------- --------<br>--------- -------- --- ------- -- ------- ---- -- ------<br>-- --- -------- -------- ---------- ---- ---- ---- ------<br>-- --------- -- ---- -- --- -- --- ------- -- - -----<br>---------- -- -- -- ---- ----- -- ------ -- --- ------<br>-------,302722.7999999523,302721.7999999523,302054.821,302066.59999996424,302070.898,302738.161,,3,United
screen,html.Screen,2_3_1_0_1_4,2022-02-15T15:59:22.096Z,,,,,,,,,,,,,,,,,48,,,,,,,,,,,,,,847.6389999522944,,response,,,,10,A,,,,,,Space,keypress(Space),,,,silence,,,,"-- -- --- ------ States, --------- ----------- --------<br>--------- -------- --- ------- -- ------- ---- -- ------<br>-- --- -------- -------- ---------- ---- ---- ---- ------<br>-- --------- -- ---- -- --- -- --- ------- -- - -----<br>---------- -- -- -- ---- ----- -- ------ -- --- ------<br>-------",303586.7999999523,303585.7999999523,302721.443,302722.89999997616,302738.161,303604.812,,4,"States,"
screen,html.Screen,2_3_1_0_1_5,2022-02-15T15:59:22.975Z,,,,,,,,,,,,,,,,,48,,,,,,,,,,,,,,860.787999964261,,response,,,,10,A,,,,,,Space,keypress(Space),,,,silence,,,,-- -- --- ------ ------- Colombian ----------- --------<br>--------- -------- --- ------- -- ------- ---- -- ------<br>-- --- -------- -------- ---------- ---- ---- ---- ------<br>-- --------- -- ---- -- --- -- --- ------- -- - -----<br>---------- -- -- -- ---- ----- -- ------ -- --- ------<br>-------,304466.5,304465.59999996424,303587.588,303587,303604.812,304470.919,,5,Colombian
screen,html.Screen,2_3_1_0_1_6,2022-02-15T15:59:24.152Z,,,,,,,,,,,,,,,,,48,,,,,,,,,,,,,,1170.9809999761637,,response,,,,10,A,,,,,,Space,keypress(Space),,,,silence,,,,-- -- --- ------ ------- --------- legislation --------<br>--------- -------- --- ------- -- ------- ---- -- ------<br>-- --- -------- -------- ---------- ---- ---- ---- ------<br>-- --------- -- ---- -- --- -- --- ------- -- - -----<br>---------- -- -- -- ---- ----- -- ------ -- --- ------<br>-------,305642.7999999523,305641.89999997616,304454.212,304466.6999999881,304470.919,305654.318,,6,legislation
screen,html.Screen,2_3_1_0_1_7,2022-02-15T15:59:25.503Z,,,,,,,,,,,,,,,,,48,,,,,,,,,,,,,,1339.2819999642088,,response,,,,10,A,,,,,,Space,keypress(Space),,,,silence,,,,-- -- --- ------ ------- --------- ----------- requires<br>--------- -------- --- ------- -- ------- ---- -- ------<br>-- --- -------- -------- ---------- ---- ---- ---- ------<br>-- --------- -- ---- -- --- -- --- ------- -- - -----<br>---------- -- -- -- ---- ----- -- ------ -- --- ------<br>-------,306994.39999997616,306993.59999996424,305637.55,305643,305654.318,307004.554,,7,requires
screen,html.Screen,2_3_1_0_1_8,2022-02-15T15:59:26.120Z,,,,,,,,,,,,,,,,,48,,,,,,,,,,,,,,605.5459999642335,,response,,,,10,A,,,,,,Space,keypress(Space),,,,silence,,,,-- -- --- ------ ------- --------- ----------- --------<br>travelers -------- --- ------- -- ------- ---- -- ------<br>-- --- -------- -------- ---------- ---- ---- ---- ------<br>-- --------- -- ---- -- --- -- --- ------- -- - -----<br>---------- -- -- -- ---- ----- -- ------ -- --- ------<br>-------,307611,307610.09999996424,306987.98,306994.59999996424,307004.554,307621.156,,8,travelers
screen,html.Screen,2_3_1_0_1_9,2022-02-15T15:59:26.760Z,,,,,,,,,,,,,,,,,48,,,,,,,,,,,,,,628.2439999761409,,response,,,,10,A,,,,,,Space,keypress(Space),,,,silence,,,,-- -- --- ------ ------- --------- ----------- --------<br>--------- entering --- ------- -- ------- ---- -- ------<br>-- --- -------- -------- ---------- ---- ---- ---- ------<br>-- --------- -- ---- -- --- -- --- ------- -- - -----<br>---------- -- -- -- ---- ----- -- ------ -- --- ------<br>-------,308250.5,308249.39999997616,307604.83,307611.2999999523,307621.156,308254.23,,9,entering
screen,html.Screen,2_3_1_0_1_10,2022-02-15T15:59:27.128Z,,,,,,,,,,,,,,,,,48,,,,,,,,,,,,,,363.66999997617677,,response,,,,10,A,,,,,,Space,keypress(Space),,,,silence,,,,-- -- --- ------ ------- --------- ----------- --------<br>--------- -------- the ------- -- ------- ---- -- ------<br>-- --- -------- -------- ---------- ---- ---- ---- ------<br>-- --------- -- ---- -- --- -- --- ------- -- - -----<br>---------- -- -- -- ---- ----- -- ------ -- --- ------<br>-------,308618.7999999523,308617.89999997616,308237.936,308250.6999999881,308254.23,308620.925,,10,the
screen,html.Screen,2_3_1_0_1_11,2022-02-15T15:59:27.496Z,,,,,,,,,,,,,,,,,48,,,,,,,,,,,,,,365.17499996424885,,response,,,,10,A,,,,,,Space,keypress(Space),,,,silence,,,,-- -- --- ------ ------- --------- ----------- --------<br>--------- -------- --- country -- ------- ---- -- ------<br>-- --- -------- -------- ---------- ---- ---- ---- ------<br>-- --------- -- ---- -- --- -- --- ------- -- - -----<br>---------- -- -- -- ---- ----- -- ------ -- --- ------<br>-------,308987.2999999523,308986.09999996424,308604.79,308619,308620.925,309004.823,,11,country
screen,html.Screen,2_3_1_0_1_12,2022-02-15T15:59:27.872Z,,,,,,,,,,,,,,,,,48,,,,,,,,,,,,,,356.8769999881042,,response,,,,10,A,,,,,,Space,keypress(Space),,,,silence,,,,-- -- --- ------ ------- --------- ----------- --------<br>--------- -------- --- ------- to ------- ---- -- ------<br>-- --- -------- -------- ---------- ---- ---- ---- ------<br>-- --------- -- ---- -- --- -- --- ------- -- - -----<br>---------- -- -- -- ---- ----- -- ------ -- --- ------<br>-------,309362.7999999523,309361.6999999881,308988.103,308987.5,309004.823,309371.023,,12,to
screen,html.Screen,2_3_1_0_1_13,2022-02-15T15:59:28.472Z,,,,,,,,,,,,,,,,,48,,,,,,,,,,,,,,590.5769999642507,,response,,,,10,A,,,,,,Space,keypress(Space),,,,silence,,,,-- -- --- ------ ------- --------- ----------- --------<br>--------- -------- --- ------- -- declare ---- -- ------<br>-- --- -------- -------- ---------- ---- ---- ---- ------<br>-- --------- -- ---- -- --- -- --- ------- -- - -----<br>---------- -- -- -- ---- ----- -- ------ -- --- ------<br>-------,309962.6999999881,309961.59999996424,309354.836,309363,309371.023,309970.972,,13,declare
screen,html.Screen,2_3_1_0_1_14,2022-02-15T15:59:29.313Z,,,,,,,,,,,,,,,,,48,,,,,,,,,,,,,,831.9279999761493,,response,,,,10,A,,,,,,Space,keypress(Space),,,,silence,,,,-- -- --- ------ ------- --------- ----------- --------<br>--------- -------- --- ------- -- ------- cash -- ------<br>-- --- -------- -------- ---------- ---- ---- ---- ------<br>-- --------- -- ---- -- --- -- --- ------- -- - -----<br>---------- -- -- -- ---- ----- -- ------ -- --- ------<br>-------,310804.1999999881,310802.89999997616,309954.3,309963,309970.972,310821.203,,14,cash
screen,html.Screen,2_3_1_0_1_15,2022-02-15T15:59:29.720Z,,,,,,,,,,,,,,,,,48,,,,,,,,,,,,,,388.7970000000205,,response,,,,10,A,,,,,,Space,keypress(Space),,,,silence,,,,-- -- --- ------ ------- --------- ----------- --------<br>--------- -------- --- ------- -- ------- ---- in ------<br>-- --- -------- -------- ---------- ---- ---- ---- ------<br>-- --------- -- ---- -- --- -- --- ------- -- - -----<br>---------- -- -- -- ---- ----- -- ------ -- --- ------<br>-------,311211.09999996424,311210,310804.761,310804.5,310821.203,311221.162,,15,in
screen,html.Screen,2_3_1_0_1_16,2022-02-15T15:59:30.200Z,,,,,,,,,,,,,,,,,48,,,,,,,,,,,,,,468.8379999999888,,response,,,,10,A,,,,,,Space,keypress(Space),,,,silence,,,,-- -- --- ------ ------- --------- ----------- --------<br>--------- -------- --- ------- -- ------- ---- -- excess<br>-- --- -------- -------- ---------- ---- ---- ---- ------<br>-- --------- -- ---- -- --- -- --- ------- -- - -----<br>---------- -- -- -- ---- ----- -- ------ -- --- ------<br>-------,311691,311690,311204.815,311211.2999999523,311221.162,311704.89,,16,excess
screen,html.Screen,2_3_1_0_1_17,2022-02-15T15:59:30.648Z,,,,,,,,,,,,,,,,,48,,,,,,,,,,,,,,432.8099999880651,,response,,,,10,A,,,,,,Space,keypress(Space),,,,silence,,,,-- -- --- ------ ------- --------- ----------- --------<br>--------- -------- --- ------- -- ------- ---- -- ------<br>of --- -------- -------- ---------- ---- ---- ---- ------<br>-- --------- -- ---- -- --- -- --- ------- -- - -----<br>---------- -- -- -- ---- ----- -- ------ -- --- ------<br>-------,312138.6999999881,312137.6999999881,311688.117,311691.1999999881,311704.89,312154.881,,17,of
screen,html.Screen,2_3_1_0_1_18,2022-02-15T15:59:31.264Z,,,,,,,,,,,,,,,,,48,,,,,,,,,,,,,,598.7189999642433,,response,,,,10,A,,,,,,Space,keypress(Space),,,,silence,,,,-- -- --- ------ ------- --------- ----------- --------<br>--------- -------- --- ------- -- ------- ---- -- ------<br>-- ten -------- -------- ---------- ---- ---- ---- ------<br>-- --------- -- ---- -- --- -- --- ------- -- - -----<br>---------- -- -- -- ---- ----- -- ------ -- --- ------<br>-------,312754.59999996424,312753.59999996424,312138.185,312139,312154.881,312770.966,,18,ten
screen,html.Screen,2_3_1_0_1_19,2022-02-15T15:59:31.696Z,,,,,,,,,,,,,,,,,48,,,,,,,,,,,,,,414.93399997614324,,response,,,,10,A,,,,,,Space,keypress(Space),,,,silence,,,,-- -- --- ------ ------- --------- ----------- --------<br>--------- -------- --- ------- -- ------- ---- -- ------<br>-- --- thousand -------- ---------- ---- ---- ---- ------<br>-- --------- -- ---- -- --- -- --- ------- -- - -----<br>---------- -- -- -- ---- ----- -- ------ -- --- ------<br>-------,313186.89999997616,313185.89999997616,312754.854,312754.7999999523,312770.966,313204.826,,19,thousand
screen,html.Screen,2_3_1_0_1_20,2022-02-15T15:59:32.183Z,,,,,,,,,,,,,,,,,48,,,,,,,,,,,,,,468.37399998807814,,response,,,,10,A,,,,,,Space,keypress(Space),,,,silence,,,,-- -- --- ------ ------- --------- ----------- --------<br>--------- -------- --- ------- -- ------- ---- -- ------<br>-- --- -------- dollars. ---------- ---- ---- ---- ------<br>-- --------- -- ---- -- --- -- --- ------- -- - -----<br>---------- -- -- -- ---- ----- -- ------ -- --- ------<br>-------,313674.09999996424,313673.1999999881,313171.453,313187.09999996424,313204.826,313687.769,,20,dollars.
screen,html.Screen,2_3_1_0_1_21,2022-02-15T15:59:32.984Z,,,,,,,,,,,,,,,,,48,,,,,,,,,,,,,,785.9309999881079,,response,,,,10,A,,,,,,Space,keypress(Space),,,,silence,,,,-- -- --- ------ ------- --------- ----------- --------<br>--------- -------- --- ------- -- ------- ---- -- ------<br>-- --- -------- -------- Concealing ---- ---- ---- ------<br>-- --------- -- ---- -- --- -- --- ------- -- - -----<br>---------- -- -- -- ---- ----- -- ------ -- --- ------<br>-------,314474.6999999881,314473.6999999881,313671.479,313674.2999999523,313687.769,314488.152,,21,Concealing
screen,html.Screen,2_3_1_0_1_22,2022-02-15T15:59:33.352Z,,,,,,,,,,,,,,,,,48,,,,,,,,,,,,,,353.34799999999814,,response,,,,10,A,,,,,,Space,keypress(Space),,,,silence,,,,-- -- --- ------ ------- --------- ----------- --------<br>--------- -------- --- ------- -- ------- ---- -- ------<br>-- --- -------- -------- ---------- more ---- ---- ------<br>-- --------- -- ---- -- --- -- --- ------- -- - -----<br>---------- -- -- -- ---- ----- -- ------ -- --- ------<br>-------,314842.5,314841.5,314470.921,314474.7999999523,314488.152,314854.605,,22,more
screen,html.Screen,2_3_1_0_1_23,2022-02-15T15:59:33.680Z,,,,,,,,,,,,,,,,,48,,,,,,,,,,,,,,315.1949999523349,,response,,,,10,A,,,,,,Space,keypress(Space),,,,silence,,,,-- -- --- ------ ------- --------- ----------- --------<br>--------- -------- --- ------- -- ------- ---- -- ------<br>-- --- -------- -------- ---------- ---- than ---- ------<br>-- --------- -- ---- -- --- -- --- ------- -- - -----<br>---------- -- -- -- ---- ----- -- ------ -- --- ------<br>-------,315170.7999999523,315169.7999999523,314837.816,314842.7999999523,314854.605,315188.178,,23,than
screen,html.Screen,2_3_1_0_1_24,2022-02-15T15:59:34.064Z,,,,,,,,,,,,,,,,,48,,,,,,,,,,,,,,365.4219999642228,,response,,,,10,A,,,,,,Space,keypress(Space),,,,silence,,,,-- -- --- ------ ------- --------- ----------- --------<br>--------- -------- --- ------- -- ------- ---- -- ------<br>-- --- -------- -------- ---------- ---- ---- that ------<br>-- --------- -- ---- -- --- -- --- ------- -- - -----<br>---------- -- -- -- ---- ----- -- ------ -- --- ------<br>-------,315554.5,315553.59999996424,315171.389,315171,315188.178,315571.166,,24,that
screen,html.Screen,2_3_1_0_1_25,2022-02-15T15:59:34.535Z,,,,,,,,,,,,,,,,,48,,,,,,,,,,,,,,454.0339999880525,,response,,,,10,A,,,,,,Space,keypress(Space),,,,silence,,,,-- -- --- ------ ------- --------- ----------- --------<br>--------- -------- --- ------- -- ------- ---- -- ------<br>-- --- -------- -------- ---------- ---- ---- ---- amount<br>-- --------- -- ---- -- --- -- --- ------- -- - -----<br>---------- -- -- -- ---- ----- -- ------ -- --- ------<br>-------,316026.2999999523,316025.1999999881,315554.516,315554.6999999881,315571.166,316037.641,,25,amount
screen,html.Screen,2_3_1_0_1_26,2022-02-15T15:59:34.952Z,,,,,,,,,,,,,,,,,48,,,,,,,,,,,,,,404.158999952313,,response,,,,10,A,,,,,,Space,keypress(Space),,,,silence,,,,-- -- --- ------ ------- --------- ----------- --------<br>--------- -------- --- ------- -- ------- ---- -- ------<br>-- --- -------- -------- ---------- ---- ---- ---- ------<br>to --------- -- ---- -- --- -- --- ------- -- - -----<br>---------- -- -- -- ---- ----- -- ------ -- --- ------<br>-------,316442.7999999523,316441.7999999523,316021.444,316026.59999996424,316037.641,316454.434,,26,to
screen,html.Screen,2_3_1_0_1_27,2022-02-15T15:59:35.690Z,,,,,,,,,,,,,,,,,48,,,,,,,,,,,,,,723.4659999761498,,response,,,,10,A,,,,,,Space,keypress(Space),,,,silence,,,,-- -- --- ------ ------- --------- ----------- --------<br>--------- -------- --- ------- -- ------- ---- -- ------<br>-- --- -------- -------- ---------- ---- ---- ---- ------<br>-- transport -- ---- -- --- -- --- ------- -- - -----<br>---------- -- -- -- ---- ----- -- ------ -- --- ------<br>-------,317180.5,317177.89999997616,316437.543,316443,316454.434,317187.772,,27,transport
screen,html.Screen,2_3_1_0_1_28,2022-02-15T15:59:36.688Z,,,,,,,,,,,,,,,,,48,,,,,,,,,,,,,,990.6279999761609,,response,,,,10,A,,,,,,Space,keypress(Space),,,,silence,,,,-- -- --- ------ ------- --------- ----------- --------<br>--------- -------- --- ------- -- ------- ---- -- ------<br>-- --- -------- -------- ---------- ---- ---- ---- ------<br>-- --------- it ---- -- --- -- --- ------- -- - -----<br>---------- -- -- -- ---- ----- -- ------ -- --- ------<br>-------,318179.39999997616,318178.39999997616,317171.487,317180.7999999523,317187.772,318188.008,,28,it
screen,html.Screen,2_3_1_0_1_29,2022-02-15T15:59:38.160Z,,,,,,,,,,,,,,,,,48,,,,,,,,,,,,,,1461.8919999761856,,response,,,,10,A,,,,,,Space,keypress(Space),,,,silence,,,,-- -- --- ------ ------- --------- ----------- --------<br>--------- -------- --- ------- -- ------- ---- -- ------<br>-- --- -------- -------- ---------- ---- ---- ---- ------<br>-- --------- -- into -- --- -- --- ------- -- - -----<br>---------- -- -- -- ---- ----- -- ------ -- --- ------<br>-------,319651,319649.89999997616,318171.015,318179.5,318188.008,319654.261,,29,into
screen,html.Screen,2_3_1_0_1_30,2022-02-15T15:59:38.808Z,,,,,,,,,,,,,,,,,48,,,,,,,,,,,,,,643.5389999523177,,response,,,,10,A,,,,,,Space,keypress(Space),,,,silence,,,,-- -- --- ------ ------- --------- ----------- --------<br>--------- -------- --- ------- -- ------- ---- -- ------<br>-- --- -------- -------- ---------- ---- ---- ---- ------<br>-- --------- -- ---- or --- -- --- ------- -- - -----<br>---------- -- -- -- ---- ----- -- ------ -- --- ------<br>-------,320298.6999999881,320297.7999999523,319637.549,319651.1999999881,319654.261,320304.23,,30,or
screen,html.Screen,2_3_1_0_1_31,2022-02-15T15:59:39.304Z,,,,,,,,,,,,,,,,,48,,,,,,,,,,,,,,489.5699999523349,,response,,,,10,A,,,,,,Space,keypress(Space),,,,silence,,,,-- -- --- ------ ------- --------- ----------- --------<br>--------- -------- --- ------- -- ------- ---- -- ------<br>-- --- -------- -------- ---------- ---- ---- ---- ------<br>-- --------- -- ---- -- out -- --- ------- -- - -----<br>---------- -- -- -- ---- ----- -- ------ -- --- ------<br>-------,320794.89999997616,320793.7999999523,320288.124,320298.89999997616,320304.23,320804.663,,31,out
screen,html.Screen,2_3_1_0_1_32,2022-02-15T15:59:39.657Z,,,,,,,,,,,,,,,,,48,,,,,,,,,,,,,,342.33699999999953,,response,,,,10,A,,,,,,Space,keypress(Space),,,,silence,,,,-- -- --- ------ ------- --------- ----------- --------<br>--------- -------- --- ------- -- ------- ---- -- ------<br>-- --- -------- -------- ---------- ---- ---- ---- ------<br>-- --------- -- ---- -- --- of --- ------- -- - -----<br>---------- -- -- -- ---- ----- -- ------ -- --- ------<br>-------,321148.09999996424,321147,320787.975,320795.09999996424,320804.663,321154.23,,32,of
screen,html.Screen,2_3_1_0_1_33,2022-02-15T15:59:40.000Z,,,,,,,,,,,,,,,,,48,,,,,,,,,,,,,,335.7700000000186,,response,,,,10,A,,,,,,Space,keypress(Space),,,,silence,,,,-- -- --- ------ ------- --------- ----------- --------<br>--------- -------- --- ------- -- ------- ---- -- ------<br>-- --- -------- -------- ---------- ---- ---- ---- ------<br>-- --------- -- ---- -- --- -- the ------- -- - -----<br>---------- -- -- -- ---- ----- -- ------ -- --- ------<br>-------,321491,321490,321138.16,321148.2999999523,321154.23,321504.298,,33,the
screen,html.Screen,2_3_1_0_1_34,2022-02-15T15:59:40.424Z,,,,,,,,,,,,,,,,,48,,,,,,,,,,,,,,409.5019999523065,,response,,,,10,A,,,,,,Space,keypress(Space),,,,silence,,,,-- -- --- ------ ------- --------- ----------- --------<br>--------- -------- --- ------- -- ------- ---- -- ------<br>-- --- -------- -------- ---------- ---- ---- ---- ------<br>-- --------- -- ---- -- --- -- --- country -- - -----<br>---------- -- -- -- ---- ----- -- ------ -- --- ------<br>-------,321914.6999999881,321913.7999999523,321488.165,321491.2999999523,321504.298,321920.967,,34,country
screen,html.Screen,2_3_1_0_1_35,2022-02-15T15:59:40.895Z,,,,,,,,,,,,,,,,,48,,,,,,,,,,,,,,464.43299997615395,,response,,,,10,A,,,,,,Space,keypress(Space),,,,silence,,,,-- -- --- ------ ------- --------- ----------- --------<br>--------- -------- --- ------- -- ------- ---- -- ------<br>-- --- -------- -------- ---------- ---- ---- ---- ------<br>-- --------- -- ---- -- --- -- --- ------- is - -----<br>---------- -- -- -- ---- ----- -- ------ -- --- ------<br>-------,322386.39999997616,322385.39999997616,321904.213,321914.89999997616,321920.967,322413.656,,35,is
screen,html.Screen,2_3_1_0_1_36,2022-02-15T15:59:41.272Z,,,,,,,,,,,,,,,,,48,,,,,,,,,,,,,,348.14399995229905,,response,,,,10,A,,,,,,Space,keypress(Space),,,,silence,,,,-- -- --- ------ ------- --------- ----------- --------<br>--------- -------- --- ------- -- ------- ---- -- ------<br>-- --- -------- -------- ---------- ---- ---- ---- ------<br>-- --------- -- ---- -- --- -- --- ------- -- a -----<br>---------- -- -- -- ---- ----- -- ------ -- --- ------<br>-------,322762.6999999881,322761.7999999523,322370.956,322386.5,322413.656,322771.141,,36,a
screen,html.Screen,2_3_1_0_1_37,2022-02-15T15:59:41.808Z,,,,,,,,,,,,,,,,,48,,,,,,,,,,,,,,526.658999952313,,response,,,,10,A,,,,,,Space,keypress(Space),,,,silence,,,,-- -- --- ------ ------- --------- ----------- --------<br>--------- -------- --- ------- -- ------- ---- -- ------<br>-- --- -------- -------- ---------- ---- ---- ---- ------<br>-- --------- -- ---- -- --- -- --- ------- -- - crime<br>---------- -- -- -- ---- ----- -- ------ -- --- ------<br>-------,323298.6999999881,323297.7999999523,322754.85,322762.7999999523,322771.141,323304.26,,37,crime
screen,html.Screen,2_3_1_0_1_38,2022-02-15T15:59:42.431Z,,,,,,,,,,,,,,,,,48,,,,,,,,,,,,,,617.039999952307,,response,,,,10,A,,,,,,Space,keypress(Space),,,,silence,,,,-- -- --- ------ ------- --------- ----------- --------<br>--------- -------- --- ------- -- ------- ---- -- ------<br>-- --- -------- -------- ---------- ---- ---- ---- ------<br>-- --------- -- ---- -- --- -- --- ------- -- - -----<br>punishable -- -- -- ---- ----- -- ------ -- --- ------<br>-------,323922.2999999523,323921.2999999523,323288.146,323298.7999999523,323304.26,323937.984,,38,punishable
screen,html.Screen,2_3_1_0_1_39,2022-02-15T15:59:42.872Z,,,,,,,,,,,,,,,,,48,,,,,,,,,,,,,,423.51600000000326,,response,,,,10,A,,,,,,Space,keypress(Space),,,,silence,,,,-- -- --- ------ ------- --------- ----------- --------<br>--------- -------- --- ------- -- ------- ---- -- ------<br>-- --- -------- -------- ---------- ---- ---- ---- ------<br>-- --------- -- ---- -- --- -- --- ------- -- - -----<br>---------- by -- -- ---- ----- -- ------ -- --- ------<br>-------,324362.39999997616,324361.5,323921.444,323922.5,323937.984,324371.001,,39,by
screen,html.Screen,2_3_1_0_1_40,2022-02-15T15:59:43.304Z,,,,,,,,,,,,,,,,,48,,,,,,,,,,,,,,422.798999952327,,response,,,,10,A,,,,,,Space,keypress(Space),,,,silence,,,,-- -- --- ------ ------- --------- ----------- --------<br>--------- -------- --- ------- -- ------- ---- -- ------<br>-- --- -------- -------- ---------- ---- ---- ---- ------<br>-- --------- -- ---- -- --- -- --- ------- -- - -----<br>---------- -- up -- ---- ----- -- ------ -- --- ------<br>-------,324794.7999999523,324793.7999999523,324354.442,324362.6999999881,324371.001,324804.794,,40,up
screen,html.Screen,2_3_1_0_1_41,2022-02-15T15:59:43.648Z,,,,,,,,,,,,,,,,,48,,,,,,,,,,,,,,332.90599998808466,,response,,,,10,A,,,,,,Space,keypress(Space),,,,silence,,,,-- -- --- ------ ------- --------- ----------- --------<br>--------- -------- --- ------- -- ------- ---- -- ------<br>-- --- -------- -------- ---------- ---- ---- ---- ------<br>-- --------- -- ---- -- --- -- --- ------- -- - -----<br>---------- -- -- to ---- ----- -- ------ -- --- ------<br>-------,325138.59999996424,325137.6999999881,324788.187,324795,324804.794,325154.84,,41,to
screen,html.Screen,2_3_1_0_1_42,2022-02-15T15:59:44.136Z,,,,,,,,,,,,,,,,,48,,,,,,,,,,,,,,470.6599999999744,,response,,,,10,A,,,,,,Space,keypress(Space),,,,silence,,,,-- -- --- ------ ------- --------- ----------- --------<br>--------- -------- --- ------- -- ------- ---- -- ------<br>-- --- -------- -------- ---------- ---- ---- ---- ------<br>-- --------- -- ---- -- --- -- --- ------- -- - -----<br>---------- -- -- -- five ----- -- ------ -- --- ------<br>-------,325626.59999996424,325625.5,325137.918,325138.6999999881,325154.84,325637.625,,42,five
screen,html.Screen,2_3_1_0_1_43,2022-02-15T15:59:44.504Z,,,,,,,,,,,,,,,,,48,,,,,,,,,,,,,,356.1749999523163,,response,,,,10,A,,,,,,Space,keypress(Space),,,,silence,,,,-- -- --- ------ ------- --------- ----------- --------<br>--------- -------- --- ------- -- ------- ---- -- ------<br>-- --- -------- -------- ---------- ---- ---- ---- ------<br>-- --------- -- ---- -- --- -- --- ------- -- - -----<br>---------- -- -- -- ---- years -- ------ -- --- ------<br>-------,325994.7999999523,325993.7999999523,325621.45,325626.7999999523,325637.625,326004.673,,43,years
