sender,sender_type,sender_id,timestamp,meta,,Blues,Classical,Country,Dance,Electronic,Folk,Gospel,Hip-Hop,Jazz,Latin,Musical/Film,New-age,Pop,Prolific_id,Provo_ID,R&B,Rap,Reggae,Religious,Rock,Soul,Swing,Traditional,age,artist_name,correct,correctResponse,distraction,duration,education,ended_on,familiarity,gender,headphone_check_performance,item,list,music_frequency,offensiveness,pleasantness,position_correct,preference,response,response_action,snippet_file,song_name,song_rating,sound,stimulus_1,stimulus_2,stimulus_3,text,time_commit,time_end,time_render,time_run,time_show,time_switch,url,word,word_ID
Prolific ID,html.Form,0,2022-02-21T10:46:36.357Z,"{""labjs_version"":""20.2.2"",""labjs_build"":{""flavor"":""production"",""commit"":""a25486e0c714a0ae2ce03ff94b7bb6896854dcfa""},""location"":""https://run.pavlovia.org/mvasilev/prolific2_music_b/"",""userAgent"":""Mozilla/5.0 (Windows NT 10.0; Win64; x64) AppleWebKit/537.36 (KHTML, like Gecko) Chrome/98.0.4758.102 Safari/537.36"",""platform"":""Win32"",""language"":""en-US"",""locale"":""en-US"",""timeZone"":""Europe/London"",""timezoneOffset"":0,""screen_width"":1366,""screen_height"":768,""scroll_width"":1366,""scroll_height"":577,""window_innerWidth"":1366,""window_innerHeight"":625,""devicePixelRatio"":1}",,,,,,,,,,,,,,,606041fc7e7b32b934840f3d,,,,,,,,,,,,,,,22237.78,,form submission,,,,,,,,,,,,,,,,,,,,,33202.10000002384,33201.5,10896.906,10906,10963.72,33328.762,{},,
Introduction,html.Screen,1_0,2022-02-21T10:46:39.635Z,,,,,,,,,,,,,,,,,,,,,,,,,,,,,,,3150.937999928472,,response,,,,,,,,,,,continue,click button,,,,,,,,,36480.39999997616,36479.699999928474,33178.833,33202.5,33328.762,36528.495,,,
Volume calibration,html.Screen,1_1,2022-02-21T10:47:11.287Z,,,,,,,,,,,,,,,,,,,,,,,,,,,,,,,31600.60500002384,,response,,,,,,,,,,,continue,click button,,,,,,,,,68131.79999995232,68129.10000002384,36495.204,36480.60000002384,36528.495,68159.538,,,
Task instructions,html.Screen,1_2,2022-02-21T10:47:21.191Z,,,,,,,,,,,,,,,,,,,,,,,,,,,,,,,9876.261999952316,,response,,,,,,,,,,,continue,click button,,,,,,,,,78036.39999997616,78035.79999995232,68142.889,68131.89999997616,68159.538,78075.553,,,
Sounds,html.Screen,1_3_0_0,2022-02-21T10:47:25.485Z,,,,,,,,,,,,,,,,,,,,,,,,,,,,,,,4249.649000000005,,timeout,,,,,,,,,3,,,,,,,,O,I,S,,82330.19999992847,82308.629,78025.526,78036.5,78075.553,82325.202,,,
Judgement,html.Screen,1_3_0_1,2022-02-21T10:47:26.472Z,,,,,,,,,,,,,,,,,,,,,,,,,,,,true,3,,990.8980000238371,,response,,,,,,,,,3,,3,click #choice-3,,,,,O,I,S,,83316.89999997616,83316.10000002384,82308.629,82330.29999995232,82325.202,83341.805,,,
Trial,flow.Sequence,1_3_0,2022-02-21T10:47:26.472Z,,,,,,,,,,,,,,,,,,,,,,,,,,,,,,,5240.547000023842,,completion,,,,,,,,,3,,,,,,,,O,I,S,,83317.10000002384,83316.10000002384,78025.526,78036.5,78075.553,83341.805,,,
Sounds,html.Screen,1_3_1_0,2022-02-21T10:47:30.731Z,,,,,,,,,,,,,,,,,,,,,,,,,,,,,,,4249.718000000008,,timeout,,,,,,,,,2,,,,,,,,I,S,O,,87576.19999992847,87574.852,83325.113,83317.29999995232,83341.805,87591.523,,,
Judgement,html.Screen,1_3_1_1,2022-02-21T10:47:31.290Z,,,,,,,,,,,,,,,,,,,,,,,,,,,,true,2,,542.7769999523152,,response,,,,,,,,,2,,2,click #choice-2,,,,,I,S,O,,88135.10000002384,88134.29999995232,87574.852,87576.60000002384,87591.523,88141.399,,,
Trial,flow.Sequence,1_3_1,2022-02-21T10:47:31.290Z,,,,,,,,,,,,,,,,,,,,,,,,,,,,,,,4792.494999952323,,completion,,,,,,,,,2,,,,,,,,I,S,O,,88135.29999995232,88134.29999995232,83325.113,83317.19999992847,83341.805,88141.399,,,
Sounds,html.Screen,1_3_2_0,2022-02-21T10:47:35.530Z,,,,,,,,,,,,,,,,,,,,,,,,,,,,,,,4249.707999999999,,timeout,,,,,,,,,2,,,,,,,,O,S,I,,92375.19999992847,92374.413,88124.722,88135.39999997616,88141.399,92391.107,,,
Judgement,html.Screen,1_3_2_1,2022-02-21T10:47:35.973Z,,,,,,,,,,,,,,,,,,,,,,,,,,,,true,2,,426.5929999284708,,response,,,,,,,,,2,,2,click #choice-2,,,,,O,S,I,,92818.39999997616,92817.69999992847,92374.413,92375.19999992847,92391.107,92824.444,,,
Trial,flow.Sequence,1_3_2,2022-02-21T10:47:35.973Z,,,,,,,,,,,,,,,,,,,,,,,,,,,,,,,4676.3009999284695,,completion,,,,,,,,,2,,,,,,,,O,S,I,,92818.60000002384,92817.69999992847,88124.722,88135.39999997616,88141.399,92824.444,,,
Sounds,html.Screen,1_3_3_0,2022-02-21T10:47:40.213Z,,,,,,,,,,,,,,,,,,,,,,,,,,,,,,,4249.656000000003,,timeout,,,,,,,,,1,,,,,,,,S,I,O,,97058.29999995232,97057.468,92807.749,92818.69999992847,92824.444,97074.1,,,
Judgement,html.Screen,1_3_3_1,2022-02-21T10:47:40.821Z,,,,,,,,,,,,,,,,,,,,,,,,,,,,true,1,,590.6999999523105,,response,,,,,,,,,1,,1,click #choice-1,,,,,S,I,O,,97665.60000002384,97664.79999995232,97057.468,97058.39999997616,97074.1,97690.705,,,
Trial,flow.Sequence,1_3_3,2022-02-21T10:47:40.821Z,,,,,,,,,,,,,,,,,,,,,,,,,,,,,,,4840.355999952313,,completion,,,,,,,,,1,,,,,,,,S,I,O,,97665.89999997616,97664.79999995232,92807.749,92818.69999992847,92824.444,97690.705,,,
Sounds,html.Screen,1_3_4_0,2022-02-21T10:47:45.079Z,,,,,,,,,,,,,,,,,,,,,,,,,,,,,,,4249.701000000001,,timeout,,,,,,,,,3,,,,,,,,I,O,S,,101924.39999997616,101923.738,97674.035,97665.89999997616,97690.705,101940.406,,,
Judgement,html.Screen,1_3_4_1,2022-02-21T10:47:45.552Z,,,,,,,,,,,,,,,,,,,,,,,,,,,,true,3,,455.3939999523136,,response,,,,,,,,,3,,3,click #choice-3,,,,,I,O,S,,102396.69999992847,102395.79999995232,101923.738,101924.5,101940.406,102407.041,,,
Trial,flow.Sequence,1_3_4,2022-02-21T10:47:45.552Z,,,,,,,,,,,,,,,,,,,,,,,,,,,,,,,4705.0949999523145,,completion,,,,,,,,,3,,,,,,,,I,O,S,,102397.19999992847,102395.79999995232,97674.035,97665.89999997616,97690.705,102407.041,,,
Sounds,html.Screen,1_3_5_0,2022-02-21T10:47:49.795Z,,,,,,,,,,,,,,,,,,,,,,,,,,,,,,,4249.6889999999985,,timeout,,,,,,,,,1,,,,,,,,S,O,I,,106640.60000002384,106640.066,102390.379,102397.39999997616,102407.041,106656.73,,,
Judgement,html.Screen,1_3_5_1,2022-02-21T10:47:50.466Z,,,,,,,,,,,,,,,,,,,,,,,,,,,,true,1,,653.8700000238459,,response,,,,,,,,,1,,1,click #choice-1,,,,,S,O,I,,107311.29999995232,107310.60000002384,106640.066,106640.69999992847,106656.73,107340.048,,,
Trial,flow.Sequence,1_3_5,2022-02-21T10:47:50.466Z,,,,,,,,,,,,,,,,,,,,,,,,,,,,,,,4903.559000023844,,completion,,,,,,,,,1,,,,,,,,S,O,I,,107311.5,107310.60000002384,102390.379,102397.39999997616,102407.041,107340.048,,,
Task,flow.Loop,1_3,2022-02-21T10:47:50.471Z,,,,,,,,,,,,,,,,,,,,,,,,,,,,,,,29235.047000023842,,completion,,,1,,,,,,,,,,,,,,,,,,107315.69999992847,107310.60000002384,78025.526,78036.5,78075.553,107340.048,,,
Trap,html.Screen,1_4,2022-02-21T10:47:50.472Z,,,,,,,,,,,,,,,,,,,,,,,,,,,,,,,NaN,,skipped,,,,,,,,,,,,,,,,,,,,,107316.69999992847,107310.60000002384,,107316.60000002384,,107340.048,,,
Thanks,html.Screen,1_5,2022-02-21T10:47:56.498Z,,,,,,,,,,,,,,,,,,,,,,,,,,,,,,,6002.251999952321,,response,,,,,,,,,,,continue,click button,,,,,,,,,113343,113342.29999995232,107306.768,107316.69999992847,107340.048,117005.942,,,
Headphone screening,flow.Sequence,1,2022-02-21T10:47:56.498Z,,,,,,,,,,,,,,,,,,,,,,,,,,,,,,,80013.53799995231,,completion,,,,,,,,,,,,,,,,,,,,,113343.10000002384,113342.29999995232,33178.833,33202.39999997616,33328.762,117005.942,,,
Instructions,html.Page,2_0,2022-02-21T10:48:16.401Z,,,,,,,,,,,,,,,,,,,,,,,,,,,,,,,16239.757999928479,,form submission,,,,,,,,,,,,,,,,,,,,,133246.10000002384,133245.69999992847,116855.996,117004.60000002384,117005.942,133254.841,,,
Holding screen,html.Screen,2_1_0_0,2022-02-21T10:48:26.394Z,,,,,,,,,,,,,,,,,,,,,,,,,,,,,,,10115.97100000002,,timeout,,,,,,,,,,,,,,,,,,,,,143239,143237.566,133238.144,133246.19999992847,133254.841,143370.812,,,
screen,html.Screen,2_1_0_1_0,2022-02-21T10:48:27.743Z,,,,,,,,,,,,,,,,,53,,,,,,,,,,,,,,1207.887999928469,,response,,,,99,,,,,,,Space,keypress(Space),,,,,,,,When -- ----- -- ------ - ------- --- ----------<br>------------- ------ ------ ---- ---- ------- ----- -- ----<br>-------- ------- -- ---------- --- - --- ----- ----- ----<br>---- --- --- ----- --- ---- ---- ------- ----- ---- -------<br>--- --- -- ----- -- --- ---- -- --- ---- -- ------ ------<br>--- ----- -- ----,144587.39999997616,144578.69999992847,143237.566,143239.5,143370.812,144604.064,,0,When
screen,html.Screen,2_1_0_1_1,2022-02-21T10:48:28.336Z,,,,,,,,,,,,,,,,,53,,,,,,,,,,,,,,575.1359999284614,,response,,,,99,,,,,,,Space,keypress(Space),,,,,,,,---- it ----- -- ------ - ------- --- ----------<br>------------- ------ ------ ---- ---- ------- ----- -- ----<br>-------- ------- -- ---------- --- - --- ----- ----- ----<br>---- --- --- ----- --- ---- ---- ------- ----- ---- -------<br>--- --- -- ----- -- --- ---- -- --- ---- -- ------ ------<br>--- ----- -- ----,145180.89999997616,145179.19999992847,144587.299,144587.89999997616,144604.064,145187.366,,1,it
screen,html.Screen,2_1_0_1_2,2022-02-21T10:48:28.913Z,,,,,,,,,,,,,,,,,53,,,,,,,,,,,,,,569.0339999761491,,response,,,,99,,,,,,,Space,keypress(Space),,,,,,,,---- -- comes -- ------ - ------- --- ----------<br>------------- ------ ------ ---- ---- ------- ----- -- ----<br>-------- ------- -- ---------- --- - --- ----- ----- ----<br>---- --- --- ----- --- ---- ---- ------- ----- ---- -------<br>--- --- -- ----- -- --- ---- -- --- ---- -- ------ ------<br>--- ----- -- ----,145758,145756.39999997616,145170.652,145181.29999995232,145187.366,145770.638,,2,comes
screen,html.Screen,2_1_0_1_3,2022-02-21T10:48:29.316Z,,,,,,,,,,,,,,,,,53,,,,,,,,,,,,,,388.46200002383557,,response,,,,99,,,,,,,Space,keypress(Space),,,,,,,,---- -- ----- to ------ - ------- --- ----------<br>------------- ------ ------ ---- ---- ------- ----- -- ----<br>-------- ------- -- ---------- --- - --- ----- ----- ----<br>---- --- --- ----- --- ---- ---- ------- ----- ---- -------<br>--- --- -- ----- -- --- ---- -- --- ---- -- ------ ------<br>--- ----- -- ----,146160.69999992847,146159.10000002384,145754.002,145758.79999995232,145770.638,146170.62,,3,to
screen,html.Screen,2_1_0_1_4,2022-02-21T10:48:29.783Z,,,,,,,,,,,,,,,,,53,,,,,,,,,,,,,,456.0799999284791,,response,,,,99,,,,,,,Space,keypress(Space),,,,,,,,---- -- ----- -- having - ------- --- ----------<br>------------- ------ ------ ---- ---- ------- ----- -- ----<br>-------- ------- -- ---------- --- - --- ----- ----- ----<br>---- --- --- ----- --- ---- ---- ------- ----- ---- -------<br>--- --- -- ----- -- --- ---- -- --- ---- -- ------ ------<br>--- ----- -- ----,146628.10000002384,146626.69999992847,146153.981,146161.19999992847,146170.62,146637.296,,4,having
screen,html.Screen,2_1_0_1_5,2022-02-21T10:48:30.216Z,,,,,,,,,,,,,,,,,53,,,,,,,,,,,,,,421.10399997615605,,response,,,,99,,,,,,,Space,keypress(Space),,,,,,,,---- -- ----- -- ------ a ------- --- ----------<br>------------- ------ ------ ---- ---- ------- ----- -- ----<br>-------- ------- -- ---------- --- - --- ----- ----- ----<br>---- --- --- ----- --- ---- ---- ------- ----- ---- -------<br>--- --- -- ----- -- --- ---- -- --- ---- -- ------ ------<br>--- ----- -- ----,147060.29999995232,147058.39999997616,146620.553,146628.5,146637.296,147070.574,,5,a
screen,html.Screen,2_1_0_1_6,2022-02-21T10:48:30.623Z,,,,,,,,,,,,,,,,,53,,,,,,,,,,,,,,395.6259999284812,,response,,,,99,,,,,,,Space,keypress(Space),,,,,,,,---- -- ----- -- ------ - lasting --- ----------<br>------------- ------ ------ ---- ---- ------- ----- -- ----<br>-------- ------- -- ---------- --- - --- ----- ----- ----<br>---- --- --- ----- --- ---- ---- ------- ----- ---- -------<br>--- --- -- ----- -- --- ---- -- --- ---- -- ------ ------<br>--- ----- -- ----,147468.10000002384,147466.19999992847,147054.179,147060.60000002384,147070.574,147493.522,,6,lasting
screen,html.Screen,2_1_0_1_7,2022-02-21T10:48:31.091Z,,,,,,,,,,,,,,,,,53,,,,,,,,,,,,,,440.7779999523191,,response,,,,99,,,,,,,Space,keypress(Space),,,,,,,,---- -- ----- -- ------ - ------- and ----------<br>------------- ------ ------ ---- ---- ------- ----- -- ----<br>-------- ------- -- ---------- --- - --- ----- ----- ----<br>---- --- --- ----- --- ---- ---- ------- ----- ---- -------<br>--- --- -- ----- -- --- ---- -- --- ---- -- ------ ------<br>--- ----- -- ----,147936,147934.29999995232,147453.877,147468.5,147493.522,147953.874,,7,and
screen,html.Screen,2_1_0_1_8,2022-02-21T10:48:31.558Z,,,,,,,,,,,,,,,,,53,,,,,,,,,,,,,,447.3259999284637,,response,,,,99,,,,,,,Space,keypress(Space),,,,,,,,---- -- ----- -- ------ - ------- --- fulfilling<br>------------- ------ ------ ---- ---- ------- ----- -- ----<br>-------- ------- -- ---------- --- - --- ----- ----- ----<br>---- --- --- ----- --- ---- ---- ------- ----- ---- -------<br>--- --- -- ----- -- --- ---- -- --- ---- -- ------ ------<br>--- ----- -- ----,148402.89999997616,148401.19999992847,147937.195,147936.39999997616,147953.874,148420.506,,8,fulfilling
screen,html.Screen,2_1_0_1_9,2022-02-21T10:48:32.124Z,,,,,,,,,,,,,,,,,53,,,,,,,,,,,,,,545.7939999523223,,response,,,,99,,,,,,,Space,keypress(Space),,,,,,,,"---- -- ----- -- ------ - ------- --- ----------<br>relationship, ------ ------ ---- ---- ------- ----- -- ----<br>-------- ------- -- ---------- --- - --- ----- ----- ----<br>---- --- --- ----- --- ---- ---- ------- ----- ---- -------<br>--- --- -- ----- -- --- ---- -- --- ---- -- ------ ------<br>--- ----- -- ----",148968.5,148966.29999995232,148403.836,148403.29999995232,148420.506,148987.138,,9,"relationship,"
screen,html.Screen,2_1_0_1_10,2022-02-21T10:48:33.145Z,,,,,,,,,,,,,,,,,53,,,,,,,,,,,,,,1001.2619999761519,,response,,,,99,,,,,,,Space,keypress(Space),,,,,,,,---- -- ----- -- ------ - ------- --- ----------<br>------------- common ------ ---- ---- ------- ----- -- ----<br>-------- ------- -- ---------- --- - --- ----- ----- ----<br>---- --- --- ----- --- ---- ---- ------- ----- ---- -------<br>--- --- -- ----- -- --- ---- -- --- ---- -- ------ ------<br>--- ----- -- ----,149990.10000002384,149988.39999997616,148970.406,148969,148987.138,150003.72,,10,common
screen,html.Screen,2_1_0_1_11,2022-02-21T10:48:33.583Z,,,,,,,,,,,,,,,,,53,,,,,,,,,,,,,,422.3800000238407,,response,,,,99,,,,,,,Space,keypress(Space),,,,,,,,---- -- ----- -- ------ - ------- --- ----------<br>------------- ------ wisdom ---- ---- ------- ----- -- ----<br>-------- ------- -- ---------- --- - --- ----- ----- ----<br>---- --- --- ----- --- ---- ---- ------- ----- ---- -------<br>--- --- -- ----- -- --- ---- -- --- ---- -- ------ ------<br>--- ----- -- ----,150427.79999995232,150426.10000002384,149987.034,149990.39999997616,150003.72,150436.967,,11,wisdom
screen,html.Screen,2_1_0_1_12,2022-02-21T10:48:33.972Z,,,,,,,,,,,,,,,,,53,,,,,,,,,,,,,,377.3329999523121,,response,,,,99,,,,,,,Space,keypress(Space),,,,,,,,---- -- ----- -- ------ - ------- --- ----------<br>------------- ------ ------ says ---- ------- ----- -- ----<br>-------- ------- -- ---------- --- - --- ----- ----- ----<br>---- --- --- ----- --- ---- ---- ------- ----- ---- -------<br>--- --- -- ----- -- --- ---- -- --- ---- -- ------ ------<br>--- ----- -- ----,150816.29999995232,150814.29999995232,150420.364,150428.19999992847,150436.967,150820.312,,12,says
screen,html.Screen,2_1_0_1_13,2022-02-21T10:48:34.341Z,,,,,,,,,,,,,,,,,53,,,,,,,,,,,,,,363.48799995231093,,response,,,,99,,,,,,,Space,keypress(Space),,,,,,,,---- -- ----- -- ------ - ------- --- ----------<br>------------- ------ ------ ---- that ------- ----- -- ----<br>-------- ------- -- ---------- --- - --- ----- ----- ----<br>---- --- --- ----- --- ---- ---- ------- ----- ---- -------<br>--- --- -- ----- -- --- ---- -- --- ---- -- ------ ------<br>--- ----- -- ----,151185.60000002384,151183.79999995232,150803.633,150816.79999995232,150820.312,151203.647,,13,that
screen,html.Screen,2_1_0_1_14,2022-02-21T10:48:34.678Z,,,,,,,,,,,,,,,,,53,,,,,,,,,,,,,,316.1529999523191,,response,,,,99,,,,,,,Space,keypress(Space),,,,,,,,---- -- ----- -- ------ - ------- --- ----------<br>------------- ------ ------ ---- ---- feeling ----- -- ----<br>-------- ------- -- ---------- --- - --- ----- ----- ----<br>---- --- --- ----- --- ---- ---- ------- ----- ---- -------<br>--- --- -- ----- -- --- ---- -- --- ---- -- ------ ------<br>--- ----- -- ----,151522.19999992847,151519.79999995232,151186.95,151185.89999997616,151203.647,151536.957,,14,feeling
screen,html.Screen,2_1_0_1_15,2022-02-21T10:48:35.020Z,,,,,,,,,,,,,,,,,53,,,,,,,,,,,,,,325.74299992847955,,response,,,,99,,,,,,,Space,keypress(Space),,,,,,,,---- -- ----- -- ------ - ------- --- ----------<br>------------- ------ ------ ---- ---- ------- close -- ----<br>-------- ------- -- ---------- --- - --- ----- ----- ----<br>---- --- --- ----- --- ---- ---- ------- ----- ---- -------<br>--- --- -- ----- -- --- ---- -- --- ---- -- ------ ------<br>--- ----- -- ----,151864.29999995232,151862.69999992847,151520.343,151522.69999992847,151536.957,151870.183,,15,close
screen,html.Screen,2_1_0_1_16,2022-02-21T10:48:35.384Z,,,,,,,,,,,,,,,,,53,,,,,,,,,,,,,,356.71699997616815,,response,,,,99,,,,,,,Space,keypress(Space),,,,,,,,---- -- ----- -- ------ - ------- --- ----------<br>------------- ------ ------ ---- ---- ------- ----- to ----<br>-------- ------- -- ---------- --- - --- ----- ----- ----<br>---- --- --- ----- --- ---- ---- ------- ----- ---- -------<br>--- --- -- ----- -- --- ---- -- --- ---- -- ------ ------<br>--- ----- -- ----,152229,152226.89999997616,151853.52,151864.69999992847,151870.183,152236.827,,16,to
screen,html.Screen,2_1_0_1_17,2022-02-21T10:48:35.937Z,,,,,,,,,,,,,,,,,53,,,,,,,,,,,,,,542.9729999523261,,response,,,,99,,,,,,,Space,keypress(Space),,,,,,,,---- -- ----- -- ------ - ------- --- ----------<br>------------- ------ ------ ---- ---- ------- ----- -- your<br>-------- ------- -- ---------- --- - --- ----- ----- ----<br>---- --- --- ----- --- ---- ---- ------- ----- ---- -------<br>--- --- -- ----- -- --- ---- -- --- ---- -- ------ ------<br>--- ----- -- ----,152781.79999995232,152779.79999995232,152220.228,152229.39999997616,152236.827,152786.824,,17,your
screen,html.Screen,2_1_0_1_18,2022-02-21T10:48:36.318Z,,,,,,,,,,,,,,,,,53,,,,,,,,,,,,,,373.47599995232304,,response,,,,99,,,,,,,Space,keypress(Space),,,,,,,,---- -- ----- -- ------ - ------- --- ----------<br>------------- ------ ------ ---- ---- ------- ----- -- ----<br>romantic ------- -- ---------- --- - --- ----- ----- ----<br>---- --- --- ----- --- ---- ---- ------- ----- ---- -------<br>--- --- -- ----- -- --- ---- -- --- ---- -- ------ ------<br>--- ----- -- ----,153162.29999995232,153160.29999995232,152770.135,152782.19999992847,152786.824,153170.074,,18,romantic
screen,html.Screen,2_1_0_1_19,2022-02-21T10:48:36.635Z,,,,,,,,,,,,,,,,,53,,,,,,,,,,,,,,307.5260000238486,,response,,,,99,,,,,,,Space,keypress(Space),,,,,,,,---- -- ----- -- ------ - ------- --- ----------<br>------------- ------ ------ ---- ---- ------- ----- -- ----<br>-------- partner -- ---------- --- - --- ----- ----- ----<br>---- --- --- ----- --- ---- ---- ------- ----- ---- -------<br>--- --- -- ----- -- --- ---- -- --- ---- -- ------ ------<br>--- ----- -- ----,153479.79999995232,153477.60000002384,153153.481,153162.69999992847,153170.074,153486.744,,19,partner
screen,html.Screen,2_1_0_1_20,2022-02-21T10:48:36.986Z,,,,,,,,,,,,,,,,,53,,,,,,,,,,,,,,342.05599995231023,,response,,,,99,,,,,,,Space,keypress(Space),,,,,,,,---- -- ----- -- ------ - ------- --- ----------<br>------------- ------ ------ ---- ---- ------- ----- -- ----<br>-------- ------- is ---------- --- - --- ----- ----- ----<br>---- --- --- ----- --- ---- ---- ------- ----- ---- -------<br>--- --- -- ----- -- --- ---- -- --- ---- -- ------ ------<br>--- ----- -- ----,153830.69999992847,153828.79999995232,153470.122,153480.29999995232,153486.744,153836.772,,20,is
screen,html.Screen,2_1_0_1_21,2022-02-21T10:48:37.847Z,,,,,,,,,,,,,,,,,53,,,,,,,,,,,,,,854.5279999523191,,response,,,,99,,,,,,,Space,keypress(Space),,,,,,,,---- -- ----- -- ------ - ------- --- ----------<br>------------- ------ ------ ---- ---- ------- ----- -- ----<br>-------- ------- -- paramount. --- - --- ----- ----- ----<br>---- --- --- ----- --- ---- ---- ------- ----- ---- -------<br>--- --- -- ----- -- --- ---- -- --- ---- -- ------ ------<br>--- ----- -- ----,154691.89999997616,154691.29999995232,153820.114,153831.10000002384,153836.772,154703.233,,21,paramount.
screen,html.Screen,2_1_0_1_22,2022-02-21T10:48:38.248Z,,,,,,,,,,,,,,,,,53,,,,,,,,,,,,,,388.26699999999255,,response,,,,99,,,,,,,Space,keypress(Space),,,,,,,,---- -- ----- -- ------ - ------- --- ----------<br>------------- ------ ------ ---- ---- ------- ----- -- ----<br>-------- ------- -- ---------- But - --- ----- ----- ----<br>---- --- --- ----- --- ---- ---- ------- ----- ---- -------<br>--- --- -- ----- -- --- ---- -- --- ---- -- ------ ------<br>--- ----- -- ----,155092.79999995232,155091.5,154686.671,154691.89999997616,154703.233,155103.288,,22,But
screen,html.Screen,2_1_0_1_23,2022-02-21T10:48:38.611Z,,,,,,,,,,,,,,,,,53,,,,,,,,,,,,,,350.6119999761577,,response,,,,99,,,,,,,Space,keypress(Space),,,,,,,,---- -- ----- -- ------ - ------- --- ----------<br>------------- ------ ------ ---- ---- ------- ----- -- ----<br>-------- ------- -- ---------- --- a --- ----- ----- ----<br>---- --- --- ----- --- ---- ---- ------- ----- ---- -------<br>--- --- -- ----- -- --- ---- -- --- ---- -- ------ ------<br>--- ----- -- ----,155455.69999992847,155453.89999997616,155086.563,155093.10000002384,155103.288,155469.999,,23,a
screen,html.Screen,2_1_0_1_24,2022-02-21T10:48:38.977Z,,,,,,,,,,,,,,,,,53,,,,,,,,,,,,,,350.0009999999893,,response,,,,99,,,,,,,Space,keypress(Space),,,,,,,,---- -- ----- -- ------ - ------- --- ----------<br>------------- ------ ------ ---- ---- ------- ----- -- ----<br>-------- ------- -- ---------- --- - new ----- ----- ----<br>---- --- --- ----- --- ---- ---- ------- ----- ---- -------<br>--- --- -- ----- -- --- ---- -- --- ---- -- ------ ------<br>--- ----- -- ----,155822.19999992847,155820,155453.278,155456.19999992847,155469.999,155836.671,,24,new
screen,html.Screen,2_1_0_1_25,2022-02-21T10:48:39.313Z,,,,,,,,,,,,,,,,,53,,,,,,,,,,,,,,319.1289999523142,,response,,,,99,,,,,,,Space,keypress(Space),,,,,,,,---- -- ----- -- ------ - ------- --- ----------<br>------------- ------ ------ ---- ---- ------- ----- -- ----<br>-------- ------- -- ---------- --- - --- study ----- ----<br>---- --- --- ----- --- ---- ---- ------- ----- ---- -------<br>--- --- -- ----- -- --- ---- -- --- ---- -- ------ ------<br>--- ----- -- ----,156157.69999992847,156155.79999995232,155819.995,155822.39999997616,155836.671,156169.825,,25,study
screen,html.Screen,2_1_0_1_26,2022-02-21T10:48:39.621Z,,,,,,,,,,,,,,,,,53,,,,,,,,,,,,,,294.3749999284628,,response,,,,99,,,,,,,Space,keypress(Space),,,,,,,,---- -- ----- -- ------ - ------- --- ----------<br>------------- ------ ------ ---- ---- ------- ----- -- ----<br>-------- ------- -- ---------- --- - --- ----- finds ----<br>---- --- --- ----- --- ---- ---- ------- ----- ---- -------<br>--- --- -- ----- -- --- ---- -- --- ---- -- ------ ------<br>--- ----- -- ----,156465.79999995232,156464.19999992847,156153.288,156158.10000002384,156169.825,156469.829,,26,finds
screen,html.Screen,2_1_0_1_27,2022-02-21T10:48:39.913Z,,,,,,,,,,,,,,,,,53,,,,,,,,,,,,,,285.57099997616024,,response,,,,99,,,,,,,Space,keypress(Space),,,,,,,,---- -- ----- -- ------ - ------- --- ----------<br>------------- ------ ------ ---- ---- ------- ----- -- ----<br>-------- ------- -- ---------- --- - --- ----- ----- that<br>---- --- --- ----- --- ---- ---- ------- ----- ---- -------<br>--- --- -- ----- -- --- ---- -- --- ---- -- ------ ------<br>--- ----- -- ----,156758,156755.39999997616,156453.116,156466.60000002384,156469.829,156769.868,,27,that
screen,html.Screen,2_1_0_1_28,2022-02-21T10:48:40.251Z,,,,,,,,,,,,,,,,,53,,,,,,,,,,,,,,324.0319999761705,,response,,,,99,,,,,,,Space,keypress(Space),,,,,,,,---- -- ----- -- ------ - ------- --- ----------<br>------------- ------ ------ ---- ---- ------- ----- -- ----<br>-------- ------- -- ---------- --- - --- ----- ----- ----<br>it's --- --- ----- --- ---- ---- ------- ----- ---- -------<br>--- --- -- ----- -- --- ---- -- --- ---- -- ------ ------<br>--- ----- -- ----,157095.89999997616,157093.89999997616,156753.138,156758.60000002384,156769.868,157103.127,,28,it's
screen,html.Screen,2_1_0_1_29,2022-02-21T10:48:40.598Z,,,,,,,,,,,,,,,,,53,,,,,,,,,,,,,,337.9730000238342,,response,,,,99,,,,,,,Space,keypress(Space),,,,,,,,---- -- ----- -- ------ - ------- --- ----------<br>------------- ------ ------ ---- ---- ------- ----- -- ----<br>-------- ------- -- ---------- --- - --- ----- ----- ----<br>---- not --- ----- --- ---- ---- ------- ----- ---- -------<br>--- --- -- ----- -- --- ---- -- --- ---- -- ------ ------<br>--- ----- -- ----,157442.89999997616,157441.10000002384,157086.502,157096.29999995232,157103.127,157453.114,,29,not
screen,html.Screen,2_1_0_1_30,2022-02-21T10:48:40.910Z,,,,,,,,,,,,,,,,,53,,,,,,,,,,,,,,299.98600002384046,,response,,,,99,,,,,,,Space,keypress(Space),,,,,,,,---- -- ----- -- ------ - ------- --- ----------<br>------------- ------ ------ ---- ---- ------- ----- -- ----<br>-------- ------- -- ---------- --- - --- ----- ----- ----<br>---- --- how ----- --- ---- ---- ------- ----- ---- -------<br>--- --- -- ----- -- --- ---- -- --- ---- -- ------ ------<br>--- ----- -- ----,157755,157753.10000002384,157436.482,157443.39999997616,157453.114,157769.846,,30,how
screen,html.Screen,2_1_0_1_31,2022-02-21T10:48:41.316Z,,,,,,,,,,,,,,,,,53,,,,,,,,,,,,,,388.45399995232583,,response,,,,99,,,,,,,Space,keypress(Space),,,,,,,,---- -- ----- -- ------ - ------- --- ----------<br>------------- ------ ------ ---- ---- ------- ----- -- ----<br>-------- ------- -- ---------- --- - --- ----- ----- ----<br>---- --- --- close --- ---- ---- ------- ----- ---- -------<br>--- --- -- ----- -- --- ---- -- --- ---- -- ------ ------<br>--- ----- -- ----,158160.19999992847,158158.29999995232,157753.207,157755.39999997616,157769.846,158169.734,,31,close
screen,html.Screen,2_1_0_1_32,2022-02-21T10:48:41.627Z,,,,,,,,,,,,,,,,,53,,,,,,,,,,,,,,300.06599995231954,,response,,,,99,,,,,,,Space,keypress(Space),,,,,,,,---- -- ----- -- ------ - ------- --- ----------<br>------------- ------ ------ ---- ---- ------- ----- -- ----<br>-------- ------- -- ---------- --- - --- ----- ----- ----<br>---- --- --- ----- you ---- ---- ------- ----- ---- -------<br>--- --- -- ----- -- --- ---- -- --- ---- -- ------ ------<br>--- ----- -- ----,158472,158469.79999995232,158153.12,158160.60000002384,158169.734,158486.434,,32,you
screen,html.Screen,2_1_0_1_33,2022-02-21T10:48:41.936Z,,,,,,,,,,,,,,,,,53,,,,,,,,,,,,,,292.46599997614976,,response,,,,99,,,,,,,Space,keypress(Space),,,,,,,,---- -- ----- -- ------ - ------- --- ----------<br>------------- ------ ------ ---- ---- ------- ----- -- ----<br>-------- ------- -- ---------- --- - --- ----- ----- ----<br>---- --- --- ----- --- feel ---- ------- ----- ---- -------<br>--- --- -- ----- -- --- ---- -- --- ---- -- ------ ------<br>--- ----- -- ----,158780.60000002384,158778.89999997616,158469.647,158472.5,158486.434,158786.401,,33,feel
screen,html.Screen,2_1_0_1_34,2022-02-21T10:48:42.225Z,,,,,,,,,,,,,,,,,53,,,,,,,,,,,,,,281.79899992846185,,response,,,,99,,,,,,,Space,keypress(Space),,,,,,,,---- -- ----- -- ------ - ------- --- ----------<br>------------- ------ ------ ---- ---- ------- ----- -- ----<br>-------- ------- -- ---------- --- - --- ----- ----- ----<br>---- --- --- ----- --- ---- that ------- ----- ---- -------<br>--- --- -- ----- -- --- ---- -- --- ---- -- ------ ------<br>--- ----- -- ----,159069.79999995232,159068.19999992847,158769.772,158780.89999997616,158786.401,159086.27,,34,that
screen,html.Screen,2_1_0_1_35,2022-02-21T10:48:42.635Z,,,,,,,,,,,,,,,,,53,,,,,,,,,,,,,,391.83000002385234,,response,,,,99,,,,,,,Space,keypress(Space),,,,,,,,---- -- ----- -- ------ - ------- --- ----------<br>------------- ------ ------ ---- ---- ------- ----- -- ----<br>-------- ------- -- ---------- --- - --- ----- ----- ----<br>---- --- --- ----- --- ---- ---- matters ----- ---- -------<br>--- --- -- ----- -- --- ---- -- --- ---- -- ------ ------<br>--- ----- -- ----,159480.10000002384,159478.10000002384,159069.689,159070.19999992847,159086.27,159486.293,,35,matters
screen,html.Screen,2_1_0_1_36,2022-02-21T10:48:43.013Z,,,,,,,,,,,,,,,,,53,,,,,,,,,,,,,,368.9069999284693,,response,,,,99,,,,,,,Space,keypress(Space),,,,,,,,"---- -- ----- -- ------ - ------- --- ----------<br>------------- ------ ------ ---- ---- ------- ----- -- ----<br>-------- ------- -- ---------- --- - --- ----- ----- ----<br>---- --- --- ----- --- ---- ---- ------- most, ---- -------<br>--- --- -- ----- -- --- ---- -- --- ---- -- ------ ------<br>--- ----- -- ----",159858.10000002384,159855.19999992847,159469.584,159480.79999995232,159486.293,159869.564,,36,"most,"
screen,html.Screen,2_1_0_1_37,2022-02-21T10:48:43.334Z,,,,,,,,,,,,,,,,,53,,,,,,,,,,,,,,306.1359999284614,,response,,,,99,,,,,,,Space,keypress(Space),,,,,,,,---- -- ----- -- ------ - ------- --- ----------<br>------------- ------ ------ ---- ---- ------- ----- -- ----<br>-------- ------- -- ---------- --- - --- ----- ----- ----<br>---- --- --- ----- --- ---- ---- ------- ----- it's -------<br>--- --- -- ----- -- --- ---- -- --- ---- -- ------ ------<br>--- ----- -- ----,160178.29999995232,160175.69999992847,159852.903,159858.60000002384,159869.564,160186.302,,37,it's
screen,html.Screen,2_1_0_1_38,2022-02-21T10:48:43.628Z,,,,,,,,,,,,,,,,,53,,,,,,,,,,,,,,284.49799995232024,,response,,,,99,,,,,,,Space,keypress(Space),,,,,,,,---- -- ----- -- ------ - ------- --- ----------<br>------------- ------ ------ ---- ---- ------- ----- -- ----<br>-------- ------- -- ---------- --- - --- ----- ----- ----<br>---- --- --- ----- --- ---- ---- ------- ----- ---- whether<br>--- --- -- ----- -- --- ---- -- --- ---- -- ------ ------<br>--- ----- -- ----,160472.69999992847,160470.79999995232,160169.619,160178.89999997616,160186.302,160486.264,,38,whether
screen,html.Screen,2_1_0_1_39,2022-02-21T10:48:43.935Z,,,,,,,,,,,,,,,,,53,,,,,,,,,,,,,,292.2360000000044,,response,,,,99,,,,,,,Space,keypress(Space),,,,,,,,---- -- ----- -- ------ - ------- --- ----------<br>------------- ------ ------ ---- ---- ------- ----- -- ----<br>-------- ------- -- ---------- --- - --- ----- ----- ----<br>---- --- --- ----- --- ---- ---- ------- ----- ---- -------<br>you --- -- ----- -- --- ---- -- --- ---- -- ------ ------<br>--- ----- -- ----,160780,160778.5,160469.551,160473.19999992847,160486.264,160786.149,,39,you
screen,html.Screen,2_1_0_1_40,2022-02-21T10:48:44.231Z,,,,,,,,,,,,,,,,,53,,,,,,,,,,,,,,287.75099997615325,,response,,,,99,,,,,,,Space,keypress(Space),,,,,,,,---- -- ----- -- ------ - ------- --- ----------<br>------------- ------ ------ ---- ---- ------- ----- -- ----<br>-------- ------- -- ---------- --- - --- ----- ----- ----<br>---- --- --- ----- --- ---- ---- ------- ----- ---- -------<br>--- are -- ----- -- --- ---- -- --- ---- -- ------ ------<br>--- ----- -- ----,161075.69999992847,161073.89999997616,160769.565,160780.29999995232,160786.149,161086.17,,40,are
screen,html.Screen,2_1_0_1_41,2022-02-21T10:48:44.481Z,,,,,,,,,,,,,,,,,53,,,,,,,,,,,,,,237.8299999999872,,response,,,,99,,,,,,,Space,keypress(Space),,,,,,,,---- -- ----- -- ------ - ------- --- ----------<br>------------- ------ ------ ---- ---- ------- ----- -- ----<br>-------- ------- -- ---------- --- - --- ----- ----- ----<br>---- --- --- ----- --- ---- ---- ------- ----- ---- -------<br>--- --- as ----- -- --- ---- -- --- ---- -- ------ ------<br>--- ----- -- ----,161325.5,161324,161069.571,161076.10000002384,161086.17,161336.127,,41,as
screen,html.Screen,2_1_0_1_42,2022-02-21T10:48:44.866Z,,,,,,,,,,,,,,,,,53,,,,,,,,,,,,,,372.8729999999923,,response,,,,99,,,,,,,Space,keypress(Space),,,,,,,,---- -- ----- -- ------ - ------- --- ----------<br>------------- ------ ------ ---- ---- ------- ----- -- ----<br>-------- ------- -- ---------- --- - --- ----- ----- ----<br>---- --- --- ----- --- ---- ---- ------- ----- ---- -------<br>--- --- -- close -- --- ---- -- --- ---- -- ------ ------<br>--- ----- -- ----,161710.39999997616,161709,161319.521,161325.79999995232,161336.127,161719.498,,42,close
screen,html.Screen,2_1_0_1_43,2022-02-21T10:48:45.193Z,,,,,,,,,,,,,,,,,53,,,,,,,,,,,,,,315.80199995232397,,response,,,,99,,,,,,,Space,keypress(Space),,,,,,,,---- -- ----- -- ------ - ------- --- ----------<br>------------- ------ ------ ---- ---- ------- ----- -- ----<br>-------- ------- -- ---------- --- - --- ----- ----- ----<br>---- --- --- ----- --- ---- ---- ------- ----- ---- -------<br>--- --- -- ----- as --- ---- -- --- ---- -- ------ ------<br>--- ----- -- ----,162037.79999995232,162035.29999995232,161702.878,161710.79999995232,161719.498,162052.838,,43,as
screen,html.Screen,2_1_0_1_44,2022-02-21T10:48:45.499Z,,,,,,,,,,,,,,,,,53,,,,,,,,,,,,,,289.1620000000112,,response,,,,99,,,,,,,Space,keypress(Space),,,,,,,,---- -- ----- -- ------ - ------- --- ----------<br>------------- ------ ------ ---- ---- ------- ----- -- ----<br>-------- ------- -- ---------- --- - --- ----- ----- ----<br>---- --- --- ----- --- ---- ---- ------- ----- ---- -------<br>--- --- -- ----- -- you ---- -- --- ---- -- ------ ------<br>--- ----- -- ----,162343.5,162342,162036.145,162038.29999995232,162052.838,162352.75,,44,you
screen,html.Screen,2_1_0_1_45,2022-02-21T10:48:45.865Z,,,,,,,,,,,,,,,,,53,,,,,,,,,,,,,,355.25,,response,,,,99,,,,,,,Space,keypress(Space),,,,,,,,---- -- ----- -- ------ - ------- --- ----------<br>------------- ------ ------ ---- ---- ------- ----- -- ----<br>-------- ------- -- ---------- --- - --- ----- ----- ----<br>---- --- --- ----- --- ---- ---- ------- ----- ---- -------<br>--- --- -- ----- -- --- want -- --- ---- -- ------ ------<br>--- ----- -- ----,162710,162708,162336.121,162343.89999997616,162352.75,162719.398,,45,want
screen,html.Screen,2_1_0_1_46,2022-02-21T10:48:46.206Z,,,,,,,,,,,,,,,,,53,,,,,,,,,,,,,,329.6020000000135,,response,,,,99,,,,,,,Space,keypress(Space),,,,,,,,---- -- ----- -- ------ - ------- --- ----------<br>------------- ------ ------ ---- ---- ------- ----- -- ----<br>-------- ------- -- ---------- --- - --- ----- ----- ----<br>---- --- --- ----- --- ---- ---- ------- ----- ---- -------<br>--- --- -- ----- -- --- ---- to --- ---- -- ------ ------<br>--- ----- -- ----,163050.69999992847,163049,162702.751,162710.5,162719.398,163071.438,,46,to
screen,html.Screen,2_1_0_1_47,2022-02-21T10:48:46.589Z,,,,,,,,,,,,,,,,,53,,,,,,,,,,,,,,360.7619999284798,,response,,,,99,,,,,,,Space,keypress(Space),,,,,,,,"---- -- ----- -- ------ - ------- --- ----------<br>------------- ------ ------ ---- ---- ------- ----- -- ----<br>-------- ------- -- ---------- --- - --- ----- ----- ----<br>---- --- --- ----- --- ---- ---- ------- ----- ---- -------<br>--- --- -- ----- -- --- ---- -- be, ---- -- ------ ------<br>--- ----- -- ----",163433.29999995232,163432.19999992847,163036.077,163051,163071.438,163435.978,,47,"be,"
screen,html.Screen,2_1_0_1_48,2022-02-21T10:48:46.962Z,,,,,,,,,,,,,,,,,53,,,,,,,,,,,,,,369.12200002383906,,response,,,,99,,,,,,,Space,keypress(Space),,,,,,,,---- -- ----- -- ------ - ------- --- ----------<br>------------- ------ ------ ---- ---- ------- ----- -- ----<br>-------- ------- -- ---------- --- - --- ----- ----- ----<br>---- --- --- ----- --- ---- ---- ------- ----- ---- -------<br>--- --- -- ----- -- --- ---- -- --- even -- ------ ------<br>--- ----- -- ----,163806.60000002384,163805.10000002384,163419.354,163433.69999992847,163435.978,163819.371,,48,even
screen,html.Screen,2_1_0_1_49,2022-02-21T10:48:47.285Z,,,,,,,,,,,,,,,,,53,,,,,,,,,,,,,,309.0289999761444,,response,,,,99,,,,,,,Space,keypress(Space),,,,,,,,---- -- ----- -- ------ - ------- --- ----------<br>------------- ------ ------ ---- ---- ------- ----- -- ----<br>-------- ------- -- ---------- --- - --- ----- ----- ----<br>---- --- --- ----- --- ---- ---- ------- ----- ---- -------<br>--- --- -- ----- -- --- ---- -- --- ---- if ------ ------<br>--- ----- -- ----,164130.10000002384,164128.39999997616,163802.659,163807.10000002384,163819.371,164135.994,,49,if
screen,html.Screen,2_1_0_1_50,2022-02-21T10:48:47.584Z,,,,,,,,,,,,,,,,,53,,,,,,,,,,,,,,290.00599999999395,,response,,,,99,,,,,,,Space,keypress(Space),,,,,,,,---- -- ----- -- ------ - ------- --- ----------<br>------------- ------ ------ ---- ---- ------- ----- -- ----<br>-------- ------- -- ---------- --- - --- ----- ----- ----<br>---- --- --- ----- --- ---- ---- ------- ----- ---- -------<br>--- --- -- ----- -- --- ---- -- --- ---- -- that's ------<br>--- ----- -- ----,164428.5,164426,164119.316,164130.5,164135.994,164435.913,,50,that's
screen,html.Screen,2_1_0_1_51,2022-02-21T10:48:47.981Z,,,,,,,,,,,,,,,,,53,,,,,,,,,,,,,,387.8869999523158,,response,,,,99,,,,,,,Space,keypress(Space),,,,,,,,---- -- ----- -- ------ - ------- --- ----------<br>------------- ------ ------ ---- ---- ------- ----- -- ----<br>-------- ------- -- ---------- --- - --- ----- ----- ----<br>---- --- --- ----- --- ---- ---- ------- ----- ---- -------<br>--- --- -- ----- -- --- ---- -- --- ---- -- ------ really<br>--- ----- -- ----,164825.29999995232,164823.79999995232,164419.299,164428.89999997616,164435.913,164835.972,,51,really
screen,html.Screen,2_1_0_1_52,2022-02-21T10:48:48.360Z,,,,,,,,,,,,,,,,,53,,,,,,,,,,,,,,367.128000023833,,response,,,,99,,,,,,,Space,keypress(Space),,,,,,,,---- -- ----- -- ------ - ------- --- ----------<br>------------- ------ ------ ---- ---- ------- ----- -- ----<br>-------- ------- -- ---------- --- - --- ----- ----- ----<br>---- --- --- ----- --- ---- ---- ------- ----- ---- -------<br>--- --- -- ----- -- --- ---- -- --- ---- -- ------ ------<br>not ----- -- ----,165204.5,165203.10000002384,164819.275,164825.69999992847,164835.972,165219.317,,52,not
screen,html.Screen,2_1_0_1_53,2022-02-21T10:48:48.663Z,,,,,,,,,,,,,,,,,53,,,,,,,,,,,,,,286.4829999523063,,response,,,,99,,,,,,,Space,keypress(Space),,,,,,,,---- -- ----- -- ------ - ------- --- ----------<br>------------- ------ ------ ---- ---- ------- ----- -- ----<br>-------- ------- -- ---------- --- - --- ----- ----- ----<br>---- --- --- ----- --- ---- ---- ------- ----- ---- -------<br>--- --- -- ----- -- --- ---- -- --- ---- -- ------ ------<br>--- close -- ----,165507.5,165505.79999995232,165202.627,165204.89999997616,165219.317,165519.235,,53,close
screen,html.Screen,2_1_0_1_54,2022-02-21T10:48:49.015Z,,,,,,,,,,,,,,,,,53,,,,,,,,,,,,,,338.76500000001397,,response,,,,99,,,,,,,Space,keypress(Space),,,,,,,,---- -- ----- -- ------ - ------- --- ----------<br>------------- ------ ------ ---- ---- ------- ----- -- ----<br>-------- ------- -- ---------- --- - --- ----- ----- ----<br>---- --- --- ----- --- ---- ---- ------- ----- ---- -------<br>--- --- -- ----- -- --- ---- -- --- ---- -- ------ ------<br>--- ----- at ----,165860.19999992847,165858,165502.597,165508.10000002384,165519.235,165869.132,,54,at
screen,html.Screen,2_1_0_1_55,2022-02-21T10:48:49.366Z,,,,,,,,,,,,,,,,,53,,,,,,,,,,,,,,339.4680000238295,,response,,,,99,,,,,,,Space,keypress(Space),,,,,,,,---- -- ----- -- ------ - ------- --- ----------<br>------------- ------ ------ ---- ---- ------- ----- -- ----<br>-------- ------- -- ---------- --- - --- ----- ----- ----<br>---- --- --- ----- --- ---- ---- ------- ----- ---- -------<br>--- --- -- ----- -- --- ---- -- --- ---- -- ------ ------<br>--- ----- -- all.,166210.5,166208.60000002384,165852.544,165860.5,165869.132,166235.766,,55,all.
Item 99,flow.Loop,2_1_0_1,2022-02-21T10:48:49.367Z,,,,,,,,,,,,,,,,,,,,,,,,,,,,,,,22837.788000023837,,completion,,,,,B,,,,,,,,,,,silence,,,,,166211.29999995232,166208.60000002384,143237.566,143239.29999995232,143370.812,166235.766,,,
Question 1,html.Screen,2_1_0_2,2022-02-21T10:49:04.781Z,,,,,,,,,,,,,,,,,,,,,,,,,,,,false,FALSE,,15389.933999928471,,response,,,,99,B,,,,,,TRUE,click #choice-1,,,,silence,,,,,181626.39999997616,181625.69999992847,166202.497,166211.79999995232,166235.766,181634.678,,,
Question 2,html.Screen,2_1_0_3,2022-02-21T10:49:11.074Z,,,,,,,,,,,,,,,,,,,,,,,,,,,,true,TRUE,,6283.721999976144,,response,,,,99,B,,,,,,TRUE,click #choice-1,,,,silence,,,,,187919,187918.39999997616,181618.003,181626.60000002384,181634.678,187950.805,,,
Item 99,flow.Sequence,2_1_0,2022-02-21T10:49:11.074Z,,,,,,,,,,,,,,,,,,,,,,,,,,,,,,,54663.55899997617,,completion,,,,,,,,,,,,,,,,,,,,,187919.19999992847,187918.39999997616,133238.144,133246.19999992847,133254.841,187950.805,,,
Holding screen,html.Screen,2_1_1_0,2022-02-21T10:49:21.091Z,,,,,,,,,,,,,,,,,,,,,,,,,,,,,,,9999.40400000001,,timeout,,,,,,,,,,,,,,,,,,,,,197935.69999992847,197933.499,187934.153,187919.29999995232,187950.805,197950.209,,,
screen,html.Screen,2_1_1_1_0,2022-02-21T10:49:21.576Z,,,,,,,,,,,,,,,,,54,,,,,,,,,,,,,,469.0909999523137,,response,,,,100,,,,,,,Space,keypress(Space),,,,,,,,At --- ---- --- ------ ----- ------- ---- -- --- ------- --<br>------- ---------- ------ -- ----- -- ----- -- ---- ------<br>--- ----- --- --- ------ -------- ----- --- ------ ----- --<br>----- ----- ---------- --- --- ------ ------ ---- -- ------<br>------- --- ------ ----- --- ---- ------- -- ---- --- --<br>------- ------,198421.19999992847,198419.29999995232,197933.499,197936,197950.209,198433.558,,0,At
screen,html.Screen,2_1_1_1_1,2022-02-21T10:49:21.895Z,,,,,,,,,,,,,,,,,54,,,,,,,,,,,,,,304.94200000001,,response,,,,100,,,,,,,Space,keypress(Space),,,,,,,,-- the ---- --- ------ ----- ------- ---- -- --- ------- --<br>------- ---------- ------ -- ----- -- ----- -- ---- ------<br>--- ----- --- --- ------ -------- ----- --- ------ ----- --<br>----- ----- ---------- --- --- ------ ------ ---- -- ------<br>------- --- ------ ----- --- ---- ------- -- ---- --- --<br>------- ------,198740.39999997616,198738.5,198416.804,198421.60000002384,198433.558,198750.098,,1,the
screen,html.Screen,2_1_1_1_2,2022-02-21T10:49:22.071Z,,,,,,,,,,,,,,,,,54,,,,,,,,,,,,,,164.20199995231815,,response,,,,100,,,,,,,Space,keypress(Space),,,,,,,,-- --- time --- ------ ----- ------- ---- -- --- ------- --<br>------- ---------- ------ -- ----- -- ----- -- ---- ------<br>--- ----- --- --- ------ -------- ----- --- ------ ----- --<br>----- ----- ---------- --- --- ------ ------ ---- -- ------<br>------- --- ------ ----- --- ---- ------- -- ---- --- --<br>------- ------,198916.10000002384,198914.29999995232,198733.478,198740.69999992847,198750.098,198933.413,,2,time
screen,html.Screen,2_1_1_1_3,2022-02-21T10:49:22.247Z,,,,,,,,,,,,,,,,,54,,,,,,,,,,,,,,156.98699997615768,,response,,,,100,,,,,,,Space,keypress(Space),,,,,,,,-- --- ---- the ------ ----- ------- ---- -- --- ------- --<br>------- ---------- ------ -- ----- -- ----- -- ---- ------<br>--- ----- --- --- ------ -------- ----- --- ------ ----- --<br>----- ----- ---------- --- --- ------ ------ ---- -- ------<br>------- --- ------ ----- --- ---- ------- -- ---- --- --<br>------- ------,199091.69999992847,199090.39999997616,198916.816,198916.39999997616,198933.413,199100.019,,3,the
screen,html.Screen,2_1_1_1_4,2022-02-21T10:49:22.738Z,,,,,,,,,,,,,,,,,54,,,,,,,,,,,,,,481.6809999284742,,response,,,,100,,,,,,,Space,keypress(Space),,,,,,,,-- --- ---- --- French ----- ------- ---- -- --- ------- --<br>------- ---------- ------ -- ----- -- ----- -- ---- ------<br>--- ----- --- --- ------ -------- ----- --- ------ ----- --<br>----- ----- ---------- --- --- ------ ------ ---- -- ------<br>------- --- ------ ----- --- ---- ------- -- ---- --- --<br>------- ------,199583.29999995232,199581.69999992847,199083.44,199092,199100.019,199600.065,,4,French
screen,html.Screen,2_1_1_1_5,2022-02-21T10:49:23.055Z,,,,,,,,,,,,,,,,,54,,,,,,,,,,,,,,298.53500002383953,,response,,,,100,,,,,,,Space,keypress(Space),,,,,,,,-- --- ---- --- ------ crown ------- ---- -- --- ------- --<br>------- ---------- ------ -- ----- -- ----- -- ---- ------<br>--- ----- --- --- ------ -------- ----- --- ------ ----- --<br>----- ----- ---------- --- --- ------ ------ ---- -- ------<br>------- --- ------ ----- --- ---- ------- -- ---- --- --<br>------- ------,199900.19999992847,199898.60000002384,199583.383,199583.79999995232,199600.065,199916.789,,5,crown
screen,html.Screen,2_1_1_1_6,2022-02-21T10:49:23.335Z,,,,,,,,,,,,,,,,,54,,,,,,,,,,,,,,261.01099995232653,,response,,,,100,,,,,,,Space,keypress(Space),,,,,,,,-- --- ---- --- ------ ----- secured ---- -- --- ------- --<br>------- ---------- ------ -- ----- -- ----- -- ---- ------<br>--- ----- --- --- ------ -------- ----- --- ------ ----- --<br>----- ----- ---------- --- --- ------ ------ ---- -- ------<br>------- --- ------ ----- --- ---- ------- -- ---- --- --<br>------- ------,200179.69999992847,200177.79999995232,199900.014,199900.5,199916.789,200183.314,,6,secured
screen,html.Screen,2_1_1_1_7,2022-02-21T10:49:23.864Z,,,,,,,,,,,,,,,,,54,,,,,,,,,,,,,,523.7860000238288,,response,,,,100,,,,,,,Space,keypress(Space),,,,,,,,-- --- ---- --- ------ ----- ------- much -- --- ------- --<br>------- ---------- ------ -- ----- -- ----- -- ---- ------<br>--- ----- --- --- ------ -------- ----- --- ------ ----- --<br>----- ----- ---------- --- --- ------ ------ ---- -- ------<br>------- --- ------ ----- --- ---- ------- -- ---- --- --<br>------- ------,200708.89999997616,200707.10000002384,200166.745,200180,200183.314,200716.653,,7,much
screen,html.Screen,2_1_1_1_8,2022-02-21T10:49:24.380Z,,,,,,,,,,,,,,,,,54,,,,,,,,,,,,,,506.64699995232513,,response,,,,100,,,,,,,Space,keypress(Space),,,,,,,,-- --- ---- --- ------ ----- ------- ---- of --- ------- --<br>------- ---------- ------ -- ----- -- ----- -- ---- ------<br>--- ----- --- --- ------ -------- ----- --- ------ ----- --<br>----- ----- ---------- --- --- ------ ------ ---- -- ------<br>------- --- ------ ----- --- ---- ------- -- ---- --- --<br>------- ------,201225.39999997616,201223.29999995232,200699.986,200709.29999995232,200716.653,201233.239,,8,of
screen,html.Screen,2_1_1_1_9,2022-02-21T10:49:24.655Z,,,,,,,,,,,,,,,,,54,,,,,,,,,,,,,,265.0609999523149,,response,,,,100,,,,,,,Space,keypress(Space),,,,,,,,-- --- ---- --- ------ ----- ------- ---- -- its ------- --<br>------- ---------- ------ -- ----- -- ----- -- ---- ------<br>--- ----- --- --- ------ -------- ----- --- ------ ----- --<br>----- ----- ---------- --- --- ------ ------ ---- -- ------<br>------- --- ------ ----- --- ---- ------- -- ---- --- --<br>------- ------,201500.10000002384,201498.29999995232,201216.542,201225.69999992847,201233.239,201516.654,,9,its
screen,html.Screen,2_1_1_1_10,2022-02-21T10:49:24.989Z,,,,,,,,,,,,,,,,,54,,,,,,,,,,,,,,315.14599995230674,,response,,,,100,,,,,,,Space,keypress(Space),,,,,,,,-- --- ---- --- ------ ----- ------- ---- -- --- revenue --<br>------- ---------- ------ -- ----- -- ----- -- ---- ------<br>--- ----- --- --- ------ -------- ----- --- ------ ----- --<br>----- ----- ---------- --- --- ------ ------ ---- -- ------<br>------- --- ------ ----- --- ---- ------- -- ---- --- --<br>------- ------,201833.60000002384,201831.79999995232,201499.964,201500.60000002384,201516.654,201849.942,,10,revenue
screen,html.Screen,2_1_1_1_11,2022-02-21T10:49:25.323Z,,,,,,,,,,,,,,,,,54,,,,,,,,,,,,,,316.05799999999,,response,,,,100,,,,,,,Space,keypress(Space),,,,,,,,-- --- ---- --- ------ ----- ------- ---- -- --- ------- by<br>------- ---------- ------ -- ----- -- ----- -- ---- ------<br>--- ----- --- --- ------ -------- ----- --- ------ ----- --<br>----- ----- ---------- --- --- ------ ------ ---- -- ------<br>------- --- ------ ----- --- ---- ------- -- ---- --- --<br>------- ------,202168.19999992847,202166,201833.231,201834.10000002384,201849.942,202183.255,,11,by
screen,html.Screen,2_1_1_1_12,2022-02-21T10:49:25.670Z,,,,,,,,,,,,,,,,,54,,,,,,,,,,,,,,329.6449999761535,,response,,,,100,,,,,,,Space,keypress(Space),,,,,,,,-- --- ---- --- ------ ----- ------- ---- -- --- ------- --<br>issuing ---------- ------ -- ----- -- ----- -- ---- ------<br>--- ----- --- --- ------ -------- ----- --- ------ ----- --<br>----- ----- ---------- --- --- ------ ------ ---- -- ------<br>------- --- ------ ----- --- ---- ------- -- ---- --- --<br>------- ------,202514.69999992847,202512.89999997616,202166.524,202168.79999995232,202183.255,202549.917,,12,issuing
screen,html.Screen,2_1_1_1_13,2022-02-21T10:49:26.091Z,,,,,,,,,,,,,,,,,54,,,,,,,,,,,,,,381.9829999761714,,response,,,,100,,,,,,,Space,keypress(Space),,,,,,,,-- --- ---- --- ------ ----- ------- ---- -- --- ------- --<br>------- government ------ -- ----- -- ----- -- ---- ------<br>--- ----- --- --- ------ -------- ----- --- ------ ----- --<br>----- ----- ---------- --- --- ------ ------ ---- -- ------<br>------- --- ------ ----- --- ---- ------- -- ---- --- --<br>------- ------,202935.89999997616,202931.89999997616,202533.21,202515.10000002384,202549.917,202949.877,,13,government
screen,html.Screen,2_1_1_1_14,2022-02-21T10:49:26.440Z,,,,,,,,,,,,,,,,,54,,,,,,,,,,,,,,332.9229999523086,,response,,,,100,,,,,,,Space,keypress(Space),,,,,,,,-- --- ---- --- ------ ----- ------- ---- -- --- ------- --<br>------- ---------- bonds. -- ----- -- ----- -- ---- ------<br>--- ----- --- --- ------ -------- ----- --- ------ ----- --<br>----- ----- ---------- --- --- ------ ------ ---- -- ------<br>------- --- ------ ----- --- ---- ------- -- ---- --- --<br>------- ------,203284.69999992847,203282.79999995232,202933.129,202936.5,202949.877,203299.857,,14,bonds.
screen,html.Screen,2_1_1_1_15,2022-02-21T10:49:26.910Z,,,,,,,,,,,,,,,,,54,,,,,,,,,,,,,,453.4429999523272,,response,,,,100,,,,,,,Space,keypress(Space),,,,,,,,-- --- ---- --- ------ ----- ------- ---- -- --- ------- --<br>------- ---------- ------ In ----- -- ----- -- ---- ------<br>--- ----- --- --- ------ -------- ----- --- ------ ----- --<br>----- ----- ---------- --- --- ------ ------ ---- -- ------<br>------- --- ------ ----- --- ---- ------- -- ---- --- --<br>------- ------,203755,203753.29999995232,203283.031,203285,203299.857,203766.388,,15,In
screen,html.Screen,2_1_1_1_16,2022-02-21T10:49:27.664Z,,,,,,,,,,,,,,,,,54,,,,,,,,,,,,,,740.41199995231,,response,,,,100,,,,,,,Space,keypress(Space),,,,,,,,"-- --- ---- --- ------ ----- ------- ---- -- --- ------- --<br>------- ---------- ------ -- 1727, -- ----- -- ---- ------<br>--- ----- --- --- ------ -------- ----- --- ------ ----- --<br>----- ----- ---------- --- --- ------ ------ ---- -- ------<br>------- --- ------ ----- --- ---- ------- -- ---- --- --<br>------- ------",204508.89999997616,204506.79999995232,203749.752,203755.5,203766.388,204516.346,,16,"1727,"
screen,html.Screen,2_1_1_1_17,2022-02-21T10:49:28.420Z,,,,,,,,,,,,,,,,,54,,,,,,,,,,,,,,747.6540000000095,,response,,,,100,,,,,,,Space,keypress(Space),,,,,,,,-- --- ---- --- ------ ----- ------- ---- -- --- ------- --<br>------- ---------- ------ -- ----- in ----- -- ---- ------<br>--- ----- --- --- ------ -------- ----- --- ------ ----- --<br>----- ----- ---------- --- --- ------ ------ ---- -- ------<br>------- --- ------ ----- --- ---- ------- -- ---- --- --<br>------- ------,205265.5,205264,204499.69,204509.29999995232,204516.346,205283.019,,17,in
screen,html.Screen,2_1_1_1_18,2022-02-21T10:49:28.909Z,,,,,,,,,,,,,,,,,54,,,,,,,,,,,,,,469.8809999761579,,response,,,,100,,,,,,,Space,keypress(Space),,,,,,,,-- --- ---- --- ------ ----- ------- ---- -- --- ------- --<br>------- ---------- ------ -- ----- -- order -- ---- ------<br>--- ----- --- --- ------ -------- ----- --- ------ ----- --<br>----- ----- ---------- --- --- ------ ------ ---- -- ------<br>------- --- ------ ----- --- ---- ------- -- ---- --- --<br>------- ------,205754,205752.89999997616,205266.292,205265.79999995232,205283.019,205766.232,,18,order
screen,html.Screen,2_1_1_1_19,2022-02-21T10:49:29.295Z,,,,,,,,,,,,,,,,,54,,,,,,,,,,,,,,371.96799992848537,,response,,,,100,,,,,,,Space,keypress(Space),,,,,,,,-- --- ---- --- ------ ----- ------- ---- -- --- ------- --<br>------- ---------- ------ -- ----- -- ----- to ---- ------<br>--- ----- --- --- ------ -------- ----- --- ------ ----- --<br>----- ----- ---------- --- --- ------ ------ ---- -- ------<br>------- --- ------ ----- --- ---- ------- -- ---- --- --<br>------- ------,206140,206138.19999992847,205749.606,205754.19999992847,205766.232,206149.579,,19,to
screen,html.Screen,2_1_1_1_20,2022-02-21T10:49:29.662Z,,,,,,,,,,,,,,,,,54,,,,,,,,,,,,,,355.52100002384395,,response,,,,100,,,,,,,Space,keypress(Space),,,,,,,,-- --- ---- --- ------ ----- ------- ---- -- --- ------- --<br>------- ---------- ------ -- ----- -- ----- -- save ------<br>--- ----- --- --- ------ -------- ----- --- ------ ----- --<br>----- ----- ---------- --- --- ------ ------ ---- -- ------<br>------- --- ------ ----- --- ---- ------- -- ---- --- --<br>------- ------,206506.79999995232,206505.10000002384,206132.91,206140.29999995232,206149.579,206516.199,,20,save
screen,html.Screen,2_1_1_1_21,2022-02-21T10:49:29.970Z,,,,,,,,,,,,,,,,,54,,,,,,,,,,,,,,298.4010000238486,,response,,,,100,,,,,,,Space,keypress(Space),,,,,,,,"-- --- ---- --- ------ ----- ------- ---- -- --- ------- --<br>------- ---------- ------ -- ----- -- ----- -- ---- money,<br>--- ----- --- --- ------ -------- ----- --- ------ ----- --<br>----- ----- ---------- --- --- ------ ------ ---- -- ------<br>------- --- ------ ----- --- ---- ------- -- ---- --- --<br>------- ------",206815.10000002384,206814.60000002384,206499.558,206507.10000002384,206516.199,206833.847,,21,"money,"
screen,html.Screen,2_1_1_1_22,2022-02-21T10:49:30.355Z,,,,,,,,,,,,,,,,,54,,,,,,,,,,,,,,365.3529999284656,,response,,,,100,,,,,,,Space,keypress(Space),,,,,,,,-- --- ---- --- ------ ----- ------- ---- -- --- ------- --<br>------- ---------- ------ -- ----- -- ----- -- ---- ------<br>the ----- --- --- ------ -------- ----- --- ------ ----- --<br>----- ----- ---------- --- --- ------ ------ ---- -- ------<br>------- --- ------ ----- --- ---- ------- -- ---- --- --<br>------- ------,207200.19999992847,207199.19999992847,206799.403,206815.19999992847,206833.847,207216.106,,22,the
screen,html.Screen,2_1_1_1_23,2022-02-21T10:49:30.634Z,,,,,,,,,,,,,,,,,54,,,,,,,,,,,,,,262.6939999523165,,response,,,,100,,,,,,,Space,keypress(Space),,,,,,,,-- --- ---- --- ------ ----- ------- ---- -- --- ------- --<br>------- ---------- ------ -- ----- -- ----- -- ---- ------<br>--- state --- --- ------ -------- ----- --- ------ ----- --<br>----- ----- ---------- --- --- ------ ------ ---- -- ------<br>------- --- ------ ----- --- ---- ------- -- ---- --- --<br>------- ------,207479.39999997616,207478.79999995232,207199.377,207200.29999995232,207216.106,207482.66,,23,state
screen,html.Screen,2_1_1_1_24,2022-02-21T10:49:30.904Z,,,,,,,,,,,,,,,,,54,,,,,,,,,,,,,,265.1399999523128,,response,,,,100,,,,,,,Space,keypress(Space),,,,,,,,-- --- ---- --- ------ ----- ------- ---- -- --- ------- --<br>------- ---------- ------ -- ----- -- ----- -- ---- ------<br>--- ----- cut --- ------ -------- ----- --- ------ ----- --<br>----- ----- ---------- --- --- ------ ------ ---- -- ------<br>------- --- ------ ----- --- ---- ------- -- ---- --- --<br>------- ------,207749.19999992847,207747.79999995232,207466.096,207479.5,207482.66,207766.122,,24,cut
screen,html.Screen,2_1_1_1_25,2022-02-21T10:49:31.251Z,,,,,,,,,,,,,,,,,54,,,,,,,,,,,,,,328.0779999284714,,response,,,,100,,,,,,,Space,keypress(Space),,,,,,,,-- --- ---- --- ------ ----- ------- ---- -- --- ------- --<br>------- ---------- ------ -- ----- -- ----- -- ---- ------<br>--- ----- --- the ------ -------- ----- --- ------ ----- --<br>----- ----- ---------- --- --- ------ ------ ---- -- ------<br>------- --- ------ ----- --- ---- ------- -- ---- --- --<br>------- ------,208096,208094.19999992847,207749.327,207749.60000002384,207766.122,208099.412,,25,the
screen,html.Screen,2_1_1_1_26,2022-02-21T10:49:31.531Z,,,,,,,,,,,,,,,,,54,,,,,,,,,,,,,,275.3879999523051,,response,,,,100,,,,,,,Space,keypress(Space),,,,,,,,-- --- ---- --- ------ ----- ------- ---- -- --- ------- --<br>------- ---------- ------ -- ----- -- ----- -- ---- ------<br>--- ----- --- --- bonds' -------- ----- --- ------ ----- --<br>----- ----- ---------- --- --- ------ ------ ---- -- ------<br>------- --- ------ ----- --- ---- ------- -- ---- --- --<br>------- ------,208376.39999997616,208374.79999995232,208082.738,208096.29999995232,208099.412,208382.715,,26,bonds'
screen,html.Screen,2_1_1_1_27,2022-02-21T10:49:31.907Z,,,,,,,,,,,,,,,,,54,,,,,,,,,,,,,,367.4849999284779,,response,,,,100,,,,,,,Space,keypress(Space),,,,,,,,-- --- ---- --- ------ ----- ------- ---- -- --- ------- --<br>------- ---------- ------ -- ----- -- ----- -- ---- ------<br>--- ----- --- --- ------ interest ----- --- ------ ----- --<br>----- ----- ---------- --- --- ------ ------ ---- -- ------<br>------- --- ------ ----- --- ---- ------- -- ---- --- --<br>------- ------,208752.5,208750.19999992847,208366.046,208376.69999992847,208382.715,208766.044,,27,interest
screen,html.Screen,2_1_1_1_28,2022-02-21T10:49:32.240Z,,,,,,,,,,,,,,,,,54,,,,,,,,,,,,,,316.85599997616373,,response,,,,100,,,,,,,Space,keypress(Space),,,,,,,,-- --- ---- --- ------ ----- ------- ---- -- --- ------- --<br>------- ---------- ------ -- ----- -- ----- -- ---- ------<br>--- ----- --- --- ------ -------- rate. --- ------ ----- --<br>----- ----- ---------- --- --- ------ ------ ---- -- ------<br>------- --- ------ ----- --- ---- ------- -- ---- --- --<br>------- ------,209085.10000002384,209082.89999997616,208749.392,208753.10000002384,208766.044,209099.296,,28,rate.
screen,html.Screen,2_1_1_1_29,2022-02-21T10:49:32.605Z,,,,,,,,,,,,,,,,,54,,,,,,,,,,,,,,348.0039999523142,,response,,,,100,,,,,,,Space,keypress(Space),,,,,,,,-- --- ---- --- ------ ----- ------- ---- -- --- ------- --<br>------- ---------- ------ -- ----- -- ----- -- ---- ------<br>--- ----- --- --- ------ -------- ----- The ------ ----- --<br>----- ----- ---------- --- --- ------ ------ ---- -- ------<br>------- --- ------ ----- --- ---- ------- -- ---- --- --<br>------- ------,209449.89999997616,209447.29999995232,209082.686,209085.60000002384,209099.296,209466.059,,29,The
screen,html.Screen,2_1_1_1_30,2022-02-21T10:49:33.375Z,,,,,,,,,,,,,,,,,54,,,,,,,,,,,,,,751.9409999999916,,response,,,,100,,,,,,,Space,keypress(Space),,,,,,,,-- --- ---- --- ------ ----- ------- ---- -- --- ------- --<br>------- ---------- ------ -- ----- -- ----- -- ---- ------<br>--- ----- --- --- ------ -------- ----- --- market ----- --<br>----- ----- ---------- --- --- ------ ------ ---- -- ------<br>------- --- ------ ----- --- ---- ------- -- ---- --- --<br>------- ------,210220.10000002384,210218,209449.188,209450.5,209466.059,210232.71,,30,market
screen,html.Screen,2_1_1_1_31,2022-02-21T10:49:34.119Z,,,,,,,,,,,,,,,,,54,,,,,,,,,,,,,,729.7900000000081,,response,,,,100,,,,,,,Space,keypress(Space),,,,,,,,-- --- ---- --- ------ ----- ------- ---- -- --- ------- --<br>------- ---------- ------ -- ----- -- ----- -- ---- ------<br>--- ----- --- --- ------ -------- ----- --- ------ value --<br>----- ----- ---------- --- --- ------ ------ ---- -- ------<br>------- --- ------ ----- --- ---- ------- -- ---- --- --<br>------- ------,210964.39999997616,210962.5,210215.939,210220.60000002384,210232.71,210999.215,,31,value
screen,html.Screen,2_1_1_1_32,2022-02-21T10:49:34.619Z,,,,,,,,,,,,,,,,,54,,,,,,,,,,,,,,463.4849999284779,,response,,,,100,,,,,,,Space,keypress(Space),,,,,,,,-- --- ---- --- ------ ----- ------- ---- -- --- ------- --<br>------- ---------- ------ -- ----- -- ----- -- ---- ------<br>--- ----- --- --- ------ -------- ----- --- ------ ----- of<br>----- ----- ---------- --- --- ------ ------ ---- -- ------<br>------- --- ------ ----- --- ---- ------- -- ---- --- --<br>------- ------,211463.89999997616,211462.69999992847,210982.551,210964.79999995232,210999.215,211465.759,,32,of
screen,html.Screen,2_1_1_1_33,2022-02-21T10:49:35.015Z,,,,,,,,,,,,,,,,,54,,,,,,,,,,,,,,392.6409999761672,,response,,,,100,,,,,,,Space,keypress(Space),,,,,,,,-- --- ---- --- ------ ----- ------- ---- -- --- ------- --<br>------- ---------- ------ -- ----- -- ----- -- ---- ------<br>--- ----- --- --- ------ -------- ----- --- ------ ----- --<br>these ----- ---------- --- --- ------ ------ ---- -- ------<br>------- --- ------ ----- --- ---- ------- -- ---- --- --<br>------- ------,211860.29999995232,211858.39999997616,211449.171,211464.10000002384,211465.759,211865.824,,33,these
screen,html.Screen,2_1_1_1_34,2022-02-21T10:49:35.332Z,,,,,,,,,,,,,,,,,54,,,,,,,,,,,,,,309.3759999284812,,response,,,,100,,,,,,,Space,keypress(Space),,,,,,,,-- --- ---- --- ------ ----- ------- ---- -- --- ------- --<br>------- ---------- ------ -- ----- -- ----- -- ---- ------<br>--- ----- --- --- ------ -------- ----- --- ------ ----- --<br>----- bonds ---------- --- --- ------ ------ ---- -- ------<br>------- --- ------ ----- --- ---- ------- -- ---- --- --<br>------- ------,212177.19999992847,212175.19999992847,211849.085,211860.69999992847,211865.824,212182.492,,34,bonds
screen,html.Screen,2_1_1_1_35,2022-02-21T10:49:35.640Z,,,,,,,,,,,,,,,,,54,,,,,,,,,,,,,,301.1080000238435,,response,,,,100,,,,,,,Space,keypress(Space),,,,,,,,"-- --- ---- --- ------ ----- ------- ---- -- --- ------- --<br>------- ---------- ------ -- ----- -- ----- -- ---- ------<br>--- ----- --- --- ------ -------- ----- --- ------ ----- --<br>----- ----- plummeted, --- --- ------ ------ ---- -- ------<br>------- --- ------ ----- --- ---- ------- -- ---- --- --<br>------- ------",212485.19999992847,212483.60000002384,212165.797,212177.69999992847,212182.492,212499.168,,35,"plummeted,"
screen,html.Screen,2_1_1_1_36,2022-02-21T10:49:35.979Z,,,,,,,,,,,,,,,,,54,,,,,,,,,,,,,,323.43200002383674,,response,,,,100,,,,,,,Space,keypress(Space),,,,,,,,-- --- ---- --- ------ ----- ------- ---- -- --- ------- --<br>------- ---------- ------ -- ----- -- ----- -- ---- ------<br>--- ----- --- --- ------ -------- ----- --- ------ ----- --<br>----- ----- ---------- and --- ------ ------ ---- -- ------<br>------- --- ------ ----- --- ---- ------- -- ---- --- --<br>------- ------,212824.39999997616,212822.60000002384,212482.449,212485.60000002384,212499.168,212832.416,,36,and
screen,html.Screen,2_1_1_1_37,2022-02-21T10:49:36.364Z,,,,,,,,,,,,,,,,,54,,,,,,,,,,,,,,376.1840000238444,,response,,,,100,,,,,,,Space,keypress(Space),,,,,,,,-- --- ---- --- ------ ----- ------- ---- -- --- ------- --<br>------- ---------- ------ -- ----- -- ----- -- ---- ------<br>--- ----- --- --- ------ -------- ----- --- ------ ----- --<br>----- ----- ---------- --- the ------ ------ ---- -- ------<br>------- --- ------ ----- --- ---- ------- -- ---- --- --<br>------- ------,213209.60000002384,213208.60000002384,212815.74,212824.89999997616,212832.416,213215.649,,37,the
screen,html.Screen,2_1_1_1_38,2022-02-21T10:49:36.740Z,,,,,,,,,,,,,,,,,54,,,,,,,,,,,,,,368.05099992846954,,response,,,,100,,,,,,,Space,keypress(Space),,,,,,,,-- --- ---- --- ------ ----- ------- ---- -- --- ------- --<br>------- ---------- ------ -- ----- -- ----- -- ---- ------<br>--- ----- --- --- ------ -------- ----- --- ------ ----- --<br>----- ----- ---------- --- --- market ------ ---- -- ------<br>------- --- ------ ----- --- ---- ------- -- ---- --- --<br>------- ------,213585.5,213583.69999992847,213199.065,213209.79999995232,213215.649,213599.094,,38,market
screen,html.Screen,2_1_1_1_39,2022-02-21T10:49:37.051Z,,,,,,,,,,,,,,,,,54,,,,,,,,,,,,,,294.80599997614627,,response,,,,100,,,,,,,Space,keypress(Space),,,,,,,,-- --- ---- --- ------ ----- ------- ---- -- --- ------- --<br>------- ---------- ------ -- ----- -- ----- -- ---- ------<br>--- ----- --- --- ------ -------- ----- --- ------ ----- --<br>----- ----- ---------- --- --- ------ became ---- -- ------<br>------- --- ------ ----- --- ---- ------- -- ---- --- --<br>------- ------,213895.69999992847,213893.89999997616,213582.3,213585.89999997616,213599.094,213898.942,,39,became
screen,html.Screen,2_1_1_1_40,2022-02-21T10:49:37.343Z,,,,,,,,,,,,,,,,,54,,,,,,,,,,,,,,287.65800002383185,,response,,,,100,,,,,,,Space,keypress(Space),,,,,,,,-- --- ---- --- ------ ----- ------- ---- -- --- ------- --<br>------- ---------- ------ -- ----- -- ----- -- ---- ------<br>--- ----- --- --- ------ -------- ----- --- ------ ----- --<br>----- ----- ---------- --- --- ------ ------ wary -- ------<br>------- --- ------ ----- --- ---- ------- -- ---- --- --<br>------- ------,214188.60000002384,214186.60000002384,213882.388,213896.19999992847,213898.942,214199.036,,40,wary
screen,html.Screen,2_1_1_1_41,2022-02-21T10:49:37.808Z,,,,,,,,,,,,,,,,,54,,,,,,,,,,,,,,452.2639999523235,,response,,,,100,,,,,,,Space,keypress(Space),,,,,,,,-- --- ---- --- ------ ----- ------- ---- -- --- ------- --<br>------- ---------- ------ -- ----- -- ----- -- ---- ------<br>--- ----- --- --- ------ -------- ----- --- ------ ----- --<br>----- ----- ---------- --- --- ------ ------ ---- of ------<br>------- --- ------ ----- --- ---- ------- -- ---- --- --<br>------- ------,214652.79999995232,214651.29999995232,214182.33,214188.79999995232,214199.036,214665.734,,41,of
screen,html.Screen,2_1_1_1_42,2022-02-21T10:49:38.399Z,,,,,,,,,,,,,,,,,54,,,,,,,,,,,,,,577.1659999761614,,response,,,,100,,,,,,,Space,keypress(Space),,,,,,,,-- --- ---- --- ------ ----- ------- ---- -- --- ------- --<br>------- ---------- ------ -- ----- -- ----- -- ---- ------<br>--- ----- --- --- ------ -------- ----- --- ------ ----- --<br>----- ----- ---------- --- --- ------ ------ ---- -- French<br>------- --- ------ ----- --- ---- ------- -- ---- --- --<br>------- ------,215244.39999997616,215242.89999997616,214648.994,214653.19999992847,214665.734,215248.903,,42,French
screen,html.Screen,2_1_1_1_43,2022-02-21T10:49:38.854Z,,,,,,,,,,,,,,,,,54,,,,,,,,,,,,,,447.89699995232513,,response,,,,100,,,,,,,Space,keypress(Space),,,,,,,,-- --- ---- --- ------ ----- ------- ---- -- --- ------- --<br>------- ---------- ------ -- ----- -- ----- -- ---- ------<br>--- ----- --- --- ------ -------- ----- --- ------ ----- --<br>----- ----- ---------- --- --- ------ ------ ---- -- ------<br>credit. --- ------ ----- --- ---- ------- -- ---- --- --<br>------- ------,215698.60000002384,215696.79999995232,215232.239,215244.79999995232,215248.903,215715.657,,43,credit.
screen,html.Screen,2_1_1_1_44,2022-02-21T10:49:39.351Z,,,,,,,,,,,,,,,,,54,,,,,,,,,,,,,,478.64299995230976,,response,,,,100,,,,,,,Space,keypress(Space),,,,,,,,-- --- ---- --- ------ ----- ------- ---- -- --- ------- --<br>------- ---------- ------ -- ----- -- ----- -- ---- ------<br>--- ----- --- --- ------ -------- ----- --- ------ ----- --<br>----- ----- ---------- --- --- ------ ------ ---- -- ------<br>------- The ------ ----- --- ---- ------- -- ---- --- --<br>------- ------,216195.79999995232,216194.29999995232,215698.879,215699.19999992847,215715.657,216198.773,,44,The
screen,html.Screen,2_1_1_1_45,2022-02-21T10:49:39.750Z,,,,,,,,,,,,,,,,,54,,,,,,,,,,,,,,394.2270000000135,,response,,,,100,,,,,,,Space,keypress(Space),,,,,,,,-- --- ---- --- ------ ----- ------- ---- -- --- ------- --<br>------- ---------- ------ -- ----- -- ----- -- ---- ------<br>--- ----- --- --- ------ -------- ----- --- ------ ----- --<br>----- ----- ---------- --- --- ------ ------ ---- -- ------<br>------- --- French ----- --- ---- ------- -- ---- --- --<br>------- ------,216595.10000002384,216593,216182.176,216196.10000002384,216198.773,216598.836,,45,French
screen,html.Screen,2_1_1_1_46,2022-02-21T10:49:40.052Z,,,,,,,,,,,,,,,,,54,,,,,,,,,,,,,,296.2640000238316,,response,,,,100,,,,,,,Space,keypress(Space),,,,,,,,-- --- ---- --- ------ ----- ------- ---- -- --- ------- --<br>------- ---------- ------ -- ----- -- ----- -- ---- ------<br>--- ----- --- --- ------ -------- ----- --- ------ ----- --<br>----- ----- ---------- --- --- ------ ------ ---- -- ------<br>------- --- ------ state --- ---- ------- -- ---- --- --<br>------- ------,216897.19999992847,216895.10000002384,216582.152,216595.39999997616,216598.836,216926.333,,46,state
screen,html.Screen,2_1_1_1_47,2022-02-21T10:49:40.417Z,,,,,,,,,,,,,,,,,54,,,,,,,,,,,,,,334.2670000238286,,response,,,,100,,,,,,,Space,keypress(Space),,,,,,,,-- --- ---- --- ------ ----- ------- ---- -- --- ------- --<br>------- ---------- ------ -- ----- -- ----- -- ---- ------<br>--- ----- --- --- ------ -------- ----- --- ------ ----- --<br>----- ----- ---------- --- --- ------ ------ ---- -- ------<br>------- --- ------ ----- was ---- ------- -- ---- --- --<br>------- ------,217262.19999992847,217260.60000002384,216882.114,216897.60000002384,216926.333,217265.417,,47,was
screen,html.Screen,2_1_1_1_48,2022-02-21T10:49:40.771Z,,,,,,,,,,,,,,,,,54,,,,,,,,,,,,,,348.7829999284877,,response,,,,100,,,,,,,Space,keypress(Space),,,,,,,,-- --- ---- --- ------ ----- ------- ---- -- --- ------- --<br>------- ---------- ------ -- ----- -- ----- -- ---- ------<br>--- ----- --- --- ------ -------- ----- --- ------ ----- --<br>----- ----- ---------- --- --- ------ ------ ---- -- ------<br>------- --- ------ ----- --- left ------- -- ---- --- --<br>------- ------,217616.19999992847,217614.19999992847,217248.738,217262.5,217265.417,217632.149,,48,left
screen,html.Screen,2_1_1_1_49,2022-02-21T10:49:41.108Z,,,,,,,,,,,,,,,,,54,,,,,,,,,,,,,,319.25099997615325,,response,,,,100,,,,,,,Space,keypress(Space),,,,,,,,-- --- ---- --- ------ ----- ------- ---- -- --- ------- --<br>------- ---------- ------ -- ----- -- ----- -- ---- ------<br>--- ----- --- --- ------ -------- ----- --- ------ ----- --<br>----- ----- ---------- --- --- ------ ------ ---- -- ------<br>------- --- ------ ----- --- ---- without -- ---- --- --<br>------- ------,217953.19999992847,217951.39999997616,217615.444,217616.69999992847,217632.149,217965.437,,49,without
screen,html.Screen,2_1_1_1_50,2022-02-21T10:49:41.423Z,,,,,,,,,,,,,,,,,54,,,,,,,,,,,,,,300.26299992846907,,response,,,,100,,,,,,,Space,keypress(Space),,,,,,,,-- --- ---- --- ------ ----- ------- ---- -- --- ------- --<br>------- ---------- ------ -- ----- -- ----- -- ---- ------<br>--- ----- --- --- ------ -------- ----- --- ------ ----- --<br>----- ----- ---------- --- --- ------ ------ ---- -- ------<br>------- --- ------ ----- --- ---- ------- an ---- --- --<br>------- ------,218267.79999995232,218265.69999992847,217948.658,217953.5,217965.437,218282.087,,50,an
screen,html.Screen,2_1_1_1_51,2022-02-21T10:49:41.708Z,,,,,,,,,,,,,,,,,54,,,,,,,,,,,,,,269.3129999761586,,response,,,,100,,,,,,,Space,keypress(Space),,,,,,,,-- --- ---- --- ------ ----- ------- ---- -- --- ------- --<br>------- ---------- ------ -- ----- -- ----- -- ---- ------<br>--- ----- --- --- ------ -------- ----- --- ------ ----- --<br>----- ----- ---------- --- --- ------ ------ ---- -- ------<br>------- --- ------ ----- --- ---- ------- -- easy --- --<br>------- ------,218553.29999995232,218551.39999997616,218265.356,218268.39999997616,218282.087,218565.41,,51,easy
screen,html.Screen,2_1_1_1_52,2022-02-21T10:49:42.060Z,,,,,,,,,,,,,,,,,54,,,,,,,,,,,,,,338.28999992847093,,response,,,,100,,,,,,,Space,keypress(Space),,,,,,,,-- --- ---- --- ------ ----- ------- ---- -- --- ------- --<br>------- ---------- ------ -- ----- -- ----- -- ---- ------<br>--- ----- --- --- ------ -------- ----- --- ------ ----- --<br>----- ----- ---------- --- --- ------ ------ ---- -- ------<br>------- --- ------ ----- --- ---- ------- -- ---- way --<br>------- ------,218905.39999997616,218903.69999992847,218548.597,218553.79999995232,218565.41,218915.408,,52,way
screen,html.Screen,2_1_1_1_53,2022-02-21T10:49:42.455Z,,,,,,,,,,,,,,,,,54,,,,,,,,,,,,,,382.99199997616233,,response,,,,100,,,,,,,Space,keypress(Space),,,,,,,,-- --- ---- --- ------ ----- ------- ---- -- --- ------- --<br>------- ---------- ------ -- ----- -- ----- -- ---- ------<br>--- ----- --- --- ------ -------- ----- --- ------ ----- --<br>----- ----- ---------- --- --- ------ ------ ---- -- ------<br>------- --- ------ ----- --- ---- ------- -- ---- --- of<br>------- ------,219300.29999995232,219298.39999997616,218898.585,218905.79999995232,218915.408,219315.334,,53,of
screen,html.Screen,2_1_1_1_54,2022-02-21T10:49:42.866Z,,,,,,,,,,,,,,,,,54,,,,,,,,,,,,,,394.7660000238393,,response,,,,100,,,,,,,Space,keypress(Space),,,,,,,,-- --- ---- --- ------ ----- ------- ---- -- --- ------- --<br>------- ---------- ------ -- ----- -- ----- -- ---- ------<br>--- ----- --- --- ------ -------- ----- --- ------ ----- --<br>----- ----- ---------- --- --- ------ ------ ---- -- ------<br>------- --- ------ ----- --- ---- ------- -- ---- --- --<br>raising ------,219711.5,219710.10000002384,219298.641,219300.60000002384,219315.334,219715.201,,54,raising
screen,html.Screen,2_1_1_1_55,2022-02-21T10:49:43.998Z,,,,,,,,,,,,,,,,,54,,,,,,,,,,,,,,1125.899000023841,,response,,,,100,,,,,,,Space,keypress(Space),,,,,,,,-- --- ---- --- ------ ----- ------- ---- -- --- ------- --<br>------- ---------- ------ -- ----- -- ----- -- ---- ------<br>--- ----- --- --- ------ -------- ----- --- ------ ----- --<br>----- ----- ---------- --- --- ------ ------ ---- -- ------<br>------- --- ------ ----- --- ---- ------- -- ---- --- --<br>------- money.,220843.19999992847,220841.10000002384,219698.588,219711.79999995232,219715.201,220848.435,,55,money.
Item 100,flow.Loop,2_1_1_1,2022-02-21T10:49:43.999Z,,,,,,,,,,,,,,,,,,,,,,,,,,,,,,,22890.89100002384,,completion,,,,,B,,,,,,,,,,,silence,,,,,220843.89999997616,220841.10000002384,197933.499,197935.89999997616,197950.209,220848.435,,,
Question 1,html.Screen,2_1_1_2,2022-02-21T10:49:47.711Z,,,,,,,,,,,,,,,,,,,,,,,,,,,,true,TRUE,,3706.5650000000023,,response,,,,100,B,,,,,,TRUE,click #choice-1,,,,silence,,,,,224555.60000002384,224555,220831.817,220844.19999992847,220848.435,224564.818,,,
Question 2,html.Screen,2_1_1_3,2022-02-21T10:49:49.705Z,,,,,,,,,,,,,,,,,,,,,,,,,,,,true,FALSE,,1984.8819999284751,,response,,,,100,B,,,,,,FALSE,click #choice-2,,,,silence,,,,,226550.19999992847,226549.69999992847,224548.165,224555.69999992847,224564.818,226564.67,,,
Item 100,flow.Sequence,2_1_1,2022-02-21T10:49:49.705Z,,,,,,,,,,,,,,,,,,,,,,,,,,,,,,,38598.89499992848,,completion,,,,,,,,,,,,,,,,,,,,,226550.29999995232,226549.69999992847,187934.153,187919.19999992847,187950.805,226564.67,,,
End of Practice,html.Page,2_1_2,2022-02-21T10:49:53.560Z,,,,,,,,,,,,,,,,,,,,,,,,,,,,,,,3840.329999999987,,form submission,,,,,,,,,,,,,,,,,,,,,230405.29999995232,230405,226548.028,226550.5,226564.67,230414.379,,,
Practice,flow.Sequence,2_1,2022-02-21T10:49:53.560Z,,,,,,,,,,,,,,,,,,,,,,,,,,,,,,,97150.15900000001,,completion,,,,,,,,,,,,,,,,,,,,,230405.39999997616,230405,133238.144,133246.19999992847,133254.841,230414.379,,,
Trap_instruction,html.Page,2_2_0,2022-02-21T10:49:57.327Z,,,,,,,,,,,,,,,,,,,,,,,,,,,,,,,3757.92099995233,,form submission,,,,,,,,,,,,,,,,,,,,,234172.39999997616,234172.29999995232,230397.783,230405.5,230414.379,234330.704,,,
trap_trial,html.Screen,2_2_1,2022-02-21T10:50:01.759Z,,,,,,,,,,,,,,,,,,,,,,,,,,,,true,1,,4273.4959999284765,,response,,,,,,,,,,,1,click #choice-1,,,,,,,,,238604.69999992847,238604.19999992847,234164.049,234172.5,234330.704,238630.413,,,
end of trap trial,html.Page,2_2_2,2022-02-21T10:50:03.523Z,,,,,,,,,,,,,,,,,,,,,,,,,,,,,,,1737.8869999523158,,form submission,,,,,,,,,,,,,,,,,,,,,240368.5,240368.29999995232,238613.713,238604.79999995232,238630.413,240380.296,,,
Trap 1,flow.Sequence,2_2,2022-02-21T10:50:03.523Z,,,,,,,,,,,,,,,,,,,,,,,,,,,,,,,9953.92099995233,,completion,,,,,,,,,,,,,,,,,,,,,240368.60000002384,240368.29999995232,230397.783,230405.39999997616,230414.379,240380.296,,,
Standby,html.Page,2_3_0,2022-02-21T10:50:11.519Z,,,,,,,,,,,,,,,,,,,,,,,,,,,,,,,7999.55799999999,,timeout,,,,,,,,,,,,,,,,,,,,,248364.10000002384,248363.103,240363.65,240368.79999995232,240380.296,248379.854,,,
Holding screen,html.Screen,2_3_1_0_0,2022-02-21T10:50:18.518Z,,,,,,,,,,,,,,,,,,,,,,,,,,,,,,,6999.409000000014,,timeout,,,,,,,,,,,,,,,,,,,,,255363.5,255362.575,248363.103,248364.5,248379.854,255379.263,,,
screen,html.Screen,2_3_1_0_1_0,2022-02-21T10:50:19.360Z,,,,,,,,,,,,,,,,,15,,,,,,,,,,,,,,824.7369999999937,,response,,,,7,B,,,,,,Space,keypress(Space),,,,lyrical,,,,Greg --------- ---------- - --- ------- -- --- ------------<br>----- -- -------- ------- ---- ------ - -------- ---- -----<br>--- ------- ---- -- --- -------- --- - ----- ------ ---- --<br>-------- --- -------- -------- --- -------- ---- -- ----- -<br>-------- ---- --- ---------- --------- -- ------- ------ -<br>--------- ----- -----,256205.60000002384,256204,255362.575,255365.10000002384,255379.263,256212.483,,0,Greg
screen,html.Screen,2_3_1_0_1_1,2022-02-21T10:50:19.763Z,,,,,,,,,,,,,,,,,15,,,,,,,,,,,,,,394.01699999999255,,response,,,,7,B,,,,,,Space,keypress(Space),,,,lyrical,,,,"---- Anderson, ---------- - --- ------- -- --- ------------<br>----- -- -------- ------- ---- ------ - -------- ---- -----<br>--- ------- ---- -- --- -------- --- - ----- ------ ---- --<br>-------- --- -------- -------- --- -------- ---- -- ----- -<br>-------- ---- --- ---------- --------- -- ------- ------ -<br>--------- ----- -----",256608.10000002384,256606.5,256195.869,256206,256212.483,256612.478,,1,"Anderson,"
screen,html.Screen,2_3_1_0_1_2,2022-02-21T10:50:20.660Z,,,,,,,,,,,,,,,,,15,,,,,,,,,,,,,,892.0219999999972,,response,,,,7,B,,,,,,Space,keypress(Space),,,,lyrical,,,,---- --------- considered - --- ------- -- --- ------------<br>----- -- -------- ------- ---- ------ - -------- ---- -----<br>--- ------- ---- -- --- -------- --- - ----- ------ ---- --<br>-------- --- -------- -------- --- -------- ---- -- ----- -<br>-------- ---- --- ---------- --------- -- ------- ------ -<br>--------- ----- -----,257505.10000002384,257504.5,256595.884,256608.29999995232,256612.478,257512.41,,2,considered
screen,html.Screen,2_3_1_0_1_3,2022-02-21T10:50:20.999Z,,,,,,,,,,,,,,,,,15,,,,,,,,,,,,,,331.28999992847093,,response,,,,7,B,,,,,,Space,keypress(Space),,,,lyrical,,,,---- --------- ---------- a --- ------- -- --- ------------<br>----- -- -------- ------- ---- ------ - -------- ---- -----<br>--- ------- ---- -- --- -------- --- - ----- ------ ---- --<br>-------- --- -------- -------- --- -------- ---- -- ----- -<br>-------- ---- --- ---------- --------- -- ------- ------ -<br>--------- ----- -----,257844.29999995232,257843.69999992847,257495.724,257505.29999995232,257512.41,257869.493,,3,a
screen,html.Screen,2_3_1_0_1_4,2022-02-21T10:50:21.295Z,,,,,,,,,,,,,,,,,15,,,,,,,,,,,,,,270.1070000238542,,response,,,,7,B,,,,,,Space,keypress(Space),,,,lyrical,,,,---- --------- ---------- - key ------- -- --- ------------<br>----- -- -------- ------- ---- ------ - -------- ---- -----<br>--- ------- ---- -- --- -------- --- - ----- ------ ---- --<br>-------- --- -------- -------- --- -------- ---- -- ----- -<br>-------- ---- --- ---------- --------- -- ------- ------ -<br>--------- ----- -----,258140.10000002384,258139.60000002384,257829.052,257844.39999997616,257869.493,258145.709,,4,key
screen,html.Screen,2_3_1_0_1_5,2022-02-21T10:50:21.631Z,,,,,,,,,,,,,,,,,15,,,,,,,,,,,,,,329.79099999999744,,response,,,,7,B,,,,,,Space,keypress(Space),,,,lyrical,,,,---- --------- ---------- - --- witness -- --- ------------<br>----- -- -------- ------- ---- ------ - -------- ---- -----<br>--- ------- ---- -- --- -------- --- - ----- ------ ---- --<br>-------- --- -------- -------- --- -------- ---- -- ----- -<br>-------- ---- --- ---------- --------- -- ------- ------ -<br>--------- ----- -----,258476.10000002384,258475.5,258128.997,258140.29999995232,258145.709,258478.944,,5,witness
screen,html.Screen,2_3_1_0_1_6,2022-02-21T10:50:22.030Z,,,,,,,,,,,,,,,,,15,,,,,,,,,,,,,,395.5560000000114,,response,,,,7,B,,,,,,Space,keypress(Space),,,,lyrical,,,,---- --------- ---------- - --- ------- by --- ------------<br>----- -- -------- ------- ---- ------ - -------- ---- -----<br>--- ------- ---- -- --- -------- --- - ----- ------ ---- --<br>-------- --- -------- -------- --- -------- ---- -- ----- -<br>-------- ---- --- ---------- --------- -- ------- ------ -<br>--------- ----- -----,258875.5,258874.5,258462.327,258476.19999992847,258478.944,258878.993,,6,by
screen,html.Screen,2_3_1_0_1_7,2022-02-21T10:50:22.399Z,,,,,,,,,,,,,,,,,15,,,,,,,,,,,,,,365.1070000238542,,response,,,,7,B,,,,,,Space,keypress(Space),,,,lyrical,,,,---- --------- ---------- - --- ------- -- the ------------<br>----- -- -------- ------- ---- ------ - -------- ---- -----<br>--- ------- ---- -- --- -------- --- - ----- ------ ---- --<br>-------- --- -------- -------- --- -------- ---- -- ----- -<br>-------- ---- --- ---------- --------- -- ------- ------ -<br>--------- ----- -----,259244.60000002384,259244.10000002384,258862.295,258875.69999992847,258878.993,259269.255,,7,the
screen,html.Screen,2_3_1_0_1_8,2022-02-21T10:50:22.790Z,,,,,,,,,,,,,,,,,15,,,,,,,,,,,,,,365.74499999999534,,response,,,,7,B,,,,,,Space,keypress(Space),,,,lyrical,,,,"---- --------- ---------- - --- ------- -- --- prosecution,<br>----- -- -------- ------- ---- ------ - -------- ---- -----<br>--- ------- ---- -- --- -------- --- - ----- ------ ---- --<br>-------- --- -------- -------- --- -------- ---- -- ----- -<br>-------- ---- --- ---------- --------- -- ------- ------ -<br>--------- ----- -----",259635.79999995232,259635,259228.899,259244.60000002384,259269.255,259645.604,,8,"prosecution,"
screen,html.Screen,2_3_1_0_1_9,2022-02-21T10:50:24.244Z,,,,,,,,,,,,,,,,,15,,,,,,,,,,,,,,1442.9960000238498,,response,,,,7,B,,,,,,Space,keypress(Space),,,,lyrical,,,,---- --------- ---------- - --- ------- -- --- ------------<br>vowed -- -------- ------- ---- ------ - -------- ---- -----<br>--- ------- ---- -- --- -------- --- - ----- ------ ---- --<br>-------- --- -------- -------- --- -------- ---- -- ----- -<br>-------- ---- --- ---------- --------- -- ------- ------ -<br>--------- ----- -----,261089.39999997616,261088.60000002384,259628.913,259635.89999997616,259645.604,261095.449,,9,vowed
screen,html.Screen,2_3_1_0_1_10,2022-02-21T10:50:24.649Z,,,,,,,,,,,,,,,,,15,,,,,,,,,,,,,,397.85099995232304,,response,,,,7,B,,,,,,Space,keypress(Space),,,,lyrical,,,,---- --------- ---------- - --- ------- -- --- ------------<br>----- he -------- ------- ---- ------ - -------- ---- -----<br>--- ------- ---- -- --- -------- --- - ----- ------ ---- --<br>-------- --- -------- -------- --- -------- ---- -- ----- -<br>-------- ---- --- ---------- --------- -- ------- ------ -<br>--------- ----- -----,261494,261493.29999995232,261078.745,261089.5,261095.449,261519.199,,10,he
screen,html.Screen,2_3_1_0_1_11,2022-02-21T10:50:25.140Z,,,,,,,,,,,,,,,,,15,,,,,,,,,,,,,,465.7009999761649,,response,,,,7,B,,,,,,Space,keypress(Space),,,,lyrical,,,,---- --------- ---------- - --- ------- -- --- ------------<br>----- -- wouldn't ------- ---- ------ - -------- ---- -----<br>--- ------- ---- -- --- -------- --- - ----- ------ ---- --<br>-------- --- -------- -------- --- -------- ---- -- ----- -<br>-------- ---- --- ---------- --------- -- ------- ------ -<br>--------- ----- -----,261985.60000002384,261984.89999997616,261478.805,261494.19999992847,261519.199,261995.426,,11,wouldn't
screen,html.Screen,2_3_1_0_1_12,2022-02-21T10:50:25.457Z,,,,,,,,,,,,,,,,,15,,,,,,,,,,,,,,305.6740000238351,,response,,,,7,B,,,,,,Space,keypress(Space),,,,lyrical,,,,---- --------- ---------- - --- ------- -- --- ------------<br>----- -- -------- testify ---- ------ - -------- ---- -----<br>--- ------- ---- -- --- -------- --- - ----- ------ ---- --<br>-------- --- -------- -------- --- -------- ---- -- ----- -<br>-------- ---- --- ---------- --------- -- ------- ------ -<br>--------- ----- -----,262302,262301.10000002384,261978.742,261985.69999992847,261995.426,262312.085,,12,testify
screen,html.Screen,2_3_1_0_1_13,2022-02-21T10:50:25.743Z,,,,,,,,,,,,,,,,,15,,,,,,,,,,,,,,275.91499999997905,,response,,,,7,B,,,,,,Space,keypress(Space),,,,lyrical,,,,---- --------- ---------- - --- ------- -- --- ------------<br>----- -- -------- ------- when ------ - -------- ---- -----<br>--- ------- ---- -- --- -------- --- - ----- ------ ---- --<br>-------- --- -------- -------- --- -------- ---- -- ----- -<br>-------- ---- --- ---------- --------- -- ------- ------ -<br>--------- ----- -----,262588.7999999523,262588,262295.401,262302.1999999285,262312.085,262595.408,,13,when
screen,html.Screen,2_3_1_0_1_14,2022-02-21T10:50:26.108Z,,,,,,,,,,,,,,,,,15,,,,,,,,,,,,,,357.7919999284786,,response,,,,7,B,,,,,,Space,keypress(Space),,,,lyrical,,,,---- --------- ---------- - --- ------- -- --- ------------<br>----- -- -------- ------- ---- served - -------- ---- -----<br>--- ------- ---- -- --- -------- --- - ----- ------ ---- --<br>-------- --- -------- -------- --- -------- ---- -- ----- -<br>-------- ---- --- ---------- --------- -- ------- ------ -<br>--------- ----- -----,262953.7999999523,262953.1999999285,262578.714,262588.89999997616,262595.408,262962.014,,14,served
screen,html.Screen,2_3_1_0_1_15,2022-02-21T10:50:26.535Z,,,,,,,,,,,,,,,,,15,,,,,,,,,,,,,,417.0860000238172,,response,,,,7,B,,,,,,Space,keypress(Space),,,,lyrical,,,,---- --------- ---------- - --- ------- -- --- ------------<br>----- -- -------- ------- ---- ------ a -------- ---- -----<br>--- ------- ---- -- --- -------- --- - ----- ------ ---- --<br>-------- --- -------- -------- --- -------- ---- -- ----- -<br>-------- ---- --- ---------- --------- -- ------- ------ -<br>--------- ----- -----,263380.1999999285,263379.10000002384,262945.35,262953.89999997616,262962.014,263395.363,,15,a
screen,html.Screen,2_3_1_0_1_16,2022-02-21T10:50:27.450Z,,,,,,,,,,,,,,,,,15,,,,,,,,,,,,,,899.2370000238298,,response,,,,7,B,,,,,,Space,keypress(Space),,,,lyrical,,,,---- --------- ---------- - --- ------- -- --- ------------<br>----- -- -------- ------- ---- ------ - subpoena ---- -----<br>--- ------- ---- -- --- -------- --- - ----- ------ ---- --<br>-------- --- -------- -------- --- -------- ---- -- ----- -<br>-------- ---- --- ---------- --------- -- ------- ------ -<br>--------- ----- -----,264295.7999999523,264294.60000002384,263378.581,263380.5,263395.363,264311.887,,16,subpoena
screen,html.Screen,2_3_1_0_1_17,2022-02-21T10:50:28.129Z,,,,,,,,,,,,,,,,,15,,,,,,,,,,,,,,661.713000023854,,response,,,,7,B,,,,,,Space,keypress(Space),,,,lyrical,,,,---- --------- ---------- - --- ------- -- --- ------------<br>----- -- -------- ------- ---- ------ - -------- last -----<br>--- ------- ---- -- --- -------- --- - ----- ------ ---- --<br>-------- --- -------- -------- --- -------- ---- -- ----- -<br>-------- ---- --- ---------- --------- -- ------- ------ -<br>--------- ----- -----,264974.60000002384,264973.60000002384,264295.181,264296,264311.887,264978.505,,17,last
screen,html.Screen,2_3_1_0_1_18,2022-02-21T10:50:29.029Z,,,,,,,,,,,,,,,,,15,,,,,,,,,,,,,,894.9949999999953,,response,,,,7,B,,,,,,Space,keypress(Space),,,,lyrical,,,,---- --------- ---------- - --- ------- -- --- ------------<br>----- -- -------- ------- ---- ------ - -------- ---- week.<br>--- ------- ---- -- --- -------- --- - ----- ------ ---- --<br>-------- --- -------- -------- --- -------- ---- -- ----- -<br>-------- ---- --- ---------- --------- -- ------- ------ -<br>--------- ----- -----,265874.6999999285,265873.5,264961.882,264974.7999999523,264978.505,265878.465,,18,week.
screen,html.Screen,2_3_1_0_1_19,2022-02-21T10:50:29.353Z,,,,,,,,,,,,,,,,,15,,,,,,,,,,,,,,319.13500002381625,,response,,,,7,B,,,,,,Space,keypress(Space),,,,lyrical,,,,---- --------- ---------- - --- ------- -- --- ------------<br>----- -- -------- ------- ---- ------ - -------- ---- -----<br>His ------- ---- -- --- -------- --- - ----- ------ ---- --<br>-------- --- -------- -------- --- -------- ---- -- ----- -<br>-------- ---- --- ---------- --------- -- ------- ------ -<br>--------- ----- -----,266198.39999997616,266197.60000002384,265861.781,265875,265878.465,266211.733,,19,His
screen,html.Screen,2_3_1_0_1_20,2022-02-21T10:50:29.685Z,,,,,,,,,,,,,,,,,15,,,,,,,,,,,,,,317.56699995230883,,response,,,,7,B,,,,,,Space,keypress(Space),,,,lyrical,,,,---- --------- ---------- - --- ------- -- --- ------------<br>----- -- -------- ------- ---- ------ - -------- ---- -----<br>--- lawyers ---- -- --- -------- --- - ----- ------ ---- --<br>-------- --- -------- -------- --- -------- ---- -- ----- -<br>-------- ---- --- ---------- --------- -- ------- ------ -<br>--------- ----- -----,266530.10000002384,266529.2999999523,266195.129,266198.60000002384,266211.733,266545.074,,20,lawyers
screen,html.Screen,2_3_1_0_1_21,2022-02-21T10:50:30.073Z,,,,,,,,,,,,,,,,,15,,,,,,,,,,,,,,372.6259999284521,,response,,,,7,B,,,,,,Space,keypress(Space),,,,lyrical,,,,---- --------- ---------- - --- ------- -- --- ------------<br>----- -- -------- ------- ---- ------ - -------- ---- -----<br>--- ------- said -- --- -------- --- - ----- ------ ---- --<br>-------- --- -------- -------- --- -------- ---- -- ----- -<br>-------- ---- --- ---------- --------- -- ------- ------ -<br>--------- ----- -----,266918.6999999285,266917.6999999285,266528.428,266530.1999999285,266545.074,266928.452,,21,said
screen,html.Screen,2_3_1_0_1_22,2022-02-21T10:50:30.426Z,,,,,,,,,,,,,,,,,15,,,,,,,,,,,,,,342.34799995232606,,response,,,,7,B,,,,,,Space,keypress(Space),,,,lyrical,,,,---- --------- ---------- - --- ------- -- --- ------------<br>----- -- -------- ------- ---- ------ - -------- ---- -----<br>--- ------- ---- he --- -------- --- - ----- ------ ---- --<br>-------- --- -------- -------- --- -------- ---- -- ----- -<br>-------- ---- --- ---------- --------- -- ------- ------ -<br>--------- ----- -----,267271.89999997616,267270.7999999523,266911.717,266918.89999997616,266928.452,267278.355,,22,he
screen,html.Screen,2_3_1_0_1_23,2022-02-21T10:50:30.777Z,,,,,,,,,,,,,,,,,15,,,,,,,,,,,,,,342.7450000238605,,response,,,,7,B,,,,,,Space,keypress(Space),,,,lyrical,,,,---- --------- ---------- - --- ------- -- --- ------------<br>----- -- -------- ------- ---- ------ - -------- ---- -----<br>--- ------- ---- -- was -------- --- - ----- ------ ---- --<br>-------- --- -------- -------- --- -------- ---- -- ----- -<br>-------- ---- --- ---------- --------- -- ------- ------ -<br>--------- ----- -----,267622.2999999523,267621.10000002384,267261.68,267272.10000002384,267278.355,267628.403,,23,was
screen,html.Screen,2_3_1_0_1_24,2022-02-21T10:50:31.591Z,,,,,,,,,,,,,,,,,15,,,,,,,,,,,,,,807.5970000000088,,response,,,,7,B,,,,,,Space,keypress(Space),,,,lyrical,,,,---- --------- ---------- - --- ------- -- --- ------------<br>----- -- -------- ------- ---- ------ - -------- ---- -----<br>--- ------- ---- -- --- prepared --- - ----- ------ ---- --<br>-------- --- -------- -------- --- -------- ---- -- ----- -<br>-------- ---- --- ---------- --------- -- ------- ------ -<br>--------- ----- -----,268436.60000002384,268436,267611.656,267622.5,267628.403,268444.912,,24,prepared
screen,html.Screen,2_3_1_0_1_25,2022-02-21T10:50:32.669Z,,,,,,,,,,,,,,,,,15,,,,,,,,,,,,,,1067.6880000238307,,response,,,,7,B,,,,,,Space,keypress(Space),,,,lyrical,,,,---- --------- ---------- - --- ------- -- --- ------------<br>----- -- -------- ------- ---- ------ - -------- ---- -----<br>--- ------- ---- -- --- -------- for - ----- ------ ---- --<br>-------- --- -------- -------- --- -------- ---- -- ----- -<br>-------- ---- --- ---------- --------- -- ------- ------ -<br>--------- ----- -----,269514.10000002384,269512.60000002384,268428.258,268436.60000002384,268444.912,269528.289,,25,for
screen,html.Screen,2_3_1_0_1_26,2022-02-21T10:50:32.949Z,,,,,,,,,,,,,,,,,15,,,,,,,,,,,,,,264.41099992848467,,response,,,,7,B,,,,,,Space,keypress(Space),,,,lyrical,,,,---- --------- ---------- - --- ------- -- --- ------------<br>----- -- -------- ------- ---- ------ - -------- ---- -----<br>--- ------- ---- -- --- -------- --- a ----- ------ ---- --<br>-------- --- -------- -------- --- -------- ---- -- ----- -<br>-------- ---- --- ---------- --------- -- ------- ------ -<br>--------- ----- -----,269794.10000002384,269792.6999999285,269511.434,269514.2999999523,269528.289,269811.62,,26,a
screen,html.Screen,2_3_1_0_1_27,2022-02-21T10:50:33.223Z,,,,,,,,,,,,,,,,,15,,,,,,,,,,,,,,255.2799999761628,,response,,,,7,B,,,,,,Space,keypress(Space),,,,lyrical,,,,---- --------- ---------- - --- ------- -- --- ------------<br>----- -- -------- ------- ---- ------ - -------- ---- -----<br>--- ------- ---- -- --- -------- --- - third ------ ---- --<br>-------- --- -------- -------- --- -------- ---- -- ----- -<br>-------- ---- --- ---------- --------- -- ------- ------ -<br>--------- ----- -----,270068.2999999523,270066.89999997616,269794.847,269794.2999999523,269811.62,270078.126,,27,third
screen,html.Screen,2_3_1_0_1_28,2022-02-21T10:50:33.474Z,,,,,,,,,,,,,,,,,15,,,,,,,,,,,,,,240.77399997616885,,response,,,,7,B,,,,,,Space,keypress(Space),,,,lyrical,,,,---- --------- ---------- - --- ------- -- --- ------------<br>----- -- -------- ------- ---- ------ - -------- ---- -----<br>--- ------- ---- -- --- -------- --- - ----- prison ---- --<br>-------- --- -------- -------- --- -------- ---- -- ----- -<br>-------- ---- --- ---------- --------- -- ------- ------ -<br>--------- ----- -----,270319.7999999523,270318.89999997616,270061.575,270068.5,270078.126,270328.154,,28,prison
screen,html.Screen,2_3_1_0_1_29,2022-02-21T10:50:33.772Z,,,,,,,,,,,,,,,,,15,,,,,,,,,,,,,,288.545999928494,,response,,,,7,B,,,,,,Space,keypress(Space),,,,lyrical,,,,---- --------- ---------- - --- ------- -- --- ------------<br>----- -- -------- ------- ---- ------ - -------- ---- -----<br>--- ------- ---- -- --- -------- --- - ----- ------ stay --<br>-------- --- -------- -------- --- -------- ---- -- ----- -<br>-------- ---- --- ---------- --------- -- ------- ------ -<br>--------- ----- -----,270617.39999997616,270616.6999999285,270311.49,270320.10000002384,270328.154,270628.105,,29,stay
screen,html.Screen,2_3_1_0_1_30,2022-02-21T10:50:34.116Z,,,,,,,,,,,,,,,,,15,,,,,,,,,,,,,,332.09499992849305,,response,,,,7,B,,,,,,Space,keypress(Space),,,,lyrical,,,,---- --------- ---------- - --- ------- -- --- ------------<br>----- -- -------- ------- ---- ------ - -------- ---- -----<br>--- ------- ---- -- --- -------- --- - ----- ------ ---- to<br>-------- --- -------- -------- --- -------- ---- -- ----- -<br>-------- ---- --- ---------- --------- -- ------- ------ -<br>--------- ----- -----,270961.1999999285,270960.1999999285,270611.395,270617.60000002384,270628.105,270978.112,,30,to
screen,html.Screen,2_3_1_0_1_31,2022-02-21T10:50:34.407Z,,,,,,,,,,,,,,,,,15,,,,,,,,,,,,,,273.7879999761353,,response,,,,7,B,,,,,,Space,keypress(Space),,,,lyrical,,,,---- --------- ---------- - --- ------- -- --- ------------<br>----- -- -------- ------- ---- ------ - -------- ---- -----<br>--- ------- ---- -- --- -------- --- - ----- ------ ---- --<br>maintain --- -------- -------- --- -------- ---- -- ----- -<br>-------- ---- --- ---------- --------- -- ------- ------ -<br>--------- ----- -----,271252.39999997616,271251.89999997616,270961.401,270961.1999999285,270978.112,271261.332,,31,maintain
screen,html.Screen,2_3_1_0_1_32,2022-02-21T10:50:34.644Z,,,,,,,,,,,,,,,,,15,,,,,,,,,,,,,,227.56799997616326,,response,,,,7,B,,,,,,Space,keypress(Space),,,,lyrical,,,,---- --------- ---------- - --- ------- -- --- ------------<br>----- -- -------- ------- ---- ------ - -------- ---- -----<br>--- ------- ---- -- --- -------- --- - ----- ------ ---- --<br>-------- his -------- -------- --- -------- ---- -- ----- -<br>-------- ---- --- ---------- --------- -- ------- ------ -<br>--------- ----- -----,271489.89999997616,271488.89999997616,271244.711,271252.5,271261.332,271494.7,,32,his
screen,html.Screen,2_3_1_0_1_33,2022-02-21T10:50:34.921Z,,,,,,,,,,,,,,,,,15,,,,,,,,,,,,,,270.4000000238302,,response,,,,7,B,,,,,,Space,keypress(Space),,,,lyrical,,,,---- --------- ---------- - --- ------- -- --- ------------<br>----- -- -------- ------- ---- ------ - -------- ---- -----<br>--- ------- ---- -- --- -------- --- - ----- ------ ---- --<br>-------- --- silence. -------- --- -------- ---- -- ----- -<br>-------- ---- --- ---------- --------- -- ------- ------ -<br>--------- ----- -----,271766,271765.10000002384,271478.042,271490.10000002384,271494.7,271778.073,,33,silence.
screen,html.Screen,2_3_1_0_1_34,2022-02-21T10:50:35.562Z,,,,,,,,,,,,,,,,,15,,,,,,,,,,,,,,628.6269999284996,,response,,,,7,B,,,,,,Space,keypress(Space),,,,lyrical,,,,---- --------- ---------- - --- ------- -- --- ------------<br>----- -- -------- ------- ---- ------ - -------- ---- -----<br>--- ------- ---- -- --- -------- --- - ----- ------ ---- --<br>-------- --- -------- Anderson --- -------- ---- -- ----- -<br>-------- ---- --- ---------- --------- -- ------- ------ -<br>--------- ----- -----,272408,272406.6999999285,271761.393,271766.1999999285,271778.073,272411.324,,34,Anderson
screen,html.Screen,2_3_1_0_1_35,2022-02-21T10:50:35.843Z,,,,,,,,,,,,,,,,,15,,,,,,,,,,,,,,275.47599995229393,,response,,,,7,B,,,,,,Space,keypress(Space),,,,lyrical,,,,---- --------- ---------- - --- ------- -- --- ------------<br>----- -- -------- ------- ---- ------ - -------- ---- -----<br>--- ------- ---- -- --- -------- --- - ----- ------ ---- --<br>-------- --- -------- -------- was -------- ---- -- ----- -<br>-------- ---- --- ---------- --------- -- ------- ------ -<br>--------- ----- -----,272688.10000002384,272686.7999999523,272394.643,272408.1999999285,272411.324,272694.608,,35,was
screen,html.Screen,2_3_1_0_1_36,2022-02-21T10:50:36.099Z,,,,,,,,,,,,,,,,,15,,,,,,,,,,,,,,248.4920000238344,,response,,,,7,B,,,,,,Space,keypress(Space),,,,lyrical,,,,---- --------- ---------- - --- ------- -- --- ------------<br>----- -- -------- ------- ---- ------ - -------- ---- -----<br>--- ------- ---- -- --- -------- --- - ----- ------ ---- --<br>-------- --- -------- -------- --- released ---- -- ----- -<br>-------- ---- --- ---------- --------- -- ------- ------ -<br>--------- ----- -----,272944.2999999523,272943.10000002384,272678.012,272688.2999999523,272694.608,272961.289,,36,released
screen,html.Screen,2_3_1_0_1_37,2022-02-21T10:50:36.433Z,,,,,,,,,,,,,,,,,15,,,,,,,,,,,,,,315.91099992848467,,response,,,,7,B,,,,,,Space,keypress(Space),,,,lyrical,,,,---- --------- ---------- - --- ------- -- --- ------------<br>----- -- -------- ------- ---- ------ - -------- ---- -----<br>--- ------- ---- -- --- -------- --- - ----- ------ ---- --<br>-------- --- -------- -------- --- -------- July -- ----- -<br>-------- ---- --- ---------- --------- -- ------- ------ -<br>--------- ----- -----,273278.6999999285,273277.1999999285,272944.652,272944.5,272961.289,273294.677,,37,July
screen,html.Screen,2_3_1_0_1_38,2022-02-21T10:50:36.859Z,,,,,,,,,,,,,,,,,15,,,,,,,,,,,,,,409.32299999997485,,response,,,,7,B,,,,,,Space,keypress(Space),,,,lyrical,,,,---- --------- ---------- - --- ------- -- --- ------------<br>----- -- -------- ------- ---- ------ - -------- ---- -----<br>--- ------- ---- -- --- -------- --- - ----- ------ ---- --<br>-------- --- -------- -------- --- -------- ---- 20 ----- -<br>-------- ---- --- ---------- --------- -- ------- ------ -<br>--------- ----- -----,273704.89999997616,273704,273277.958,273278.89999997616,273294.677,273711.153,,38,20
screen,html.Screen,2_3_1_0_1_39,2022-02-21T10:50:37.645Z,,,,,,,,,,,,,,,,,15,,,,,,,,,,,,,,778.5469999284833,,response,,,,7,B,,,,,,Space,keypress(Space),,,,lyrical,,,,---- --------- ---------- - --- ------- -- --- ------------<br>----- -- -------- ------- ---- ------ - -------- ---- -----<br>--- ------- ---- -- --- -------- --- - ----- ------ ---- --<br>-------- --- -------- -------- --- -------- ---- -- after -<br>-------- ---- --- ---------- --------- -- ------- ------ -<br>--------- ----- -----,274490.6999999285,274489.6999999285,273694.594,273705,273711.153,274494.458,,39,after
screen,html.Screen,2_3_1_0_1_40,2022-02-21T10:50:38.006Z,,,,,,,,,,,,,,,,,15,,,,,,,,,,,,,,356.1420000238577,,response,,,,7,B,,,,,,Space,keypress(Space),,,,lyrical,,,,---- --------- ---------- - --- ------- -- --- ------------<br>----- -- -------- ------- ---- ------ - -------- ---- -----<br>--- ------- ---- -- --- -------- --- - ----- ------ ---- --<br>-------- --- -------- -------- --- -------- ---- -- ----- a<br>-------- ---- --- ---------- --------- -- ------- ------ -<br>--------- ----- -----,274851.6999999285,274850.60000002384,274477.834,274490.7999999523,274494.458,274861.096,,40,a
