sender,sender_type,sender_id,timestamp,meta,,Blues,Classical,Country,Dance,Electronic,Folk,Gospel,Hip-Hop,Jazz,Latin,Musical/Film,New-age,Pop,Prolific_id,Provo_ID,R&B,Rap,Reggae,Religious,Rock,Soul,Swing,Traditional,age,artist_name,correct,correctResponse,distraction,duration,education,ended_on,familiarity,gender,headphone_check_performance,item,list,music_frequency,offensiveness,pleasantness,position_correct,preference,response,response_action,snippet_file,song_name,song_rating,sound,stimulus_1,stimulus_2,stimulus_3,text,time_commit,time_end,time_render,time_run,time_show,time_switch,url,word,word_ID
Prolific ID,html.Form,0,2022-02-15T15:12:27.737Z,"{""labjs_version"":""20.2.2"",""labjs_build"":{""flavor"":""production"",""commit"":""a25486e0c714a0ae2ce03ff94b7bb6896854dcfa""},""location"":""https://run.pavlovia.org/mvasilev/prolific2_music_f/"",""userAgent"":""Mozilla/5.0 (Windows NT 10.0; Win64; x64) AppleWebKit/537.36 (KHTML, like Gecko) Chrome/97.0.4692.99 Safari/537.36"",""platform"":""Win32"",""language"":""en-GB"",""locale"":""en-GB"",""timeZone"":""Europe/London"",""timezoneOffset"":0,""screen_width"":1280,""screen_height"":720,""scroll_width"":1280,""scroll_height"":569,""window_innerWidth"":1280,""window_innerHeight"":569,""devicePixelRatio"":1.5}",,,,,,,,,,,,,,,607c91819b498b5a39bb8cbd,,,,,,,,,,,,,,,41779.353,,form submission,,,,,,,,,,,,,,,,,,,,,64657.30000001192,64656.5,22810.591,22824.20000001788,22877.147,64671.788,{},,
Introduction,html.Screen,1_0,2022-02-15T15:12:35.638Z,,,,,,,,,,,,,,,,,,,,,,,,,,,,,,,7884.412000017881,,response,,,,,,,,,,,continue,click button,,,,,,,,,72559.09999999404,72556.20000001788,64638.436,64657.70000001788,64671.788,72570.784,,,
Volume calibration,html.Screen,1_1,2022-02-15T15:12:59.602Z,,,,,,,,,,,,,,,,,,,,,,,,,,,,,,,23948.81599999404,,response,,,,,,,,,,,continue,click button,,,,,,,,,96522.70000001788,96519.59999999404,72554.102,72559.20000001788,72570.784,96534.395,,,
Task instructions,html.Screen,1_2,2022-02-15T15:13:33.150Z,,,,,,,,,,,,,,,,,,,,,,,,,,,,,,,33535.80500001788,,response,,,,,,,,,,,continue,click button,,,,,,,,,130071.09999999404,130070.20000001788,96517.886,96522.80000001192,96534.395,130080.116,,,
Sounds,html.Screen,1_3_0_0,2022-02-15T15:13:37.400Z,,,,,,,,,,,,,,,,,,,,,,,,,,,,,,,4249.457999999999,,timeout,,,,,,,,,1,,,,,,,,S,O,I,,134321.40000000596,134312.991,130063.538,130071.30000001192,130080.116,134329.574,,,
Judgement,html.Screen,1_3_0_1,2022-02-15T15:13:38.540Z,,,,,,,,,,,,,,,,,,,,,,,,,,,,true,1,,1130.4260000000068,,response,,,,,,,,,1,,1,click #choice-1,,,,,S,O,I,,135460.80000001192,135460,134312.991,134321.80000001192,134329.574,135479.55,,,
Trial,flow.Sequence,1_3_0,2022-02-15T15:13:38.540Z,,,,,,,,,,,,,,,,,,,,,,,,,,,,,,,5379.8840000000055,,completion,,,,,,,,,1,,,,,,,,S,O,I,,135461.20000001788,135460,130063.538,130071.20000001788,130080.116,135479.55,,,
Sounds,html.Screen,1_3_1_0,2022-02-15T15:13:42.793Z,,,,,,,,,,,,,,,,,,,,,,,,,,,,,,,4249.292000000016,,timeout,,,,,,,,,3,,,,,,,,O,I,S,,139714,139712.26,135462.711,135461.5,135479.55,139728.842,,,
Judgement,html.Screen,1_3_1_1,2022-02-15T15:13:43.592Z,,,,,,,,,,,,,,,,,,,,,,,,,,,,true,3,,783.4580000119167,,response,,,,,,,,,3,,3,click #choice-3,,,,,O,I,S,,140513.09999999404,140512.30000001192,139712.26,139714.30000001192,139728.842,140528.682,,,
Trial,flow.Sequence,1_3_1,2022-02-15T15:13:43.592Z,,,,,,,,,,,,,,,,,,,,,,,,,,,,,,,5032.750000011933,,completion,,,,,,,,,3,,,,,,,,O,I,S,,140513.5,140512.30000001192,135462.711,135461.30000001192,135479.55,140528.682,,,
Sounds,html.Screen,1_3_2_0,2022-02-15T15:13:47.843Z,,,,,,,,,,,,,,,,,,,,,,,,,,,,,,,4249.565000000002,,timeout,,,,,,,,,2,,,,,,,,O,S,I,,144763.70000001788,144761.56,140512.068,140513.70000001788,140528.682,144778.247,,,
Judgement,html.Screen,1_3_2_1,2022-02-15T15:13:48.528Z,,,,,,,,,,,,,,,,,,,,,,,,,,,,true,2,,669.8529999940365,,response,,,,,,,,,2,,2,click #choice-2,,,,,O,S,I,,145448.90000000596,145448.09999999404,144761.56,144764.30000001192,144778.247,145478.148,,,
Trial,flow.Sequence,1_3_2,2022-02-15T15:13:48.528Z,,,,,,,,,,,,,,,,,,,,,,,,,,,,,,,4919.417999994039,,completion,,,,,,,,,2,,,,,,,,O,S,I,,145449.09999999404,145448.09999999404,140512.068,140513.70000001788,140528.682,145478.148,,,
Sounds,html.Screen,1_3_3_0,2022-02-15T15:13:52.791Z,,,,,,,,,,,,,,,,,,,,,,,,,,,,,,,4249.408000000025,,timeout,,,,,,,,,2,,,,,,,,I,S,O,,149711.80000001192,149710.904,145461.441,145449.30000001192,145478.148,149727.556,,,
Judgement,html.Screen,1_3_3_1,2022-02-15T15:13:53.798Z,,,,,,,,,,,,,,,,,,,,,,,,,,,,true,2,,990.5439999940281,,response,,,,,,,,,2,,2,click #choice-2,,,,,I,S,O,,150719,150718.09999999404,149710.904,149711.90000000596,149727.556,150744.048,,,
Trial,flow.Sequence,1_3_3,2022-02-15T15:13:53.798Z,,,,,,,,,,,,,,,,,,,,,,,,,,,,,,,5239.951999994053,,completion,,,,,,,,,2,,,,,,,,I,S,O,,150719.20000001788,150718.09999999404,145461.441,145449.30000001192,145478.148,150744.048,,,
Sounds,html.Screen,1_3_4_0,2022-02-15T15:13:58.057Z,,,,,,,,,,,,,,,,,,,,,,,,,,,,,,,4249.625,,timeout,,,,,,,,,1,,,,,,,,S,I,O,,154978.30000001192,154976.864,150727.413,150719.30000001192,150744.048,154993.673,,,
Judgement,html.Screen,1_3_4_1,2022-02-15T15:13:58.636Z,,,,,,,,,,,,,,,,,,,,,,,,,,,,true,1,,562.6270000119112,,response,,,,,,,,,1,,1,click #choice-1,,,,,S,I,O,,155557.20000001788,155556.30000001192,154976.864,154978.40000000596,154993.673,155560.107,,,
Trial,flow.Sequence,1_3_4,2022-02-15T15:13:58.636Z,,,,,,,,,,,,,,,,,,,,,,,,,,,,,,,4812.252000011911,,completion,,,,,,,,,1,,,,,,,,S,I,O,,155557.5,155556.30000001192,150727.413,150719.20000001788,150744.048,155560.107,,,
Sounds,html.Screen,1_3_5_0,2022-02-15T15:14:02.873Z,,,,,,,,,,,,,,,,,,,,,,,,,,,,,,,4249.559000000008,,timeout,,,,,,,,,3,,,,,,,,I,O,S,,159793.90000000596,159792.903,155543.721,155557.59999999404,155560.107,159809.666,,,
Judgement,html.Screen,1_3_5_1,2022-02-15T15:14:03.454Z,,,,,,,,,,,,,,,,,,,,,,,,,,,,true,3,,565.034000017884,,response,,,,,,,,,3,,3,click #choice-3,,,,,I,O,S,,160375.40000000596,160374.70000001788,159792.903,159794.09999999404,159809.666,160392.843,,,
Trial,flow.Sequence,1_3_5,2022-02-15T15:14:03.454Z,,,,,,,,,,,,,,,,,,,,,,,,,,,,,,,4814.593000017892,,completion,,,,,,,,,3,,,,,,,,I,O,S,,160375.59999999404,160374.70000001788,155543.721,155557.5,155560.107,160392.843,,,
Task,flow.Loop,1_3,2022-02-15T15:14:03.459Z,,,,,,,,,,,,,,,,,,,,,,,,,,,,,,,30294.584000017887,,completion,,,1,,,,,,,,,,,,,,,,,,160380.5,160374.70000001788,130063.538,130071.20000001788,130080.116,160392.843,,,
Trap,html.Screen,1_4,2022-02-15T15:14:03.461Z,,,,,,,,,,,,,,,,,,,,,,,,,,,,,,,NaN,,skipped,,,,,,,,,,,,,,,,,,,,,160382,160374.70000001788,,160381.80000001192,,160392.843,,,
Thanks,html.Screen,1_5,2022-02-15T15:14:07.446Z,,,,,,,,,,,,,,,,,,,,,,,,,,,,,,,3974.057000005967,,response,,,,,,,,,,,continue,click button,,,,,,,,,164367.59999999404,164366.90000000596,160376.164,160382.09999999404,160392.843,168791.741,,,
Headphone screening,flow.Sequence,1,2022-02-15T15:14:07.447Z,,,,,,,,,,,,,,,,,,,,,,,,,,,,,,,99695.11200000596,,completion,,,,,,,,,,,,,,,,,,,,,164367.70000001788,164366.90000000596,64638.436,64657.70000001788,64671.788,168791.741,,,
Instructions,html.Page,2_0,2022-02-15T15:15:01.285Z,,,,,,,,,,,,,,,,,,,,,,,,,,,,,,,49416.55900001191,,form submission,,,,,,,,,,,,,,,,,,,,,218209.80000001192,218208.30000001192,168708.409,168736.59999999404,168791.741,218218.728,,,
Holding screen,html.Screen,2_1_0_0,2022-02-15T15:15:11.278Z,,,,,,,,,,,,,,,,,,,,,,,,,,,,,,,10015.375,,timeout,,,,,,,,,,,,,,,,,,,,,228202.30000001192,228201.111,218202.082,218210.20000001788,218218.728,228234.103,,,
screen,html.Screen,2_1_0_1_0,2022-02-15T15:15:12.925Z,,,,,,,,,,,,,,,,,53,,,,,,,,,,,,,,1610.7970000059577,,response,,,,99,,,,,,,Space,keypress(Space),,,,,,,,When -- ----- -- ------ - ------- --- ----------<br>------------- ------ ------ ---- ---- ------- ----- -- ----<br>-------- ------- -- ---------- --- - --- ----- ----- ----<br>---- --- --- ----- --- ---- ---- ------- ----- ---- -------<br>--- --- -- ----- -- --- ---- -- --- ---- -- ------ ------<br>--- ----- -- ----,229850,229844.90000000596,228201.111,228202.70000001788,228234.103,229884.174,,0,When
screen,html.Screen,2_1_0_1_1,2022-02-15T15:15:13.490Z,,,,,,,,,,,,,,,,,53,,,,,,,,,,,,,,529.7260000059614,,response,,,,99,,,,,,,Space,keypress(Space),,,,,,,,---- it ----- -- ------ - ------- --- ----------<br>------------- ------ ------ ---- ---- ------- ----- -- ----<br>-------- ------- -- ---------- --- - --- ----- ----- ----<br>---- --- --- ----- --- ---- ---- ------- ----- ---- -------<br>--- --- -- ----- -- --- ---- -- --- ---- -- ------ ------<br>--- ----- -- ----,230415,230413.90000000596,229867.264,229850.20000001788,229884.174,230447.492,,1,it
screen,html.Screen,2_1_0_1_2,2022-02-15T15:15:14.059Z,,,,,,,,,,,,,,,,,53,,,,,,,,,,,,,,535.208000017883,,response,,,,99,,,,,,,Space,keypress(Space),,,,,,,,---- -- comes -- ------ - ------- --- ----------<br>------------- ------ ------ ---- ---- ------- ----- -- ----<br>-------- ------- -- ---------- --- - --- ----- ----- ----<br>---- --- --- ----- --- ---- ---- ------- ----- ---- -------<br>--- --- -- ----- -- --- ---- -- --- ---- -- ------ ------<br>--- ----- -- ----,230983.90000000596,230982.70000001788,230400.467,230415.30000001192,230447.492,231000.605,,2,comes
screen,html.Screen,2_1_0_1_3,2022-02-15T15:15:14.538Z,,,,,,,,,,,,,,,,,53,,,,,,,,,,,,,,461.29500000595,,response,,,,99,,,,,,,Space,keypress(Space),,,,,,,,---- -- ----- to ------ - ------- --- ----------<br>------------- ------ ------ ---- ---- ------- ----- -- ----<br>-------- ------- -- ---------- --- - --- ----- ----- ----<br>---- --- --- ----- --- ---- ---- ------- ----- ---- -------<br>--- --- -- ----- -- --- ---- -- --- ---- -- ------ ------<br>--- ----- -- ----,231463.09999999404,231461.90000000596,230983.829,230984.09999999404,231000.605,231467.099,,3,to
screen,html.Screen,2_1_0_1_4,2022-02-15T15:15:15.073Z,,,,,,,,,,,,,,,,,53,,,,,,,,,,,,,,529.2010000119335,,response,,,,99,,,,,,,Space,keypress(Space),,,,,,,,---- -- ----- -- having - ------- --- ----------<br>------------- ------ ------ ---- ---- ------- ----- -- ----<br>-------- ------- -- ---------- --- - --- ----- ----- ----<br>---- --- --- ----- --- ---- ---- ------- ----- ---- -------<br>--- --- -- ----- -- --- ---- -- --- ---- -- ------ ------<br>--- ----- -- ----,231997.5,231996.30000001192,231450.448,231463.40000000596,231467.099,232000.365,,4,having
screen,html.Screen,2_1_0_1_5,2022-02-15T15:15:15.577Z,,,,,,,,,,,,,,,,,53,,,,,,,,,,,,,,499.43500001193024,,response,,,,99,,,,,,,Space,keypress(Space),,,,,,,,---- -- ----- -- ------ a ------- --- ----------<br>------------- ------ ------ ---- ---- ------- ----- -- ----<br>-------- ------- -- ---------- --- - --- ----- ----- ----<br>---- --- --- ----- --- ---- ---- ------- ----- ---- -------<br>--- --- -- ----- -- --- ---- -- --- ---- -- ------ ------<br>--- ----- -- ----,232501.20000001788,232499.80000001192,231983.661,231997.80000001192,232000.365,232517.123,,5,a
screen,html.Screen,2_1_0_1_6,2022-02-15T15:15:16.066Z,,,,,,,,,,,,,,,,,53,,,,,,,,,,,,,,472.5770000178891,,response,,,,99,,,,,,,Space,keypress(Space),,,,,,,,---- -- ----- -- ------ - lasting --- ----------<br>------------- ------ ------ ---- ---- ------- ----- -- ----<br>-------- ------- -- ---------- --- - --- ----- ----- ----<br>---- --- --- ----- --- ---- ---- ------- ----- ---- -------<br>--- --- -- ----- -- --- ---- -- --- ---- -- ------ ------<br>--- ----- -- ----,232991,232989.70000001788,232500.26,232501.5,232517.123,233000.226,,6,lasting
screen,html.Screen,2_1_0_1_7,2022-02-15T15:15:16.466Z,,,,,,,,,,,,,,,,,53,,,,,,,,,,,,,,388.67400000596535,,response,,,,99,,,,,,,Space,keypress(Space),,,,,,,,---- -- ----- -- ------ - ------- and ----------<br>------------- ------ ------ ---- ---- ------- ----- -- ----<br>-------- ------- -- ---------- --- - --- ----- ----- ----<br>---- --- --- ----- --- ---- ---- ------- ----- ---- -------<br>--- --- -- ----- -- --- ---- -- --- ---- -- ------ ------<br>--- ----- -- ----,233390.20000001788,233388.90000000596,232983.657,232991.30000001192,233000.226,233400.153,,7,and
screen,html.Screen,2_1_0_1_8,2022-02-15T15:15:16.979Z,,,,,,,,,,,,,,,,,53,,,,,,,,,,,,,,501.9469999940484,,response,,,,99,,,,,,,Space,keypress(Space),,,,,,,,---- -- ----- -- ------ - ------- --- fulfilling<br>------------- ------ ------ ---- ---- ------- ----- -- ----<br>-------- ------- -- ---------- --- - --- ----- ----- ----<br>---- --- --- ----- --- ---- ---- ------- ----- ---- -------<br>--- --- -- ----- -- --- ---- -- --- ---- -- ------ ------<br>--- ----- -- ----,233903.40000000596,233902.09999999404,233383.602,233390.40000000596,233400.153,233916.909,,8,fulfilling
screen,html.Screen,2_1_0_1_9,2022-02-15T15:15:17.707Z,,,,,,,,,,,,,,,,,53,,,,,,,,,,,,,,713.3910000119067,,response,,,,99,,,,,,,Space,keypress(Space),,,,,,,,"---- -- ----- -- ------ - ------- --- ----------<br>relationship, ------ ------ ---- ---- ------- ----- -- ----<br>-------- ------- -- ---------- --- - --- ----- ----- ----<br>---- --- --- ----- --- ---- ---- ------- ----- ---- -------<br>--- --- -- ----- -- --- ---- -- --- ---- -- ------ ------<br>--- ----- -- ----",234631.5,234630.30000001192,233900.062,233903.59999999404,233916.909,234658.778,,9,"relationship,"
screen,html.Screen,2_1_0_1_10,2022-02-15T15:15:18.216Z,,,,,,,,,,,,,,,,,53,,,,,,,,,,,,,,480.6220000059693,,response,,,,99,,,,,,,Space,keypress(Space),,,,,,,,---- -- ----- -- ------ - ------- --- ----------<br>------------- common ------ ---- ---- ------- ----- -- ----<br>-------- ------- -- ---------- --- - --- ----- ----- ----<br>---- --- --- ----- --- ---- ---- ------- ----- ---- -------<br>--- --- -- ----- -- --- ---- -- --- ---- -- ------ ------<br>--- ----- -- ----,235140.80000001192,235139.40000000596,234616.812,234631.80000001192,234658.778,235149.982,,10,common
screen,html.Screen,2_1_0_1_11,2022-02-15T15:15:19.140Z,,,,,,,,,,,,,,,,,53,,,,,,,,,,,,,,913.0180000000109,,response,,,,99,,,,,,,Space,keypress(Space),,,,,,,,---- -- ----- -- ------ - ------- --- ----------<br>------------- ------ wisdom ---- ---- ------- ----- -- ----<br>-------- ------- -- ---------- --- - --- ----- ----- ----<br>---- --- --- ----- --- ---- ---- ------- ----- ---- -------<br>--- --- -- ----- -- --- ---- -- --- ---- -- ------ ------<br>--- ----- -- ----,236064.20000001788,236063,235133.304,235141.09999999404,235149.982,236066.485,,11,wisdom
screen,html.Screen,2_1_0_1_12,2022-02-15T15:15:19.723Z,,,,,,,,,,,,,,,,,53,,,,,,,,,,,,,,580.015000000014,,response,,,,99,,,,,,,Space,keypress(Space),,,,,,,,---- -- ----- -- ------ - ------- --- ----------<br>------------- ------ ------ says ---- ------- ----- -- ----<br>-------- ------- -- ---------- --- - --- ----- ----- ----<br>---- --- --- ----- --- ---- ---- ------- ----- ---- -------<br>--- --- -- ----- -- --- ---- -- --- ---- -- ------ ------<br>--- ----- -- ----,236647.70000001788,236646.5,236049.519,236064.40000000596,236066.485,236669.927,,12,says
screen,html.Screen,2_1_0_1_13,2022-02-15T15:15:20.142Z,,,,,,,,,,,,,,,,,53,,,,,,,,,,,,,,395.6729999940435,,response,,,,99,,,,,,,Space,keypress(Space),,,,,,,,---- -- ----- -- ------ - ------- --- ----------<br>------------- ------ ------ ---- that ------- ----- -- ----<br>-------- ------- -- ---------- --- - --- ----- ----- ----<br>---- --- --- ----- --- ---- ---- ------- ----- ---- -------<br>--- --- -- ----- -- --- ---- -- --- ---- -- ------ ------<br>--- ----- -- ----,237066.90000000596,237065.59999999404,236633.084,236648,236669.927,237083.176,,13,that
screen,html.Screen,2_1_0_1_14,2022-02-15T15:15:20.772Z,,,,,,,,,,,,,,,,,53,,,,,,,,,,,,,,612.6240000119142,,response,,,,99,,,,,,,Space,keypress(Space),,,,,,,,---- -- ----- -- ------ - ------- --- ----------<br>------------- ------ ------ ---- ---- feeling ----- -- ----<br>-------- ------- -- ---------- --- - --- ----- ----- ----<br>---- --- --- ----- --- ---- ---- ------- ----- ---- -------<br>--- --- -- ----- -- --- ---- -- --- ---- -- ------ ------<br>--- ----- -- ----,237697,237695.80000001192,237066.536,237067.20000001788,237083.176,237699.627,,14,feeling
screen,html.Screen,2_1_0_1_15,2022-02-15T15:15:21.161Z,,,,,,,,,,,,,,,,,53,,,,,,,,,,,,,,384.3729999999923,,response,,,,99,,,,,,,Space,keypress(Space),,,,,,,,---- -- ----- -- ------ - ------- --- ----------<br>------------- ------ ------ ---- ---- ------- close -- ----<br>-------- ------- -- ---------- --- - --- ----- ----- ----<br>---- --- --- ----- --- ---- ---- ------- ----- ---- -------<br>--- --- -- ----- -- --- ---- -- --- ---- -- ------ ------<br>--- ----- -- ----,238085.20000001788,238084,237682.972,237697.30000001192,237699.627,238099.687,,15,close
screen,html.Screen,2_1_0_1_16,2022-02-15T15:15:22.464Z,,,,,,,,,,,,,,,,,53,,,,,,,,,,,,,,1287.6130000119156,,response,,,,99,,,,,,,Space,keypress(Space),,,,,,,,---- -- ----- -- ------ - ------- --- ----------<br>------------- ------ ------ ---- ---- ------- ----- to ----<br>-------- ------- -- ---------- --- - --- ----- ----- ----<br>---- --- --- ----- --- ---- ---- ------- ----- ---- -------<br>--- --- -- ----- -- --- ---- -- --- ---- -- ------ ------<br>--- ----- -- ----,239388.59999999404,239387.30000001192,238083.018,238085.40000000596,238099.687,239399.425,,16,to
screen,html.Screen,2_1_0_1_17,2022-02-15T15:15:22.898Z,,,,,,,,,,,,,,,,,53,,,,,,,,,,,,,,421.77500001789303,,response,,,,99,,,,,,,Space,keypress(Space),,,,,,,,---- -- ----- -- ------ - ------- --- ----------<br>------------- ------ ------ ---- ---- ------- ----- -- your<br>-------- ------- -- ---------- --- - --- ----- ----- ----<br>---- --- --- ----- --- ---- ---- ------- ----- ---- -------<br>--- --- -- ----- -- --- ---- -- --- ---- -- ------ ------<br>--- ----- -- ----,239822.40000000596,239821.20000001788,239382.456,239388.80000001192,239399.425,239832.791,,17,your
screen,html.Screen,2_1_0_1_18,2022-02-15T15:15:23.352Z,,,,,,,,,,,,,,,,,53,,,,,,,,,,,,,,443.109000005963,,response,,,,99,,,,,,,Space,keypress(Space),,,,,,,,---- -- ----- -- ------ - ------- --- ----------<br>------------- ------ ------ ---- ---- ------- ----- -- ----<br>romantic ------- -- ---------- --- - --- ----- ----- ----<br>---- --- --- ----- --- ---- ---- ------- ----- ---- -------<br>--- --- -- ----- -- --- ---- -- --- ---- -- ------ ------<br>--- ----- -- ----,240277.09999999404,240275.90000000596,239816.118,239822.59999999404,239832.791,240282.618,,18,romantic
screen,html.Screen,2_1_0_1_19,2022-02-15T15:15:24.025Z,,,,,,,,,,,,,,,,,53,,,,,,,,,,,,,,666.0820000178937,,response,,,,99,,,,,,,Space,keypress(Space),,,,,,,,---- -- ----- -- ------ - ------- --- ----------<br>------------- ------ ------ ---- ---- ------- ----- -- ----<br>-------- partner -- ---------- --- - --- ----- ----- ----<br>---- --- --- ----- --- ---- ---- ------- ----- ---- -------<br>--- --- -- ----- -- --- ---- -- --- ---- -- ------ ------<br>--- ----- -- ----,240949.90000000596,240948.70000001788,240266.036,240277.40000000596,240282.618,240966.026,,19,partner
screen,html.Screen,2_1_0_1_20,2022-02-15T15:15:24.534Z,,,,,,,,,,,,,,,,,53,,,,,,,,,,,,,,491.6740000178688,,response,,,,99,,,,,,,Space,keypress(Space),,,,,,,,---- -- ----- -- ------ - ------- --- ----------<br>------------- ------ ------ ---- ---- ------- ----- -- ----<br>-------- ------- is ---------- --- - --- ----- ----- ----<br>---- --- --- ----- --- ---- ---- ------- ----- ---- -------<br>--- --- -- ----- -- --- ---- -- --- ---- -- ------ ------<br>--- ----- -- ----,241458.90000000596,241457.70000001788,240949.08,240950.20000001788,240966.026,241482.653,,20,is
screen,html.Screen,2_1_0_1_21,2022-02-15T15:15:25.198Z,,,,,,,,,,,,,,,,,53,,,,,,,,,,,,,,638.7470000059693,,response,,,,99,,,,,,,Space,keypress(Space),,,,,,,,---- -- ----- -- ------ - ------- --- ----------<br>------------- ------ ------ ---- ---- ------- ----- -- ----<br>-------- ------- -- paramount. --- - --- ----- ----- ----<br>---- --- --- ----- --- ---- ---- ------- ----- ---- -------<br>--- --- -- ----- -- --- ---- -- --- ---- -- ------ ------<br>--- ----- -- ----,242122.70000001788,242121.40000000596,241449.198,241459.20000001788,241482.653,242132.359,,21,paramount.
screen,html.Screen,2_1_0_1_22,2022-02-15T15:15:25.813Z,,,,,,,,,,,,,,,,,53,,,,,,,,,,,,,,603.9410000119242,,response,,,,99,,,,,,,Space,keypress(Space),,,,,,,,---- -- ----- -- ------ - ------- --- ----------<br>------------- ------ ------ ---- ---- ------- ----- -- ----<br>-------- ------- -- ---------- But - --- ----- ----- ----<br>---- --- --- ----- --- ---- ---- ------- ----- ---- -------<br>--- --- -- ----- -- --- ---- -- --- ---- -- ------ ------<br>--- ----- -- ----,242737.5,242736.30000001192,242115.749,242122.90000000596,242132.359,242749.111,,22,But
screen,html.Screen,2_1_0_1_23,2022-02-15T15:15:26.311Z,,,,,,,,,,,,,,,,,53,,,,,,,,,,,,,,484.9889999940351,,response,,,,99,,,,,,,Space,keypress(Space),,,,,,,,---- -- ----- -- ------ - ------- --- ----------<br>------------- ------ ------ ---- ---- ------- ----- -- ----<br>-------- ------- -- ---------- --- a --- ----- ----- ----<br>---- --- --- ----- --- ---- ---- ------- ----- ---- -------<br>--- --- -- ----- -- --- ---- -- --- ---- -- ------ ------<br>--- ----- -- ----,243235.5,243234.09999999404,242732.345,242737.70000001788,242749.111,243249.026,,23,a
screen,html.Screen,2_1_0_1_24,2022-02-15T15:15:26.815Z,,,,,,,,,,,,,,,,,53,,,,,,,,,,,,,,489.8740000059479,,response,,,,99,,,,,,,Space,keypress(Space),,,,,,,,---- -- ----- -- ------ - ------- --- ----------<br>------------- ------ ------ ---- ---- ------- ----- -- ----<br>-------- ------- -- ---------- --- - new ----- ----- ----<br>---- --- --- ----- --- ---- ---- ------- ----- ---- -------<br>--- --- -- ----- -- --- ---- -- --- ---- -- ------ ------<br>--- ----- -- ----,243740.09999999404,243738.90000000596,243232.198,243235.80000001192,243249.026,243748.8,,24,new
screen,html.Screen,2_1_0_1_25,2022-02-15T15:15:27.380Z,,,,,,,,,,,,,,,,,53,,,,,,,,,,,,,,554.6000000059721,,response,,,,99,,,,,,,Space,keypress(Space),,,,,,,,---- -- ----- -- ------ - ------- --- ----------<br>------------- ------ ------ ---- ---- ------- ----- -- ----<br>-------- ------- -- ---------- --- - --- study ----- ----<br>---- --- --- ----- --- ---- ---- ------- ----- ---- -------<br>--- --- -- ----- -- --- ---- -- --- ---- -- ------ ------<br>--- ----- -- ----,244304.70000001788,244303.40000000596,243732.104,243740.40000000596,243748.8,244315.544,,25,study
screen,html.Screen,2_1_0_1_26,2022-02-15T15:15:28.152Z,,,,,,,,,,,,,,,,,53,,,,,,,,,,,,,,759.856000005966,,response,,,,99,,,,,,,Space,keypress(Space),,,,,,,,---- -- ----- -- ------ - ------- --- ----------<br>------------- ------ ------ ---- ---- ------- ----- -- ----<br>-------- ------- -- ---------- --- - --- ----- finds ----<br>---- --- --- ----- --- ---- ---- ------- ----- ---- -------<br>--- --- -- ----- -- --- ---- -- --- ---- -- ------ ------<br>--- ----- -- ----,245076.59999999404,245075.40000000596,244298.809,244304.90000000596,244315.544,245081.996,,26,finds
screen,html.Screen,2_1_0_1_27,2022-02-15T15:15:28.711Z,,,,,,,,,,,,,,,,,53,,,,,,,,,,,,,,552.5039999999863,,response,,,,99,,,,,,,Space,keypress(Space),,,,,,,,---- -- ----- -- ------ - ------- --- ----------<br>------------- ------ ------ ---- ---- ------- ----- -- ----<br>-------- ------- -- ---------- --- - --- ----- ----- that<br>---- --- --- ----- --- ---- ---- ------- ----- ---- -------<br>--- --- -- ----- -- --- ---- -- --- ---- -- ------ ------<br>--- ----- -- ----,245635.70000001788,245634.5,245065.31,245076.80000001192,245081.996,245648.727,,27,that
screen,html.Screen,2_1_0_1_28,2022-02-15T15:15:29.355Z,,,,,,,,,,,,,,,,,53,,,,,,,,,,,,,,629.9730000178679,,response,,,,99,,,,,,,Space,keypress(Space),,,,,,,,---- -- ----- -- ------ - ------- --- ----------<br>------------- ------ ------ ---- ---- ------- ----- -- ----<br>-------- ------- -- ---------- --- - --- ----- ----- ----<br>it's --- --- ----- --- ---- ---- ------- ----- ---- -------<br>--- --- -- ----- -- --- ---- -- --- ---- -- ------ ------<br>--- ----- -- ----,246279.90000000596,246278.70000001788,245631.965,245635.90000000596,245648.727,246301.727,,28,it's
screen,html.Screen,2_1_0_1_29,2022-02-15T15:15:29.894Z,,,,,,,,,,,,,,,,,53,,,,,,,,,,,,,,515.372999994026,,response,,,,99,,,,,,,Space,keypress(Space),,,,,,,,---- -- ----- -- ------ - ------- --- ----------<br>------------- ------ ------ ---- ---- ------- ----- -- ----<br>-------- ------- -- ---------- --- - --- ----- ----- ----<br>---- not --- ----- --- ---- ---- ------- ----- ---- -------<br>--- --- -- ----- -- --- ---- -- --- ---- -- ------ ------<br>--- ----- -- ----,246818.40000000596,246817.09999999404,246265.201,246280.09999999404,246301.727,246831.938,,29,not
screen,html.Screen,2_1_0_1_30,2022-02-15T15:15:30.243Z,,,,,,,,,,,,,,,,,53,,,,,,,,,,,,,,334.56200000000536,,response,,,,99,,,,,,,Space,keypress(Space),,,,,,,,---- -- ----- -- ------ - ------- --- ----------<br>------------- ------ ------ ---- ---- ------- ----- -- ----<br>-------- ------- -- ---------- --- - --- ----- ----- ----<br>---- --- how ----- --- ---- ---- ------- ----- ---- -------<br>--- --- -- ----- -- --- ---- -- --- ---- -- ------ ------<br>--- ----- -- ----,247167.70000001788,247166.5,246815.121,246818.70000001788,246831.938,247181.891,,30,how
screen,html.Screen,2_1_0_1_31,2022-02-15T15:15:30.742Z,,,,,,,,,,,,,,,,,53,,,,,,,,,,,,,,483.7089999940363,,response,,,,99,,,,,,,Space,keypress(Space),,,,,,,,---- -- ----- -- ------ - ------- --- ----------<br>------------- ------ ------ ---- ---- ------- ----- -- ----<br>-------- ------- -- ---------- --- - --- ----- ----- ----<br>---- --- --- close --- ---- ---- ------- ----- ---- -------<br>--- --- -- ----- -- --- ---- -- --- ---- -- ------ ------<br>--- ----- -- ----,247666.80000001192,247665.59999999404,247165.438,247167.90000000596,247181.891,247681.806,,31,close
screen,html.Screen,2_1_0_1_32,2022-02-15T15:15:31.121Z,,,,,,,,,,,,,,,,,53,,,,,,,,,,,,,,363.09400000594906,,response,,,,99,,,,,,,Space,keypress(Space),,,,,,,,---- -- ----- -- ------ - ------- --- ----------<br>------------- ------ ------ ---- ---- ------- ----- -- ----<br>-------- ------- -- ---------- --- - --- ----- ----- ----<br>---- --- --- ----- you ---- ---- ------- ----- ---- -------<br>--- --- -- ----- -- --- ---- -- --- ---- -- ------ ------<br>--- ----- -- ----,248046.09999999404,248044.90000000596,247665.002,247667.09999999404,247681.806,248078.093,,32,you
screen,html.Screen,2_1_0_1_33,2022-02-15T15:15:31.465Z,,,,,,,,,,,,,,,,,53,,,,,,,,,,,,,,310.9070000000065,,response,,,,99,,,,,,,Space,keypress(Space),,,,,,,,---- -- ----- -- ------ - ------- --- ----------<br>------------- ------ ------ ---- ---- ------- ----- -- ----<br>-------- ------- -- ---------- --- - --- ----- ----- ----<br>---- --- --- ----- --- feel ---- ------- ----- ---- -------<br>--- --- -- ----- -- --- ---- -- --- ---- -- ------ ------<br>--- ----- -- ----,248390.09999999404,248389,248031.749,248046.30000001192,248078.093,248398.244,,33,feel
screen,html.Screen,2_1_0_1_34,2022-02-15T15:15:32.124Z,,,,,,,,,,,,,,,,,53,,,,,,,,,,,,,,649.5560000119149,,response,,,,99,,,,,,,Space,keypress(Space),,,,,,,,---- -- ----- -- ------ - ------- --- ----------<br>------------- ------ ------ ---- ---- ------- ----- -- ----<br>-------- ------- -- ---------- --- - --- ----- ----- ----<br>---- --- --- ----- --- ---- that ------- ----- ---- -------<br>--- --- -- ----- -- --- ---- -- --- ---- -- ------ ------<br>--- ----- -- ----,249048.90000000596,249047.80000001192,248381.672,248390.30000001192,248398.244,249064.991,,34,that
screen,html.Screen,2_1_0_1_35,2022-02-15T15:15:32.564Z,,,,,,,,,,,,,,,,,53,,,,,,,,,,,,,,422.2090000178723,,response,,,,99,,,,,,,Space,keypress(Space),,,,,,,,---- -- ----- -- ------ - ------- --- ----------<br>------------- ------ ------ ---- ---- ------- ----- -- ----<br>-------- ------- -- ---------- --- - --- ----- ----- ----<br>---- --- --- ----- --- ---- ---- matters ----- ---- -------<br>--- --- -- ----- -- --- ---- -- --- ---- -- ------ ------<br>--- ----- -- ----,249488.40000000596,249487.20000001788,249048.182,249049.09999999404,249064.991,249498.048,,35,matters
screen,html.Screen,2_1_0_1_36,2022-02-15T15:15:32.963Z,,,,,,,,,,,,,,,,,53,,,,,,,,,,,,,,388.1520000178716,,response,,,,99,,,,,,,Space,keypress(Space),,,,,,,,"---- -- ----- -- ------ - ------- --- ----------<br>------------- ------ ------ ---- ---- ------- ----- -- ----<br>-------- ------- -- ---------- --- - --- ----- ----- ----<br>---- --- --- ----- --- ---- ---- ------- most, ---- -------<br>--- --- -- ----- -- --- ---- -- --- ---- -- ------ ------<br>--- ----- -- ----",249887.5,249886.20000001788,249481.58,249488.90000000596,249498.048,249898.167,,36,"most,"
screen,html.Screen,2_1_0_1_37,2022-02-15T15:15:33.393Z,,,,,,,,,,,,,,,,,53,,,,,,,,,,,,,,418.53300001789466,,response,,,,99,,,,,,,Space,keypress(Space),,,,,,,,---- -- ----- -- ------ - ------- --- ----------<br>------------- ------ ------ ---- ---- ------- ----- -- ----<br>-------- ------- -- ---------- --- - --- ----- ----- ----<br>---- --- --- ----- --- ---- ---- ------- ----- it's -------<br>--- --- -- ----- -- --- ---- -- --- ---- -- ------ ------<br>--- ----- -- ----,250318,250316.70000001788,249881.43,249887.70000001788,249898.167,250331.455,,37,it's
screen,html.Screen,2_1_0_1_38,2022-02-15T15:15:33.886Z,,,,,,,,,,,,,,,,,53,,,,,,,,,,,,,,478.2450000178942,,response,,,,99,,,,,,,Space,keypress(Space),,,,,,,,---- -- ----- -- ------ - ------- --- ----------<br>------------- ------ ------ ---- ---- ------- ----- -- ----<br>-------- ------- -- ---------- --- - --- ----- ----- ----<br>---- --- --- ----- --- ---- ---- ------- ----- ---- whether<br>--- --- -- ----- -- --- ---- -- --- ---- -- ------ ------<br>--- ----- -- ----,250810.90000000596,250809.70000001788,250314.57,250318.30000001192,250331.455,250814.615,,38,whether
screen,html.Screen,2_1_0_1_39,2022-02-15T15:15:34.241Z,,,,,,,,,,,,,,,,,53,,,,,,,,,,,,,,349.2850000059698,,response,,,,99,,,,,,,Space,keypress(Space),,,,,,,,---- -- ----- -- ------ - ------- --- ----------<br>------------- ------ ------ ---- ---- ------- ----- -- ----<br>-------- ------- -- ---------- --- - --- ----- ----- ----<br>---- --- --- ----- --- ---- ---- ------- ----- ---- -------<br>you --- -- ----- -- --- ---- -- --- ---- -- ------ ------<br>--- ----- -- ----,251165.40000000596,251163.90000000596,250797.914,250811.20000001788,250814.615,251181.415,,39,you
screen,html.Screen,2_1_0_1_40,2022-02-15T15:15:34.610Z,,,,,,,,,,,,,,,,,53,,,,,,,,,,,,,,351.78500001787324,,response,,,,99,,,,,,,Space,keypress(Space),,,,,,,,---- -- ----- -- ------ - ------- --- ----------<br>------------- ------ ------ ---- ---- ------- ----- -- ----<br>-------- ------- -- ---------- --- - --- ----- ----- ----<br>---- --- --- ----- --- ---- ---- ------- ----- ---- -------<br>--- are -- ----- -- --- ---- -- --- ---- -- ------ ------<br>--- ----- -- ----,251534.40000000596,251533.20000001788,251164.648,251165.70000001788,251181.415,251548.007,,40,are
screen,html.Screen,2_1_0_1_41,2022-02-15T15:15:34.979Z,,,,,,,,,,,,,,,,,53,,,,,,,,,,,,,,354.49299999998766,,response,,,,99,,,,,,,Space,keypress(Space),,,,,,,,---- -- ----- -- ------ - ------- --- ----------<br>------------- ------ ------ ---- ---- ------- ----- -- ----<br>-------- ------- -- ---------- --- - --- ----- ----- ----<br>---- --- --- ----- --- ---- ---- ------- ----- ---- -------<br>--- --- as ----- -- --- ---- -- --- ---- -- ------ ------<br>--- ----- -- ----,251903.59999999404,251902.5,251531.307,251534.70000001788,251548.007,251914.429,,41,as
screen,html.Screen,2_1_0_1_42,2022-02-15T15:15:35.334Z,,,,,,,,,,,,,,,,,53,,,,,,,,,,,,,,343.1709999940358,,response,,,,99,,,,,,,Space,keypress(Space),,,,,,,,---- -- ----- -- ------ - ------- --- ----------<br>------------- ------ ------ ---- ---- ------- ----- -- ----<br>-------- ------- -- ---------- --- - --- ----- ----- ----<br>---- --- --- ----- --- ---- ---- ------- ----- ---- -------<br>--- --- -- close -- --- ---- -- --- ---- -- ------ ------<br>--- ----- -- ----,252258.80000001192,252257.59999999404,251897.888,251903.90000000596,251914.429,252264.35,,42,close
screen,html.Screen,2_1_0_1_43,2022-02-15T15:15:35.733Z,,,,,,,,,,,,,,,,,53,,,,,,,,,,,,,,391.7499999940337,,response,,,,99,,,,,,,Space,keypress(Space),,,,,,,,---- -- ----- -- ------ - ------- --- ----------<br>------------- ------ ------ ---- ---- ------- ----- -- ----<br>-------- ------- -- ---------- --- - --- ----- ----- ----<br>---- --- --- ----- --- ---- ---- ------- ----- ---- -------<br>--- --- -- ----- as --- ---- -- --- ---- -- ------ ------<br>--- ----- -- ----,252657.30000001192,252656.09999999404,252247.826,252259,252264.35,252664.326,,43,as
screen,html.Screen,2_1_0_1_44,2022-02-15T15:15:36.124Z,,,,,,,,,,,,,,,,,53,,,,,,,,,,,,,,387.07400000595953,,response,,,,99,,,,,,,Space,keypress(Space),,,,,,,,---- -- ----- -- ------ - ------- --- ----------<br>------------- ------ ------ ---- ---- ------- ----- -- ----<br>-------- ------- -- ---------- --- - --- ----- ----- ----<br>---- --- --- ----- --- ---- ---- ------- ----- ---- -------<br>--- --- -- ----- -- you ---- -- --- ---- -- ------ ------<br>--- ----- -- ----,253052.5,253051.40000000596,252647.778,252657.59999999404,252664.326,253064.233,,44,you
screen,html.Screen,2_1_0_1_45,2022-02-15T15:15:36.552Z,,,,,,,,,,,,,,,,,53,,,,,,,,,,,,,,415.0670000119135,,response,,,,99,,,,,,,Space,keypress(Space),,,,,,,,---- -- ----- -- ------ - ------- --- ----------<br>------------- ------ ------ ---- ---- ------- ----- -- ----<br>-------- ------- -- ---------- --- - --- ----- ----- ----<br>---- --- --- ----- --- ---- ---- ------- ----- ---- -------<br>--- --- -- ----- -- --- want -- --- ---- -- ------ ------<br>--- ----- -- ----,253480.59999999404,253479.30000001192,253047.556,253052.80000001192,253064.233,253497.687,,45,want
screen,html.Screen,2_1_0_1_46,2022-02-15T15:15:36.882Z,,,,,,,,,,,,,,,,,53,,,,,,,,,,,,,,312.51300001787604,,response,,,,99,,,,,,,Space,keypress(Space),,,,,,,,---- -- ----- -- ------ - ------- --- ----------<br>------------- ------ ------ ---- ---- ------- ----- -- ----<br>-------- ------- -- ---------- --- - --- ----- ----- ----<br>---- --- --- ----- --- ---- ---- ------- ----- ---- -------<br>--- --- -- ----- -- --- ---- to --- ---- -- ------ ------<br>--- ----- -- ----,253811.30000001192,253810.20000001788,253480.956,253480.90000000596,253497.687,253814.251,,46,to
screen,html.Screen,2_1_0_1_47,2022-02-15T15:15:37.191Z,,,,,,,,,,,,,,,,,53,,,,,,,,,,,,,,303.9490000178921,,response,,,,99,,,,,,,Space,keypress(Space),,,,,,,,"---- -- ----- -- ------ - ------- --- ----------<br>------------- ------ ------ ---- ---- ------- ----- -- ----<br>-------- ------- -- ---------- --- - --- ----- ----- ----<br>---- --- --- ----- --- ---- ---- ------- ----- ---- -------<br>--- --- -- ----- -- --- ---- -- be, ---- -- ------ ------<br>--- ----- -- ----",254119.40000000596,254118.20000001788,253797.537,253811.5,253814.251,254130.929,,47,"be,"
screen,html.Screen,2_1_0_1_48,2022-02-15T15:15:37.965Z,,,,,,,,,,,,,,,,,53,,,,,,,,,,,,,,761.2710000178777,,response,,,,99,,,,,,,Space,keypress(Space),,,,,,,,---- -- ----- -- ------ - ------- --- ----------<br>------------- ------ ------ ---- ---- ------- ----- -- ----<br>-------- ------- -- ---------- --- - --- ----- ----- ----<br>---- --- --- ----- --- ---- ---- ------- ----- ---- -------<br>--- --- -- ----- -- --- ---- -- --- even -- ------ ------<br>--- ----- -- ----,254893.30000001192,254892.20000001788,254114.273,254119.59999999404,254130.929,254897.436,,48,even
screen,html.Screen,2_1_0_1_49,2022-02-15T15:15:38.349Z,,,,,,,,,,,,,,,,,53,,,,,,,,,,,,,,378.76400001789443,,response,,,,99,,,,,,,Space,keypress(Space),,,,,,,,---- -- ----- -- ------ - ------- --- ----------<br>------------- ------ ------ ---- ---- ------- ----- -- ----<br>-------- ------- -- ---------- --- - --- ----- ----- ----<br>---- --- --- ----- --- ---- ---- ------- ----- ---- -------<br>--- --- -- ----- -- --- ---- -- --- ---- if ------ ------<br>--- ----- -- ----,255277.40000000596,255276.20000001788,254880.703,254893.59999999404,254897.436,255280.74,,49,if
screen,html.Screen,2_1_0_1_50,2022-02-15T15:15:38.738Z,,,,,,,,,,,,,,,,,53,,,,,,,,,,,,,,385.35999999404885,,response,,,,99,,,,,,,Space,keypress(Space),,,,,,,,---- -- ----- -- ------ - ------- --- ----------<br>------------- ------ ------ ---- ---- ------- ----- -- ----<br>-------- ------- -- ---------- --- - --- ----- ----- ----<br>---- --- --- ----- --- ---- ---- ------- ----- ---- -------<br>--- --- -- ----- -- --- ---- -- --- ---- -- that's ------<br>--- ----- -- ----,255667.30000001192,255666.09999999404,255264.09,255277.70000001788,255280.74,255680.819,,50,that's
screen,html.Screen,2_1_0_1_51,2022-02-15T15:15:39.177Z,,,,,,,,,,,,,,,,,53,,,,,,,,,,,,,,423.78099999405094,,response,,,,99,,,,,,,Space,keypress(Space),,,,,,,,---- -- ----- -- ------ - ------- --- ----------<br>------------- ------ ------ ---- ---- ------- ----- -- ----<br>-------- ------- -- ---------- --- - --- ----- ----- ----<br>---- --- --- ----- --- ---- ---- ------- ----- ---- -------<br>--- --- -- ----- -- --- ---- -- --- ---- -- ------ really<br>--- ----- -- ----,256105.80000001192,256104.59999999404,255664.046,255667.5,255680.819,256113.934,,51,really
screen,html.Screen,2_1_0_1_52,2022-02-15T15:15:39.606Z,,,,,,,,,,,,,,,,,53,,,,,,,,,,,,,,420.0659999999916,,response,,,,99,,,,,,,Space,keypress(Space),,,,,,,,---- -- ----- -- ------ - ------- --- ----------<br>------------- ------ ------ ---- ---- ------- ----- -- ----<br>-------- ------- -- ---------- --- - --- ----- ----- ----<br>---- --- --- ----- --- ---- ---- ------- ----- ---- -------<br>--- --- -- ----- -- --- ---- -- --- ---- -- ------ ------<br>not ----- -- ----,256535.20000001788,256534,256097.194,256106.09999999404,256113.934,256547.286,,52,not
screen,html.Screen,2_1_0_1_53,2022-02-15T15:15:40.000Z,,,,,,,,,,,,,,,,,53,,,,,,,,,,,,,,380.51400001192815,,response,,,,99,,,,,,,Space,keypress(Space),,,,,,,,---- -- ----- -- ------ - ------- --- ----------<br>------------- ------ ------ ---- ---- ------- ----- -- ----<br>-------- ------- -- ---------- --- - --- ----- ----- ----<br>---- --- --- ----- --- ---- ---- ------- ----- ---- -------<br>--- --- -- ----- -- --- ---- -- --- ---- -- ------ ------<br>--- close -- ----,256929,256927.80000001192,256530.629,256535.5,256547.286,256956.049,,53,close
screen,html.Screen,2_1_0_1_54,2022-02-15T15:15:40.459Z,,,,,,,,,,,,,,,,,53,,,,,,,,,,,,,,430.95100000000093,,response,,,,99,,,,,,,Space,keypress(Space),,,,,,,,---- -- ----- -- ------ - ------- --- ----------<br>------------- ------ ------ ---- ---- ------- ----- -- ----<br>-------- ------- -- ---------- --- - --- ----- ----- ----<br>---- --- --- ----- --- ---- ---- ------- ----- ---- -------<br>--- --- -- ----- -- --- ---- -- --- ---- -- ------ ------<br>--- ----- at ----,257388.09999999404,257387,256913.845,256929.20000001788,256956.049,257397.079,,54,at
screen,html.Screen,2_1_0_1_55,2022-02-15T15:15:41.677Z,,,,,,,,,,,,,,,,,53,,,,,,,,,,,,,,1207.6210000178835,,response,,,,99,,,,,,,Space,keypress(Space),,,,,,,,---- -- ----- -- ------ - ------- --- ----------<br>------------- ------ ------ ---- ---- ------- ----- -- ----<br>-------- ------- -- ---------- --- - --- ----- ----- ----<br>---- --- --- ----- --- ---- ---- ------- ----- ---- -------<br>--- --- -- ----- -- --- ---- -- --- ---- -- ------ ------<br>--- ----- -- all.,258605.90000000596,258604.70000001788,257380.539,257388.40000000596,257397.079,258613.63,,55,all.
Item 99,flow.Loop,2_1_0_1,2022-02-15T15:15:41.678Z,,,,,,,,,,,,,,,,,,,,,,,,,,,,,,,30370.59700001788,,completion,,,,,F,,,,,,,,,,,silence,,,,,258606.70000001788,258604.70000001788,228201.111,228202.59999999404,228234.103,258613.63,,,
Question 1,html.Screen,2_1_0_2,2022-02-15T15:15:55.928Z,,,,,,,,,,,,,,,,,,,,,,,,,,,,true,FALSE,,14242.270000005956,,response,,,,99,F,,,,,,FALSE,click #choice-2,,,,silence,,,,,272856.90000000596,272855.90000000596,258596.516,258607.20000001788,258613.63,272861.713,,,
Question 2,html.Screen,2_1_0_3,2022-02-15T15:16:01.132Z,,,,,,,,,,,,,,,,,,,,,,,,,,,,true,TRUE,,5198.587000011932,,response,,,,99,F,,,,,,TRUE,click #choice-1,,,,silence,,,,,278061.2000000179,278060.3000000119,272845.064,272857.2000000179,272861.713,278077.748,,,
Item 99,flow.Sequence,2_1_0,2022-02-15T15:16:01.133Z,,,,,,,,,,,,,,,,,,,,,,,,,,,,,,,59841.57200001192,,completion,,,,,,,,,,,,,,,,,,,,,278061.5,278060.3000000119,218202.082,218210.20000001788,218218.728,278077.748,,,
Holding screen,html.Screen,2_1_1_0,2022-02-15T15:16:11.132Z,,,,,,,,,,,,,,,,,,,,,,,,,,,,,,,9998.714999999967,,timeout,,,,,,,,,,,,,,,,,,,,,288061.09999999404,288060.027,278061.063,278061.7000000179,278077.748,288076.463,,,
screen,html.Screen,2_1_1_1_0,2022-02-15T15:16:12.150Z,,,,,,,,,,,,,,,,,54,,,,,,,,,,,,,,1001.5370000000112,,response,,,,100,,,,,,,Space,keypress(Space),,,,,,,,At --- ---- --- ------ ----- ------- ---- -- --- ------- --<br>------- ---------- ------ -- ----- -- ----- -- ---- ------<br>--- ----- --- --- ------ -------- ----- --- ------ ----- --<br>----- ----- ---------- --- --- ------ ------ ---- -- ------<br>------- --- ------ ----- --- ---- ------- -- ---- --- --<br>------- ------,289079.2000000179,289078,288060.027,288061.40000000596,288076.463,289093.147,,0,At
screen,html.Screen,2_1_1_1_1,2022-02-15T15:16:12.560Z,,,,,,,,,,,,,,,,,54,,,,,,,,,,,,,,394.8530000000028,,response,,,,100,,,,,,,Space,keypress(Space),,,,,,,,-- the ---- --- ------ ----- ------- ---- -- --- ------- --<br>------- ---------- ------ -- ----- -- ----- -- ---- ------<br>--- ----- --- --- ------ -------- ----- --- ------ ----- --<br>----- ----- ---------- --- --- ------ ------ ---- -- ------<br>------- --- ------ ----- --- ---- ------- -- ---- --- --<br>------- ------,289489.2000000179,289488,289076.18,289079.59999999404,289093.147,289492.958,,1,the
screen,html.Screen,2_1_1_1_2,2022-02-15T15:16:12.929Z,,,,,,,,,,,,,,,,,54,,,,,,,,,,,,,,363.54200000001583,,response,,,,100,,,,,,,Space,keypress(Space),,,,,,,,-- --- time --- ------ ----- ------- ---- -- --- ------- --<br>------- ---------- ------ -- ----- -- ----- -- ---- ------<br>--- ----- --- --- ------ -------- ----- --- ------ ----- --<br>----- ----- ---------- --- --- ------ ------ ---- -- ------<br>------- --- ------ ----- --- ---- ------- -- ---- --- --<br>------- ------,289857.7000000179,289856.5,289476.401,289489.5,289492.958,289888.708,,2,time
screen,html.Screen,2_1_1_1_3,2022-02-15T15:16:13.298Z,,,,,,,,,,,,,,,,,54,,,,,,,,,,,,,,337.09200001193676,,response,,,,100,,,,,,,Space,keypress(Space),,,,,,,,-- --- ---- the ------ ----- ------- ---- -- --- ------- --<br>------- ---------- ------ -- ----- -- ----- -- ---- ------<br>--- ----- --- --- ------ -------- ----- --- ------ ----- --<br>----- ----- ---------- --- --- ------ ------ ---- -- ------<br>------- --- ------ ----- --- ---- ------- -- ---- --- --<br>------- ------,290227.09999999404,290225.8000000119,289842.874,289858,289888.708,290243.026,,3,the
screen,html.Screen,2_1_1_1_4,2022-02-15T15:16:13.798Z,,,,,,,,,,,,,,,,,54,,,,,,,,,,,,,,482.6740000178688,,response,,,,100,,,,,,,Space,keypress(Space),,,,,,,,-- --- ---- --- French ----- ------- ---- -- --- ------- --<br>------- ---------- ------ -- ----- -- ----- -- ---- ------<br>--- ----- --- --- ------ -------- ----- --- ------ ----- --<br>----- ----- ---------- --- --- ------ ------ ---- -- ------<br>------- --- ------ ----- --- ---- ------- -- ---- --- --<br>------- ------,290726.90000000596,290725.7000000179,290226.335,290227.40000000596,290243.026,290743.014,,4,French
screen,html.Screen,2_1_1_1_5,2022-02-15T15:16:14.248Z,,,,,,,,,,,,,,,,,54,,,,,,,,,,,,,,432.3860000059358,,response,,,,100,,,,,,,Space,keypress(Space),,,,,,,,-- --- ---- --- ------ crown ------- ---- -- --- ------- --<br>------- ---------- ------ -- ----- -- ----- -- ---- ------<br>--- ----- --- --- ------ -------- ----- --- ------ ----- --<br>----- ----- ---------- --- --- ------ ------ ---- -- ------<br>------- --- ------ ----- --- ---- ------- -- ---- --- --<br>------- ------,291176.7000000179,291175.40000000596,290726.219,290727.2000000179,290743.014,291192.813,,5,crown
screen,html.Screen,2_1_1_1_6,2022-02-15T15:16:14.716Z,,,,,,,,,,,,,,,,,54,,,,,,,,,,,,,,450.88700001785764,,response,,,,100,,,,,,,Space,keypress(Space),,,,,,,,-- --- ---- --- ------ ----- secured ---- -- --- ------- --<br>------- ---------- ------ -- ----- -- ----- -- ---- ------<br>--- ----- --- --- ------ -------- ----- --- ------ ----- --<br>----- ----- ---------- --- --- ------ ------ ---- -- ------<br>------- --- ------ ----- --- ---- ------- -- ---- --- --<br>------- ------,291645.09999999404,291643.7000000179,291176.155,291177.09999999404,291192.813,291659.551,,6,secured
screen,html.Screen,2_1_1_1_7,2022-02-15T15:16:15.087Z,,,,,,,,,,,,,,,,,54,,,,,,,,,,,,,,355.3490000059828,,response,,,,100,,,,,,,Space,keypress(Space),,,,,,,,-- --- ---- --- ------ ----- ------- much -- --- ------- --<br>------- ---------- ------ -- ----- -- ----- -- ---- ------<br>--- ----- --- --- ------ -------- ----- --- ------ ----- --<br>----- ----- ---------- --- --- ------ ------ ---- -- ------<br>------- --- ------ ----- --- ---- ------- -- ---- --- --<br>------- ------,292016,292014.90000000596,291642.691,291645.40000000596,291659.551,292025.968,,7,much
screen,html.Screen,2_1_1_1_8,2022-02-15T15:16:15.429Z,,,,,,,,,,,,,,,,,54,,,,,,,,,,,,,,330.432000005967,,response,,,,100,,,,,,,Space,keypress(Space),,,,,,,,-- --- ---- --- ------ ----- ------- ---- of --- ------- --<br>------- ---------- ------ -- ----- -- ----- -- ---- ------<br>--- ----- --- --- ------ -------- ----- --- ------ ----- --<br>----- ----- ---------- --- --- ------ ------ ---- -- ------<br>------- --- ------ ----- --- ---- ------- -- ---- --- --<br>------- ------,292357.5,292356.40000000596,292009.459,292016.3000000119,292025.968,292385.73,,8,of
screen,html.Screen,2_1_1_1_9,2022-02-15T15:16:15.739Z,,,,,,,,,,,,,,,,,54,,,,,,,,,,,,,,280.4700000179,,response,,,,100,,,,,,,Space,keypress(Space),,,,,,,,-- --- ---- --- ------ ----- ------- ---- -- its ------- --<br>------- ---------- ------ -- ----- -- ----- -- ---- ------<br>--- ----- --- --- ------ -------- ----- --- ------ ----- --<br>----- ----- ---------- --- --- ------ ------ ---- -- ------<br>------- --- ------ ----- --- ---- ------- -- ---- --- --<br>------- ------,292667.40000000596,292666.2000000179,292342.694,292357.8000000119,292385.73,292675.895,,9,its
screen,html.Screen,2_1_1_1_10,2022-02-15T15:16:16.323Z,,,,,,,,,,,,,,,,,54,,,,,,,,,,,,,,574.8050000178628,,response,,,,100,,,,,,,Space,keypress(Space),,,,,,,,-- --- ---- --- ------ ----- ------- ---- -- --- revenue --<br>------- ---------- ------ -- ----- -- ----- -- ---- ------<br>--- ----- --- --- ------ -------- ----- --- ------ ----- --<br>----- ----- ---------- --- --- ------ ------ ---- -- ------<br>------- --- ------ ----- --- ---- ------- -- ---- --- --<br>------- ------,293251.90000000596,293250.7000000179,292659.357,292667.59999999404,292675.895,293259.177,,10,revenue
screen,html.Screen,2_1_1_1_11,2022-02-15T15:16:16.907Z,,,,,,,,,,,,,,,,,54,,,,,,,,,,,,,,575.5230000178562,,response,,,,100,,,,,,,Space,keypress(Space),,,,,,,,-- --- ---- --- ------ ----- ------- ---- -- --- ------- by<br>------- ---------- ------ -- ----- -- ----- -- ---- ------<br>--- ----- --- --- ------ -------- ----- --- ------ ----- --<br>----- ----- ---------- --- --- ------ ------ ---- -- ------<br>------- --- ------ ----- --- ---- ------- -- ---- --- --<br>------- ------,293835.90000000596,293834.7000000179,293242.579,293252.2000000179,293259.177,293842.404,,11,by
screen,html.Screen,2_1_1_1_12,2022-02-15T15:16:17.410Z,,,,,,,,,,,,,,,,,54,,,,,,,,,,,,,,495.49600000598,,response,,,,100,,,,,,,Space,keypress(Space),,,,,,,,-- --- ---- --- ------ ----- ------- ---- -- --- ------- --<br>issuing ---------- ------ -- ----- -- ----- -- ---- ------<br>--- ----- --- --- ------ -------- ----- --- ------ ----- --<br>----- ----- ---------- --- --- ------ ------ ---- -- ------<br>------- --- ------ ----- --- ---- ------- -- ---- --- --<br>------- ------,294339.09999999404,294337.90000000596,293826.004,293836.09999999404,293842.404,294342.389,,12,issuing
screen,html.Screen,2_1_1_1_13,2022-02-15T15:16:17.894Z,,,,,,,,,,,,,,,,,54,,,,,,,,,,,,,,479.71099999401486,,response,,,,100,,,,,,,Space,keypress(Space),,,,,,,,-- --- ---- --- ------ ----- ------- ---- -- --- ------- --<br>------- government ------ -- ----- -- ----- -- ---- ------<br>--- ----- --- --- ------ -------- ----- --- ------ ----- --<br>----- ----- ---------- --- --- ------ ------ ---- -- ------<br>------- --- ------ ----- --- ---- ------- -- ---- --- --<br>------- ------,294823.3000000119,294822.09999999404,294325.749,294339.40000000596,294342.389,294825.647,,13,government
screen,html.Screen,2_1_1_1_14,2022-02-15T15:16:19.352Z,,,,,,,,,,,,,,,,,54,,,,,,,,,,,,,,1453.7530000059633,,response,,,,100,,,,,,,Space,keypress(Space),,,,,,,,-- --- ---- --- ------ ----- ------- ---- -- --- ------- --<br>------- ---------- bonds. -- ----- -- ----- -- ---- ------<br>--- ----- --- --- ------ -------- ----- --- ------ ----- --<br>----- ----- ---------- --- --- ------ ------ ---- -- ------<br>------- --- ------ ----- --- ---- ------- -- ---- --- --<br>------- ------,296280.59999999404,296279.40000000596,294809.044,294823.5,294825.647,296292.212,,14,bonds.
screen,html.Screen,2_1_1_1_15,2022-02-15T15:16:19.842Z,,,,,,,,,,,,,,,,,54,,,,,,,,,,,,,,477.38799999404,,response,,,,100,,,,,,,Space,keypress(Space),,,,,,,,-- --- ---- --- ------ ----- ------- ---- -- --- ------- --<br>------- ---------- ------ In ----- -- ----- -- ---- ------<br>--- ----- --- --- ------ -------- ----- --- ------ ----- --<br>----- ----- ---------- --- --- ------ ------ ---- -- ------<br>------- --- ------ ----- --- ---- ------- -- ---- --- --<br>------- ------,296770.59999999404,296769.59999999404,296275.186,296280.8000000119,296292.212,296775.401,,15,In
screen,html.Screen,2_1_1_1_16,2022-02-15T15:16:38.589Z,,,,,,,,,,,,,,,,,54,,,,,,,,,,,,,,18738.29900001787,,response,,,,100,,,,,,,Space,keypress(Space),,,,,,,,"-- --- ---- --- ------ ----- ------- ---- -- --- ------- --<br>------- ---------- ------ -- 1727, -- ----- -- ---- ------<br>--- ----- --- --- ------ -------- ----- --- ------ ----- --<br>----- ----- ---------- --- --- ------ ------ ---- -- ------<br>------- --- ------ ----- --- ---- ------- -- ---- --- --<br>------- ------",315514.8000000119,315513.7000000179,296758.609,296771,296775.401,315522.907,,16,"1727,"
screen,html.Screen,2_1_1_1_17,2022-02-15T15:16:39.077Z,,,,,,,,,,,,,,,,,54,,,,,,,,,,,,,,479.2930000178749,,response,,,,100,,,,,,,Space,keypress(Space),,,,,,,,-- --- ---- --- ------ ----- ------- ---- -- --- ------- --<br>------- ---------- ------ -- ----- in ----- -- ---- ------<br>--- ----- --- --- ------ -------- ----- --- ------ ----- --<br>----- ----- ---------- --- --- ------ ------ ---- -- ------<br>------- --- ------ ----- --- ---- ------- -- ---- --- --<br>------- ------,316003.3000000119,316002.2000000179,315500.333,315515.09999999404,315522.907,316006.277,,17,in
screen,html.Screen,2_1_1_1_18,2022-02-15T15:16:39.576Z,,,,,,,,,,,,,,,,,54,,,,,,,,,,,,,,494.72299999999814,,response,,,,100,,,,,,,Space,keypress(Space),,,,,,,,-- --- ---- --- ------ ----- ------- ---- -- --- ------- --<br>------- ---------- ------ -- ----- -- order -- ---- ------<br>--- ----- --- --- ------ -------- ----- --- ------ ----- --<br>----- ----- ---------- --- --- ------ ------ ---- -- ------<br>------- --- ------ ----- --- ---- ------- -- ---- --- --<br>------- ------,316502.2000000179,316501,315989.554,316003.7000000179,316006.277,316506.23,,18,order
screen,html.Screen,2_1_1_1_19,2022-02-15T15:16:40.044Z,,,,,,,,,,,,,,,,,54,,,,,,,,,,,,,,462.6700000059791,,response,,,,100,,,,,,,Space,keypress(Space),,,,,,,,-- --- ---- --- ------ ----- ------- ---- -- --- ------- --<br>------- ---------- ------ -- ----- -- ----- to ---- ------<br>--- ----- --- --- ------ -------- ----- --- ------ ----- --<br>----- ----- ---------- --- --- ------ ------ ---- -- ------<br>------- --- ------ ----- --- ---- ------- -- ---- --- --<br>------- ------,316970.09999999404,316968.90000000596,316489.55,316502.40000000596,316506.23,316972.785,,19,to
screen,html.Screen,2_1_1_1_20,2022-02-15T15:16:40.589Z,,,,,,,,,,,,,,,,,54,,,,,,,,,,,,,,541.0150000119465,,response,,,,100,,,,,,,Space,keypress(Space),,,,,,,,-- --- ---- --- ------ ----- ------- ---- -- --- ------- --<br>------- ---------- ------ -- ----- -- ----- -- save ------<br>--- ----- --- --- ------ -------- ----- --- ------ ----- --<br>----- ----- ---------- --- --- ------ ------ ---- -- ------<br>------- --- ------ ----- --- ---- ------- -- ---- --- --<br>------- ------,317515,317513.8000000119,316956.149,316970.40000000596,316972.785,317522.715,,20,save
screen,html.Screen,2_1_1_1_21,2022-02-15T15:16:41.188Z,,,,,,,,,,,,,,,,,54,,,,,,,,,,,,,,589.8849999940139,,response,,,,100,,,,,,,Space,keypress(Space),,,,,,,,"-- --- ---- --- ------ ----- ------- ---- -- --- ------- --<br>------- ---------- ------ -- ----- -- ----- -- ---- money,<br>--- ----- --- --- ------ -------- ----- --- ------ ----- --<br>----- ----- ---------- --- --- ------ ------ ---- -- ------<br>------- --- ------ ----- --- ---- ------- -- ---- --- --<br>------- ------",318113.8000000119,318112.59999999404,317505.97,317515.3000000119,317522.715,318122.689,,21,"money,"
screen,html.Screen,2_1_1_1_22,2022-02-15T15:16:41.678Z,,,,,,,,,,,,,,,,,54,,,,,,,,,,,,,,480.01100001786835,,response,,,,100,,,,,,,Space,keypress(Space),,,,,,,,-- --- ---- --- ------ ----- ------- ---- -- --- ------- --<br>------- ---------- ------ -- ----- -- ----- -- ---- ------<br>the ----- --- --- ------ -------- ----- --- ------ ----- --<br>----- ----- ---------- --- --- ------ ------ ---- -- ------<br>------- --- ------ ----- --- ---- ------- -- ---- --- --<br>------- ------,318603.90000000596,318602.7000000179,318106.133,318114,318122.689,318628.124,,22,the
screen,html.Screen,2_1_1_1_23,2022-02-15T15:16:42.371Z,,,,,,,,,,,,,,,,,54,,,,,,,,,,,,,,667.5760000178707,,response,,,,100,,,,,,,Space,keypress(Space),,,,,,,,-- --- ---- --- ------ ----- ------- ---- -- --- ------- --<br>------- ---------- ------ -- ----- -- ----- -- ---- ------<br>--- state --- --- ------ -------- ----- --- ------ ----- --<br>----- ----- ---------- --- --- ------ ------ ---- -- ------<br>------- --- ------ ----- --- ---- ------- -- ---- --- --<br>------- ------,319296.8000000119,319295.7000000179,318589.084,318604.09999999404,318628.124,319305.818,,23,state
screen,html.Screen,2_1_1_1_24,2022-02-15T15:16:42.755Z,,,,,,,,,,,,,,,,,54,,,,,,,,,,,,,,374.28199999401113,,response,,,,100,,,,,,,Space,keypress(Space),,,,,,,,-- --- ---- --- ------ ----- ------- ---- -- --- ------- --<br>------- ---------- ------ -- ----- -- ----- -- ---- ------<br>--- ----- cut --- ------ -------- ----- --- ------ ----- --<br>----- ----- ---------- --- --- ------ ------ ---- -- ------<br>------- --- ------ ----- --- ---- ------- -- ---- --- --<br>------- ------,319681.40000000596,319680.09999999404,319289.138,319297,319305.818,319689.371,,24,cut
screen,html.Screen,2_1_1_1_25,2022-02-15T15:16:43.154Z,,,,,,,,,,,,,,,,,54,,,,,,,,,,,,,,389.9290000119363,,response,,,,100,,,,,,,Space,keypress(Space),,,,,,,,-- --- ---- --- ------ ----- ------- ---- -- --- ------- --<br>------- ---------- ------ -- ----- -- ----- -- ---- ------<br>--- ----- --- the ------ -------- ----- --- ------ ----- --<br>----- ----- ---------- --- --- ------ ------ ---- -- ------<br>------- --- ------ ----- --- ---- ------- -- ---- --- --<br>------- ------,320080.59999999404,320079.3000000119,319672.494,319681.7000000179,319689.371,320089.045,,25,the
screen,html.Screen,2_1_1_1_26,2022-02-15T15:16:43.648Z,,,,,,,,,,,,,,,,,54,,,,,,,,,,,,,,484.1550000178977,,response,,,,100,,,,,,,Space,keypress(Space),,,,,,,,-- --- ---- --- ------ ----- ------- ---- -- --- ------- --<br>------- ---------- ------ -- ----- -- ----- -- ---- ------<br>--- ----- --- --- bonds' -------- ----- --- ------ ----- --<br>----- ----- ---------- --- --- ------ ------ ---- -- ------<br>------- --- ------ ----- --- ---- ------- -- ---- --- --<br>------- ------,320574.40000000596,320573.2000000179,320072.424,320080.8000000119,320089.045,320589.157,,26,bonds'
screen,html.Screen,2_1_1_1_27,2022-02-15T15:16:44.088Z,,,,,,,,,,,,,,,,,54,,,,,,,,,,,,,,423.3429999999935,,response,,,,100,,,,,,,Space,keypress(Space),,,,,,,,-- --- ---- --- ------ ----- ------- ---- -- --- ------- --<br>------- ---------- ------ -- ----- -- ----- -- ---- ------<br>--- ----- --- --- ------ interest ----- --- ------ ----- --<br>----- ----- ---------- --- --- ------ ------ ---- -- ------<br>------- --- ------ ----- --- ---- ------- -- ---- --- --<br>------- ------,321013.8000000119,321012.5,320572.297,320574.7000000179,320589.157,321022.28,,27,interest
screen,html.Screen,2_1_1_1_28,2022-02-15T15:16:44.522Z,,,,,,,,,,,,,,,,,54,,,,,,,,,,,,,,424.21999999997206,,response,,,,100,,,,,,,Space,keypress(Space),,,,,,,,-- --- ---- --- ------ ----- ------- ---- -- --- ------- --<br>------- ---------- ------ -- ----- -- ----- -- ---- ------<br>--- ----- --- --- ------ -------- rate. --- ------ ----- --<br>----- ----- ---------- --- --- ------ ------ ---- -- ------<br>------- --- ------ ----- --- ---- ------- -- ---- --- --<br>------- ------,321447.59999999404,321446.5,321005.651,321014.09999999404,321022.28,321455.463,,28,rate.
screen,html.Screen,2_1_1_1_29,2022-02-15T15:16:45.974Z,,,,,,,,,,,,,,,,,54,,,,,,,,,,,,,,1443.0370000000112,,response,,,,100,,,,,,,Space,keypress(Space),,,,,,,,-- --- ---- --- ------ ----- ------- ---- -- --- ------- --<br>------- ---------- ------ -- ----- -- ----- -- ---- ------<br>--- ----- --- --- ------ -------- ----- The ------ ----- --<br>----- ----- ---------- --- --- ------ ------ ---- -- ------<br>------- --- ------ ----- --- ---- ------- -- ---- --- --<br>------- ------,322899.8000000119,322898.5,321438.947,321447.90000000596,321455.463,322905.354,,29,The
screen,html.Screen,2_1_1_1_30,2022-02-15T15:16:46.568Z,,,,,,,,,,,,,,,,,54,,,,,,,,,,,,,,587.2459999940475,,response,,,,100,,,,,,,Space,keypress(Space),,,,,,,,-- --- ---- --- ------ ----- ------- ---- -- --- ------- --<br>------- ---------- ------ -- ----- -- ----- -- ---- ------<br>--- ----- --- --- ------ -------- ----- --- market ----- --<br>----- ----- ---------- --- --- ------ ------ ---- -- ------<br>------- --- ------ ----- --- ---- ------- -- ---- --- --<br>------- ------,323493.8000000119,323492.59999999404,322888.313,322900.09999999404,322905.354,323505.226,,30,market
screen,html.Screen,2_1_1_1_31,2022-02-15T15:16:46.912Z,,,,,,,,,,,,,,,,,54,,,,,,,,,,,,,,332.2739999999758,,response,,,,100,,,,,,,Space,keypress(Space),,,,,,,,-- --- ---- --- ------ ----- ------- ---- -- --- ------- --<br>------- ---------- ------ -- ----- -- ----- -- ---- ------<br>--- ----- --- --- ------ -------- ----- --- ------ value --<br>----- ----- ---------- --- --- ------ ------ ---- -- ------<br>------- --- ------ ----- --- ---- ------- -- ---- --- --<br>------- ------,323838.59999999404,323837.5,323488.582,323494,323505.226,323855.423,,31,value
screen,html.Screen,2_1_1_1_32,2022-02-15T15:16:47.317Z,,,,,,,,,,,,,,,,,54,,,,,,,,,,,,,,386.2770000178716,,response,,,,100,,,,,,,Space,keypress(Space),,,,,,,,-- --- ---- --- ------ ----- ------- ---- -- --- ------- --<br>------- ---------- ------ -- ----- -- ----- -- ---- ------<br>--- ----- --- --- ------ -------- ----- --- ------ ----- of<br>----- ----- ---------- --- --- ------ ------ ---- -- ------<br>------- --- ------ ----- --- ---- ------- -- ---- --- --<br>------- ------,324242.90000000596,324241.7000000179,323838.649,323838.8000000119,323855.423,324255.338,,32,of
screen,html.Screen,2_1_1_1_33,2022-02-15T15:16:47.760Z,,,,,,,,,,,,,,,,,54,,,,,,,,,,,,,,429.56200000597164,,response,,,,100,,,,,,,Space,keypress(Space),,,,,,,,-- --- ---- --- ------ ----- ------- ---- -- --- ------- --<br>------- ---------- ------ -- ----- -- ----- -- ---- ------<br>--- ----- --- --- ------ -------- ----- --- ------ ----- --<br>these ----- ---------- --- --- ------ ------ ---- -- ------<br>------- --- ------ ----- --- ---- ------- -- ---- --- --<br>------- ------,324686.2000000179,324684.90000000596,324238.612,324243.09999999404,324255.338,324688.467,,33,these
screen,html.Screen,2_1_1_1_34,2022-02-15T15:16:48.199Z,,,,,,,,,,,,,,,,,54,,,,,,,,,,,,,,435.83300001191674,,response,,,,100,,,,,,,Space,keypress(Space),,,,,,,,-- --- ---- --- ------ ----- ------- ---- -- --- ------- --<br>------- ---------- ------ -- ----- -- ----- -- ---- ------<br>--- ----- --- --- ------ -------- ----- --- ------ ----- --<br>----- bonds ---------- --- --- ------ ------ ---- -- ------<br>------- --- ------ ----- --- ---- ------- -- ---- --- --<br>------- ------,325125.5,325124.3000000119,324671.819,324686.5,324688.467,325138.545,,34,bonds
screen,html.Screen,2_1_1_1_35,2022-02-15T15:16:48.903Z,,,,,,,,,,,,,,,,,54,,,,,,,,,,,,,,689.4550000000163,,response,,,,100,,,,,,,Space,keypress(Space),,,,,,,,"-- --- ---- --- ------ ----- ------- ---- -- --- ------- --<br>------- ---------- ------ -- ----- -- ----- -- ---- ------<br>--- ----- --- --- ------ -------- ----- --- ------ ----- --<br>----- ----- plummeted, --- --- ------ ------ ---- -- ------<br>------- --- ------ ----- --- ---- ------- -- ---- --- --<br>------- ------",325829.3000000119,325828,325121.814,325125.8000000119,325138.545,325838.304,,35,"plummeted,"
screen,html.Screen,2_1_1_1_36,2022-02-15T15:16:49.427Z,,,,,,,,,,,,,,,,,54,,,,,,,,,,,,,,513.5960000059567,,response,,,,100,,,,,,,Space,keypress(Space),,,,,,,,-- --- ---- --- ------ ----- ------- ---- -- --- ------- --<br>------- ---------- ------ -- ----- -- ----- -- ---- ------<br>--- ----- --- --- ------ -------- ----- --- ------ ----- --<br>----- ----- ---------- and --- ------ ------ ---- -- ------<br>------- --- ------ ----- --- ---- ------- -- ---- --- --<br>------- ------,326353.2000000179,326351.90000000596,325821.63,325829.5,325838.304,326376.627,,36,and
screen,html.Screen,2_1_1_1_37,2022-02-15T15:16:49.922Z,,,,,,,,,,,,,,,,,54,,,,,,,,,,,,,,470.0730000179028,,response,,,,100,,,,,,,Space,keypress(Space),,,,,,,,-- --- ---- --- ------ ----- ------- ---- -- --- ------- --<br>------- ---------- ------ -- ----- -- ----- -- ---- ------<br>--- ----- --- --- ------ -------- ----- --- ------ ----- --<br>----- ----- ---------- --- the ------ ------ ---- -- ------<br>------- --- ------ ----- --- ---- ------- -- ---- --- --<br>------- ------,326847.8000000119,326846.7000000179,326338.337,326353.5,326376.627,326854.867,,37,the
screen,html.Screen,2_1_1_1_38,2022-02-15T15:16:50.481Z,,,,,,,,,,,,,,,,,54,,,,,,,,,,,,,,551.2329999940121,,response,,,,100,,,,,,,Space,keypress(Space),,,,,,,,-- --- ---- --- ------ ----- ------- ---- -- --- ------- --<br>------- ---------- ------ -- ----- -- ----- -- ---- ------<br>--- ----- --- --- ------ -------- ----- --- ------ ----- --<br>----- ----- ---------- --- --- market ------ ---- -- ------<br>------- --- ------ ----- --- ---- ------- -- ---- --- --<br>------- ------,327407.3000000119,327406.09999999404,326838.258,326848.09999999404,326854.867,327421.576,,38,market
screen,html.Screen,2_1_1_1_39,2022-02-15T15:16:50.981Z,,,,,,,,,,,,,,,,,54,,,,,,,,,,,,,,483.92399999999907,,response,,,,100,,,,,,,Space,keypress(Space),,,,,,,,-- --- ---- --- ------ ----- ------- ---- -- --- ------- --<br>------- ---------- ------ -- ----- -- ----- -- ---- ------<br>--- ----- --- --- ------ -------- ----- --- ------ ----- --<br>----- ----- ---------- --- --- ------ became ---- -- ------<br>------- --- ------ ----- --- ---- ------- -- ---- --- --<br>------- ------,327906.7000000179,327905.5,327404.815,327407.5,327421.576,327921.503,,39,became
screen,html.Screen,2_1_1_1_40,2022-02-15T15:16:51.519Z,,,,,,,,,,,,,,,,,54,,,,,,,,,,,,,,522.6970000178553,,response,,,,100,,,,,,,Space,keypress(Space),,,,,,,,-- --- ---- --- ------ ----- ------- ---- -- --- ------- --<br>------- ---------- ------ -- ----- -- ----- -- ---- ------<br>--- ----- --- --- ------ -------- ----- --- ------ ----- --<br>----- ----- ---------- --- --- ------ ------ wary -- ------<br>------- --- ------ ----- --- ---- ------- -- ---- --- --<br>------- ------,328445.40000000596,328444.2000000179,327904.991,327907.09999999404,327921.503,328454.694,,40,wary
screen,html.Screen,2_1_1_1_41,2022-02-15T15:16:51.978Z,,,,,,,,,,,,,,,,,54,,,,,,,,,,,,,,448.3059999999823,,response,,,,100,,,,,,,Space,keypress(Space),,,,,,,,-- --- ---- --- ------ ----- ------- ---- -- --- ------- --<br>------- ---------- ------ -- ----- -- ----- -- ---- ------<br>--- ----- --- --- ------ -------- ----- --- ------ ----- --<br>----- ----- ---------- --- --- ------ ------ ---- of ------<br>------- --- ------ ----- --- ---- ------- -- ---- --- --<br>------- ------,328904.09999999404,328903,328437.998,328445.7000000179,328454.694,328921.39,,41,of
screen,html.Screen,2_1_1_1_42,2022-02-15T15:16:52.541Z,,,,,,,,,,,,,,,,,54,,,,,,,,,,,,,,544.7099999940256,,response,,,,100,,,,,,,Space,keypress(Space),,,,,,,,-- --- ---- --- ------ ----- ------- ---- -- --- ------- --<br>------- ---------- ------ -- ----- -- ----- -- ---- ------<br>--- ----- --- --- ------ -------- ----- --- ------ ----- --<br>----- ----- ---------- --- --- ------ ------ ---- -- French<br>------- --- ------ ----- --- ---- ------- -- ---- --- --<br>------- ------,329467.3000000119,329466.09999999404,328904.644,328904.3000000119,328921.39,329471.234,,42,French
screen,html.Screen,2_1_1_1_43,2022-02-15T15:16:54.817Z,,,,,,,,,,,,,,,,,54,,,,,,,,,,,,,,2270.365999994043,,response,,,,100,,,,,,,Space,keypress(Space),,,,,,,,-- --- ---- --- ------ ----- ------- ---- -- --- ------- --<br>------- ---------- ------ -- ----- -- ----- -- ---- ------<br>--- ----- --- --- ------ -------- ----- --- ------ ----- --<br>----- ----- ---------- --- --- ------ ------ ---- -- ------<br>credit. --- ------ ----- --- ---- ------- -- ---- --- --<br>------- ------,331742.90000000596,331741.59999999404,329454.527,329467.59999999404,329471.234,331754.323,,43,credit.
screen,html.Screen,2_1_1_1_44,2022-02-15T15:17:01.285Z,,,,,,,,,,,,,,,,,54,,,,,,,,,,,,,,6455.077000005986,,response,,,,100,,,,,,,Space,keypress(Space),,,,,,,,-- --- ---- --- ------ ----- ------- ---- -- --- ------- --<br>------- ---------- ------ -- ----- -- ----- -- ---- ------<br>--- ----- --- --- ------ -------- ----- --- ------ ----- --<br>----- ----- ---------- --- --- ------ ------ ---- -- ------<br>------- The ------ ----- --- ---- ------- -- ---- --- --<br>------- ------,338210.7000000179,338209.40000000596,331736.962,331743.09999999404,331754.323,338220.113,,44,The
screen,html.Screen,2_1_1_1_45,2022-02-15T15:17:01.888Z,,,,,,,,,,,,,,,,,54,,,,,,,,,,,,,,592.0870000178693,,response,,,,100,,,,,,,Space,keypress(Space),,,,,,,,-- --- ---- --- ------ ----- ------- ---- -- --- ------- --<br>------- ---------- ------ -- ----- -- ----- -- ---- ------<br>--- ----- --- --- ------ -------- ----- --- ------ ----- --<br>----- ----- ---------- --- --- ------ ------ ---- -- ------<br>------- --- French ----- --- ---- ------- -- ---- --- --<br>------- ------,338813.8000000119,338812.2000000179,338201.321,338211.2000000179,338220.113,338819.935,,45,French
screen,html.Screen,2_1_1_1_46,2022-02-15T15:17:02.522Z,,,,,,,,,,,,,,,,,54,,,,,,,,,,,,,,626.8650000119233,,response,,,,100,,,,,,,Space,keypress(Space),,,,,,,,-- --- ---- --- ------ ----- ------- ---- -- --- ------- --<br>------- ---------- ------ -- ----- -- ----- -- ---- ------<br>--- ----- --- --- ------ -------- ----- --- ------ ----- --<br>----- ----- ---------- --- --- ------ ------ ---- -- ------<br>------- --- ------ state --- ---- ------- -- ---- --- --<br>------- ------,339448,339446.8000000119,338803.299,338814.09999999404,338819.935,339453.324,,46,state
screen,html.Screen,2_1_1_1_47,2022-02-15T15:17:05.914Z,,,,,,,,,,,,,,,,,54,,,,,,,,,,,,,,3386.275999994017,,response,,,,100,,,,,,,Space,keypress(Space),,,,,,,,-- --- ---- --- ------ ----- ------- ---- -- --- ------- --<br>------- ---------- ------ -- ----- -- ----- -- ---- ------<br>--- ----- --- --- ------ -------- ----- --- ------ ----- --<br>----- ----- ---------- --- --- ------ ------ ---- -- ------<br>------- --- ------ ----- was ---- ------- -- ---- --- --<br>------- ------,342840.59999999404,342839.59999999404,339436.561,339448.2000000179,339453.324,342852.91,,47,was
screen,html.Screen,2_1_1_1_48,2022-02-15T15:17:06.519Z,,,,,,,,,,,,,,,,,54,,,,,,,,,,,,,,591.0900000000256,,response,,,,100,,,,,,,Space,keypress(Space),,,,,,,,-- --- ---- --- ------ ----- ------- ---- -- --- ------- --<br>------- ---------- ------ -- ----- -- ----- -- ---- ------<br>--- ----- --- --- ------ -------- ----- --- ------ ----- --<br>----- ----- ---------- --- --- ------ ------ ---- -- ------<br>------- --- ------ ----- --- left ------- -- ---- --- --<br>------- ------,343445.3000000119,343444,342835.189,342840.7000000179,342852.91,343452.685,,48,left
screen,html.Screen,2_1_1_1_49,2022-02-15T15:17:07.213Z,,,,,,,,,,,,,,,,,54,,,,,,,,,,,,,,685.4149999940419,,response,,,,100,,,,,,,Space,keypress(Space),,,,,,,,-- --- ---- --- ------ ----- ------- ---- -- --- ------- --<br>------- ---------- ------ -- ----- -- ----- -- ---- ------<br>--- ----- --- --- ------ -------- ----- --- ------ ----- --<br>----- ----- ---------- --- --- ------ ------ ---- -- ------<br>------- --- ------ ----- --- ---- without -- ---- --- --<br>------- ------,344139.40000000596,344138.09999999404,343436.063,343445.5,343452.685,344152.656,,49,without
screen,html.Screen,2_1_1_1_50,2022-02-15T15:17:07.853Z,,,,,,,,,,,,,,,,,54,,,,,,,,,,,,,,624.7440000059432,,response,,,,100,,,,,,,Space,keypress(Space),,,,,,,,-- --- ---- --- ------ ----- ------- ---- -- --- ------- --<br>------- ---------- ------ -- ----- -- ----- -- ---- ------<br>--- ----- --- --- ------ -------- ----- --- ------ ----- --<br>----- ----- ---------- --- --- ------ ------ ---- -- ------<br>------- --- ------ ----- --- ---- ------- an ---- --- --<br>------- ------,344778.7000000179,344777.40000000596,344135.964,344139.7000000179,344152.656,344785.872,,50,an
screen,html.Screen,2_1_1_1_51,2022-02-15T15:17:08.520Z,,,,,,,,,,,,,,,,,54,,,,,,,,,,,,,,659.2279999940656,,response,,,,100,,,,,,,Space,keypress(Space),,,,,,,,-- --- ---- --- ------ ----- ------- ---- -- --- ------- --<br>------- ---------- ------ -- ----- -- ----- -- ---- ------<br>--- ----- --- --- ------ -------- ----- --- ------ ----- --<br>----- ----- ---------- --- --- ------ ------ ---- -- ------<br>------- --- ------ ----- --- ---- ------- -- easy --- --<br>------- ------,345446.3000000119,345445.09999999404,344769.202,344779,344785.872,345452.471,,51,easy
screen,html.Screen,2_1_1_1_52,2022-02-15T15:17:08.994Z,,,,,,,,,,,,,,,,,54,,,,,,,,,,,,,,466.22900001786184,,response,,,,100,,,,,,,Space,keypress(Space),,,,,,,,-- --- ---- --- ------ ----- ------- ---- -- --- ------- --<br>------- ---------- ------ -- ----- -- ----- -- ---- ------<br>--- ----- --- --- ------ -------- ----- --- ------ ----- --<br>----- ----- ---------- --- --- ------ ------ ---- -- ------<br>------- --- ------ ----- --- ---- ------- -- ---- way --<br>------- ------,345919.8000000119,345918.7000000179,345435.706,345446.59999999404,345452.471,345935.915,,52,way
screen,html.Screen,2_1_1_1_53,2022-02-15T15:17:09.538Z,,,,,,,,,,,,,,,,,54,,,,,,,,,,,,,,527.3850000119419,,response,,,,100,,,,,,,Space,keypress(Space),,,,,,,,-- --- ---- --- ------ ----- ------- ---- -- --- ------- --<br>------- ---------- ------ -- ----- -- ----- -- ---- ------<br>--- ----- --- --- ------ -------- ----- --- ------ ----- --<br>----- ----- ---------- --- --- ------ ------ ---- -- ------<br>------- --- ------ ----- --- ---- ------- -- ---- --- of<br>------- ------,346464.5,346463.3000000119,345919.116,345920,345935.915,346468.977,,53,of
screen,html.Screen,2_1_1_1_54,2022-02-15T15:17:10.082Z,,,,,,,,,,,,,,,,,54,,,,,,,,,,,,,,538.122999994026,,response,,,,100,,,,,,,Space,keypress(Space),,,,,,,,-- --- ---- --- ------ ----- ------- ---- -- --- ------- --<br>------- ---------- ------ -- ----- -- ----- -- ---- ------<br>--- ----- --- --- ------ -------- ----- --- ------ ----- --<br>----- ----- ---------- --- --- ------ ------ ---- -- ------<br>------- --- ------ ----- --- ---- ------- -- ---- --- --<br>raising ------,347008.3000000119,347007.09999999404,346452.388,346464.7000000179,346468.977,347018.947,,54,raising
screen,html.Screen,2_1_1_1_55,2022-02-15T15:17:14.550Z,,,,,,,,,,,,,,,,,54,,,,,,,,,,,,,,4455.652999994054,,response,,,,100,,,,,,,Space,keypress(Space),,,,,,,,-- --- ---- --- ------ ----- ------- ---- -- --- ------- --<br>------- ---------- ------ -- ----- -- ----- -- ---- ------<br>--- ----- --- --- ------ -------- ----- --- ------ ----- --<br>----- ----- ---------- --- --- ------ ------ ---- -- ------<br>------- --- ------ ----- --- ---- ------- -- ---- --- --<br>------- money.,351476,351474.59999999404,347002.183,347008.5,347018.947,351485.022,,55,money.
Item 100,flow.Loop,2_1_1_1,2022-02-15T15:17:14.551Z,,,,,,,,,,,,,,,,,,,,,,,,,,,,,,,63398.13699999405,,completion,,,,,F,,,,,,,,,,,silence,,,,,351476.7000000179,351474.59999999404,288060.027,288061.40000000596,288076.463,351485.022,,,
Question 1,html.Screen,2_1_1_2,2022-02-15T15:17:19.707Z,,,,,,,,,,,,,,,,,,,,,,,,,,,,true,TRUE,,5147.778000011924,,response,,,,100,F,,,,,,TRUE,click #choice-1,,,,silence,,,,,356633.59999999404,356632.8000000119,351467.048,351476.90000000596,351485.022,356634.311,,,
Question 2,html.Screen,2_1_1_3,2022-02-15T15:17:25.007Z,,,,,,,,,,,,,,,,,,,,,,,,,,,,true,FALSE,,5297.989000011934,,response,,,,100,F,,,,,,FALSE,click #choice-2,,,,silence,,,,,361933,361932.3000000119,356617.829,356633.7000000179,356634.311,361950.48,,,
Item 100,flow.Sequence,2_1_1,2022-02-15T15:17:25.007Z,,,,,,,,,,,,,,,,,,,,,,,,,,,,,,,83854.5520000119,,completion,,,,,,,,,,,,,,,,,,,,,361933.3000000119,361932.3000000119,278061.063,278061.59999999404,278077.748,361950.48,,,
End of Practice,html.Page,2_1_2,2022-02-15T15:17:39.787Z,,,,,,,,,,,,,,,,,,,,,,,,,,,,,,,14755.2200000179,,form submission,,,,,,,,,,,,,,,,,,,,,376706.8000000119,376705.7000000179,361933.652,361933.3000000119,361950.48,376715.098,,,
Practice,flow.Sequence,2_1,2022-02-15T15:17:39.787Z,,,,,,,,,,,,,,,,,,,,,,,,,,,,,,,158486.97200001788,,completion,,,,,,,,,,,,,,,,,,,,,376707.2000000179,376705.7000000179,218202.082,218209.90000000596,218218.728,376715.098,,,
Trap_instruction,html.Page,2_2_0,2022-02-15T15:17:56.142Z,,,,,,,,,,,,,,,,,,,,,,,,,,,,,,,16346.001999994041,,form submission,,,,,,,,,,,,,,,,,,,,,393062,393061.09999999404,376698.624,376707.3000000119,376715.098,393079.625,,,
trap_trial,html.Screen,2_2_1,2022-02-15T15:18:01.059Z,,,,,,,,,,,,,,,,,,,,,,,,,,,,true,1,,4898.575000017881,,response,,,,,,,,,,,1,click #choice-1,,,,,,,,,397979.2000000179,397978.2000000179,393062.959,393062.09999999404,393079.625,398015.268,,,
end of trap trial,html.Page,2_2_2,2022-02-15T15:18:09.184Z,,,,,,,,,,,,,,,,,,,,,,,,,,,,,,,8088.132000005979,,form submission,,,,,,,,,,,,,,,,,,,,,406104.3000000119,406103.40000000596,397962.375,397979.3000000119,398015.268,406111.309,,,
Trap 1,flow.Sequence,2_2,2022-02-15T15:18:09.184Z,,,,,,,,,,,,,,,,,,,,,,,,,,,,,,,29388.302000005962,,completion,,,,,,,,,,,,,,,,,,,,,406104.5,406103.40000000596,376698.624,376707.3000000119,376715.098,406111.309,,,
Standby,html.Page,2_3_0,2022-02-15T15:18:17.175Z,,,,,,,,,,,,,,,,,,,,,,,,,,,,,,,7998.980999999971,,timeout,,,,,,,,,,,,,,,,,,,,,414095.2000000179,414093.832,406094.779,406104.59999999404,406111.309,414110.29,,,
Holding screen,html.Screen,2_3_1_0_0,2022-02-15T15:18:24.174Z,,,,,,,,,,,,,,,,,,,,,,,,,,,,,,,6999.121000000043,,timeout,,,,,,,,,,,,,,,,,,,,,421094.09999999404,421092.938,414093.832,414095.7000000179,414110.29,421109.411,,,
screen,html.Screen,2_3_1_0_1_0,2022-02-15T15:18:25.102Z,,,,,,,,,,,,,,,,,15,,,,,,,,,,,,,,911.4890000059386,,response,,,,7,F,,,,,,Space,keypress(Space),,,,instrumental,,,,Greg --------- ---------- - --- ------- -- --- ------------<br>----- -- -------- ------- ---- ------ - -------- ---- -----<br>--- ------- ---- -- --- -------- --- - ----- ------ ---- --<br>-------- --- -------- -------- --- -------- ---- -- ----- -<br>-------- ---- --- ---------- --------- -- ------- ------ -<br>--------- ----- -----,422022.59999999404,422020.90000000596,421092.938,421094.40000000596,421109.411,422026.035,,0,Greg
screen,html.Screen,2_3_1_0_1_1,2022-02-15T15:18:28.466Z,,,,,,,,,,,,,,,,,15,,,,,,,,,,,,,,3359.165000017907,,response,,,,7,F,,,,,,Space,keypress(Space),,,,instrumental,,,,"---- Anderson, ---------- - --- ------- -- --- ------------<br>----- -- -------- ------- ---- ------ - -------- ---- -----<br>--- ------- ---- -- --- -------- --- - ----- ------ ---- --<br>-------- --- -------- -------- --- -------- ---- -- ----- -<br>-------- ---- --- ---------- --------- -- ------- ------ -<br>--------- ----- -----",425386.59999999404,425385.2000000179,422009.39,422022.90000000596,422026.035,425392.152,,1,"Anderson,"
screen,html.Screen,2_3_1_0_1_2,2022-02-15T15:18:28.960Z,,,,,,,,,,,,,,,,,15,,,,,,,,,,,,,,486.54800001787953,,response,,,,7,F,,,,,,Space,keypress(Space),,,,instrumental,,,,---- --------- considered - --- ------- -- --- ------------<br>----- -- -------- ------- ---- ------ - -------- ---- -----<br>--- ------- ---- -- --- -------- --- - ----- ------ ---- --<br>-------- --- -------- -------- --- -------- ---- -- ----- -<br>-------- ---- --- ---------- --------- -- ------- ------ -<br>--------- ----- -----,425879.8000000119,425878.7000000179,425374.77,425386.90000000596,425392.152,425892.247,,2,considered
screen,html.Screen,2_3_1_0_1_3,2022-02-15T15:18:29.598Z,,,,,,,,,,,,,,,,,15,,,,,,,,,,,,,,624.9530000179075,,response,,,,7,F,,,,,,Space,keypress(Space),,,,instrumental,,,,---- --------- ---------- a --- ------- -- --- ------------<br>----- -- -------- ------- ---- ------ - -------- ---- -----<br>--- ------- ---- -- --- -------- --- - ----- ------ ---- --<br>-------- --- -------- -------- --- -------- ---- -- ----- -<br>-------- ---- --- ---------- --------- -- ------- ------ -<br>--------- ----- -----,426518.40000000596,426517.2000000179,425875.486,425880.2000000179,425892.247,426525.392,,3,a
screen,html.Screen,2_3_1_0_1_4,2022-02-15T15:18:30.278Z,,,,,,,,,,,,,,,,,15,,,,,,,,,,,,,,671.3080000178888,,response,,,,7,F,,,,,,Space,keypress(Space),,,,instrumental,,,,---- --------- ---------- - key ------- -- --- ------------<br>----- -- -------- ------- ---- ------ - -------- ---- -----<br>--- ------- ---- -- --- -------- --- - ----- ------ ---- --<br>-------- --- -------- -------- --- -------- ---- -- ----- -<br>-------- ---- --- ---------- --------- -- ------- ------ -<br>--------- ----- -----,427198,427196.7000000179,426508.707,426518.59999999404,426525.392,427208.68,,4,key
screen,html.Screen,2_3_1_0_1_5,2022-02-15T15:18:30.896Z,,,,,,,,,,,,,,,,,15,,,,,,,,,,,,,,606.4199999940465,,response,,,,7,F,,,,,,Space,keypress(Space),,,,instrumental,,,,---- --------- ---------- - --- witness -- --- ------------<br>----- -- -------- ------- ---- ------ - -------- ---- -----<br>--- ------- ---- -- --- -------- --- - ----- ------ ---- --<br>-------- --- -------- -------- --- -------- ---- -- ----- -<br>-------- ---- --- ---------- --------- -- ------- ------ -<br>--------- ----- -----,427816.40000000596,427815.09999999404,427191.774,427198.2000000179,427208.68,427825.221,,5,witness
screen,html.Screen,2_3_1_0_1_6,2022-02-15T15:18:31.555Z,,,,,,,,,,,,,,,,,15,,,,,,,,,,,,,,648.5790000119014,,response,,,,7,F,,,,,,Space,keypress(Space),,,,instrumental,,,,---- --------- ---------- - --- ------- by --- ------------<br>----- -- -------- ------- ---- ------ - -------- ---- -----<br>--- ------- ---- -- --- -------- --- - ----- ------ ---- --<br>-------- --- -------- -------- --- -------- ---- -- ----- -<br>-------- ---- --- ---------- --------- -- ------- ------ -<br>--------- ----- -----,428474.90000000596,428473.8000000119,427808.52,427816.7000000179,427825.221,428492.016,,6,by
screen,html.Screen,2_3_1_0_1_7,2022-02-15T15:18:32.090Z,,,,,,,,,,,,,,,,,15,,,,,,,,,,,,,,517.0839999940363,,response,,,,7,F,,,,,,Space,keypress(Space),,,,instrumental,,,,---- --------- ---------- - --- ------- -- the ------------<br>----- -- -------- ------- ---- ------ - -------- ---- -----<br>--- ------- ---- -- --- -------- --- - ----- ------ ---- --<br>-------- --- -------- -------- --- -------- ---- -- ----- -<br>-------- ---- --- ---------- --------- -- ------- ------ -<br>--------- ----- -----,429010.3000000119,429009.09999999404,428475.198,428475.40000000596,428492.016,429025.116,,7,the
screen,html.Screen,2_3_1_0_1_8,2022-02-15T15:18:33.338Z,,,,,,,,,,,,,,,,,15,,,,,,,,,,,,,,1231.88400000002,,response,,,,7,F,,,,,,Space,keypress(Space),,,,instrumental,,,,"---- --------- ---------- - --- ------- -- --- prosecution,<br>----- -- -------- ------- ---- ------ - -------- ---- -----<br>--- ------- ---- -- --- -------- --- - ----- ------ ---- --<br>-------- --- -------- -------- --- -------- ---- -- ----- -<br>-------- ---- --- ---------- --------- -- ------- ------ -<br>--------- ----- -----",430258.2000000179,430257,429008.319,429010.5,429025.116,430275.085,,8,"prosecution,"
screen,html.Screen,2_3_1_0_1_9,2022-02-15T15:18:34.060Z,,,,,,,,,,,,,,,,,15,,,,,,,,,,,,,,703.8150000059395,,response,,,,7,F,,,,,,Space,keypress(Space),,,,instrumental,,,,---- --------- ---------- - --- ------- -- --- ------------<br>vowed -- -------- ------- ---- ------ - -------- ---- -----<br>--- ------- ---- -- --- -------- --- - ----- ------ ---- --<br>-------- --- -------- -------- --- -------- ---- -- ----- -<br>-------- ---- --- ---------- --------- -- ------- ------ -<br>--------- ----- -----,430980.2000000179,430978.90000000596,430258.109,430258.40000000596,430275.085,430991.522,,9,vowed
screen,html.Screen,2_3_1_0_1_10,2022-02-15T15:18:34.619Z,,,,,,,,,,,,,,,,,15,,,,,,,,,,,,,,546.2780000119237,,response,,,,7,F,,,,,,Space,keypress(Space),,,,instrumental,,,,---- --------- ---------- - --- ------- -- --- ------------<br>----- he -------- ------- ---- ------ - -------- ---- -----<br>--- ------- ---- -- --- -------- --- - ----- ------ ---- --<br>-------- --- -------- -------- --- -------- ---- -- ----- -<br>-------- ---- --- ---------- --------- -- ------- ------ -<br>--------- ----- -----,431539,431537.8000000119,430974.937,430980.5,430991.522,431541.415,,10,he
screen,html.Screen,2_3_1_0_1_11,2022-02-15T15:18:35.168Z,,,,,,,,,,,,,,,,,15,,,,,,,,,,,,,,545.9850000059814,,response,,,,7,F,,,,,,Space,keypress(Space),,,,instrumental,,,,---- --------- ---------- - --- ------- -- --- ------------<br>----- -- wouldn't ------- ---- ------ - -------- ---- -----<br>--- ------- ---- -- --- -------- --- - ----- ------ ---- --<br>-------- --- -------- -------- --- -------- ---- -- ----- -<br>-------- ---- --- ---------- --------- -- ------- ------ -<br>--------- ----- -----,432088.59999999404,432087.40000000596,431524.767,431539.3000000119,431541.415,432091.353,,11,wouldn't
screen,html.Screen,2_3_1_0_1_12,2022-02-15T15:18:35.693Z,,,,,,,,,,,,,,,,,15,,,,,,,,,,,,,,520.5470000059577,,response,,,,7,F,,,,,,Space,keypress(Space),,,,instrumental,,,,---- --------- ---------- - --- ------- -- --- ------------<br>----- -- -------- testify ---- ------ - -------- ---- -----<br>--- ------- ---- -- --- -------- --- - ----- ------ ---- --<br>-------- --- -------- -------- --- -------- ---- -- ----- -<br>-------- ---- --- ---------- --------- -- ------- ------ -<br>--------- ----- -----,432613.2000000179,432611.90000000596,432074.631,432088.90000000596,432091.353,432624.728,,12,testify
screen,html.Screen,2_3_1_0_1_13,2022-02-15T15:18:36.227Z,,,,,,,,,,,,,,,,,15,,,,,,,,,,,,,,520.9720000178786,,response,,,,7,F,,,,,,Space,keypress(Space),,,,instrumental,,,,---- --------- ---------- - --- ------- -- --- ------------<br>----- -- -------- ------- when ------ - -------- ---- -----<br>--- ------- ---- -- --- -------- --- - ----- ------ ---- --<br>-------- --- -------- -------- --- -------- ---- -- ----- -<br>-------- ---- --- ---------- --------- -- ------- ------ -<br>--------- ----- -----,433147.2000000179,433145.7000000179,432607.908,432613.5,432624.728,433157.888,,13,when
screen,html.Screen,2_3_1_0_1_14,2022-02-15T15:18:36.826Z,,,,,,,,,,,,,,,,,15,,,,,,,,,,,,,,586.7119999940624,,response,,,,7,F,,,,,,Space,keypress(Space),,,,instrumental,,,,---- --------- ---------- - --- ------- -- --- ------------<br>----- -- -------- ------- ---- served - -------- ---- -----<br>--- ------- ---- -- --- -------- --- - ----- ------ ---- --<br>-------- --- -------- -------- --- -------- ---- -- ----- -<br>-------- ---- --- ---------- --------- -- ------- ------ -<br>--------- ----- -----,433745.90000000596,433744.59999999404,433141.233,433147.40000000596,433157.888,433757.851,,14,served
screen,html.Screen,2_3_1_0_1_15,2022-02-15T15:18:37.250Z,,,,,,,,,,,,,,,,,15,,,,,,,,,,,,,,410.9490000118967,,response,,,,7,F,,,,,,Space,keypress(Space),,,,instrumental,,,,---- --------- ---------- - --- ------- -- --- ------------<br>----- -- -------- ------- ---- ------ a -------- ---- -----<br>--- ------- ---- -- --- -------- --- - ----- ------ ---- --<br>-------- --- -------- -------- --- -------- ---- -- ----- -<br>-------- ---- --- ---------- --------- -- ------- ------ -<br>--------- ----- -----,434170.09999999404,434168.8000000119,433741.082,433746.2000000179,433757.851,434174.41,,15,a
screen,html.Screen,2_3_1_0_1_16,2022-02-15T15:18:38.655Z,,,,,,,,,,,,,,,,,15,,,,,,,,,,,,,,1400.990000005986,,response,,,,7,F,,,,,,Space,keypress(Space),,,,instrumental,,,,---- --------- ---------- - --- ------- -- --- ------------<br>----- -- -------- ------- ---- ------ - subpoena ---- -----<br>--- ------- ---- -- --- -------- --- - ----- ------ ---- --<br>-------- --- -------- -------- --- -------- ---- -- ----- -<br>-------- ---- --- ---------- --------- -- ------- ------ -<br>--------- ----- -----,435577.09999999404,435575.40000000596,434157.766,434170.3000000119,434174.41,435591.02,,16,subpoena
screen,html.Screen,2_3_1_0_1_17,2022-02-15T15:18:41.030Z,,,,,,,,,,,,,,,,,15,,,,,,,,,,,,,,2359.880000005942,,response,,,,7,F,,,,,,Space,keypress(Space),,,,instrumental,,,,---- --------- ---------- - --- ------- -- --- ------------<br>----- -- -------- ------- ---- ------ - -------- last -----<br>--- ------- ---- -- --- -------- --- - ----- ------ ---- --<br>-------- --- -------- -------- --- -------- ---- -- ----- -<br>-------- ---- --- ---------- --------- -- ------- ------ -<br>--------- ----- -----,437952.09999999404,437950.90000000596,435573.954,435577.40000000596,435591.02,437957.255,,17,last
screen,html.Screen,2_3_1_0_1_18,2022-02-15T15:18:41.809Z,,,,,,,,,,,,,,,,,15,,,,,,,,,,,,,,773.0450000119163,,response,,,,7,F,,,,,,Space,keypress(Space),,,,instrumental,,,,---- --------- ---------- - --- ------- -- --- ------------<br>----- -- -------- ------- ---- ------ - -------- ---- week.<br>--- ------- ---- -- --- -------- --- - ----- ------ ---- --<br>-------- --- -------- -------- --- -------- ---- -- ----- -<br>-------- ---- --- ---------- --------- -- ------- ------ -<br>--------- ----- -----,438731.7000000179,438730.3000000119,437940.003,437952.40000000596,437957.255,438740.486,,18,week.
screen,html.Screen,2_3_1_0_1_19,2022-02-15T15:18:42.542Z,,,,,,,,,,,,,,,,,15,,,,,,,,,,,,,,722.5140000000247,,response,,,,7,F,,,,,,Space,keypress(Space),,,,instrumental,,,,---- --------- ---------- - --- ------- -- --- ------------<br>----- -- -------- ------- ---- ------ - -------- ---- -----<br>His ------- ---- -- --- -------- --- - ----- ------ ---- --<br>-------- --- -------- -------- --- -------- ---- -- ----- -<br>-------- ---- --- ---------- --------- -- ------- ------ -<br>--------- ----- -----,439464.2000000179,439463,438723.644,438731.90000000596,438740.486,439473.737,,19,His
screen,html.Screen,2_3_1_0_1_20,2022-02-15T15:18:44.250Z,,,,,,,,,,,,,,,,,15,,,,,,,,,,,,,,1696.7629999999772,,response,,,,7,F,,,,,,Space,keypress(Space),,,,instrumental,,,,---- --------- ---------- - --- ------- -- --- ------------<br>----- -- -------- ------- ---- ------ - -------- ---- -----<br>--- lawyers ---- -- --- -------- --- - ----- ------ ---- --<br>-------- --- -------- -------- --- -------- ---- -- ----- -<br>-------- ---- --- ---------- --------- -- ------- ------ -<br>--------- ----- -----,441171.8000000119,441170.5,439457.055,439464.40000000596,439473.737,441195.164,,20,lawyers
screen,html.Screen,2_3_1_0_1_21,2022-02-15T15:18:44.933Z,,,,,,,,,,,,,,,,,15,,,,,,,,,,,,,,658.4359999940498,,response,,,,7,F,,,,,,Space,keypress(Space),,,,instrumental,,,,---- --------- ---------- - --- ------- -- --- ------------<br>----- -- -------- ------- ---- ------ - -------- ---- -----<br>--- ------- said -- --- -------- --- - ----- ------ ---- --<br>-------- --- -------- -------- --- -------- ---- -- ----- -<br>-------- ---- --- ---------- --------- -- ------- ------ -<br>--------- ----- -----,441854.90000000596,441853.59999999404,441156.493,441172.09999999404,441195.164,441875.176,,21,said
screen,html.Screen,2_3_1_0_1_22,2022-02-15T15:18:45.482Z,,,,,,,,,,,,,,,,,15,,,,,,,,,,,,,,527.7240000059828,,response,,,,7,F,,,,,,Space,keypress(Space),,,,instrumental,,,,---- --------- ---------- - --- ------- -- --- ------------<br>----- -- -------- ------- ---- ------ - -------- ---- -----<br>--- ------- ---- he --- -------- --- - ----- ------ ---- --<br>-------- --- -------- -------- --- -------- ---- -- ----- -<br>-------- ---- --- ---------- --------- -- ------- ------ -<br>--------- ----- -----,442404,442402.90000000596,441840.002,441855.09999999404,441875.176,442406.704,,22,he
screen,html.Screen,2_3_1_0_1_23,2022-02-15T15:18:46.185Z,,,,,,,,,,,,,,,,,15,,,,,,,,,,,,,,699.5960000118939,,response,,,,7,F,,,,,,Space,keypress(Space),,,,instrumental,,,,---- --------- ---------- - --- ------- -- --- ------------<br>----- -- -------- ------- ---- ------ - -------- ---- -----<br>--- ------- ---- -- was -------- --- - ----- ------ ---- --<br>-------- --- -------- -------- --- -------- ---- -- ----- -<br>-------- ---- --- ---------- --------- -- ------- ------ -<br>--------- ----- -----,443107.59999999404,443106.3000000119,442389.963,442404.40000000596,442406.704,443123.453,,23,was
screen,html.Screen,2_3_1_0_1_24,2022-02-15T15:18:46.970Z,,,,,,,,,,,,,,,,,15,,,,,,,,,,,,,,767.14699999406,,response,,,,7,F,,,,,,Space,keypress(Space),,,,instrumental,,,,---- --------- ---------- - --- ------- -- --- ------------<br>----- -- -------- ------- ---- ------ - -------- ---- -----<br>--- ------- ---- -- --- prepared --- - ----- ------ ---- --<br>-------- --- -------- -------- --- -------- ---- -- ----- -<br>-------- ---- --- ---------- --------- -- ------- ------ -<br>--------- ----- -----,443891.90000000596,443890.59999999404,443106.563,443107.90000000596,443123.453,443906.531,,24,prepared
screen,html.Screen,2_3_1_0_1_25,2022-02-15T15:18:47.428Z,,,,,,,,,,,,,,,,,15,,,,,,,,,,,,,,442.2690000119037,,response,,,,7,F,,,,,,Space,keypress(Space),,,,instrumental,,,,---- --------- ---------- - --- ------- -- --- ------------<br>----- -- -------- ------- ---- ------ - -------- ---- -----<br>--- ------- ---- -- --- -------- for - ----- ------ ---- --<br>-------- --- -------- -------- --- -------- ---- -- ----- -<br>-------- ---- --- ---------- --------- -- ------- ------ -<br>--------- ----- -----,444350,444348.8000000119,443889.772,443892.2000000179,443906.531,444356.387,,25,for
screen,html.Screen,2_3_1_0_1_26,2022-02-15T15:18:47.896Z,,,,,,,,,,,,,,,,,15,,,,,,,,,,,,,,461.0130000059726,,response,,,,7,F,,,,,,Space,keypress(Space),,,,instrumental,,,,---- --------- ---------- - --- ------- -- --- ------------<br>----- -- -------- ------- ---- ------ - -------- ---- -----<br>--- ------- ---- -- --- -------- --- a ----- ------ ---- --<br>-------- --- -------- -------- --- -------- ---- -- ----- -<br>-------- ---- --- ---------- --------- -- ------- ------ -<br>--------- ----- -----,444818.59999999404,444817.40000000596,444339.659,444350.2000000179,444356.387,444823.099,,26,a
screen,html.Screen,2_3_1_0_1_27,2022-02-15T15:18:48.467Z,,,,,,,,,,,,,,,,,15,,,,,,,,,,,,,,564.801000005973,,response,,,,7,F,,,,,,Space,keypress(Space),,,,instrumental,,,,---- --------- ---------- - --- ------- -- --- ------------<br>----- -- -------- ------- ---- ------ - -------- ---- -----<br>--- ------- ---- -- --- -------- --- - third ------ ---- --<br>-------- --- -------- -------- --- -------- ---- -- ----- -<br>-------- ---- --- ---------- --------- -- ------- ------ -<br>--------- ----- -----,445389.09999999404,445387.90000000596,444806.227,444818.90000000596,444823.099,445406.259,,27,third
screen,html.Screen,2_3_1_0_1_28,2022-02-15T15:18:50.716Z,,,,,,,,,,,,,,,,,15,,,,,,,,,,,,,,2230.541000011901,,response,,,,7,F,,,,,,Space,keypress(Space),,,,instrumental,,,,---- --------- ---------- - --- ------- -- --- ------------<br>----- -- -------- ------- ---- ------ - -------- ---- -----<br>--- ------- ---- -- --- -------- --- - ----- prison ---- --<br>-------- --- -------- -------- --- -------- ---- -- ----- -<br>-------- ---- --- ---------- --------- -- ------- ------ -<br>--------- ----- -----,447637.90000000596,447636.8000000119,445389.632,445389.3000000119,445406.259,447672.703,,28,prison
screen,html.Screen,2_3_1_0_1_29,2022-02-15T15:18:51.256Z,,,,,,,,,,,,,,,,,15,,,,,,,,,,,,,,503.89699999406,,response,,,,7,F,,,,,,Space,keypress(Space),,,,instrumental,,,,---- --------- ---------- - --- ------- -- --- ------------<br>----- -- -------- ------- ---- ------ - -------- ---- -----<br>--- ------- ---- -- --- -------- --- - ----- ------ stay --<br>-------- --- -------- -------- --- -------- ---- -- ----- -<br>-------- ---- --- ---------- --------- -- ------- ------ -<br>--------- ----- -----,448177.90000000596,448176.59999999404,447665.178,447638.09999999404,447672.703,448189.396,,29,stay
screen,html.Screen,2_3_1_0_1_30,2022-02-15T15:18:51.776Z,,,,,,,,,,,,,,,,,15,,,,,,,,,,,,,,507.6039999999921,,response,,,,7,F,,,,,,Space,keypress(Space),,,,instrumental,,,,---- --------- ---------- - --- ------- -- --- ------------<br>----- -- -------- ------- ---- ------ - -------- ---- -----<br>--- ------- ---- -- --- -------- --- - ----- ------ ---- to<br>-------- --- -------- -------- --- -------- ---- -- ----- -<br>-------- ---- --- ---------- --------- -- ------- ------ -<br>--------- ----- -----,448698,448697,448172.491,448178.09999999404,448189.396,448705.868,,30,to
screen,html.Screen,2_3_1_0_1_31,2022-02-15T15:18:52.470Z,,,,,,,,,,,,,,,,,15,,,,,,,,,,,,,,685.0320000059437,,response,,,,7,F,,,,,,Space,keypress(Space),,,,instrumental,,,,---- --------- ---------- - --- ------- -- --- ------------<br>----- -- -------- ------- ---- ------ - -------- ---- -----<br>--- ------- ---- -- --- -------- --- - ----- ------ ---- --<br>maintain --- -------- -------- --- -------- ---- -- ----- -<br>-------- ---- --- ---------- --------- -- ------- ------ -<br>--------- ----- -----,449392.2000000179,449390.90000000596,448689.22,448698.40000000596,448705.868,449405.883,,31,maintain
screen,html.Screen,2_3_1_0_1_32,2022-02-15T15:18:52.977Z,,,,,,,,,,,,,,,,,15,,,,,,,,,,,,,,492.216999994067,,response,,,,7,F,,,,,,Space,keypress(Space),,,,instrumental,,,,---- --------- ---------- - --- ------- -- --- ------------<br>----- -- -------- ------- ---- ------ - -------- ---- -----<br>--- ------- ---- -- --- -------- --- - ----- ------ ---- --<br>-------- his -------- -------- --- -------- ---- -- ----- -<br>-------- ---- --- ---------- --------- -- ------- ------ -<br>--------- ----- -----,449899.7000000179,449898.09999999404,449389.077,449392.40000000596,449405.883,449905.709,,32,his
screen,html.Screen,2_3_1_0_1_33,2022-02-15T15:18:53.721Z,,,,,,,,,,,,,,,,,15,,,,,,,,,,,,,,736.3909999940661,,response,,,,7,F,,,,,,Space,keypress(Space),,,,instrumental,,,,---- --------- ---------- - --- ------- -- --- ------------<br>----- -- -------- ------- ---- ------ - -------- ---- -----<br>--- ------- ---- -- --- -------- --- - ----- ------ ---- --<br>-------- --- silence. -------- --- -------- ---- -- ----- -<br>-------- ---- --- ---------- --------- -- ------- ------ -<br>--------- ----- -----,450643.40000000596,450642.09999999404,449888.953,449899.90000000596,449905.709,450655.56,,33,silence.
screen,html.Screen,2_3_1_0_1_34,2022-02-15T15:18:54.546Z,,,,,,,,,,,,,,,,,15,,,,,,,,,,,,,,811.2400000119233,,response,,,,7,F,,,,,,Space,keypress(Space),,,,instrumental,,,,---- --------- ---------- - --- ------- -- --- ------------<br>----- -- -------- ------- ---- ------ - -------- ---- -----<br>--- ------- ---- -- --- -------- --- - ----- ------ ---- --<br>-------- --- -------- Anderson --- -------- ---- -- ----- -<br>-------- ---- --- ---------- --------- -- ------- ------ -<br>--------- ----- -----,451468.09999999404,451466.8000000119,450638.721,450643.7000000179,450655.56,451472.143,,34,Anderson
screen,html.Screen,2_3_1_0_1_35,2022-02-15T15:18:55.223Z,,,,,,,,,,,,,,,,,15,,,,,,,,,,,,,,672.2570000059786,,response,,,,7,F,,,,,,Space,keypress(Space),,,,instrumental,,,,---- --------- ---------- - --- ------- -- --- ------------<br>----- -- -------- ------- ---- ------ - -------- ---- -----<br>--- ------- ---- -- --- -------- --- - ----- ------ ---- --<br>-------- --- -------- -------- was -------- ---- -- ----- -<br>-------- ---- --- ---------- --------- -- ------- ------ -<br>--------- ----- -----,452145.59999999404,452144.40000000596,451455.262,451468.3000000119,451472.143,452155.433,,35,was
screen,html.Screen,2_3_1_0_1_36,2022-02-15T15:18:55.882Z,,,,,,,,,,,,,,,,,15,,,,,,,,,,,,,,647.9670000059414,,response,,,,7,F,,,,,,Space,keypress(Space),,,,instrumental,,,,---- --------- ---------- - --- ------- -- --- ------------<br>----- -- -------- ------- ---- ------ - -------- ---- -----<br>--- ------- ---- -- --- -------- --- - ----- ------ ---- --<br>-------- --- -------- -------- --- released ---- -- ----- -<br>-------- ---- --- ---------- --------- -- ------- ------ -<br>--------- ----- -----,452804.5,452803.40000000596,452138.733,452145.90000000596,452155.433,452822.168,,36,released
screen,html.Screen,2_3_1_0_1_37,2022-02-15T15:18:56.670Z,,,,,,,,,,,,,,,,,15,,,,,,,,,,,,,,769.2320000059553,,response,,,,7,F,,,,,,Space,keypress(Space),,,,instrumental,,,,---- --------- ---------- - --- ------- -- --- ------------<br>----- -- -------- ------- ---- ------ - -------- ---- -----<br>--- ------- ---- -- --- -------- --- - ----- ------ ---- --<br>-------- --- -------- -------- --- -------- July -- ----- -<br>-------- ---- --- ---------- --------- -- ------- ------ -<br>--------- ----- -----,453592.59999999404,453591.40000000596,452805.208,452804.8000000119,452822.168,453605.234,,37,July
screen,html.Screen,2_3_1_0_1_38,2022-02-15T15:18:57.664Z,,,,,,,,,,,,,,,,,15,,,,,,,,,,,,,,979.3659999940428,,response,,,,7,F,,,,,,Space,keypress(Space),,,,instrumental,,,,---- --------- ---------- - --- ------- -- --- ------------<br>----- -- -------- ------- ---- ------ - -------- ---- -----<br>--- ------- ---- -- --- -------- --- - ----- ------ ---- --<br>-------- --- -------- -------- --- -------- ---- 20 ----- -<br>-------- ---- --- ---------- --------- -- ------- ------ -<br>--------- ----- -----,454586.09999999404,454584.59999999404,453588.527,453592.8000000119,453605.234,454588.447,,38,20
screen,html.Screen,2_3_1_0_1_39,2022-02-15T15:19:01.446Z,,,,,,,,,,,,,,,,,15,,,,,,,,,,,,,,3778.652999994054,,response,,,,7,F,,,,,,Space,keypress(Space),,,,instrumental,,,,---- --------- ---------- - --- ------- -- --- ------------<br>----- -- -------- ------- ---- ------ - -------- ---- -----<br>--- ------- ---- -- --- -------- --- - ----- ------ ---- --<br>-------- --- -------- -------- --- -------- ---- -- after -<br>-------- ---- --- ---------- --------- -- ------- ------ -<br>--------- ----- -----,458368.3000000119,458367.09999999404,454571.498,454586.5,454588.447,458371.333,,39,after
