sender,sender_type,sender_id,timestamp,meta,,Blues,Classical,Country,Dance,Electronic,Folk,Gospel,Hip-Hop,Jazz,Latin,Musical/Film,New-age,Pop,Prolific_id,Provo_ID,R&B,Rap,Reggae,Religious,Rock,Soul,Swing,Traditional,age,artist_name,correct,correctResponse,distraction,duration,education,ended_on,familiarity,gender,headphone_check_performance,item,list,music_frequency,offensiveness,pleasantness,position_correct,preference,response,response_action,snippet_file,song_name,song_rating,sound,stimulus_1,stimulus_2,stimulus_3,text,time_commit,time_end,time_render,time_run,time_show,time_switch,url,word,word_ID
Prolific ID,html.Form,0,2022-02-17T16:42:38.021Z,"{""labjs_version"":""20.2.2"",""labjs_build"":{""flavor"":""production"",""commit"":""a25486e0c714a0ae2ce03ff94b7bb6896854dcfa""},""location"":""https://run.pavlovia.org/mvasilev/prolific2_music_f/"",""userAgent"":""Mozilla/5.0 (Windows NT 10.0; Win64; x64) AppleWebKit/537.36 (KHTML, like Gecko) Chrome/98.0.4758.102 Safari/537.36"",""platform"":""Win32"",""language"":""en-GB"",""locale"":""en-GB"",""timeZone"":""Europe/London"",""timezoneOffset"":0,""screen_width"":1920,""screen_height"":1080,""scroll_width"":1920,""scroll_height"":921,""window_innerWidth"":1920,""window_innerHeight"":969,""devicePixelRatio"":1}",,,,,,,,,,,,,,,5ef0ff8017f678488a2e62b2,,,,,,,,,,,,,,,8557.03999998808,,form submission,,,,,,,,,,,,,,,,,,,,,12162,12161.699999988079,3587.829,3600.800000011921,3604.66,12171.388,{},,
Introduction,html.Screen,1_0,2022-02-17T16:42:42.630Z,,,,,,,,,,,,,,,,,,,,,,,,,,,,,,,4597.611999999999,,response,,,,,,,,,,,continue,click button,,,,,,,,,16770.399999976158,16769,12154.758,12162.300000011921,12171.388,16771.394,,,
Volume calibration,html.Screen,1_1,2022-02-17T16:43:26.908Z,,,,,,,,,,,,,,,,,,,,,,,,,,,,,,,44275.106,,response,,,,,,,,,,,continue,click button,,,,,,,,,61048.60000002384,61046.5,16754.744,16770.5,16771.394,61054.839,,,
Task instructions,html.Screen,1_2,2022-02-17T16:43:31.092Z,,,,,,,,,,,,,,,,,,,,,,,,,,,,,,,4177.661,,response,,,,,,,,,,,continue,click button,,,,,,,,,65232.89999997616,65232.5,61038.27,61048.69999998808,61054.839,65238.255,,,
Sounds,html.Screen,1_3_0_0,2022-02-17T16:43:35.332Z,,,,,,,,,,,,,,,,,,,,,,,,,,,,,,,4249.9490000000005,,timeout,,,,,,,,,1,,,,,,,,S,O,I,,69472.80000001192,69471.539,65221.606,65233,65238.255,69488.204,,,
Judgement,html.Screen,1_3_0_1,2022-02-17T16:43:37.880Z,,,,,,,,,,,,,,,,,,,,,,,,,,,,true,1,,2532.096000011923,,response,,,,,,,,,1,,1,click #choice-1,,,,,S,O,I,,72020.69999998808,72020.30000001192,69471.539,69472.80000001192,69488.204,72021.61,,,
Trial,flow.Sequence,1_3_0,2022-02-17T16:43:37.880Z,,,,,,,,,,,,,,,,,,,,,,,,,,,,,,,6782.045000011924,,completion,,,,,,,,,1,,,,,,,,S,O,I,,72020.89999997616,72020.30000001192,65221.606,65233,65238.255,72021.61,,,
Sounds,html.Screen,1_3_1_0,2022-02-17T16:43:42.114Z,,,,,,,,,,,,,,,,,,,,,,,,,,,,,,,4250.036999999997,,timeout,,,,,,,,,2,,,,,,,,O,S,I,,76255.30000001192,76254.953,72004.982,72020.89999997616,72021.61,76271.647,,,
Judgement,html.Screen,1_3_1_1,2022-02-17T16:43:42.691Z,,,,,,,,,,,,,,,,,,,,,,,,,,,,true,2,,559.5529999880819,,response,,,,,,,,,2,,2,click #choice-2,,,,,O,S,I,,76831.69999998808,76831.19999998808,76254.953,76255.39999997616,76271.647,76838.24,,,
Trial,flow.Sequence,1_3_1,2022-02-17T16:43:42.691Z,,,,,,,,,,,,,,,,,,,,,,,,,,,,,,,4809.5899999880785,,completion,,,,,,,,,2,,,,,,,,O,S,I,,76831.69999998808,76831.19999998808,72004.982,72020.89999997616,72021.61,76838.24,,,
Sounds,html.Screen,1_3_2_0,2022-02-17T16:43:46.931Z,,,,,,,,,,,,,,,,,,,,,,,,,,,,,,,4250.120999999999,,timeout,,,,,,,,,3,,,,,,,,O,I,S,,81072,81071.683,76821.617,76831.89999997616,76838.24,81088.361,,,
Judgement,html.Screen,1_3_2_1,2022-02-17T16:43:47.580Z,,,,,,,,,,,,,,,,,,,,,,,,,,,,true,3,,632.2390000238374,,response,,,,,,,,,3,,3,click #choice-3,,,,,O,I,S,,81721.19999998808,81720.60000002384,81071.683,81072,81088.361,81740.581,,,
Trial,flow.Sequence,1_3_2,2022-02-17T16:43:47.580Z,,,,,,,,,,,,,,,,,,,,,,,,,,,,,,,4882.360000023837,,completion,,,,,,,,,3,,,,,,,,O,I,S,,81721.30000001192,81720.60000002384,76821.617,76831.80000001192,76838.24,81740.581,,,
Sounds,html.Screen,1_3_3_0,2022-02-17T16:43:51.831Z,,,,,,,,,,,,,,,,,,,,,,,,,,,,,,,4247.722999999998,,timeout,,,,,,,,,3,,,,,,,,I,O,S,,85972,85971.678,81704.894,81721.39999997616,81740.581,85988.304,,,
Judgement,html.Screen,1_3_3_1,2022-02-17T16:43:52.312Z,,,,,,,,,,,,,,,,,,,,,,,,,,,,true,3,,463.9960000119172,,response,,,,,,,,,3,,3,click #choice-3,,,,,I,O,S,,86452.69999998808,86452.30000001192,85971.678,85972.10000002384,85988.304,86454.931,,,
Trial,flow.Sequence,1_3_3,2022-02-17T16:43:52.312Z,,,,,,,,,,,,,,,,,,,,,,,,,,,,,,,4711.719000011915,,completion,,,,,,,,,3,,,,,,,,I,O,S,,86452.80000001192,86452.30000001192,81704.894,81721.39999997616,81740.581,86454.931,,,
Sounds,html.Screen,1_3_4_0,2022-02-17T16:43:56.548Z,,,,,,,,,,,,,,,,,,,,,,,,,,,,,,,4250.171000000002,,timeout,,,,,,,,,2,,,,,,,,I,S,O,,90688.69999998808,90688.396,86438.369,86452.80000001192,86454.931,90705.102,,,
Judgement,html.Screen,1_3_4_1,2022-02-17T16:43:57.414Z,,,,,,,,,,,,,,,,,,,,,,,,,,,,true,2,,849.5979999880801,,response,,,,,,,,,2,,2,click #choice-2,,,,,I,S,O,,91555.10000002384,91554.69999998808,90688.396,90688.80000001192,90705.102,91588.382,,,
Trial,flow.Sequence,1_3_4,2022-02-17T16:43:57.414Z,,,,,,,,,,,,,,,,,,,,,,,,,,,,,,,5099.768999988082,,completion,,,,,,,,,2,,,,,,,,I,S,O,,91555.30000001192,91554.69999998808,86438.369,86452.80000001192,86454.931,91588.382,,,
Sounds,html.Screen,1_3_5_0,2022-02-17T16:44:01.681Z,,,,,,,,,,,,,,,,,,,,,,,,,,,,,,,4250.016000000003,,timeout,,,,,,,,,1,,,,,,,,S,I,O,,95822,95821.732,91571.652,91555.30000001192,91588.382,95838.398,,,
Judgement,html.Screen,1_3_5_1,2022-02-17T16:44:02.256Z,,,,,,,,,,,,,,,,,,,,,,,,,,,,true,1,,558.301999988078,,response,,,,,,,,,1,,1,click #choice-1,,,,,S,I,O,,96397.30000001192,96396.69999998808,95821.732,95822.10000002384,95838.398,96404.958,,,
Trial,flow.Sequence,1_3_5,2022-02-17T16:44:02.256Z,,,,,,,,,,,,,,,,,,,,,,,,,,,,,,,4808.317999988081,,completion,,,,,,,,,1,,,,,,,,S,I,O,,96397.39999997616,96396.69999998808,91571.652,91555.30000001192,91588.382,96404.958,,,
Task,flow.Loop,1_3,2022-02-17T16:44:02.259Z,,,,,,,,,,,,,,,,,,,,,,,,,,,,,,,31158.44499998808,,completion,,,1,,,,,,,,,,,,,,,,,,96400.39999997616,96396.69999998808,65221.606,65233,65238.255,96404.958,,,
Trap,html.Screen,1_4,2022-02-17T16:44:02.260Z,,,,,,,,,,,,,,,,,,,,,,,,,,,,,,,NaN,,skipped,,,,,,,,,,,,,,,,,,,,,96401.30000001192,96396.69999998808,,96401.19999998808,,96404.958,,,
Thanks,html.Screen,1_5,2022-02-17T16:44:05.700Z,,,,,,,,,,,,,,,,,,,,,,,,,,,,,,,3435.642000023843,,response,,,,,,,,,,,continue,click button,,,,,,,,,99841,99840.60000002384,96388.433,96401.39999997616,96404.958,101554.995,,,
Headphone screening,flow.Sequence,1,2022-02-17T16:44:05.700Z,,,,,,,,,,,,,,,,,,,,,,,,,,,,,,,87669.21200002384,,completion,,,,,,,,,,,,,,,,,,,,,99841.10000002384,99840.60000002384,12154.758,12162.300000011921,12171.388,101554.995,,,
Instructions,html.Page,2_0,2022-02-17T16:44:20.002Z,,,,,,,,,,,,,,,,,,,,,,,,,,,,,,,12587.904999976163,,form submission,,,,,,,,,,,,,,,,,,,,,114143,114142.89999997616,101538.412,101554.89999997616,101554.995,114155.076,,,
Holding screen,html.Screen,2_1_0_0,2022-02-17T16:44:29.998Z,,,,,,,,,,,,,,,,,,,,,,,,,,,,,,,9999.978999999992,,timeout,,,,,,,,,,,,,,,,,,,,,124138.80000001192,124138.441,114138.396,114143.10000002384,114155.076,124155.055,,,
screen,html.Screen,2_1_0_1_0,2022-02-17T16:44:31.159Z,,,,,,,,,,,,,,,,,53,,,,,,,,,,,,,,1142.144999988086,,response,,,,99,,,,,,,Space,keypress(Space),,,,,,,,When -- ----- -- ------ - ------- --- ----------<br>------------- ------ ------ ---- ---- ------- ----- -- ----<br>-------- ------- -- ---------- --- - --- ----- ----- ----<br>---- --- --- ----- --- ---- ---- ------- ----- ---- -------<br>--- --- -- ----- -- --- ---- -- --- ---- -- ------ ------<br>--- ----- -- ----,125300,125297.19999998808,124138.441,124138.89999997616,124155.055,125305.082,,0,When
screen,html.Screen,2_1_0_1_1,2022-02-17T16:44:31.749Z,,,,,,,,,,,,,,,,,53,,,,,,,,,,,,,,584.1179999880842,,response,,,,99,,,,,,,Space,keypress(Space),,,,,,,,---- it ----- -- ------ - ------- --- ----------<br>------------- ------ ------ ---- ---- ------- ----- -- ----<br>-------- ------- -- ---------- --- - --- ----- ----- ----<br>---- --- --- ----- --- ---- ---- ------- ----- ---- -------<br>--- --- -- ----- -- --- ---- -- --- ---- -- ------ ------<br>--- ----- -- ----,125890.10000002384,125889.19999998808,125288.489,125300.19999998808,125305.082,125905.092,,1,it
screen,html.Screen,2_1_0_1_2,2022-02-17T16:44:32.356Z,,,,,,,,,,,,,,,,,53,,,,,,,,,,,,,,591.6079999880749,,response,,,,99,,,,,,,Space,keypress(Space),,,,,,,,---- -- comes -- ------ - ------- --- ----------<br>------------- ------ ------ ---- ---- ------- ----- -- ----<br>-------- ------- -- ---------- --- - --- ----- ----- ----<br>---- --- --- ----- --- ---- ---- ------- ----- ---- -------<br>--- --- -- ----- -- --- ---- -- --- ---- -- ------ ------<br>--- ----- -- ----,126497.10000002384,126496.69999998808,125888.426,125890.30000001192,125905.092,126505.176,,2,comes
screen,html.Screen,2_1_0_1_3,2022-02-17T16:44:32.740Z,,,,,,,,,,,,,,,,,53,,,,,,,,,,,,,,375.4240000238351,,response,,,,99,,,,,,,Space,keypress(Space),,,,,,,,---- -- ----- to ------ - ------- --- ----------<br>------------- ------ ------ ---- ---- ------- ----- -- ----<br>-------- ------- -- ---------- --- - --- ----- ----- ----<br>---- --- --- ----- --- ---- ---- ------- ----- ---- -------<br>--- --- -- ----- -- --- ---- -- --- ---- -- ------ ------<br>--- ----- -- ----,126880.80000001192,126880.60000002384,126488.477,126497.10000002384,126505.176,126888.486,,3,to
screen,html.Screen,2_1_0_1_4,2022-02-17T16:44:33.180Z,,,,,,,,,,,,,,,,,53,,,,,,,,,,,,,,432.0139999999956,,response,,,,99,,,,,,,Space,keypress(Space),,,,,,,,---- -- ----- -- having - ------- --- ----------<br>------------- ------ ------ ---- ---- ------- ----- -- ----<br>-------- ------- -- ---------- --- - --- ----- ----- ----<br>---- --- --- ----- --- ---- ---- ------- ----- ---- -------<br>--- --- -- ----- -- --- ---- -- --- ---- -- ------ ------<br>--- ----- -- ----,127320.80000001192,127320.5,126871.816,126880.89999997616,126888.486,127347.26,,4,having
screen,html.Screen,2_1_0_1_5,2022-02-17T16:44:33.597Z,,,,,,,,,,,,,,,,,53,,,,,,,,,,,,,,389.9399999880843,,response,,,,99,,,,,,,Space,keypress(Space),,,,,,,,---- -- ----- -- ------ a ------- --- ----------<br>------------- ------ ------ ---- ---- ------- ----- -- ----<br>-------- ------- -- ---------- --- - --- ----- ----- ----<br>---- --- --- ----- --- ---- ---- ------- ----- ---- -------<br>--- --- -- ----- -- --- ---- -- --- ---- -- ------ ------<br>--- ----- -- ----,127738.10000002384,127737.19999998808,127305.137,127320.89999997616,127347.26,127755.163,,5,a
screen,html.Screen,2_1_0_1_6,2022-02-17T16:44:34.052Z,,,,,,,,,,,,,,,,,53,,,,,,,,,,,,,,437.4370000238414,,response,,,,99,,,,,,,Space,keypress(Space),,,,,,,,---- -- ----- -- ------ - lasting --- ----------<br>------------- ------ ------ ---- ---- ------- ----- -- ----<br>-------- ------- -- ---------- --- - --- ----- ----- ----<br>---- --- --- ----- --- ---- ---- ------- ----- ---- -------<br>--- --- -- ----- -- --- ---- -- --- ---- -- ------ ------<br>--- ----- -- ----,128193,128192.60000002384,127738.538,127738.30000001192,127755.163,128205.184,,6,lasting
screen,html.Screen,2_1_0_1_7,2022-02-17T16:44:34.452Z,,,,,,,,,,,,,,,,,53,,,,,,,,,,,,,,387.51599998808524,,response,,,,99,,,,,,,Space,keypress(Space),,,,,,,,---- -- ----- -- ------ - ------- and ----------<br>------------- ------ ------ ---- ---- ------- ----- -- ----<br>-------- ------- -- ---------- --- - --- ----- ----- ----<br>---- --- --- ----- --- ---- ---- ------- ----- ---- -------<br>--- --- -- ----- -- --- ---- -- --- ---- -- ------ ------<br>--- ----- -- ----,128593.19999998808,128592.69999998808,128188.482,128193.10000002384,128205.184,128605.222,,7,and
screen,html.Screen,2_1_0_1_8,2022-02-17T16:44:35.349Z,,,,,,,,,,,,,,,,,53,,,,,,,,,,,,,,883.9779999880848,,response,,,,99,,,,,,,Space,keypress(Space),,,,,,,,---- -- ----- -- ------ - ------- --- fulfilling<br>------------- ------ ------ ---- ---- ------- ----- -- ----<br>-------- ------- -- ---------- --- - --- ----- ----- ----<br>---- --- --- ----- --- ---- ---- ------- ----- ---- -------<br>--- --- -- ----- -- --- ---- -- --- ---- -- ------ ------<br>--- ----- -- ----,129490.10000002384,129489.19999998808,128588.535,128593.39999997616,128605.222,129505.178,,8,fulfilling
screen,html.Screen,2_1_0_1_9,2022-02-17T16:44:36.029Z,,,,,,,,,,,,,,,,,53,,,,,,,,,,,,,,664.122000011921,,response,,,,99,,,,,,,Space,keypress(Space),,,,,,,,"---- -- ----- -- ------ - ------- --- ----------<br>relationship, ------ ------ ---- ---- ------- ----- -- ----<br>-------- ------- -- ---------- --- - --- ----- ----- ----<br>---- --- --- ----- --- ---- ---- ------- ----- ---- -------<br>--- --- -- ----- -- --- ---- -- --- ---- -- ------ ------<br>--- ----- -- ----",130170,130169.30000001192,129488.456,129490.30000001192,129505.178,130196.227,,9,"relationship,"
screen,html.Screen,2_1_0_1_10,2022-02-17T16:44:36.492Z,,,,,,,,,,,,,,,,,53,,,,,,,,,,,,,,436.3730000238429,,response,,,,99,,,,,,,Space,keypress(Space),,,,,,,,---- -- ----- -- ------ - ------- --- ----------<br>------------- common ------ ---- ---- ------- ----- -- ----<br>-------- ------- -- ---------- --- - --- ----- ----- ----<br>---- --- --- ----- --- ---- ---- ------- ----- ---- -------<br>--- --- -- ----- -- --- ---- -- --- ---- -- ------ ------<br>--- ----- -- ----,130633,130632.60000002384,130155.082,130170.30000001192,130196.227,130638.434,,10,common
screen,html.Screen,2_1_0_1_11,2022-02-17T16:44:37.157Z,,,,,,,,,,,,,,,,,53,,,,,,,,,,,,,,658.5660000000062,,response,,,,99,,,,,,,Space,keypress(Space),,,,,,,,---- -- ----- -- ------ - ------- --- ----------<br>------------- ------ wisdom ---- ---- ------- ----- -- ----<br>-------- ------- -- ---------- --- - --- ----- ----- ----<br>---- --- --- ----- --- ---- ---- ------- ----- ---- -------<br>--- --- -- ----- -- --- ---- -- --- ---- -- ------ ------<br>--- ----- -- ----,131297.60000002384,131297,130621.874,130633.10000002384,130638.434,131305.28,,11,wisdom
screen,html.Screen,2_1_0_1_12,2022-02-17T16:44:37.540Z,,,,,,,,,,,,,,,,,53,,,,,,,,,,,,,,375.320000023843,,response,,,,99,,,,,,,Space,keypress(Space),,,,,,,,---- -- ----- -- ------ - ------- --- ----------<br>------------- ------ ------ says ---- ------- ----- -- ----<br>-------- ------- -- ---------- --- - --- ----- ----- ----<br>---- --- --- ----- --- ---- ---- ------- ----- ---- -------<br>--- --- -- ----- -- --- ---- -- --- ---- -- ------ ------<br>--- ----- -- ----,131681,131680.60000002384,131288.501,131297.69999998808,131305.28,131688.515,,12,says
screen,html.Screen,2_1_0_1_13,2022-02-17T16:44:37.956Z,,,,,,,,,,,,,,,,,53,,,,,,,,,,,,,,407.8849999761442,,response,,,,99,,,,,,,Space,keypress(Space),,,,,,,,---- -- ----- -- ------ - ------- --- ----------<br>------------- ------ ------ ---- that ------- ----- -- ----<br>-------- ------- -- ---------- --- - --- ----- ----- ----<br>---- --- --- ----- --- ---- ---- ------- ----- ---- -------<br>--- --- -- ----- -- --- ---- -- --- ---- -- ------ ------<br>--- ----- -- ----,132096.69999998808,132096.39999997616,131671.8,131681,131688.515,132105.083,,13,that
screen,html.Screen,2_1_0_1_14,2022-02-17T16:44:38.540Z,,,,,,,,,,,,,,,,,53,,,,,,,,,,,,,,575.4169999999867,,response,,,,99,,,,,,,Space,keypress(Space),,,,,,,,---- -- ----- -- ------ - ------- --- ----------<br>------------- ------ ------ ---- ---- feeling ----- -- ----<br>-------- ------- -- ---------- --- - --- ----- ----- ----<br>---- --- --- ----- --- ---- ---- ------- ----- ---- -------<br>--- --- -- ----- -- --- ---- -- --- ---- -- ------ ------<br>--- ----- -- ----,132680.89999997616,132680.5,132088.511,132096.69999998808,132105.083,132688.587,,14,feeling
screen,html.Screen,2_1_0_1_15,2022-02-17T16:44:39.020Z,,,,,,,,,,,,,,,,,53,,,,,,,,,,,,,,471.8129999761586,,response,,,,99,,,,,,,Space,keypress(Space),,,,,,,,---- -- ----- -- ------ - ------- --- ----------<br>------------- ------ ------ ---- ---- ------- close -- ----<br>-------- ------- -- ---------- --- - --- ----- ----- ----<br>---- --- --- ----- --- ---- ---- ------- ----- ---- -------<br>--- --- -- ----- -- --- ---- -- --- ---- -- ------ ------<br>--- ----- -- ----,133160.69999998808,133160.39999997616,132671.862,132681,132688.587,133171.847,,15,close
screen,html.Screen,2_1_0_1_16,2022-02-17T16:44:39.477Z,,,,,,,,,,,,,,,,,53,,,,,,,,,,,,,,445.3529999880702,,response,,,,99,,,,,,,Space,keypress(Space),,,,,,,,---- -- ----- -- ------ - ------- --- ----------<br>------------- ------ ------ ---- ---- ------- ----- to ----<br>-------- ------- -- ---------- --- - --- ----- ----- ----<br>---- --- --- ----- --- ---- ---- ------- ----- ---- -------<br>--- --- -- ----- -- --- ---- -- --- ---- -- ------ ------<br>--- ----- -- ----,133618.10000002384,133617.19999998808,133155.171,133160.80000001192,133171.847,133621.869,,16,to
screen,html.Screen,2_1_0_1_17,2022-02-17T16:44:40.028Z,,,,,,,,,,,,,,,,,53,,,,,,,,,,,,,,546.7310000238358,,response,,,,99,,,,,,,Space,keypress(Space),,,,,,,,---- -- ----- -- ------ - ------- --- ----------<br>------------- ------ ------ ---- ---- ------- ----- -- your<br>-------- ------- -- ---------- --- - --- ----- ----- ----<br>---- --- --- ----- --- ---- ---- ------- ----- ---- -------<br>--- --- -- ----- -- --- ---- -- --- ---- -- ------ ------<br>--- ----- -- ----,134168.89999997616,134168.60000002384,133605.168,133618.30000001192,133621.869,134171.852,,17,your
screen,html.Screen,2_1_0_1_18,2022-02-17T16:44:40.460Z,,,,,,,,,,,,,,,,,53,,,,,,,,,,,,,,428.6479999999865,,response,,,,99,,,,,,,Space,keypress(Space),,,,,,,,---- -- ----- -- ------ - ------- --- ----------<br>------------- ------ ------ ---- ---- ------- ----- -- ----<br>romantic ------- -- ---------- --- - --- ----- ----- ----<br>---- --- --- ----- --- ---- ---- ------- ----- ---- -------<br>--- --- -- ----- -- --- ---- -- --- ---- -- ------ ------<br>--- ----- -- ----,134600.89999997616,134600.5,134155.201,134169.10000002384,134171.852,134605.134,,18,romantic
screen,html.Screen,2_1_0_1_19,2022-02-17T16:44:40.988Z,,,,,,,,,,,,,,,,,53,,,,,,,,,,,,,,523.4660000238509,,response,,,,99,,,,,,,Space,keypress(Space),,,,,,,,---- -- ----- -- ------ - ------- --- ----------<br>------------- ------ ------ ---- ---- ------- ----- -- ----<br>-------- partner -- ---------- --- - --- ----- ----- ----<br>---- --- --- ----- --- ---- ---- ------- ----- ---- -------<br>--- --- -- ----- -- --- ---- -- --- ---- -- ------ ------<br>--- ----- -- ----,135128.89999997616,135128.60000002384,134588.513,134600.89999997616,134605.134,135138.484,,19,partner
screen,html.Screen,2_1_0_1_20,2022-02-17T16:44:41.412Z,,,,,,,,,,,,,,,,,53,,,,,,,,,,,,,,414.51600000000326,,response,,,,99,,,,,,,Space,keypress(Space),,,,,,,,---- -- ----- -- ------ - ------- --- ----------<br>------------- ------ ------ ---- ---- ------- ----- -- ----<br>-------- ------- is ---------- --- - --- ----- ----- ----<br>---- --- --- ----- --- ---- ---- ------- ----- ---- -------<br>--- --- -- ----- -- --- ---- -- --- ---- -- ------ ------<br>--- ----- -- ----,135553.5,135553,135121.833,135128.89999997616,135138.484,135555.201,,20,is
screen,html.Screen,2_1_0_1_21,2022-02-17T16:44:41.972Z,,,,,,,,,,,,,,,,,53,,,,,,,,,,,,,,557.4989999880781,,response,,,,99,,,,,,,Space,keypress(Space),,,,,,,,---- -- ----- -- ------ - ------- --- ----------<br>------------- ------ ------ ---- ---- ------- ----- -- ----<br>-------- ------- -- paramount. --- - --- ----- ----- ----<br>---- --- --- ----- --- ---- ---- ------- ----- ---- -------<br>--- --- -- ----- -- --- ---- -- --- ---- -- ------ ------<br>--- ----- -- ----,136113.10000002384,136112.69999998808,135538.49,135553.60000002384,135555.201,136121.793,,21,paramount.
screen,html.Screen,2_1_0_1_22,2022-02-17T16:44:42.445Z,,,,,,,,,,,,,,,,,53,,,,,,,,,,,,,,463.40699998807395,,response,,,,99,,,,,,,Space,keypress(Space),,,,,,,,---- -- ----- -- ------ - ------- --- ----------<br>------------- ------ ------ ---- ---- ------- ----- -- ----<br>-------- ------- -- ---------- But - --- ----- ----- ----<br>---- --- --- ----- --- ---- ---- ------- ----- ---- -------<br>--- --- -- ----- -- --- ---- -- --- ---- -- ------ ------<br>--- ----- -- ----,136586.10000002384,136585.19999998808,136105.126,136113.30000001192,136121.793,136588.575,,22,But
screen,html.Screen,2_1_0_1_23,2022-02-17T16:44:42.836Z,,,,,,,,,,,,,,,,,53,,,,,,,,,,,,,,388.2250000119093,,response,,,,99,,,,,,,Space,keypress(Space),,,,,,,,---- -- ----- -- ------ - ------- --- ----------<br>------------- ------ ------ ---- ---- ------- ----- -- ----<br>-------- ------- -- ---------- --- a --- ----- ----- ----<br>---- --- --- ----- --- ---- ---- ------- ----- ---- -------<br>--- --- -- ----- -- --- ---- -- --- ---- -- ------ ------<br>--- ----- -- ----,136977.10000002384,136976.80000001192,136571.861,136586.30000001192,136588.575,136988.529,,23,a
screen,html.Screen,2_1_0_1_24,2022-02-17T16:44:43.893Z,,,,,,,,,,,,,,,,,53,,,,,,,,,,,,,,1044.7710000119114,,response,,,,99,,,,,,,Space,keypress(Space),,,,,,,,---- -- ----- -- ------ - ------- --- ----------<br>------------- ------ ------ ---- ---- ------- ----- -- ----<br>-------- ------- -- ---------- --- - new ----- ----- ----<br>---- --- --- ----- --- ---- ---- ------- ----- ---- -------<br>--- --- -- ----- -- --- ---- -- --- ---- -- ------ ------<br>--- ----- -- ----,138034.10000002384,138033.30000001192,136971.917,136977.10000002384,136988.529,138038.531,,24,new
screen,html.Screen,2_1_0_1_25,2022-02-17T16:44:44.262Z,,,,,,,,,,,,,,,,,53,,,,,,,,,,,,,,363.2690000119328,,response,,,,99,,,,,,,Space,keypress(Space),,,,,,,,---- -- ----- -- ------ - ------- --- ----------<br>------------- ------ ------ ---- ---- ------- ----- -- ----<br>-------- ------- -- ---------- --- - --- study ----- ----<br>---- --- --- ----- --- ---- ---- ------- ----- ---- -------<br>--- --- -- ----- -- --- ---- -- --- ---- -- ------ ------<br>--- ----- -- ----,138402.69999998808,138401.80000001192,138021.825,138034.39999997616,138038.531,138405.134,,25,study
screen,html.Screen,2_1_0_1_26,2022-02-17T16:44:44.556Z,,,,,,,,,,,,,,,,,53,,,,,,,,,,,,,,291.56599998808815,,response,,,,99,,,,,,,Space,keypress(Space),,,,,,,,---- -- ----- -- ------ - ------- --- ----------<br>------------- ------ ------ ---- ---- ------- ----- -- ----<br>-------- ------- -- ---------- --- - --- ----- finds ----<br>---- --- --- ----- --- ---- ---- ------- ----- ---- -------<br>--- --- -- ----- -- --- ---- -- --- ---- -- ------ ------<br>--- ----- -- ----,138697,138696.69999998808,138388.536,138402.89999997616,138405.134,138705.194,,26,finds
screen,html.Screen,2_1_0_1_27,2022-02-17T16:44:44.989Z,,,,,,,,,,,,,,,,,53,,,,,,,,,,,,,,424.10600001193234,,response,,,,99,,,,,,,Space,keypress(Space),,,,,,,,---- -- ----- -- ------ - ------- --- ----------<br>------------- ------ ------ ---- ---- ------- ----- -- ----<br>-------- ------- -- ---------- --- - --- ----- ----- that<br>---- --- --- ----- --- ---- ---- ------- ----- ---- -------<br>--- --- -- ----- -- --- ---- -- --- ---- -- ------ ------<br>--- ----- -- ----,139130.10000002384,139129.30000001192,138688.516,138697.10000002384,138705.194,139138.532,,27,that
screen,html.Screen,2_1_0_1_28,2022-02-17T16:44:45.380Z,,,,,,,,,,,,,,,,,53,,,,,,,,,,,,,,382.3679999761516,,response,,,,99,,,,,,,Space,keypress(Space),,,,,,,,---- -- ----- -- ------ - ------- --- ----------<br>------------- ------ ------ ---- ---- ------- ----- -- ----<br>-------- ------- -- ---------- --- - --- ----- ----- ----<br>it's --- --- ----- --- ---- ---- ------- ----- ---- -------<br>--- --- -- ----- -- --- ---- -- --- ---- -- ------ ------<br>--- ----- -- ----,139521.30000001192,139520.89999997616,139121.815,139130.30000001192,139138.532,139538.56,,28,it's
screen,html.Screen,2_1_0_1_29,2022-02-17T16:44:45.781Z,,,,,,,,,,,,,,,,,53,,,,,,,,,,,,,,382.5400000238442,,response,,,,99,,,,,,,Space,keypress(Space),,,,,,,,---- -- ----- -- ------ - ------- --- ----------<br>------------- ------ ------ ---- ---- ------- ----- -- ----<br>-------- ------- -- ---------- --- - --- ----- ----- ----<br>---- not --- ----- --- ---- ---- ------- ----- ---- -------<br>--- --- -- ----- -- --- ---- -- --- ---- -- ------ ------<br>--- ----- -- ----,139921.80000001192,139921.10000002384,139505.196,139521.39999997616,139538.56,139938.601,,29,not
screen,html.Screen,2_1_0_1_30,2022-02-17T16:44:46.180Z,,,,,,,,,,,,,,,,,53,,,,,,,,,,,,,,381.99900002384675,,response,,,,99,,,,,,,Space,keypress(Space),,,,,,,,---- -- ----- -- ------ - ------- --- ----------<br>------------- ------ ------ ---- ---- ------- ----- -- ----<br>-------- ------- -- ---------- --- - --- ----- ----- ----<br>---- --- how ----- --- ---- ---- ------- ----- ---- -------<br>--- --- -- ----- -- --- ---- -- --- ---- -- ------ ------<br>--- ----- -- ----,140320.89999997616,140320.60000002384,139921.854,139922,139938.601,140346.731,,30,how
screen,html.Screen,2_1_0_1_31,2022-02-17T16:44:46.613Z,,,,,,,,,,,,,,,,,53,,,,,,,,,,,,,,406.4689999880793,,response,,,,99,,,,,,,Space,keypress(Space),,,,,,,,---- -- ----- -- ------ - ------- --- ----------<br>------------- ------ ------ ---- ---- ------- ----- -- ----<br>-------- ------- -- ---------- --- - --- ----- ----- ----<br>---- --- --- close --- ---- ---- ------- ----- ---- -------<br>--- --- -- ----- -- --- ---- -- --- ---- -- ------ ------<br>--- ----- -- ----,140754,140753.19999998808,140305.241,140320.89999997616,140346.731,140774.575,,31,close
screen,html.Screen,2_1_0_1_32,2022-02-17T16:44:47.037Z,,,,,,,,,,,,,,,,,53,,,,,,,,,,,,,,402.7250000119093,,response,,,,99,,,,,,,Space,keypress(Space),,,,,,,,---- -- ----- -- ------ - ------- --- ----------<br>------------- ------ ------ ---- ---- ------- ----- -- ----<br>-------- ------- -- ---------- --- - --- ----- ----- ----<br>---- --- --- ----- you ---- ---- ------- ----- ---- -------<br>--- --- -- ----- -- --- ---- -- --- ---- -- ------ ------<br>--- ----- -- ----,141178.10000002384,141177.30000001192,140738.513,140754.19999998808,140774.575,141188.569,,32,you
screen,html.Screen,2_1_0_1_33,2022-02-17T16:44:47.485Z,,,,,,,,,,,,,,,,,53,,,,,,,,,,,,,,436.6309999880905,,response,,,,99,,,,,,,Space,keypress(Space),,,,,,,,---- -- ----- -- ------ - ------- --- ----------<br>------------- ------ ------ ---- ---- ------- ----- -- ----<br>-------- ------- -- ---------- --- - --- ----- ----- ----<br>---- --- --- ----- --- feel ---- ------- ----- ---- -------<br>--- --- -- ----- -- --- ---- -- --- ---- -- ------ ------<br>--- ----- -- ----,141626,141625.19999998808,141171.874,141178.39999997616,141188.569,141638.443,,33,feel
screen,html.Screen,2_1_0_1_34,2022-02-17T16:44:47.885Z,,,,,,,,,,,,,,,,,53,,,,,,,,,,,,,,386.75699998807977,,response,,,,99,,,,,,,Space,keypress(Space),,,,,,,,---- -- ----- -- ------ - ------- --- ----------<br>------------- ------ ------ ---- ---- ------- ----- -- ----<br>-------- ------- -- ---------- --- - --- ----- ----- ----<br>---- --- --- ----- --- ---- that ------- ----- ---- -------<br>--- --- -- ----- -- --- ---- -- --- ---- -- ------ ------<br>--- ----- -- ----,142026.10000002384,142025.19999998808,141621.889,141627.30000001192,141638.443,142038.562,,34,that
screen,html.Screen,2_1_0_1_35,2022-02-17T16:44:48.277Z,,,,,,,,,,,,,,,,,53,,,,,,,,,,,,,,378.7380000119156,,response,,,,99,,,,,,,Space,keypress(Space),,,,,,,,---- -- ----- -- ------ - ------- --- ----------<br>------------- ------ ------ ---- ---- ------- ----- -- ----<br>-------- ------- -- ---------- --- - --- ----- ----- ----<br>---- --- --- ----- --- ---- ---- matters ----- ---- -------<br>--- --- -- ----- -- --- ---- -- --- ---- -- ------ ------<br>--- ----- -- ----,142418.10000002384,142417.30000001192,142021.882,142026.30000001192,142038.562,142421.887,,35,matters
screen,html.Screen,2_1_0_1_36,2022-02-17T16:44:48.724Z,,,,,,,,,,,,,,,,,53,,,,,,,,,,,,,,442.71300002385397,,response,,,,99,,,,,,,Space,keypress(Space),,,,,,,,"---- -- ----- -- ------ - ------- --- ----------<br>------------- ------ ------ ---- ---- ------- ----- -- ----<br>-------- ------- -- ---------- --- - --- ----- ----- ----<br>---- --- --- ----- --- ---- ---- ------- most, ---- -------<br>--- --- -- ----- -- --- ---- -- --- ---- -- ------ ------<br>--- ----- -- ----",142865,142864.60000002384,142405.189,142418.39999997616,142421.887,142871.941,,36,"most,"
screen,html.Screen,2_1_0_1_37,2022-02-17T16:44:49.277Z,,,,,,,,,,,,,,,,,53,,,,,,,,,,,,,,545.3590000119293,,response,,,,99,,,,,,,Space,keypress(Space),,,,,,,,---- -- ----- -- ------ - ------- --- ----------<br>------------- ------ ------ ---- ---- ------- ----- -- ----<br>-------- ------- -- ---------- --- - --- ----- ----- ----<br>---- --- --- ----- --- ---- ---- ------- ----- it's -------<br>--- --- -- ----- -- --- ---- -- --- ---- -- ------ ------<br>--- ----- -- ----,143418.10000002384,143417.30000001192,142855.198,142865,142871.941,143421.924,,37,it's
screen,html.Screen,2_1_0_1_38,2022-02-17T16:44:49.724Z,,,,,,,,,,,,,,,,,53,,,,,,,,,,,,,,442.4759999761591,,response,,,,99,,,,,,,Space,keypress(Space),,,,,,,,---- -- ----- -- ------ - ------- --- ----------<br>------------- ------ ------ ---- ---- ------- ----- -- ----<br>-------- ------- -- ---------- --- - --- ----- ----- ----<br>---- --- --- ----- --- ---- ---- ------- ----- ---- whether<br>--- --- -- ----- -- --- ---- -- --- ---- -- ------ ------<br>--- ----- -- ----,143864.89999997616,143864.39999997616,143405.171,143418.30000001192,143421.924,143871.844,,38,whether
screen,html.Screen,2_1_0_1_39,2022-02-17T16:44:50.164Z,,,,,,,,,,,,,,,,,53,,,,,,,,,,,,,,433.25600002383,,response,,,,99,,,,,,,Space,keypress(Space),,,,,,,,---- -- ----- -- ------ - ------- --- ----------<br>------------- ------ ------ ---- ---- ------- ----- -- ----<br>-------- ------- -- ---------- --- - --- ----- ----- ----<br>---- --- --- ----- --- ---- ---- ------- ----- ---- -------<br>you --- -- ----- -- --- ---- -- --- ---- -- ------ ------<br>--- ----- -- ----,144305.39999997616,144305.10000002384,143855.142,143865,143871.844,144322.026,,39,you
screen,html.Screen,2_1_0_1_40,2022-02-17T16:44:50.580Z,,,,,,,,,,,,,,,,,53,,,,,,,,,,,,,,398.5740000238293,,response,,,,99,,,,,,,Space,keypress(Space),,,,,,,,---- -- ----- -- ------ - ------- --- ----------<br>------------- ------ ------ ---- ---- ------- ----- -- ----<br>-------- ------- -- ---------- --- - --- ----- ----- ----<br>---- --- --- ----- --- ---- ---- ------- ----- ---- -------<br>--- are -- ----- -- --- ---- -- --- ---- -- ------ ------<br>--- ----- -- ----,144720.89999997616,144720.60000002384,144305.182,144305.5,144322.026,144744.789,,40,are
screen,html.Screen,2_1_0_1_41,2022-02-17T16:44:51.140Z,,,,,,,,,,,,,,,,,53,,,,,,,,,,,,,,535.9109999880893,,response,,,,99,,,,,,,Space,keypress(Space),,,,,,,,---- -- ----- -- ------ - ------- --- ----------<br>------------- ------ ------ ---- ---- ------- ----- -- ----<br>-------- ------- -- ---------- --- - --- ----- ----- ----<br>---- --- --- ----- --- ---- ---- ------- ----- ---- -------<br>--- --- as ----- -- --- ---- -- --- ---- -- ------ ------<br>--- ----- -- ----,145281.19999998808,145280.69999998808,144705.185,144721,144744.789,145288.635,,41,as
screen,html.Screen,2_1_0_1_42,2022-02-17T16:44:51.550Z,,,,,,,,,,,,,,,,,53,,,,,,,,,,,,,,401.1650000119116,,response,,,,99,,,,,,,Space,keypress(Space),,,,,,,,---- -- ----- -- ------ - ------- --- ----------<br>------------- ------ ------ ---- ---- ------- ----- -- ----<br>-------- ------- -- ---------- --- - --- ----- ----- ----<br>---- --- --- ----- --- ---- ---- ------- ----- ---- -------<br>--- --- -- close -- --- ---- -- --- ---- -- ------ ------<br>--- ----- -- ----,145690.69999998808,145689.80000001192,145271.933,145281.30000001192,145288.635,145705.313,,42,close
screen,html.Screen,2_1_0_1_43,2022-02-17T16:44:51.948Z,,,,,,,,,,,,,,,,,53,,,,,,,,,,,,,,382.9870000119263,,response,,,,99,,,,,,,Space,keypress(Space),,,,,,,,---- -- ----- -- ------ - ------- --- ----------<br>------------- ------ ------ ---- ---- ------- ----- -- ----<br>-------- ------- -- ---------- --- - --- ----- ----- ----<br>---- --- --- ----- --- ---- ---- ------- ----- ---- -------<br>--- --- -- ----- as --- ---- -- --- ---- -- ------ ------<br>--- ----- -- ----,146088.69999998808,146088.30000001192,145688.54,145690.89999997616,145705.313,146105.24,,43,as
screen,html.Screen,2_1_0_1_44,2022-02-17T16:44:52.324Z,,,,,,,,,,,,,,,,,53,,,,,,,,,,,,,,359.4599999880884,,response,,,,99,,,,,,,Space,keypress(Space),,,,,,,,---- -- ----- -- ------ - ------- --- ----------<br>------------- ------ ------ ---- ---- ------- ----- -- ----<br>-------- ------- -- ---------- --- - --- ----- ----- ----<br>---- --- --- ----- --- ---- ---- ------- ----- ---- -------<br>--- --- -- ----- -- you ---- -- --- ---- -- ------ ------<br>--- ----- -- ----,146464.89999997616,146464.69999998808,146088.594,146088.69999998808,146105.24,146471.885,,44,you
screen,html.Screen,2_1_0_1_45,2022-02-17T16:44:52.845Z,,,,,,,,,,,,,,,,,53,,,,,,,,,,,,,,513.3149999880698,,response,,,,99,,,,,,,Space,keypress(Space),,,,,,,,---- -- ----- -- ------ - ------- --- ----------<br>------------- ------ ------ ---- ---- ------- ----- -- ----<br>-------- ------- -- ---------- --- - --- ----- ----- ----<br>---- --- --- ----- --- ---- ---- ------- ----- ---- -------<br>--- --- -- ----- -- --- want -- --- ---- -- ------ ------<br>--- ----- -- ----,146986.10000002384,146985.19999998808,146455.215,146465,146471.885,146988.657,,45,want
screen,html.Screen,2_1_0_1_46,2022-02-17T16:44:53.228Z,,,,,,,,,,,,,,,,,53,,,,,,,,,,,,,,379.94300002383534,,response,,,,99,,,,,,,Space,keypress(Space),,,,,,,,---- -- ----- -- ------ - ------- --- ----------<br>------------- ------ ------ ---- ---- ------- ----- -- ----<br>-------- ------- -- ---------- --- - --- ----- ----- ----<br>---- --- --- ----- --- ---- ---- ------- ----- ---- -------<br>--- --- -- ----- -- --- ---- to --- ---- -- ------ ------<br>--- ----- -- ----,147368.89999997616,147368.60000002384,146971.867,146986.30000001192,146988.657,147371.919,,46,to
screen,html.Screen,2_1_0_1_47,2022-02-17T16:44:53.645Z,,,,,,,,,,,,,,,,,53,,,,,,,,,,,,,,413.3810000119265,,response,,,,99,,,,,,,Space,keypress(Space),,,,,,,,"---- -- ----- -- ------ - ------- --- ----------<br>------------- ------ ------ ---- ---- ------- ----- -- ----<br>-------- ------- -- ---------- --- - --- ----- ----- ----<br>---- --- --- ----- --- ---- ---- ------- ----- ---- -------<br>--- --- -- ----- -- --- ---- -- be, ---- -- ------ ------<br>--- ----- -- ----",147786.10000002384,147785.30000001192,147355.211,147368.89999997616,147371.919,147788.662,,47,"be,"
screen,html.Screen,2_1_0_1_48,2022-02-17T16:44:54.117Z,,,,,,,,,,,,,,,,,53,,,,,,,,,,,,,,468.3379999999888,,response,,,,99,,,,,,,Space,keypress(Space),,,,,,,,---- -- ----- -- ------ - ------- --- ----------<br>------------- ------ ------ ---- ---- ------- ----- -- ----<br>-------- ------- -- ---------- --- - --- ----- ----- ----<br>---- --- --- ----- --- ---- ---- ------- ----- ---- -------<br>--- --- -- ----- -- --- ---- -- --- even -- ------ ------<br>--- ----- -- ----,148257.60000002384,148257,147771.834,147786.39999997616,147788.662,148271.977,,48,even
screen,html.Screen,2_1_0_1_49,2022-02-17T16:44:54.532Z,,,,,,,,,,,,,,,,,53,,,,,,,,,,,,,,400.72299998806557,,response,,,,99,,,,,,,Space,keypress(Space),,,,,,,,---- -- ----- -- ------ - ------- --- ----------<br>------------- ------ ------ ---- ---- ------- ----- -- ----<br>-------- ------- -- ---------- --- - --- ----- ----- ----<br>---- --- --- ----- --- ---- ---- ------- ----- ---- -------<br>--- --- -- ----- -- --- ---- -- --- ---- if ------ ------<br>--- ----- -- ----,148673,148672.69999998808,148255.22,148257.69999998808,148271.977,148688.587,,49,if
screen,html.Screen,2_1_0_1_50,2022-02-17T16:44:55.268Z,,,,,,,,,,,,,,,,,53,,,,,,,,,,,,,,719.9130000000005,,response,,,,99,,,,,,,Space,keypress(Space),,,,,,,,---- -- ----- -- ------ - ------- --- ----------<br>------------- ------ ------ ---- ---- ------- ----- -- ----<br>-------- ------- -- ---------- --- - --- ----- ----- ----<br>---- --- --- ----- --- ---- ---- ------- ----- ---- -------<br>--- --- -- ----- -- --- ---- -- --- ---- -- that's ------<br>--- ----- -- ----,149408.80000001192,149408.5,148671.933,148673.10000002384,148688.587,149421.809,,50,that's
screen,html.Screen,2_1_0_1_51,2022-02-17T16:44:55.716Z,,,,,,,,,,,,,,,,,53,,,,,,,,,,,,,,434.59099997614976,,response,,,,99,,,,,,,Space,keypress(Space),,,,,,,,---- -- ----- -- ------ - ------- --- ----------<br>------------- ------ ------ ---- ---- ------- ----- -- ----<br>-------- ------- -- ---------- --- - --- ----- ----- ----<br>---- --- --- ----- --- ---- ---- ------- ----- ---- -------<br>--- --- -- ----- -- --- ---- -- --- ---- -- ------ really<br>--- ----- -- ----,149856.80000001192,149856.39999997616,149405.199,149408.80000001192,149421.809,149871.864,,51,really
screen,html.Screen,2_1_0_1_52,2022-02-17T16:44:56.127Z,,,,,,,,,,,,,,,,,53,,,,,,,,,,,,,,395.3359999880777,,response,,,,99,,,,,,,Space,keypress(Space),,,,,,,,---- -- ----- -- ------ - ------- --- ----------<br>------------- ------ ------ ---- ---- ------- ----- -- ----<br>-------- ------- -- ---------- --- - --- ----- ----- ----<br>---- --- --- ----- --- ---- ---- ------- ----- ---- -------<br>--- --- -- ----- -- --- ---- -- --- ---- -- ------ ------<br>not ----- -- ----,150267.5,150267.19999998808,149855.233,149856.89999997616,149871.864,150271.831,,52,not
screen,html.Screen,2_1_0_1_53,2022-02-17T16:44:56.686Z,,,,,,,,,,,,,,,,,53,,,,,,,,,,,,,,553.4690000119153,,response,,,,99,,,,,,,Space,keypress(Space),,,,,,,,---- -- ----- -- ------ - ------- --- ----------<br>------------- ------ ------ ---- ---- ------- ----- -- ----<br>-------- ------- -- ---------- --- - --- ----- ----- ----<br>---- --- --- ----- --- ---- ---- ------- ----- ---- -------<br>--- --- -- ----- -- --- ---- -- --- ---- -- ------ ------<br>--- close -- ----,150826.10000002384,150825.30000001192,150255.214,150267.60000002384,150271.831,150838.593,,53,close
screen,html.Screen,2_1_0_1_54,2022-02-17T16:44:57.005Z,,,,,,,,,,,,,,,,,53,,,,,,,,,,,,,,306.1069999880856,,response,,,,99,,,,,,,Space,keypress(Space),,,,,,,,---- -- ----- -- ------ - ------- --- ----------<br>------------- ------ ------ ---- ---- ------- ----- -- ----<br>-------- ------- -- ---------- --- - --- ----- ----- ----<br>---- --- --- ----- --- ---- ---- ------- ----- ---- -------<br>--- --- -- ----- -- --- ---- -- --- ---- -- ------ ------<br>--- ----- at ----,151145.10000002384,151144.69999998808,150821.889,150826.30000001192,150838.593,151155.287,,54,at
screen,html.Screen,2_1_0_1_55,2022-02-17T16:44:58.173Z,,,,,,,,,,,,,,,,,53,,,,,,,,,,,,,,1157.3130000238307,,response,,,,99,,,,,,,Space,keypress(Space),,,,,,,,---- -- ----- -- ------ - ------- --- ----------<br>------------- ------ ------ ---- ---- ------- ----- -- ----<br>-------- ------- -- ---------- --- - --- ----- ----- ----<br>---- --- --- ----- --- ---- ---- ------- ----- ---- -------<br>--- --- -- ----- -- --- ---- -- --- ---- -- ------ ------<br>--- ----- -- all.,152312.89999997616,152312.60000002384,151138.557,151145.19999998808,151155.287,152321.832,,55,all.
Item 99,flow.Loop,2_1_0_1,2022-02-17T16:44:58.173Z,,,,,,,,,,,,,,,,,,,,,,,,,,,,,,,28157.54500002385,,completion,,,,,F,,,,,,,,,,,silence,,,,,152313.10000002384,152312.60000002384,124138.441,124138.89999997616,124155.055,152321.832,,,
Question 1,html.Screen,2_1_0_2,2022-02-17T16:45:01.343Z,,,,,,,,,,,,,,,,,,,,,,,,,,,,true,FALSE,,3161.0679999761633,,response,,,,99,F,,,,,,FALSE,click #choice-2,,,,silence,,,,,155483.30000001192,155482.89999997616,152305.253,152313.10000002384,152321.832,155488.521,,,
Question 2,html.Screen,2_1_0_3,2022-02-17T16:45:05.069Z,,,,,,,,,,,,,,,,,,,,,,,,,,,,true,TRUE,,3719.978999999992,,response,,,,99,F,,,,,,TRUE,click #choice-1,,,,silence,,,,,159209,159208.5,155471.908,155483.39999997616,155488.521,159221.919,,,
Item 99,flow.Sequence,2_1_0,2022-02-17T16:45:05.069Z,,,,,,,,,,,,,,,,,,,,,,,,,,,,,,,45053.424,,completion,,,,,,,,,,,,,,,,,,,,,159209.10000002384,159208.5,114138.396,114143.10000002384,114155.076,159221.919,,,
Holding screen,html.Screen,2_1_1_0,2022-02-17T16:45:15.065Z,,,,,,,,,,,,,,,,,,,,,,,,,,,,,,,10000.13400000002,,timeout,,,,,,,,,,,,,,,,,,,,,169205.80000001192,169205.341,159205.303,159209.19999998808,159221.919,169222.053,,,
screen,html.Screen,2_1_1_1_0,2022-02-17T16:45:16.326Z,,,,,,,,,,,,,,,,,54,,,,,,,,,,,,,,1243.8469999761437,,response,,,,100,,,,,,,Space,keypress(Space),,,,,,,,At --- ---- --- ------ ----- ------- ---- -- --- ------- --<br>------- ---------- ------ -- ----- -- ----- -- ---- ------<br>--- ----- --- --- ------ -------- ----- --- ------ ----- --<br>----- ----- ---------- --- --- ------ ------ ---- -- ------<br>------- --- ------ ----- --- ---- ------- -- ---- --- --<br>------- ------,170466.69999998808,170465.89999997616,169205.341,169206,169222.053,170472.058,,0,At
screen,html.Screen,2_1_1_1_1,2022-02-17T16:45:16.781Z,,,,,,,,,,,,,,,,,54,,,,,,,,,,,,,,449.04200002385187,,response,,,,100,,,,,,,Space,keypress(Space),,,,,,,,-- the ---- --- ------ ----- ------- ---- -- --- ------- --<br>------- ---------- ------ -- ----- -- ----- -- ---- ------<br>--- ----- --- --- ------ -------- ----- --- ------ ----- --<br>----- ----- ---------- --- --- ------ ------ ---- -- ------<br>------- --- ------ ----- --- ---- ------- -- ---- --- --<br>------- ------,170921.39999997616,170921.10000002384,170455.273,170466.89999997616,170472.058,170948.304,,1,the
screen,html.Screen,2_1_1_1_2,2022-02-17T16:45:17.446Z,,,,,,,,,,,,,,,,,54,,,,,,,,,,,,,,636.9960000119172,,response,,,,100,,,,,,,Space,keypress(Space),,,,,,,,-- --- time --- ------ ----- ------- ---- -- --- ------- --<br>------- ---------- ------ -- ----- -- ----- -- ---- ------<br>--- ----- --- --- ------ -------- ----- --- ------ ----- --<br>----- ----- ---------- --- --- ------ ------ ---- -- ------<br>------- --- ------ ----- --- ---- ------- -- ---- --- --<br>------- ------,171586.10000002384,171585.30000001192,170905.294,170921.5,170948.304,171588.718,,2,time
screen,html.Screen,2_1_1_1_3,2022-02-17T16:45:17.877Z,,,,,,,,,,,,,,,,,54,,,,,,,,,,,,,,427.8820000238484,,response,,,,100,,,,,,,Space,keypress(Space),,,,,,,,-- --- ---- the ------ ----- ------- ---- -- --- ------- --<br>------- ---------- ------ -- ----- -- ----- -- ---- ------<br>--- ----- --- --- ------ -------- ----- --- ------ ----- --<br>----- ----- ---------- --- --- ------ ------ ---- -- ------<br>------- --- ------ ----- --- ---- ------- -- ---- --- --<br>------- ------,172017.10000002384,172016.60000002384,171571.947,171586.30000001192,171588.718,172021.975,,3,the
screen,html.Screen,2_1_1_1_4,2022-02-17T16:45:18.661Z,,,,,,,,,,,,,,,,,54,,,,,,,,,,,,,,778.7249999880733,,response,,,,100,,,,,,,Space,keypress(Space),,,,,,,,-- --- ---- --- French ----- ------- ---- -- --- ------- --<br>------- ---------- ------ -- ----- -- ----- -- ---- ------<br>--- ----- --- --- ------ -------- ----- --- ------ ----- --<br>----- ----- ---------- --- --- ------ ------ ---- -- ------<br>------- --- ------ ----- --- ---- ------- -- ---- --- --<br>------- ------,172801.10000002384,172800.69999998808,172005.298,172017.10000002384,172021.975,172805.304,,4,French
screen,html.Screen,2_1_1_1_5,2022-02-17T16:45:19.301Z,,,,,,,,,,,,,,,,,54,,,,,,,,,,,,,,635.3959999880753,,response,,,,100,,,,,,,Space,keypress(Space),,,,,,,,-- --- ---- --- ------ crown ------- ---- -- --- ------- --<br>------- ---------- ------ -- ----- -- ----- -- ---- ------<br>--- ----- --- --- ------ -------- ----- --- ------ ----- --<br>----- ----- ---------- --- --- ------ ------ ---- -- ------<br>------- --- ------ ----- --- ---- ------- -- ---- --- --<br>------- ------,173440.89999997616,173440.69999998808,172788.617,172801.10000002384,172805.304,173455.328,,5,crown
screen,html.Screen,2_1_1_1_6,2022-02-17T16:45:20.053Z,,,,,,,,,,,,,,,,,54,,,,,,,,,,,,,,737.5719999761495,,response,,,,100,,,,,,,Space,keypress(Space),,,,,,,,-- --- ---- --- ------ ----- secured ---- -- --- ------- --<br>------- ---------- ------ -- ----- -- ----- -- ---- ------<br>--- ----- --- --- ------ -------- ----- --- ------ ----- --<br>----- ----- ---------- --- --- ------ ------ ---- -- ------<br>------- --- ------ ----- --- ---- ------- -- ---- --- --<br>------- ------,174193.5,174192.89999997616,173438.631,173441,173455.328,174205.356,,6,secured
screen,html.Screen,2_1_1_1_7,2022-02-17T16:45:20.453Z,,,,,,,,,,,,,,,,,54,,,,,,,,,,,,,,387.2440000238421,,response,,,,100,,,,,,,Space,keypress(Space),,,,,,,,-- --- ---- --- ------ ----- ------- much -- --- ------- --<br>------- ---------- ------ -- ----- -- ----- -- ---- ------<br>--- ----- --- --- ------ -------- ----- --- ------ ----- --<br>----- ----- ---------- --- --- ------ ------ ---- -- ------<br>------- --- ------ ----- --- ---- ------- -- ---- --- --<br>------- ------,174593,174592.60000002384,174188.604,174193.60000002384,174205.356,174605.363,,7,much
screen,html.Screen,2_1_1_1_8,2022-02-17T16:45:20.940Z,,,,,,,,,,,,,,,,,54,,,,,,,,,,,,,,475.33699998806696,,response,,,,100,,,,,,,Space,keypress(Space),,,,,,,,-- --- ---- --- ------ ----- ------- ---- of --- ------- --<br>------- ---------- ------ -- ----- -- ----- -- ---- ------<br>--- ----- --- --- ------ -------- ----- --- ------ ----- --<br>----- ----- ---------- --- --- ------ ------ ---- -- ------<br>------- --- ------ ----- --- ---- ------- -- ---- --- --<br>------- ------,175080.89999997616,175080.69999998808,174588.655,174593,174605.363,175088.638,,8,of
screen,html.Screen,2_1_1_1_9,2022-02-17T16:45:21.356Z,,,,,,,,,,,,,,,,,54,,,,,,,,,,,,,,407.96200002383557,,response,,,,100,,,,,,,Space,keypress(Space),,,,,,,,-- --- ---- --- ------ ----- ------- ---- -- its ------- --<br>------- ---------- ------ -- ----- -- ----- -- ---- ------<br>--- ----- --- --- ------ -------- ----- --- ------ ----- --<br>----- ----- ---------- --- --- ------ ------ ---- -- ------<br>------- --- ------ ----- --- ---- ------- -- ---- --- --<br>------- ------,175496.89999997616,175496.60000002384,175071.991,175080.89999997616,175088.638,175505.259,,9,its
screen,html.Screen,2_1_1_1_10,2022-02-17T16:45:21.932Z,,,,,,,,,,,,,,,,,54,,,,,,,,,,,,,,567.2410000000091,,response,,,,100,,,,,,,Space,keypress(Space),,,,,,,,-- --- ---- --- ------ ----- ------- ---- -- --- revenue --<br>------- ---------- ------ -- ----- -- ----- -- ---- ------<br>--- ----- --- --- ------ -------- ----- --- ------ ----- --<br>----- ----- ---------- --- --- ------ ------ ---- -- ------<br>------- --- ------ ----- --- ---- ------- -- ---- --- --<br>------- ------,176072.80000001192,176072.5,175488.652,175497,175505.259,176088.579,,10,revenue
screen,html.Screen,2_1_1_1_11,2022-02-17T16:45:22.365Z,,,,,,,,,,,,,,,,,54,,,,,,,,,,,,,,416.12099998808117,,response,,,,100,,,,,,,Space,keypress(Space),,,,,,,,-- --- ---- --- ------ ----- ------- ---- -- --- ------- by<br>------- ---------- ------ -- ----- -- ----- -- ---- ------<br>--- ----- --- --- ------ -------- ----- --- ------ ----- --<br>----- ----- ---------- --- --- ------ ------ ---- -- ------<br>------- --- ------ ----- --- ---- ------- -- ---- --- --<br>------- ------,176505,176504.69999998808,176071.96,176072.89999997616,176088.579,176538.703,,11,by
screen,html.Screen,2_1_1_1_12,2022-02-17T16:45:23.055Z,,,,,,,,,,,,,,,,,54,,,,,,,,,,,,,,656.1969999761495,,response,,,,100,,,,,,,Space,keypress(Space),,,,,,,,-- --- ---- --- ------ ----- ------- ---- -- --- ------- --<br>issuing ---------- ------ -- ----- -- ----- -- ---- ------<br>--- ----- --- --- ------ -------- ----- --- ------ ----- --<br>----- ----- ---------- --- --- ------ ------ ---- -- ------<br>------- --- ------ ----- --- ---- ------- -- ---- --- --<br>------- ------,177195.60000002384,177194.89999997616,176522.079,176505,176538.703,177205.412,,12,issuing
screen,html.Screen,2_1_1_1_13,2022-02-17T16:45:23.948Z,,,,,,,,,,,,,,,,,54,,,,,,,,,,,,,,882.987999976147,,response,,,,100,,,,,,,Space,keypress(Space),,,,,,,,-- --- ---- --- ------ ----- ------- ---- -- --- ------- --<br>------- government ------ -- ----- -- ----- -- ---- ------<br>--- ----- --- --- ------ -------- ----- --- ------ ----- --<br>----- ----- ---------- --- --- ------ ------ ---- -- ------<br>------- --- ------ ----- --- ---- ------- -- ---- --- --<br>------- ------,178088.69999998808,178088.39999997616,177188.63,177195.60000002384,177205.412,178105.346,,13,government
screen,html.Screen,2_1_1_1_14,2022-02-17T16:45:24.396Z,,,,,,,,,,,,,,,,,54,,,,,,,,,,,,,,431.2540000238514,,response,,,,100,,,,,,,Space,keypress(Space),,,,,,,,-- --- ---- --- ------ ----- ------- ---- -- --- ------- --<br>------- ---------- bonds. -- ----- -- ----- -- ---- ------<br>--- ----- --- --- ------ -------- ----- --- ------ ----- --<br>----- ----- ---------- --- --- ------ ------ ---- -- ------<br>------- --- ------ ----- --- ---- ------- -- ---- --- --<br>------- ------,178536.89999997616,178536.60000002384,178088.608,178088.80000001192,178105.346,178538.659,,14,bonds.
screen,html.Screen,2_1_1_1_15,2022-02-17T16:45:24.957Z,,,,,,,,,,,,,,,,,54,,,,,,,,,,,,,,558.2409999761439,,response,,,,100,,,,,,,Space,keypress(Space),,,,,,,,-- --- ---- --- ------ ----- ------- ---- -- --- ------- --<br>------- ---------- ------ In ----- -- ----- -- ---- ------<br>--- ----- --- --- ------ -------- ----- --- ------ ----- --<br>----- ----- ---------- --- --- ------ ------ ---- -- ------<br>------- --- ------ ----- --- ---- ------- -- ---- --- --<br>------- ------,179097.39999997616,179096.89999997616,178522.013,178536.89999997616,178538.659,179105.308,,15,In
screen,html.Screen,2_1_1_1_16,2022-02-17T16:45:25.326Z,,,,,,,,,,,,,,,,,54,,,,,,,,,,,,,,359.8919999880891,,response,,,,100,,,,,,,Space,keypress(Space),,,,,,,,"-- --- ---- --- ------ ----- ------- ---- -- --- ------- --<br>------- ---------- ------ -- 1727, -- ----- -- ---- ------<br>--- ----- --- --- ------ -------- ----- --- ------ ----- --<br>----- ----- ---------- --- --- ------ ------ ---- -- ------<br>------- --- ------ ----- --- ---- ------- -- ---- --- --<br>------- ------",179466,179465.19999998808,179088.647,179097.5,179105.308,179471.905,,16,"1727,"
screen,html.Screen,2_1_1_1_17,2022-02-17T16:45:25.748Z,,,,,,,,,,,,,,,,,54,,,,,,,,,,,,,,416.4949999761593,,response,,,,100,,,,,,,Space,keypress(Space),,,,,,,,-- --- ---- --- ------ ----- ------- ---- -- --- ------- --<br>------- ---------- ------ -- ----- in ----- -- ---- ------<br>--- ----- --- --- ------ -------- ----- --- ------ ----- --<br>----- ----- ---------- --- --- ------ ------ ---- -- ------<br>------- --- ------ ----- --- ---- ------- -- ---- --- --<br>------- ------,179888.60000002384,179888.39999997616,179455.299,179466.30000001192,179471.905,179905.372,,17,in
screen,html.Screen,2_1_1_1_18,2022-02-17T16:45:26.253Z,,,,,,,,,,,,,,,,,54,,,,,,,,,,,,,,487.22800002383883,,response,,,,100,,,,,,,Space,keypress(Space),,,,,,,,-- --- ---- --- ------ ----- ------- ---- -- --- ------- --<br>------- ---------- ------ -- ----- -- order -- ---- ------<br>--- ----- --- --- ------ -------- ----- --- ------ ----- --<br>----- ----- ---------- --- --- ------ ------ ---- -- ------<br>------- --- ------ ----- --- ---- ------- -- ---- --- --<br>------- ------,180393,180392.60000002384,179888.682,179888.69999998808,179905.372,180405.295,,18,order
screen,html.Screen,2_1_1_1_19,2022-02-17T16:45:26.606Z,,,,,,,,,,,,,,,,,54,,,,,,,,,,,,,,340.60499997614534,,response,,,,100,,,,,,,Space,keypress(Space),,,,,,,,-- --- ---- --- ------ ----- ------- ---- -- --- ------- --<br>------- ---------- ------ -- ----- -- ----- to ---- ------<br>--- ----- --- --- ------ -------- ----- --- ------ ----- --<br>----- ----- ---------- --- --- ------ ------ ---- -- ------<br>------- --- ------ ----- --- ---- ------- -- ---- --- --<br>------- ------,180746.60000002384,180745.89999997616,180388.671,180393,180405.295,180755.293,,19,to
screen,html.Screen,2_1_1_1_20,2022-02-17T16:45:27.061Z,,,,,,,,,,,,,,,,,54,,,,,,,,,,,,,,445.40699998807395,,response,,,,100,,,,,,,Space,keypress(Space),,,,,,,,-- --- ---- --- ------ ----- ------- ---- -- --- ------- --<br>------- ---------- ------ -- ----- -- ----- -- save ------<br>--- ----- --- --- ------ -------- ----- --- ------ ----- --<br>----- ----- ---------- --- --- ------ ------ ---- -- ------<br>------- --- ------ ----- --- ---- ------- -- ---- --- --<br>------- ------,181201.10000002384,181200.69999998808,180738.693,180746.69999998808,180755.293,181205.31,,20,save
screen,html.Screen,2_1_1_1_21,2022-02-17T16:45:27.702Z,,,,,,,,,,,,,,,,,54,,,,,,,,,,,,,,635.9900000119233,,response,,,,100,,,,,,,Space,keypress(Space),,,,,,,,"-- --- ---- --- ------ ----- ------- ---- -- --- ------- --<br>------- ---------- ------ -- ----- -- ----- -- ---- money,<br>--- ----- --- --- ------ -------- ----- --- ------ ----- --<br>----- ----- ---------- --- --- ------ ------ ---- -- ------<br>------- --- ------ ----- --- ---- ------- -- ---- --- --<br>------- ------",181842,181841.30000001192,181188.618,181201.19999998808,181205.31,181855.35,,21,"money,"
screen,html.Screen,2_1_1_1_22,2022-02-17T16:45:28.134Z,,,,,,,,,,,,,,,,,54,,,,,,,,,,,,,,417.9500000119151,,response,,,,100,,,,,,,Space,keypress(Space),,,,,,,,-- --- ---- --- ------ ----- ------- ---- -- --- ------- --<br>------- ---------- ------ -- ----- -- ----- -- ---- ------<br>the ----- --- --- ------ -------- ----- --- ------ ----- --<br>----- ----- ---------- --- --- ------ ------ ---- -- ------<br>------- --- ------ ----- --- ---- ------- -- ---- --- --<br>------- ------,182274.10000002384,182273.30000001192,181838.651,181842.19999998808,181855.35,182288.714,,22,the
screen,html.Screen,2_1_1_1_23,2022-02-17T16:45:28.510Z,,,,,,,,,,,,,,,,,54,,,,,,,,,,,,,,360.48599998807185,,response,,,,100,,,,,,,Space,keypress(Space),,,,,,,,-- --- ---- --- ------ ----- ------- ---- -- --- ------- --<br>------- ---------- ------ -- ----- -- ----- -- ---- ------<br>--- state --- --- ------ -------- ----- --- ------ ----- --<br>----- ----- ---------- --- --- ------ ------ ---- -- ------<br>------- --- ------ ----- --- ---- ------- -- ---- --- --<br>------- ------,182650.10000002384,182649.19999998808,182271.962,182274.30000001192,182288.714,182655.402,,23,state
screen,html.Screen,2_1_1_1_24,2022-02-17T16:45:28.909Z,,,,,,,,,,,,,,,,,54,,,,,,,,,,,,,,393.2979999880772,,response,,,,100,,,,,,,Space,keypress(Space),,,,,,,,-- --- ---- --- ------ ----- ------- ---- -- --- ------- --<br>------- ---------- ------ -- ----- -- ----- -- ---- ------<br>--- ----- cut --- ------ -------- ----- --- ------ ----- --<br>----- ----- ---------- --- --- ------ ------ ---- -- ------<br>------- --- ------ ----- --- ---- ------- -- ---- --- --<br>------- ------,183049,183048.69999998808,182638.717,182650.19999998808,182655.402,183055.325,,24,cut
screen,html.Screen,2_1_1_1_25,2022-02-17T16:45:29.262Z,,,,,,,,,,,,,,,,,54,,,,,,,,,,,,,,345.9750000119093,,response,,,,100,,,,,,,Space,keypress(Space),,,,,,,,-- --- ---- --- ------ ----- ------- ---- -- --- ------- --<br>------- ---------- ------ -- ----- -- ----- -- ---- ------<br>--- ----- --- the ------ -------- ----- --- ------ ----- --<br>----- ----- ---------- --- --- ------ ------ ---- -- ------<br>------- --- ------ ----- --- ---- ------- -- ---- --- --<br>------- ------,183402.10000002384,183401.30000001192,183038.701,183049,183055.325,183405.402,,25,the
screen,html.Screen,2_1_1_1_26,2022-02-17T16:45:29.828Z,,,,,,,,,,,,,,,,,54,,,,,,,,,,,,,,563.0979999999981,,response,,,,100,,,,,,,Space,keypress(Space),,,,,,,,-- --- ---- --- ------ ----- ------- ---- -- --- ------- --<br>------- ---------- ------ -- ----- -- ----- -- ---- ------<br>--- ----- --- --- bonds' -------- ----- --- ------ ----- --<br>----- ----- ---------- --- --- ------ ------ ---- -- ------<br>------- --- ------ ----- --- ---- ------- -- ---- --- --<br>------- ------,183968.80000001192,183968.5,183388.67,183402.30000001192,183405.402,183972.036,,26,bonds'
screen,html.Screen,2_1_1_1_27,2022-02-17T16:45:30.391Z,,,,,,,,,,,,,,,,,54,,,,,,,,,,,,,,558.5640000238491,,response,,,,100,,,,,,,Space,keypress(Space),,,,,,,,-- --- ---- --- ------ ----- ------- ---- -- --- ------- --<br>------- ---------- ------ -- ----- -- ----- -- ---- ------<br>--- ----- --- --- ------ interest ----- --- ------ ----- --<br>----- ----- ---------- --- --- ------ ------ ---- -- ------<br>------- --- ------ ----- --- ---- ------- -- ---- --- --<br>------- ------,184530.89999997616,184530.60000002384,183955.327,183968.89999997616,183972.036,184538.705,,27,interest
screen,html.Screen,2_1_1_1_28,2022-02-17T16:45:30.829Z,,,,,,,,,,,,,,,,,54,,,,,,,,,,,,,,430.2950000000128,,response,,,,100,,,,,,,Space,keypress(Space),,,,,,,,-- --- ---- --- ------ ----- ------- ---- -- --- ------- --<br>------- ---------- ------ -- ----- -- ----- -- ---- ------<br>--- ----- --- --- ------ -------- rate. --- ------ ----- --<br>----- ----- ---------- --- --- ------ ------ ---- -- ------<br>------- --- ------ ----- --- ---- ------- -- ---- --- --<br>------- ------,184969.5,184969,184521.997,184531,184538.705,184972.044,,28,rate.
screen,html.Screen,2_1_1_1_29,2022-02-17T16:45:31.573Z,,,,,,,,,,,,,,,,,54,,,,,,,,,,,,,,740.6559999880847,,response,,,,100,,,,,,,Space,keypress(Space),,,,,,,,-- --- ---- --- ------ ----- ------- ---- -- --- ------- --<br>------- ---------- ------ -- ----- -- ----- -- ---- ------<br>--- ----- --- --- ------ -------- ----- The ------ ----- --<br>----- ----- ---------- --- --- ------ ------ ---- -- ------<br>------- --- ------ ----- --- ---- ------- -- ---- --- --<br>------- ------,185713.10000002384,185712.69999998808,184955.347,184969.5,184972.044,185722.014,,29,The
screen,html.Screen,2_1_1_1_30,2022-02-17T16:45:31.966Z,,,,,,,,,,,,,,,,,54,,,,,,,,,,,,,,383.28600001192535,,response,,,,100,,,,,,,Space,keypress(Space),,,,,,,,-- --- ---- --- ------ ----- ------- ---- -- --- ------- --<br>------- ---------- ------ -- ----- -- ----- -- ---- ------<br>--- ----- --- --- ------ -------- ----- --- market ----- --<br>----- ----- ---------- --- --- ------ ------ ---- -- ------<br>------- --- ------ ----- --- ---- ------- -- ---- --- --<br>------- ------,186106.10000002384,186105.30000001192,185705.397,185713.10000002384,185722.014,186121.957,,30,market
screen,html.Screen,2_1_1_1_31,2022-02-17T16:45:32.941Z,,,,,,,,,,,,,,,,,54,,,,,,,,,,,,,,958.643000023847,,response,,,,100,,,,,,,Space,keypress(Space),,,,,,,,-- --- ---- --- ------ ----- ------- ---- -- --- ------- --<br>------- ---------- ------ -- ----- -- ----- -- ---- ------<br>--- ----- --- --- ------ -------- ----- --- ------ value --<br>----- ----- ---------- --- --- ------ ------ ---- -- ------<br>------- --- ------ ----- --- ---- ------- -- ---- --- --<br>------- ------,187081,187080.60000002384,186105.336,186106.39999997616,186121.957,187088.679,,31,value
screen,html.Screen,2_1_1_1_32,2022-02-17T16:45:33.340Z,,,,,,,,,,,,,,,,,54,,,,,,,,,,,,,,391.7209999761544,,response,,,,100,,,,,,,Space,keypress(Space),,,,,,,,-- --- ---- --- ------ ----- ------- ---- -- --- ------- --<br>------- ---------- ------ -- ----- -- ----- -- ---- ------<br>--- ----- --- --- ------ -------- ----- --- ------ ----- of<br>----- ----- ---------- --- --- ------ ------ ---- -- ------<br>------- --- ------ ----- --- ---- ------- -- ---- --- --<br>------- ------,187480.69999998808,187480.39999997616,187072.132,187081.10000002384,187088.679,187488.734,,32,of
screen,html.Screen,2_1_1_1_33,2022-02-17T16:45:33.845Z,,,,,,,,,,,,,,,,,54,,,,,,,,,,,,,,495.8660000238451,,response,,,,100,,,,,,,Space,keypress(Space),,,,,,,,-- --- ---- --- ------ ----- ------- ---- -- --- ------- --<br>------- ---------- ------ -- ----- -- ----- -- ---- ------<br>--- ----- --- --- ------ -------- ----- --- ------ ----- --<br>these ----- ---------- --- --- ------ ------ ---- -- ------<br>------- --- ------ ----- --- ---- ------- -- ---- --- --<br>------- ------,187985,187984.60000002384,187472.004,187480.80000001192,187488.734,187988.69,,33,these
screen,html.Screen,2_1_1_1_34,2022-02-17T16:45:34.222Z,,,,,,,,,,,,,,,,,54,,,,,,,,,,,,,,372.6100000119186,,response,,,,100,,,,,,,Space,keypress(Space),,,,,,,,-- --- ---- --- ------ ----- ------- ---- -- --- ------- --<br>------- ---------- ------ -- ----- -- ----- -- ---- ------<br>--- ----- --- --- ------ -------- ----- --- ------ ----- --<br>----- bonds ---------- --- --- ------ ------ ---- -- ------<br>------- --- ------ ----- --- ---- ------- -- ---- --- --<br>------- ------,188362.10000002384,188361.30000001192,187972.013,187985,187988.69,188372.025,,34,bonds
screen,html.Screen,2_1_1_1_35,2022-02-17T16:45:34.750Z,,,,,,,,,,,,,,,,,54,,,,,,,,,,,,,,517.2750000119267,,response,,,,100,,,,,,,Space,keypress(Space),,,,,,,,"-- --- ---- --- ------ ----- ------- ---- -- --- ------- --<br>------- ---------- ------ -- ----- -- ----- -- ---- ------<br>--- ----- --- --- ------ -------- ----- --- ------ ----- --<br>----- ----- plummeted, --- --- ------ ------ ---- -- ------<br>------- --- ------ ----- --- ---- ------- -- ---- --- --<br>------- ------",188890.10000002384,188889.30000001192,188355.319,188362.30000001192,188372.025,188905.383,,35,"plummeted,"
screen,html.Screen,2_1_1_1_36,2022-02-17T16:45:35.132Z,,,,,,,,,,,,,,,,,54,,,,,,,,,,,,,,367.2170000238402,,response,,,,100,,,,,,,Space,keypress(Space),,,,,,,,-- --- ---- --- ------ ----- ------- ---- -- --- ------- --<br>------- ---------- ------ -- ----- -- ----- -- ---- ------<br>--- ----- --- --- ------ -------- ----- --- ------ ----- --<br>----- ----- ---------- and --- ------ ------ ---- -- ------<br>------- --- ------ ----- --- ---- ------- -- ---- --- --<br>------- ------,189272.89999997616,189272.60000002384,188888.671,188890.30000001192,188905.383,189288.732,,36,and
screen,html.Screen,2_1_1_1_37,2022-02-17T16:45:35.518Z,,,,,,,,,,,,,,,,,54,,,,,,,,,,,,,,368.46799998809,,response,,,,100,,,,,,,Space,keypress(Space),,,,,,,,-- --- ---- --- ------ ----- ------- ---- -- --- ------- --<br>------- ---------- ------ -- ----- -- ----- -- ---- ------<br>--- ----- --- --- ------ -------- ----- --- ------ ----- --<br>----- ----- ---------- --- the ------ ------ ---- -- ------<br>------- --- ------ ----- --- ---- ------- -- ---- --- --<br>------- ------,189658,189657.19999998808,189272.079,189273,189288.732,189672.024,,37,the
screen,html.Screen,2_1_1_1_38,2022-02-17T16:45:36.053Z,,,,,,,,,,,,,,,,,54,,,,,,,,,,,,,,520.776000011916,,response,,,,100,,,,,,,Space,keypress(Space),,,,,,,,-- --- ---- --- ------ ----- ------- ---- -- --- ------- --<br>------- ---------- ------ -- ----- -- ----- -- ---- ------<br>--- ----- --- --- ------ -------- ----- --- ------ ----- --<br>----- ----- ---------- --- --- market ------ ---- -- ------<br>------- --- ------ ----- --- ---- ------- -- ---- --- --<br>------- ------,190193.30000001192,190192.80000001192,189655.382,189658.30000001192,189672.024,190205.344,,38,market
screen,html.Screen,2_1_1_1_39,2022-02-17T16:45:36.446Z,,,,,,,,,,,,,,,,,54,,,,,,,,,,,,,,379.8559999880672,,response,,,,100,,,,,,,Space,keypress(Space),,,,,,,,-- --- ---- --- ------ ----- ------- ---- -- --- ------- --<br>------- ---------- ------ -- ----- -- ----- -- ---- ------<br>--- ----- --- --- ------ -------- ----- --- ------ ----- --<br>----- ----- ---------- --- --- ------ became ---- -- ------<br>------- --- ------ ----- --- ---- ------- -- ---- --- --<br>------- ------,190586.10000002384,190585.19999998808,190188.708,190193.39999997616,190205.344,190588.76,,39,became
screen,html.Screen,2_1_1_1_40,2022-02-17T16:45:36.869Z,,,,,,,,,,,,,,,,,54,,,,,,,,,,,,,,420.0400000119116,,response,,,,100,,,,,,,Space,keypress(Space),,,,,,,,-- --- ---- --- ------ ----- ------- ---- -- --- ------- --<br>------- ---------- ------ -- ----- -- ----- -- ---- ------<br>--- ----- --- --- ------ -------- ----- --- ------ ----- --<br>----- ----- ---------- --- --- ------ ------ wary -- ------<br>------- --- ------ ----- --- ---- ------- -- ---- --- --<br>------- ------,191009.19999998808,191008.80000001192,190572.034,190586.30000001192,190588.76,191022.083,,40,wary
screen,html.Screen,2_1_1_1_41,2022-02-17T16:45:37.270Z,,,,,,,,,,,,,,,,,54,,,,,,,,,,,,,,387.21700001190766,,response,,,,100,,,,,,,Space,keypress(Space),,,,,,,,-- --- ---- --- ------ ----- ------- ---- -- --- ------- --<br>------- ---------- ------ -- ----- -- ----- -- ---- ------<br>--- ----- --- --- ------ -------- ----- --- ------ ----- --<br>----- ----- ---------- --- --- ------ ------ ---- of ------<br>------- --- ------ ----- --- ---- ------- -- ---- --- --<br>------- ------,191410.10000002384,191409.30000001192,191005.361,191009.30000001192,191022.083,191422.04,,41,of
screen,html.Screen,2_1_1_1_42,2022-02-17T16:45:37.718Z,,,,,,,,,,,,,,,,,54,,,,,,,,,,,,,,435.1599999880709,,response,,,,100,,,,,,,Space,keypress(Space),,,,,,,,-- --- ---- --- ------ ----- ------- ---- -- --- ------- --<br>------- ---------- ------ -- ----- -- ----- -- ---- ------<br>--- ----- --- --- ------ -------- ----- --- ------ ----- --<br>----- ----- ---------- --- --- ------ ------ ---- -- French<br>------- --- ------ ----- --- ---- ------- -- ---- --- --<br>------- ------,191858.10000002384,191857.19999998808,191405.349,191410.30000001192,191422.04,191872.042,,42,French
screen,html.Screen,2_1_1_1_43,2022-02-17T16:45:38.293Z,,,,,,,,,,,,,,,,,54,,,,,,,,,,,,,,560.6579999880923,,response,,,,100,,,,,,,Space,keypress(Space),,,,,,,,-- --- ---- --- ------ ----- ------- ---- -- --- ------- --<br>------- ---------- ------ -- ----- -- ----- -- ---- ------<br>--- ----- --- --- ------ -------- ----- --- ------ ----- --<br>----- ----- ---------- --- --- ------ ------ ---- -- ------<br>credit. --- ------ ----- --- ---- ------- -- ---- --- --<br>------- ------,192433,192432.69999998808,191855.382,191858.30000001192,191872.042,192438.744,,43,credit.
screen,html.Screen,2_1_1_1_44,2022-02-17T16:45:38.710Z,,,,,,,,,,,,,,,,,54,,,,,,,,,,,,,,410.5560000119149,,response,,,,100,,,,,,,Space,keypress(Space),,,,,,,,-- --- ---- --- ------ ----- ------- ---- -- --- ------- --<br>------- ---------- ------ -- ----- -- ----- -- ---- ------<br>--- ----- --- --- ------ -------- ----- --- ------ ----- --<br>----- ----- ---------- --- --- ------ ------ ---- -- ------<br>------- The ------ ----- --- ---- ------- -- ---- --- --<br>------- ------,192850.10000002384,192849.30000001192,192422.008,192433,192438.744,192855.404,,44,The
screen,html.Screen,2_1_1_1_45,2022-02-17T16:45:39.118Z,,,,,,,,,,,,,,,,,54,,,,,,,,,,,,,,401.8960000119114,,response,,,,100,,,,,,,Space,keypress(Space),,,,,,,,-- --- ---- --- ------ ----- ------- ---- -- --- ------- --<br>------- ---------- ------ -- ----- -- ----- -- ---- ------<br>--- ----- --- --- ------ -------- ----- --- ------ ----- --<br>----- ----- ---------- --- --- ------ ------ ---- -- ------<br>------- --- French ----- --- ---- ------- -- ---- --- --<br>------- ------,193258.10000002384,193257.30000001192,192838.697,192850.30000001192,192855.404,193272.141,,45,French
screen,html.Screen,2_1_1_1_46,2022-02-17T16:45:39.564Z,,,,,,,,,,,,,,,,,54,,,,,,,,,,,,,,432.35899999999674,,response,,,,100,,,,,,,Space,keypress(Space),,,,,,,,-- --- ---- --- ------ ----- ------- ---- -- --- ------- --<br>------- ---------- ------ -- ----- -- ----- -- ---- ------<br>--- ----- --- --- ------ -------- ----- --- ------ ----- --<br>----- ----- ---------- --- --- ------ ------ ---- -- ------<br>------- --- ------ state --- ---- ------- -- ---- --- --<br>------- ------,193704.69999998808,193704.5,193255.368,193258.30000001192,193272.141,193727.532,,46,state
screen,html.Screen,2_1_1_1_47,2022-02-17T16:45:39.997Z,,,,,,,,,,,,,,,,,54,,,,,,,,,,,,,,409.06800002383534,,response,,,,100,,,,,,,Space,keypress(Space),,,,,,,,-- --- ---- --- ------ ----- ------- ---- -- --- ------- --<br>------- ---------- ------ -- ----- -- ----- -- ---- ------<br>--- ----- --- --- ------ -------- ----- --- ------ ----- --<br>----- ----- ---------- --- --- ------ ------ ---- -- ------<br>------- --- ------ ----- was ---- ------- -- ---- --- --<br>------- ------,194137,194136.60000002384,193688.823,193704.80000001192,193727.532,194138.708,,47,was
screen,html.Screen,2_1_1_1_48,2022-02-17T16:45:40.342Z,,,,,,,,,,,,,,,,,54,,,,,,,,,,,,,,342.59200001190766,,response,,,,100,,,,,,,Space,keypress(Space),,,,,,,,-- --- ---- --- ------ ----- ------- ---- -- --- ------- --<br>------- ---------- ------ -- ----- -- ----- -- ---- ------<br>--- ----- --- --- ------ -------- ----- --- ------ ----- --<br>----- ----- ---------- --- --- ------ ------ ---- -- ------<br>------- --- ------ ----- --- left ------- -- ---- --- --<br>------- ------,194482.10000002384,194481.30000001192,194121.994,194137.10000002384,194138.708,194488.646,,48,left
screen,html.Screen,2_1_1_1_49,2022-02-17T16:45:40.782Z,,,,,,,,,,,,,,,,,54,,,,,,,,,,,,,,432.654000011913,,response,,,,100,,,,,,,Space,keypress(Space),,,,,,,,-- --- ---- --- ------ ----- ------- ---- -- --- ------- --<br>------- ---------- ------ -- ----- -- ----- -- ---- ------<br>--- ----- --- --- ------ -------- ----- --- ------ ----- --<br>----- ----- ---------- --- --- ------ ------ ---- -- ------<br>------- --- ------ ----- --- ---- without -- ---- --- --<br>------- ------,194922.10000002384,194921.30000001192,194472.053,194482.19999998808,194488.646,194938.732,,49,without
screen,html.Screen,2_1_1_1_50,2022-02-17T16:45:41.205Z,,,,,,,,,,,,,,,,,54,,,,,,,,,,,,,,405.8680000238528,,response,,,,100,,,,,,,Space,keypress(Space),,,,,,,,-- --- ---- --- ------ ----- ------- ---- -- --- ------- --<br>------- ---------- ------ -- ----- -- ----- -- ---- ------<br>--- ----- --- --- ------ -------- ----- --- ------ ----- --<br>----- ----- ---------- --- --- ------ ------ ---- -- ------<br>------- --- ------ ----- --- ---- ------- an ---- --- --<br>------- ------,195345,195344.60000002384,194922.045,194922.30000001192,194938.732,195355.403,,50,an
screen,html.Screen,2_1_1_1_51,2022-02-17T16:45:41.589Z,,,,,,,,,,,,,,,,,54,,,,,,,,,,,,,,373.3970000119298,,response,,,,100,,,,,,,Space,keypress(Space),,,,,,,,-- --- ---- --- ------ ----- ------- ---- -- --- ------- --<br>------- ---------- ------ -- ----- -- ----- -- ---- ------<br>--- ----- --- --- ------ -------- ----- --- ------ ----- --<br>----- ----- ---------- --- --- ------ ------ ---- -- ------<br>------- --- ------ ----- --- ---- ------- -- easy --- --<br>------- ------,195729.39999997616,195728.80000001192,195338.704,195345,195355.403,195738.768,,51,easy
screen,html.Screen,2_1_1_1_52,2022-02-17T16:45:41.965Z,,,,,,,,,,,,,,,,,54,,,,,,,,,,,,,,365.8320000238309,,response,,,,100,,,,,,,Space,keypress(Space),,,,,,,,-- --- ---- --- ------ ----- ------- ---- -- --- ------- --<br>------- ---------- ------ -- ----- -- ----- -- ---- ------<br>--- ----- --- --- ------ -------- ----- --- ------ ----- --<br>----- ----- ---------- --- --- ------ ------ ---- -- ------<br>------- --- ------ ----- --- ---- ------- -- ---- way --<br>------- ------,196105.10000002384,196104.60000002384,195722.016,195729.5,195738.768,196122.042,,52,way
screen,html.Screen,2_1_1_1_53,2022-02-17T16:45:42.460Z,,,,,,,,,,,,,,,,,54,,,,,,,,,,,,,,478.55800002385513,,response,,,,100,,,,,,,Space,keypress(Space),,,,,,,,-- --- ---- --- ------ ----- ------- ---- -- --- ------- --<br>------- ---------- ------ -- ----- -- ----- -- ---- ------<br>--- ----- --- --- ------ -------- ----- --- ------ ----- --<br>----- ----- ---------- --- --- ------ ------ ---- -- ------<br>------- --- ------ ----- --- ---- ------- -- ---- --- of<br>------- ------,196600.89999997616,196600.60000002384,196105.337,196105.10000002384,196122.042,196605.352,,53,of
screen,html.Screen,2_1_1_1_54,2022-02-17T16:45:42.901Z,,,,,,,,,,,,,,,,,54,,,,,,,,,,,,,,435.34799998806557,,response,,,,100,,,,,,,Space,keypress(Space),,,,,,,,-- --- ---- --- ------ ----- ------- ---- -- --- ------- --<br>------- ---------- ------ -- ----- -- ----- -- ---- ------<br>--- ----- --- --- ------ -------- ----- --- ------ ----- --<br>----- ----- ---------- --- --- ------ ------ ---- -- ------<br>------- --- ------ ----- --- ---- ------- -- ---- --- --<br>raising ------,197041.10000002384,197040.69999998808,196588.765,196601,196605.352,197055.37,,54,raising
screen,html.Screen,2_1_1_1_55,2022-02-17T16:45:43.758Z,,,,,,,,,,,,,,,,,54,,,,,,,,,,,,,,841.9300000119256,,response,,,,100,,,,,,,Space,keypress(Space),,,,,,,,-- --- ---- --- ------ ----- ------- ---- -- --- ------- --<br>------- ---------- ------ -- ----- -- ----- -- ---- ------<br>--- ----- --- --- ------ -------- ----- --- ------ ----- --<br>----- ----- ---------- --- --- ------ ------ ---- -- ------<br>------- --- ------ ----- --- ---- ------- -- ---- --- --<br>------- money.,197898.10000002384,197897.30000001192,197038.741,197041.10000002384,197055.37,197905.384,,55,money.
Item 100,flow.Loop,2_1_1_1,2022-02-17T16:45:43.758Z,,,,,,,,,,,,,,,,,,,,,,,,,,,,,,,28675.247000011906,,completion,,,,,F,,,,,,,,,,,silence,,,,,197898.5,197897.30000001192,169205.341,169206,169222.053,197905.384,,,
Question 1,html.Screen,2_1_1_2,2022-02-17T16:45:45.875Z,,,,,,,,,,,,,,,,,,,,,,,,,,,,true,TRUE,,2109.216000023851,,response,,,,100,F,,,,,,TRUE,click #choice-1,,,,silence,,,,,200015.10000002384,200014.60000002384,197888.75,197898.60000002384,197905.384,200022.055,,,
Question 2,html.Screen,2_1_1_3,2022-02-17T16:45:47.703Z,,,,,,,,,,,,,,,,,,,,,,,,,,,,true,FALSE,,1820.644999988086,,response,,,,100,F,,,,,,FALSE,click #choice-2,,,,silence,,,,,201843.10000002384,201842.69999998808,200005.417,200015.19999998808,200022.055,201855.462,,,
Item 100,flow.Sequence,2_1_1,2022-02-17T16:45:47.703Z,,,,,,,,,,,,,,,,,,,,,,,,,,,,,,,42620.780999988085,,completion,,,,,,,,,,,,,,,,,,,,,201843.30000001192,201842.69999998808,159205.303,159209.10000002384,159221.919,201855.462,,,
End of Practice,html.Page,2_1_2,2022-02-17T16:45:51.927Z,,,,,,,,,,,,,,,,,,,,,,,,,,,,,,,4212.0380000000005,,form submission,,,,,,,,,,,,,,,,,,,,,206067.60000002384,206067.5,201838.738,201843.39999997616,201855.462,206088.8,,,
Practice,flow.Sequence,2_1,2022-02-17T16:45:51.927Z,,,,,,,,,,,,,,,,,,,,,,,,,,,,,,,91912.424,,completion,,,,,,,,,,,,,,,,,,,,,206067.69999998808,206067.5,114138.396,114143.10000002384,114155.076,206088.8,,,
Trap_instruction,html.Page,2_2_0,2022-02-17T16:45:57.793Z,,,,,,,,,,,,,,,,,,,,,,,,,,,,,,,5844.3000000238535,,form submission,,,,,,,,,,,,,,,,,,,,,211933.19999998808,211933.10000002384,206073.225,206067.80000001192,206088.8,211938.734,,,
trap_trial,html.Screen,2_2_1,2022-02-17T16:46:01.487Z,,,,,,,,,,,,,,,,,,,,,,,,,,,,true,1,,3688.1659999761614,,response,,,,,,,,,,,1,click #choice-1,,,,,,,,,215627.5,215626.89999997616,211922.117,211933.30000001192,211938.734,215638.687,,,
end of trap trial,html.Page,2_2_2,2022-02-17T16:46:03.251Z,,,,,,,,,,,,,,,,,,,,,,,,,,,,,,,1752.6130000119156,,form submission,,,,,,,,,,,,,,,,,,,,,217391.5,217391.30000001192,215622.098,215627.5,215638.687,217405.458,,,
Trap 1,flow.Sequence,2_2,2022-02-17T16:46:03.251Z,,,,,,,,,,,,,,,,,,,,,,,,,,,,,,,11302.500000011933,,completion,,,,,,,,,,,,,,,,,,,,,217391.60000002384,217391.30000001192,206073.225,206067.80000001192,206088.8,217405.458,,,
Standby,html.Page,2_3_0,2022-02-17T16:46:11.249Z,,,,,,,,,,,,,,,,,,,,,,,,,,,,,,,7999.975999999995,,timeout,,,,,,,,,,,,,,,,,,,,,225389.69999998808,225388.875,217388.742,217391.69999998808,217405.458,225405.434,,,
Holding screen,html.Screen,2_3_1_0_0,2022-02-17T16:46:18.249Z,,,,,,,,,,,,,,,,,,,,,,,,,,,,,,,7000.087999999989,,timeout,,,,,,,,,,,,,,,,,,,,,232389.19999998808,232388.898,225388.875,225390.10000002384,225405.434,232405.522,,,
screen,html.Screen,2_3_1_0_1_0,2022-02-17T16:46:19.045Z,,,,,,,,,,,,,,,,,2,,,,,,,,,,,,,,779.9780000000028,,response,,,,1,F,,,,,,Space,keypress(Space),,,,instrumental,,,,Two ---- ------ --- ------- ---------- ------- ----------<br>--- --------- --- ----------- ------- ----- ------- ---<br>--------- ---- -- --- ---- -- --------- -- ---- -------<br>-- --------- ------ --- ----- ------ ---- --- --------- --<br>------ - ---- -- --- ----------- ------- ---- ----- -----<br>--- -------- - ------ ---- -- ----- ---- --- --- -----------<br>-- -------,233186,233185.5,232388.898,232389.30000001192,232405.522,233188.772,,0,Two
screen,html.Screen,2_3_1_0_1_1,2022-02-17T16:46:19.605Z,,,,,,,,,,,,,,,,,2,,,,,,,,,,,,,,555.8280000238447,,response,,,,1,F,,,,,,Space,keypress(Space),,,,instrumental,,,,--- days ------ --- ------- ---------- ------- ----------<br>--- --------- --- ----------- ------- ----- ------- ---<br>--------- ---- -- --- ---- -- --------- -- ---- -------<br>-- --------- ------ --- ----- ------ ---- --- --------- --<br>------ - ---- -- --- ----------- ------- ---- ----- -----<br>--- -------- - ------ ---- -- ----- ---- --- --- -----------<br>-- -------,233745,233744.60000002384,233172.164,233186.10000002384,233188.772,233755.483,,1,days
screen,html.Screen,2_3_1_0_1_2,2022-02-17T16:46:20.190Z,,,,,,,,,,,,,,,,,2,,,,,,,,,,,,,,574.3170000119135,,response,,,,1,F,,,,,,Space,keypress(Space),,,,instrumental,,,,"--- ---- later, --- ------- ---------- ------- ----------<br>--- --------- --- ----------- ------- ----- ------- ---<br>--------- ---- -- --- ---- -- --------- -- ---- -------<br>-- --------- ------ --- ----- ------ ---- --- --------- --<br>------ - ---- -- --- ----------- ------- ---- ----- -----<br>--- -------- - ------ ---- -- ----- ---- --- --- -----------<br>-- -------",234330.19999998808,234329.80000001192,233738.876,233745.10000002384,233755.483,234338.859,,2,"later,"
screen,html.Screen,2_3_1_0_1_3,2022-02-17T16:46:20.573Z,,,,,,,,,,,,,,,,,2,,,,,,,,,,,,,,373.84099998808233,,response,,,,1,F,,,,,,Space,keypress(Space),,,,instrumental,,,,--- ---- ------ the ------- ---------- ------- ----------<br>--- --------- --- ----------- ------- ----- ------- ---<br>--------- ---- -- --- ---- -- --------- -- ---- -------<br>-- --------- ------ --- ----- ------ ---- --- --------- --<br>------ - ---- -- --- ----------- ------- ---- ----- -----<br>--- -------- - ------ ---- -- ----- ---- --- --- -----------<br>-- -------,234713.19999998808,234712.69999998808,234322.154,234330.30000001192,234338.859,234722.155,,3,the
screen,html.Screen,2_3_1_0_1_4,2022-02-17T16:46:21.197Z,,,,,,,,,,,,,,,,,2,,,,,,,,,,,,,,615.1450000119221,,response,,,,1,F,,,,,,Space,keypress(Space),,,,instrumental,,,,--- ---- ------ --- British ---------- ------- ----------<br>--- --------- --- ----------- ------- ----- ------- ---<br>--------- ---- -- --- ---- -- --------- -- ---- -------<br>-- --------- ------ --- ----- ------ ---- --- --------- --<br>------ - ---- -- --- ----------- ------- ---- ----- -----<br>--- -------- - ------ ---- -- ----- ---- --- --- -----------<br>-- -------,235337.60000002384,235337.30000001192,234705.567,234713.19999998808,234722.155,235364.074,,4,British
screen,html.Screen,2_3_1_0_1_5,2022-02-17T16:46:21.741Z,,,,,,,,,,,,,,,,,2,,,,,,,,,,,,,,516.6259999880858,,response,,,,1,F,,,,,,Space,keypress(Space),,,,instrumental,,,,--- ---- ------ --- ------- astronomer ------- ----------<br>--- --------- --- ----------- ------- ----- ------- ---<br>--------- ---- -- --- ---- -- --------- -- ---- -------<br>-- --------- ------ --- ----- ------ ---- --- --------- --<br>------ - ---- -- --- ----------- ------- ---- ----- -----<br>--- -------- - ------ ---- -- ----- ---- --- --- -----------<br>-- -------,235881.19999998808,235880.69999998808,235322.198,235337.60000002384,235364.074,235888.864,,5,astronomer
screen,html.Screen,2_3_1_0_1_6,2022-02-17T16:46:22.198Z,,,,,,,,,,,,,,,,,2,,,,,,,,,,,,,,448.43600001191953,,response,,,,1,F,,,,,,Space,keypress(Space),,,,instrumental,,,,--- ---- ------ --- ------- ---------- Richard ----------<br>--- --------- --- ----------- ------- ----- ------- ---<br>--------- ---- -- --- ---- -- --------- -- ---- -------<br>-- --------- ------ --- ----- ------ ---- --- --------- --<br>------ - ---- -- --- ----------- ------- ---- ----- -----<br>--- -------- - ------ ---- -- ----- ---- --- --- -----------<br>-- -------,236338.10000002384,236337.30000001192,235872.172,235881.30000001192,235888.864,236355.527,,6,Richard
screen,html.Screen,2_3_1_0_1_7,2022-02-17T16:46:22.805Z,,,,,,,,,,,,,,,,,2,,,,,,,,,,,,,,589.2730000119191,,response,,,,1,F,,,,,,Space,keypress(Space),,,,instrumental,,,,--- ---- ------ --- ------- ---------- ------- Carrington<br>--- --------- --- ----------- ------- ----- ------- ---<br>--------- ---- -- --- ---- -- --------- -- ---- -------<br>-- --------- ------ --- ----- ------ ---- --- --------- --<br>------ - ---- -- --- ----------- ------- ---- ----- -----<br>--- -------- - ------ ---- -- ----- ---- --- --- -----------<br>-- -------,236945.30000001192,236944.80000001192,236338.799,236338.39999997616,236355.527,236955.505,,7,Carrington
screen,html.Screen,2_3_1_0_1_8,2022-02-17T16:46:23.229Z,,,,,,,,,,,,,,,,,2,,,,,,,,,,,,,,413.5950000238372,,response,,,,1,F,,,,,,Space,keypress(Space),,,,instrumental,,,,--- ---- ------ --- ------- ---------- ------- ----------<br>was --------- --- ----------- ------- ----- ------- ---<br>--------- ---- -- --- ---- -- --------- -- ---- -------<br>-- --------- ------ --- ----- ------ ---- --- --------- --<br>------ - ---- -- --- ----------- ------- ---- ----- -----<br>--- -------- - ------ ---- -- ----- ---- --- --- -----------<br>-- -------,237369.89999997616,237369.10000002384,236938.844,236945.39999997616,236955.505,237372.254,,8,was
screen,html.Screen,2_3_1_0_1_9,2022-02-17T16:46:23.612Z,,,,,,,,,,,,,,,,,2,,,,,,,,,,,,,,380.3460000238556,,response,,,,1,F,,,,,,Space,keypress(Space),,,,instrumental,,,,--- ---- ------ --- ------- ---------- ------- ----------<br>--- observing --- ----------- ------- ----- ------- ---<br>--------- ---- -- --- ---- -- --------- -- ---- -------<br>-- --------- ------ --- ----- ------ ---- --- --------- --<br>------ - ---- -- --- ----------- ------- ---- ----- -----<br>--- -------- - ------ ---- -- ----- ---- --- --- -----------<br>-- -------,237752.89999997616,237752.60000002384,237355.515,237370,237372.254,237755.474,,9,observing
screen,html.Screen,2_3_1_0_1_10,2022-02-17T16:46:23.989Z,,,,,,,,,,,,,,,,,2,,,,,,,,,,,,,,373.22599998809164,,response,,,,1,F,,,,,,Space,keypress(Space),,,,instrumental,,,,--- ---- ------ --- ------- ---------- ------- ----------<br>--- --------- the ----------- ------- ----- ------- ---<br>--------- ---- -- --- ---- -- --------- -- ---- -------<br>-- --------- ------ --- ----- ------ ---- --- --------- --<br>------ - ---- -- --- ----------- ------- ---- ----- -----<br>--- -------- - ------ ---- -- ----- ---- --- --- -----------<br>-- -------,238129.19999998808,238128.69999998808,237738.821,237753,237755.474,238138.833,,10,the
screen,html.Screen,2_3_1_0_1_11,2022-02-17T16:46:24.444Z,,,,,,,,,,,,,,,,,2,,,,,,,,,,,,,,445.7670000238286,,response,,,,1,F,,,,,,Space,keypress(Space),,,,instrumental,,,,--- ---- ------ --- ------- ---------- ------- ----------<br>--- --------- --- interesting ------- ----- ------- ---<br>--------- ---- -- --- ---- -- --------- -- ---- -------<br>-- --------- ------ --- ----- ------ ---- --- --------- --<br>------ - ---- -- --- ----------- ------- ---- ----- -----<br>--- -------- - ------ ---- -- ----- ---- --- --- -----------<br>-- -------,238584.89999997616,238584.60000002384,238122.251,238129.30000001192,238138.833,238588.825,,11,interesting
screen,html.Screen,2_3_1_0_1_12,2022-02-17T16:46:25.029Z,,,,,,,,,,,,,,,,,2,,,,,,,,,,,,,,579.8749999880674,,response,,,,1,F,,,,,,Space,keypress(Space),,,,instrumental,,,,--- ---- ------ --- ------- ---------- ------- ----------<br>--- --------- --- ----------- sunspot ----- ------- ---<br>--------- ---- -- --- ---- -- --------- -- ---- -------<br>-- --------- ------ --- ----- ------ ---- --- --------- --<br>------ - ---- -- --- ----------- ------- ---- ----- -----<br>--- -------- - ------ ---- -- ----- ---- --- --- -----------<br>-- -------,239169.10000002384,239168.69999998808,238572.198,238584.89999997616,238588.825,239172.198,,12,sunspot
screen,html.Screen,2_3_1_0_1_13,2022-02-17T16:46:25.772Z,,,,,,,,,,,,,,,,,2,,,,,,,,,,,,,,740.4020000238379,,response,,,,1,F,,,,,,Space,keypress(Space),,,,instrumental,,,,--- ---- ------ --- ------- ---------- ------- ----------<br>--- --------- --- ----------- ------- group ------- ---<br>--------- ---- -- --- ---- -- --------- -- ---- -------<br>-- --------- ------ --- ----- ------ ---- --- --------- --<br>------ - ---- -- --- ----------- ------- ---- ----- -----<br>--- -------- - ------ ---- -- ----- ---- --- --- -----------<br>-- -------,239913,239912.60000002384,239155.514,239169.10000002384,239172.198,239922.266,,13,group
screen,html.Screen,2_3_1_0_1_14,2022-02-17T16:46:26.172Z,,,,,,,,,,,,,,,,,2,,,,,,,,,,,,,,390.23399999999674,,response,,,,1,F,,,,,,Space,keypress(Space),,,,instrumental,,,,--- ---- ------ --- ------- ---------- ------- ----------<br>--- --------- --- ----------- ------- ----- through ---<br>--------- ---- -- --- ---- -- --------- -- ---- -------<br>-- --------- ------ --- ----- ------ ---- --- --------- --<br>------ - ---- -- --- ----------- ------- ---- ----- -----<br>--- -------- - ------ ---- -- ----- ---- --- --- -----------<br>-- -------,240312.80000001192,240312.5,239905.53,239913,239922.266,240322.13,,14,through
screen,html.Screen,2_3_1_0_1_15,2022-02-17T16:46:26.588Z,,,,,,,,,,,,,,,,,2,,,,,,,,,,,,,,406.5699999880744,,response,,,,1,F,,,,,,Space,keypress(Space),,,,instrumental,,,,--- ---- ------ --- ------- ---------- ------- ----------<br>--- --------- --- ----------- ------- ----- ------- his<br>--------- ---- -- --- ---- -- --------- -- ---- -------<br>-- --------- ------ --- ----- ------ ---- --- --------- --<br>------ - ---- -- --- ----------- ------- ---- ----- -----<br>--- -------- - ------ ---- -- ----- ---- --- --- -----------<br>-- -------,240729,240728.69999998808,240305.518,240312.89999997616,240322.13,240738.868,,15,his
screen,html.Screen,2_3_1_0_1_16,2022-02-17T16:46:27.053Z,,,,,,,,,,,,,,,,,2,,,,,,,,,,,,,,453.8319999880914,,response,,,,1,F,,,,,,Space,keypress(Space),,,,instrumental,,,,--- ---- ------ --- ------- ---------- ------- ----------<br>--- --------- --- ----------- ------- ----- ------- ---<br>telescope ---- -- --- ---- -- --------- -- ---- -------<br>-- --------- ------ --- ----- ------ ---- --- --------- --<br>------ - ---- -- --- ----------- ------- ---- ----- -----<br>--- -------- - ------ ---- -- ----- ---- --- --- -----------<br>-- -------,241193.19999998808,241192.69999998808,240722.194,240729,240738.868,241205.547,,16,telescope
screen,html.Screen,2_3_1_0_1_17,2022-02-17T16:46:27.462Z,,,,,,,,,,,,,,,,,2,,,,,,,,,,,,,,396.6529999880877,,response,,,,1,F,,,,,,Space,keypress(Space),,,,instrumental,,,,--- ---- ------ --- ------- ---------- ------- ----------<br>--- --------- --- ----------- ------- ----- ------- ---<br>--------- when -- --- ---- -- --------- -- ---- -------<br>-- --------- ------ --- ----- ------ ---- --- --------- --<br>------ - ---- -- --- ----------- ------- ---- ----- -----<br>--- -------- - ------ ---- -- ----- ---- --- --- -----------<br>-- -------,241602.5,241602.19999998808,241188.835,241193.19999998808,241205.547,241605.494,,17,when
screen,html.Screen,2_3_1_0_1_18,2022-02-17T16:46:27.830Z,,,,,,,,,,,,,,,,,2,,,,,,,,,,,,,,364.3060000119149,,response,,,,1,F,,,,,,Space,keypress(Space),,,,instrumental,,,,--- ---- ------ --- ------- ---------- ------- ----------<br>--- --------- --- ----------- ------- ----- ------- ---<br>--------- ---- he --- ---- -- --------- -- ---- -------<br>-- --------- ------ --- ----- ------ ---- --- --------- --<br>------ - ---- -- --- ----------- ------- ---- ----- -----<br>--- -------- - ------ ---- -- ----- ---- --- --- -----------<br>-- -------,241970.60000002384,241969.80000001192,241588.873,241602.60000002384,241605.494,241999.309,,18,he
screen,html.Screen,2_3_1_0_1_19,2022-02-17T16:46:28.245Z,,,,,,,,,,,,,,,,,2,,,,,,,,,,,,,,385.3909999880707,,response,,,,1,F,,,,,,Space,keypress(Space),,,,instrumental,,,,--- ---- ------ --- ------- ---------- ------- ----------<br>--- --------- --- ----------- ------- ----- ------- ---<br>--------- ---- -- saw ---- -- --------- -- ---- -------<br>-- --------- ------ --- ----- ------ ---- --- --------- --<br>------ - ---- -- --- ----------- ------- ---- ----- -----<br>--- -------- - ------ ---- -- ----- ---- --- --- -----------<br>-- -------,242385.10000002384,242384.69999998808,241955.535,241970.80000001192,241999.309,242388.904,,19,saw
screen,html.Screen,2_3_1_0_1_20,2022-02-17T16:46:28.788Z,,,,,,,,,,,,,,,,,2,,,,,,,,,,,,,,539.6960000238323,,response,,,,1,F,,,,,,Space,keypress(Space),,,,instrumental,,,,--- ---- ------ --- ------- ---------- ------- ----------<br>--- --------- --- ----------- ------- ----- ------- ---<br>--------- ---- -- --- what -- --------- -- ---- -------<br>-- --------- ------ --- ----- ------ ---- --- --------- --<br>------ - ---- -- --- ----------- ------- ---- ----- -----<br>--- -------- - ------ ---- -- ----- ---- --- --- -----------<br>-- -------,242929,242928.60000002384,242372.218,242385.10000002384,242388.904,242938.835,,20,what
screen,html.Screen,2_3_1_0_1_21,2022-02-17T16:46:29.157Z,,,,,,,,,,,,,,,,,2,,,,,,,,,,,,,,357.9650000119291,,response,,,,1,F,,,,,,Space,keypress(Space),,,,instrumental,,,,--- ---- ------ --- ------- ---------- ------- ----------<br>--- --------- --- ----------- ------- ----- ------- ---<br>--------- ---- -- --- ---- he --------- -- ---- -------<br>-- --------- ------ --- ----- ------ ---- --- --------- --<br>------ - ---- -- --- ----------- ------- ---- ----- -----<br>--- -------- - ------ ---- -- ----- ---- --- --- -----------<br>-- -------,243297.19999998808,243296.80000001192,242922.188,242929,242938.835,243305.549,,21,he
screen,html.Screen,2_3_1_0_1_22,2022-02-17T16:46:29.638Z,,,,,,,,,,,,,,,,,2,,,,,,,,,,,,,,471.65099998808,,response,,,,1,F,,,,,,Space,keypress(Space),,,,instrumental,,,,--- ---- ------ --- ------- ---------- ------- ----------<br>--- --------- --- ----------- ------- ----- ------- ---<br>--------- ---- -- --- ---- -- described -- ---- -------<br>-- --------- ------ --- ----- ------ ---- --- --------- --<br>------ - ---- -- --- ----------- ------- ---- ----- -----<br>--- -------- - ------ ---- -- ----- ---- --- --- -----------<br>-- -------,243778.10000002384,243777.19999998808,243288.925,243297.30000001192,243305.549,243788.86,,22,described
screen,html.Screen,2_3_1_0_1_23,2022-02-17T16:46:30.005Z,,,,,,,,,,,,,,,,,2,,,,,,,,,,,,,,356.0399999761721,,response,,,,1,F,,,,,,Space,keypress(Space),,,,instrumental,,,,--- ---- ------ --- ------- ---------- ------- ----------<br>--- --------- --- ----------- ------- ----- ------- ---<br>--------- ---- -- --- ---- -- --------- as ---- -------<br>-- --------- ------ --- ----- ------ ---- --- --------- --<br>------ - ---- -- --- ----------- ------- ---- ----- -----<br>--- -------- - ------ ---- -- ----- ---- --- --- -----------<br>-- -------,244145.30000001192,244144.89999997616,243772.206,243778.19999998808,243788.86,244155.516,,23,as
screen,html.Screen,2_3_1_0_1_24,2022-02-17T16:46:30.629Z,,,,,,,,,,,,,,,,,2,,,,,,,,,,,,,,613.0840000238386,,response,,,,1,F,,,,,,Space,keypress(Space),,,,instrumental,,,,"--- ---- ------ --- ------- ---------- ------- ----------<br>--- --------- --- ----------- ------- ----- ------- ---<br>--------- ---- -- --- ---- -- --------- -- ""two -------<br>-- --------- ------ --- ----- ------ ---- --- --------- --<br>------ - ---- -- --- ----------- ------- ---- ----- -----<br>--- -------- - ------ ---- -- ----- ---- --- --- -----------<br>-- -------",244769,244768.60000002384,244138.865,244145.39999997616,244155.516,244772.219,,24,"""two"
screen,html.Screen,2_3_1_0_1_25,2022-02-17T16:46:31.262Z,,,,,,,,,,,,,,,,,2,,,,,,,,,,,,,,629.081000011909,,response,,,,1,F,,,,,,Space,keypress(Space),,,,instrumental,,,,--- ---- ------ --- ------- ---------- ------- ----------<br>--- --------- --- ----------- ------- ----- ------- ---<br>--------- ---- -- --- ---- -- --------- -- ---- patches<br>-- --------- ------ --- ----- ------ ---- --- --------- --<br>------ - ---- -- --- ----------- ------- ---- ----- -----<br>--- -------- - ------ ---- -- ----- ---- --- --- -----------<br>-- -------,245402.10000002384,245401.30000001192,244755.576,244769.10000002384,244772.219,245405.614,,25,patches
screen,html.Screen,2_3_1_0_1_26,2022-02-17T16:46:31.652Z,,,,,,,,,,,,,,,,,2,,,,,,,,,,,,,,386.78599997615675,,response,,,,1,F,,,,,,Space,keypress(Space),,,,instrumental,,,,--- ---- ------ --- ------- ---------- ------- ----------<br>--- --------- --- ----------- ------- ----- ------- ---<br>--------- ---- -- --- ---- -- --------- -- ---- -------<br>of --------- ------ --- ----- ------ ---- --- --------- --<br>------ - ---- -- --- ----------- ------- ---- ----- -----<br>--- -------- - ------ ---- -- ----- ---- --- --- -----------<br>-- -------,245792.80000001192,245792.39999997616,245388.87,245402.30000001192,245405.614,245805.529,,26,of
screen,html.Screen,2_3_1_0_1_27,2022-02-17T16:46:32.148Z,,,,,,,,,,,,,,,,,2,,,,,,,,,,,,,,483.1709999880695,,response,,,,1,F,,,,,,Space,keypress(Space),,,,instrumental,,,,--- ---- ------ --- ------- ---------- ------- ----------<br>--- --------- --- ----------- ------- ----- ------- ---<br>--------- ---- -- --- ---- -- --------- -- ---- -------<br>-- intensely ------ --- ----- ------ ---- --- --------- --<br>------ - ---- -- --- ----------- ------- ---- ----- -----<br>--- -------- - ------ ---- -- ----- ---- --- --- -----------<br>-- -------,246289,246288.69999998808,245788.844,245792.80000001192,245805.529,246305.553,,27,intensely
screen,html.Screen,2_3_1_0_1_28,2022-02-17T16:46:32.542Z,,,,,,,,,,,,,,,,,2,,,,,,,,,,,,,,375.64699998806464,,response,,,,1,F,,,,,,Space,keypress(Space),,,,instrumental,,,,--- ---- ------ --- ------- ---------- ------- ----------<br>--- --------- --- ----------- ------- ----- ------- ---<br>--------- ---- -- --- ---- -- --------- -- ---- -------<br>-- --------- bright --- ----- ------ ---- --- --------- --<br>------ - ---- -- --- ----------- ------- ---- ----- -----<br>--- -------- - ------ ---- -- ----- ---- --- --- -----------<br>-- -------,246682.10000002384,246681.19999998808,246288.909,246289,246305.553,246688.789,,28,bright
screen,html.Screen,2_3_1_0_1_29,2022-02-17T16:46:32.933Z,,,,,,,,,,,,,,,,,2,,,,,,,,,,,,,,384.21100000001024,,response,,,,1,F,,,,,,Space,keypress(Space),,,,instrumental,,,,--- ---- ------ --- ------- ---------- ------- ----------<br>--- --------- --- ----------- ------- ----- ------- ---<br>--------- ---- -- --- ---- -- --------- -- ---- -------<br>-- --------- ------ and ----- ------ ---- --- --------- --<br>------ - ---- -- --- ----------- ------- ---- ----- -----<br>--- -------- - ------ ---- -- ----- ---- --- --- -----------<br>-- -------,247073.5,247073,246672.253,246682.39999997616,246688.789,247088.957,,29,and
screen,html.Screen,2_3_1_0_1_30,2022-02-17T16:46:33.500Z,,,,,,,,,,,,,,,,,2,,,,,,,,,,,,,,551.4429999761633,,response,,,,1,F,,,,,,Space,keypress(Space),,,,instrumental,,,,--- ---- ------ --- ------- ---------- ------- ----------<br>--- --------- --- ----------- ------- ----- ------- ---<br>--------- ---- -- --- ---- -- --------- -- ---- -------<br>-- --------- ------ --- white ------ ---- --- --------- --<br>------ - ---- -- --- ----------- ------- ---- ----- -----<br>--- -------- - ------ ---- -- ----- ---- --- --- -----------<br>-- -------,247640.69999998808,247640.39999997616,247072.183,247073.69999998808,247088.957,247655.538,,30,white
screen,html.Screen,2_3_1_0_1_31,2022-02-17T16:46:33.868Z,,,,,,,,,,,,,,,,,2,,,,,,,,,,,,,,352.96199999999953,,response,,,,1,F,,,,,,Space,keypress(Space),,,,instrumental,,,,"--- ---- ------ --- ------- ---------- ------- ----------<br>--- --------- --- ----------- ------- ----- ------- ---<br>--------- ---- -- --- ---- -- --------- -- ---- -------<br>-- --------- ------ --- ----- light"" ---- --- --------- --<br>------ - ---- -- --- ----------- ------- ---- ----- -----<br>--- -------- - ------ ---- -- ----- ---- --- --- -----------<br>-- -------",248008.89999997616,248008.5,247638.926,247640.80000001192,247655.538,248022.179,,31,"light"""
screen,html.Screen,2_3_1_0_1_32,2022-02-17T16:46:34.269Z,,,,,,,,,,,,,,,,,2,,,,,,,,,,,,,,386.8209999999963,,response,,,,1,F,,,,,,Space,keypress(Space),,,,instrumental,,,,--- ---- ------ --- ------- ---------- ------- ----------<br>--- --------- --- ----------- ------- ----- ------- ---<br>--------- ---- -- --- ---- -- --------- -- ---- -------<br>-- --------- ------ --- ----- ------ over --- --------- --<br>------ - ---- -- --- ----------- ------- ---- ----- -----<br>--- -------- - ------ ---- -- ----- ---- --- --- -----------<br>-- -------,248409.69999998808,248409,248005.555,248008.89999997616,248022.179,248422.21,,32,over
screen,html.Screen,2_3_1_0_1_33,2022-02-17T16:46:34.662Z,,,,,,,,,,,,,,,,,2,,,,,,,,,,,,,,379.0900000119291,,response,,,,1,F,,,,,,Space,keypress(Space),,,,instrumental,,,,--- ---- ------ --- ------- ---------- ------- ----------<br>--- --------- --- ----------- ------- ----- ------- ---<br>--------- ---- -- --- ---- -- --------- -- ---- -------<br>-- --------- ------ --- ----- ------ ---- the --------- --<br>------ - ---- -- --- ----------- ------- ---- ----- -----<br>--- -------- - ------ ---- -- ----- ---- --- --- -----------<br>-- -------,248802.10000002384,248801.30000001192,248405.544,248409.89999997616,248422.21,248805.646,,33,the
screen,html.Screen,2_3_1_0_1_34,2022-02-17T16:46:35.414Z,,,,,,,,,,,,,,,,,2,,,,,,,,,,,,,,747.654000011913,,response,,,,1,F,,,,,,Space,keypress(Space),,,,instrumental,,,,--- ---- ------ --- ------- ---------- ------- ----------<br>--- --------- --- ----------- ------- ----- ------- ---<br>--------- ---- -- --- ---- -- --------- -- ---- -------<br>-- --------- ------ --- ----- ------ ---- --- sunspots. --<br>------ - ---- -- --- ----------- ------- ---- ----- -----<br>--- -------- - ------ ---- -- ----- ---- --- --- -----------<br>-- -------,249554.10000002384,249553.30000001192,248788.897,248802.39999997616,248805.646,249577.276,,34,sunspots.
screen,html.Screen,2_3_1_0_1_35,2022-02-17T16:46:35.830Z,,,,,,,,,,,,,,,,,2,,,,,,,,,,,,,,392.02400001190836,,response,,,,1,F,,,,,,Space,keypress(Space),,,,instrumental,,,,--- ---- ------ --- ------- ---------- ------- ----------<br>--- --------- --- ----------- ------- ----- ------- ---<br>--------- ---- -- --- ---- -- --------- -- ---- -------<br>-- --------- ------ --- ----- ------ ---- --- --------- He<br>------ - ---- -- --- ----------- ------- ---- ----- -----<br>--- -------- - ------ ---- -- ----- ---- --- --- -----------<br>-- -------,249970.10000002384,249969.30000001192,249538.771,249554.30000001192,249577.276,249972.276,,35,He
screen,html.Screen,2_3_1_0_1_36,2022-02-17T16:46:36.478Z,,,,,,,,,,,,,,,,,2,,,,,,,,,,,,,,645.0240000119084,,response,,,,1,F,,,,,,Space,keypress(Space),,,,instrumental,,,,--- ---- ------ --- ------- ---------- ------- ----------<br>--- --------- --- ----------- ------- ----- ------- ---<br>--------- ---- -- --- ---- -- --------- -- ---- -------<br>-- --------- ------ --- ----- ------ ---- --- --------- --<br>jotted - ---- -- --- ----------- ------- ---- ----- -----<br>--- -------- - ------ ---- -- ----- ---- --- --- -----------<br>-- -------,250618,250617.30000001192,249955.634,249970.39999997616,249972.276,250622.266,,36,jotted
screen,html.Screen,2_3_1_0_1_37,2022-02-17T16:46:36.924Z,,,,,,,,,,,,,,,,,2,,,,,,,,,,,,,,442.3340000238386,,response,,,,1,F,,,,,,Space,keypress(Space),,,,instrumental,,,,--- ---- ------ --- ------- ---------- ------- ----------<br>--- --------- --- ----------- ------- ----- ------- ---<br>--------- ---- -- --- ---- -- --------- -- ---- -------<br>-- --------- ------ --- ----- ------ ---- --- --------- --<br>------ a ---- -- --- ----------- ------- ---- ----- -----<br>--- -------- - ------ ---- -- ----- ---- --- --- -----------<br>-- -------,251065,251064.60000002384,250605.535,250618.30000001192,250622.266,251072.14,,37,a
