sender,sender_type,sender_id,timestamp,meta,,Blues,Classical,Country,Dance,Electronic,Folk,Gospel,Hip-Hop,Jazz,Latin,Musical/Film,New-age,Pop,Prolific_id,Provo_ID,R&B,Rap,Reggae,Religious,Rock,Soul,Swing,Traditional,age,artist_name,correct,correctResponse,distraction,duration,education,ended_on,familiarity,gender,headphone_check_performance,item,list,music_frequency,offensiveness,pleasantness,position_correct,preference,response,response_action,snippet_file,song_name,song_rating,sound,stimulus_1,stimulus_2,stimulus_3,text,time_commit,time_end,time_render,time_run,time_show,time_switch,url,word,word_ID
Prolific ID,html.Form,0,2022-02-03T15:41:24.586Z,"{""labjs_version"":""20.2.2"",""labjs_build"":{""flavor"":""production"",""commit"":""a25486e0c714a0ae2ce03ff94b7bb6896854dcfa""},""location"":""https://run.pavlovia.org/mvasilev/prolific2_music_b/"",""userAgent"":""Mozilla/5.0 (Windows NT 6.3; Win64; x64) AppleWebKit/537.36 (KHTML, like Gecko) Chrome/97.0.4692.99 Safari/537.36"",""platform"":""Win32"",""language"":""en-GB"",""locale"":""en-GB"",""timeZone"":""Europe/London"",""timezoneOffset"":0,""screen_width"":1366,""screen_height"":768,""scroll_width"":1366,""scroll_height"":720,""window_innerWidth"":1366,""window_innerHeight"":768,""devicePixelRatio"":1}",,,,,,,,,,,,,,,5eaadc0a7adeb404eea9c3c0,,,,,,,,,,,,,,,5480.636999999999,,form submission,,,,,,,,,,,,,,,,,,,,,25149.40000000596,25148.5,19617.874,19617.90000000596,19667.863,25158.214,{},,
Introduction,html.Screen,1_0,2022-02-03T15:41:31.837Z,,,,,,,,,,,,,,,,,,,,,,,,,,,,,,,7239.586000011921,,response,,,,,,,,,,,continue,click button,,,,,,,,,32400,32397.80000001192,25141.549,25149.90000000596,25158.214,32407.476,,,
Volume calibration,html.Screen,1_1,2022-02-03T15:42:06.212Z,,,,,,,,,,,,,,,,,,,,,,,,,,,,,,,34364.724000017886,,response,,,,,,,,,,,continue,click button,,,,,,,,,66776,66772.20000001788,32390.811,32400.20000001788,32407.476,66782.134,,,
Task instructions,html.Screen,1_2,2022-02-03T15:42:14.071Z,,,,,,,,,,,,,,,,,,,,,,,,,,,,,,,7851.566000017876,,response,,,,,,,,,,,continue,click button,,,,,,,,,74634.40000000596,74633.70000001788,66765.472,66776.20000001788,66782.134,74647.35,,,
Sounds,html.Screen,1_3_0_0,2022-02-03T15:42:18.326Z,,,,,,,,,,,,,,,,,,,,,,,,,,,,,,,4249.236999999994,,timeout,,,,,,,,,2,,,,,,,,I,S,O,,78890,78879.926,74630.687,74634.70000001788,74647.35,78896.587,,,
Judgement,html.Screen,1_3_0_1,2022-02-03T15:42:20.317Z,,,,,,,,,,,,,,,,,,,,,,,,,,,,true,2,,1983.4130000000005,,response,,,,,,,,,2,,2,click #choice-2,,,,,I,S,O,,80880.90000000596,80880,78879.926,78890.80000001192,78896.587,80884.943,,,
Trial,flow.Sequence,1_3_0,2022-02-03T15:42:20.317Z,,,,,,,,,,,,,,,,,,,,,,,,,,,,,,,6232.649999999994,,completion,,,,,,,,,2,,,,,,,,I,S,O,,80881.09999999404,80880,74630.687,74634.59999999404,74647.35,80884.943,,,
Sounds,html.Screen,1_3_1_0,2022-02-03T15:42:24.557Z,,,,,,,,,,,,,,,,,,,,,,,,,,,,,,,4250.627000000008,,timeout,,,,,,,,,3,,,,,,,,O,I,S,,85121,85118.901,80868.274,80881.40000000596,80884.943,85135.57,,,
Judgement,html.Screen,1_3_1_1,2022-02-03T15:42:25.547Z,,,,,,,,,,,,,,,,,,,,,,,,,,,,true,3,,973.929999999993,,response,,,,,,,,,3,,3,click #choice-3,,,,,O,I,S,,86110.59999999404,86109.5,85118.901,85121.5,85135.57,86119.527,,,
Trial,flow.Sequence,1_3_1,2022-02-03T15:42:25.547Z,,,,,,,,,,,,,,,,,,,,,,,,,,,,,,,5224.557000000001,,completion,,,,,,,,,3,,,,,,,,O,I,S,,86110.80000001192,86109.5,80868.274,80881.30000001192,80884.943,86119.527,,,
Sounds,html.Screen,1_3_2_0,2022-02-03T15:42:29.792Z,,,,,,,,,,,,,,,,,,,,,,,,,,,,,,,4250.1159999999945,,timeout,,,,,,,,,3,,,,,,,,I,O,S,,90355.70000001788,90352.975,86102.854,86111,86119.527,90369.643,,,
Judgement,html.Screen,1_3_2_1,2022-02-03T15:42:30.657Z,,,,,,,,,,,,,,,,,,,,,,,,,,,,true,3,,850.2570000059641,,response,,,,,,,,,3,,3,click #choice-3,,,,,I,O,S,,91220.70000001788,91219.90000000596,90352.975,90356.09999999404,90369.643,91235.425,,,
Trial,flow.Sequence,1_3_2,2022-02-03T15:42:30.657Z,,,,,,,,,,,,,,,,,,,,,,,,,,,,,,,5100.373000005959,,completion,,,,,,,,,3,,,,,,,,I,O,S,,91221.09999999404,91219.90000000596,86102.854,86110.90000000596,86119.527,91235.425,,,
Sounds,html.Screen,1_3_3_0,2022-02-03T15:42:34.908Z,,,,,,,,,,,,,,,,,,,,,,,,,,,,,,,4250.733999999997,,timeout,,,,,,,,,2,,,,,,,,O,S,I,,95471.5,95469.495,91218.76,91221.20000001788,91235.425,95486.159,,,
Judgement,html.Screen,1_3_3_1,2022-02-03T15:42:37.078Z,,,,,,,,,,,,,,,,,,,,,,,,,,,,true,2,,2155.44099999404,,response,,,,,,,,,2,,2,click #choice-2,,,,,O,S,I,,97642.30000001192,97641.59999999404,95469.495,95471.90000000596,95486.159,97652.632,,,
Trial,flow.Sequence,1_3_3,2022-02-03T15:42:37.079Z,,,,,,,,,,,,,,,,,,,,,,,,,,,,,,,6406.174999994037,,completion,,,,,,,,,2,,,,,,,,O,S,I,,97642.5,97641.59999999404,91218.76,91221.09999999404,91235.425,97652.632,,,
Sounds,html.Screen,1_3_4_0,2022-02-03T15:42:41.326Z,,,,,,,,,,,,,,,,,,,,,,,,,,,,,,,4251.447,,timeout,,,,,,,,,1,,,,,,,,S,I,O,,101889.5,101887.415,97635.968,97642.70000001788,97652.632,101904.079,,,
Judgement,html.Screen,1_3_4_1,2022-02-03T15:42:42.080Z,,,,,,,,,,,,,,,,,,,,,,,,,,,,true,1,,738.9210000000021,,response,,,,,,,,,1,,1,click #choice-1,,,,,S,I,O,,102643.90000000596,102643,101887.415,101890,101904.079,102653.966,,,
Trial,flow.Sequence,1_3_4,2022-02-03T15:42:42.080Z,,,,,,,,,,,,,,,,,,,,,,,,,,,,,,,4990.368000000002,,completion,,,,,,,,,1,,,,,,,,S,I,O,,102644.09999999404,102643,97635.968,97642.70000001788,97652.632,102653.966,,,
Sounds,html.Screen,1_3_5_0,2022-02-03T15:42:46.325Z,,,,,,,,,,,,,,,,,,,,,,,,,,,,,,,4250.676000000007,,timeout,,,,,,,,,1,,,,,,,,S,O,I,,106889,106887.979,102637.302,102644.20000001788,102653.966,106904.642,,,
Judgement,html.Screen,1_3_5_1,2022-02-03T15:42:47.011Z,,,,,,,,,,,,,,,,,,,,,,,,,,,,true,1,,669.8579999999929,,response,,,,,,,,,1,,1,click #choice-1,,,,,S,O,I,,107575.40000000596,107574.5,106887.979,106889.20000001788,106904.642,107588.147,,,
Trial,flow.Sequence,1_3_5,2022-02-03T15:42:47.012Z,,,,,,,,,,,,,,,,,,,,,,,,,,,,,,,4920.534,,completion,,,,,,,,,1,,,,,,,,S,O,I,,107575.59999999404,107574.5,102637.302,102644.20000001788,102653.966,107588.147,,,
Task,flow.Loop,1_3,2022-02-03T15:42:47.016Z,,,,,,,,,,,,,,,,,,,,,,,,,,,,,,,32927.149999999994,,completion,,,1,,,,,,,,,,,,,,,,,,107580,107574.5,74630.687,74634.59999999404,74647.35,107588.147,,,
Trap,html.Screen,1_4,2022-02-03T15:42:47.017Z,,,,,,,,,,,,,,,,,,,,,,,,,,,,,,,NaN,,skipped,,,,,,,,,,,,,,,,,,,,,107581.30000001192,107574.5,,107581.09999999404,,107588.147,,,
Thanks,html.Screen,1_5,2022-02-03T15:42:49.911Z,,,,,,,,,,,,,,,,,,,,,,,,,,,,,,,2886.053000017884,,response,,,,,,,,,,,continue,click button,,,,,,,,,110474.90000000596,110474.20000001788,107571.483,107581.40000000596,107588.147,115057.078,,,
Headphone screening,flow.Sequence,1,2022-02-03T15:42:49.911Z,,,,,,,,,,,,,,,,,,,,,,,,,,,,,,,85315.98600001787,,completion,,,,,,,,,,,,,,,,,,,,,110475.09999999404,110474.20000001788,25141.549,25149.80000001192,25158.214,115057.078,,,
Instructions,html.Page,2_0,2022-02-03T15:43:17.002Z,,,,,,,,,,,,,,,,,,,,,,,,,,,,,,,22507.922000000006,,form submission,,,,,,,,,,,,,,,,,,,,,137565.40000000596,137565,115040.411,115046.90000000596,115057.078,137578.546,,,
Holding screen,html.Screen,2_1_0_0,2022-02-03T15:43:27.001Z,,,,,,,,,,,,,,,,,,,,,,,,,,,,,,,10018.361000000004,,timeout,,,,,,,,,,,,,,,,,,,,,147565,147563.571,137561.88,137565.59999999404,137578.546,147596.907,,,
screen,html.Screen,2_1_0_1_0,2022-02-03T15:43:28.007Z,,,,,,,,,,,,,,,,,53,,,,,,,,,,,,,,967.3930000119144,,response,,,,99,,,,,,,Space,keypress(Space),,,,,,,,When -- ----- -- ------ - ------- --- ----------<br>------------- ------ ------ ---- ---- ------- ----- -- ----<br>-------- ------- -- ---------- --- - --- ----- ----- ----<br>---- --- --- ----- --- ---- ---- ------- ----- ---- -------<br>--- --- -- ----- -- --- ---- -- --- ---- -- ------ ------<br>--- ----- -- ----,148570.80000001192,148564.30000001192,147563.571,147565.40000000596,147596.907,148580.689,,0,When
screen,html.Screen,2_1_0_1_1,2022-02-03T15:43:28.410Z,,,,,,,,,,,,,,,,,53,,,,,,,,,,,,,,391.81099999998696,,response,,,,99,,,,,,,Space,keypress(Space),,,,,,,,---- it ----- -- ------ - ------- --- ----------<br>------------- ------ ------ ---- ---- ------- ----- -- ----<br>-------- ------- -- ---------- --- - --- ----- ----- ----<br>---- --- --- ----- --- ---- ---- ------- ----- ---- -------<br>--- --- -- ----- -- --- ---- -- --- ---- -- ------ ------<br>--- ----- -- ----,148974,148972.5,148564.019,148571.20000001788,148580.689,148980.692,,1,it
screen,html.Screen,2_1_0_1_2,2022-02-03T15:43:28.774Z,,,,,,,,,,,,,,,,,53,,,,,,,,,,,,,,355.20800000595045,,response,,,,99,,,,,,,Space,keypress(Space),,,,,,,,---- -- comes -- ------ - ------- --- ----------<br>------------- ------ ------ ---- ---- ------- ----- -- ----<br>-------- ------- -- ---------- --- - --- ----- ----- ----<br>---- --- --- ----- --- ---- ---- ------- ----- ---- -------<br>--- --- -- ----- -- --- ---- -- --- ---- -- ------ ------<br>--- ----- -- ----,149337.30000001192,149335.90000000596,148964.022,148974.40000000596,148980.692,149347.525,,2,comes
screen,html.Screen,2_1_0_1_3,2022-02-03T15:43:29.138Z,,,,,,,,,,,,,,,,,53,,,,,,,,,,,,,,352.3750000059663,,response,,,,99,,,,,,,Space,keypress(Space),,,,,,,,---- -- ----- to ------ - ------- --- ----------<br>------------- ------ ------ ---- ---- ------- ----- -- ----<br>-------- ------- -- ---------- --- - --- ----- ----- ----<br>---- --- --- ----- --- ---- ---- ------- ----- ---- -------<br>--- --- -- ----- -- --- ---- -- --- ---- -- ------ ------<br>--- ----- -- ----,149701.30000001192,149699.90000000596,149330.852,149337.59999999404,149347.525,149714.211,,3,to
screen,html.Screen,2_1_0_1_4,2022-02-03T15:43:29.616Z,,,,,,,,,,,,,,,,,53,,,,,,,,,,,,,,464.98900001787115,,response,,,,99,,,,,,,Space,keypress(Space),,,,,,,,---- -- ----- -- having - ------- --- ----------<br>------------- ------ ------ ---- ---- ------- ----- -- ----<br>-------- ------- -- ---------- --- - --- ----- ----- ----<br>---- --- --- ----- --- ---- ---- ------- ----- ---- -------<br>--- --- -- ----- -- --- ---- -- --- ---- -- ------ ------<br>--- ----- -- ----,150179.90000000596,150179.20000001788,149697.541,149701.70000001788,149714.211,150180.908,,4,having
screen,html.Screen,2_1_0_1_5,2022-02-03T15:43:30.030Z,,,,,,,,,,,,,,,,,53,,,,,,,,,,,,,,411.2920000178856,,response,,,,99,,,,,,,Space,keypress(Space),,,,,,,,---- -- ----- -- ------ a ------- --- ----------<br>------------- ------ ------ ---- ---- ------- ----- -- ----<br>-------- ------- -- ---------- --- - --- ----- ----- ----<br>---- --- --- ----- --- ---- ---- ------- ----- ---- -------<br>--- --- -- ----- -- --- ---- -- --- ---- -- ------ ------<br>--- ----- -- ----,150593.59999999404,150592.20000001788,150164.239,150180,150180.908,150597.542,,5,a
screen,html.Screen,2_1_0_1_6,2022-02-03T15:43:30.470Z,,,,,,,,,,,,,,,,,53,,,,,,,,,,,,,,432.85800000597374,,response,,,,99,,,,,,,Space,keypress(Space),,,,,,,,---- -- ----- -- ------ - lasting --- ----------<br>------------- ------ ------ ---- ---- ------- ----- -- ----<br>-------- ------- -- ---------- --- - --- ----- ----- ----<br>---- --- --- ----- --- ---- ---- ------- ----- ---- -------<br>--- --- -- ----- -- --- ---- -- --- ---- -- ------ ------<br>--- ----- -- ----,151033.70000001788,151030.40000000596,150580.876,150594,150597.542,151047.625,,6,lasting
screen,html.Screen,2_1_0_1_7,2022-02-03T15:43:30.894Z,,,,,,,,,,,,,,,,,53,,,,,,,,,,,,,,408.5750000178814,,response,,,,99,,,,,,,Space,keypress(Space),,,,,,,,---- -- ----- -- ------ - ------- and ----------<br>------------- ------ ------ ---- ---- ------- ----- -- ----<br>-------- ------- -- ---------- --- - --- ----- ----- ----<br>---- --- --- ----- --- ---- ---- ------- ----- ---- -------<br>--- --- -- ----- -- --- ---- -- --- ---- -- ------ ------<br>--- ----- -- ----,151457.80000001192,151456.20000001788,151030.959,151034.09999999404,151047.625,151464.503,,7,and
screen,html.Screen,2_1_0_1_8,2022-02-03T15:43:31.329Z,,,,,,,,,,,,,,,,,53,,,,,,,,,,,,,,425.8970000059635,,response,,,,99,,,,,,,Space,keypress(Space),,,,,,,,---- -- ----- -- ------ - ------- --- fulfilling<br>------------- ------ ------ ---- ---- ------- ----- -- ----<br>-------- ------- -- ---------- --- - --- ----- ----- ----<br>---- --- --- ----- --- ---- ---- ------- ----- ---- -------<br>--- --- -- ----- -- --- ---- -- --- ---- -- ------ ------<br>--- ----- -- ----,151892.09999999404,151890.40000000596,151447.834,151458,151464.503,151897.921,,8,fulfilling
screen,html.Screen,2_1_0_1_9,2022-02-03T15:43:31.748Z,,,,,,,,,,,,,,,,,53,,,,,,,,,,,,,,412.5789999999979,,response,,,,99,,,,,,,Space,keypress(Space),,,,,,,,"---- -- ----- -- ------ - ------- --- ----------<br>relationship, ------ ------ ---- ---- ------- ----- -- ----<br>-------- ------- -- ---------- --- - --- ----- ----- ----<br>---- --- --- ----- --- ---- ---- ------- ----- ---- -------<br>--- --- -- ----- -- --- ---- -- --- ---- -- ------ ------<br>--- ----- -- ----",152311.30000001192,152310.5,151881.252,151892.59999999404,151897.921,152314.557,,9,"relationship,"
screen,html.Screen,2_1_0_1_10,2022-02-03T15:43:32.142Z,,,,,,,,,,,,,,,,,53,,,,,,,,,,,,,,389.6430000178807,,response,,,,99,,,,,,,Space,keypress(Space),,,,,,,,---- -- ----- -- ------ - ------- --- ----------<br>------------- common ------ ---- ---- ------- ----- -- ----<br>-------- ------- -- ---------- --- - --- ----- ----- ----<br>---- --- --- ----- --- ---- ---- ------- ----- ---- -------<br>--- --- -- ----- -- --- ---- -- --- ---- -- ------ ------<br>--- ----- -- ----,152705.70000001788,152704.20000001788,152297.889,152311.40000000596,152314.557,152714.769,,10,common
screen,html.Screen,2_1_0_1_11,2022-02-03T15:43:32.568Z,,,,,,,,,,,,,,,,,53,,,,,,,,,,,,,,415.63100000596023,,response,,,,99,,,,,,,Space,keypress(Space),,,,,,,,---- -- ----- -- ------ - ------- --- ----------<br>------------- ------ wisdom ---- ---- ------- ----- -- ----<br>-------- ------- -- ---------- --- - --- ----- ----- ----<br>---- --- --- ----- --- ---- ---- ------- ----- ---- -------<br>--- --- -- ----- -- --- ---- -- --- ---- -- ------ ------<br>--- ----- -- ----,153131.90000000596,153130.40000000596,152698.095,152706,152714.769,153148.267,,11,wisdom
screen,html.Screen,2_1_0_1_12,2022-02-03T15:43:32.976Z,,,,,,,,,,,,,,,,,53,,,,,,,,,,,,,,390.1330000059679,,response,,,,99,,,,,,,Space,keypress(Space),,,,,,,,---- -- ----- -- ------ - ------- --- ----------<br>------------- ------ ------ says ---- ------- ----- -- ----<br>-------- ------- -- ---------- --- - --- ----- ----- ----<br>---- --- --- ----- --- ---- ---- ------- ----- ---- -------<br>--- --- -- ----- -- --- ---- -- --- ---- -- ------ ------<br>--- ----- -- ----,153539.90000000596,153538.40000000596,153131.593,153132.20000001788,153148.267,153548.286,,12,says
screen,html.Screen,2_1_0_1_13,2022-02-03T15:43:33.287Z,,,,,,,,,,,,,,,,,53,,,,,,,,,,,,,,300.6140000059677,,response,,,,99,,,,,,,Space,keypress(Space),,,,,,,,---- -- ----- -- ------ - ------- --- ----------<br>------------- ------ ------ ---- that ------- ----- -- ----<br>-------- ------- -- ---------- --- - --- ----- ----- ----<br>---- --- --- ----- --- ---- ---- ------- ----- ---- -------<br>--- --- -- ----- -- --- ---- -- --- ---- -- ------ ------<br>--- ----- -- ----,153850.20000001788,153848.90000000596,153531.614,153540.20000001788,153548.286,153864.996,,13,that
screen,html.Screen,2_1_0_1_14,2022-02-03T15:43:33.708Z,,,,,,,,,,,,,,,,,53,,,,,,,,,,,,,,405.00399999998626,,response,,,,99,,,,,,,Space,keypress(Space),,,,,,,,---- -- ----- -- ------ - ------- --- ----------<br>------------- ------ ------ ---- ---- feeling ----- -- ----<br>-------- ------- -- ---------- --- - --- ----- ----- ----<br>---- --- --- ----- --- ---- ---- ------- ----- ---- -------<br>--- --- -- ----- -- --- ---- -- --- ---- -- ------ ------<br>--- ----- -- ----,154271.5,154270,153848.324,153850.59999999404,153864.996,154281.758,,14,feeling
screen,html.Screen,2_1_0_1_15,2022-02-03T15:43:34.083Z,,,,,,,,,,,,,,,,,53,,,,,,,,,,,,,,363.5420000119193,,response,,,,99,,,,,,,Space,keypress(Space),,,,,,,,---- -- ----- -- ------ - ------- --- ----------<br>------------- ------ ------ ---- ---- ------- close -- ----<br>-------- ------- -- ---------- --- - --- ----- ----- ----<br>---- --- --- ----- --- ---- ---- ------- ----- ---- -------<br>--- --- -- ----- -- --- ---- -- --- ---- -- ------ ------<br>--- ----- -- ----,154646.70000001788,154645.30000001192,154265.086,154271.80000001192,154281.758,154648.488,,15,close
screen,html.Screen,2_1_0_1_16,2022-02-03T15:43:34.399Z,,,,,,,,,,,,,,,,,53,,,,,,,,,,,,,,312.3120000119088,,response,,,,99,,,,,,,Space,keypress(Space),,,,,,,,---- -- ----- -- ------ - ------- --- ----------<br>------------- ------ ------ ---- ---- ------- ----- to ----<br>-------- ------- -- ---------- --- - --- ----- ----- ----<br>---- --- --- ----- --- ---- ---- ------- ----- ---- -------<br>--- --- -- ----- -- --- ---- -- --- ---- -- ------ ------<br>--- ----- -- ----,154962.30000001192,154960.80000001192,154631.817,154647,154648.488,154965.233,,16,to
screen,html.Screen,2_1_0_1_17,2022-02-03T15:43:34.813Z,,,,,,,,,,,,,,,,,53,,,,,,,,,,,,,,409.46700001787394,,response,,,,99,,,,,,,Space,keypress(Space),,,,,,,,---- -- ----- -- ------ - ------- --- ----------<br>------------- ------ ------ ---- ---- ------- ----- -- your<br>-------- ------- -- ---------- --- - --- ----- ----- ----<br>---- --- --- ----- --- ---- ---- ------- ----- ---- -------<br>--- --- -- ----- -- --- ---- -- --- ---- -- ------ ------<br>--- ----- -- ----,155376.09999999404,155374.70000001788,154948.559,154962.59999999404,154965.233,155381.978,,17,your
screen,html.Screen,2_1_0_1_18,2022-02-03T15:43:35.217Z,,,,,,,,,,,,,,,,,53,,,,,,,,,,,,,,397.5219999999972,,response,,,,99,,,,,,,Space,keypress(Space),,,,,,,,---- -- ----- -- ------ - ------- --- ----------<br>------------- ------ ------ ---- ---- ------- ----- -- ----<br>romantic ------- -- ---------- --- - --- ----- ----- ----<br>---- --- --- ----- --- ---- ---- ------- ----- ---- -------<br>--- --- -- ----- -- --- ---- -- --- ---- -- ------ ------<br>--- ----- -- ----,155781,155779.5,155365.305,155376.40000000596,155381.978,155798.72,,18,romantic
screen,html.Screen,2_1_0_1_19,2022-02-03T15:43:35.599Z,,,,,,,,,,,,,,,,,53,,,,,,,,,,,,,,363.08000001191976,,response,,,,99,,,,,,,Space,keypress(Space),,,,,,,,---- -- ----- -- ------ - ------- --- ----------<br>------------- ------ ------ ---- ---- ------- ----- -- ----<br>-------- partner -- ---------- --- - --- ----- ----- ----<br>---- --- --- ----- --- ---- ---- ------- ----- ---- -------<br>--- --- -- ----- -- --- ---- -- --- ---- -- ------ ------<br>--- ----- -- ----,156162.59999999404,156161.80000001192,155782.047,155781.20000001788,155798.72,156165.379,,19,partner
screen,html.Screen,2_1_0_1_20,2022-02-03T15:43:35.999Z,,,,,,,,,,,,,,,,,53,,,,,,,,,,,,,,395.82100001789513,,response,,,,99,,,,,,,Space,keypress(Space),,,,,,,,---- -- ----- -- ------ - ------- --- ----------<br>------------- ------ ------ ---- ---- ------- ----- -- ----<br>-------- ------- is ---------- --- - --- ----- ----- ----<br>---- --- --- ----- --- ---- ---- ------- ----- ---- -------<br>--- --- -- ----- -- --- ---- -- --- ---- -- ------ ------<br>--- ----- -- ----,156562.70000001788,156561.20000001788,156148.709,156162.90000000596,156165.379,156565.393,,20,is
screen,html.Screen,2_1_0_1_21,2022-02-03T15:43:36.395Z,,,,,,,,,,,,,,,,,53,,,,,,,,,,,,,,391.80700001787045,,response,,,,99,,,,,,,Space,keypress(Space),,,,,,,,---- -- ----- -- ------ - ------- --- ----------<br>------------- ------ ------ ---- ---- ------- ----- -- ----<br>-------- ------- -- paramount. --- - --- ----- ----- ----<br>---- --- --- ----- --- ---- ---- ------- ----- ---- -------<br>--- --- -- ----- -- --- ---- -- --- ---- -- ------ ------<br>--- ----- -- ----,156958.59999999404,156957.20000001788,156548.723,156563,156565.393,156982.171,,21,paramount.
screen,html.Screen,2_1_0_1_22,2022-02-03T15:43:36.969Z,,,,,,,,,,,,,,,,,53,,,,,,,,,,,,,,548.7290000059584,,response,,,,99,,,,,,,Space,keypress(Space),,,,,,,,---- -- ----- -- ------ - ------- --- ----------<br>------------- ------ ------ ---- ---- ------- ----- -- ----<br>-------- ------- -- ---------- But - --- ----- ----- ----<br>---- --- --- ----- --- ---- ---- ------- ----- ---- -------<br>--- --- -- ----- -- --- ---- -- --- ---- -- ------ ------<br>--- ----- -- ----,157532.59999999404,157530.90000000596,156948.833,156958.90000000596,156982.171,157548.816,,22,But
screen,html.Screen,2_1_0_1_23,2022-02-03T15:43:37.296Z,,,,,,,,,,,,,,,,,53,,,,,,,,,,,,,,309.1840000000084,,response,,,,99,,,,,,,Space,keypress(Space),,,,,,,,---- -- ----- -- ------ - ------- --- ----------<br>------------- ------ ------ ---- ---- ------- ----- -- ----<br>-------- ------- -- ---------- --- a --- ----- ----- ----<br>---- --- --- ----- --- ---- ---- ------- ----- ---- -------<br>--- --- -- ----- -- --- ---- -- --- ---- -- ------ ------<br>--- ----- -- ----,157859.40000000596,157858,157532.15,157532.90000000596,157548.816,157865.65,,23,a
screen,html.Screen,2_1_0_1_24,2022-02-03T15:43:37.723Z,,,,,,,,,,,,,,,,,53,,,,,,,,,,,,,,419.94999999404536,,response,,,,99,,,,,,,Space,keypress(Space),,,,,,,,---- -- ----- -- ------ - ------- --- ----------<br>------------- ------ ------ ---- ---- ------- ----- -- ----<br>-------- ------- -- ---------- --- - new ----- ----- ----<br>---- --- --- ----- --- ---- ---- ------- ----- ---- -------<br>--- --- -- ----- -- --- ---- -- --- ---- -- ------ ------<br>--- ----- -- ----,158287,158285.59999999404,157848.982,157859.70000001788,157865.65,158298.99,,24,new
screen,html.Screen,2_1_0_1_25,2022-02-03T15:43:38.082Z,,,,,,,,,,,,,,,,,53,,,,,,,,,,,,,,345.2100000178907,,response,,,,99,,,,,,,Space,keypress(Space),,,,,,,,---- -- ----- -- ------ - ------- --- ----------<br>------------- ------ ------ ---- ---- ------- ----- -- ----<br>-------- ------- -- ---------- --- - --- study ----- ----<br>---- --- --- ----- --- ---- ---- ------- ----- ---- -------<br>--- --- -- ----- -- --- ---- -- --- ---- -- ------ ------<br>--- ----- -- ----,158645.5,158644.20000001788,158282.322,158287.30000001192,158298.99,158649.088,,25,study
screen,html.Screen,2_1_0_1_26,2022-02-03T15:43:38.492Z,,,,,,,,,,,,,,,,,53,,,,,,,,,,,,,,405.0119999940507,,response,,,,99,,,,,,,Space,keypress(Space),,,,,,,,---- -- ----- -- ------ - ------- --- ----------<br>------------- ------ ------ ---- ---- ------- ----- -- ----<br>-------- ------- -- ---------- --- - --- ----- finds ----<br>---- --- --- ----- --- ---- ---- ------- ----- ---- -------<br>--- --- -- ----- -- --- ---- -- --- ---- -- ------ ------<br>--- ----- -- ----,159055.5,159054.09999999404,158632.42,158645.80000001192,158649.088,159065.843,,26,finds
screen,html.Screen,2_1_0_1_27,2022-02-03T15:43:38.904Z,,,,,,,,,,,,,,,,,53,,,,,,,,,,,,,,400.25699999404605,,response,,,,99,,,,,,,Space,keypress(Space),,,,,,,,---- -- ----- -- ------ - ------- --- ----------<br>------------- ------ ------ ---- ---- ------- ----- -- ----<br>-------- ------- -- ---------- --- - --- ----- ----- that<br>---- --- --- ----- --- ---- ---- ------- ----- ---- -------<br>--- --- -- ----- -- --- ---- -- --- ---- -- ------ ------<br>--- ----- -- ----,159467.5,159466.09999999404,159049.173,159055.80000001192,159065.843,159482.852,,27,that
screen,html.Screen,2_1_0_1_28,2022-02-03T15:43:39.335Z,,,,,,,,,,,,,,,,,53,,,,,,,,,,,,,,415.1479999999865,,response,,,,99,,,,,,,Space,keypress(Space),,,,,,,,---- -- ----- -- ------ - ------- --- ----------<br>------------- ------ ------ ---- ---- ------- ----- -- ----<br>-------- ------- -- ---------- --- - --- ----- ----- ----<br>it's --- --- ----- --- ---- ---- ------- ----- ---- -------<br>--- --- -- ----- -- --- ---- -- --- ---- -- ------ ------<br>--- ----- -- ----,159898.70000001788,159898,159466.178,159467.90000000596,159482.852,159916.02,,28,it's
screen,html.Screen,2_1_0_1_29,2022-02-03T15:43:39.669Z,,,,,,,,,,,,,,,,,53,,,,,,,,,,,,,,315.4800000000105,,response,,,,99,,,,,,,Space,keypress(Space),,,,,,,,---- -- ----- -- ------ - ------- --- ----------<br>------------- ------ ------ ---- ---- ------- ----- -- ----<br>-------- ------- -- ---------- --- - --- ----- ----- ----<br>---- not --- ----- --- ---- ---- ------- ----- ---- -------<br>--- --- -- ----- -- --- ---- -- --- ---- -- ------ ------<br>--- ----- -- ----,160232.90000000596,160231.5,159899.35,159898.90000000596,159916.02,160249.451,,29,not
screen,html.Screen,2_1_0_1_30,2022-02-03T15:43:40.085Z,,,,,,,,,,,,,,,,,53,,,,,,,,,,,,,,397.24900001788046,,response,,,,99,,,,,,,Space,keypress(Space),,,,,,,,---- -- ----- -- ------ - ------- --- ----------<br>------------- ------ ------ ---- ---- ------- ----- -- ----<br>-------- ------- -- ---------- --- - --- ----- ----- ----<br>---- --- how ----- --- ---- ---- ------- ----- ---- -------<br>--- --- -- ----- -- --- ---- -- --- ---- -- ------ ------<br>--- ----- -- ----,160648.20000001788,160646.70000001788,160232.778,160233.20000001788,160249.451,160649.54,,30,how
screen,html.Screen,2_1_0_1_31,2022-02-03T15:43:40.477Z,,,,,,,,,,,,,,,,,53,,,,,,,,,,,,,,390.3600000059523,,response,,,,99,,,,,,,Space,keypress(Space),,,,,,,,---- -- ----- -- ------ - ------- --- ----------<br>------------- ------ ------ ---- ---- ------- ----- -- ----<br>-------- ------- -- ---------- --- - --- ----- ----- ----<br>---- --- --- close --- ---- ---- ------- ----- ---- -------<br>--- --- -- ----- -- --- ---- -- --- ---- -- ------ ------<br>--- ----- -- ----,161040.90000000596,161039.90000000596,160632.867,160648.5,160649.54,161049.716,,31,close
screen,html.Screen,2_1_0_1_32,2022-02-03T15:43:40.886Z,,,,,,,,,,,,,,,,,53,,,,,,,,,,,,,,398.2840000000142,,response,,,,99,,,,,,,Space,keypress(Space),,,,,,,,---- -- ----- -- ------ - ------- --- ----------<br>------------- ------ ------ ---- ---- ------- ----- -- ----<br>-------- ------- -- ---------- --- - --- ----- ----- ----<br>---- --- --- ----- you ---- ---- ------- ----- ---- -------<br>--- --- -- ----- -- --- ---- -- --- ---- -- ------ ------<br>--- ----- -- ----,161449.40000000596,161448,161033.04,161041.09999999404,161049.716,161466.493,,32,you
screen,html.Screen,2_1_0_1_33,2022-02-03T15:43:41.289Z,,,,,,,,,,,,,,,,,53,,,,,,,,,,,,,,384.4070000059728,,response,,,,99,,,,,,,Space,keypress(Space),,,,,,,,---- -- ----- -- ------ - ------- --- ----------<br>------------- ------ ------ ---- ---- ------- ----- -- ----<br>-------- ------- -- ---------- --- - --- ----- ----- ----<br>---- --- --- ----- --- feel ---- ------- ----- ---- -------<br>--- --- -- ----- -- --- ---- -- --- ---- -- ------ ------<br>--- ----- -- ----,161852.40000000596,161850.90000000596,161449.816,161449.80000001192,161466.493,161866.607,,33,feel
screen,html.Screen,2_1_0_1_34,2022-02-03T15:43:41.683Z,,,,,,,,,,,,,,,,,53,,,,,,,,,,,,,,378.59300001789234,,response,,,,99,,,,,,,Space,keypress(Space),,,,,,,,---- -- ----- -- ------ - ------- --- ----------<br>------------- ------ ------ ---- ---- ------- ----- -- ----<br>-------- ------- -- ---------- --- - --- ----- ----- ----<br>---- --- --- ----- --- ---- that ------- ----- ---- -------<br>--- --- -- ----- -- --- ---- -- --- ---- -- ------ ------<br>--- ----- -- ----,162246.70000001788,162245.20000001788,161849.929,161852.70000001788,161866.607,162249.985,,34,that
screen,html.Screen,2_1_0_1_35,2022-02-03T15:43:42.104Z,,,,,,,,,,,,,,,,,53,,,,,,,,,,,,,,416.1149999940535,,response,,,,99,,,,,,,Space,keypress(Space),,,,,,,,---- -- ----- -- ------ - ------- --- ----------<br>------------- ------ ------ ---- ---- ------- ----- -- ----<br>-------- ------- -- ---------- --- - --- ----- ----- ----<br>---- --- --- ----- --- ---- ---- matters ----- ---- -------<br>--- --- -- ----- -- --- ---- -- --- ---- -- ------ ------<br>--- ----- -- ----,162667.70000001788,162666.09999999404,162233.308,162247,162249.985,162683.222,,35,matters
screen,html.Screen,2_1_0_1_36,2022-02-03T15:43:42.531Z,,,,,,,,,,,,,,,,,53,,,,,,,,,,,,,,410.1780000059516,,response,,,,99,,,,,,,Space,keypress(Space),,,,,,,,"---- -- ----- -- ------ - ------- --- ----------<br>------------- ------ ------ ---- ---- ------- ----- -- ----<br>-------- ------- -- ---------- --- - --- ----- ----- ----<br>---- --- --- ----- --- ---- ---- ------- most, ---- -------<br>--- --- -- ----- -- --- ---- -- --- ---- -- ------ ------<br>--- ----- -- ----",163094.70000001788,163093.40000000596,162666.55,162668.09999999404,162683.222,163099.962,,36,"most,"
screen,html.Screen,2_1_0_1_37,2022-02-03T15:43:42.974Z,,,,,,,,,,,,,,,,,53,,,,,,,,,,,,,,435.8380000119214,,response,,,,99,,,,,,,Space,keypress(Space),,,,,,,,---- -- ----- -- ------ - ------- --- ----------<br>------------- ------ ------ ---- ---- ------- ----- -- ----<br>-------- ------- -- ---------- --- - --- ----- ----- ----<br>---- --- --- ----- --- ---- ---- ------- ----- it's -------<br>--- --- -- ----- -- --- ---- -- --- ---- -- ------ ------<br>--- ----- -- ----,163537.20000001788,163535.80000001192,163083.29,163094.90000000596,163099.962,163550.378,,37,it's
screen,html.Screen,2_1_0_1_38,2022-02-03T15:43:43.378Z,,,,,,,,,,,,,,,,,53,,,,,,,,,,,,,,389.622000000003,,response,,,,99,,,,,,,Space,keypress(Space),,,,,,,,---- -- ----- -- ------ - ------- --- ----------<br>------------- ------ ------ ---- ---- ------- ----- -- ----<br>-------- ------- -- ---------- --- - --- ----- ----- ----<br>---- --- --- ----- --- ---- ---- ------- ----- ---- whether<br>--- --- -- ----- -- --- ---- -- --- ---- -- ------ ------<br>--- ----- -- ----,163941.5,163940,163533.702,163537.59999999404,163550.378,163950.228,,38,whether
screen,html.Screen,2_1_0_1_39,2022-02-03T15:43:43.804Z,,,,,,,,,,,,,,,,,53,,,,,,,,,,,,,,416.07200001191813,,response,,,,99,,,,,,,Space,keypress(Space),,,,,,,,---- -- ----- -- ------ - ------- --- ----------<br>------------- ------ ------ ---- ---- ------- ----- -- ----<br>-------- ------- -- ---------- --- - --- ----- ----- ----<br>---- --- --- ----- --- ---- ---- ------- ----- ---- -------<br>you --- -- ----- -- --- ---- -- --- ---- -- ------ ------<br>--- ----- -- ----,164367.80000001192,164366.30000001192,163933.552,163941.80000001192,163950.228,164383.717,,39,you
screen,html.Screen,2_1_0_1_40,2022-02-03T15:43:44.200Z,,,,,,,,,,,,,,,,,53,,,,,,,,,,,,,,378.9830000178772,,response,,,,99,,,,,,,Space,keypress(Space),,,,,,,,---- -- ----- -- ------ - ------- --- ----------<br>------------- ------ ------ ---- ---- ------- ----- -- ----<br>-------- ------- -- ---------- --- - --- ----- ----- ----<br>---- --- --- ----- --- ---- ---- ------- ----- ---- -------<br>--- are -- ----- -- --- ---- -- --- ---- -- ------ ------<br>--- ----- -- ----,164764.09999999404,164762.70000001788,164367.04,164368.20000001788,164383.717,164767.016,,40,are
screen,html.Screen,2_1_0_1_41,2022-02-03T15:43:44.563Z,,,,,,,,,,,,,,,,,53,,,,,,,,,,,,,,357.98399999999674,,response,,,,99,,,,,,,Space,keypress(Space),,,,,,,,---- -- ----- -- ------ - ------- --- ----------<br>------------- ------ ------ ---- ---- ------- ----- -- ----<br>-------- ------- -- ---------- --- - --- ----- ----- ----<br>---- --- --- ----- --- ---- ---- ------- ----- ---- -------<br>--- --- as ----- -- --- ---- -- --- ---- -- ------ ------<br>--- ----- -- ----,165126.40000000596,165125,164750.34,164764.30000001192,164767.016,165133.796,,41,as
screen,html.Screen,2_1_0_1_42,2022-02-03T15:43:44.969Z,,,,,,,,,,,,,,,,,53,,,,,,,,,,,,,,397.80399999403744,,response,,,,99,,,,,,,Space,keypress(Space),,,,,,,,---- -- ----- -- ------ - ------- --- ----------<br>------------- ------ ------ ---- ---- ------- ----- -- ----<br>-------- ------- -- ---------- --- - --- ----- ----- ----<br>---- --- --- ----- --- ---- ---- ------- ----- ---- -------<br>--- --- -- close -- --- ---- -- --- ---- -- ------ ------<br>--- ----- -- ----,165533,165531.59999999404,165117.121,165126.80000001192,165133.796,165550.495,,42,close
screen,html.Screen,2_1_0_1_43,2022-02-03T15:43:45.354Z,,,,,,,,,,,,,,,,,53,,,,,,,,,,,,,,365.70500001788605,,response,,,,99,,,,,,,Space,keypress(Space),,,,,,,,---- -- ----- -- ------ - ------- --- ----------<br>------------- ------ ------ ---- ---- ------- ----- -- ----<br>-------- ------- -- ---------- --- - --- ----- ----- ----<br>---- --- --- ----- --- ---- ---- ------- ----- ---- -------<br>--- --- -- ----- as --- ---- -- --- ---- -- ------ ------<br>--- ----- -- ----,165917.5,165916.20000001788,165533.822,165533.30000001192,165550.495,165933.801,,43,as
screen,html.Screen,2_1_0_1_44,2022-02-03T15:43:45.787Z,,,,,,,,,,,,,,,,,53,,,,,,,,,,,,,,415.9990000119142,,response,,,,99,,,,,,,Space,keypress(Space),,,,,,,,---- -- ----- -- ------ - ------- --- ----------<br>------------- ------ ------ ---- ---- ------- ----- -- ----<br>-------- ------- -- ---------- --- - --- ----- ----- ----<br>---- --- --- ----- --- ---- ---- ------- ----- ---- -------<br>--- --- -- ----- -- you ---- -- --- ---- -- ------ ------<br>--- ----- -- ----,166350.40000000596,166349.80000001192,165917.129,165917.90000000596,165933.801,166367.388,,44,you
screen,html.Screen,2_1_0_1_45,2022-02-03T15:43:46.201Z,,,,,,,,,,,,,,,,,53,,,,,,,,,,,,,,395.41200001191464,,response,,,,99,,,,,,,Space,keypress(Space),,,,,,,,---- -- ----- -- ------ - ------- --- ----------<br>------------- ------ ------ ---- ---- ------- ----- -- ----<br>-------- ------- -- ---------- --- - --- ----- ----- ----<br>---- --- --- ----- --- ---- ---- ------- ----- ---- -------<br>--- --- -- ----- -- --- want -- --- ---- -- ------ ------<br>--- ----- -- ----,166764.20000001788,166762.80000001192,166350.712,166350.5,166367.388,166767.273,,45,want
screen,html.Screen,2_1_0_1_46,2022-02-03T15:43:46.616Z,,,,,,,,,,,,,,,,,53,,,,,,,,,,,,,,410.62700000597397,,response,,,,99,,,,,,,Space,keypress(Space),,,,,,,,---- -- ----- -- ------ - ------- --- ----------<br>------------- ------ ------ ---- ---- ------- ----- -- ----<br>-------- ------- -- ---------- --- - --- ----- ----- ----<br>---- --- --- ----- --- ---- ---- ------- ----- ---- -------<br>--- --- -- ----- -- --- ---- to --- ---- -- ------ ------<br>--- ----- -- ----,167179.20000001788,167177.90000000596,166750.601,166764.59999999404,166767.273,167184.098,,46,to
screen,html.Screen,2_1_0_1_47,2022-02-03T15:43:47.096Z,,,,,,,,,,,,,,,,,53,,,,,,,,,,,,,,473.5019999940414,,response,,,,99,,,,,,,Space,keypress(Space),,,,,,,,"---- -- ----- -- ------ - ------- --- ----------<br>------------- ------ ------ ---- ---- ------- ----- -- ----<br>-------- ------- -- ---------- --- - --- ----- ----- ----<br>---- --- --- ----- --- ---- ---- ------- ----- ---- -------<br>--- --- -- ----- -- --- ---- -- be, ---- -- ------ ------<br>--- ----- -- ----",167659.20000001788,167657.59999999404,167167.426,167179.59999999404,167184.098,167667.455,,47,"be,"
screen,html.Screen,2_1_0_1_48,2022-02-03T15:43:47.565Z,,,,,,,,,,,,,,,,,53,,,,,,,,,,,,,,459.7450000178942,,response,,,,99,,,,,,,Space,keypress(Space),,,,,,,,---- -- ----- -- ------ - ------- --- ----------<br>------------- ------ ------ ---- ---- ------- ----- -- ----<br>-------- ------- -- ---------- --- - --- ----- ----- ----<br>---- --- --- ----- --- ---- ---- ------- ----- ---- -------<br>--- --- -- ----- -- --- ---- -- --- even -- ------ ------<br>--- ----- -- ----,168128.5,168127.20000001788,167650.786,167659.40000000596,167667.455,168134.059,,48,even
screen,html.Screen,2_1_0_1_49,2022-02-03T15:43:47.976Z,,,,,,,,,,,,,,,,,53,,,,,,,,,,,,,,404.54099999403115,,response,,,,99,,,,,,,Space,keypress(Space),,,,,,,,---- -- ----- -- ------ - ------- --- ----------<br>------------- ------ ------ ---- ---- ------- ----- -- ----<br>-------- ------- -- ---------- --- - --- ----- ----- ----<br>---- --- --- ----- --- ---- ---- ------- ----- ---- -------<br>--- --- -- ----- -- --- ---- -- --- ---- if ------ ------<br>--- ----- -- ----,168539.09999999404,168538.59999999404,168117.395,168128.90000000596,168134.059,168550.819,,49,if
screen,html.Screen,2_1_0_1_50,2022-02-03T15:43:48.399Z,,,,,,,,,,,,,,,,,53,,,,,,,,,,,,,,410.28099999405094,,response,,,,99,,,,,,,Space,keypress(Space),,,,,,,,---- -- ----- -- ------ - ------- --- ----------<br>------------- ------ ------ ---- ---- ------- ----- -- ----<br>-------- ------- -- ---------- --- - --- ----- ----- ----<br>---- --- --- ----- --- ---- ---- ------- ----- ---- -------<br>--- --- -- ----- -- --- ---- -- --- ---- -- that's ------<br>--- ----- -- ----,168962.5,168961.09999999404,168534.155,168539.30000001192,168550.819,168967.421,,50,that's
screen,html.Screen,2_1_0_1_51,2022-02-03T15:43:48.855Z,,,,,,,,,,,,,,,,,53,,,,,,,,,,,,,,450.2790000178793,,response,,,,99,,,,,,,Space,keypress(Space),,,,,,,,---- -- ----- -- ------ - ------- --- ----------<br>------------- ------ ------ ---- ---- ------- ----- -- ----<br>-------- ------- -- ---------- --- - --- ----- ----- ----<br>---- --- --- ----- --- ---- ---- ------- ----- ---- -------<br>--- --- -- ----- -- --- ---- -- --- ---- -- ------ really<br>--- ----- -- ----,169419.09999999404,169417.70000001788,168950.757,168962.80000001192,168967.421,169434.322,,51,really
screen,html.Screen,2_1_0_1_52,2022-02-03T15:43:49.290Z,,,,,,,,,,,,,,,,,53,,,,,,,,,,,,,,417.97800001193536,,response,,,,99,,,,,,,Space,keypress(Space),,,,,,,,---- -- ----- -- ------ - ------- --- ----------<br>------------- ------ ------ ---- ---- ------- ----- -- ----<br>-------- ------- -- ---------- --- - --- ----- ----- ----<br>---- --- --- ----- --- ---- ---- ------- ----- ---- -------<br>--- --- -- ----- -- --- ---- -- --- ---- -- ------ ------<br>not ----- -- ----,169853.70000001788,169852.30000001192,169417.657,169419.30000001192,169434.322,169867.739,,52,not
screen,html.Screen,2_1_0_1_53,2022-02-03T15:43:49.649Z,,,,,,,,,,,,,,,,,53,,,,,,,,,,,,,,343.16100000595907,,response,,,,99,,,,,,,Space,keypress(Space),,,,,,,,---- -- ----- -- ------ - ------- --- ----------<br>------------- ------ ------ ---- ---- ------- ----- -- ----<br>-------- ------- -- ---------- --- - --- ----- ----- ----<br>---- --- --- ----- --- ---- ---- ------- ----- ---- -------<br>--- --- -- ----- -- --- ---- -- --- ---- -- ------ ------<br>--- close -- ----,170212.30000001192,170210.90000000596,169851.074,169854.09999999404,169867.739,170217.826,,53,close
screen,html.Screen,2_1_0_1_54,2022-02-03T15:43:50.086Z,,,,,,,,,,,,,,,,,53,,,,,,,,,,,,,,431.17399999999907,,response,,,,99,,,,,,,Space,keypress(Space),,,,,,,,---- -- ----- -- ------ - ------- --- ----------<br>------------- ------ ------ ---- ---- ------- ----- -- ----<br>-------- ------- -- ---------- --- - --- ----- ----- ----<br>---- --- --- ----- --- ---- ---- ------- ----- ---- -------<br>--- --- -- ----- -- --- ---- -- --- ---- -- ------ ------<br>--- ----- at ----,170649.70000001788,170649,170201.161,170212.70000001788,170217.826,170651.146,,54,at
screen,html.Screen,2_1_0_1_55,2022-02-03T15:43:51.072Z,,,,,,,,,,,,,,,,,53,,,,,,,,,,,,,,983.0540000178735,,response,,,,99,,,,,,,Space,keypress(Space),,,,,,,,---- -- ----- -- ------ - ------- --- ----------<br>------------- ------ ------ ---- ---- ------- ----- -- ----<br>-------- ------- -- ---------- --- - --- ----- ----- ----<br>---- --- --- ----- --- ---- ---- ------- ----- ---- -------<br>--- --- -- ----- -- --- ---- -- --- ---- -- ------ ------<br>--- ----- -- all.,171635.5,171634.20000001788,170634.484,170649.90000000596,170651.146,171650.985,,55,all.
Item 99,flow.Loop,2_1_0_1,2022-02-03T15:43:51.073Z,,,,,,,,,,,,,,,,,,,,,,,,,,,,,,,24037.293000017875,,completion,,,,,B,,,,,,,,,,,silence,,,,,171636.20000001788,171634.20000001788,147563.571,147565.30000001192,147596.907,171650.985,,,
Question 1,html.Screen,2_1_0_2,2022-02-03T15:43:55.346Z,,,,,,,,,,,,,,,,,,,,,,,,,,,,true,FALSE,,4257.6149999940535,,response,,,,99,B,,,,,,FALSE,click #choice-2,,,,silence,,,,,175909.20000001788,175908.59999999404,171634.323,171636.59999999404,171650.985,175918.717,,,
Question 2,html.Screen,2_1_0_3,2022-02-03T15:44:00.073Z,,,,,,,,,,,,,,,,,,,,,,,,,,,,true,TRUE,,4716.983000017877,,response,,,,99,B,,,,,,TRUE,click #choice-1,,,,silence,,,,,180636.40000000596,180635.70000001788,175902.064,175909.40000000596,175918.717,180652.35,,,
Item 99,flow.Sequence,2_1_0,2022-02-03T15:44:00.073Z,,,,,,,,,,,,,,,,,,,,,,,,,,,,,,,43057.15400001788,,completion,,,,,,,,,,,,,,,,,,,,,180636.59999999404,180635.70000001788,137561.88,137565.59999999404,137578.546,180652.35,,,
Holding screen,html.Screen,2_1_1_0,2022-02-03T15:44:10.076Z,,,,,,,,,,,,,,,,,,,,,,,,,,,,,,,10001.581999999995,,timeout,,,,,,,,,,,,,,,,,,,,,190639.20000001788,190637.271,180635.698,180636.70000001788,180652.35,190653.932,,,
screen,html.Screen,2_1_1_1_0,2022-02-03T15:44:10.732Z,,,,,,,,,,,,,,,,,54,,,,,,,,,,,,,,639.9680000059598,,response,,,,100,,,,,,,Space,keypress(Space),,,,,,,,At --- ---- --- ------ ----- ------- ---- -- --- ------- --<br>------- ---------- ------ -- ----- -- ----- -- ---- ------<br>--- ----- --- --- ------ -------- ----- --- ------ ----- --<br>----- ----- ---------- --- --- ------ ------ ---- -- ------<br>------- --- ------ ----- --- ---- ------- -- ---- --- --<br>------- ------,191295.20000001788,191293.90000000596,190637.271,190639.59999999404,190653.932,191304.764,,0,At
screen,html.Screen,2_1_1_1_1,2022-02-03T15:44:11.130Z,,,,,,,,,,,,,,,,,54,,,,,,,,,,,,,,387.83599999404396,,response,,,,100,,,,,,,Space,keypress(Space),,,,,,,,-- the ---- --- ------ ----- ------- ---- -- --- ------- --<br>------- ---------- ------ -- ----- -- ----- -- ---- ------<br>--- ----- --- --- ------ -------- ----- --- ------ ----- --<br>----- ----- ---------- --- --- ------ ------ ---- -- ------<br>------- --- ------ ----- --- ---- ------- -- ---- --- --<br>------- ------,191693.90000000596,191692.59999999404,191288.101,191295.59999999404,191304.764,191704.753,,1,the
screen,html.Screen,2_1_1_1_2,2022-02-03T15:44:11.489Z,,,,,,,,,,,,,,,,,54,,,,,,,,,,,,,,346.84699999404256,,response,,,,100,,,,,,,Space,keypress(Space),,,,,,,,-- --- time --- ------ ----- ------- ---- -- --- ------- --<br>------- ---------- ------ -- ----- -- ----- -- ---- ------<br>--- ----- --- --- ------ -------- ----- --- ------ ----- --<br>----- ----- ---------- --- --- ------ ------ ---- -- ------<br>------- --- ------ ----- --- ---- ------- -- ---- --- --<br>------- ------,192052.80000001192,192051.59999999404,191688.089,191694.30000001192,191704.753,192055.152,,2,time
screen,html.Screen,2_1_1_1_3,2022-02-03T15:44:11.843Z,,,,,,,,,,,,,,,,,54,,,,,,,,,,,,,,349.7480000059586,,response,,,,100,,,,,,,Space,keypress(Space),,,,,,,,-- --- ---- the ------ ----- ------- ---- -- --- ------- --<br>------- ---------- ------ -- ----- -- ----- -- ---- ------<br>--- ----- --- --- ------ -------- ----- --- ------ ----- --<br>----- ----- ---------- --- --- ------ ------ ---- -- ------<br>------- --- ------ ----- --- ---- ------- -- ---- --- --<br>------- ------,192406.20000001788,192404.90000000596,192038.484,192053.20000001788,192055.152,192421.785,,3,the
screen,html.Screen,2_1_1_1_4,2022-02-03T15:44:12.213Z,,,,,,,,,,,,,,,,,54,,,,,,,,,,,,,,353.7149999999965,,response,,,,100,,,,,,,Space,keypress(Space),,,,,,,,-- --- ---- --- French ----- ------- ---- -- --- ------- --<br>------- ---------- ------ -- ----- -- ----- -- ---- ------<br>--- ----- --- --- ------ -------- ----- --- ------ ----- --<br>----- ----- ---------- --- --- ------ ------ ---- -- ------<br>------- --- ------ ----- --- ---- ------- -- ---- --- --<br>------- ------,192776.90000000596,192775.5,192405.121,192406.40000000596,192421.785,192788.65,,4,French
screen,html.Screen,2_1_1_1_5,2022-02-03T15:44:12.583Z,,,,,,,,,,,,,,,,,54,,,,,,,,,,,,,,356.8500000000058,,response,,,,100,,,,,,,Space,keypress(Space),,,,,,,,-- --- ---- --- ------ crown ------- ---- -- --- ------- --<br>------- ---------- ------ -- ----- -- ----- -- ---- ------<br>--- ----- --- --- ------ -------- ----- --- ------ ----- --<br>----- ----- ---------- --- --- ------ ------ ---- -- ------<br>------- --- ------ ----- --- ---- ------- -- ---- --- --<br>------- ------,193146.80000001192,193145.5,192771.982,192777.09999999404,192788.65,193155.114,,5,crown
screen,html.Screen,2_1_1_1_6,2022-02-03T15:44:12.959Z,,,,,,,,,,,,,,,,,54,,,,,,,,,,,,,,366.28600000595907,,response,,,,100,,,,,,,Space,keypress(Space),,,,,,,,-- --- ---- --- ------ ----- secured ---- -- --- ------- --<br>------- ---------- ------ -- ----- -- ----- -- ---- ------<br>--- ----- --- --- ------ -------- ----- --- ------ ----- --<br>----- ----- ---------- --- --- ------ ------ ---- -- ------<br>------- --- ------ ----- --- ---- ------- -- ---- --- --<br>------- ------,193522.90000000596,193521.40000000596,193138.45,193147,193155.114,193538.639,,6,secured
screen,html.Screen,2_1_1_1_7,2022-02-03T15:44:13.335Z,,,,,,,,,,,,,,,,,54,,,,,,,,,,,,,,358.46099999404396,,response,,,,100,,,,,,,Space,keypress(Space),,,,,,,,-- --- ---- --- ------ ----- ------- much -- --- ------- --<br>------- ---------- ------ -- ----- -- ----- -- ---- ------<br>--- ----- --- --- ------ -------- ----- --- ------ ----- --<br>----- ----- ---------- --- --- ------ ------ ---- -- ------<br>------- --- ------ ----- --- ---- ------- -- ---- --- --<br>------- ------,193898.5,193897.09999999404,193521.975,193523.20000001788,193538.639,193905.463,,7,much
screen,html.Screen,2_1_1_1_8,2022-02-03T15:44:13.723Z,,,,,,,,,,,,,,,,,54,,,,,,,,,,,,,,379.3370000119321,,response,,,,100,,,,,,,Space,keypress(Space),,,,,,,,-- --- ---- --- ------ ----- ------- ---- of --- ------- --<br>------- ---------- ------ -- ----- -- ----- -- ---- ------<br>--- ----- --- --- ------ -------- ----- --- ------ ----- --<br>----- ----- ---------- --- --- ------ ------ ---- -- ------<br>------- --- ------ ----- --- ---- ------- -- ---- --- --<br>------- ------,194286.30000001192,194284.80000001192,193888.796,193898.80000001192,193905.463,194288.96,,8,of
screen,html.Screen,2_1_1_1_9,2022-02-03T15:44:14.007Z,,,,,,,,,,,,,,,,,54,,,,,,,,,,,,,,280.4400000059686,,response,,,,100,,,,,,,Space,keypress(Space),,,,,,,,-- --- ---- --- ------ ----- ------- ---- -- its ------- --<br>------- ---------- ------ -- ----- -- ----- -- ---- ------<br>--- ----- --- --- ------ -------- ----- --- ------ ----- --<br>----- ----- ---------- --- --- ------ ------ ---- -- ------<br>------- --- ------ ----- --- ---- ------- -- ---- --- --<br>------- ------,194570.80000001192,194569.40000000596,194272.291,194286.5,194288.96,194588.918,,9,its
screen,html.Screen,2_1_1_1_10,2022-02-03T15:44:14.385Z,,,,,,,,,,,,,,,,,54,,,,,,,,,,,,,,358.0819999999949,,response,,,,100,,,,,,,Space,keypress(Space),,,,,,,,-- --- ---- --- ------ ----- ------- ---- -- --- revenue --<br>------- ---------- ------ -- ----- -- ----- -- ---- ------<br>--- ----- --- --- ------ -------- ----- --- ------ ----- --<br>----- ----- ---------- --- --- ------ ------ ---- -- ------<br>------- --- ------ ----- --- ---- ------- -- ---- --- --<br>------- ------,194948.40000000596,194947,194572.254,194571.20000001788,194588.918,194955.583,,10,revenue
screen,html.Screen,2_1_1_1_11,2022-02-03T15:44:14.761Z,,,,,,,,,,,,,,,,,54,,,,,,,,,,,,,,367.71700001190766,,response,,,,100,,,,,,,Space,keypress(Space),,,,,,,,-- --- ---- --- ------ ----- ------- ---- -- --- ------- by<br>------- ---------- ------ -- ----- -- ----- -- ---- ------<br>--- ----- --- --- ------ -------- ----- --- ------ ----- --<br>----- ----- ---------- --- --- ------ ------ ---- -- ------<br>------- --- ------ ----- --- ---- ------- -- ---- --- --<br>------- ------,195324.70000001788,195323.30000001192,194938.919,194948.70000001788,194955.583,195339.094,,11,by
screen,html.Screen,2_1_1_1_12,2022-02-03T15:44:15.132Z,,,,,,,,,,,,,,,,,54,,,,,,,,,,,,,,355.1060000178695,,response,,,,100,,,,,,,Space,keypress(Space),,,,,,,,-- --- ---- --- ------ ----- ------- ---- -- --- ------- --<br>issuing ---------- ------ -- ----- -- ----- -- ---- ------<br>--- ----- --- --- ------ -------- ----- --- ------ ----- --<br>----- ----- ---------- --- --- ------ ------ ---- -- ------<br>------- --- ------ ----- --- ---- ------- -- ---- --- --<br>------- ------,195695.5,195694.20000001788,195322.427,195325,195339.094,195705.801,,12,issuing
screen,html.Screen,2_1_1_1_13,2022-02-03T15:44:15.424Z,,,,,,,,,,,,,,,,,54,,,,,,,,,,,,,,279.89900001787464,,response,,,,100,,,,,,,Space,keypress(Space),,,,,,,,-- --- ---- --- ------ ----- ------- ---- -- --- ------- --<br>------- government ------ -- ----- -- ----- -- ---- ------<br>--- ----- --- --- ------ -------- ----- --- ------ ----- --<br>----- ----- ---------- --- --- ------ ------ ---- -- ------<br>------- --- ------ ----- --- ---- ------- -- ---- --- --<br>------- ------,195987.09999999404,195985.70000001788,195689.135,195695.80000001192,195705.801,195989.129,,13,government
screen,html.Screen,2_1_1_1_14,2022-02-03T15:44:15.886Z,,,,,,,,,,,,,,,,,54,,,,,,,,,,,,,,458.57100001789513,,response,,,,100,,,,,,,Space,keypress(Space),,,,,,,,-- --- ---- --- ------ ----- ------- ---- -- --- ------- --<br>------- ---------- bonds. -- ----- -- ----- -- ---- ------<br>--- ----- --- --- ------ -------- ----- --- ------ ----- --<br>----- ----- ---------- --- --- ------ ------ ---- -- ------<br>------- --- ------ ----- --- ---- ------- -- ---- --- --<br>------- ------,196449.30000001192,196447.70000001788,195972.463,195987.5,195989.129,196455.803,,14,bonds.
screen,html.Screen,2_1_1_1_15,2022-02-03T15:44:16.343Z,,,,,,,,,,,,,,,,,54,,,,,,,,,,,,,,449.2969999940251,,response,,,,100,,,,,,,Space,keypress(Space),,,,,,,,-- --- ---- --- ------ ----- ------- ---- -- --- ------- --<br>------- ---------- ------ In ----- -- ----- -- ---- ------<br>--- ----- --- --- ------ -------- ----- --- ------ ----- --<br>----- ----- ---------- --- --- ------ ------ ---- -- ------<br>------- --- ------ ----- --- ---- ------- -- ---- --- --<br>------- ------,196906.5,196905.09999999404,196439.141,196449.5,196455.803,196922.618,,15,In
screen,html.Screen,2_1_1_1_16,2022-02-03T15:44:17.053Z,,,,,,,,,,,,,,,,,54,,,,,,,,,,,,,,691.9819999940519,,response,,,,100,,,,,,,Space,keypress(Space),,,,,,,,"-- --- ---- --- ------ ----- ------- ---- -- --- ------- --<br>------- ---------- ------ -- 1727, -- ----- -- ---- ------<br>--- ----- --- --- ------ -------- ----- --- ------ ----- --<br>----- ----- ---------- --- --- ------ ------ ---- -- ------<br>------- --- ------ ----- --- ---- ------- -- ---- --- --<br>------- ------",197616.09999999404,197614.59999999404,196905.954,196906.80000001192,196922.618,197622.658,,16,"1727,"
screen,html.Screen,2_1_1_1_17,2022-02-03T15:44:18.371Z,,,,,,,,,,,,,,,,,54,,,,,,,,,,,,,,1309.8420000000042,,response,,,,100,,,,,,,Space,keypress(Space),,,,,,,,-- --- ---- --- ------ ----- ------- ---- -- --- ------- --<br>------- ---------- ------ -- ----- in ----- -- ---- ------<br>--- ----- --- --- ------ -------- ----- --- ------ ----- --<br>----- ----- ---------- --- --- ------ ------ ---- -- ------<br>------- --- ------ ----- --- ---- ------- -- ---- --- --<br>------- ------,198933.80000001192,198932.5,197605.994,197616.59999999404,197622.658,198939.291,,17,in
screen,html.Screen,2_1_1_1_18,2022-02-03T15:44:18.805Z,,,,,,,,,,,,,,,,,54,,,,,,,,,,,,,,427.5090000119235,,response,,,,100,,,,,,,Space,keypress(Space),,,,,,,,-- --- ---- --- ------ ----- ------- ---- -- --- ------- --<br>------- ---------- ------ -- ----- -- order -- ---- ------<br>--- ----- --- --- ------ -------- ----- --- ------ ----- --<br>----- ----- ---------- --- --- ------ ------ ---- -- ------<br>------- --- ------ ----- --- ---- ------- -- ---- --- --<br>------- ------,199368.20000001788,199366.80000001192,198922.627,198935.90000000596,198939.291,199372.562,,18,order
screen,html.Screen,2_1_1_1_19,2022-02-03T15:44:19.233Z,,,,,,,,,,,,,,,,,54,,,,,,,,,,,,,,421.93799999999464,,response,,,,100,,,,,,,Space,keypress(Space),,,,,,,,-- --- ---- --- ------ ----- ------- ---- -- --- ------- --<br>------- ---------- ------ -- ----- -- ----- to ---- ------<br>--- ----- --- --- ------ -------- ----- --- ------ ----- --<br>----- ----- ---------- --- --- ------ ------ ---- -- ------<br>------- --- ------ ----- --- ---- ------- -- ---- --- --<br>------- ------,199796.20000001788,199794.5,199355.898,199368.5,199372.562,199806.587,,19,to
screen,html.Screen,2_1_1_1_20,2022-02-03T15:44:19.763Z,,,,,,,,,,,,,,,,,54,,,,,,,,,,,,,,517.8130000059609,,response,,,,100,,,,,,,Space,keypress(Space),,,,,,,,-- --- ---- --- ------ ----- ------- ---- -- --- ------- --<br>------- ---------- ------ -- ----- -- ----- -- save ------<br>--- ----- --- --- ------ -------- ----- --- ------ ----- --<br>----- ----- ---------- --- --- ------ ------ ---- -- ------<br>------- --- ------ ----- --- ---- ------- -- ---- --- --<br>------- ------,200325.80000001192,200324.40000000596,199789.919,199796.59999999404,199806.587,200339.894,,20,save
screen,html.Screen,2_1_1_1_21,2022-02-03T15:44:20.270Z,,,,,,,,,,,,,,,,,54,,,,,,,,,,,,,,491.50600000596023,,response,,,,100,,,,,,,Space,keypress(Space),,,,,,,,"-- --- ---- --- ------ ----- ------- ---- -- --- ------- --<br>------- ---------- ------ -- ----- -- ----- -- ---- money,<br>--- ----- --- --- ------ -------- ----- --- ------ ----- --<br>----- ----- ---------- --- --- ------ ------ ---- -- ------<br>------- --- ------ ----- --- ---- ------- -- ---- --- --<br>------- ------",200832.80000001192,200831.40000000596,200323.227,200326.20000001788,200339.894,200840.054,,21,"money,"
screen,html.Screen,2_1_1_1_22,2022-02-03T15:44:20.711Z,,,,,,,,,,,,,,,,,54,,,,,,,,,,,,,,432.7460000119172,,response,,,,100,,,,,,,Space,keypress(Space),,,,,,,,-- --- ---- --- ------ ----- ------- ---- -- --- ------- --<br>------- ---------- ------ -- ----- -- ----- -- ---- ------<br>the ----- --- --- ------ -------- ----- --- ------ ----- --<br>----- ----- ---------- --- --- ------ ------ ---- -- ------<br>------- --- ------ ----- --- ---- ------- -- ---- --- --<br>------- ------,201274.20000001788,201272.80000001192,200823.387,200833.09999999404,200840.054,201290.189,,22,the
screen,html.Screen,2_1_1_1_23,2022-02-03T15:44:21.211Z,,,,,,,,,,,,,,,,,54,,,,,,,,,,,,,,482.7110000059474,,response,,,,100,,,,,,,Space,keypress(Space),,,,,,,,-- --- ---- --- ------ ----- ------- ---- -- --- ------- --<br>------- ---------- ------ -- ----- -- ----- -- ---- ------<br>--- state --- --- ------ -------- ----- --- ------ ----- --<br>----- ----- ---------- --- --- ------ ------ ---- -- ------<br>------- --- ------ ----- --- ---- ------- -- ---- --- --<br>------- ------,201774.30000001192,201772.90000000596,201273.521,201274.59999999404,201290.189,201790.15,,23,state
screen,html.Screen,2_1_1_1_24,2022-02-03T15:44:21.667Z,,,,,,,,,,,,,,,,,54,,,,,,,,,,,,,,438.2500000059663,,response,,,,100,,,,,,,Space,keypress(Space),,,,,,,,-- --- ---- --- ------ ----- ------- ---- -- --- ------- --<br>------- ---------- ------ -- ----- -- ----- -- ---- ------<br>--- ----- cut --- ------ -------- ----- --- ------ ----- --<br>----- ----- ---------- --- --- ------ ------ ---- -- ------<br>------- --- ------ ----- --- ---- ------- -- ---- --- --<br>------- ------,202229.80000001192,202228.40000000596,201773.486,201774.59999999404,201790.15,202240.242,,24,cut
screen,html.Screen,2_1_1_1_25,2022-02-03T15:44:22.096Z,,,,,,,,,,,,,,,,,54,,,,,,,,,,,,,,418.05800001192256,,response,,,,100,,,,,,,Space,keypress(Space),,,,,,,,-- --- ---- --- ------ ----- ------- ---- -- --- ------- --<br>------- ---------- ------ -- ----- -- ----- -- ---- ------<br>--- ----- --- the ------ -------- ----- --- ------ ----- --<br>----- ----- ---------- --- --- ------ ------ ---- -- ------<br>------- --- ------ ----- --- ---- ------- -- ---- --- --<br>------- ------,202659.70000001788,202658.30000001192,202223.577,202230.09999999404,202240.242,202673.675,,25,the
screen,html.Screen,2_1_1_1_26,2022-02-03T15:44:22.569Z,,,,,,,,,,,,,,,,,54,,,,,,,,,,,,,,457.52500001789303,,response,,,,100,,,,,,,Space,keypress(Space),,,,,,,,-- --- ---- --- ------ ----- ------- ---- -- --- ------- --<br>------- ---------- ------ -- ----- -- ----- -- ---- ------<br>--- ----- --- --- bonds' -------- ----- --- ------ ----- --<br>----- ----- ---------- --- --- ------ ------ ---- -- ------<br>------- --- ------ ----- --- ---- ------- -- ---- --- --<br>------- ------,203131.80000001192,203131.20000001788,202657.008,202660.09999999404,202673.675,203140.491,,26,bonds'
screen,html.Screen,2_1_1_1_27,2022-02-03T15:44:23.033Z,,,,,,,,,,,,,,,,,54,,,,,,,,,,,,,,454.30900001191185,,response,,,,100,,,,,,,Space,keypress(Space),,,,,,,,-- --- ---- --- ------ ----- ------- ---- -- --- ------- --<br>------- ---------- ------ -- ----- -- ----- -- ---- ------<br>--- ----- --- --- ------ interest ----- --- ------ ----- --<br>----- ----- ---------- --- --- ------ ------ ---- -- ------<br>------- --- ------ ----- --- ---- ------- -- ---- --- --<br>------- ------,203596.30000001192,203594.80000001192,203123.823,203132,203140.491,203607.223,,27,interest
screen,html.Screen,2_1_1_1_28,2022-02-03T15:44:23.504Z,,,,,,,,,,,,,,,,,54,,,,,,,,,,,,,,458.3769999940414,,response,,,,100,,,,,,,Space,keypress(Space),,,,,,,,-- --- ---- --- ------ ----- ------- ---- -- --- ------- --<br>------- ---------- ------ -- ----- -- ----- -- ---- ------<br>--- ----- --- --- ------ -------- rate. --- ------ ----- --<br>----- ----- ---------- --- --- ------ ------ ---- -- ------<br>------- --- ------ ----- --- ---- ------- -- ---- --- --<br>------- ------,204067.09999999404,204065.59999999404,203590.554,203596.5,203607.223,204073.956,,28,rate.
screen,html.Screen,2_1_1_1_29,2022-02-03T15:44:23.974Z,,,,,,,,,,,,,,,,,54,,,,,,,,,,,,,,462.14399999403395,,response,,,,100,,,,,,,Space,keypress(Space),,,,,,,,-- --- ---- --- ------ ----- ------- ---- -- --- ------- --<br>------- ---------- ------ -- ----- -- ----- -- ---- ------<br>--- ----- --- --- ------ -------- ----- The ------ ----- --<br>----- ----- ---------- --- --- ------ ------ ---- -- ------<br>------- --- ------ ----- --- ---- ------- -- ---- --- --<br>------- ------,204537.40000000596,204536.09999999404,204057.287,204067.40000000596,204073.956,204540.774,,29,The
screen,html.Screen,2_1_1_1_30,2022-02-03T15:44:24.460Z,,,,,,,,,,,,,,,,,54,,,,,,,,,,,,,,481.32599999403465,,response,,,,100,,,,,,,Space,keypress(Space),,,,,,,,-- --- ---- --- ------ ----- ------- ---- -- --- ------- --<br>------- ---------- ------ -- ----- -- ----- -- ---- ------<br>--- ----- --- --- ------ -------- ----- --- market ----- --<br>----- ----- ---------- --- --- ------ ------ ---- -- ------<br>------- --- ------ ----- --- ---- ------- -- ---- --- --<br>------- ------,205023.59999999404,205022.09999999404,204524.106,204537.70000001788,204540.774,205040.838,,30,market
screen,html.Screen,2_1_1_1_31,2022-02-03T15:44:25.473Z,,,,,,,,,,,,,,,,,54,,,,,,,,,,,,,,993.6620000000112,,response,,,,100,,,,,,,Space,keypress(Space),,,,,,,,-- --- ---- --- ------ ----- ------- ---- -- --- ------- --<br>------- ---------- ------ -- ----- -- ----- -- ---- ------<br>--- ----- --- --- ------ -------- ----- --- ------ value --<br>----- ----- ---------- --- --- ------ ------ ---- -- ------<br>------- --- ------ ----- --- ---- ------- -- ---- --- --<br>------- ------,206036,206034.5,205024.171,205023.90000000596,205040.838,206040.572,,31,value
screen,html.Screen,2_1_1_1_32,2022-02-03T15:44:25.924Z,,,,,,,,,,,,,,,,,54,,,,,,,,,,,,,,445.52799999405397,,response,,,,100,,,,,,,Space,keypress(Space),,,,,,,,-- --- ---- --- ------ ----- ------- ---- -- --- ------- --<br>------- ---------- ------ -- ----- -- ----- -- ---- ------<br>--- ----- --- --- ------ -------- ----- --- ------ ----- of<br>----- ----- ---------- --- --- ------ ------ ---- -- ------<br>------- --- ------ ----- --- ---- ------- -- ---- --- --<br>------- ------,206487.5,206486.09999999404,206023.91,206036.20000001788,206040.572,206491.082,,32,of
screen,html.Screen,2_1_1_1_33,2022-02-03T15:44:26.346Z,,,,,,,,,,,,,,,,,54,,,,,,,,,,,,,,417.01799999404466,,response,,,,100,,,,,,,Space,keypress(Space),,,,,,,,-- --- ---- --- ------ ----- ------- ---- -- --- ------- --<br>------- ---------- ------ -- ----- -- ----- -- ---- ------<br>--- ----- --- --- ------ -------- ----- --- ------ ----- --<br>these ----- ---------- --- --- ------ ------ ---- -- ------<br>------- --- ------ ----- --- ---- ------- -- ---- --- --<br>------- ------,206909.5,206908.09999999404,206474.416,206487.90000000596,206491.082,206924.495,,33,these
screen,html.Screen,2_1_1_1_34,2022-02-03T15:44:26.731Z,,,,,,,,,,,,,,,,,54,,,,,,,,,,,,,,369.20500001788605,,response,,,,100,,,,,,,Space,keypress(Space),,,,,,,,-- --- ---- --- ------ ----- ------- ---- -- --- ------- --<br>------- ---------- ------ -- ----- -- ----- -- ---- ------<br>--- ----- --- --- ------ -------- ----- --- ------ ----- --<br>----- bonds ---------- --- --- ------ ------ ---- -- ------<br>------- --- ------ ----- --- ---- ------- -- ---- --- --<br>------- ------,207294.59999999404,207293.70000001788,206907.829,206909.80000001192,206924.495,207307.81,,34,bonds
screen,html.Screen,2_1_1_1_35,2022-02-03T15:44:27.407Z,,,,,,,,,,,,,,,,,54,,,,,,,,,,,,,,661.3900000178837,,response,,,,100,,,,,,,Space,keypress(Space),,,,,,,,"-- --- ---- --- ------ ----- ------- ---- -- --- ------- --<br>------- ---------- ------ -- ----- -- ----- -- ---- ------<br>--- ----- --- --- ------ -------- ----- --- ------ ----- --<br>----- ----- plummeted, --- --- ------ ------ ---- -- ------<br>------- --- ------ ----- --- ---- ------- -- ---- --- --<br>------- ------",207970.59999999404,207969.20000001788,207291.148,207294.80000001192,207307.81,207974.48,,35,"plummeted,"
screen,html.Screen,2_1_1_1_36,2022-02-03T15:44:27.840Z,,,,,,,,,,,,,,,,,54,,,,,,,,,,,,,,427.0199999999895,,response,,,,100,,,,,,,Space,keypress(Space),,,,,,,,-- --- ---- --- ------ ----- ------- ---- -- --- ------- --<br>------- ---------- ------ -- ----- -- ----- -- ---- ------<br>--- ----- --- --- ------ -------- ----- --- ------ ----- --<br>----- ----- ---------- and --- ------ ------ ---- -- ------<br>------- --- ------ ----- --- ---- ------- -- ---- --- --<br>------- ------,208403,208401.5,207957.818,207970.90000000596,207974.48,208407.871,,36,and
screen,html.Screen,2_1_1_1_37,2022-02-03T15:44:28.311Z,,,,,,,,,,,,,,,,,54,,,,,,,,,,,,,,465.32900001786766,,response,,,,100,,,,,,,Space,keypress(Space),,,,,,,,-- --- ---- --- ------ ----- ------- ---- -- --- ------- --<br>------- ---------- ------ -- ----- -- ----- -- ---- ------<br>--- ----- --- --- ------ -------- ----- --- ------ ----- --<br>----- ----- ---------- --- the ------ ------ ---- -- ------<br>------- --- ------ ----- --- ---- ------- -- ---- --- --<br>------- ------,208874.5,208873.20000001788,208391.214,208403.30000001192,208407.871,208891.256,,37,the
screen,html.Screen,2_1_1_1_38,2022-02-03T15:44:28.749Z,,,,,,,,,,,,,,,,,54,,,,,,,,,,,,,,419.8439999940456,,response,,,,100,,,,,,,Space,keypress(Space),,,,,,,,-- --- ---- --- ------ ----- ------- ---- -- --- ------- --<br>------- ---------- ------ -- ----- -- ----- -- ---- ------<br>--- ----- --- --- ------ -------- ----- --- ------ ----- --<br>----- ----- ---------- --- --- market ------ ---- -- ------<br>------- --- ------ ----- --- ---- ------- -- ---- --- --<br>------- ------,209312.5,209311.09999999404,208874.599,208874.90000000596,208891.256,209324.127,,38,market
screen,html.Screen,2_1_1_1_39,2022-02-03T15:44:29.170Z,,,,,,,,,,,,,,,,,54,,,,,,,,,,,,,,407.7730000059528,,response,,,,100,,,,,,,Space,keypress(Space),,,,,,,,-- --- ---- --- ------ ----- ------- ---- -- --- ------- --<br>------- ---------- ------ -- ----- -- ----- -- ---- ------<br>--- ----- --- --- ------ -------- ----- --- ------ ----- --<br>----- ----- ---------- --- --- ------ became ---- -- ------<br>------- --- ------ ----- --- ---- ------- -- ---- --- --<br>------- ------,209733.40000000596,209731.90000000596,209307.473,209312.90000000596,209324.127,209741.437,,39,became
screen,html.Screen,2_1_1_1_40,2022-02-03T15:44:29.631Z,,,,,,,,,,,,,,,,,54,,,,,,,,,,,,,,451.1629999940342,,response,,,,100,,,,,,,Space,keypress(Space),,,,,,,,-- --- ---- --- ------ ----- ------- ---- -- --- ------- --<br>------- ---------- ------ -- ----- -- ----- -- ---- ------<br>--- ----- --- --- ------ -------- ----- --- ------ ----- --<br>----- ----- ---------- --- --- ------ ------ wary -- ------<br>------- --- ------ ----- --- ---- ------- -- ---- --- --<br>------- ------,210194.09999999404,210192.59999999404,209724.778,209733.70000001788,209741.437,210208.256,,40,wary
screen,html.Screen,2_1_1_1_41,2022-02-03T15:44:30.281Z,,,,,,,,,,,,,,,,,54,,,,,,,,,,,,,,634.9440000178874,,response,,,,100,,,,,,,Space,keypress(Space),,,,,,,,-- --- ---- --- ------ ----- ------- ---- -- --- ------- --<br>------- ---------- ------ -- ----- -- ----- -- ---- ------<br>--- ----- --- --- ------ -------- ----- --- ------ ----- --<br>----- ----- ---------- --- --- ------ ------ ---- of ------<br>------- --- ------ ----- --- ---- ------- -- ---- --- --<br>------- ------,210844.59999999404,210843.20000001788,210191.596,210194.40000000596,210208.256,210858.101,,41,of
screen,html.Screen,2_1_1_1_42,2022-02-03T15:44:30.717Z,,,,,,,,,,,,,,,,,54,,,,,,,,,,,,,,420.8990000000049,,response,,,,100,,,,,,,Space,keypress(Space),,,,,,,,-- --- ---- --- ------ ----- ------- ---- -- --- ------- --<br>------- ---------- ------ -- ----- -- ----- -- ---- ------<br>--- ----- --- --- ------ -------- ----- --- ------ ----- --<br>----- ----- ---------- --- --- ------ ------ ---- -- French<br>------- --- ------ ----- --- ---- ------- -- ---- --- --<br>------- ------,211280.59999999404,211279,210841.445,210845,210858.101,211291.69,,42,French
screen,html.Screen,2_1_1_1_43,2022-02-03T15:44:31.180Z,,,,,,,,,,,,,,,,,54,,,,,,,,,,,,,,449.71000000595814,,response,,,,100,,,,,,,Space,keypress(Space),,,,,,,,-- --- ---- --- ------ ----- ------- ---- -- --- ------- --<br>------- ---------- ------ -- ----- -- ----- -- ---- ------<br>--- ----- --- --- ------ -------- ----- --- ------ ----- --<br>----- ----- ---------- --- --- ------ ------ ---- -- ------<br>credit. --- ------ ----- --- ---- ------- -- ---- --- --<br>------- ------,211742.80000001192,211741.40000000596,211275.034,211281,211291.69,211757.854,,43,credit.
screen,html.Screen,2_1_1_1_44,2022-02-03T15:44:31.640Z,,,,,,,,,,,,,,,,,54,,,,,,,,,,,,,,443.5460000059684,,response,,,,100,,,,,,,Space,keypress(Space),,,,,,,,-- --- ---- --- ------ ----- ------- ---- -- --- ------- --<br>------- ---------- ------ -- ----- -- ----- -- ---- ------<br>--- ----- --- --- ------ -------- ----- --- ------ ----- --<br>----- ----- ---------- --- --- ------ ------ ---- -- ------<br>------- The ------ ----- --- ---- ------- -- ---- --- --<br>------- ------,212202.80000001192,212201.40000000596,211741.201,211743.20000001788,211757.854,212208.262,,44,The
screen,html.Screen,2_1_1_1_45,2022-02-03T15:44:32.151Z,,,,,,,,,,,,,,,,,54,,,,,,,,,,,,,,504.53800001193304,,response,,,,100,,,,,,,Space,keypress(Space),,,,,,,,-- --- ---- --- ------ ----- ------- ---- -- --- ------- --<br>------- ---------- ------ -- ----- -- ----- -- ---- ------<br>--- ----- --- --- ------ -------- ----- --- ------ ----- --<br>----- ----- ---------- --- --- ------ ------ ---- -- ------<br>------- --- French ----- --- ---- ------- -- ---- --- --<br>------- ------,212714.20000001788,212712.80000001192,212191.613,212203.20000001788,212208.262,212724.957,,45,French
screen,html.Screen,2_1_1_1_46,2022-02-03T15:44:32.637Z,,,,,,,,,,,,,,,,,54,,,,,,,,,,,,,,473.34300001192605,,response,,,,100,,,,,,,Space,keypress(Space),,,,,,,,-- --- ---- --- ------ ----- ------- ---- -- --- ------- --<br>------- ---------- ------ -- ----- -- ----- -- ---- ------<br>--- ----- --- --- ------ -------- ----- --- ------ ----- --<br>----- ----- ---------- --- --- ------ ------ ---- -- ------<br>------- --- ------ state --- ---- ------- -- ---- --- --<br>------- ------,213199.80000001192,213198.30000001192,212708.308,212714.5,212724.957,213208.542,,46,state
screen,html.Screen,2_1_1_1_47,2022-02-03T15:44:33.068Z,,,,,,,,,,,,,,,,,54,,,,,,,,,,,,,,421.15800001789466,,response,,,,100,,,,,,,Space,keypress(Space),,,,,,,,-- --- ---- --- ------ ----- ------- ---- -- --- ------- --<br>------- ---------- ------ -- ----- -- ----- -- ---- ------<br>--- ----- --- --- ------ -------- ----- --- ------ ----- --<br>----- ----- ---------- --- --- ------ ------ ---- -- ------<br>------- --- ------ ----- was ---- ------- -- ---- --- --<br>------- ------,213631,213629.70000001788,213191.891,213200.20000001788,213208.542,213641.931,,47,was
screen,html.Screen,2_1_1_1_48,2022-02-03T15:44:33.516Z,,,,,,,,,,,,,,,,,54,,,,,,,,,,,,,,435.5689999999886,,response,,,,100,,,,,,,Space,keypress(Space),,,,,,,,-- --- ---- --- ------ ----- ------- ---- -- --- ------- --<br>------- ---------- ------ -- ----- -- ----- -- ---- ------<br>--- ----- --- --- ------ -------- ----- --- ------ ----- --<br>----- ----- ---------- --- --- ------ ------ ---- -- ------<br>------- --- ------ ----- --- left ------- -- ---- --- --<br>------- ------,214078.90000000596,214077.5,213625.283,213631.40000000596,213641.931,214091.241,,48,left
screen,html.Screen,2_1_1_1_49,2022-02-03T15:44:33.927Z,,,,,,,,,,,,,,,,,54,,,,,,,,,,,,,,397.35899999403046,,response,,,,100,,,,,,,Space,keypress(Space),,,,,,,,-- --- ---- --- ------ ----- ------- ---- -- --- ------- --<br>------- ---------- ------ -- ----- -- ----- -- ---- ------<br>--- ----- --- --- ------ -------- ----- --- ------ ----- --<br>----- ----- ---------- --- --- ------ ------ ---- -- ------<br>------- --- ------ ----- --- ---- without -- ---- --- --<br>------- ------,214490,214488.59999999404,214074.596,214079.20000001788,214091.241,214491.975,,49,without
screen,html.Screen,2_1_1_1_50,2022-02-03T15:44:34.361Z,,,,,,,,,,,,,,,,,54,,,,,,,,,,,,,,430.7250000178756,,response,,,,100,,,,,,,Space,keypress(Space),,,,,,,,-- --- ---- --- ------ ----- ------- ---- -- --- ------- --<br>------- ---------- ------ -- ----- -- ----- -- ---- ------<br>--- ----- --- --- ------ -------- ----- --- ------ ----- --<br>----- ----- ---------- --- --- ------ ------ ---- -- ------<br>------- --- ------ ----- --- ---- ------- an ---- --- --<br>------- ------,214924.30000001192,214922.70000001788,214475.33,214490.40000000596,214491.975,214941.463,,50,an
screen,html.Screen,2_1_1_1_51,2022-02-03T15:44:34.815Z,,,,,,,,,,,,,,,,,54,,,,,,,,,,,,,,435.3370000119321,,response,,,,100,,,,,,,Space,keypress(Space),,,,,,,,-- --- ---- --- ------ ----- ------- ---- -- --- ------- --<br>------- ---------- ------ -- ----- -- ----- -- ---- ------<br>--- ----- --- --- ------ -------- ----- --- ------ ----- --<br>----- ----- ---------- --- --- ------ ------ ---- -- ------<br>------- --- ------ ----- --- ---- ------- -- easy --- --<br>------- ------,215378.20000001788,215376.80000001192,214924.817,214924.59999999404,214941.463,215392.259,,51,easy
screen,html.Screen,2_1_1_1_52,2022-02-03T15:44:35.228Z,,,,,,,,,,,,,,,,,54,,,,,,,,,,,,,,397.64100000596954,,response,,,,100,,,,,,,Space,keypress(Space),,,,,,,,-- --- ---- --- ------ ----- ------- ---- -- --- ------- --<br>------- ---------- ------ -- ----- -- ----- -- ---- ------<br>--- ----- --- --- ------ -------- ----- --- ------ ----- --<br>----- ----- ---------- --- --- ------ ------ ---- -- ------<br>------- --- ------ ----- --- ---- ------- -- ---- way --<br>------- ------,215791.40000000596,215789.90000000596,215375.609,215378.59999999404,215392.259,215808.966,,52,way
screen,html.Screen,2_1_1_1_53,2022-02-03T15:44:35.654Z,,,,,,,,,,,,,,,,,54,,,,,,,,,,,,,,407.93400000597467,,response,,,,100,,,,,,,Space,keypress(Space),,,,,,,,-- --- ---- --- ------ ----- ------- ---- -- --- ------- --<br>------- ---------- ------ -- ----- -- ----- -- ---- ------<br>--- ----- --- --- ------ -------- ----- --- ------ ----- --<br>----- ----- ---------- --- --- ------ ------ ---- -- ------<br>------- --- ------ ----- --- ---- ------- -- ---- --- of<br>------- ------,216217.5,216216.90000000596,215792.319,215791.70000001788,215808.966,216224.955,,53,of
screen,html.Screen,2_1_1_1_54,2022-02-03T15:44:36.095Z,,,,,,,,,,,,,,,,,54,,,,,,,,,,,,,,432.0450000000128,,response,,,,100,,,,,,,Space,keypress(Space),,,,,,,,-- --- ---- --- ------ ----- ------- ---- -- --- ------- --<br>------- ---------- ------ -- ----- -- ----- -- ---- ------<br>--- ----- --- --- ------ -------- ----- --- ------ ----- --<br>----- ----- ---------- --- --- ------ ------ ---- -- ------<br>------- --- ------ ----- --- ---- ------- -- ---- --- --<br>raising ------,216658.40000000596,216657,216208.311,216217.59999999404,216224.955,216675.637,,54,raising
screen,html.Screen,2_1_1_1_55,2022-02-03T15:44:36.945Z,,,,,,,,,,,,,,,,,54,,,,,,,,,,,,,,829.663000011933,,response,,,,100,,,,,,,Space,keypress(Space),,,,,,,,-- --- ---- --- ------ ----- ------- ---- -- --- ------- --<br>------- ---------- ------ -- ----- -- ----- -- ---- ------<br>--- ----- --- --- ------ -------- ----- --- ------ ----- --<br>----- ----- ---------- --- --- ------ ------ ---- -- ------<br>------- --- ------ ----- --- ---- ------- -- ---- --- --<br>------- money.,217508.5,217505.30000001192,216658.991,216658.70000001788,216675.637,217525.293,,55,money.
Item 100,flow.Loop,2_1_1_1,2022-02-03T15:44:36.946Z,,,,,,,,,,,,,,,,,,,,,,,,,,,,,,,26851.36800001192,,completion,,,,,B,,,,,,,,,,,silence,,,,,217509.09999999404,217505.30000001192,190637.271,190639.59999999404,190653.932,217525.293,,,
Question 1,html.Screen,2_1_1_2,2022-02-03T15:44:39.564Z,,,,,,,,,,,,,,,,,,,,,,,,,,,,true,TRUE,,2601.4070000178763,,response,,,,100,B,,,,,,TRUE,click #choice-1,,,,silence,,,,,220127.5,220126.70000001788,217508.646,217509.40000000596,217525.293,220143.157,,,
Question 2,html.Screen,2_1_1_3,2022-02-03T15:44:42.105Z,,,,,,,,,,,,,,,,,,,,,,,,,,,,true,FALSE,,2524.3429999999935,,response,,,,100,B,,,,,,FALSE,click #choice-2,,,,silence,,,,,222668.09999999404,222667.5,220126.5,220127.5,220143.157,222677.359,,,
Item 100,flow.Sequence,2_1_1,2022-02-03T15:44:42.105Z,,,,,,,,,,,,,,,,,,,,,,,,,,,,,,,42015.149999999994,,completion,,,,,,,,,,,,,,,,,,,,,222668.40000000596,222667.5,180635.698,180636.59999999404,180652.35,222677.359,,,
End of Practice,html.Page,2_1_2,2022-02-03T15:44:45.158Z,,,,,,,,,,,,,,,,,,,,,,,,,,,,,,,3043.240999994043,,form submission,,,,,,,,,,,,,,,,,,,,,225720.80000001192,225720.59999999404,222660.69,222668.40000000596,222677.359,225728.279,,,
Practice,flow.Sequence,2_1,2022-02-03T15:44:45.158Z,,,,,,,,,,,,,,,,,,,,,,,,,,,,,,,88142.05399999404,,completion,,,,,,,,,,,,,,,,,,,,,225721,225720.59999999404,137561.88,137565.5,137578.546,225728.279,,,
Trap_instruction,html.Page,2_2_0,2022-02-03T15:44:49.507Z,,,,,,,,,,,,,,,,,,,,,,,,,,,,,,,4341.72099999999,,form submission,,,,,,,,,,,,,,,,,,,,,230070.59999999404,230070,225711.606,225721.20000001788,225728.279,230094.935,,,
trap_trial,html.Screen,2_2_1,2022-02-03T15:44:54.116Z,,,,,,,,,,,,,,,,,,,,,,,,,,,,true,1,,4583.565000000002,,response,,,,,,,,,,,1,click #choice-1,,,,,,,,,234679.5,234678.5,230061.599,230070.70000001788,230094.935,234695.033,,,
end of trap trial,html.Page,2_2_2,2022-02-03T15:44:56.278Z,,,,,,,,,,,,,,,,,,,,,,,,,,,,,,,2146.467000000004,,form submission,,,,,,,,,,,,,,,,,,,,,236841.70000001788,236841.5,234678.369,234679.59999999404,234695.033,236846.631,,,
Trap 1,flow.Sequence,2_2,2022-02-03T15:44:56.279Z,,,,,,,,,,,,,,,,,,,,,,,,,,,,,,,11113.22099999999,,completion,,,,,,,,,,,,,,,,,,,,,236841.90000000596,236841.5,225711.606,225721.09999999404,225728.279,236846.631,,,
Standby,html.Page,2_3_0,2022-02-03T15:45:04.268Z,,,,,,,,,,,,,,,,,,,,,,,,,,,,,,,7999.186000000016,,timeout,,,,,,,,,,,,,,,,,,,,,244831.09999999404,244829.152,236829.962,236842.09999999404,236846.631,244845.817,,,
Holding screen,html.Screen,2_3_1_0_0,2022-02-03T15:45:11.269Z,,,,,,,,,,,,,,,,,,,,,,,,,,,,,,,7001.910999999993,,timeout,,,,,,,,,,,,,,,,,,,,,251832.80000001192,251831.072,244829.152,244831.70000001788,244845.817,251847.728,,,
screen,html.Screen,2_3_1_0_1_0,2022-02-03T15:45:12.399Z,,,,,,,,,,,,,,,,,2,,,,,,,,,,,,,,1113.1720000059577,,response,,,,1,B,,,,,,Space,keypress(Space),,,,lyrical,,,,Two ---- ------ --- ------- ---------- ------- ----------<br>--- --------- --- ----------- ------- ----- ------- ---<br>--------- ---- -- --- ---- -- --------- -- ---- -------<br>-- --------- ------ --- ----- ------ ---- --- --------- --<br>------ - ---- -- --- ----------- ------- ---- ----- -----<br>--- -------- - ------ ---- -- ----- ---- --- --- -----------<br>-- -------,252962.70000001788,252960.90000000596,251831.072,251833.30000001192,251847.728,252964.38,,0,Two
screen,html.Screen,2_3_1_0_1_1,2022-02-03T15:45:12.750Z,,,,,,,,,,,,,,,,,2,,,,,,,,,,,,,,347.7199999940349,,response,,,,1,B,,,,,,Space,keypress(Space),,,,lyrical,,,,--- days ------ --- ------- ---------- ------- ----------<br>--- --------- --- ----------- ------- ----- ------- ---<br>--------- ---- -- --- ---- -- --------- -- ---- -------<br>-- --------- ------ --- ----- ------ ---- --- --------- --<br>------ - ---- -- --- ----------- ------- ---- ----- -----<br>--- -------- - ------ ---- -- ----- ---- --- --- -----------<br>-- -------,253313.40000000596,253312.09999999404,252947.725,252963.09999999404,252964.38,253316.066,,1,days
screen,html.Screen,2_3_1_0_1_2,2022-02-03T15:45:13.197Z,,,,,,,,,,,,,,,,,2,,,,,,,,,,,,,,442.0339999940479,,response,,,,1,B,,,,,,Space,keypress(Space),,,,lyrical,,,,"--- ---- later, --- ------- ---------- ------- ----------<br>--- --------- --- ----------- ------- ----- ------- ---<br>--------- ---- -- --- ---- -- --------- -- ---- -------<br>-- --------- ------ --- ----- ------ ---- --- --------- --<br>------ - ---- -- --- ----------- ------- ---- ----- -----<br>--- -------- - ------ ---- -- ----- ---- --- --- -----------<br>-- -------",253759.90000000596,253758.09999999404,253299.41,253313.70000001788,253316.066,253766.102,,2,"later,"
screen,html.Screen,2_3_1_0_1_3,2022-02-03T15:45:13.862Z,,,,,,,,,,,,,,,,,2,,,,,,,,,,,,,,657.798000005947,,response,,,,1,B,,,,,,Space,keypress(Space),,,,lyrical,,,,--- ---- ------ the ------- ---------- ------- ----------<br>--- --------- --- ----------- ------- ----- ------- ---<br>--------- ---- -- --- ---- -- --------- -- ---- -------<br>-- --------- ------ --- ----- ------ ---- --- --------- --<br>------ - ---- -- --- ----------- ------- ---- ----- -----<br>--- -------- - ------ ---- -- ----- ---- --- --- -----------<br>-- -------,254425.40000000596,254423.90000000596,253749.445,253760.20000001788,253766.102,254432.663,,3,the
screen,html.Screen,2_3_1_0_1_4,2022-02-03T15:45:14.238Z,,,,,,,,,,,,,,,,,2,,,,,,,,,,,,,,367.0370000178809,,response,,,,1,B,,,,,,Space,keypress(Space),,,,lyrical,,,,--- ---- ------ --- British ---------- ------- ----------<br>--- --------- --- ----------- ------- ----- ------- ---<br>--------- ---- -- --- ---- -- --------- -- ---- -------<br>-- --------- ------ --- ----- ------ ---- --- --------- --<br>------ - ---- -- --- ----------- ------- ---- ----- -----<br>--- -------- - ------ ---- -- ----- ---- --- --- -----------<br>-- -------,254801.09999999404,254799.70000001788,254416.006,254425.70000001788,254432.663,254815.7,,4,British
screen,html.Screen,2_3_1_0_1_5,2022-02-03T15:45:14.617Z,,,,,,,,,,,,,,,,,2,,,,,,,,,,,,,,363.29999999998836,,response,,,,1,B,,,,,,Space,keypress(Space),,,,lyrical,,,,--- ---- ------ --- ------- astronomer ------- ----------<br>--- --------- --- ----------- ------- ----- ------- ---<br>--------- ---- -- --- ---- -- --------- -- ---- -------<br>-- --------- ------ --- ----- ------ ---- --- --------- --<br>------ - ---- -- --- ----------- ------- ---- ----- -----<br>--- -------- - ------ ---- -- ----- ---- --- --- -----------<br>-- -------,255180.20000001788,255179,254799.044,254801.30000001192,254815.7,255183.101,,5,astronomer
screen,html.Screen,2_3_1_0_1_6,2022-02-03T15:45:15.152Z,,,,,,,,,,,,,,,,,2,,,,,,,,,,,,,,530.5990000178863,,response,,,,1,B,,,,,,Space,keypress(Space),,,,lyrical,,,,--- ---- ------ --- ------- ---------- Richard ----------<br>--- --------- --- ----------- ------- ----- ------- ---<br>--------- ---- -- --- ---- -- --------- -- ---- -------<br>-- --------- ------ --- ----- ------ ---- --- --------- --<br>------ - ---- -- --- ----------- ------- ---- ----- -----<br>--- -------- - ------ ---- -- ----- ---- --- --- -----------<br>-- -------,255715.09999999404,255713.70000001788,255166.44,255180.40000000596,255183.101,255716.508,,6,Richard
screen,html.Screen,2_3_1_0_1_7,2022-02-03T15:45:16.142Z,,,,,,,,,,,,,,,,,2,,,,,,,,,,,,,,988.5919999940379,,response,,,,1,B,,,,,,Space,keypress(Space),,,,lyrical,,,,--- ---- ------ --- ------- ---------- ------- Carrington<br>--- --------- --- ----------- ------- ----- ------- ---<br>--------- ---- -- --- ---- -- --------- -- ---- -------<br>-- --------- ------ --- ----- ------ ---- --- --------- --<br>------ - ---- -- --- ----------- ------- ---- ----- -----<br>--- -------- - ------ ---- -- ----- ---- --- --- -----------<br>-- -------,256706.59999999404,256705.09999999404,255699.847,255715.40000000596,255716.508,256716.384,,7,Carrington
screen,html.Screen,2_3_1_0_1_8,2022-02-03T15:45:16.648Z,,,,,,,,,,,,,,,,,2,,,,,,,,,,,,,,494.8160000178905,,response,,,,1,B,,,,,,Space,keypress(Space),,,,lyrical,,,,--- ---- ------ --- ------- ---------- ------- ----------<br>was --------- --- ----------- ------- ----- ------- ---<br>--------- ---- -- --- ---- -- --------- -- ---- -------<br>-- --------- ------ --- ----- ------ ---- --- --------- --<br>------ - ---- -- --- ----------- ------- ---- ----- -----<br>--- -------- - ------ ---- -- ----- ---- --- --- -----------<br>-- -------,257212.5,257211.20000001788,256699.723,256707,256716.384,257216.637,,8,was
screen,html.Screen,2_3_1_0_1_9,2022-02-03T15:45:17.201Z,,,,,,,,,,,,,,,,,2,,,,,,,,,,,,,,547.7630000059726,,response,,,,1,B,,,,,,Space,keypress(Space),,,,lyrical,,,,--- ---- ------ --- ------- ---------- ------- ----------<br>--- observing --- ----------- ------- ----- ------- ---<br>--------- ---- -- --- ---- -- --------- -- ---- -------<br>-- --------- ------ --- ----- ------ ---- --- --------- --<br>------ - ---- -- --- ----------- ------- ---- ----- -----<br>--- -------- - ------ ---- -- ----- ---- --- --- -----------<br>-- -------,257765.90000000596,257764.40000000596,257199.972,257212.80000001192,257216.637,257783.231,,9,observing
screen,html.Screen,2_3_1_0_1_10,2022-02-03T15:45:17.605Z,,,,,,,,,,,,,,,,,2,,,,,,,,,,,,,,385.9690000178816,,response,,,,1,B,,,,,,Space,keypress(Space),,,,lyrical,,,,--- ---- ------ --- ------- ---------- ------- ----------<br>--- --------- the ----------- ------- ----- ------- ---<br>--------- ---- -- --- ---- -- --------- -- ---- -------<br>-- --------- ------ --- ----- ------ ---- --- --------- --<br>------ - ---- -- --- ----------- ------- ---- ----- -----<br>--- -------- - ------ ---- -- ----- ---- --- --- -----------<br>-- -------,258169.90000000596,258169.20000001788,257766.57,257766.09999999404,257783.231,258183.779,,10,the
screen,html.Screen,2_3_1_0_1_11,2022-02-03T15:45:18.196Z,,,,,,,,,,,,,,,,,2,,,,,,,,,,,,,,575.2209999999905,,response,,,,1,B,,,,,,Space,keypress(Space),,,,lyrical,,,,--- ---- ------ --- ------- ---------- ------- ----------<br>--- --------- --- interesting ------- ----- ------- ---<br>--------- ---- -- --- ---- -- --------- -- ---- -------<br>-- --------- ------ --- ----- ------ ---- --- --------- --<br>------ - ---- -- --- ----------- ------- ---- ----- -----<br>--- -------- - ------ ---- -- ----- ---- --- --- -----------<br>-- -------,258760.5,258759,258167.114,258170.09999999404,258183.779,258767.032,,11,interesting
screen,html.Screen,2_3_1_0_1_12,2022-02-03T15:45:18.783Z,,,,,,,,,,,,,,,,,2,,,,,,,,,,,,,,578.868000005954,,response,,,,1,B,,,,,,Space,keypress(Space),,,,lyrical,,,,--- ---- ------ --- ------- ---------- ------- ----------<br>--- --------- --- ----------- sunspot ----- ------- ---<br>--------- ---- -- --- ---- -- --------- -- ---- -------<br>-- --------- ------ --- ----- ------ ---- --- --------- --<br>------ - ---- -- --- ----------- ------- ---- ----- -----<br>--- -------- - ------ ---- -- ----- ---- --- --- -----------<br>-- -------,259347.40000000596,259345.90000000596,258750.369,258760.90000000596,258767.032,259350.319,,12,sunspot
screen,html.Screen,2_3_1_0_1_13,2022-02-03T15:45:20.315Z,,,,,,,,,,,,,,,,,2,,,,,,,,,,,,,,1528.0810000059719,,response,,,,1,B,,,,,,Space,keypress(Space),,,,lyrical,,,,--- ---- ------ --- ------- ---------- ------- ----------<br>--- --------- --- ----------- ------- group ------- ---<br>--------- ---- -- --- ---- -- --------- -- ---- -------<br>-- --------- ------ --- ----- ------ ---- --- --------- --<br>------ - ---- -- --- ----------- ------- ---- ----- -----<br>--- -------- - ------ ---- -- ----- ---- --- --- -----------<br>-- -------,260880,260878.40000000596,259333.655,259347.59999999404,259350.319,260884.161,,13,group
screen,html.Screen,2_3_1_0_1_14,2022-02-03T15:45:21.103Z,,,,,,,,,,,,,,,,,2,,,,,,,,,,,,,,782.1390000119281,,response,,,,1,B,,,,,,Space,keypress(Space),,,,lyrical,,,,--- ---- ------ --- ------- ---------- ------- ----------<br>--- --------- --- ----------- ------- ----- through ---<br>--------- ---- -- --- ---- -- --------- -- ---- -------<br>-- --------- ------ --- ----- ------ ---- --- --------- --<br>------ - ---- -- --- ----------- ------- ---- ----- -----<br>--- -------- - ------ ---- -- ----- ---- --- --- -----------<br>-- -------,261667.70000001788,261666.30000001192,260867.493,260880.30000001192,260884.161,261684.46,,14,through
screen,html.Screen,2_3_1_0_1_15,2022-02-03T15:45:21.471Z,,,,,,,,,,,,,,,,,2,,,,,,,,,,,,,,349.4400000059686,,response,,,,1,B,,,,,,Space,keypress(Space),,,,lyrical,,,,--- ---- ------ --- ------- ---------- ------- ----------<br>--- --------- --- ----------- ------- ----- ------- his<br>--------- ---- -- --- ---- -- --------- -- ---- -------<br>-- --------- ------ --- ----- ------ ---- --- --------- --<br>------ - ---- -- --- ----------- ------- ---- ----- -----<br>--- -------- - ------ ---- -- ----- ---- --- --- -----------<br>-- -------,262035.30000001192,262033.90000000596,261667.792,261668,261684.46,262050.835,,15,his
screen,html.Screen,2_3_1_0_1_16,2022-02-03T15:45:22.253Z,,,,,,,,,,,,,,,,,2,,,,,,,,,,,,,,765.5650000059686,,response,,,,1,B,,,,,,Space,keypress(Space),,,,lyrical,,,,--- ---- ------ --- ------- ---------- ------- ----------<br>--- --------- --- ----------- ------- ----- ------- ---<br>telescope ---- -- --- ---- -- --------- -- ---- -------<br>-- --------- ------ --- ----- ------ ---- --- --------- --<br>------ - ---- -- --- ----------- ------- ---- ----- -----<br>--- -------- - ------ ---- -- ----- ---- --- --- -----------<br>-- -------,262817.90000000596,262816.40000000596,262034.171,262035.59999999404,262050.835,262834.657,,16,telescope
screen,html.Screen,2_3_1_0_1_17,2022-02-03T15:45:23.098Z,,,,,,,,,,,,,,,,,2,,,,,,,,,,,,,,827.8429999999935,,response,,,,1,B,,,,,,Space,keypress(Space),,,,lyrical,,,,--- ---- ------ --- ------- ---------- ------- ----------<br>--- --------- --- ----------- ------- ----- ------- ---<br>--------- when -- --- ---- -- --------- -- ---- -------<br>-- --------- ------ --- ----- ------ ---- --- --------- --<br>------ - ---- -- --- ----------- ------- ---- ----- -----<br>--- -------- - ------ ---- -- ----- ---- --- --- -----------<br>-- -------,263663.09999999404,263662.5,262817.989,262818.2000000179,262834.657,263668.135,,17,when
screen,html.Screen,2_3_1_0_1_18,2022-02-03T15:45:23.688Z,,,,,,,,,,,,,,,,,2,,,,,,,,,,,,,,582.7650000059512,,response,,,,1,B,,,,,,Space,keypress(Space),,,,lyrical,,,,--- ---- ------ --- ------- ---------- ------- ----------<br>--- --------- --- ----------- ------- ----- ------- ---<br>--------- ---- he --- ---- -- --------- -- ---- -------<br>-- --------- ------ --- ----- ------ ---- --- --------- --<br>------ - ---- -- --- ----------- ------- ---- ----- -----<br>--- -------- - ------ ---- -- ----- ---- --- --- -----------<br>-- -------,264252.40000000596,264250.90000000596,263651.467,263663.3000000119,263668.135,264268.183,,18,he
screen,html.Screen,2_3_1_0_1_19,2022-02-03T15:45:24.285Z,,,,,,,,,,,,,,,,,2,,,,,,,,,,,,,,579.4169999940204,,response,,,,1,B,,,,,,Space,keypress(Space),,,,lyrical,,,,--- ---- ------ --- ------- ---------- ------- ----------<br>--- --------- --- ----------- ------- ----- ------- ---<br>--------- ---- -- saw ---- -- --------- -- ---- -------<br>-- --------- ------ --- ----- ------ ---- --- --------- --<br>------ - ---- -- --- ----------- ------- ---- ----- -----<br>--- -------- - ------ ---- -- ----- ---- --- --- -----------<br>-- -------,264849.3000000119,264847.59999999404,264251.515,264252.7000000179,264268.183,264851.673,,19,saw
screen,html.Screen,2_3_1_0_1_20,2022-02-03T15:45:24.673Z,,,,,,,,,,,,,,,,,2,,,,,,,,,,,,,,384.7270000059507,,response,,,,1,B,,,,,,Space,keypress(Space),,,,lyrical,,,,--- ---- ------ --- ------- ---------- ------- ----------<br>--- --------- --- ----------- ------- ----- ------- ---<br>--------- ---- -- --- what -- --------- -- ---- -------<br>-- --------- ------ --- ----- ------ ---- --- --------- --<br>------ - ---- -- --- ----------- ------- ---- ----- -----<br>--- -------- - ------ ---- -- ----- ---- --- --- -----------<br>-- -------,265237.8000000119,265236.40000000596,264835.006,264849.5,264851.673,265251.468,,20,what
screen,html.Screen,2_3_1_0_1_21,2022-02-03T15:45:24.970Z,,,,,,,,,,,,,,,,,2,,,,,,,,,,,,,,281.7320000178879,,response,,,,1,B,,,,,,Space,keypress(Space),,,,lyrical,,,,--- ---- ------ --- ------- ---------- ------- ----------<br>--- --------- --- ----------- ------- ----- ------- ---<br>--------- ---- -- --- ---- he --------- -- ---- -------<br>-- --------- ------ --- ----- ------ ---- --- --------- --<br>------ - ---- -- --- ----------- ------- ---- ----- -----<br>--- -------- - ------ ---- -- ----- ---- --- --- -----------<br>-- -------,265534.7000000179,265533.2000000179,265234.804,265238.09999999404,265251.468,265551.813,,21,he
screen,html.Screen,2_3_1_0_1_22,2022-02-03T15:45:25.394Z,,,,,,,,,,,,,,,,,2,,,,,,,,,,,,,,405.7869999940158,,response,,,,1,B,,,,,,Space,keypress(Space),,,,lyrical,,,,--- ---- ------ --- ------- ---------- ------- ----------<br>--- --------- --- ----------- ------- ----- ------- ---<br>--------- ---- -- --- ---- -- described -- ---- -------<br>-- --------- ------ --- ----- ------ ---- --- --------- --<br>------ - ---- -- --- ----------- ------- ---- ----- -----<br>--- -------- - ------ ---- -- ----- ---- --- --- -----------<br>-- -------,265959.09999999404,265957.59999999404,265535.148,265535,265551.813,265968.213,,22,described
screen,html.Screen,2_3_1_0_1_23,2022-02-03T15:45:25.779Z,,,,,,,,,,,,,,,,,2,,,,,,,,,,,,,,374.18700000597164,,response,,,,1,B,,,,,,Space,keypress(Space),,,,lyrical,,,,--- ---- ------ --- ------- ---------- ------- ----------<br>--- --------- --- ----------- ------- ----- ------- ---<br>--------- ---- -- --- ---- -- --------- as ---- -------<br>-- --------- ------ --- ----- ------ ---- --- --------- --<br>------ - ---- -- --- ----------- ------- ---- ----- -----<br>--- -------- - ------ ---- -- ----- ---- --- --- -----------<br>-- -------,266343.90000000596,266342.40000000596,265951.552,265959.3000000119,265968.213,266351.571,,23,as
screen,html.Screen,2_3_1_0_1_24,2022-02-03T15:45:26.112Z,,,,,,,,,,,,,,,,,2,,,,,,,,,,,,,,323.8290000059642,,response,,,,1,B,,,,,,Space,keypress(Space),,,,lyrical,,,,"--- ---- ------ --- ------- ---------- ------- ----------<br>--- --------- --- ----------- ------- ----- ------- ---<br>--------- ---- -- --- ---- -- --------- -- ""two -------<br>-- --------- ------ --- ----- ------ ---- --- --------- --<br>------ - ---- -- --- ----------- ------- ---- ----- -----<br>--- -------- - ------ ---- -- ----- ---- --- --- -----------<br>-- -------",266676.8000000119,266675.40000000596,266334.91,266344.2000000179,266351.571,266685.268,,24,"""two"
screen,html.Screen,2_3_1_0_1_25,2022-02-03T15:45:26.730Z,,,,,,,,,,,,,,,,,2,,,,,,,,,,,,,,607.9320000178996,,response,,,,1,B,,,,,,Space,keypress(Space),,,,lyrical,,,,--- ---- ------ --- ------- ---------- ------- ----------<br>--- --------- --- ----------- ------- ----- ------- ---<br>--------- ---- -- --- ---- -- --------- -- ---- patches<br>-- --------- ------ --- ----- ------ ---- --- --------- --<br>------ - ---- -- --- ----------- ------- ---- ----- -----<br>--- -------- - ------ ---- -- ----- ---- --- --- -----------<br>-- -------,267294.90000000596,267293.2000000179,266668.604,266677.09999999404,266685.268,267302.02,,25,patches
screen,html.Screen,2_3_1_0_1_26,2022-02-03T15:45:27.176Z,,,,,,,,,,,,,,,,,2,,,,,,,,,,,,,,437.0799999940209,,response,,,,1,B,,,,,,Space,keypress(Space),,,,lyrical,,,,--- ---- ------ --- ------- ---------- ------- ----------<br>--- --------- --- ----------- ------- ----- ------- ---<br>--------- ---- -- --- ---- -- --------- -- ---- -------<br>of --------- ------ --- ----- ------ ---- --- --------- --<br>------ - ---- -- --- ----------- ------- ---- ----- -----<br>--- -------- - ------ ---- -- ----- ---- --- --- -----------<br>-- -------,267740.5,267739.09999999404,267285.356,267295.40000000596,267302.02,267751.971,,26,of
screen,html.Screen,2_3_1_0_1_27,2022-02-03T15:45:27.726Z,,,,,,,,,,,,,,,,,2,,,,,,,,,,,,,,537.5289999999804,,response,,,,1,B,,,,,,Space,keypress(Space),,,,lyrical,,,,--- ---- ------ --- ------- ---------- ------- ----------<br>--- --------- --- ----------- ------- ----- ------- ---<br>--------- ---- -- --- ---- -- --------- -- ---- -------<br>-- intensely ------ --- ----- ------ ---- --- --------- --<br>------ - ---- -- --- ----------- ------- ---- ----- -----<br>--- -------- - ------ ---- -- ----- ---- --- --- -----------<br>-- -------,268290.90000000596,268289.5,267735.311,267740.8000000119,267751.971,268302.178,,27,intensely
screen,html.Screen,2_3_1_0_1_28,2022-02-03T15:45:28.438Z,,,,,,,,,,,,,,,,,2,,,,,,,,,,,,,,699.4219999940251,,response,,,,1,B,,,,,,Space,keypress(Space),,,,lyrical,,,,--- ---- ------ --- ------- ---------- ------- ----------<br>--- --------- --- ----------- ------- ----- ------- ---<br>--------- ---- -- --- ---- -- --------- -- ---- -------<br>-- --------- bright --- ----- ------ ---- --- --------- --<br>------ - ---- -- --- ----------- ------- ---- ----- -----<br>--- -------- - ------ ---- -- ----- ---- --- --- -----------<br>-- -------,269002.40000000596,269001.59999999404,268285.513,268291.2000000179,268302.178,269018.929,,28,bright
screen,html.Screen,2_3_1_0_1_29,2022-02-03T15:45:28.971Z,,,,,,,,,,,,,,,,,2,,,,,,,,,,,,,,515.5709999999963,,response,,,,1,B,,,,,,Space,keypress(Space),,,,lyrical,,,,--- ---- ------ --- ------- ---------- ------- ----------<br>--- --------- --- ----------- ------- ----- ------- ---<br>--------- ---- -- --- ---- -- --------- -- ---- -------<br>-- --------- ------ and ----- ------ ---- --- --------- --<br>------ - ---- -- --- ----------- ------- ---- ----- -----<br>--- -------- - ------ ---- -- ----- ---- --- --- -----------<br>-- -------,269536,269534.5,269002.264,269002.5,269018.929,269552.404,,29,and
screen,html.Screen,2_3_1_0_1_30,2022-02-03T15:45:29.533Z,,,,,,,,,,,,,,,,,2,,,,,,,,,,,,,,545.1959999940591,,response,,,,1,B,,,,,,Space,keypress(Space),,,,lyrical,,,,--- ---- ------ --- ------- ---------- ------- ----------<br>--- --------- --- ----------- ------- ----- ------- ---<br>--------- ---- -- --- ---- -- --------- -- ---- -------<br>-- --------- ------ --- white ------ ---- --- --------- --<br>------ - ---- -- --- ----------- ------- ---- ----- -----<br>--- -------- - ------ ---- -- ----- ---- --- --- -----------<br>-- -------,270098.3000000119,270097.59999999404,269535.739,269536.3000000119,269552.404,270102.57,,30,white
screen,html.Screen,2_3_1_0_1_31,2022-02-03T15:45:31.508Z,,,,,,,,,,,,,,,,,2,,,,,,,,,,,,,,1968.3300000059535,,response,,,,1,B,,,,,,Space,keypress(Space),,,,lyrical,,,,"--- ---- ------ --- ------- ---------- ------- ----------<br>--- --------- --- ----------- ------- ----- ------- ---<br>--------- ---- -- --- ---- -- --------- -- ---- -------<br>-- --------- ------ --- ----- light"" ---- --- --------- --<br>------ - ---- -- --- ----------- ------- ---- ----- -----<br>--- -------- - ------ ---- -- ----- ---- --- --- -----------<br>-- -------",272072.40000000596,272070.90000000596,270085.905,270098.3000000119,270102.57,272085.324,,31,"light"""
screen,html.Screen,2_3_1_0_1_32,2022-02-03T15:45:31.991Z,,,,,,,,,,,,,,,,,2,,,,,,,,,,,,,,468.7759999940172,,response,,,,1,B,,,,,,Space,keypress(Space),,,,lyrical,,,,--- ---- ------ --- ------- ---------- ------- ----------<br>--- --------- --- ----------- ------- ----- ------- ---<br>--------- ---- -- --- ---- -- --------- -- ---- -------<br>-- --------- ------ --- ----- ------ over --- --------- --<br>------ - ---- -- --- ----------- ------- ---- ----- -----<br>--- -------- - ------ ---- -- ----- ---- --- --- -----------<br>-- -------,272555.59999999404,272554.09999999404,272068.663,272072.7000000179,272085.324,272568.65,,32,over
screen,html.Screen,2_3_1_0_1_33,2022-02-03T15:45:32.575Z,,,,,,,,,,,,,,,,,2,,,,,,,,,,,,,,569.3499999999767,,response,,,,1,B,,,,,,Space,keypress(Space),,,,lyrical,,,,--- ---- ------ --- ------- ---------- ------- ----------<br>--- --------- --- ----------- ------- ----- ------- ---<br>--------- ---- -- --- ---- -- --------- -- ---- -------<br>-- --------- ------ --- ----- ------ ---- the --------- --<br>------ - ---- -- --- ----------- ------- ---- ----- -----<br>--- -------- - ------ ---- -- ----- ---- --- --- -----------<br>-- -------,273139.59999999404,273138,272551.988,272555.90000000596,272568.65,273152.99,,33,the
screen,html.Screen,2_3_1_0_1_34,2022-02-03T15:45:33.315Z,,,,,,,,,,,,,,,,,2,,,,,,,,,,,,,,725.8100000119302,,response,,,,1,B,,,,,,Space,keypress(Space),,,,lyrical,,,,--- ---- ------ --- ------- ---------- ------- ----------<br>--- --------- --- ----------- ------- ----- ------- ---<br>--------- ---- -- --- ---- -- --------- -- ---- -------<br>-- --------- ------ --- ----- ------ ---- --- sunspots. --<br>------ - ---- -- --- ----------- ------- ---- ----- -----<br>--- -------- - ------ ---- -- ----- ---- --- --- -----------<br>-- -------,273880.2000000179,273878.8000000119,273136.328,273140,273152.99,273885.933,,34,sunspots.
screen,html.Screen,2_3_1_0_1_35,2022-02-03T15:45:33.791Z,,,,,,,,,,,,,,,,,2,,,,,,,,,,,,,,468.36700001190184,,response,,,,1,B,,,,,,Space,keypress(Space),,,,lyrical,,,,--- ---- ------ --- ------- ---------- ------- ----------<br>--- --------- --- ----------- ------- ----- ------- ---<br>--------- ---- -- --- ---- -- --------- -- ---- -------<br>-- --------- ------ --- ----- ------ ---- --- --------- He<br>------ - ---- -- --- ----------- ------- ---- ----- -----<br>--- -------- - ------ ---- -- ----- ---- --- --- -----------<br>-- -------,274355.8000000119,274354.3000000119,273869.273,273880.5,273885.933,274369.609,,35,He
screen,html.Screen,2_3_1_0_1_36,2022-02-03T15:45:34.237Z,,,,,,,,,,,,,,,,,2,,,,,,,,,,,,,,430.4909999940428,,response,,,,1,B,,,,,,Space,keypress(Space),,,,lyrical,,,,--- ---- ------ --- ------- ---------- ------- ----------<br>--- --------- --- ----------- ------- ----- ------- ---<br>--------- ---- -- --- ---- -- --------- -- ---- -------<br>-- --------- ------ --- ----- ------ ---- --- --------- --<br>jotted - ---- -- --- ----------- ------- ---- ----- -----<br>--- -------- - ------ ---- -- ----- ---- --- --- -----------<br>-- -------,274801.5,274800.09999999404,274352.947,274356.09999999404,274369.609,274803.12,,36,jotted
screen,html.Screen,2_3_1_0_1_37,2022-02-03T15:45:34.713Z,,,,,,,,,,,,,,,,,2,,,,,,,,,,,,,,473.58000001788605,,response,,,,1,B,,,,,,Space,keypress(Space),,,,lyrical,,,,--- ---- ------ --- ------- ---------- ------- ----------<br>--- --------- --- ----------- ------- ----- ------- ---<br>--------- ---- -- --- ---- -- --------- -- ---- -------<br>-- --------- ------ --- ----- ------ ---- --- --------- --<br>------ a ---- -- --- ----------- ------- ---- ----- -----<br>--- -------- - ------ ---- -- ----- ---- --- --- -----------<br>-- -------,275278.2000000179,275276.7000000179,274786.458,274801.8000000119,274803.12,275286.759,,37,a
screen,html.Screen,2_3_1_0_1_38,2022-02-03T15:45:35.143Z,,,,,,,,,,,,,,,,,2,,,,,,,,,,,,,,419.24099999998,,response,,,,1,B,,,,,,Space,keypress(Space),,,,lyrical,,,,--- ---- ------ --- ------- ---------- ------- ----------<br>--- --------- --- ----------- ------- ----- ------- ---<br>--------- ---- -- --- ---- -- --------- -- ---- -------<br>-- --------- ------ --- ----- ------ ---- --- --------- --<br>------ - note -- --- ----------- ------- ---- ----- -----<br>--- -------- - ------ ---- -- ----- ---- --- --- -----------<br>-- -------,275707.3000000119,275706,275270.098,275278.5,275286.759,275720.191,,38,note
