sender,sender_type,sender_id,timestamp,meta,,Blues,Classical,Country,Dance,Electronic,Folk,Gospel,Hip-Hop,Jazz,Latin,Musical/Film,New-age,Pop,Prolific_id,Provo_ID,R&B,Rap,Reggae,Religious,Rock,Soul,Swing,Traditional,age,artist_name,correct,correctResponse,distraction,duration,education,ended_on,familiarity,gender,headphone_check_performance,item,list,music_frequency,offensiveness,pleasantness,position_correct,preference,response,response_action,snippet_file,song_name,song_rating,sound,stimulus_1,stimulus_2,stimulus_3,text,time_commit,time_end,time_render,time_run,time_show,time_switch,url,word,word_ID
Prolific ID,html.Form,0,2022-02-03T14:18:22.412Z,"{""labjs_version"":""20.2.2"",""labjs_build"":{""flavor"":""production"",""commit"":""a25486e0c714a0ae2ce03ff94b7bb6896854dcfa""},""location"":""https://run.pavlovia.org/mvasilev/prolific2_music_a/"",""userAgent"":""Mozilla/5.0 (Windows NT 10.0; Win64; x64) AppleWebKit/537.36 (KHTML, like Gecko) Chrome/98.0.4758.81 Safari/537.36"",""platform"":""Win32"",""language"":""en-US"",""locale"":""en-US"",""timeZone"":""Europe/London"",""timezoneOffset"":0,""screen_width"":1707,""screen_height"":960,""scroll_width"":1707,""scroll_height"":801,""window_innerWidth"":1707,""window_innerHeight"":849,""devicePixelRatio"":1.5}",,,,,,,,,,,,,,,60b8fb929701cb52b39796aa,,,,,,,,,,,,,,,11713.982000023841,,form submission,,,,,,,,,,,,,,,,,,,,,21679.899999976158,21679.100000023842,9928.786,9932.699999988079,9965.118,21692.178,{},,
Introduction,html.Screen,1_0,2022-02-03T14:18:27.881Z,,,,,,,,,,,,,,,,,,,,,,,,,,,,,,,5453.221999976158,,response,,,,,,,,,,,continue,click button,,,,,,,,,27148.80000001192,27145.399999976158,21673.91,21680.30000001192,21692.178,27165.025,,,
Volume calibration,html.Screen,1_1,2022-02-03T14:18:39.470Z,,,,,,,,,,,,,,,,,,,,,,,,,,,,,,,11569.07500002384,,response,,,,,,,,,,,continue,click button,,,,,,,,,38737.5,38734.10000002384,27140.512,27149.19999998808,27165.025,38752.296,,,
Task instructions,html.Screen,1_2,2022-02-03T14:18:44.711Z,,,,,,,,,,,,,,,,,,,,,,,,,,,,,,,5224.903999988077,,response,,,,,,,,,,,continue,click button,,,,,,,,,43978.5,43977.19999998808,38734.041,38737.69999998808,38752.296,43988.523,,,
Sounds,html.Screen,1_3_0_0,2022-02-03T14:18:48.966Z,,,,,,,,,,,,,,,,,,,,,,,,,,,,,,,4248.640999999996,,timeout,,,,,,,,,1,,,,,,,,S,I,O,,48233.69999998808,48230.777,43976.379,43978.69999998808,43988.523,48237.164,,,
Judgement,html.Screen,1_3_0_1,2022-02-03T14:18:52.586Z,,,,,,,,,,,,,,,,,,,,,,,,,,,,true,1,,3615.336000000003,,response,,,,,,,,,1,,1,click #choice-1,,,,,S,I,O,,51854,51852.5,48230.777,48233.89999997616,48237.164,51867.299,,,
Trial,flow.Sequence,1_3_0,2022-02-03T14:18:52.588Z,,,,,,,,,,,,,,,,,,,,,,,,,,,,,,,7863.976999999999,,completion,,,,,,,,,1,,,,,,,,S,I,O,,51855.80000001192,51852.5,43976.379,43978.69999998808,43988.523,51867.299,,,
Sounds,html.Screen,1_3_1_0,2022-02-03T14:18:56.843Z,,,,,,,,,,,,,,,,,,,,,,,,,,,,,,,4248.222000000002,,timeout,,,,,,,,,2,,,,,,,,O,S,I,,56110.5,56109.906,51848.853,51856.19999998808,51867.299,56115.521,,,
Judgement,html.Screen,1_3_1_1,2022-02-03T14:18:57.632Z,,,,,,,,,,,,,,,,,,,,,,,,,,,,true,2,,781.6789999880784,,response,,,,,,,,,2,,2,click #choice-2,,,,,O,S,I,,56899.19999998808,56897.19999998808,56109.906,56110.69999998808,56115.521,56916.37,,,
Trial,flow.Sequence,1_3_1,2022-02-03T14:18:57.632Z,,,,,,,,,,,,,,,,,,,,,,,,,,,,,,,5029.90099998808,,completion,,,,,,,,,2,,,,,,,,O,S,I,,56899.60000002384,56897.19999998808,51848.853,51855.89999997616,51867.299,56916.37,,,
Sounds,html.Screen,1_3_2_0,2022-02-03T14:19:01.893Z,,,,,,,,,,,,,,,,,,,,,,,,,,,,,,,4247.772999999994,,timeout,,,,,,,,,2,,,,,,,,I,S,O,,61160.30000001192,61157.722,56897.192,56899.89999997616,56916.37,61164.143,,,
Judgement,html.Screen,1_3_2_1,2022-02-03T14:19:02.751Z,,,,,,,,,,,,,,,,,,,,,,,,,,,,true,2,,852.6570000119245,,response,,,,,,,,,2,,2,click #choice-2,,,,,I,S,O,,62018.30000001192,62016.80000001192,61157.722,61160.5,61164.143,62036.499,,,
Trial,flow.Sequence,1_3_2,2022-02-03T14:19:02.751Z,,,,,,,,,,,,,,,,,,,,,,,,,,,,,,,5100.430000011918,,completion,,,,,,,,,2,,,,,,,,I,S,O,,62018.60000002384,62016.80000001192,56897.192,56899.80000001192,56916.37,62036.499,,,
Sounds,html.Screen,1_3_3_0,2022-02-03T14:19:07.012Z,,,,,,,,,,,,,,,,,,,,,,,,,,,,,,,4248.995000000003,,timeout,,,,,,,,,1,,,,,,,,S,O,I,,66279.60000002384,66278.796,62012.203,62018.80000001192,62036.499,66285.494,,,
Judgement,html.Screen,1_3_3_1,2022-02-03T14:19:07.697Z,,,,,,,,,,,,,,,,,,,,,,,,,,,,true,1,,677.005999999994,,response,,,,,,,,,1,,1,click #choice-1,,,,,S,O,I,,66964.30000001192,66962.5,66278.796,66279.69999998808,66285.494,66981.877,,,
Trial,flow.Sequence,1_3_3,2022-02-03T14:19:07.697Z,,,,,,,,,,,,,,,,,,,,,,,,,,,,,,,4926.000999999997,,completion,,,,,,,,,1,,,,,,,,S,O,I,,66964.5,66962.5,62012.203,62018.69999998808,62036.499,66981.877,,,
Sounds,html.Screen,1_3_4_0,2022-02-03T14:19:11.957Z,,,,,,,,,,,,,,,,,,,,,,,,,,,,,,,4248.42300000001,,timeout,,,,,,,,,3,,,,,,,,O,I,S,,71224.80000001192,71224.067,66957.659,66964.69999998808,66981.877,71230.3,,,
Judgement,html.Screen,1_3_4_1,2022-02-03T14:19:12.643Z,,,,,,,,,,,,,,,,,,,,,,,,,,,,true,3,,679.0999999761552,,response,,,,,,,,,3,,3,click #choice-3,,,,,O,I,S,,71910.80000001192,71909.39999997616,71224.067,71224.80000001192,71230.3,71921.082,,,
Trial,flow.Sequence,1_3_4,2022-02-03T14:19:12.643Z,,,,,,,,,,,,,,,,,,,,,,,,,,,,,,,4927.522999976165,,completion,,,,,,,,,3,,,,,,,,O,I,S,,71910.89999997616,71909.39999997616,66957.659,66964.60000002384,66981.877,71921.082,,,
Sounds,html.Screen,1_3_5_0,2022-02-03T14:19:16.897Z,,,,,,,,,,,,,,,,,,,,,,,,,,,,,,,4248.639999999999,,timeout,,,,,,,,,3,,,,,,,,I,O,S,,76164.39999997616,76163.542,71908.918,71911.10000002384,71921.082,76169.722,,,
Judgement,html.Screen,1_3_5_1,2022-02-03T14:19:17.581Z,,,,,,,,,,,,,,,,,,,,,,,,,,,,true,3,,677.0780000119266,,response,,,,,,,,,3,,3,click #choice-3,,,,,I,O,S,,76848.30000001192,76846.80000001192,76163.542,76164.60000002384,76169.722,76866.36,,,
Trial,flow.Sequence,1_3_5,2022-02-03T14:19:17.581Z,,,,,,,,,,,,,,,,,,,,,,,,,,,,,,,4925.718000011926,,completion,,,,,,,,,3,,,,,,,,I,O,S,,76848.5,76846.80000001192,71908.918,71911.10000002384,71921.082,76866.36,,,
Task,flow.Loop,1_3,2022-02-03T14:19:17.586Z,,,,,,,,,,,,,,,,,,,,,,,,,,,,,,,32858.27700001192,,completion,,,1,,,,,,,,,,,,,,,,,,76853.69999998808,76846.80000001192,43976.379,43978.60000002384,43988.523,76866.36,,,
Trap,html.Screen,1_4,2022-02-03T14:19:17.588Z,,,,,,,,,,,,,,,,,,,,,,,,,,,,,,,NaN,,skipped,,,,,,,,,,,,,,,,,,,,,76855.19999998808,76846.80000001192,,76855,,76866.36,,,
Thanks,html.Screen,1_5,2022-02-03T14:19:22.035Z,,,,,,,,,,,,,,,,,,,,,,,,,,,,,,,4435.039999976158,,response,,,,,,,,,,,continue,click button,,,,,,,,,81302.69999998808,81301.39999997616,76842.115,76855.30000001192,76866.36,83660.129,,,
Headphone screening,flow.Sequence,1,2022-02-03T14:19:22.035Z,,,,,,,,,,,,,,,,,,,,,,,,,,,,,,,59609.22199997616,,completion,,,,,,,,,,,,,,,,,,,,,81303,81301.39999997616,21673.91,21680.30000001192,21692.178,83660.129,,,
Instructions,html.Page,2_0,2022-02-03T14:19:39.617Z,,,,,,,,,,,,,,,,,,,,,,,,,,,,,,,15224.371,,form submission,,,,,,,,,,,,,,,,,,,,,98885,98884.5,83641.977,83656.89999997616,83660.129,98900.161,,,
Holding screen,html.Screen,2_1_0_0,2022-02-03T14:19:49.629Z,,,,,,,,,,,,,,,,,,,,,,,,,,,,,,,10013.960000000006,,timeout,,,,,,,,,,,,,,,,,,,,,108897.5,108896.138,98877.891,98885.30000001192,98900.161,108914.121,,,
screen,html.Screen,2_1_0_1_0,2022-02-03T14:19:50.074Z,,,,,,,,,,,,,,,,,53,,,,,,,,,,,,,,425.5789999880799,,response,,,,99,,,,,,,Space,keypress(Space),,,,,,,,When -- ----- -- ------ - ------- --- ----------<br>------------- ------ ------ ---- ---- ------- ----- -- ----<br>-------- ------- -- ---------- --- - --- ----- ----- ----<br>---- --- --- ----- --- ---- ---- ------- ----- ---- -------<br>--- --- -- ----- -- --- ---- -- --- ---- -- ------ ------<br>--- ----- -- ----,109343,109339.69999998808,108896.138,108897.60000002384,108914.121,109365.069,,0,When
screen,html.Screen,2_1_0_1_1,2022-02-03T14:19:50.791Z,,,,,,,,,,,,,,,,,53,,,,,,,,,,,,,,693.830999976155,,response,,,,99,,,,,,,Space,keypress(Space),,,,,,,,---- it ----- -- ------ - ------- --- ----------<br>------------- ------ ------ ---- ---- ------- ----- -- ----<br>-------- ------- -- ---------- --- - --- ----- ----- ----<br>---- --- --- ----- --- ---- ---- ------- ----- ---- -------<br>--- --- -- ----- -- --- ---- -- --- ---- -- ------ ------<br>--- ----- -- ----,110059.69999998808,110058.89999997616,109338.165,109343.19999998808,109365.069,110066.214,,1,it
screen,html.Screen,2_1_0_1_2,2022-02-03T14:19:51.332Z,,,,,,,,,,,,,,,,,53,,,,,,,,,,,,,,533.6859999761509,,response,,,,99,,,,,,,Space,keypress(Space),,,,,,,,---- -- comes -- ------ - ------- --- ----------<br>------------- ------ ------ ---- ---- ------- ----- -- ----<br>-------- ------- -- ---------- --- - --- ----- ----- ----<br>---- --- --- ----- --- ---- ---- ------- ----- ---- -------<br>--- --- -- ----- -- --- ---- -- --- ---- -- ------ ------<br>--- ----- -- ----,110600.69999998808,110599.89999997616,110059.423,110059.80000001192,110066.214,110605.347,,2,comes
screen,html.Screen,2_1_0_1_3,2022-02-03T14:19:51.761Z,,,,,,,,,,,,,,,,,53,,,,,,,,,,,,,,423.75300002384756,,response,,,,99,,,,,,,Space,keypress(Space),,,,,,,,---- -- ----- to ------ - ------- --- ----------<br>------------- ------ ------ ---- ---- ------- ----- -- ----<br>-------- ------- -- ---------- --- - --- ----- ----- ----<br>---- --- --- ----- --- ---- ---- ------- ----- ---- -------<br>--- --- -- ----- -- --- ---- -- --- ---- -- ------ ------<br>--- ----- -- ----,111030,111029.10000002384,110598.75,110600.89999997616,110605.347,111035.181,,3,to
screen,html.Screen,2_1_0_1_4,2022-02-03T14:19:52.231Z,,,,,,,,,,,,,,,,,53,,,,,,,,,,,,,,463.5189999880822,,response,,,,99,,,,,,,Space,keypress(Space),,,,,,,,---- -- ----- -- having - ------- --- ----------<br>------------- ------ ------ ---- ---- ------- ----- -- ----<br>-------- ------- -- ---------- --- - --- ----- ----- ----<br>---- --- --- ----- --- ---- ---- ------- ----- ---- -------<br>--- --- -- ----- -- --- ---- -- --- ---- -- ------ ------<br>--- ----- -- ----,111499.39999997616,111498.69999998808,111029.014,111030.10000002384,111035.181,111501.785,,4,having
screen,html.Screen,2_1_0_1_5,2022-02-03T14:19:52.612Z,,,,,,,,,,,,,,,,,53,,,,,,,,,,,,,,378.31500002383837,,response,,,,99,,,,,,,Space,keypress(Space),,,,,,,,---- -- ----- -- ------ a ------- --- ----------<br>------------- ------ ------ ---- ---- ------- ----- -- ----<br>-------- ------- -- ---------- --- - --- ----- ----- ----<br>---- --- --- ----- --- ---- ---- ------- ----- ---- -------<br>--- --- -- ----- -- --- ---- -- --- ---- -- ------ ------<br>--- ----- -- ----,111880.89999997616,111880.10000002384,111495.681,111499.60000002384,111501.785,111883.609,,5,a
screen,html.Screen,2_1_0_1_6,2022-02-03T14:19:53.202Z,,,,,,,,,,,,,,,,,53,,,,,,,,,,,,,,586.3910000000033,,response,,,,99,,,,,,,Space,keypress(Space),,,,,,,,---- -- ----- -- ------ - lasting --- ----------<br>------------- ------ ------ ---- ---- ------- ----- -- ----<br>-------- ------- -- ---------- --- - --- ----- ----- ----<br>---- --- --- ----- --- ---- ---- ------- ----- ---- -------<br>--- --- -- ----- -- --- ---- -- --- ---- -- ------ ------<br>--- ----- -- ----,112470.60000002384,112470,111877.514,111881.19999998808,111883.609,112481.142,,6,lasting
screen,html.Screen,2_1_0_1_7,2022-02-03T14:19:53.633Z,,,,,,,,,,,,,,,,,53,,,,,,,,,,,,,,419.55799998807197,,response,,,,99,,,,,,,Space,keypress(Space),,,,,,,,---- -- ----- -- ------ - ------- and ----------<br>------------- ------ ------ ---- ---- ------- ----- -- ----<br>-------- ------- -- ---------- --- - --- ----- ----- ----<br>---- --- --- ----- --- ---- ---- ------- ----- ---- -------<br>--- --- -- ----- -- --- ---- -- --- ---- -- ------ ------<br>--- ----- -- ----,112901.5,112900.69999998808,112465.479,112470.80000001192,112481.142,112907.836,,7,and
screen,html.Screen,2_1_0_1_8,2022-02-03T14:19:53.977Z,,,,,,,,,,,,,,,,,53,,,,,,,,,,,,,,337.46400001192524,,response,,,,99,,,,,,,Space,keypress(Space),,,,,,,,---- -- ----- -- ------ - ------- --- fulfilling<br>------------- ------ ------ ---- ---- ------- ----- -- ----<br>-------- ------- -- ---------- --- - --- ----- ----- ----<br>---- --- --- ----- --- ---- ---- ------- ----- ---- -------<br>--- --- -- ----- -- --- ---- -- --- ---- -- ------ ------<br>--- ----- -- ----,113246.10000002384,113245.30000001192,112901.739,112901.69999998808,112907.836,113259.372,,8,fulfilling
screen,html.Screen,2_1_0_1_9,2022-02-03T14:19:54.457Z,,,,,,,,,,,,,,,,,53,,,,,,,,,,,,,,465.32799998807604,,response,,,,99,,,,,,,Space,keypress(Space),,,,,,,,"---- -- ----- -- ------ - ------- --- ----------<br>relationship, ------ ------ ---- ---- ------- ----- -- ----<br>-------- ------- -- ---------- --- - --- ----- ----- ----<br>---- --- --- ----- --- ---- ---- ------- ----- ---- -------<br>--- --- -- ----- -- --- ---- -- --- ---- -- ------ ------<br>--- ----- -- ----",113725.39999997616,113724.69999998808,113241.115,113246.19999998808,113259.372,113732.332,,9,"relationship,"
screen,html.Screen,2_1_0_1_10,2022-02-03T14:19:54.931Z,,,,,,,,,,,,,,,,,53,,,,,,,,,,,,,,465.96800001192605,,response,,,,99,,,,,,,Space,keypress(Space),,,,,,,,---- -- ----- -- ------ - ------- --- ----------<br>------------- common ------ ---- ---- ------- ----- -- ----<br>-------- ------- -- ---------- --- - --- ----- ----- ----<br>---- --- --- ----- --- ---- ---- ------- ----- ---- -------<br>--- --- -- ----- -- --- ---- -- --- ---- -- ------ ------<br>--- ----- -- ----,114199.19999998808,114198.30000001192,113720.186,113725.60000002384,113732.332,114205.25,,10,common
screen,html.Screen,2_1_0_1_11,2022-02-03T14:19:55.405Z,,,,,,,,,,,,,,,,,53,,,,,,,,,,,,,,467.44999998807907,,response,,,,99,,,,,,,Space,keypress(Space),,,,,,,,---- -- ----- -- ------ - ------- --- ----------<br>------------- ------ wisdom ---- ---- ------- ----- -- ----<br>-------- ------- -- ---------- --- - --- ----- ----- ----<br>---- --- --- ----- --- ---- ---- ------- ----- ---- -------<br>--- --- -- ----- -- --- ---- -- --- ---- -- ------ ------<br>--- ----- -- ----,114673.5,114672.69999998808,114198.654,114199.5,114205.25,114677.532,,11,wisdom
screen,html.Screen,2_1_0_1_12,2022-02-03T14:19:55.857Z,,,,,,,,,,,,,,,,,53,,,,,,,,,,,,,,447.66799998807255,,response,,,,99,,,,,,,Space,keypress(Space),,,,,,,,---- -- ----- -- ------ - ------- --- ----------<br>------------- ------ ------ says ---- ------- ----- -- ----<br>-------- ------- -- ---------- --- - --- ----- ----- ----<br>---- --- --- ----- --- ---- ---- ------- ----- ---- -------<br>--- --- -- ----- -- --- ---- -- --- ---- -- ------ ------<br>--- ----- -- ----,115126,115125.19999998808,114671.831,114673.80000001192,114677.532,115132.167,,12,says
screen,html.Screen,2_1_0_1_13,2022-02-03T14:19:56.319Z,,,,,,,,,,,,,,,,,53,,,,,,,,,,,,,,454.5329999880778,,response,,,,99,,,,,,,Space,keypress(Space),,,,,,,,---- -- ----- -- ------ - ------- --- ----------<br>------------- ------ ------ ---- that ------- ----- -- ----<br>-------- ------- -- ---------- --- - --- ----- ----- ----<br>---- --- --- ----- --- ---- ---- ------- ----- ---- -------<br>--- --- -- ----- -- --- ---- -- --- ---- -- ------ ------<br>--- ----- -- ----,115587.39999997616,115586.69999998808,115125.918,115126.10000002384,115132.167,115592.628,,13,that
screen,html.Screen,2_1_0_1_14,2022-02-03T14:19:56.677Z,,,,,,,,,,,,,,,,,53,,,,,,,,,,,,,,352.17200001192396,,response,,,,99,,,,,,,Space,keypress(Space),,,,,,,,---- -- ----- -- ------ - ------- --- ----------<br>------------- ------ ------ ---- ---- feeling ----- -- ----<br>-------- ------- -- ---------- --- - --- ----- ----- ----<br>---- --- --- ----- --- ---- ---- ------- ----- ---- -------<br>--- --- -- ----- -- --- ---- -- --- ---- -- ------ ------<br>--- ----- -- ----,115945.60000002384,115944.80000001192,115586.494,115587.5,115592.628,115950.189,,14,feeling
screen,html.Screen,2_1_0_1_15,2022-02-03T14:19:57.123Z,,,,,,,,,,,,,,,,,53,,,,,,,,,,,,,,440.61100001192244,,response,,,,99,,,,,,,Space,keypress(Space),,,,,,,,---- -- ----- -- ------ - ------- --- ----------<br>------------- ------ ------ ---- ---- ------- close -- ----<br>-------- ------- -- ---------- --- - --- ----- ----- ----<br>---- --- --- ----- --- ---- ---- ------- ----- ---- -------<br>--- --- -- ----- -- --- ---- -- --- ---- -- ------ ------<br>--- ----- -- ----,116391.60000002384,116390.80000001192,115944.068,115945.80000001192,115950.189,116398.634,,15,close
screen,html.Screen,2_1_0_1_16,2022-02-03T14:19:57.489Z,,,,,,,,,,,,,,,,,53,,,,,,,,,,,,,,358.4660000238364,,response,,,,99,,,,,,,Space,keypress(Space),,,,,,,,---- -- ----- -- ------ - ------- --- ----------<br>------------- ------ ------ ---- ---- ------- ----- to ----<br>-------- ------- -- ---------- --- - --- ----- ----- ----<br>---- --- --- ----- --- ---- ---- ------- ----- ---- -------<br>--- --- -- ----- -- --- ---- -- --- ---- -- ------ ------<br>--- ----- -- ----,116758,116757.10000002384,116386.551,116391.80000001192,116398.634,116762.515,,16,to
screen,html.Screen,2_1_0_1_17,2022-02-03T14:19:57.869Z,,,,,,,,,,,,,,,,,53,,,,,,,,,,,,,,374.8849999761587,,response,,,,99,,,,,,,Space,keypress(Space),,,,,,,,---- -- ----- -- ------ - ------- --- ----------<br>------------- ------ ------ ---- ---- ------- ----- -- your<br>-------- ------- -- ---------- --- - --- ----- ----- ----<br>---- --- --- ----- --- ---- ---- ------- ----- ---- -------<br>--- --- -- ----- -- --- ---- -- --- ---- -- ------ ------<br>--- ----- -- ----,117138.10000002384,117137.39999997616,116756.483,116758.10000002384,116762.515,117144.153,,17,your
screen,html.Screen,2_1_0_1_18,2022-02-03T14:19:58.259Z,,,,,,,,,,,,,,,,,53,,,,,,,,,,,,,,382.6470000119152,,response,,,,99,,,,,,,Space,keypress(Space),,,,,,,,---- -- ----- -- ------ - ------- --- ----------<br>------------- ------ ------ ---- ---- ------- ----- -- ----<br>romantic ------- -- ---------- --- - --- ----- ----- ----<br>---- --- --- ----- --- ---- ---- ------- ----- ---- -------<br>--- --- -- ----- -- --- ---- -- --- ---- -- ------ ------<br>--- ----- -- ----,117528.10000002384,117526.80000001192,117138.011,117138.30000001192,117144.153,117532.215,,18,romantic
screen,html.Screen,2_1_0_1_19,2022-02-03T14:19:58.650Z,,,,,,,,,,,,,,,,,53,,,,,,,,,,,,,,385.5850000119244,,response,,,,99,,,,,,,Space,keypress(Space),,,,,,,,---- -- ----- -- ------ - ------- --- ----------<br>------------- ------ ------ ---- ---- ------- ----- -- ----<br>-------- partner -- ---------- --- - --- ----- ----- ----<br>---- --- --- ----- --- ---- ---- ------- ----- ---- -------<br>--- --- -- ----- -- --- ---- -- --- ---- -- ------ ------<br>--- ----- -- ----,117918.60000002384,117917.80000001192,117525.984,117528.19999998808,117532.215,117929.25,,19,partner
screen,html.Screen,2_1_0_1_20,2022-02-03T14:19:59.028Z,,,,,,,,,,,,,,,,,53,,,,,,,,,,,,,,366.35000002384186,,response,,,,99,,,,,,,Space,keypress(Space),,,,,,,,---- -- ----- -- ------ - ------- --- ----------<br>------------- ------ ------ ---- ---- ------- ----- -- ----<br>-------- ------- is ---------- --- - --- ----- ----- ----<br>---- --- --- ----- --- ---- ---- ------- ----- ---- -------<br>--- --- -- ----- -- --- ---- -- --- ---- -- ------ ------<br>--- ----- -- ----,118296.39999997616,118295.60000002384,117913.667,117918.69999998808,117929.25,118301.604,,20,is
screen,html.Screen,2_1_0_1_21,2022-02-03T14:19:59.377Z,,,,,,,,,,,,,,,,,53,,,,,,,,,,,,,,343.59599998807244,,response,,,,99,,,,,,,Space,keypress(Space),,,,,,,,---- -- ----- -- ------ - ------- --- ----------<br>------------- ------ ------ ---- ---- ------- ----- -- ----<br>-------- ------- -- paramount. --- - --- ----- ----- ----<br>---- --- --- ----- --- ---- ---- ------- ----- ---- -------<br>--- --- -- ----- -- --- ---- -- --- ---- -- ------ ------<br>--- ----- -- ----,118646,118645.19999998808,118295.518,118296.5,118301.604,118658.484,,21,paramount.
screen,html.Screen,2_1_0_1_22,2022-02-03T14:19:59.817Z,,,,,,,,,,,,,,,,,53,,,,,,,,,,,,,,426.9159999761614,,response,,,,99,,,,,,,Space,keypress(Space),,,,,,,,---- -- ----- -- ------ - ------- --- ----------<br>------------- ------ ------ ---- ---- ------- ----- -- ----<br>-------- ------- -- ---------- But - --- ----- ----- ----<br>---- --- --- ----- --- ---- ---- ------- ----- ---- -------<br>--- --- -- ----- -- --- ---- -- --- ---- -- ------ ------<br>--- ----- -- ----,119086.10000002384,119085.39999997616,118640.968,118646.10000002384,118658.484,119089.474,,22,But
screen,html.Screen,2_1_0_1_23,2022-02-03T14:20:00.254Z,,,,,,,,,,,,,,,,,53,,,,,,,,,,,,,,432.42599997615616,,response,,,,99,,,,,,,Space,keypress(Space),,,,,,,,---- -- ----- -- ------ - ------- --- ----------<br>------------- ------ ------ ---- ---- ------- ----- -- ----<br>-------- ------- -- ---------- --- a --- ----- ----- ----<br>---- --- --- ----- --- ---- ---- ------- ----- ---- -------<br>--- --- -- ----- -- --- ---- -- --- ---- -- ------ ------<br>--- ----- -- ----,119522.60000002384,119521.89999997616,119083.443,119086.30000001192,119089.474,119525.84,,23,a
screen,html.Screen,2_1_0_1_24,2022-02-03T14:20:00.633Z,,,,,,,,,,,,,,,,,53,,,,,,,,,,,,,,375.4600000119244,,response,,,,99,,,,,,,Space,keypress(Space),,,,,,,,---- -- ----- -- ------ - ------- --- ----------<br>------------- ------ ------ ---- ---- ------- ----- -- ----<br>-------- ------- -- ---------- --- - new ----- ----- ----<br>---- --- --- ----- --- ---- ---- ------- ----- ---- -------<br>--- --- -- ----- -- --- ---- -- --- ---- -- ------ ------<br>--- ----- -- ----,119902.10000002384,119901.30000001192,119519.721,119522.80000001192,119525.84,119907.65,,24,new
screen,html.Screen,2_1_0_1_25,2022-02-03T14:20:01.482Z,,,,,,,,,,,,,,,,,53,,,,,,,,,,,,,,842.3500000000058,,response,,,,99,,,,,,,Space,keypress(Space),,,,,,,,---- -- ----- -- ------ - ------- --- ----------<br>------------- ------ ------ ---- ---- ------- ----- -- ----<br>-------- ------- -- ---------- --- - --- study ----- ----<br>---- --- --- ----- --- ---- ---- ------- ----- ---- -------<br>--- --- -- ----- -- --- ---- -- --- ---- -- ------ ------<br>--- ----- -- ----,120750.80000001192,120750,119901.651,119902.19999998808,119907.65,120756.38,,25,study
screen,html.Screen,2_1_0_1_26,2022-02-03T14:20:01.823Z,,,,,,,,,,,,,,,,,53,,,,,,,,,,,,,,335.0199999761535,,response,,,,99,,,,,,,Space,keypress(Space),,,,,,,,---- -- ----- -- ------ - ------- --- ----------<br>------------- ------ ------ ---- ---- ------- ----- -- ----<br>-------- ------- -- ---------- --- - --- ----- finds ----<br>---- --- --- ----- --- ---- ---- ------- ----- ---- -------<br>--- --- -- ----- -- --- ---- -- --- ---- -- ------ ------<br>--- ----- -- ----,121092.10000002384,121091.39999997616,120749.944,120751.10000002384,120756.38,121095.748,,26,finds
screen,html.Screen,2_1_0_1_27,2022-02-03T14:20:02.207Z,,,,,,,,,,,,,,,,,53,,,,,,,,,,,,,,378.852000023835,,response,,,,99,,,,,,,Space,keypress(Space),,,,,,,,---- -- ----- -- ------ - ------- --- ----------<br>------------- ------ ------ ---- ---- ------- ----- -- ----<br>-------- ------- -- ---------- --- - --- ----- ----- that<br>---- --- --- ----- --- ---- ---- ------- ----- ---- -------<br>--- --- -- ----- -- --- ---- -- --- ---- -- ------ ------<br>--- ----- -- ----,121475.5,121474.60000002384,121089.417,121092.30000001192,121095.748,121477.548,,27,that
screen,html.Screen,2_1_0_1_28,2022-02-03T14:20:02.553Z,,,,,,,,,,,,,,,,,53,,,,,,,,,,,,,,343.7520000119257,,response,,,,99,,,,,,,Space,keypress(Space),,,,,,,,---- -- ----- -- ------ - ------- --- ----------<br>------------- ------ ------ ---- ---- ------- ----- -- ----<br>-------- ------- -- ---------- --- - --- ----- ----- ----<br>it's --- --- ----- --- ---- ---- ------- ----- ---- -------<br>--- --- -- ----- -- --- ---- -- --- ---- -- ------ ------<br>--- ----- -- ----,121822.19999998808,121821.30000001192,121471.187,121475.60000002384,121477.548,121830.014,,28,it's
screen,html.Screen,2_1_0_1_29,2022-02-03T14:20:02.915Z,,,,,,,,,,,,,,,,,53,,,,,,,,,,,,,,352.88599997616257,,response,,,,99,,,,,,,Space,keypress(Space),,,,,,,,---- -- ----- -- ------ - ------- --- ----------<br>------------- ------ ------ ---- ---- ------- ----- -- ----<br>-------- ------- -- ---------- --- - --- ----- ----- ----<br>---- not --- ----- --- ---- ---- ------- ----- ---- -------<br>--- --- -- ----- -- --- ---- -- --- ---- -- ------ ------<br>--- ----- -- ----,122183.69999998808,122182.89999997616,121822.798,121822.39999997616,121830.014,122186.586,,29,not
screen,html.Screen,2_1_0_1_30,2022-02-03T14:20:03.297Z,,,,,,,,,,,,,,,,,53,,,,,,,,,,,,,,378.6139999880834,,response,,,,99,,,,,,,Space,keypress(Space),,,,,,,,---- -- ----- -- ------ - ------- --- ----------<br>------------- ------ ------ ---- ---- ------- ----- -- ----<br>-------- ------- -- ---------- --- - --- ----- ----- ----<br>---- --- how ----- --- ---- ---- ------- ----- ---- -------<br>--- --- -- ----- -- --- ---- -- --- ---- -- ------ ------<br>--- ----- -- ----,122565.89999997616,122565.19999998808,122180.237,122183.80000001192,122186.586,122568.417,,30,how
screen,html.Screen,2_1_0_1_31,2022-02-03T14:20:03.684Z,,,,,,,,,,,,,,,,,53,,,,,,,,,,,,,,383.5829999999987,,response,,,,99,,,,,,,Space,keypress(Space),,,,,,,,---- -- ----- -- ------ - ------- --- ----------<br>------------- ------ ------ ---- ---- ------- ----- -- ----<br>-------- ------- -- ---------- --- - --- ----- ----- ----<br>---- --- --- close --- ---- ---- ------- ----- ---- -------<br>--- --- -- ----- -- --- ---- -- --- ---- -- ------ ------<br>--- ----- -- ----,122952.80000001192,122952,122562.049,122566.10000002384,122568.417,122956.056,,31,close
screen,html.Screen,2_1_0_1_32,2022-02-03T14:20:04.147Z,,,,,,,,,,,,,,,,,53,,,,,,,,,,,,,,458.2440000119241,,response,,,,99,,,,,,,Space,keypress(Space),,,,,,,,---- -- ----- -- ------ - ------- --- ----------<br>------------- ------ ------ ---- ---- ------- ----- -- ----<br>-------- ------- -- ---------- --- - --- ----- ----- ----<br>---- --- --- ----- you ---- ---- ------- ----- ---- -------<br>--- --- -- ----- -- --- ---- -- --- ---- -- ------ ------<br>--- ----- -- ----,123416.19999998808,123414.30000001192,122949.924,122952.89999997616,122956.056,123422.7,,32,you
screen,html.Screen,2_1_0_1_33,2022-02-03T14:20:04.573Z,,,,,,,,,,,,,,,,,53,,,,,,,,,,,,,,418.499999988082,,response,,,,99,,,,,,,Space,keypress(Space),,,,,,,,---- -- ----- -- ------ - ------- --- ----------<br>------------- ------ ------ ---- ---- ------- ----- -- ----<br>-------- ------- -- ---------- --- - --- ----- ----- ----<br>---- --- --- ----- --- feel ---- ------- ----- ---- -------<br>--- --- -- ----- -- --- ---- -- --- ---- -- ------ ------<br>--- ----- -- ----,123841.89999997616,123841.19999998808,123416.577,123416.19999998808,123422.7,123846.906,,33,feel
screen,html.Screen,2_1_0_1_34,2022-02-03T14:20:05.102Z,,,,,,,,,,,,,,,,,53,,,,,,,,,,,,,,522.5939999999973,,response,,,,99,,,,,,,Space,keypress(Space),,,,,,,,---- -- ----- -- ------ - ------- --- ----------<br>------------- ------ ------ ---- ---- ------- ----- -- ----<br>-------- ------- -- ---------- --- - --- ----- ----- ----<br>---- --- --- ----- --- ---- that ------- ----- ---- -------<br>--- --- -- ----- -- --- ---- -- --- ---- -- ------ ------<br>--- ----- -- ----,124370.30000001192,124369.5,123840.817,123842,123846.906,124374.161,,34,that
screen,html.Screen,2_1_0_1_35,2022-02-03T14:20:05.700Z,,,,,,,,,,,,,,,,,53,,,,,,,,,,,,,,593.7389999761654,,response,,,,99,,,,,,,Space,keypress(Space),,,,,,,,---- -- ----- -- ------ - ------- --- ----------<br>------------- ------ ------ ---- ---- ------- ----- -- ----<br>-------- ------- -- ---------- --- - --- ----- ----- ----<br>---- --- --- ----- --- ---- ---- matters ----- ---- -------<br>--- --- -- ----- -- --- ---- -- --- ---- -- ------ ------<br>--- ----- -- ----,124968.69999998808,124967.89999997616,124368.075,124370.39999997616,124374.161,124974.898,,35,matters
screen,html.Screen,2_1_0_1_36,2022-02-03T14:20:06.058Z,,,,,,,,,,,,,,,,,53,,,,,,,,,,,,,,351.2020000238408,,response,,,,99,,,,,,,Space,keypress(Space),,,,,,,,"---- -- ----- -- ------ - ------- --- ----------<br>------------- ------ ------ ---- ---- ------- ----- -- ----<br>-------- ------- -- ---------- --- - --- ----- ----- ----<br>---- --- --- ----- --- ---- ---- ------- most, ---- -------<br>--- --- -- ----- -- --- ---- -- --- ---- -- ------ ------<br>--- ----- -- ----",125326.89999997616,125326.10000002384,124968.046,124968.89999997616,124974.898,125331.731,,36,"most,"
screen,html.Screen,2_1_0_1_37,2022-02-03T14:20:06.716Z,,,,,,,,,,,,,,,,,53,,,,,,,,,,,,,,651.1689999761584,,response,,,,99,,,,,,,Space,keypress(Space),,,,,,,,---- -- ----- -- ------ - ------- --- ----------<br>------------- ------ ------ ---- ---- ------- ----- -- ----<br>-------- ------- -- ---------- --- - --- ----- ----- ----<br>---- --- --- ----- --- ---- ---- ------- ----- it's -------<br>--- --- -- ----- -- --- ---- -- --- ---- -- ------ ------<br>--- ----- -- ----,125984.30000001192,125982.89999997616,125325.617,125326.89999997616,125331.731,125996.763,,37,it's
screen,html.Screen,2_1_0_1_38,2022-02-03T14:20:07.022Z,,,,,,,,,,,,,,,,,53,,,,,,,,,,,,,,293.33700002383557,,response,,,,99,,,,,,,Space,keypress(Space),,,,,,,,---- -- ----- -- ------ - ------- --- ----------<br>------------- ------ ------ ---- ---- ------- ----- -- ----<br>-------- ------- -- ---------- --- - --- ----- ----- ----<br>---- --- --- ----- --- ---- ---- ------- ----- ---- whether<br>--- --- -- ----- -- --- ---- -- --- ---- -- ------ ------<br>--- ----- -- ----,126290.89999997616,126290.10000002384,125980.152,125984.39999997616,125996.763,126295.354,,38,whether
screen,html.Screen,2_1_0_1_39,2022-02-03T14:20:07.220Z,,,,,,,,,,,,,,,,,53,,,,,,,,,,,,,,193.0459999761515,,response,,,,99,,,,,,,Space,keypress(Space),,,,,,,,---- -- ----- -- ------ - ------- --- ----------<br>------------- ------ ------ ---- ---- ------- ----- -- ----<br>-------- ------- -- ---------- --- - --- ----- ----- ----<br>---- --- --- ----- --- ---- ---- ------- ----- ---- -------<br>you --- -- ----- -- --- ---- -- --- ---- -- ------ ------<br>--- ----- -- ----,126489.19999998808,126488.39999997616,126289.211,126291,126295.354,126495.362,,39,you
screen,html.Screen,2_1_0_1_40,2022-02-03T14:20:07.636Z,,,,,,,,,,,,,,,,,53,,,,,,,,,,,,,,408.23800002384814,,response,,,,99,,,,,,,Space,keypress(Space),,,,,,,,---- -- ----- -- ------ - ------- --- ----------<br>------------- ------ ------ ---- ---- ------- ----- -- ----<br>-------- ------- -- ---------- --- - --- ----- ----- ----<br>---- --- --- ----- --- ---- ---- ------- ----- ---- -------<br>--- are -- ----- -- --- ---- -- --- ---- -- ------ ------<br>--- ----- -- ----,126904.30000001192,126903.60000002384,126489.246,126489.39999997616,126495.362,126907.43,,40,are
screen,html.Screen,2_1_0_1_41,2022-02-03T14:20:07.820Z,,,,,,,,,,,,,,,,,53,,,,,,,,,,,,,,180.67000002384884,,response,,,,99,,,,,,,Space,keypress(Space),,,,,,,,---- -- ----- -- ------ - ------- --- ----------<br>------------- ------ ------ ---- ---- ------- ----- -- ----<br>-------- ------- -- ---------- --- - --- ----- ----- ----<br>---- --- --- ----- --- ---- ---- ------- ----- ---- -------<br>--- --- as ----- -- --- ---- -- --- ---- -- ------ ------<br>--- ----- -- ----,127088.89999997616,127088.10000002384,126901.305,126904.39999997616,126907.43,127095.27,,41,as
screen,html.Screen,2_1_0_1_42,2022-02-03T14:20:08.226Z,,,,,,,,,,,,,,,,,53,,,,,,,,,,,,,,398.429999988075,,response,,,,99,,,,,,,Space,keypress(Space),,,,,,,,---- -- ----- -- ------ - ------- --- ----------<br>------------- ------ ------ ---- ---- ------- ----- -- ----<br>-------- ------- -- ---------- --- - --- ----- ----- ----<br>---- --- --- ----- --- ---- ---- ------- ----- ---- -------<br>--- --- -- close -- --- ---- -- --- ---- -- ------ ------<br>--- ----- -- ----,127494.39999997616,127493.69999998808,127089.245,127089.10000002384,127095.27,127501.734,,42,close
screen,html.Screen,2_1_0_1_43,2022-02-03T14:20:08.426Z,,,,,,,,,,,,,,,,,53,,,,,,,,,,,,,,191.76600000000326,,response,,,,99,,,,,,,Space,keypress(Space),,,,,,,,---- -- ----- -- ------ - ------- --- ----------<br>------------- ------ ------ ---- ---- ------- ----- -- ----<br>-------- ------- -- ---------- --- - --- ----- ----- ----<br>---- --- --- ----- --- ---- ---- ------- ----- ---- -------<br>--- --- -- ----- as --- ---- -- --- ---- -- ------ ------<br>--- ----- -- ----,127694.19999998808,127693.5,127489.308,127494.5,127501.734,127706.31,,43,as
screen,html.Screen,2_1_0_1_44,2022-02-03T14:20:08.789Z,,,,,,,,,,,,,,,,,53,,,,,,,,,,,,,,350.2900000238442,,response,,,,99,,,,,,,Space,keypress(Space),,,,,,,,---- -- ----- -- ------ - ------- --- ----------<br>------------- ------ ------ ---- ---- ------- ----- -- ----<br>-------- ------- -- ---------- --- - --- ----- ----- ----<br>---- --- --- ----- --- ---- ---- ------- ----- ---- -------<br>--- --- -- ----- -- you ---- -- --- ---- -- ------ ------<br>--- ----- -- ----,128057.39999997616,128056.60000002384,127689.642,127694.39999997616,127706.31,128059.239,,44,you
screen,html.Screen,2_1_0_1_45,2022-02-03T14:20:08.978Z,,,,,,,,,,,,,,,,,53,,,,,,,,,,,,,,186.36100002384046,,response,,,,99,,,,,,,Space,keypress(Space),,,,,,,,---- -- ----- -- ------ - ------- --- ----------<br>------------- ------ ------ ---- ---- ------- ----- -- ----<br>-------- ------- -- ---------- --- - --- ----- ----- ----<br>---- --- --- ----- --- ---- ---- ------- ----- ---- -------<br>--- --- -- ----- -- --- want -- --- ---- -- ------ ------<br>--- ----- -- ----,128246.30000001192,128245.60000002384,128052.83,128057.5,128059.239,128252.853,,45,want
screen,html.Screen,2_1_0_1_46,2022-02-03T14:20:09.210Z,,,,,,,,,,,,,,,,,53,,,,,,,,,,,,,,225.44700001191813,,response,,,,99,,,,,,,Space,keypress(Space),,,,,,,,---- -- ----- -- ------ - ------- --- ----------<br>------------- ------ ------ ---- ---- ------- ----- -- ----<br>-------- ------- -- ---------- --- - --- ----- ----- ----<br>---- --- --- ----- --- ---- ---- ------- ----- ---- -------<br>--- --- -- ----- -- --- ---- to --- ---- -- ------ ------<br>--- ----- -- ----,128479,128478.30000001192,128246.791,128246.5,128252.853,128483.158,,46,to
screen,html.Screen,2_1_0_1_47,2022-02-03T14:20:09.410Z,,,,,,,,,,,,,,,,,53,,,,,,,,,,,,,,195.24199997616233,,response,,,,99,,,,,,,Space,keypress(Space),,,,,,,,"---- -- ----- -- ------ - ------- --- ----------<br>------------- ------ ------ ---- ---- ------- ----- -- ----<br>-------- ------- -- ---------- --- - --- ----- ----- ----<br>---- --- --- ----- --- ---- ---- ------- ----- ---- -------<br>--- --- -- ----- -- --- ---- -- be, ---- -- ------ ------<br>--- ----- -- ----",128679.19999998808,128678.39999997616,128477.291,128479.10000002384,128483.158,128683.145,,47,"be,"
screen,html.Screen,2_1_0_1_48,2022-02-03T14:20:09.580Z,,,,,,,,,,,,,,,,,53,,,,,,,,,,,,,,164.554999988075,,response,,,,99,,,,,,,Space,keypress(Space),,,,,,,,---- -- ----- -- ------ - ------- --- ----------<br>------------- ------ ------ ---- ---- ------- ----- -- ----<br>-------- ------- -- ---------- --- - --- ----- ----- ----<br>---- --- --- ----- --- ---- ---- ------- ----- ---- -------<br>--- --- -- ----- -- --- ---- -- --- even -- ------ ------<br>--- ----- -- ----,128848.39999997616,128847.69999998808,128677.043,128679.30000001192,128683.145,128852.844,,48,even
screen,html.Screen,2_1_0_1_49,2022-02-03T14:20:09.808Z,,,,,,,,,,,,,,,,,53,,,,,,,,,,,,,,223.35599998808175,,response,,,,99,,,,,,,Space,keypress(Space),,,,,,,,---- -- ----- -- ------ - ------- --- ----------<br>------------- ------ ------ ---- ---- ------- ----- -- ----<br>-------- ------- -- ---------- --- - --- ----- ----- ----<br>---- --- --- ----- --- ---- ---- ------- ----- ---- -------<br>--- --- -- ----- -- --- ---- -- --- ---- if ------ ------<br>--- ----- -- ----,129076.89999997616,129076.19999998808,128846.873,128848.60000002384,128852.844,129083.121,,49,if
screen,html.Screen,2_1_0_1_50,2022-02-03T14:20:09.964Z,,,,,,,,,,,,,,,,,53,,,,,,,,,,,,,,148.87900000000081,,response,,,,99,,,,,,,Space,keypress(Space),,,,,,,,---- -- ----- -- ------ - ------- --- ----------<br>------------- ------ ------ ---- ---- ------- ----- -- ----<br>-------- ------- -- ---------- --- - --- ----- ----- ----<br>---- --- --- ----- --- ---- ---- ------- ----- ---- -------<br>--- --- -- ----- -- --- ---- -- --- ---- -- that's ------<br>--- ----- -- ----,129232.80000001192,129232,129077.15,129077.10000002384,129083.121,129234.657,,50,that's
screen,html.Screen,2_1_0_1_51,2022-02-03T14:20:10.128Z,,,,,,,,,,,,,,,,,53,,,,,,,,,,,,,,161.54299998807255,,response,,,,99,,,,,,,Space,keypress(Space),,,,,,,,---- -- ----- -- ------ - ------- --- ----------<br>------------- ------ ------ ---- ---- ------- ----- -- ----<br>-------- ------- -- ---------- --- - --- ----- ----- ----<br>---- --- --- ----- --- ---- ---- ------- ----- ---- -------<br>--- --- -- ----- -- --- ---- -- --- ---- -- ------ really<br>--- ----- -- ----,129397,129396.19999998808,129228.574,129232.89999997616,129234.657,129419.37,,51,really
screen,html.Screen,2_1_0_1_52,2022-02-03T14:20:10.394Z,,,,,,,,,,,,,,,,,53,,,,,,,,,,,,,,242.43000001192559,,response,,,,99,,,,,,,Space,keypress(Space),,,,,,,,---- -- ----- -- ------ - ------- --- ----------<br>------------- ------ ------ ---- ---- ------- ----- -- ----<br>-------- ------- -- ---------- --- - --- ----- ----- ----<br>---- --- --- ----- --- ---- ---- ------- ----- ---- -------<br>--- --- -- ----- -- --- ---- -- --- ---- -- ------ ------<br>not ----- -- ----,129662.69999998808,129661.80000001192,129392.594,129397.19999998808,129419.37,129664.973,,52,not
screen,html.Screen,2_1_0_1_53,2022-02-03T14:20:10.887Z,,,,,,,,,,,,,,,,,53,,,,,,,,,,,,,,490.3270000119228,,response,,,,99,,,,,,,Space,keypress(Space),,,,,,,,---- -- ----- -- ------ - ------- --- ----------<br>------------- ------ ------ ---- ---- ------- ----- -- ----<br>-------- ------- -- ---------- --- - --- ----- ----- ----<br>---- --- --- ----- --- ---- ---- ------- ----- ---- -------<br>--- --- -- ----- -- --- ---- -- --- ---- -- ------ ------<br>--- close -- ----,130155.89999997616,130155.30000001192,129658.895,129662.80000001192,129664.973,130161.861,,53,close
screen,html.Screen,2_1_0_1_54,2022-02-03T14:20:11.080Z,,,,,,,,,,,,,,,,,53,,,,,,,,,,,,,,186.4390000119165,,response,,,,99,,,,,,,Space,keypress(Space),,,,,,,,---- -- ----- -- ------ - ------- --- ----------<br>------------- ------ ------ ---- ---- ------- ----- -- ----<br>-------- ------- -- ---------- --- - --- ----- ----- ----<br>---- --- --- ----- --- ---- ---- ------- ----- ---- -------<br>--- --- -- ----- -- --- ---- -- --- ---- -- ------ ------<br>--- ----- at ----,130349,130348.30000001192,130155.826,130156,130161.861,130355.843,,54,at
screen,html.Screen,2_1_0_1_55,2022-02-03T14:20:11.416Z,,,,,,,,,,,,,,,,,53,,,,,,,,,,,,,,328.2570000238484,,response,,,,99,,,,,,,Space,keypress(Space),,,,,,,,---- -- ----- -- ------ - ------- --- ----------<br>------------- ------ ------ ---- ---- ------- ----- -- ----<br>-------- ------- -- ---------- --- - --- ----- ----- ----<br>---- --- --- ----- --- ---- ---- ------- ----- ---- -------<br>--- --- -- ----- -- --- ---- -- --- ---- -- ------ ------<br>--- ----- -- all.,130684.89999997616,130684.10000002384,130343.84,130349.10000002384,130355.843,130695.198,,55,all.
Item 99,flow.Loop,2_1_0_1,2022-02-03T14:20:11.416Z,,,,,,,,,,,,,,,,,,,,,,,,,,,,,,,21769.979000023843,,completion,,,,,A,,,,,,,,,,,silence,,,,,130685.10000002384,130684.10000002384,108896.138,108897.60000002384,108914.121,130695.198,,,
Question 1,html.Screen,2_1_0_2,2022-02-03T14:20:16.447Z,,,,,,,,,,,,,,,,,,,,,,,,,,,,true,FALSE,,5019.701999976154,,response,,,,99,A,,,,,,FALSE,click #choice-2,,,,silence,,,,,135716,135714.89999997616,130683.037,130685.19999998808,130695.198,135725.36,,,
Question 2,html.Screen,2_1_0_3,2022-02-03T14:20:19.164Z,,,,,,,,,,,,,,,,,,,,,,,,,,,,true,TRUE,,2706.339999988093,,response,,,,99,A,,,,,,TRUE,click #choice-1,,,,silence,,,,,138433,138431.69999998808,135713.338,135716.19999998808,135725.36,138440.5,,,
Item 99,flow.Sequence,2_1_0,2022-02-03T14:20:19.165Z,,,,,,,,,,,,,,,,,,,,,,,,,,,,,,,39531.538999988086,,completion,,,,,,,,,,,,,,,,,,,,,138433.19999998808,138431.69999998808,98877.891,98885.30000001192,98900.161,138440.5,,,
Holding screen,html.Screen,2_1_1_0,2022-02-03T14:20:29.166Z,,,,,,,,,,,,,,,,,,,,,,,,,,,,,,,9999.810999999987,,timeout,,,,,,,,,,,,,,,,,,,,,148434.69999998808,148434.133,138428.377,138433.39999997616,138440.5,148440.311,,,
screen,html.Screen,2_1_1_1_0,2022-02-03T14:20:29.773Z,,,,,,,,,,,,,,,,,54,,,,,,,,,,,,,,600.689000000013,,response,,,,100,,,,,,,Space,keypress(Space),,,,,,,,At --- ---- --- ------ ----- ------- ---- -- --- ------- --<br>------- ---------- ------ -- ----- -- ----- -- ---- ------<br>--- ----- --- --- ------ -------- ----- --- ------ ----- --<br>----- ----- ---------- --- --- ------ ------ ---- -- ------<br>------- --- ------ ----- --- ---- ------- -- ---- --- --<br>------- ------,149041.69999998808,149041,148434.133,148435,148440.311,149046.232,,0,At
screen,html.Screen,2_1_1_1_1,2022-02-03T14:20:30.141Z,,,,,,,,,,,,,,,,,54,,,,,,,,,,,,,,363.0680000119319,,response,,,,100,,,,,,,Space,keypress(Space),,,,,,,,-- the ---- --- ------ ----- ------- ---- -- --- ------- --<br>------- ---------- ------ -- ----- -- ----- -- ---- ------<br>--- ----- --- --- ------ -------- ----- --- ------ ----- --<br>----- ----- ---------- --- --- ------ ------ ---- -- ------<br>------- --- ------ ----- --- ---- ------- -- ---- --- --<br>------- ------,149409.89999997616,149409.30000001192,149040.106,149041.89999997616,149046.232,149416.172,,1,the
screen,html.Screen,2_1_1_1_2,2022-02-03T14:20:30.565Z,,,,,,,,,,,,,,,,,54,,,,,,,,,,,,,,417.0279999880877,,response,,,,100,,,,,,,Space,keypress(Space),,,,,,,,-- --- time --- ------ ----- ------- ---- -- --- ------- --<br>------- ---------- ------ -- ----- -- ----- -- ---- ------<br>--- ----- --- --- ------ -------- ----- --- ------ ----- --<br>----- ----- ---------- --- --- ------ ------ ---- -- ------<br>------- --- ------ ----- --- ---- ------- -- ---- --- --<br>------- ------,149834.10000002384,149833.19999998808,149409.835,149410.10000002384,149416.172,149840.645,,2,time
screen,html.Screen,2_1_1_1_3,2022-02-03T14:20:30.932Z,,,,,,,,,,,,,,,,,54,,,,,,,,,,,,,,359.7549999761686,,response,,,,100,,,,,,,Space,keypress(Space),,,,,,,,-- --- ---- the ------ ----- ------- ---- -- --- ------- --<br>------- ---------- ------ -- ----- -- ----- -- ---- ------<br>--- ----- --- --- ------ -------- ----- --- ------ ----- --<br>----- ----- ---------- --- --- ------ ------ ---- -- ------<br>------- --- ------ ----- --- ---- ------- -- ---- --- --<br>------- ------,150201.19999998808,150200.39999997616,149834.034,149834.30000001192,149840.645,150204.253,,3,the
screen,html.Screen,2_1_1_1_4,2022-02-03T14:20:31.341Z,,,,,,,,,,,,,,,,,54,,,,,,,,,,,,,,405.14699997616117,,response,,,,100,,,,,,,Space,keypress(Space),,,,,,,,-- --- ---- --- French ----- ------- ---- -- --- ------- --<br>------- ---------- ------ -- ----- -- ----- -- ---- ------<br>--- ----- --- --- ------ -------- ----- --- ------ ----- --<br>----- ----- ---------- --- --- ------ ------ ---- -- ------<br>------- --- ------ ----- --- ---- ------- -- ---- --- --<br>------- ------,150610.10000002384,150609.39999997616,150197.654,150201.39999997616,150204.253,150616.432,,4,French
screen,html.Screen,2_1_1_1_5,2022-02-03T14:20:31.983Z,,,,,,,,,,,,,,,,,54,,,,,,,,,,,,,,634.1680000238412,,response,,,,100,,,,,,,Space,keypress(Space),,,,,,,,-- --- ---- --- ------ crown ------- ---- -- --- ------- --<br>------- ---------- ------ -- ----- -- ----- -- ---- ------<br>--- ----- --- --- ------ -------- ----- --- ------ ----- --<br>----- ----- ---------- --- --- ------ ------ ---- -- ------<br>------- --- ------ ----- --- ---- ------- -- ---- --- --<br>------- ------,151251.39999997616,151250.60000002384,150609.791,150610.30000001192,150616.432,151258.385,,5,crown
screen,html.Screen,2_1_1_1_6,2022-02-03T14:20:32.367Z,,,,,,,,,,,,,,,,,54,,,,,,,,,,,,,,377.21500002383254,,response,,,,100,,,,,,,Space,keypress(Space),,,,,,,,-- --- ---- --- ------ ----- secured ---- -- --- ------- --<br>------- ---------- ------ -- ----- -- ----- -- ---- ------<br>--- ----- --- --- ------ -------- ----- --- ------ ----- --<br>----- ----- ---------- --- --- ------ ------ ---- -- ------<br>------- --- ------ ----- --- ---- ------- -- ---- --- --<br>------- ------,151636.10000002384,151635.60000002384,151246.2,151251.5,151258.385,151640.372,,6,secured
screen,html.Screen,2_1_1_1_7,2022-02-03T14:20:32.848Z,,,,,,,,,,,,,,,,,54,,,,,,,,,,,,,,474.72800002383883,,response,,,,100,,,,,,,Space,keypress(Space),,,,,,,,-- --- ---- --- ------ ----- ------- much -- --- ------- --<br>------- ---------- ------ -- ----- -- ----- -- ---- ------<br>--- ----- --- --- ------ -------- ----- --- ------ ----- --<br>----- ----- ---------- --- --- ------ ------ ---- -- ------<br>------- --- ------ ----- --- ---- ------- -- ---- --- --<br>------- ------,152116.80000001192,152115.10000002384,151633.984,151636.30000001192,151640.372,152118.88,,7,much
screen,html.Screen,2_1_1_1_8,2022-02-03T14:20:33.130Z,,,,,,,,,,,,,,,,,54,,,,,,,,,,,,,,279.5199999761535,,response,,,,100,,,,,,,Space,keypress(Space),,,,,,,,-- --- ---- --- ------ ----- ------- ---- of --- ------- --<br>------- ---------- ------ -- ----- -- ----- -- ---- ------<br>--- ----- --- --- ------ -------- ----- --- ------ ----- --<br>----- ----- ---------- --- --- ------ ------ ---- -- ------<br>------- --- ------ ----- --- ---- ------- -- ---- --- --<br>------- ------,152399.19999998808,152398.39999997616,152112.751,152117,152118.88,152403.93,,8,of
screen,html.Screen,2_1_1_1_9,2022-02-03T14:20:33.342Z,,,,,,,,,,,,,,,,,54,,,,,,,,,,,,,,205.96999997616513,,response,,,,100,,,,,,,Space,keypress(Space),,,,,,,,-- --- ---- --- ------ ----- ------- ---- -- its ------- --<br>------- ---------- ------ -- ----- -- ----- -- ---- ------<br>--- ----- --- --- ------ -------- ----- --- ------ ----- --<br>----- ----- ---------- --- --- ------ ------ ---- -- ------<br>------- --- ------ ----- --- ---- ------- -- ---- --- --<br>------- ------,152610.60000002384,152609.89999997616,152397.732,152399.30000001192,152403.93,152615.825,,9,its
screen,html.Screen,2_1_1_1_10,2022-02-03T14:20:33.552Z,,,,,,,,,,,,,,,,,54,,,,,,,,,,,,,,204.27500002383022,,response,,,,100,,,,,,,Space,keypress(Space),,,,,,,,-- --- ---- --- ------ ----- ------- ---- -- --- revenue --<br>------- ---------- ------ -- ----- -- ----- -- ---- ------<br>--- ----- --- --- ------ -------- ----- --- ------ ----- --<br>----- ----- ---------- --- --- ------ ------ ---- -- ------<br>------- --- ------ ----- --- ---- ------- -- ---- --- --<br>------- ------,152821,152820.10000002384,152609.736,152610.69999998808,152615.825,152834.072,,10,revenue
screen,html.Screen,2_1_1_1_11,2022-02-03T14:20:33.879Z,,,,,,,,,,,,,,,,,54,,,,,,,,,,,,,,313.22800001193536,,response,,,,100,,,,,,,Space,keypress(Space),,,,,,,,-- --- ---- --- ------ ----- ------- ---- -- --- ------- by<br>------- ---------- ------ -- ----- -- ----- -- ---- ------<br>--- ----- --- --- ------ -------- ----- --- ------ ----- --<br>----- ----- ---------- --- --- ------ ------ ---- -- ------<br>------- --- ------ ----- --- ---- ------- -- ---- --- --<br>------- ------,153148,153147.30000001192,152828.248,152821.10000002384,152834.072,153158.273,,11,by
screen,html.Screen,2_1_1_1_12,2022-02-03T14:20:34.207Z,,,,,,,,,,,,,,,,,54,,,,,,,,,,,,,,316.9269999880926,,response,,,,100,,,,,,,Space,keypress(Space),,,,,,,,-- --- ---- --- ------ ----- ------- ---- -- --- ------- --<br>issuing ---------- ------ -- ----- -- ----- -- ---- ------<br>--- ----- --- --- ------ -------- ----- --- ------ ----- --<br>----- ----- ---------- --- --- ------ ------ ---- -- ------<br>------- --- ------ ----- --- ---- ------- -- ---- --- --<br>------- ------,153476.10000002384,153475.19999998808,153143.107,153148.10000002384,153158.273,153482.525,,12,issuing
screen,html.Screen,2_1_1_1_13,2022-02-03T14:20:34.455Z,,,,,,,,,,,,,,,,,54,,,,,,,,,,,,,,240.27500001192675,,response,,,,100,,,,,,,Space,keypress(Space),,,,,,,,-- --- ---- --- ------ ----- ------- ---- -- --- ------- --<br>------- government ------ -- ----- -- ----- -- ---- ------<br>--- ----- --- --- ------ -------- ----- --- ------ ----- --<br>----- ----- ---------- --- --- ------ ------ ---- -- ------<br>------- --- ------ ----- --- ---- ------- -- ---- --- --<br>------- ------,153723.5,153722.80000001192,153476.378,153476.19999998808,153482.525,153725.151,,13,government
screen,html.Screen,2_1_1_1_14,2022-02-03T14:20:34.717Z,,,,,,,,,,,,,,,,,54,,,,,,,,,,,,,,259.3489999999874,,response,,,,100,,,,,,,Space,keypress(Space),,,,,,,,-- --- ---- --- ------ ----- ------- ---- -- --- ------- --<br>------- ---------- bonds. -- ----- -- ----- -- ---- ------<br>--- ----- --- --- ------ -------- ----- --- ------ ----- --<br>----- ----- ---------- --- --- ------ ------ ---- -- ------<br>------- --- ------ ----- --- ---- ------- -- ---- --- --<br>------- ------,153985.30000001192,153984.5,153718.916,153723.60000002384,153725.151,153991.55,,14,bonds.
screen,html.Screen,2_1_1_1_15,2022-02-03T14:20:35.185Z,,,,,,,,,,,,,,,,,54,,,,,,,,,,,,,,461.25000001193257,,response,,,,100,,,,,,,Space,keypress(Space),,,,,,,,-- --- ---- --- ------ ----- ------- ---- -- --- ------- --<br>------- ---------- ------ In ----- -- ----- -- ---- ------<br>--- ----- --- --- ------ -------- ----- --- ------ ----- --<br>----- ----- ---------- --- --- ------ ------ ---- -- ------<br>------- --- ------ ----- --- ---- ------- -- ---- --- --<br>------- ------,154453.60000002384,154452.80000001192,153985.449,153985.39999997616,153991.55,154458.216,,15,In
screen,html.Screen,2_1_1_1_16,2022-02-03T14:20:35.426Z,,,,,,,,,,,,,,,,,54,,,,,,,,,,,,,,235.58400001193513,,response,,,,100,,,,,,,Space,keypress(Space),,,,,,,,"-- --- ---- --- ------ ----- ------- ---- -- --- ------- --<br>------- ---------- ------ -- 1727, -- ----- -- ---- ------<br>--- ----- --- --- ------ -------- ----- --- ------ ----- --<br>----- ----- ---------- --- --- ------ ------ ---- -- ------<br>------- --- ------ ----- --- ---- ------- -- ---- --- --<br>------- ------",154694.5,154693.80000001192,154452.092,154453.80000001192,154458.216,154700.842,,16,"1727,"
screen,html.Screen,2_1_1_1_17,2022-02-03T14:20:35.814Z,,,,,,,,,,,,,,,,,54,,,,,,,,,,,,,,381.25800002383767,,response,,,,100,,,,,,,Space,keypress(Space),,,,,,,,-- --- ---- --- ------ ----- ------- ---- -- --- ------- --<br>------- ---------- ------ -- ----- in ----- -- ---- ------<br>--- ----- --- --- ------ -------- ----- --- ------ ----- --<br>----- ----- ---------- --- --- ------ ------ ---- -- ------<br>------- --- ------ ----- --- ---- ------- -- ---- --- --<br>------- ------,155082.89999997616,155082.10000002384,154694.55,154694.69999998808,154700.842,155088.502,,17,in
screen,html.Screen,2_1_1_1_18,2022-02-03T14:20:36.096Z,,,,,,,,,,,,,,,,,54,,,,,,,,,,,,,,275.9979999999923,,response,,,,100,,,,,,,Space,keypress(Space),,,,,,,,-- --- ---- --- ------ ----- ------- ---- -- --- ------- --<br>------- ---------- ------ -- ----- -- order -- ---- ------<br>--- ----- --- --- ------ -------- ----- --- ------ ----- --<br>----- ----- ---------- --- --- ------ ------ ---- -- ------<br>------- --- ------ ----- --- ---- ------- -- ---- --- --<br>------- ------,155365.19999998808,155364.5,155082.369,155083,155088.502,155367.383,,18,order
screen,html.Screen,2_1_1_1_19,2022-02-03T14:20:36.366Z,,,,,,,,,,,,,,,,,54,,,,,,,,,,,,,,266.4170000119193,,response,,,,100,,,,,,,Space,keypress(Space),,,,,,,,-- --- ---- --- ------ ----- ------- ---- -- --- ------- --<br>------- ---------- ------ -- ----- -- ----- to ---- ------<br>--- ----- --- --- ------ -------- ----- --- ------ ----- --<br>----- ----- ---------- --- --- ------ ------ ---- -- ------<br>------- --- ------ ----- --- ---- ------- -- ---- --- --<br>------- ------,155634.5,155633.80000001192,155361.176,155365.30000001192,155367.383,155639.997,,19,to
screen,html.Screen,2_1_1_1_20,2022-02-03T14:20:36.573Z,,,,,,,,,,,,,,,,,54,,,,,,,,,,,,,,201.10300002383883,,response,,,,100,,,,,,,Space,keypress(Space),,,,,,,,-- --- ---- --- ------ ----- ------- ---- -- --- ------- --<br>------- ---------- ------ -- ----- -- ----- -- save ------<br>--- ----- --- --- ------ -------- ----- --- ------ ----- --<br>----- ----- ---------- --- --- ------ ------ ---- -- ------<br>------- --- ------ ----- --- ---- ------- -- ---- --- --<br>------- ------,155841.89999997616,155841.10000002384,155634.037,155634.60000002384,155639.997,155846.307,,20,save
screen,html.Screen,2_1_1_1_21,2022-02-03T14:20:36.745Z,,,,,,,,,,,,,,,,,54,,,,,,,,,,,,,,166.49300001192023,,response,,,,100,,,,,,,Space,keypress(Space),,,,,,,,"-- --- ---- --- ------ ----- ------- ---- -- --- ------- --<br>------- ---------- ------ -- ----- -- ----- -- ---- money,<br>--- ----- --- --- ------ -------- ----- --- ------ ----- --<br>----- ----- ---------- --- --- ------ ------ ---- -- ------<br>------- --- ------ ----- --- ---- ------- -- ---- --- --<br>------- ------",156013.60000002384,156012.80000001192,155840.259,155842.10000002384,155846.307,156015.833,,21,"money,"
screen,html.Screen,2_1_1_1_22,2022-02-03T14:20:37.242Z,,,,,,,,,,,,,,,,,54,,,,,,,,,,,,,,494.16699999998673,,response,,,,100,,,,,,,Space,keypress(Space),,,,,,,,-- --- ---- --- ------ ----- ------- ---- -- --- ------- --<br>------- ---------- ------ -- ----- -- ----- -- ---- ------<br>the ----- --- --- ------ -------- ----- --- ------ ----- --<br>----- ----- ---------- --- --- ------ ------ ---- -- ------<br>------- --- ------ ----- --- ---- ------- -- ---- --- --<br>------- ------,156510.89999997616,156510,156009.671,156013.69999998808,156015.833,156531.716,,22,the
screen,html.Screen,2_1_1_1_23,2022-02-03T14:20:37.448Z,,,,,,,,,,,,,,,,,54,,,,,,,,,,,,,,184.68399997617234,,response,,,,100,,,,,,,Space,keypress(Space),,,,,,,,-- --- ---- --- ------ ----- ------- ---- -- --- ------- --<br>------- ---------- ------ -- ----- -- ----- -- ---- ------<br>--- state --- --- ------ -------- ----- --- ------ ----- --<br>----- ----- ---------- --- --- ------ ------ ---- -- ------<br>------- --- ------ ----- --- ---- ------- -- ---- --- --<br>------- ------,156717.19999998808,156716.39999997616,156506.569,156511,156531.716,156718.723,,23,state
screen,html.Screen,2_1_1_1_24,2022-02-03T14:20:37.669Z,,,,,,,,,,,,,,,,,54,,,,,,,,,,,,,,217.97699998808093,,response,,,,100,,,,,,,Space,keypress(Space),,,,,,,,-- --- ---- --- ------ ----- ------- ---- -- --- ------- --<br>------- ---------- ------ -- ----- -- ----- -- ---- ------<br>--- ----- cut --- ------ -------- ----- --- ------ ----- --<br>----- ----- ---------- --- --- ------ ------ ---- -- ------<br>------- --- ------ ----- --- ---- ------- -- ---- --- --<br>------- ------,156937.39999997616,156936.69999998808,156712.84,156717.39999997616,156718.723,156943.014,,24,cut
screen,html.Screen,2_1_1_1_25,2022-02-03T14:20:37.988Z,,,,,,,,,,,,,,,,,54,,,,,,,,,,,,,,313.0860000238463,,response,,,,100,,,,,,,Space,keypress(Space),,,,,,,,-- --- ---- --- ------ ----- ------- ---- -- --- ------- --<br>------- ---------- ------ -- ----- -- ----- -- ---- ------<br>--- ----- --- the ------ -------- ----- --- ------ ----- --<br>----- ----- ---------- --- --- ------ ------ ---- -- ------<br>------- --- ------ ----- --- ---- ------- -- ---- --- --<br>------- ------,157256.80000001192,157256.10000002384,156936.871,156937.60000002384,156943.014,157270.785,,25,the
screen,html.Screen,2_1_1_1_26,2022-02-03T14:20:38.330Z,,,,,,,,,,,,,,,,,54,,,,,,,,,,,,,,326.9149999880756,,response,,,,100,,,,,,,Space,keypress(Space),,,,,,,,-- --- ---- --- ------ ----- ------- ---- -- --- ------- --<br>------- ---------- ------ -- ----- -- ----- -- ---- ------<br>--- ----- --- --- bonds' -------- ----- --- ------ ----- --<br>----- ----- ---------- --- --- ------ ------ ---- -- ------<br>------- --- ------ ----- --- ---- ------- -- ---- --- --<br>------- ------,157598.5,157597.69999998808,157252.418,157257,157270.785,157604.707,,26,bonds'
screen,html.Screen,2_1_1_1_27,2022-02-03T14:20:38.536Z,,,,,,,,,,,,,,,,,54,,,,,,,,,,,,,,199.59300001192605,,response,,,,100,,,,,,,Space,keypress(Space),,,,,,,,-- --- ---- --- ------ ----- ------- ---- -- --- ------- --<br>------- ---------- ------ -- ----- -- ----- -- ---- ------<br>--- ----- --- --- ------ interest ----- --- ------ ----- --<br>----- ----- ---------- --- --- ------ ------ ---- -- ------<br>------- --- ------ ----- --- ---- ------- -- ---- --- --<br>------- ------,157805.19999998808,157804.30000001192,157597.885,157598.60000002384,157604.707,157809.624,,27,interest
screen,html.Screen,2_1_1_1_28,2022-02-03T14:20:38.740Z,,,,,,,,,,,,,,,,,54,,,,,,,,,,,,,,198.57599998806836,,response,,,,100,,,,,,,Space,keypress(Space),,,,,,,,-- --- ---- --- ------ ----- ------- ---- -- --- ------- --<br>------- ---------- ------ -- ----- -- ----- -- ---- ------<br>--- ----- --- --- ------ -------- rate. --- ------ ----- --<br>----- ----- ---------- --- --- ------ ------ ---- -- ------<br>------- --- ------ ----- --- ---- ------- -- ---- --- --<br>------- ------,158009,158008.19999998808,157803.522,157805.30000001192,157809.624,158029.692,,28,rate.
screen,html.Screen,2_1_1_1_29,2022-02-03T14:20:39.285Z,,,,,,,,,,,,,,,,,54,,,,,,,,,,,,,,523.5079999880691,,response,,,,100,,,,,,,Space,keypress(Space),,,,,,,,-- --- ---- --- ------ ----- ------- ---- -- --- ------- --<br>------- ---------- ------ -- ----- -- ----- -- ---- ------<br>--- ----- --- --- ------ -------- ----- The ------ ----- --<br>----- ----- ---------- --- --- ------ ------ ---- -- ------<br>------- --- ------ ----- --- ---- ------- -- ---- --- --<br>------- ------,158553.89999997616,158553.19999998808,158003.556,158009.10000002384,158029.692,158566.107,,29,The
screen,html.Screen,2_1_1_1_30,2022-02-03T14:20:39.515Z,,,,,,,,,,,,,,,,,54,,,,,,,,,,,,,,216.29299997616909,,response,,,,100,,,,,,,Space,keypress(Space),,,,,,,,-- --- ---- --- ------ ----- ------- ---- -- --- ------- --<br>------- ---------- ------ -- ----- -- ----- -- ---- ------<br>--- ----- --- --- ------ -------- ----- --- market ----- --<br>----- ----- ---------- --- --- ------ ------ ---- -- ------<br>------- --- ------ ----- --- ---- ------- -- ---- --- --<br>------- ------,158783.19999998808,158782.39999997616,158549.091,158554.19999998808,158566.107,158785.364,,30,market
screen,html.Screen,2_1_1_1_31,2022-02-03T14:20:39.955Z,,,,,,,,,,,,,,,,,54,,,,,,,,,,,,,,437.8359999880777,,response,,,,100,,,,,,,Space,keypress(Space),,,,,,,,-- --- ---- --- ------ ----- ------- ---- -- --- ------- --<br>------- ---------- ------ -- ----- -- ----- -- ---- ------<br>--- ----- --- --- ------ -------- ----- --- ------ value --<br>----- ----- ---------- --- --- ------ ------ ---- -- ------<br>------- --- ------ ----- --- ---- ------- -- ---- --- --<br>------- ------,159223.89999997616,159223.19999998808,158779.264,158783.39999997616,158785.364,159227.768,,31,value
screen,html.Screen,2_1_1_1_32,2022-02-03T14:20:40.337Z,,,,,,,,,,,,,,,,,54,,,,,,,,,,,,,,376.73199999998906,,response,,,,100,,,,,,,Space,keypress(Space),,,,,,,,-- --- ---- --- ------ ----- ------- ---- -- --- ------- --<br>------- ---------- ------ -- ----- -- ----- -- ---- ------<br>--- ----- --- --- ------ -------- ----- --- ------ ----- of<br>----- ----- ---------- --- --- ------ ------ ---- -- ------<br>------- --- ------ ----- --- ---- ------- -- ---- --- --<br>------- ------,159605.39999997616,159604.5,159222.018,159224.10000002384,159227.768,159609.842,,32,of
screen,html.Screen,2_1_1_1_33,2022-02-03T14:20:40.568Z,,,,,,,,,,,,,,,,,54,,,,,,,,,,,,,,226.45800001191674,,response,,,,100,,,,,,,Space,keypress(Space),,,,,,,,-- --- ---- --- ------ ----- ------- ---- -- --- ------- --<br>------- ---------- ------ -- ----- -- ----- -- ---- ------<br>--- ----- --- --- ------ -------- ----- --- ------ ----- --<br>these ----- ---------- --- --- ------ ------ ---- -- ------<br>------- --- ------ ----- --- ---- ------- -- ---- --- --<br>------- ------,159837,159836.30000001192,159603.475,159605.60000002384,159609.842,159840.167,,33,these
screen,html.Screen,2_1_1_1_34,2022-02-03T14:20:40.830Z,,,,,,,,,,,,,,,,,54,,,,,,,,,,,,,,258.1330000119342,,response,,,,100,,,,,,,Space,keypress(Space),,,,,,,,-- --- ---- --- ------ ----- ------- ---- -- --- ------- --<br>------- ---------- ------ -- ----- -- ----- -- ---- ------<br>--- ----- --- --- ------ -------- ----- --- ------ ----- --<br>----- bonds ---------- --- --- ------ ------ ---- -- ------<br>------- --- ------ ----- --- ---- ------- -- ---- --- --<br>------- ------,160099,160098.30000001192,159834.076,159837.19999998808,159840.167,160100.481,,34,bonds
screen,html.Screen,2_1_1_1_35,2022-02-03T14:20:41.083Z,,,,,,,,,,,,,,,,,54,,,,,,,,,,,,,,250.91899997615837,,response,,,,100,,,,,,,Space,keypress(Space),,,,,,,,"-- --- ---- --- ------ ----- ------- ---- -- --- ------- --<br>------- ---------- ------ -- ----- -- ----- -- ---- ------<br>--- ----- --- --- ------ -------- ----- --- ------ ----- --<br>----- ----- plummeted, --- --- ------ ------ ---- -- ------<br>------- --- ------ ----- --- ---- ------- -- ---- --- --<br>------- ------",160352.19999998808,160351.39999997616,160094.352,160099.10000002384,160100.481,160355.047,,35,"plummeted,"
screen,html.Screen,2_1_1_1_36,2022-02-03T14:20:41.612Z,,,,,,,,,,,,,,,,,54,,,,,,,,,,,,,,524.6529999880877,,response,,,,100,,,,,,,Space,keypress(Space),,,,,,,,-- --- ---- --- ------ ----- ------- ---- -- --- ------- --<br>------- ---------- ------ -- ----- -- ----- -- ---- ------<br>--- ----- --- --- ------ -------- ----- --- ------ ----- --<br>----- ----- ---------- and --- ------ ------ ---- -- ------<br>------- --- ------ ----- --- ---- ------- -- ---- --- --<br>------- ------,160880.39999997616,160879.69999998808,160349.037,160352.30000001192,160355.047,160882.28,,36,and
screen,html.Screen,2_1_1_1_37,2022-02-03T14:20:41.966Z,,,,,,,,,,,,,,,,,54,,,,,,,,,,,,,,352.1199999761593,,response,,,,100,,,,,,,Space,keypress(Space),,,,,,,,-- --- ---- --- ------ ----- ------- ---- -- --- ------- --<br>------- ---------- ------ -- ----- -- ----- -- ---- ------<br>--- ----- --- --- ------ -------- ----- --- ------ ----- --<br>----- ----- ---------- --- the ------ ------ ---- -- ------<br>------- --- ------ ----- --- ---- ------- -- ---- --- --<br>------- ------,161235.10000002384,161234.39999997616,160876.149,160880.60000002384,160882.28,161240.043,,37,the
screen,html.Screen,2_1_1_1_38,2022-02-03T14:20:42.386Z,,,,,,,,,,,,,,,,,54,,,,,,,,,,,,,,414.05700002383674,,response,,,,100,,,,,,,Space,keypress(Space),,,,,,,,-- --- ---- --- ------ ----- ------- ---- -- --- ------- --<br>------- ---------- ------ -- ----- -- ----- -- ---- ------<br>--- ----- --- --- ------ -------- ----- --- ------ ----- --<br>----- ----- ---------- --- --- market ------ ---- -- ------<br>------- --- ------ ----- --- ---- ------- -- ---- --- --<br>------- ------,161655,161654.10000002384,161233.715,161235.19999998808,161240.043,161658.064,,38,market
screen,html.Screen,2_1_1_1_39,2022-02-03T14:20:42.573Z,,,,,,,,,,,,,,,,,54,,,,,,,,,,,,,,182.43599999998696,,response,,,,100,,,,,,,Space,keypress(Space),,,,,,,,-- --- ---- --- ------ ----- ------- ---- -- --- ------- --<br>------- ---------- ------ -- ----- -- ----- -- ---- ------<br>--- ----- --- --- ------ -------- ----- --- ------ ----- --<br>----- ----- ---------- --- --- ------ became ---- -- ------<br>------- --- ------ ----- --- ---- ------- -- ---- --- --<br>------- ------,161841.19999998808,161840.5,161651.96,161655.10000002384,161658.064,161845.87,,39,became
screen,html.Screen,2_1_1_1_40,2022-02-03T14:20:42.762Z,,,,,,,,,,,,,,,,,54,,,,,,,,,,,,,,184.0299999761628,,response,,,,100,,,,,,,Space,keypress(Space),,,,,,,,-- --- ---- --- ------ ----- ------- ---- -- --- ------- --<br>------- ---------- ------ -- ----- -- ----- -- ---- ------<br>--- ----- --- --- ------ -------- ----- --- ------ ----- --<br>----- ----- ---------- --- --- ------ ------ wary -- ------<br>------- --- ------ ----- --- ---- ------- -- ---- --- --<br>------- ------,162030.60000002384,162029.89999997616,161839.809,161841.30000001192,161845.87,162033.807,,40,wary
screen,html.Screen,2_1_1_1_41,2022-02-03T14:20:42.950Z,,,,,,,,,,,,,,,,,54,,,,,,,,,,,,,,183.59299997615744,,response,,,,100,,,,,,,Space,keypress(Space),,,,,,,,-- --- ---- --- ------ ----- ------- ---- -- --- ------- --<br>------- ---------- ------ -- ----- -- ----- -- ---- ------<br>--- ----- --- --- ------ -------- ----- --- ------ ----- --<br>----- ----- ---------- --- --- ------ ------ ---- of ------<br>------- --- ------ ----- --- ---- ------- -- ---- --- --<br>------- ------,162218.30000001192,162217.39999997616,162027.684,162030.69999998808,162033.807,162221.863,,41,of
screen,html.Screen,2_1_1_1_42,2022-02-03T14:20:43.390Z,,,,,,,,,,,,,,,,,54,,,,,,,,,,,,,,435.9370000119088,,response,,,,100,,,,,,,Space,keypress(Space),,,,,,,,-- --- ---- --- ------ ----- ------- ---- -- --- ------- --<br>------- ---------- ------ -- ----- -- ----- -- ---- ------<br>--- ----- --- --- ------ -------- ----- --- ------ ----- --<br>----- ----- ---------- --- --- ------ ------ ---- -- French<br>------- --- ------ ----- --- ---- ------- -- ---- --- --<br>------- ------,162658.80000001192,162657.80000001192,162215.541,162218.5,162221.863,162664.036,,42,French
screen,html.Screen,2_1_1_1_43,2022-02-03T14:20:43.555Z,,,,,,,,,,,,,,,,,54,,,,,,,,,,,,,,158.86399997616536,,response,,,,100,,,,,,,Space,keypress(Space),,,,,,,,-- --- ---- --- ------ ----- ------- ---- -- --- ------- --<br>------- ---------- ------ -- ----- -- ----- -- ---- ------<br>--- ----- --- --- ------ -------- ----- --- ------ ----- --<br>----- ----- ---------- --- --- ------ ------ ---- -- ------<br>credit. --- ------ ----- --- ---- ------- -- ---- --- --<br>------- ------,162823.80000001192,162822.89999997616,162658.137,162658.89999997616,162664.036,162827.999,,43,credit.
screen,html.Screen,2_1_1_1_44,2022-02-03T14:20:44.057Z,,,,,,,,,,,,,,,,,54,,,,,,,,,,,,,,496.70099998806836,,response,,,,100,,,,,,,Space,keypress(Space),,,,,,,,-- --- ---- --- ------ ----- ------- ---- -- --- ------- --<br>------- ---------- ------ -- ----- -- ----- -- ---- ------<br>--- ----- --- --- ------ -------- ----- --- ------ ----- --<br>----- ----- ---------- --- --- ------ ------ ---- -- ------<br>------- The ------ ----- --- ---- ------- -- ---- --- --<br>------- ------,163325.39999997616,163324.69999998808,162821.586,162823.89999997616,162827.999,163330.684,,44,The
screen,html.Screen,2_1_1_1_45,2022-02-03T14:20:44.547Z,,,,,,,,,,,,,,,,,54,,,,,,,,,,,,,,484.8159999999916,,response,,,,100,,,,,,,Space,keypress(Space),,,,,,,,-- --- ---- --- ------ ----- ------- ---- -- --- ------- --<br>------- ---------- ------ -- ----- -- ----- -- ---- ------<br>--- ----- --- --- ------ -------- ----- --- ------ ----- --<br>----- ----- ---------- --- --- ------ ------ ---- -- ------<br>------- --- French ----- --- ---- ------- -- ---- --- --<br>------- ------,163816.19999998808,163815.5,163324.562,163325.5,163330.684,163821.581,,45,French
screen,html.Screen,2_1_1_1_46,2022-02-03T14:20:45.093Z,,,,,,,,,,,,,,,,,54,,,,,,,,,,,,,,539.3189999761526,,response,,,,100,,,,,,,Space,keypress(Space),,,,,,,,-- --- ---- --- ------ ----- ------- ---- -- --- ------- --<br>------- ---------- ------ -- ----- -- ----- -- ---- ------<br>--- ----- --- --- ------ -------- ----- --- ------ ----- --<br>----- ----- ---------- --- --- ------ ------ ---- -- ------<br>------- --- ------ state --- ---- ------- -- ---- --- --<br>------- ------,164361.69999998808,164360.89999997616,163815.457,163816.39999997616,163821.581,164367.012,,46,state
screen,html.Screen,2_1_1_1_47,2022-02-03T14:20:45.587Z,,,,,,,,,,,,,,,,,54,,,,,,,,,,,,,,488.08800002385397,,response,,,,100,,,,,,,Space,keypress(Space),,,,,,,,-- --- ---- --- ------ ----- ------- ---- -- --- ------- --<br>------- ---------- ------ -- ----- -- ----- -- ---- ------<br>--- ----- --- --- ------ -------- ----- --- ------ ----- --<br>----- ----- ---------- --- --- ------ ------ ---- -- ------<br>------- --- ------ ----- was ---- ------- -- ---- --- --<br>------- ------,164855.80000001192,164855.10000002384,164361.007,164361.89999997616,164367.012,164858.27,,47,was
screen,html.Screen,2_1_1_1_48,2022-02-03T14:20:45.818Z,,,,,,,,,,,,,,,,,54,,,,,,,,,,,,,,227.0300000119314,,response,,,,100,,,,,,,Space,keypress(Space),,,,,,,,-- --- ---- --- ------ ----- ------- ---- -- --- ------- --<br>------- ---------- ------ -- ----- -- ----- -- ---- ------<br>--- ----- --- --- ------ -------- ----- --- ------ ----- --<br>----- ----- ---------- --- --- ------ ------ ---- -- ------<br>------- --- ------ ----- --- left ------- -- ---- --- --<br>------- ------,165086.10000002384,165085.30000001192,164851.899,164855.89999997616,164858.27,165088.445,,48,left
screen,html.Screen,2_1_1_1_49,2022-02-03T14:20:46.284Z,,,,,,,,,,,,,,,,,54,,,,,,,,,,,,,,463.6550000238349,,response,,,,100,,,,,,,Space,keypress(Space),,,,,,,,-- --- ---- --- ------ ----- ------- ---- -- --- ------- --<br>------- ---------- ------ -- ----- -- ----- -- ---- ------<br>--- ----- --- --- ------ -------- ----- --- ------ ----- --<br>----- ----- ---------- --- --- ------ ------ ---- -- ------<br>------- --- ------ ----- --- ---- without -- ---- --- --<br>------- ------,165552.80000001192,165552.10000002384,165082.291,165086.30000001192,165088.445,165554.876,,49,without
screen,html.Screen,2_1_1_1_50,2022-02-03T14:20:46.446Z,,,,,,,,,,,,,,,,,54,,,,,,,,,,,,,,158.52399997616885,,response,,,,100,,,,,,,Space,keypress(Space),,,,,,,,-- --- ---- --- ------ ----- ------- ---- -- --- ------- --<br>------- ---------- ------ -- ----- -- ----- -- ---- ------<br>--- ----- --- --- ------ -------- ----- --- ------ ----- --<br>----- ----- ---------- --- --- ------ ------ ---- -- ------<br>------- --- ------ ----- --- ---- ------- an ---- --- --<br>------- ------,165714.19999998808,165713.39999997616,165548.876,165553,165554.876,165718.496,,50,an
screen,html.Screen,2_1_1_1_51,2022-02-03T14:20:46.958Z,,,,,,,,,,,,,,,,,54,,,,,,,,,,,,,,507.20399998806533,,response,,,,100,,,,,,,Space,keypress(Space),,,,,,,,-- --- ---- --- ------ ----- ------- ---- -- --- ------- --<br>------- ---------- ------ -- ----- -- ----- -- ---- ------<br>--- ----- --- --- ------ -------- ----- --- ------ ----- --<br>----- ----- ---------- --- --- ------ ------ ---- -- ------<br>------- --- ------ ----- --- ---- ------- -- easy --- --<br>------- ------,166226.30000001192,166225.69999998808,165712.415,165714.30000001192,165718.496,166227.942,,51,easy
screen,html.Screen,2_1_1_1_52,2022-02-03T14:20:47.444Z,,,,,,,,,,,,,,,,,54,,,,,,,,,,,,,,483.45799997614813,,response,,,,100,,,,,,,Space,keypress(Space),,,,,,,,-- --- ---- --- ------ ----- ------- ---- -- --- ------- --<br>------- ---------- ------ -- ----- -- ----- -- ---- ------<br>--- ----- --- --- ------ -------- ----- --- ------ ----- --<br>----- ----- ---------- --- --- ------ ------ ---- -- ------<br>------- --- ------ ----- --- ---- ------- -- ---- way --<br>------- ------,166712,166711.39999997616,166221.466,166226.5,166227.942,166718.849,,52,way
screen,html.Screen,2_1_1_1_53,2022-02-03T14:20:47.654Z,,,,,,,,,,,,,,,,,54,,,,,,,,,,,,,,202.65100000001257,,response,,,,100,,,,,,,Space,keypress(Space),,,,,,,,-- --- ---- --- ------ ----- ------- ---- -- --- ------- --<br>------- ---------- ------ -- ----- -- ----- -- ---- ------<br>--- ----- --- --- ------ -------- ----- --- ------ ----- --<br>----- ----- ---------- --- --- ------ ------ ---- -- ------<br>------- --- ------ ----- --- ---- ------- -- ---- --- of<br>------- ------,166922.39999997616,166921.5,166712.331,166712.30000001192,166718.849,166924.58,,53,of
screen,html.Screen,2_1_1_1_54,2022-02-03T14:20:48.457Z,,,,,,,,,,,,,,,,,54,,,,,,,,,,,,,,800.5200000238547,,response,,,,100,,,,,,,Space,keypress(Space),,,,,,,,-- --- ---- --- ------ ----- ------- ---- -- --- ------- --<br>------- ---------- ------ -- ----- -- ----- -- ---- ------<br>--- ----- --- --- ------ -------- ----- --- ------ ----- --<br>----- ----- ---------- --- --- ------ ------ ---- -- ------<br>------- --- ------ ----- --- ---- ------- -- ---- --- --<br>raising ------,167725.89999997616,167725.10000002384,166918.425,166922.5,166924.58,167731.01,,54,raising
screen,html.Screen,2_1_1_1_55,2022-02-03T14:20:48.887Z,,,,,,,,,,,,,,,,,54,,,,,,,,,,,,,,423.88999997614883,,response,,,,100,,,,,,,Space,keypress(Space),,,,,,,,-- --- ---- --- ------ ----- ------- ---- -- --- ------- --<br>------- ---------- ------ -- ----- -- ----- -- ---- ------<br>--- ----- --- --- ------ -------- ----- --- ------ ----- --<br>----- ----- ---------- --- --- ------ ------ ---- -- ------<br>------- --- ------ ----- --- ---- ------- -- ---- --- --<br>------- money.,168155.60000002384,168154.89999997616,167724.466,167726,167731.01,168160.862,,55,money.
Item 100,flow.Loop,2_1_1_1,2022-02-03T14:20:48.888Z,,,,,,,,,,,,,,,,,,,,,,,,,,,,,,,19714.58899997617,,completion,,,,,A,,,,,,,,,,,silence,,,,,168155.89999997616,168154.89999997616,148434.133,148434.80000001192,148440.311,168160.862,,,
Question 1,html.Screen,2_1_1_2,2022-02-03T14:20:50.912Z,,,,,,,,,,,,,,,,,,,,,,,,,,,,true,TRUE,,2018.5379999761644,,response,,,,100,A,,,,,,TRUE,click #choice-1,,,,silence,,,,,170180.5,170179.39999997616,168154.803,168156,168160.862,170191.248,,,
Question 2,html.Screen,2_1_1_3,2022-02-03T14:20:53.443Z,,,,,,,,,,,,,,,,,,,,,,,,,,,,true,FALSE,,2518.9519999880868,,response,,,,100,A,,,,,,FALSE,click #choice-2,,,,silence,,,,,172711.69999998808,172710.19999998808,170185.102,170180.60000002384,170191.248,172719.065,,,
Item 100,flow.Sequence,2_1_1,2022-02-03T14:20:53.444Z,,,,,,,,,,,,,,,,,,,,,,,,,,,,,,,34269.69999998808,,completion,,,,,,,,,,,,,,,,,,,,,172711.89999997616,172710.19999998808,138428.377,138433.30000001192,138440.5,172719.065,,,
End of Practice,html.Page,2_1_2,2022-02-03T14:20:58.115Z,,,,,,,,,,,,,,,,,,,,,,,,,,,,,,,4663.735000011919,,form submission,,,,,,,,,,,,,,,,,,,,,177383.19999998808,177382.80000001192,172706.139,172712.10000002384,172719.065,177384.952,,,
Practice,flow.Sequence,2_1,2022-02-03T14:20:58.115Z,,,,,,,,,,,,,,,,,,,,,,,,,,,,,,,78482.63900001193,,completion,,,,,,,,,,,,,,,,,,,,,177383.39999997616,177382.80000001192,98877.891,98885.19999998808,98900.161,177384.952,,,
Trap_instruction,html.Page,2_2_0,2022-02-03T14:21:03.032Z,,,,,,,,,,,,,,,,,,,,,,,,,,,,,,,4914.848000011931,,form submission,,,,,,,,,,,,,,,,,,,,,182300.10000002384,182299.80000001192,177378.77,177383.5,177384.952,182324.391,,,
trap_trial,html.Screen,2_2_1,2022-02-03T14:21:07.514Z,,,,,,,,,,,,,,,,,,,,,,,,,,,,true,1,,4456.409000011918,,response,,,,,,,,,,,1,click #choice-1,,,,,,,,,186782.30000001192,186780.80000001192,182293.748,182300.30000001192,182324.391,186784.599,,,
end of trap trial,html.Page,2_2_2,2022-02-03T14:21:09.475Z,,,,,,,,,,,,,,,,,,,,,,,,,,,,,,,1958.7010000119335,,form submission,,,,,,,,,,,,,,,,,,,,,188743.60000002384,188743.30000001192,186778.512,186782.5,186784.599,188748.188,,,
Trap 1,flow.Sequence,2_2,2022-02-03T14:21:09.475Z,,,,,,,,,,,,,,,,,,,,,,,,,,,,,,,11358.34800001193,,completion,,,,,,,,,,,,,,,,,,,,,188743.80000001192,188743.30000001192,177378.77,177383.5,177384.952,188748.188,,,
Standby,html.Page,2_3_0,2022-02-03T14:21:17.474Z,,,,,,,,,,,,,,,,,,,,,,,,,,,,,,,7999.940999999992,,timeout,,,,,,,,,,,,,,,,,,,,,196742.39999997616,196741.857,188742.1,188743.89999997616,188748.188,196748.129,,,
Holding screen,html.Screen,2_3_1_0_0,2022-02-03T14:21:24.474Z,,,,,,,,,,,,,,,,,,,,,,,,,,,,,,,6999.609000000026,,timeout,,,,,,,,,,,,,,,,,,,,,203742.19999998808,203741.7,196741.857,196742.5,196748.129,203747.738,,,
screen,html.Screen,2_3_1_0_1_0,2022-02-03T14:21:25.357Z,,,,,,,,,,,,,,,,,2,,,,,,,,,,,,,,876.7619999999879,,response,,,,1,A,,,,,,Space,keypress(Space),,,,silence,,,,Two ---- ------ --- ------- ---------- ------- ----------<br>--- --------- --- ----------- ------- ----- ------- ---<br>--------- ---- -- --- ---- -- --------- -- ---- -------<br>-- --------- ------ --- ----- ------ ---- --- --------- --<br>------ - ---- -- --- ----------- ------- ---- ----- -----<br>--- -------- - ------ ---- -- ----- ---- --- --- -----------<br>-- -------,204625.30000001192,204624.5,203741.7,203742.5,203747.738,204626.794,,0,Two
screen,html.Screen,2_3_1_0_1_1,2022-02-03T14:21:25.753Z,,,,,,,,,,,,,,,,,2,,,,,,,,,,,,,,394.40599998808466,,response,,,,1,A,,,,,,Space,keypress(Space),,,,silence,,,,--- days ------ --- ------- ---------- ------- ----------<br>--- --------- --- ----------- ------- ----- ------- ---<br>--------- ---- -- --- ---- -- --------- -- ---- -------<br>-- --------- ------ --- ----- ------ ---- --- --------- --<br>------ - ---- -- --- ----------- ------- ---- ----- -----<br>--- -------- - ------ ---- -- ----- ---- --- --- -----------<br>-- -------,205021.80000001192,205021.19999998808,204620.406,204625.5,204626.794,205027.028,,1,days
screen,html.Screen,2_3_1_0_1_2,2022-02-03T14:21:26.272Z,,,,,,,,,,,,,,,,,2,,,,,,,,,,,,,,512.4720000000088,,response,,,,1,A,,,,,,Space,keypress(Space),,,,silence,,,,"--- ---- later, --- ------- ---------- ------- ----------<br>--- --------- --- ----------- ------- ----- ------- ---<br>--------- ---- -- --- ---- -- --------- -- ---- -------<br>-- --------- ------ --- ----- ------ ---- --- --------- --<br>------ - ---- -- --- ----------- ------- ---- ----- -----<br>--- -------- - ------ ---- -- ----- ---- --- --- -----------<br>-- -------",205540.30000001192,205539.5,205020.397,205022,205027.028,205558.617,,2,"later,"
screen,html.Screen,2_3_1_0_1_3,2022-02-03T14:21:26.729Z,,,,,,,,,,,,,,,,,2,,,,,,,,,,,,,,438.2829999761598,,response,,,,1,A,,,,,,Space,keypress(Space),,,,silence,,,,--- ---- ------ the ------- ---------- ------- ----------<br>--- --------- --- ----------- ------- ----- ------- ---<br>--------- ---- -- --- ---- -- --------- -- ---- -------<br>-- --------- ------ --- ----- ------ ---- --- --------- --<br>------ - ---- -- --- ----------- ------- ---- ----- -----<br>--- -------- - ------ ---- -- ----- ---- --- --- -----------<br>-- -------,205997.69999998808,205996.89999997616,205535.713,205540.39999997616,205558.617,206002.248,,3,the
screen,html.Screen,2_3_1_0_1_4,2022-02-03T14:21:27.096Z,,,,,,,,,,,,,,,,,2,,,,,,,,,,,,,,361.5520000119286,,response,,,,1,A,,,,,,Space,keypress(Space),,,,silence,,,,--- ---- ------ --- British ---------- ------- ----------<br>--- --------- --- ----------- ------- ----- ------- ---<br>--------- ---- -- --- ---- -- --------- -- ---- -------<br>-- --------- ------ --- ----- ------ ---- --- --------- --<br>------ - ---- -- --- ----------- ------- ---- ----- -----<br>--- -------- - ------ ---- -- ----- ---- --- --- -----------<br>-- -------,206364.69999998808,206363.80000001192,205996.145,205997.80000001192,206002.248,206380.991,,4,British
screen,html.Screen,2_3_1_0_1_5,2022-02-03T14:21:27.422Z,,,,,,,,,,,,,,,,,2,,,,,,,,,,,,,,308.70899998807,,response,,,,1,A,,,,,,Space,keypress(Space),,,,silence,,,,--- ---- ------ --- ------- astronomer ------- ----------<br>--- --------- --- ----------- ------- ----- ------- ---<br>--------- ---- -- --- ---- -- --------- -- ---- -------<br>-- --------- ------ --- ----- ------ ---- --- --------- --<br>------ - ---- -- --- ----------- ------- ---- ----- -----<br>--- -------- - ------ ---- -- ----- ---- --- --- -----------<br>-- -------,206690.5,206689.69999998808,206359.766,206364.89999997616,206380.991,206693.273,,5,astronomer
screen,html.Screen,2_3_1_0_1_6,2022-02-03T14:21:27.703Z,,,,,,,,,,,,,,,,,2,,,,,,,,,,,,,,277.9269999880926,,response,,,,1,A,,,,,,Space,keypress(Space),,,,silence,,,,--- ---- ------ --- ------- ---------- Richard ----------<br>--- --------- --- ----------- ------- ----- ------- ---<br>--------- ---- -- --- ---- -- --------- -- ---- -------<br>-- --------- ------ --- ----- ------ ---- --- --------- --<br>------ - ---- -- --- ----------- ------- ---- ----- -----<br>--- -------- - ------ ---- -- ----- ---- --- --- -----------<br>-- -------,206971.89999997616,206971.19999998808,206687.009,206690.60000002384,206693.273,206978.238,,6,Richard
screen,html.Screen,2_3_1_0_1_7,2022-02-03T14:21:28.119Z,,,,,,,,,,,,,,,,,2,,,,,,,,,,,,,,408.46199998806696,,response,,,,1,A,,,,,,Space,keypress(Space),,,,silence,,,,--- ---- ------ --- ------- ---------- ------- Carrington<br>--- --------- --- ----------- ------- ----- ------- ---<br>--------- ---- -- --- ---- -- --------- -- ---- -------<br>-- --------- ------ --- ----- ------ ---- --- --------- --<br>------ - ---- -- --- ----------- ------- ---- ----- -----<br>--- -------- - ------ ---- -- ----- ---- --- --- -----------<br>-- -------,207387.39999997616,207386.69999998808,206971.876,206972,206978.238,207390.476,,7,Carrington
screen,html.Screen,2_3_1_0_1_8,2022-02-03T14:21:28.421Z,,,,,,,,,,,,,,,,,2,,,,,,,,,,,,,,298.62400002384675,,response,,,,1,A,,,,,,Space,keypress(Space),,,,silence,,,,--- ---- ------ --- ------- ---------- ------- ----------<br>was --------- --- ----------- ------- ----- ------- ---<br>--------- ---- -- --- ---- -- --------- -- ---- -------<br>-- --------- ------ --- ----- ------ ---- --- --------- --<br>------ - ---- -- --- ----------- ------- ---- ----- -----<br>--- -------- - ------ ---- -- ----- ---- --- --- -----------<br>-- -------,207689.80000001192,207689.10000002384,207384.079,207387.60000002384,207390.476,207693.116,,8,was
screen,html.Screen,2_3_1_0_1_9,2022-02-03T14:21:28.716Z,,,,,,,,,,,,,,,,,2,,,,,,,,,,,,,,290.58399998807,,response,,,,1,A,,,,,,Space,keypress(Space),,,,silence,,,,--- ---- ------ --- ------- ---------- ------- ----------<br>--- observing --- ----------- ------- ----- ------- ---<br>--------- ---- -- --- ---- -- --------- -- ---- -------<br>-- --------- ------ --- ----- ------ ---- --- --------- --<br>------ - ---- -- --- ----------- ------- ---- ----- -----<br>--- -------- - ------ ---- -- ----- ---- --- --- -----------<br>-- -------,207984.30000001192,207983.69999998808,207686.995,207690,207693.116,207990.09,,9,observing
screen,html.Screen,2_3_1_0_1_10,2022-02-03T14:21:29.006Z,,,,,,,,,,,,,,,,,2,,,,,,,,,,,,,,283.4100000000035,,response,,,,1,A,,,,,,Space,keypress(Space),,,,silence,,,,--- ---- ------ --- ------- ---------- ------- ----------<br>--- --------- the ----------- ------- ----- ------- ---<br>--------- ---- -- --- ---- -- --------- -- ---- -------<br>-- --------- ------ --- ----- ------ ---- --- --------- --<br>------ - ---- -- --- ----------- ------- ---- ----- -----<br>--- -------- - ------ ---- -- ----- ---- --- --- -----------<br>-- -------,208274.30000001192,208273.5,207984.096,207984.5,207990.09,208280.955,,10,the
screen,html.Screen,2_3_1_0_1_11,2022-02-03T14:21:29.338Z,,,,,,,,,,,,,,,,,2,,,,,,,,,,,,,,324.5450000000128,,response,,,,1,A,,,,,,Space,keypress(Space),,,,silence,,,,--- ---- ------ --- ------- ---------- ------- ----------<br>--- --------- --- interesting ------- ----- ------- ---<br>--------- ---- -- --- ---- -- --------- -- ---- -------<br>-- --------- ------ --- ----- ------ ---- --- --------- --<br>------ - ---- -- --- ----------- ------- ---- ----- -----<br>--- -------- - ------ ---- -- ----- ---- --- --- -----------<br>-- -------,208606.30000001192,208605.5,208274.892,208274.5,208280.955,208608.487,,11,interesting
screen,html.Screen,2_3_1_0_1_12,2022-02-03T14:21:29.830Z,,,,,,,,,,,,,,,,,2,,,,,,,,,,,,,,489.21299998808536,,response,,,,1,A,,,,,,Space,keypress(Space),,,,silence,,,,--- ---- ------ --- ------- ---------- ------- ----------<br>--- --------- --- ----------- sunspot ----- ------- ---<br>--------- ---- -- --- ---- -- --------- -- ---- -------<br>-- --------- ------ --- ----- ------ ---- --- --------- --<br>------ - ---- -- --- ----------- ------- ---- ----- -----<br>--- -------- - ------ ---- -- ----- ---- --- --- -----------<br>-- -------,209098.39999997616,209097.69999998808,208602.149,208606.39999997616,208608.487,209105.486,,12,sunspot
screen,html.Screen,2_3_1_0_1_13,2022-02-03T14:21:30.327Z,,,,,,,,,,,,,,,,,2,,,,,,,,,,,,,,488.8140000119165,,response,,,,1,A,,,,,,Space,keypress(Space),,,,silence,,,,--- ---- ------ --- ------- ---------- ------- ----------<br>--- --------- --- ----------- ------- group ------- ---<br>--------- ---- -- --- ---- -- --------- -- ---- -------<br>-- --------- ------ --- ----- ------ ---- --- --------- --<br>------ - ---- -- --- ----------- ------- ---- ----- -----<br>--- -------- - ------ ---- -- ----- ---- --- --- -----------<br>-- -------,209595.69999998808,209594.30000001192,209093.005,209098.60000002384,209105.486,209602.151,,13,group
screen,html.Screen,2_3_1_0_1_14,2022-02-03T14:21:30.773Z,,,,,,,,,,,,,,,,,2,,,,,,,,,,,,,,438.64900001190836,,response,,,,1,A,,,,,,Space,keypress(Space),,,,silence,,,,--- ---- ------ --- ------- ---------- ------- ----------<br>--- --------- --- ----------- ------- ----- through ---<br>--------- ---- -- --- ---- -- --------- -- ---- -------<br>-- --------- ------ --- ----- ------ ---- --- --------- --<br>------ - ---- -- --- ----------- ------- ---- ----- -----<br>--- -------- - ------ ---- -- ----- ---- --- --- -----------<br>-- -------,210041.80000001192,210040.80000001192,209596.048,209595.89999997616,209602.151,210044.619,,14,through
screen,html.Screen,2_3_1_0_1_15,2022-02-03T14:21:31.196Z,,,,,,,,,,,,,,,,,2,,,,,,,,,,,,,,419.38099999999395,,response,,,,1,A,,,,,,Space,keypress(Space),,,,silence,,,,--- ---- ------ --- ------- ---------- ------- ----------<br>--- --------- --- ----------- ------- ----- ------- his<br>--------- ---- -- --- ---- -- --------- -- ---- -------<br>-- --------- ------ --- ----- ------ ---- --- --------- --<br>------ - ---- -- --- ----------- ------- ---- ----- -----<br>--- -------- - ------ ---- -- ----- ---- --- --- -----------<br>-- -------,210464.69999998808,210464,210038.45,210041.89999997616,210044.619,210468.791,,15,his
screen,html.Screen,2_3_1_0_1_16,2022-02-03T14:21:31.681Z,,,,,,,,,,,,,,,,,2,,,,,,,,,,,,,,479.70900000000256,,response,,,,1,A,,,,,,Space,keypress(Space),,,,silence,,,,--- ---- ------ --- ------- ---------- ------- ----------<br>--- --------- --- ----------- ------- ----- ------- ---<br>telescope ---- -- --- ---- -- --------- -- ---- -------<br>-- --------- ------ --- ----- ------ ---- --- --------- --<br>------ - ---- -- --- ----------- ------- ---- ----- -----<br>--- -------- - ------ ---- -- ----- ---- --- --- -----------<br>-- -------,210949.19999998808,210948.5,210462.714,210464.89999997616,210468.791,210953.651,,16,telescope
screen,html.Screen,2_3_1_0_1_17,2022-02-03T14:21:32.659Z,,,,,,,,,,,,,,,,,2,,,,,,,,,,,,,,972.8489999999874,,response,,,,1,A,,,,,,Space,keypress(Space),,,,silence,,,,--- ---- ------ --- ------- ---------- ------- ----------<br>--- --------- --- ----------- ------- ----- ------- ---<br>--------- when -- --- ---- -- --------- -- ---- -------<br>-- --------- ------ --- ----- ------ ---- --- --------- --<br>------ - ---- -- --- ----------- ------- ---- ----- -----<br>--- -------- - ------ ---- -- ----- ---- --- --- -----------<br>-- -------,211927.5,211926.5,210947.522,210949.30000001192,210953.651,211929.602,,17,when
screen,html.Screen,2_3_1_0_1_18,2022-02-03T14:21:33.170Z,,,,,,,,,,,,,,,,,2,,,,,,,,,,,,,,507.8979999999865,,response,,,,1,A,,,,,,Space,keypress(Space),,,,silence,,,,--- ---- ------ --- ------- ---------- ------- ----------<br>--- --------- --- ----------- ------- ----- ------- ---<br>--------- ---- he --- ---- -- --------- -- ---- -------<br>-- --------- ------ --- ----- ------ ---- --- --------- --<br>------ - ---- -- --- ----------- ------- ---- ----- -----<br>--- -------- - ------ ---- -- ----- ---- --- --- -----------<br>-- -------,212438.19999998808,212437.5,211923.233,211927.60000002384,211929.602,212444.489,,18,he
screen,html.Screen,2_3_1_0_1_19,2022-02-03T14:21:33.651Z,,,,,,,,,,,,,,,,,2,,,,,,,,,,,,,,474.5109999999986,,response,,,,1,A,,,,,,Space,keypress(Space),,,,silence,,,,--- ---- ------ --- ------- ---------- ------- ----------<br>--- --------- --- ----------- ------- ----- ------- ---<br>--------- ---- -- saw ---- -- --------- -- ---- -------<br>-- --------- ------ --- ----- ------ ---- --- --------- --<br>------ - ---- -- --- ----------- ------- ---- ----- -----<br>--- -------- - ------ ---- -- ----- ---- --- --- -----------<br>-- -------,212919.69999998808,212919,212438.391,212438.19999998808,212444.489,212923.267,,19,saw
screen,html.Screen,2_3_1_0_1_20,2022-02-03T14:21:34.065Z,,,,,,,,,,,,,,,,,2,,,,,,,,,,,,,,409.4329999880865,,response,,,,1,A,,,,,,Space,keypress(Space),,,,silence,,,,--- ---- ------ --- ------- ---------- ------- ----------<br>--- --------- --- ----------- ------- ----- ------- ---<br>--------- ---- -- --- what -- --------- -- ---- -------<br>-- --------- ------ --- ----- ------ ---- --- --------- --<br>------ - ---- -- --- ----------- ------- ---- ----- -----<br>--- -------- - ------ ---- -- ----- ---- --- --- -----------<br>-- -------,213333.60000002384,213332.69999998808,212917.159,212920,212923.267,213335.385,,20,what
screen,html.Screen,2_3_1_0_1_21,2022-02-03T14:21:34.370Z,,,,,,,,,,,,,,,,,2,,,,,,,,,,,,,,302.4150000119116,,response,,,,1,A,,,,,,Space,keypress(Space),,,,silence,,,,--- ---- ------ --- ------- ---------- ------- ----------<br>--- --------- --- ----------- ------- ----- ------- ---<br>--------- ---- -- --- ---- he --------- -- ---- -------<br>-- --------- ------ --- ----- ------ ---- --- --------- --<br>------ - ---- -- --- ----------- ------- ---- ----- -----<br>--- -------- - ------ ---- -- ----- ---- --- --- -----------<br>-- -------,213638.60000002384,213637.80000001192,213329.392,213333.89999997616,213335.385,213644.528,,21,he
screen,html.Screen,2_3_1_0_1_22,2022-02-03T14:21:34.549Z,,,,,,,,,,,,,,,,,2,,,,,,,,,,,,,,172.0720000238507,,response,,,,1,A,,,,,,Space,keypress(Space),,,,silence,,,,--- ---- ------ --- ------- ---------- ------- ----------<br>--- --------- --- ----------- ------- ----- ------- ---<br>--------- ---- -- --- ---- -- described -- ---- -------<br>-- --------- ------ --- ----- ------ ---- --- --------- --<br>------ - ---- -- --- ----------- ------- ---- ----- -----<br>--- -------- - ------ ---- -- ----- ---- --- --- -----------<br>-- -------,213817.39999997616,213816.60000002384,213638.623,213638.69999998808,213644.528,213820.207,,22,described
screen,html.Screen,2_3_1_0_1_23,2022-02-03T14:21:34.979Z,,,,,,,,,,,,,,,,,2,,,,,,,,,,,,,,426.2930000000051,,response,,,,1,A,,,,,,Space,keypress(Space),,,,silence,,,,--- ---- ------ --- ------- ---------- ------- ----------<br>--- --------- --- ----------- ------- ----- ------- ---<br>--------- ---- -- --- ---- -- --------- as ---- -------<br>-- --------- ------ --- ----- ------ ---- --- --------- --<br>------ - ---- -- --- ----------- ------- ---- ----- -----<br>--- -------- - ------ ---- -- ----- ---- --- --- -----------<br>-- -------,214247.19999998808,214246.5,213814.111,213817.5,213820.207,214280.806,,23,as
screen,html.Screen,2_3_1_0_1_24,2022-02-03T14:21:35.302Z,,,,,,,,,,,,,,,,,2,,,,,,,,,,,,,,288.9940000119095,,response,,,,1,A,,,,,,Space,keypress(Space),,,,silence,,,,"--- ---- ------ --- ------- ---------- ------- ----------<br>--- --------- --- ----------- ------- ----- ------- ---<br>--------- ---- -- --- ---- -- --------- -- ""two -------<br>-- --------- ------ --- ----- ------ ---- --- --------- --<br>------ - ---- -- --- ----------- ------- ---- ----- -----<br>--- -------- - ------ ---- -- ----- ---- --- --- -----------<br>-- -------",214570.60000002384,214569.80000001192,214244.493,214247.39999997616,214280.806,214588.786,,24,"""two"
screen,html.Screen,2_3_1_0_1_25,2022-02-03T14:21:35.731Z,,,,,,,,,,,,,,,,,2,,,,,,,,,,,,,,409.7140000000072,,response,,,,1,A,,,,,,Space,keypress(Space),,,,silence,,,,--- ---- ------ --- ------- ---------- ------- ----------<br>--- --------- --- ----------- ------- ----- ------- ---<br>--------- ---- -- --- ---- -- --------- -- ---- patches<br>-- --------- ------ --- ----- ------ ---- --- --------- --<br>------ - ---- -- --- ----------- ------- ---- ----- -----<br>--- -------- - ------ ---- -- ----- ---- --- --- -----------<br>-- -------,214999.19999998808,214998.5,214565.631,214570.80000001192,214588.786,215001.992,,25,patches
screen,html.Screen,2_3_1_0_1_26,2022-02-03T14:21:36.010Z,,,,,,,,,,,,,,,,,2,,,,,,,,,,,,,,275.6080000238435,,response,,,,1,A,,,,,,Space,keypress(Space),,,,silence,,,,--- ---- ------ --- ------- ---------- ------- ----------<br>--- --------- --- ----------- ------- ----- ------- ---<br>--------- ---- -- --- ---- -- --------- -- ---- -------<br>of --------- ------ --- ----- ------ ---- --- --------- --<br>------ - ---- -- --- ----------- ------- ---- ----- -----<br>--- -------- - ------ ---- -- ----- ---- --- --- -----------<br>-- -------,215278.39999997616,215277.60000002384,214995.913,214999.39999997616,215001.992,215281.018,,26,of
screen,html.Screen,2_3_1_0_1_27,2022-02-03T14:21:36.304Z,,,,,,,,,,,,,,,,,2,,,,,,,,,,,,,,290.6819999880681,,response,,,,1,A,,,,,,Space,keypress(Space),,,,silence,,,,--- ---- ------ --- ------- ---------- ------- ----------<br>--- --------- --- ----------- ------- ----- ------- ---<br>--------- ---- -- --- ---- -- --------- -- ---- -------<br>-- intensely ------ --- ----- ------ ---- --- --------- --<br>------ - ---- -- --- ----------- ------- ---- ----- -----<br>--- -------- - ------ ---- -- ----- ---- --- --- -----------<br>-- -------,215572.5,215571.69999998808,215274.656,215278.5,215281.018,215577.837,,27,intensely
screen,html.Screen,2_3_1_0_1_28,2022-02-03T14:21:36.556Z,,,,,,,,,,,,,,,,,2,,,,,,,,,,,,,,245.5629999761586,,response,,,,1,A,,,,,,Space,keypress(Space),,,,silence,,,,--- ---- ------ --- ------- ---------- ------- ----------<br>--- --------- --- ----------- ------- ----- ------- ---<br>--------- ---- -- --- ---- -- --------- -- ---- -------<br>-- --------- bright --- ----- ------ ---- --- --------- --<br>------ - ---- -- --- ----------- ------- ---- ----- -----<br>--- -------- - ------ ---- -- ----- ---- --- --- -----------<br>-- -------,215824.10000002384,215823.39999997616,215571.662,215573.5,215577.837,215826.459,,28,bright
screen,html.Screen,2_3_1_0_1_29,2022-02-03T14:21:36.928Z,,,,,,,,,,,,,,,,,2,,,,,,,,,,,,,,369.54099999999744,,response,,,,1,A,,,,,,Space,keypress(Space),,,,silence,,,,--- ---- ------ --- ------- ---------- ------- ----------<br>--- --------- --- ----------- ------- ----- ------- ---<br>--------- ---- -- --- ---- -- --------- -- ---- -------<br>-- --------- ------ and ----- ------ ---- --- --------- --<br>------ - ---- -- --- ----------- ------- ---- ----- -----<br>--- -------- - ------ ---- -- ----- ---- --- --- -----------<br>-- -------,216196.69999998808,216196,215820.144,215824.30000001192,215826.459,216201.967,,29,and
screen,html.Screen,2_3_1_0_1_30,2022-02-03T14:21:37.207Z,,,,,,,,,,,,,,,,,2,,,,,,,,,,,,,,272.63300002383767,,response,,,,1,A,,,,,,Space,keypress(Space),,,,silence,,,,--- ---- ------ --- ------- ---------- ------- ----------<br>--- --------- --- ----------- ------- ----- ------- ---<br>--------- ---- -- --- ---- -- --------- -- ---- -------<br>-- --------- ------ --- white ------ ---- --- --------- --<br>------ - ---- -- --- ----------- ------- ---- ----- -----<br>--- -------- - ------ ---- -- ----- ---- --- --- -----------<br>-- -------,216475.39999997616,216474.60000002384,216195.866,216196.89999997616,216201.967,216480.738,,30,white
screen,html.Screen,2_3_1_0_1_31,2022-02-03T14:21:37.464Z,,,,,,,,,,,,,,,,,2,,,,,,,,,,,,,,250.56200001190882,,response,,,,1,A,,,,,,Space,keypress(Space),,,,silence,,,,"--- ---- ------ --- ------- ---------- ------- ----------<br>--- --------- --- ----------- ------- ----- ------- ---<br>--------- ---- -- --- ---- -- --------- -- ---- -------<br>-- --------- ------ --- ----- light"" ---- --- --------- --<br>------ - ---- -- --- ----------- ------- ---- ----- -----<br>--- -------- - ------ ---- -- ----- ---- --- --- -----------<br>-- -------",216732,216731.30000001192,216474.656,216475.5,216480.738,216735.343,,31,"light"""
screen,html.Screen,2_3_1_0_1_32,2022-02-03T14:21:37.902Z,,,,,,,,,,,,,,,,,2,,,,,,,,,,,,,,434.6570000000065,,response,,,,1,A,,,,,,Space,keypress(Space),,,,silence,,,,--- ---- ------ --- ------- ---------- ------- ----------<br>--- --------- --- ----------- ------- ----- ------- ---<br>--------- ---- -- --- ---- -- --------- -- ---- -------<br>-- --------- ------ --- ----- ------ over --- --------- --<br>------ - ---- -- --- ----------- ------- ---- ----- -----<br>--- -------- - ------ ---- -- ----- ---- --- --- -----------<br>-- -------,217170.80000001192,217170,216729.209,216732.19999998808,216735.343,217177.991,,32,over
screen,html.Screen,2_3_1_0_1_33,2022-02-03T14:21:38.156Z,,,,,,,,,,,,,,,,,2,,,,,,,,,,,,,,245.20899998807,,response,,,,1,A,,,,,,Space,keypress(Space),,,,silence,,,,--- ---- ------ --- ------- ---------- ------- ----------<br>--- --------- --- ----------- ------- ----- ------- ---<br>--------- ---- -- --- ---- -- --------- -- ---- -------<br>-- --------- ------ --- ----- ------ ---- the --------- --<br>------ - ---- -- --- ----------- ------- ---- ----- -----<br>--- -------- - ------ ---- -- ----- ---- --- --- -----------<br>-- -------,217423.89999997616,217423.19999998808,217165.586,217170.89999997616,217177.991,217426.212,,33,the
screen,html.Screen,2_3_1_0_1_34,2022-02-03T14:21:38.545Z,,,,,,,,,,,,,,,,,2,,,,,,,,,,,,,,386.3880000238423,,response,,,,1,A,,,,,,Space,keypress(Space),,,,silence,,,,--- ---- ------ --- ------- ---------- ------- ----------<br>--- --------- --- ----------- ------- ----- ------- ---<br>--------- ---- -- --- ---- -- --------- -- ---- -------<br>-- --------- ------ --- ----- ------ ---- --- sunspots. --<br>------ - ---- -- --- ----------- ------- ---- ----- -----<br>--- -------- - ------ ---- -- ----- ---- --- --- -----------<br>-- -------,217813.5,217812.60000002384,217420.366,217424.10000002384,217426.212,217820.124,,34,sunspots.
screen,html.Screen,2_3_1_0_1_35,2022-02-03T14:21:38.927Z,,,,,,,,,,,,,,,,,2,,,,,,,,,,,,,,374.1760000119102,,response,,,,1,A,,,,,,Space,keypress(Space),,,,silence,,,,--- ---- ------ --- ------- ---------- ------- ----------<br>--- --------- --- ----------- ------- ----- ------- ---<br>--------- ---- -- --- ---- -- --------- -- ---- -------<br>-- --------- ------ --- ----- ------ ---- --- --------- He<br>------ - ---- -- --- ----------- ------- ---- ----- -----<br>--- -------- - ------ ---- -- ----- ---- --- --- -----------<br>-- -------,218195,218194.30000001192,217808.224,217813.60000002384,217820.124,218202.204,,35,He
screen,html.Screen,2_3_1_0_1_36,2022-02-03T14:21:39.416Z,,,,,,,,,,,,,,,,,2,,,,,,,,,,,,,,481.596000011923,,response,,,,1,A,,,,,,Space,keypress(Space),,,,silence,,,,--- ---- ------ --- ------- ---------- ------- ----------<br>--- --------- --- ----------- ------- ----- ------- ---<br>--------- ---- -- --- ---- -- --------- -- ---- -------<br>-- --------- ------ --- ----- ------ ---- --- --------- --<br>jotted - ---- -- --- ----------- ------- ---- ----- -----<br>--- -------- - ------ ---- -- ----- ---- --- --- -----------<br>-- -------,218684.60000002384,218683.80000001192,218189.768,218195.19999998808,218202.204,218687.103,,36,jotted
screen,html.Screen,2_3_1_0_1_37,2022-02-03T14:21:39.649Z,,,,,,,,,,,,,,,,,2,,,,,,,,,,,,,,229.29699997615535,,response,,,,1,A,,,,,,Space,keypress(Space),,,,silence,,,,--- ---- ------ --- ------- ---------- ------- ----------<br>--- --------- --- ----------- ------- ----- ------- ---<br>--------- ---- -- --- ---- -- --------- -- ---- -------<br>-- --------- ------ --- ----- ------ ---- --- --------- --<br>------ a ---- -- --- ----------- ------- ---- ----- -----<br>--- -------- - ------ ---- -- ----- ---- --- --- -----------<br>-- -------,218917.19999998808,218916.39999997616,218680.982,218684.89999997616,218687.103,218923.109,,37,a
