sender,sender_type,sender_id,timestamp,meta,,Blues,Classical,Country,Dance,Electronic,Folk,Gospel,Hip-Hop,Jazz,Latin,Musical/Film,New-age,Pop,Prolific_id,Provo_ID,R&B,Rap,Reggae,Religious,Rock,Soul,Swing,Traditional,age,artist_name,correct,correctResponse,distraction,duration,education,ended_on,familiarity,gender,headphone_check_performance,item,list,music_frequency,offensiveness,pleasantness,position_correct,preference,response,response_action,snippet_file,song_name,song_rating,sound,stimulus_1,stimulus_2,stimulus_3,text,time_commit,time_end,time_render,time_run,time_show,time_switch,url,word,word_ID
Prolific ID,html.Form,0,2022-02-02T16:05:03.652Z,"{""labjs_version"":""20.2.2"",""labjs_build"":{""flavor"":""production"",""commit"":""a25486e0c714a0ae2ce03ff94b7bb6896854dcfa""},""location"":""https://run.pavlovia.org/mvasilev/prolific2_music_d/"",""userAgent"":""Mozilla/5.0 (Windows NT 10.0; Win64; x64; rv:96.0) Gecko/20100101 Firefox/96.0"",""platform"":""Win32"",""language"":""en-GB"",""locale"":""en-GB"",""timeZone"":""Europe/London"",""timezoneOffset"":0,""screen_width"":1536,""screen_height"":864,""scroll_width"":1536,""scroll_height"":691,""window_innerWidth"":1536,""window_innerHeight"":739,""devicePixelRatio"":1.25}",,,,,,,,,,,,,,,601e028aea41df251254119a,,,,,,,,,,,,,,,4753.74,,form submission,,,,,,,,,,,,,,,,,,,,,10677,10676,5905.6,5916,5922.26,10684.26,{},,
Introduction,html.Screen,1_0,2022-02-02T16:05:07.218Z,,,,,,,,,,,,,,,,,,,,,,,,,,,,,,,3542.74,,response,,,,,,,,,,,continue,click button,,,,,,,,,14243,14227,10673.36,10678,10684.26,14247.4,,,
Volume calibration,html.Screen,1_1,2022-02-02T16:05:22.890Z,,,,,,,,,,,,,,,,,,,,,,,,,,,,,,,15650.6,,response,,,,,,,,,,,continue,click button,,,,,,,,,29915,29898,14241.36,14243,14247.4,29915.32,,,
Task instructions,html.Screen,1_2,2022-02-02T16:05:31.210Z,,,,,,,,,,,,,,,,,,,,,,,,,,,,,,,8310.68,,response,,,,,,,,,,,continue,click button,,,,,,,,,38234,38226,29913.78,29916,29915.32,38240.4,,,
Sounds,html.Screen,1_3_0_0,2022-02-02T16:05:35.446Z,,,,,,,,,,,,,,,,,,,,,,,,,,,,,,,4245.779999999999,,timeout,,,,,,,,,3,,,,,,,,O,I,S,,42470,42469.52,38233.46,38235,38240.4,42486.18,,,
Judgement,html.Screen,1_3_0_1,2022-02-02T16:05:37.067Z,,,,,,,,,,,,,,,,,,,,,,,,,,,,true,3,,1599.8199999999997,,response,,,,,,,,,3,,3,click #choice-3,,,,,O,I,S,,44091,44086,42469.52,42471,42486.18,44101.28,,,
Trial,flow.Sequence,1_3_0,2022-02-02T16:05:37.067Z,,,,,,,,,,,,,,,,,,,,,,,,,,,,,,,5845.5999999999985,,completion,,,,,,,,,3,,,,,,,,O,I,S,,44092,44086,38233.46,38235,38240.4,44101.28,,,
Sounds,html.Screen,1_3_1_0,2022-02-02T16:05:41.307Z,,,,,,,,,,,,,,,,,,,,,,,,,,,,,,,4245.860000000001,,timeout,,,,,,,,,2,,,,,,,,I,S,O,,48332,48330.5,44089.58,44093,44101.28,48347.14,,,
Judgement,html.Screen,1_3_1_1,2022-02-02T16:05:43.059Z,,,,,,,,,,,,,,,,,,,,,,,,,,,,true,2,,1722.8600000000006,,response,,,,,,,,,2,,2,click #choice-2,,,,,I,S,O,,50084,50070,48330.5,48333,48347.14,50095.4,,,
Trial,flow.Sequence,1_3_1,2022-02-02T16:05:43.060Z,,,,,,,,,,,,,,,,,,,,,,,,,,,,,,,5968.720000000001,,completion,,,,,,,,,2,,,,,,,,I,S,O,,50085,50070,44089.58,44093,44101.28,50095.4,,,
Sounds,html.Screen,1_3_2_0,2022-02-02T16:05:47.301Z,,,,,,,,,,,,,,,,,,,,,,,,,,,,,,,4245.799999999996,,timeout,,,,,,,,,1,,,,,,,,S,O,I,,54326,54324.54,50082.88,50085,50095.4,54341.2,,,
Judgement,html.Screen,1_3_2_1,2022-02-02T16:05:48.218Z,,,,,,,,,,,,,,,,,,,,,,,,,,,,true,1,,884.8000000000029,,response,,,,,,,,,1,,1,click #choice-1,,,,,S,O,I,,55243,55226,54324.54,54326,54341.2,55256.94,,,
Trial,flow.Sequence,1_3_2,2022-02-02T16:05:48.218Z,,,,,,,,,,,,,,,,,,,,,,,,,,,,,,,5130.5999999999985,,completion,,,,,,,,,1,,,,,,,,S,O,I,,55243,55226,50082.88,50085,50095.4,55256.94,,,
Sounds,html.Screen,1_3_3_0,2022-02-02T16:05:52.462Z,,,,,,,,,,,,,,,,,,,,,,,,,,,,,,,4245.82,,timeout,,,,,,,,,3,,,,,,,,I,O,S,,59487,59486.1,55241.84,55243,55256.94,59502.76,,,
Judgement,html.Screen,1_3_3_1,2022-02-02T16:05:52.913Z,,,,,,,,,,,,,,,,,,,,,,,,,,,,true,3,,426.23999999999796,,response,,,,,,,,,3,,3,click #choice-3,,,,,I,O,S,,59938,59929,59486.1,59488,59502.76,59952.3,,,
Trial,flow.Sequence,1_3_3,2022-02-02T16:05:52.914Z,,,,,,,,,,,,,,,,,,,,,,,,,,,,,,,4672.059999999998,,completion,,,,,,,,,3,,,,,,,,I,O,S,,59938,59929,55241.84,55243,55256.94,59952.3,,,
Sounds,html.Screen,1_3_4_0,2022-02-02T16:05:57.157Z,,,,,,,,,,,,,,,,,,,,,,,,,,,,,,,4245.82,,timeout,,,,,,,,,2,,,,,,,,O,S,I,,64182,64181.46,59937.44,59938,59952.3,64198.12,,,
Judgement,html.Screen,1_3_4_1,2022-02-02T16:05:57.545Z,,,,,,,,,,,,,,,,,,,,,,,,,,,,true,2,,356.8799999999974,,response,,,,,,,,,2,,2,click #choice-2,,,,,O,S,I,,64570,64555,64181.46,64182,64198.12,64581.06,,,
Trial,flow.Sequence,1_3_4,2022-02-02T16:05:57.546Z,,,,,,,,,,,,,,,,,,,,,,,,,,,,,,,4602.699999999997,,completion,,,,,,,,,2,,,,,,,,O,S,I,,64571,64555,59937.44,59938,59952.3,64581.06,,,
Sounds,html.Screen,1_3_5_0,2022-02-02T16:06:01.787Z,,,,,,,,,,,,,,,,,,,,,,,,,,,,,,,4245.760000000009,,timeout,,,,,,,,,1,,,,,,,,S,I,O,,68811,68810.22,64569.56,64571,64581.06,68826.82,,,
Judgement,html.Screen,1_3_5_1,2022-02-02T16:06:02.145Z,,,,,,,,,,,,,,,,,,,,,,,,,,,,true,1,,337.179999999993,,response,,,,,,,,,1,,1,click #choice-1,,,,,S,I,O,,69169,69164,68810.22,68812,68826.82,69176.52,,,
Trial,flow.Sequence,1_3_5,2022-02-02T16:06:02.145Z,,,,,,,,,,,,,,,,,,,,,,,,,,,,,,,4582.940000000002,,completion,,,,,,,,,1,,,,,,,,S,I,O,,69170,69164,64569.56,64571,64581.06,69176.52,,,
Task,flow.Loop,1_3,2022-02-02T16:06:02.146Z,,,,,,,,,,,,,,,,,,,,,,,,,,,,,,,30923.6,,completion,,,1,,,,,,,,,,,,,,,,,,69170,69164,38233.46,38235,38240.4,69176.52,,,
Trap,html.Screen,1_4,2022-02-02T16:06:02.148Z,,,,,,,,,,,,,,,,,,,,,,,,,,,,,,,NaN,,skipped,,,,,,,,,,,,,,,,,,,,,69172,69164,,69172,,69176.52,,,
Thanks,html.Screen,1_5,2022-02-02T16:06:04.761Z,,,,,,,,,,,,,,,,,,,,,,,,,,,,,,,2596.479999999996,,response,,,,,,,,,,,continue,click button,,,,,,,,,71786,71773,69169.14,69172,69176.52,75453.6,,,
Headphone screening,flow.Sequence,1,2022-02-02T16:06:04.761Z,,,,,,,,,,,,,,,,,,,,,,,,,,,,,,,61088.74,,completion,,,,,,,,,,,,,,,,,,,,,71786,71773,10673.36,10678,10684.26,75453.6,,,
Instructions,html.Page,2_0,2022-02-02T16:07:26.373Z,,,,,,,,,,,,,,,,,,,,,,,,,,,,,,,77943.4,,form submission,,,,,,,,,,,,,,,,,,,,,153398,153397,75437,75424,75453.6,153410,,,
Holding screen,html.Screen,2_1_0_0,2022-02-02T16:07:36.378Z,,,,,,,,,,,,,,,,,,,,,,,,,,,,,,,10006.859999999986,,timeout,,,,,,,,,,,,,,,,,,,,,163402,163400.2,153393.82,153399,153410,163416.86,,,
screen,html.Screen,2_1_0_1_0,2022-02-02T16:07:37.336Z,,,,,,,,,,,,,,,,,53,,,,,,,,,,,,,,935.140000000014,,response,,,,99,,,,,,,Space,keypress(Space),,,,,,,,When -- ----- -- ------ - ------- --- ----------<br>------------- ------ ------ ---- ---- ------- ----- -- ----<br>-------- ------- -- ---------- --- - --- ----- ----- ----<br>---- --- --- ----- --- ---- ---- ------- ----- ---- -------<br>--- --- -- ----- -- --- ---- -- --- ---- -- ------ ------<br>--- ----- -- ----,164360,164352,163400.2,163404,163416.86,164365.86,,0,When
screen,html.Screen,2_1_0_1_1,2022-02-02T16:07:37.777Z,,,,,,,,,,,,,,,,,53,,,,,,,,,,,,,,423.14000000001397,,response,,,,99,,,,,,,Space,keypress(Space),,,,,,,,---- it ----- -- ------ - ------- --- ----------<br>------------- ------ ------ ---- ---- ------- ----- -- ----<br>-------- ------- -- ---------- --- - --- ----- ----- ----<br>---- --- --- ----- --- ---- ---- ------- ----- ---- -------<br>--- --- -- ----- -- --- ---- -- --- ---- -- ------ ------<br>--- ----- -- ----,164801,164789,164360.58,164360,164365.86,164815.46,,1,it
screen,html.Screen,2_1_0_1_2,2022-02-02T16:07:38.155Z,,,,,,,,,,,,,,,,,53,,,,,,,,,,,,,,348.54000000000815,,response,,,,99,,,,,,,Space,keypress(Space),,,,,,,,---- -- comes -- ------ - ------- --- ----------<br>------------- ------ ------ ---- ---- ------- ----- -- ----<br>-------- ------- -- ---------- --- - --- ----- ----- ----<br>---- --- --- ----- --- ---- ---- ------- ----- ---- -------<br>--- --- -- ----- -- --- ---- -- --- ---- -- ------ ------<br>--- ----- -- ----,165179,165164,164801.6,164802,164815.46,165181.72,,2,comes
screen,html.Screen,2_1_0_1_3,2022-02-02T16:07:38.600Z,,,,,,,,,,,,,,,,,53,,,,,,,,,,,,,,435.27999999999884,,response,,,,99,,,,,,,Space,keypress(Space),,,,,,,,---- -- ----- to ------ - ------- --- ----------<br>------------- ------ ------ ---- ---- ------- ----- -- ----<br>-------- ------- -- ---------- --- - --- ----- ----- ----<br>---- --- --- ----- --- ---- ---- ------- ----- ---- -------<br>--- --- -- ----- -- --- ---- -- --- ---- -- ------ ------<br>--- ----- -- ----,165624,165617,165179.44,165179,165181.72,165631.28,,3,to
screen,html.Screen,2_1_0_1_4,2022-02-02T16:07:38.921Z,,,,,,,,,,,,,,,,,53,,,,,,,,,,,,,,297.72000000000116,,response,,,,99,,,,,,,Space,keypress(Space),,,,,,,,---- -- ----- -- having - ------- --- ----------<br>------------- ------ ------ ---- ---- ------- ----- -- ----<br>-------- ------- -- ---------- --- - --- ----- ----- ----<br>---- --- --- ----- --- ---- ---- ------- ----- ---- -------<br>--- --- -- ----- -- --- ---- -- --- ---- -- ------ ------<br>--- ----- -- ----,165945,165929,165625.04,165625,165631.28,165947.68,,4,having
screen,html.Screen,2_1_0_1_5,2022-02-02T16:07:39.263Z,,,,,,,,,,,,,,,,,53,,,,,,,,,,,,,,326.320000000007,,response,,,,99,,,,,,,Space,keypress(Space),,,,,,,,---- -- ----- -- ------ a ------- --- ----------<br>------------- ------ ------ ---- ---- ------- ----- -- ----<br>-------- ------- -- ---------- --- - --- ----- ----- ----<br>---- --- --- ----- --- ---- ---- ------- ----- ---- -------<br>--- --- -- ----- -- --- ---- -- --- ---- -- ------ ------<br>--- ----- -- ----,166288,166274,165946.18,165946,165947.68,166297.3,,5,a
screen,html.Screen,2_1_0_1_6,2022-02-02T16:07:39.655Z,,,,,,,,,,,,,,,,,53,,,,,,,,,,,,,,366.70000000001164,,response,,,,99,,,,,,,Space,keypress(Space),,,,,,,,---- -- ----- -- ------ - lasting --- ----------<br>------------- ------ ------ ---- ---- ------- ----- -- ----<br>-------- ------- -- ---------- --- - --- ----- ----- ----<br>---- --- --- ----- --- ---- ---- ------- ----- ---- -------<br>--- --- -- ----- -- --- ---- -- --- ---- -- ------ ------<br>--- ----- -- ----,166680,166664,166287.84,166288,166297.3,166696.92,,6,lasting
screen,html.Screen,2_1_0_1_7,2022-02-02T16:07:39.964Z,,,,,,,,,,,,,,,,,53,,,,,,,,,,,,,,279.0799999999872,,response,,,,99,,,,,,,Space,keypress(Space),,,,,,,,---- -- ----- -- ------ - ------- and ----------<br>------------- ------ ------ ---- ---- ------- ----- -- ----<br>-------- ------- -- ---------- --- - --- ----- ----- ----<br>---- --- --- ----- --- ---- ---- ------- ----- ---- -------<br>--- --- -- ----- -- --- ---- -- --- ---- -- ------ ------<br>--- ----- -- ----,166989,166976,166680.8,166681,166696.92,166996.56,,7,and
screen,html.Screen,2_1_0_1_8,2022-02-02T16:07:40.375Z,,,,,,,,,,,,,,,,,53,,,,,,,,,,,,,,386.4400000000023,,response,,,,99,,,,,,,Space,keypress(Space),,,,,,,,---- -- ----- -- ------ - ------- --- fulfilling<br>------------- ------ ------ ---- ---- ------- ----- -- ----<br>-------- ------- -- ---------- --- - --- ----- ----- ----<br>---- --- --- ----- --- ---- ---- ------- ----- ---- -------<br>--- --- -- ----- -- --- ---- -- --- ---- -- ------ ------<br>--- ----- -- ----,167400,167383,166989.44,166989,166996.56,167412.86,,8,fulfilling
screen,html.Screen,2_1_0_1_9,2022-02-02T16:07:40.697Z,,,,,,,,,,,,,,,,,53,,,,,,,,,,,,,,298.14000000001397,,response,,,,99,,,,,,,Space,keypress(Space),,,,,,,,"---- -- ----- -- ------ - ------- --- ----------<br>relationship, ------ ------ ---- ---- ------- ----- -- ----<br>-------- ------- -- ---------- --- - --- ----- ----- ----<br>---- --- --- ----- --- ---- ---- ------- ----- ---- -------<br>--- --- -- ----- -- --- ---- -- --- ---- -- ------ ------<br>--- ----- -- ----",167722,167711,167400.38,167401,167412.86,167729.18,,9,"relationship,"
screen,html.Screen,2_1_0_1_10,2022-02-02T16:07:41.000Z,,,,,,,,,,,,,,,,,53,,,,,,,,,,,,,,278.820000000007,,response,,,,99,,,,,,,Space,keypress(Space),,,,,,,,---- -- ----- -- ------ - ------- --- ----------<br>------------- common ------ ---- ---- ------- ----- -- ----<br>-------- ------- -- ---------- --- - --- ----- ----- ----<br>---- --- --- ----- --- ---- ---- ------- ----- ---- -------<br>--- --- -- ----- -- --- ---- -- --- ---- -- ------ ------<br>--- ----- -- ----,168025,168008,167722.3,167722,167729.18,168028.92,,10,common
screen,html.Screen,2_1_0_1_11,2022-02-02T16:07:41.220Z,,,,,,,,,,,,,,,,,53,,,,,,,,,,,,,,198.0799999999872,,response,,,,99,,,,,,,Space,keypress(Space),,,,,,,,---- -- ----- -- ------ - ------- --- ----------<br>------------- ------ wisdom ---- ---- ------- ----- -- ----<br>-------- ------- -- ---------- --- - --- ----- ----- ----<br>---- --- --- ----- --- ---- ---- ------- ----- ---- -------<br>--- --- -- ----- -- --- ---- -- --- ---- -- ------ ------<br>--- ----- -- ----,168244,168227,168024.54,168025,168028.92,168245.4,,11,wisdom
screen,html.Screen,2_1_0_1_12,2022-02-02T16:07:41.433Z,,,,,,,,,,,,,,,,,53,,,,,,,,,,,,,,200.60000000000582,,response,,,,99,,,,,,,Space,keypress(Space),,,,,,,,---- -- ----- -- ------ - ------- --- ----------<br>------------- ------ ------ says ---- ------- ----- -- ----<br>-------- ------- -- ---------- --- - --- ----- ----- ----<br>---- --- --- ----- --- ---- ---- ------- ----- ---- -------<br>--- --- -- ----- -- --- ---- -- --- ---- -- ------ ------<br>--- ----- -- ----,168458,168446,168244.68,168244,168245.4,168461.86,,12,says
screen,html.Screen,2_1_0_1_13,2022-02-02T16:07:41.749Z,,,,,,,,,,,,,,,,,53,,,,,,,,,,,,,,296.14000000001397,,response,,,,99,,,,,,,Space,keypress(Space),,,,,,,,---- -- ----- -- ------ - ------- --- ----------<br>------------- ------ ------ ---- that ------- ----- -- ----<br>-------- ------- -- ---------- --- - --- ----- ----- ----<br>---- --- --- ----- --- ---- ---- ------- ----- ---- -------<br>--- --- -- ----- -- --- ---- -- --- ---- -- ------ ------<br>--- ----- -- ----,168774,168758,168458.74,168458,168461.86,168778.18,,13,that
screen,html.Screen,2_1_0_1_14,2022-02-02T16:07:41.993Z,,,,,,,,,,,,,,,,,53,,,,,,,,,,,,,,229.82000000000698,,response,,,,99,,,,,,,Space,keypress(Space),,,,,,,,---- -- ----- -- ------ - ------- --- ----------<br>------------- ------ ------ ---- ---- feeling ----- -- ----<br>-------- ------- -- ---------- --- - --- ----- ----- ----<br>---- --- --- ----- --- ---- ---- ------- ----- ---- -------<br>--- --- -- ----- -- --- ---- -- --- ---- -- ------ ------<br>--- ----- -- ----,169018,169008,168774.58,168775,168778.18,169027.96,,14,feeling
screen,html.Screen,2_1_0_1_15,2022-02-02T16:07:42.336Z,,,,,,,,,,,,,,,,,53,,,,,,,,,,,,,,323.04000000000815,,response,,,,99,,,,,,,Space,keypress(Space),,,,,,,,---- -- ----- -- ------ - ------- --- ----------<br>------------- ------ ------ ---- ---- ------- close -- ----<br>-------- ------- -- ---------- --- - --- ----- ----- ----<br>---- --- --- ----- --- ---- ---- ------- ----- ---- -------<br>--- --- -- ----- -- --- ---- -- --- ---- -- ------ ------<br>--- ----- -- ----,169361,169351,169018,169018,169027.96,169360.94,,15,close
screen,html.Screen,2_1_0_1_16,2022-02-02T16:07:42.614Z,,,,,,,,,,,,,,,,,53,,,,,,,,,,,,,,272.0599999999977,,response,,,,99,,,,,,,Space,keypress(Space),,,,,,,,---- -- ----- -- ------ - ------- --- ----------<br>------------- ------ ------ ---- ---- ------- ----- to ----<br>-------- ------- -- ---------- --- - --- ----- ----- ----<br>---- --- --- ----- --- ---- ---- ------- ----- ---- -------<br>--- --- -- ----- -- --- ---- -- --- ---- -- ------ ------<br>--- ----- -- ----,169639,169633,169360.46,169361,169360.94,169644.02,,16,to
screen,html.Screen,2_1_0_1_17,2022-02-02T16:07:42.943Z,,,,,,,,,,,,,,,,,53,,,,,,,,,,,,,,316.9800000000105,,response,,,,99,,,,,,,Space,keypress(Space),,,,,,,,---- -- ----- -- ------ - ------- --- ----------<br>------------- ------ ------ ---- ---- ------- ----- -- your<br>-------- ------- -- ---------- --- - --- ----- ----- ----<br>---- --- --- ----- --- ---- ---- ------- ----- ---- -------<br>--- --- -- ----- -- --- ---- -- --- ---- -- ------ ------<br>--- ----- -- ----,169968,169961,169638.82,169639,169644.02,169977.02,,17,your
screen,html.Screen,2_1_0_1_18,2022-02-02T16:07:43.220Z,,,,,,,,,,,,,,,,,53,,,,,,,,,,,,,,248.98000000001048,,response,,,,99,,,,,,,Space,keypress(Space),,,,,,,,---- -- ----- -- ------ - ------- --- ----------<br>------------- ------ ------ ---- ---- ------- ----- -- ----<br>romantic ------- -- ---------- --- - --- ----- ----- ----<br>---- --- --- ----- --- ---- ---- ------- ----- ---- -------<br>--- --- -- ----- -- --- ---- -- --- ---- -- ------ ------<br>--- ----- -- ----,170245,170226,169968.56,169968,169977.02,170260.06,,18,romantic
screen,html.Screen,2_1_0_1_19,2022-02-02T16:07:43.517Z,,,,,,,,,,,,,,,,,53,,,,,,,,,,,,,,279.9400000000023,,response,,,,99,,,,,,,Space,keypress(Space),,,,,,,,---- -- ----- -- ------ - ------- --- ----------<br>------------- ------ ------ ---- ---- ------- ----- -- ----<br>-------- partner -- ---------- --- - --- ----- ----- ----<br>---- --- --- ----- --- ---- ---- ------- ----- ---- -------<br>--- --- -- ----- -- --- ---- -- --- ---- -- ------ ------<br>--- ----- -- ----,170542,170540,170245.46,170245,170260.06,170543.14,,19,partner
screen,html.Screen,2_1_0_1_20,2022-02-02T16:07:43.782Z,,,,,,,,,,,,,,,,,53,,,,,,,,,,,,,,245.85999999998603,,response,,,,99,,,,,,,Space,keypress(Space),,,,,,,,---- -- ----- -- ------ - ------- --- ----------<br>------------- ------ ------ ---- ---- ------- ----- -- ----<br>-------- ------- is ---------- --- - --- ----- ----- ----<br>---- --- --- ----- --- ---- ---- ------- ----- ---- -------<br>--- --- -- ----- -- --- ---- -- --- ---- -- ------ ------<br>--- ----- -- ----,170807,170789,170541.94,170542,170543.14,170809.5,,20,is
screen,html.Screen,2_1_0_1_21,2022-02-02T16:07:44.107Z,,,,,,,,,,,,,,,,,53,,,,,,,,,,,,,,307.5,,response,,,,99,,,,,,,Space,keypress(Space),,,,,,,,---- -- ----- -- ------ - ------- --- ----------<br>------------- ------ ------ ---- ---- ------- ----- -- ----<br>-------- ------- -- paramount. --- - --- ----- ----- ----<br>---- --- --- ----- --- ---- ---- ------- ----- ---- -------<br>--- --- -- ----- -- --- ---- -- --- ---- -- ------ ------<br>--- ----- -- ----,171132,171117,170807.42,170808,170809.5,171142.52,,21,paramount.
screen,html.Screen,2_1_0_1_22,2022-02-02T16:07:44.521Z,,,,,,,,,,,,,,,,,53,,,,,,,,,,,,,,396.4800000000105,,response,,,,99,,,,,,,Space,keypress(Space),,,,,,,,---- -- ----- -- ------ - ------- --- ----------<br>------------- ------ ------ ---- ---- ------- ----- -- ----<br>-------- ------- -- ---------- But - --- ----- ----- ----<br>---- --- --- ----- --- ---- ---- ------- ----- ---- -------<br>--- --- -- ----- -- --- ---- -- --- ---- -- ------ ------<br>--- ----- -- ----,171546,171539,171131.92,171132,171142.52,171558.82,,22,But
screen,html.Screen,2_1_0_1_23,2022-02-02T16:07:44.799Z,,,,,,,,,,,,,,,,,53,,,,,,,,,,,,,,261.179999999993,,response,,,,99,,,,,,,Space,keypress(Space),,,,,,,,---- -- ----- -- ------ - ------- --- ----------<br>------------- ------ ------ ---- ---- ------- ----- -- ----<br>-------- ------- -- ---------- --- a --- ----- ----- ----<br>---- --- --- ----- --- ---- ---- ------- ----- ---- -------<br>--- --- -- ----- -- --- ---- -- --- ---- -- ------ ------<br>--- ----- -- ----,171824,171820,171546.64,171546,171558.82,171825.2,,23,a
screen,html.Screen,2_1_0_1_24,2022-02-02T16:07:45.056Z,,,,,,,,,,,,,,,,,53,,,,,,,,,,,,,,244.79999999998836,,response,,,,99,,,,,,,Space,keypress(Space),,,,,,,,---- -- ----- -- ------ - ------- --- ----------<br>------------- ------ ------ ---- ---- ------- ----- -- ----<br>-------- ------- -- ---------- --- - new ----- ----- ----<br>---- --- --- ----- --- ---- ---- ------- ----- ---- -------<br>--- --- -- ----- -- --- ---- -- --- ---- -- ------ ------<br>--- ----- -- ----,172081,172070,171824.58,171825,171825.2,172091.62,,24,new
screen,html.Screen,2_1_0_1_25,2022-02-02T16:07:45.312Z,,,,,,,,,,,,,,,,,53,,,,,,,,,,,,,,228.38000000000466,,response,,,,99,,,,,,,Space,keypress(Space),,,,,,,,---- -- ----- -- ------ - ------- --- ----------<br>------------- ------ ------ ---- ---- ------- ----- -- ----<br>-------- ------- -- ---------- --- - --- study ----- ----<br>---- --- --- ----- --- ---- ---- ------- ----- ---- -------<br>--- --- -- ----- -- --- ---- -- --- ---- -- ------ ------<br>--- ----- -- ----,172336,172320,172080.74,172081,172091.62,172341.34,,25,study
screen,html.Screen,2_1_0_1_26,2022-02-02T16:07:45.639Z,,,,,,,,,,,,,,,,,53,,,,,,,,,,,,,,306.6600000000035,,response,,,,99,,,,,,,Space,keypress(Space),,,,,,,,---- -- ----- -- ------ - ------- --- ----------<br>------------- ------ ------ ---- ---- ------- ----- -- ----<br>-------- ------- -- ---------- --- - --- ----- finds ----<br>---- --- --- ----- --- ---- ---- ------- ----- ---- -------<br>--- --- -- ----- -- --- ---- -- --- ---- -- ------ ------<br>--- ----- -- ----,172664,172648,172336.62,172336,172341.34,172674.36,,26,finds
screen,html.Screen,2_1_0_1_27,2022-02-02T16:07:45.863Z,,,,,,,,,,,,,,,,,53,,,,,,,,,,,,,,208.64000000001397,,response,,,,99,,,,,,,Space,keypress(Space),,,,,,,,---- -- ----- -- ------ - ------- --- ----------<br>------------- ------ ------ ---- ---- ------- ----- -- ----<br>-------- ------- -- ---------- --- - --- ----- ----- that<br>---- --- --- ----- --- ---- ---- ------- ----- ---- -------<br>--- --- -- ----- -- --- ---- -- --- ---- -- ------ ------<br>--- ----- -- ----,172888,172883,172663.84,172664,172674.36,172890.8,,27,that
screen,html.Screen,2_1_0_1_28,2022-02-02T16:07:46.124Z,,,,,,,,,,,,,,,,,53,,,,,,,,,,,,,,243.20000000001164,,response,,,,99,,,,,,,Space,keypress(Space),,,,,,,,---- -- ----- -- ------ - ------- --- ----------<br>------------- ------ ------ ---- ---- ------- ----- -- ----<br>-------- ------- -- ---------- --- - --- ----- ----- ----<br>it's --- --- ----- --- ---- ---- ------- ----- ---- -------<br>--- --- -- ----- -- --- ---- -- --- ---- -- ------ ------<br>--- ----- -- ----,173148,173134,172888.5,172888,172890.8,173157.24,,28,it's
screen,html.Screen,2_1_0_1_29,2022-02-02T16:07:46.365Z,,,,,,,,,,,,,,,,,53,,,,,,,,,,,,,,226.7600000000093,,response,,,,99,,,,,,,Space,keypress(Space),,,,,,,,---- -- ----- -- ------ - ------- --- ----------<br>------------- ------ ------ ---- ---- ------- ----- -- ----<br>-------- ------- -- ---------- --- - --- ----- ----- ----<br>---- not --- ----- --- ---- ---- ------- ----- ---- -------<br>--- --- -- ----- -- --- ---- -- --- ---- -- ------ ------<br>--- ----- -- ----,173390,173384,173148.72,173148,173157.24,173390.3,,29,not
screen,html.Screen,2_1_0_1_30,2022-02-02T16:07:46.584Z,,,,,,,,,,,,,,,,,53,,,,,,,,,,,,,,211.70000000001164,,response,,,,99,,,,,,,Space,keypress(Space),,,,,,,,---- -- ----- -- ------ - ------- --- ----------<br>------------- ------ ------ ---- ---- ------- ----- -- ----<br>-------- ------- -- ---------- --- - --- ----- ----- ----<br>---- --- how ----- --- ---- ---- ------- ----- ---- -------<br>--- --- -- ----- -- --- ---- -- --- ---- -- ------ ------<br>--- ----- -- ----,173608,173602,173389.94,173390,173390.3,173623.44,,30,how
screen,html.Screen,2_1_0_1_31,2022-02-02T16:07:46.790Z,,,,,,,,,,,,,,,,,53,,,,,,,,,,,,,,180.55999999999767,,response,,,,99,,,,,,,Space,keypress(Space),,,,,,,,---- -- ----- -- ------ - ------- --- ----------<br>------------- ------ ------ ---- ---- ------- ----- -- ----<br>-------- ------- -- ---------- --- - --- ----- ----- ----<br>---- --- --- close --- ---- ---- ------- ----- ---- -------<br>--- --- -- ----- -- --- ---- -- --- ---- -- ------ ------<br>--- ----- -- ----,173814,173804,173608.6,173608,173623.44,173823.22,,31,close
screen,html.Screen,2_1_0_1_32,2022-02-02T16:07:46.994Z,,,,,,,,,,,,,,,,,53,,,,,,,,,,,,,,184.77999999999884,,response,,,,99,,,,,,,Space,keypress(Space),,,,,,,,---- -- ----- -- ------ - ------- --- ----------<br>------------- ------ ------ ---- ---- ------- ----- -- ----<br>-------- ------- -- ---------- --- - --- ----- ----- ----<br>---- --- --- ----- you ---- ---- ------- ----- ---- -------<br>--- --- -- ----- -- --- ---- -- --- ---- -- ------ ------<br>--- ----- -- ----,174019,174008,173814.76,173815,173823.22,174023.02,,32,you
screen,html.Screen,2_1_0_1_33,2022-02-02T16:07:47.236Z,,,,,,,,,,,,,,,,,53,,,,,,,,,,,,,,218.98000000001048,,response,,,,99,,,,,,,Space,keypress(Space),,,,,,,,---- -- ----- -- ------ - ------- --- ----------<br>------------- ------ ------ ---- ---- ------- ----- -- ----<br>-------- ------- -- ---------- --- - --- ----- ----- ----<br>---- --- --- ----- --- feel ---- ------- ----- ---- -------<br>--- --- -- ----- -- --- ---- -- --- ---- -- ------ ------<br>--- ----- -- ----,174260,174242,174019.58,174019,174023.02,174272.8,,33,feel
screen,html.Screen,2_1_0_1_34,2022-02-02T16:07:47.449Z,,,,,,,,,,,,,,,,,53,,,,,,,,,,,,,,188.20000000001164,,response,,,,99,,,,,,,Space,keypress(Space),,,,,,,,---- -- ----- -- ------ - ------- --- ----------<br>------------- ------ ------ ---- ---- ------- ----- -- ----<br>-------- ------- -- ---------- --- - --- ----- ----- ----<br>---- --- --- ----- --- ---- that ------- ----- ---- -------<br>--- --- -- ----- -- --- ---- -- --- ---- -- ------ ------<br>--- ----- -- ----,174474,174461,174260.44,174261,174272.8,174489.22,,34,that
screen,html.Screen,2_1_0_1_35,2022-02-02T16:07:47.670Z,,,,,,,,,,,,,,,,,53,,,,,,,,,,,,,,189.77999999999884,,response,,,,99,,,,,,,Space,keypress(Space),,,,,,,,---- -- ----- -- ------ - ------- --- ----------<br>------------- ------ ------ ---- ---- ------- ----- -- ----<br>-------- ------- -- ---------- --- - --- ----- ----- ----<br>---- --- --- ----- --- ---- ---- matters ----- ---- -------<br>--- --- -- ----- -- --- ---- -- --- ---- -- ------ ------<br>--- ----- -- ----,174695,174679,174474.62,174475,174489.22,174705.7,,35,matters
screen,html.Screen,2_1_0_1_36,2022-02-02T16:07:47.938Z,,,,,,,,,,,,,,,,,53,,,,,,,,,,,,,,239.29999999998836,,response,,,,99,,,,,,,Space,keypress(Space),,,,,,,,"---- -- ----- -- ------ - ------- --- ----------<br>------------- ------ ------ ---- ---- ------- ----- -- ----<br>-------- ------- -- ---------- --- - --- ----- ----- ----<br>---- --- --- ----- --- ---- ---- ------- most, ---- -------<br>--- --- -- ----- -- --- ---- -- --- ---- -- ------ ------<br>--- ----- -- ----",174964,174945,174695.5,174696,174705.7,174972.02,,36,"most,"
screen,html.Screen,2_1_0_1_37,2022-02-02T16:07:48.162Z,,,,,,,,,,,,,,,,,53,,,,,,,,,,,,,,206.98000000001048,,response,,,,99,,,,,,,Space,keypress(Space),,,,,,,,---- -- ----- -- ------ - ------- --- ----------<br>------------- ------ ------ ---- ---- ------- ----- -- ----<br>-------- ------- -- ---------- --- - --- ----- ----- ----<br>---- --- --- ----- --- ---- ---- ------- ----- it's -------<br>--- --- -- ----- -- --- ---- -- --- ---- -- ------ ------<br>--- ----- -- ----,175187,175179,174963.9,174964,174972.02,175188.5,,37,it's
screen,html.Screen,2_1_0_1_38,2022-02-02T16:07:48.459Z,,,,,,,,,,,,,,,,,53,,,,,,,,,,,,,,287.5,,response,,,,99,,,,,,,Space,keypress(Space),,,,,,,,---- -- ----- -- ------ - ------- --- ----------<br>------------- ------ ------ ---- ---- ------- ----- -- ----<br>-------- ------- -- ---------- --- - --- ----- ----- ----<br>---- --- --- ----- --- ---- ---- ------- ----- ---- whether<br>--- --- -- ----- -- --- ---- -- --- ---- -- ------ ------<br>--- ----- -- ----,175485,175476,175187.28,175187,175188.5,175488.22,,38,whether
screen,html.Screen,2_1_0_1_39,2022-02-02T16:07:48.726Z,,,,,,,,,,,,,,,,,53,,,,,,,,,,,,,,254.77999999999884,,response,,,,99,,,,,,,Space,keypress(Space),,,,,,,,---- -- ----- -- ------ - ------- --- ----------<br>------------- ------ ------ ---- ---- ------- ----- -- ----<br>-------- ------- -- ---------- --- - --- ----- ----- ----<br>---- --- --- ----- --- ---- ---- ------- ----- ---- -------<br>you --- -- ----- -- --- ---- -- --- ---- -- ------ ------<br>--- ----- -- ----,175750,175743,175484.68,175485,175488.22,175754.66,,39,you
screen,html.Screen,2_1_0_1_40,2022-02-02T16:07:48.962Z,,,,,,,,,,,,,,,,,53,,,,,,,,,,,,,,221.3399999999965,,response,,,,99,,,,,,,Space,keypress(Space),,,,,,,,---- -- ----- -- ------ - ------- --- ----------<br>------------- ------ ------ ---- ---- ------- ----- -- ----<br>-------- ------- -- ---------- --- - --- ----- ----- ----<br>---- --- --- ----- --- ---- ---- ------- ----- ---- -------<br>--- are -- ----- -- --- ---- -- --- ---- -- ------ ------<br>--- ----- -- ----,175987,175976,175750.38,175750,175754.66,175987.78,,40,are
screen,html.Screen,2_1_0_1_41,2022-02-02T16:07:49.191Z,,,,,,,,,,,,,,,,,53,,,,,,,,,,,,,,223.22000000000116,,response,,,,99,,,,,,,Space,keypress(Space),,,,,,,,---- -- ----- -- ------ - ------- --- ----------<br>------------- ------ ------ ---- ---- ------- ----- -- ----<br>-------- ------- -- ---------- --- - --- ----- ----- ----<br>---- --- --- ----- --- ---- ---- ------- ----- ---- -------<br>--- --- as ----- -- --- ---- -- --- ---- -- ------ ------<br>--- ----- -- ----,176216,176211,175987.3,175987,175987.78,176220.84,,41,as
screen,html.Screen,2_1_0_1_42,2022-02-02T16:07:49.452Z,,,,,,,,,,,,,,,,,53,,,,,,,,,,,,,,240.1600000000035,,response,,,,99,,,,,,,Space,keypress(Space),,,,,,,,---- -- ----- -- ------ - ------- --- ----------<br>------------- ------ ------ ---- ---- ------- ----- -- ----<br>-------- ------- -- ---------- --- - --- ----- ----- ----<br>---- --- --- ----- --- ---- ---- ------- ----- ---- -------<br>--- --- -- close -- --- ---- -- --- ---- -- ------ ------<br>--- ----- -- ----,176477,176461,176216.2,176216,176220.84,176487.28,,42,close
screen,html.Screen,2_1_0_1_43,2022-02-02T16:07:49.698Z,,,,,,,,,,,,,,,,,53,,,,,,,,,,,,,,223.72000000000116,,response,,,,99,,,,,,,Space,keypress(Space),,,,,,,,---- -- ----- -- ------ - ------- --- ----------<br>------------- ------ ------ ---- ---- ------- ----- -- ----<br>-------- ------- -- ---------- --- - --- ----- ----- ----<br>---- --- --- ----- --- ---- ---- ------- ----- ---- -------<br>--- --- -- ----- as --- ---- -- --- ---- -- ------ ------<br>--- ----- -- ----,176722,176711,176477.26,176477,176487.28,176737,,43,as
screen,html.Screen,2_1_0_1_44,2022-02-02T16:07:49.911Z,,,,,,,,,,,,,,,,,53,,,,,,,,,,,,,,192,,response,,,,99,,,,,,,Space,keypress(Space),,,,,,,,---- -- ----- -- ------ - ------- --- ----------<br>------------- ------ ------ ---- ---- ------- ----- -- ----<br>-------- ------- -- ---------- --- - --- ----- ----- ----<br>---- --- --- ----- --- ---- ---- ------- ----- ---- -------<br>--- --- -- ----- -- you ---- -- --- ---- -- ------ ------<br>--- ----- -- ----,176935,176929,176722.3,176722,176737,176936.82,,44,you
screen,html.Screen,2_1_0_1_45,2022-02-02T16:07:50.105Z,,,,,,,,,,,,,,,,,53,,,,,,,,,,,,,,180.17999999999302,,response,,,,99,,,,,,,Space,keypress(Space),,,,,,,,---- -- ----- -- ------ - ------- --- ----------<br>------------- ------ ------ ---- ---- ------- ----- -- ----<br>-------- ------- -- ---------- --- - --- ----- ----- ----<br>---- --- --- ----- --- ---- ---- ------- ----- ---- -------<br>--- --- -- ----- -- --- want -- --- ---- -- ------ ------<br>--- ----- -- ----,177130,177117,176935.36,176935,176936.82,177136.64,,45,want
screen,html.Screen,2_1_0_1_46,2022-02-02T16:07:50.332Z,,,,,,,,,,,,,,,,,53,,,,,,,,,,,,,,214.35999999998603,,response,,,,99,,,,,,,Space,keypress(Space),,,,,,,,---- -- ----- -- ------ - ------- --- ----------<br>------------- ------ ------ ---- ---- ------- ----- -- ----<br>-------- ------- -- ---------- --- - --- ----- ----- ----<br>---- --- --- ----- --- ---- ---- ------- ----- ---- -------<br>--- --- -- ----- -- --- ---- to --- ---- -- ------ ------<br>--- ----- -- ----,177356,177351,177130.56,177130,177136.64,177369.7,,46,to
screen,html.Screen,2_1_0_1_47,2022-02-02T16:07:50.560Z,,,,,,,,,,,,,,,,,53,,,,,,,,,,,,,,201.29999999998836,,response,,,,99,,,,,,,Space,keypress(Space),,,,,,,,"---- -- ----- -- ------ - ------- --- ----------<br>------------- ------ ------ ---- ---- ------- ----- -- ----<br>-------- ------- -- ---------- --- - --- ----- ----- ----<br>---- --- --- ----- --- ---- ---- ------- ----- ---- -------<br>--- --- -- ----- -- --- ---- -- be, ---- -- ------ ------<br>--- ----- -- ----",177585,177571,177356.32,177356,177369.7,177586.16,,47,"be,"
screen,html.Screen,2_1_0_1_48,2022-02-02T16:07:50.829Z,,,,,,,,,,,,,,,,,53,,,,,,,,,,,,,,249.8399999999965,,response,,,,99,,,,,,,Space,keypress(Space),,,,,,,,---- -- ----- -- ------ - ------- --- ----------<br>------------- ------ ------ ---- ---- ------- ----- -- ----<br>-------- ------- -- ---------- --- - --- ----- ----- ----<br>---- --- --- ----- --- ---- ---- ------- ----- ---- -------<br>--- --- -- ----- -- --- ---- -- --- even -- ------ ------<br>--- ----- -- ----,177853,177836,177585.48,177585,177586.16,177869.22,,48,even
screen,html.Screen,2_1_0_1_49,2022-02-02T16:07:51.065Z,,,,,,,,,,,,,,,,,53,,,,,,,,,,,,,,200.77999999999884,,response,,,,99,,,,,,,Space,keypress(Space),,,,,,,,---- -- ----- -- ------ - ------- --- ----------<br>------------- ------ ------ ---- ---- ------- ----- -- ----<br>-------- ------- -- ---------- --- - --- ----- ----- ----<br>---- --- --- ----- --- ---- ---- ------- ----- ---- -------<br>--- --- -- ----- -- --- ---- -- --- ---- if ------ ------<br>--- ----- -- ----,178089,178070,177854,177854,177869.22,178102.36,,49,if
screen,html.Screen,2_1_0_1_50,2022-02-02T16:07:51.330Z,,,,,,,,,,,,,,,,,53,,,,,,,,,,,,,,234.64000000001397,,response,,,,99,,,,,,,Space,keypress(Space),,,,,,,,---- -- ----- -- ------ - ------- --- ----------<br>------------- ------ ------ ---- ---- ------- ----- -- ----<br>-------- ------- -- ---------- --- - --- ----- ----- ----<br>---- --- --- ----- --- ---- ---- ------- ----- ---- -------<br>--- --- -- ----- -- --- ---- -- --- ---- -- that's ------<br>--- ----- -- ----,178356,178337,178089.34,178089,178102.36,178368.72,,50,that's
screen,html.Screen,2_1_0_1_51,2022-02-02T16:07:51.568Z,,,,,,,,,,,,,,,,,53,,,,,,,,,,,,,,217.27999999999884,,response,,,,99,,,,,,,Space,keypress(Space),,,,,,,,---- -- ----- -- ------ - ------- --- ----------<br>------------- ------ ------ ---- ---- ------- ----- -- ----<br>-------- ------- -- ---------- --- - --- ----- ----- ----<br>---- --- --- ----- --- ---- ---- ------- ----- ---- -------<br>--- --- -- ----- -- --- ---- -- --- ---- -- ------ really<br>--- ----- -- ----,178592,178586,178355.52,178356,178368.72,178601.86,,51,really
screen,html.Screen,2_1_0_1_52,2022-02-02T16:07:51.965Z,,,,,,,,,,,,,,,,,53,,,,,,,,,,,,,,374.14000000001397,,response,,,,99,,,,,,,Space,keypress(Space),,,,,,,,---- -- ----- -- ------ - ------- --- ----------<br>------------- ------ ------ ---- ---- ------- ----- -- ----<br>-------- ------- -- ---------- --- - --- ----- ----- ----<br>---- --- --- ----- --- ---- ---- ------- ----- ---- -------<br>--- --- -- ----- -- --- ---- -- --- ---- -- ------ ------<br>not ----- -- ----,178989,178976,178592.26,178592,178601.86,179001.42,,52,not
screen,html.Screen,2_1_0_1_53,2022-02-02T16:07:52.253Z,,,,,,,,,,,,,,,,,53,,,,,,,,,,,,,,271.5799999999872,,response,,,,99,,,,,,,Space,keypress(Space),,,,,,,,---- -- ----- -- ------ - ------- --- ----------<br>------------- ------ ------ ---- ---- ------- ----- -- ----<br>-------- ------- -- ---------- --- - --- ----- ----- ----<br>---- --- --- ----- --- ---- ---- ------- ----- ---- -------<br>--- --- -- ----- -- --- ---- -- --- ---- -- ------ ------<br>--- close -- ----,179277,179273,178989.54,178990,179001.42,179284.46,,53,close
screen,html.Screen,2_1_0_1_54,2022-02-02T16:07:52.590Z,,,,,,,,,,,,,,,,,53,,,,,,,,,,,,,,317.54000000000815,,response,,,,99,,,,,,,Space,keypress(Space),,,,,,,,---- -- ----- -- ------ - ------- --- ----------<br>------------- ------ ------ ---- ---- ------- ----- -- ----<br>-------- ------- -- ---------- --- - --- ----- ----- ----<br>---- --- --- ----- --- ---- ---- ------- ----- ---- -------<br>--- --- -- ----- -- --- ---- -- --- ---- -- ------ ------<br>--- ----- at ----,179614,179602,179277.44,179277,179284.46,179617.5,,54,at
screen,html.Screen,2_1_0_1_55,2022-02-02T16:07:53.137Z,,,,,,,,,,,,,,,,,53,,,,,,,,,,,,,,530.5,,response,,,,99,,,,,,,Space,keypress(Space),,,,,,,,---- -- ----- -- ------ - ------- --- ----------<br>------------- ------ ------ ---- ---- ------- ----- -- ----<br>-------- ------- -- ---------- --- - --- ----- ----- ----<br>---- --- --- ----- --- ---- ---- ------- ----- ---- -------<br>--- --- -- ----- -- --- ---- -- --- ---- -- ------ ------<br>--- ----- -- all.,180162,180148,179614.74,179615,179617.5,180166.92,,55,all.
Item 99,flow.Loop,2_1_0_1,2022-02-02T16:07:53.138Z,,,,,,,,,,,,,,,,,,,,,,,,,,,,,,,16731.140000000014,,completion,,,,,D,,,,,,,,,,,silence,,,,,180163,180148,163400.2,163403,163416.86,180166.92,,,
Question 1,html.Screen,2_1_0_2,2022-02-02T16:07:57.474Z,,,,,,,,,,,,,,,,,,,,,,,,,,,,true,FALSE,,4325.079999999987,,response,,,,99,D,,,,,,FALSE,click #choice-2,,,,silence,,,,,184498,184492,180163.02,180163,180166.92,184512.66,,,
Question 2,html.Screen,2_1_0_3,2022-02-02T16:08:00.953Z,,,,,,,,,,,,,,,,,,,,,,,,,,,,false,TRUE,,3448.3399999999965,,response,,,,99,D,,,,,,FALSE,click #choice-2,,,,silence,,,,,187978,187961,184497.64,184498,184512.66,187992.58,,,
Item 99,flow.Sequence,2_1_0,2022-02-02T16:08:00.954Z,,,,,,,,,,,,,,,,,,,,,,,,,,,,,,,34551,,completion,,,,,,,,,,,,,,,,,,,,,187979,187961,153393.82,153399,153410,187992.58,,,
Holding screen,html.Screen,2_1_1_0,2022-02-02T16:08:10.959Z,,,,,,,,,,,,,,,,,,,,,,,,,,,,,,,10006.820000000007,,timeout,,,,,,,,,,,,,,,,,,,,,197984,197982.74,187977.44,187979,187992.58,197999.4,,,
screen,html.Screen,2_1_1_1_0,2022-02-02T16:08:11.738Z,,,,,,,,,,,,,,,,,54,,,,,,,,,,,,,,758.6000000000058,,response,,,,100,,,,,,,Space,keypress(Space),,,,,,,,At --- ---- --- ------ ----- ------- ---- -- --- ------- --<br>------- ---------- ------ -- ----- -- ----- -- ---- ------<br>--- ----- --- --- ------ -------- ----- --- ------ ----- --<br>----- ----- ---------- --- --- ------ ------ ---- -- ------<br>------- --- ------ ----- --- ---- ------- -- ---- --- --<br>------- ------,198763,198758,197982.74,197985,197999.4,198765.26,,0,At
screen,html.Screen,2_1_1_1_1,2022-02-02T16:08:12.044Z,,,,,,,,,,,,,,,,,54,,,,,,,,,,,,,,289.7399999999907,,response,,,,100,,,,,,,Space,keypress(Space),,,,,,,,-- the ---- --- ------ ----- ------- ---- -- --- ------- --<br>------- ---------- ------ -- ----- -- ----- -- ---- ------<br>--- ----- --- --- ------ -------- ----- --- ------ ----- --<br>----- ----- ---------- --- --- ------ ------ ---- -- ------<br>------- --- ------ ----- --- ---- ------- -- ---- --- --<br>------- ------,199069,199055,198763.2,198763,198765.26,199081.56,,1,the
screen,html.Screen,2_1_1_1_2,2022-02-02T16:08:12.293Z,,,,,,,,,,,,,,,,,54,,,,,,,,,,,,,,222.44000000000233,,response,,,,100,,,,,,,Space,keypress(Space),,,,,,,,-- --- time --- ------ ----- ------- ---- -- --- ------- --<br>------- ---------- ------ -- ----- -- ----- -- ---- ------<br>--- ----- --- --- ------ -------- ----- --- ------ ----- --<br>----- ----- ---------- --- --- ------ ------ ---- -- ------<br>------- --- ------ ----- --- ---- ------- -- ---- --- --<br>------- ------,199317,199304,199069.14,199069,199081.56,199331.34,,2,time
screen,html.Screen,2_1_1_1_3,2022-02-02T16:08:12.616Z,,,,,,,,,,,,,,,,,54,,,,,,,,,,,,,,301.6600000000035,,response,,,,100,,,,,,,Space,keypress(Space),,,,,,,,-- --- ---- the ------ ----- ------- ---- -- --- ------- --<br>------- ---------- ------ -- ----- -- ----- -- ---- ------<br>--- ----- --- --- ------ -------- ----- --- ------ ----- --<br>----- ----- ---------- --- --- ------ ------ ---- -- ------<br>------- --- ------ ----- --- ---- ------- -- ---- --- --<br>------- ------,199640,199633,199317.3,199318,199331.34,199647.7,,3,the
screen,html.Screen,2_1_1_1_4,2022-02-02T16:08:12.960Z,,,,,,,,,,,,,,,,,54,,,,,,,,,,,,,,328.29999999998836,,response,,,,100,,,,,,,Space,keypress(Space),,,,,,,,-- --- ---- --- French ----- ------- ---- -- --- ------- --<br>------- ---------- ------ -- ----- -- ----- -- ---- ------<br>--- ----- --- --- ------ -------- ----- --- ------ ----- --<br>----- ----- ---------- --- --- ------ ------ ---- -- ------<br>------- --- ------ ----- --- ---- ------- -- ---- --- --<br>------- ------,199985,199976,199640.7,199641,199647.7,199997.38,,4,French
screen,html.Screen,2_1_1_1_5,2022-02-02T16:08:13.155Z,,,,,,,,,,,,,,,,,54,,,,,,,,,,,,,,167.61999999999534,,response,,,,100,,,,,,,Space,keypress(Space),,,,,,,,-- --- ---- --- ------ crown ------- ---- -- --- ------- --<br>------- ---------- ------ -- ----- -- ----- -- ---- ------<br>--- ----- --- --- ------ -------- ----- --- ------ ----- --<br>----- ----- ---------- --- --- ------ ------ ---- -- ------<br>------- --- ------ ----- --- ---- ------- -- ---- --- --<br>------- ------,200179,200165,199985.3,199985,199997.38,200180.54,,5,crown
screen,html.Screen,2_1_1_1_6,2022-02-02T16:08:13.392Z,,,,,,,,,,,,,,,,,54,,,,,,,,,,,,,,217.45999999999185,,response,,,,100,,,,,,,Space,keypress(Space),,,,,,,,-- --- ---- --- ------ ----- secured ---- -- --- ------- --<br>------- ---------- ------ -- ----- -- ----- -- ---- ------<br>--- ----- --- --- ------ -------- ----- --- ------ ----- --<br>----- ----- ---------- --- --- ------ ------ ---- -- ------<br>------- --- ------ ----- --- ---- ------- -- ---- --- --<br>------- ------,200416,200398,200179.98,200180,200180.54,200430.3,,6,secured
screen,html.Screen,2_1_1_1_7,2022-02-02T16:08:13.605Z,,,,,,,,,,,,,,,,,54,,,,,,,,,,,,,,186.70000000001164,,response,,,,100,,,,,,,Space,keypress(Space),,,,,,,,-- --- ---- --- ------ ----- ------- much -- --- ------- --<br>------- ---------- ------ -- ----- -- ----- -- ---- ------<br>--- ----- --- --- ------ -------- ----- --- ------ ----- --<br>----- ----- ---------- --- --- ------ ------ ---- -- ------<br>------- --- ------ ----- --- ---- ------- -- ---- --- --<br>------- ------,200630,200617,200416.44,200416,200430.3,200646.74,,7,much
screen,html.Screen,2_1_1_1_8,2022-02-02T16:08:13.943Z,,,,,,,,,,,,,,,,,54,,,,,,,,,,,,,,314.2600000000093,,response,,,,100,,,,,,,Space,keypress(Space),,,,,,,,-- --- ---- --- ------ ----- ------- ---- of --- ------- --<br>------- ---------- ------ -- ----- -- ----- -- ---- ------<br>--- ----- --- --- ------ -------- ----- --- ------ ----- --<br>----- ----- ---------- --- --- ------ ------ ---- -- ------<br>------- --- ------ ----- --- ---- ------- -- ---- --- --<br>------- ------,200968,200961,200630.34,200631,200646.74,200979.76,,8,of
screen,html.Screen,2_1_1_1_9,2022-02-02T16:08:14.172Z,,,,,,,,,,,,,,,,,54,,,,,,,,,,,,,,199.2399999999907,,response,,,,100,,,,,,,Space,keypress(Space),,,,,,,,-- --- ---- --- ------ ----- ------- ---- -- its ------- --<br>------- ---------- ------ -- ----- -- ----- -- ---- ------<br>--- ----- --- --- ------ -------- ----- --- ------ ----- --<br>----- ----- ---------- --- --- ------ ------ ---- -- ------<br>------- --- ------ ----- --- ---- ------- -- ---- --- --<br>------- ------,201197,201179,200968.72,200969,200979.76,201212.82,,9,its
screen,html.Screen,2_1_1_1_10,2022-02-02T16:08:14.744Z,,,,,,,,,,,,,,,,,54,,,,,,,,,,,,,,546.179999999993,,response,,,,100,,,,,,,Space,keypress(Space),,,,,,,,-- --- ---- --- ------ ----- ------- ---- -- --- revenue --<br>------- ---------- ------ -- ----- -- ----- -- ---- ------<br>--- ----- --- --- ------ -------- ----- --- ------ ----- --<br>----- ----- ---------- --- --- ------ ------ ---- -- ------<br>------- --- ------ ----- --- ---- ------- -- ---- --- --<br>------- ------,201768,201759,201197.18,201197,201212.82,201778.96,,10,revenue
screen,html.Screen,2_1_1_1_11,2022-02-02T16:08:15.035Z,,,,,,,,,,,,,,,,,54,,,,,,,,,,,,,,275.04000000000815,,response,,,,100,,,,,,,Space,keypress(Space),,,,,,,,-- --- ---- --- ------ ----- ------- ---- -- --- ------- by<br>------- ---------- ------ -- ----- -- ----- -- ---- ------<br>--- ----- --- --- ------ -------- ----- --- ------ ----- --<br>----- ----- ---------- --- --- ------ ------ ---- -- ------<br>------- --- ------ ----- --- ---- ------- -- ---- --- --<br>------- ------,202060,202054,201768.84,201768,201778.96,202062.02,,11,by
screen,html.Screen,2_1_1_1_12,2022-02-02T16:08:15.405Z,,,,,,,,,,,,,,,,,54,,,,,,,,,,,,,,351.9800000000105,,response,,,,100,,,,,,,Space,keypress(Space),,,,,,,,-- --- ---- --- ------ ----- ------- ---- -- --- ------- --<br>issuing ---------- ------ -- ----- -- ----- -- ---- ------<br>--- ----- --- --- ------ -------- ----- --- ------ ----- --<br>----- ----- ---------- --- --- ------ ------ ---- -- ------<br>------- --- ------ ----- --- ---- ------- -- ---- --- --<br>------- ------,202429,202414,202060.76,202060,202062.02,202444.94,,12,issuing
screen,html.Screen,2_1_1_1_13,2022-02-02T16:08:15.720Z,,,,,,,,,,,,,,,,,54,,,,,,,,,,,,,,281.0599999999977,,response,,,,100,,,,,,,Space,keypress(Space),,,,,,,,-- --- ---- --- ------ ----- ------- ---- -- --- ------- --<br>------- government ------ -- ----- -- ----- -- ---- ------<br>--- ----- --- --- ------ -------- ----- --- ------ ----- --<br>----- ----- ---------- --- --- ------ ------ ---- -- ------<br>------- --- ------ ----- --- ---- ------- -- ---- --- --<br>------- ------,202745,202726,202429.5,202429,202444.94,202761.32,,13,government
screen,html.Screen,2_1_1_1_14,2022-02-02T16:08:15.981Z,,,,,,,,,,,,,,,,,54,,,,,,,,,,,,,,230.67999999999302,,response,,,,100,,,,,,,Space,keypress(Space),,,,,,,,-- --- ---- --- ------ ----- ------- ---- -- --- ------- --<br>------- ---------- bonds. -- ----- -- ----- -- ---- ------<br>--- ----- --- --- ------ -------- ----- --- ------ ----- --<br>----- ----- ---------- --- --- ------ ------ ---- -- ------<br>------- --- ------ ----- --- ---- ------- -- ---- --- --<br>------- ------,203006,202992,202745.26,202745,202761.32,203011.06,,14,bonds.
screen,html.Screen,2_1_1_1_15,2022-02-02T16:08:16.615Z,,,,,,,,,,,,,,,,,54,,,,,,,,,,,,,,622.9400000000023,,response,,,,100,,,,,,,Space,keypress(Space),,,,,,,,-- --- ---- --- ------ ----- ------- ---- -- --- ------- --<br>------- ---------- ------ In ----- -- ----- -- ---- ------<br>--- ----- --- --- ------ -------- ----- --- ------ ----- --<br>----- ----- ---------- --- --- ------ ------ ---- -- ------<br>------- --- ------ ----- --- ---- ------- -- ---- --- --<br>------- ------,203639,203634,203006.52,203006,203011.06,203643.74,,15,In
screen,html.Screen,2_1_1_1_16,2022-02-02T16:08:16.813Z,,,,,,,,,,,,,,,,,54,,,,,,,,,,,,,,176.2600000000093,,response,,,,100,,,,,,,Space,keypress(Space),,,,,,,,"-- --- ---- --- ------ ----- ------- ---- -- --- ------- --<br>------- ---------- ------ -- 1727, -- ----- -- ---- ------<br>--- ----- --- --- ------ -------- ----- --- ------ ----- --<br>----- ----- ---------- --- --- ------ ------ ---- -- ------<br>------- --- ------ ----- --- ---- ------- -- ---- --- --<br>------- ------",203837,203820,203639.8,203640,203643.74,203843.58,,16,"1727,"
screen,html.Screen,2_1_1_1_17,2022-02-02T16:08:17.082Z,,,,,,,,,,,,,,,,,54,,,,,,,,,,,,,,257.4200000000128,,response,,,,100,,,,,,,Space,keypress(Space),,,,,,,,-- --- ---- --- ------ ----- ------- ---- -- --- ------- --<br>------- ---------- ------ -- ----- in ----- -- ---- ------<br>--- ----- --- --- ------ -------- ----- --- ------ ----- --<br>----- ----- ---------- --- --- ------ ------ ---- -- ------<br>------- --- ------ ----- --- ---- ------- -- ---- --- --<br>------- ------,204107,204101,203837.8,203837,203843.58,204110,,17,in
screen,html.Screen,2_1_1_1_18,2022-02-02T16:08:17.304Z,,,,,,,,,,,,,,,,,54,,,,,,,,,,,,,,210,,response,,,,100,,,,,,,Space,keypress(Space),,,,,,,,-- --- ---- --- ------ ----- ------- ---- -- --- ------- --<br>------- ---------- ------ -- ----- -- order -- ---- ------<br>--- ----- --- --- ------ -------- ----- --- ------ ----- --<br>----- ----- ---------- --- --- ------ ------ ---- -- ------<br>------- --- ------ ----- --- ---- ------- -- ---- --- --<br>------- ------,204328,204320,204107.04,204107,204110,204343.04,,18,order
screen,html.Screen,2_1_1_1_19,2022-02-02T16:08:17.523Z,,,,,,,,,,,,,,,,,54,,,,,,,,,,,,,,195.95999999999185,,response,,,,100,,,,,,,Space,keypress(Space),,,,,,,,-- --- ---- --- ------ ----- ------- ---- -- --- ------- --<br>------- ---------- ------ -- ----- -- ----- to ---- ------<br>--- ----- --- --- ------ -------- ----- --- ------ ----- --<br>----- ----- ---------- --- --- ------ ------ ---- -- ------<br>------- --- ------ ----- --- ---- ------- -- ---- --- --<br>------- ------,204548,204539,204328.18,204328,204343.04,204559.52,,19,to
screen,html.Screen,2_1_1_1_20,2022-02-02T16:08:17.722Z,,,,,,,,,,,,,,,,,54,,,,,,,,,,,,,,182.48000000001048,,response,,,,100,,,,,,,Space,keypress(Space),,,,,,,,-- --- ---- --- ------ ----- ------- ---- -- --- ------- --<br>------- ---------- ------ -- ----- -- ----- -- save ------<br>--- ----- --- --- ------ -------- ----- --- ------ ----- --<br>----- ----- ---------- --- --- ------ ------ ---- -- ------<br>------- --- ------ ----- --- ---- ------- -- ---- --- --<br>------- ------,204746,204742,204548.12,204548,204559.52,204759.34,,20,save
screen,html.Screen,2_1_1_1_21,2022-02-02T16:08:17.911Z,,,,,,,,,,,,,,,,,54,,,,,,,,,,,,,,169.6600000000035,,response,,,,100,,,,,,,Space,keypress(Space),,,,,,,,"-- --- ---- --- ------ ----- ------- ---- -- --- ------- --<br>------- ---------- ------ -- ----- -- ----- -- ---- money,<br>--- ----- --- --- ------ -------- ----- --- ------ ----- --<br>----- ----- ---------- --- --- ------ ------ ---- -- ------<br>------- --- ------ ----- --- ---- ------- -- ---- --- --<br>------- ------",204935,204929,204746.08,204746,204759.34,204942.52,,21,"money,"
screen,html.Screen,2_1_1_1_22,2022-02-02T16:08:18.222Z,,,,,,,,,,,,,,,,,54,,,,,,,,,,,,,,299.4800000000105,,response,,,,100,,,,,,,Space,keypress(Space),,,,,,,,-- --- ---- --- ------ ----- ------- ---- -- --- ------- --<br>------- ---------- ------ -- ----- -- ----- -- ---- ------<br>the ----- --- --- ------ -------- ----- --- ------ ----- --<br>----- ----- ---------- --- --- ------ ------ ---- -- ------<br>------- --- ------ ----- --- ---- ------- -- ---- --- --<br>------- ------,205247,205242,204935.64,204935,204942.52,205258.86,,22,the
screen,html.Screen,2_1_1_1_23,2022-02-02T16:08:18.419Z,,,,,,,,,,,,,,,,,54,,,,,,,,,,,,,,170.14000000001397,,response,,,,100,,,,,,,Space,keypress(Space),,,,,,,,-- --- ---- --- ------ ----- ------- ---- -- --- ------- --<br>------- ---------- ------ -- ----- -- ----- -- ---- ------<br>--- state --- --- ------ -------- ----- --- ------ ----- --<br>----- ----- ---------- --- --- ------ ------ ---- -- ------<br>------- --- ------ ----- --- ---- ------- -- ---- --- --<br>------- ------,205444,205429,205246.84,205247,205258.86,205458.62,,23,state
screen,html.Screen,2_1_1_1_24,2022-02-02T16:08:18.619Z,,,,,,,,,,,,,,,,,54,,,,,,,,,,,,,,174.38000000000466,,response,,,,100,,,,,,,Space,keypress(Space),,,,,,,,-- --- ---- --- ------ ----- ------- ---- -- --- ------- --<br>------- ---------- ------ -- ----- -- ----- -- ---- ------<br>--- ----- cut --- ------ -------- ----- --- ------ ----- --<br>----- ----- ---------- --- --- ------ ------ ---- -- ------<br>------- --- ------ ----- --- ---- ------- -- ---- --- --<br>------- ------,205643,205633,205444.18,205444,205458.62,205658.46,,24,cut
screen,html.Screen,2_1_1_1_25,2022-02-02T16:08:18.766Z,,,,,,,,,,,,,,,,,54,,,,,,,,,,,,,,114.54000000000815,,response,,,,100,,,,,,,Space,keypress(Space),,,,,,,,-- --- ---- --- ------ ----- ------- ---- -- --- ------- --<br>------- ---------- ------ -- ----- -- ----- -- ---- ------<br>--- ----- --- the ------ -------- ----- --- ------ ----- --<br>----- ----- ---------- --- --- ------ ------ ---- -- ------<br>------- --- ------ ----- --- ---- ------- -- ---- --- --<br>------- ------,205790,205773,205644.66,205645,205658.46,205791.66,,25,the
screen,html.Screen,2_1_1_1_26,2022-02-02T16:08:18.990Z,,,,,,,,,,,,,,,,,54,,,,,,,,,,,,,,216.3399999999965,,response,,,,100,,,,,,,Space,keypress(Space),,,,,,,,-- --- ---- --- ------ ----- ------- ---- -- --- ------- --<br>------- ---------- ------ -- ----- -- ----- -- ---- ------<br>--- ----- --- --- bonds' -------- ----- --- ------ ----- --<br>----- ----- ---------- --- --- ------ ------ ---- -- ------<br>------- --- ------ ----- --- ---- ------- -- ---- --- --<br>------- ------,206014,206008,205790.68,205791,205791.66,206024.76,,26,bonds'
screen,html.Screen,2_1_1_1_27,2022-02-02T16:08:19.167Z,,,,,,,,,,,,,,,,,54,,,,,,,,,,,,,,154.2399999999907,,response,,,,100,,,,,,,Space,keypress(Space),,,,,,,,-- --- ---- --- ------ ----- ------- ---- -- --- ------- --<br>------- ---------- ------ -- ----- -- ----- -- ---- ------<br>--- ----- --- --- ------ interest ----- --- ------ ----- --<br>----- ----- ---------- --- --- ------ ------ ---- -- ------<br>------- --- ------ ----- --- ---- ------- -- ---- --- --<br>------- ------,206192,206179,206014.84,206014,206024.76,206207.92,,27,interest
screen,html.Screen,2_1_1_1_28,2022-02-02T16:08:19.367Z,,,,,,,,,,,,,,,,,54,,,,,,,,,,,,,,175.0799999999872,,response,,,,100,,,,,,,Space,keypress(Space),,,,,,,,-- --- ---- --- ------ ----- ------- ---- -- --- ------- --<br>------- ---------- ------ -- ----- -- ----- -- ---- ------<br>--- ----- --- --- ------ -------- rate. --- ------ ----- --<br>----- ----- ---------- --- --- ------ ------ ---- -- ------<br>------- --- ------ ----- --- ---- ------- -- ---- --- --<br>------- ------,206392,206383,206191.96,206192,206207.92,206407.72,,28,rate.
screen,html.Screen,2_1_1_1_29,2022-02-02T16:08:19.773Z,,,,,,,,,,,,,,,,,54,,,,,,,,,,,,,,382.27999999999884,,response,,,,100,,,,,,,Space,keypress(Space),,,,,,,,-- --- ---- --- ------ ----- ------- ---- -- --- ------- --<br>------- ---------- ------ -- ----- -- ----- -- ---- ------<br>--- ----- --- --- ------ -------- ----- The ------ ----- --<br>----- ----- ---------- --- --- ------ ------ ---- -- ------<br>------- --- ------ ----- --- ---- ------- -- ---- --- --<br>------- ------,206797,206790,206392.06,206392,206407.72,206807.3,,29,The
screen,html.Screen,2_1_1_1_30,2022-02-02T16:08:20.121Z,,,,,,,,,,,,,,,,,54,,,,,,,,,,,,,,325.70000000001164,,response,,,,100,,,,,,,Space,keypress(Space),,,,,,,,-- --- ---- --- ------ ----- ------- ---- -- --- ------- --<br>------- ---------- ------ -- ----- -- ----- -- ---- ------<br>--- ----- --- --- ------ -------- ----- --- market ----- --<br>----- ----- ---------- --- --- ------ ------ ---- -- ------<br>------- --- ------ ----- --- ---- ------- -- ---- --- --<br>------- ------,207146,207133,206797.74,206797,206807.3,207156.96,,30,market
screen,html.Screen,2_1_1_1_31,2022-02-02T16:08:20.387Z,,,,,,,,,,,,,,,,,54,,,,,,,,,,,,,,242.04000000000815,,response,,,,100,,,,,,,Space,keypress(Space),,,,,,,,-- --- ---- --- ------ ----- ------- ---- -- --- ------- --<br>------- ---------- ------ -- ----- -- ----- -- ---- ------<br>--- ----- --- --- ------ -------- ----- --- ------ value --<br>----- ----- ---------- --- --- ------ ------ ---- -- ------<br>------- --- ------ ----- --- ---- ------- -- ---- --- --<br>------- ------,207413,207399,207145.58,207146,207156.96,207423.38,,31,value
screen,html.Screen,2_1_1_1_32,2022-02-02T16:08:20.743Z,,,,,,,,,,,,,,,,,54,,,,,,,,,,,,,,335.61999999999534,,response,,,,100,,,,,,,Space,keypress(Space),,,,,,,,-- --- ---- --- ------ ----- ------- ---- -- --- ------- --<br>------- ---------- ------ -- ----- -- ----- -- ---- ------<br>--- ----- --- --- ------ -------- ----- --- ------ ----- of<br>----- ----- ---------- --- --- ------ ------ ---- -- ------<br>------- --- ------ ----- --- ---- ------- -- ---- --- --<br>------- ------,207767,207759,207412.34,207413,207423.38,207773.06,,32,of
screen,html.Screen,2_1_1_1_33,2022-02-02T16:08:21.041Z,,,,,,,,,,,,,,,,,54,,,,,,,,,,,,,,280.9400000000023,,response,,,,100,,,,,,,Space,keypress(Space),,,,,,,,-- --- ---- --- ------ ----- ------- ---- -- --- ------- --<br>------- ---------- ------ -- ----- -- ----- -- ---- ------<br>--- ----- --- --- ------ -------- ----- --- ------ ----- --<br>these ----- ---------- --- --- ------ ------ ---- -- ------<br>------- --- ------ ----- --- ---- ------- -- ---- --- --<br>------- ------,208065,208054,207767.6,207767,207773.06,208072.72,,33,these
screen,html.Screen,2_1_1_1_34,2022-02-02T16:08:21.220Z,,,,,,,,,,,,,,,,,54,,,,,,,,,,,,,,153.27999999999884,,response,,,,100,,,,,,,Space,keypress(Space),,,,,,,,-- --- ---- --- ------ ----- ------- ---- -- --- ------- --<br>------- ---------- ------ -- ----- -- ----- -- ---- ------<br>--- ----- --- --- ------ -------- ----- --- ------ ----- --<br>----- bonds ---------- --- --- ------ ------ ---- -- ------<br>------- --- ------ ----- --- ---- ------- -- ---- --- --<br>------- ------,208245,208226,208065.24,208065,208072.72,208255.88,,34,bonds
screen,html.Screen,2_1_1_1_35,2022-02-02T16:08:21.420Z,,,,,,,,,,,,,,,,,54,,,,,,,,,,,,,,173.11999999999534,,response,,,,100,,,,,,,Space,keypress(Space),,,,,,,,"-- --- ---- --- ------ ----- ------- ---- -- --- ------- --<br>------- ---------- ------ -- ----- -- ----- -- ---- ------<br>--- ----- --- --- ------ -------- ----- --- ------ ----- --<br>----- ----- plummeted, --- --- ------ ------ ---- -- ------<br>------- --- ------ ----- --- ---- ------- -- ---- --- --<br>------- ------",208445,208429,208245.2,208245,208255.88,208455.72,,35,"plummeted,"
screen,html.Screen,2_1_1_1_36,2022-02-02T16:08:21.641Z,,,,,,,,,,,,,,,,,54,,,,,,,,,,,,,,192.27999999999884,,response,,,,100,,,,,,,Space,keypress(Space),,,,,,,,-- --- ---- --- ------ ----- ------- ---- -- --- ------- --<br>------- ---------- ------ -- ----- -- ----- -- ---- ------<br>--- ----- --- --- ------ -------- ----- --- ------ ----- --<br>----- ----- ---------- and --- ------ ------ ---- -- ------<br>------- --- ------ ----- --- ---- ------- -- ---- --- --<br>------- ------,208665,208648,208445.8,208446,208455.72,208672.16,,36,and
screen,html.Screen,2_1_1_1_37,2022-02-02T16:08:21.951Z,,,,,,,,,,,,,,,,,54,,,,,,,,,,,,,,288.8399999999965,,response,,,,100,,,,,,,Space,keypress(Space),,,,,,,,-- --- ---- --- ------ ----- ------- ---- -- --- ------- --<br>------- ---------- ------ -- ----- -- ----- -- ---- ------<br>--- ----- --- --- ------ -------- ----- --- ------ ----- --<br>----- ----- ---------- --- the ------ ------ ---- -- ------<br>------- --- ------ ----- --- ---- ------- -- ---- --- --<br>------- ------,208976,208961,208665.3,208665,208672.16,208988.5,,37,the
screen,html.Screen,2_1_1_1_38,2022-02-02T16:08:22.176Z,,,,,,,,,,,,,,,,,54,,,,,,,,,,,,,,206.5,,response,,,,100,,,,,,,Space,keypress(Space),,,,,,,,-- --- ---- --- ------ ----- ------- ---- -- --- ------- --<br>------- ---------- ------ -- ----- -- ----- -- ---- ------<br>--- ----- --- --- ------ -------- ----- --- ------ ----- --<br>----- ----- ---------- --- --- market ------ ---- -- ------<br>------- --- ------ ----- --- ---- ------- -- ---- --- --<br>------- ------,209201,209195,208976.4,208976,208988.5,209204.92,,38,market
screen,html.Screen,2_1_1_1_39,2022-02-02T16:08:22.392Z,,,,,,,,,,,,,,,,,54,,,,,,,,,,,,,,193.0799999999872,,response,,,,100,,,,,,,Space,keypress(Space),,,,,,,,-- --- ---- --- ------ ----- ------- ---- -- --- ------- --<br>------- ---------- ------ -- ----- -- ----- -- ---- ------<br>--- ----- --- --- ------ -------- ----- --- ------ ----- --<br>----- ----- ---------- --- --- ------ became ---- -- ------<br>------- --- ------ ----- --- ---- ------- -- ---- --- --<br>------- ------,209417,209398,209201.24,209201,209204.92,209421.4,,39,became
screen,html.Screen,2_1_1_1_40,2022-02-02T16:08:22.613Z,,,,,,,,,,,,,,,,,54,,,,,,,,,,,,,,211.60000000000582,,response,,,,100,,,,,,,Space,keypress(Space),,,,,,,,-- --- ---- --- ------ ----- ------- ---- -- --- ------- --<br>------- ---------- ------ -- ----- -- ----- -- ---- ------<br>--- ----- --- --- ------ -------- ----- --- ------ ----- --<br>----- ----- ---------- --- --- ------ ------ wary -- ------<br>------- --- ------ ----- --- ---- ------- -- ---- --- --<br>------- ------,209638,209633,209417.24,209418,209421.4,209637.88,,40,wary
screen,html.Screen,2_1_1_1_41,2022-02-02T16:08:22.836Z,,,,,,,,,,,,,,,,,54,,,,,,,,,,,,,,214.11999999999534,,response,,,,100,,,,,,,Space,keypress(Space),,,,,,,,-- --- ---- --- ------ ----- ------- ---- -- --- ------- --<br>------- ---------- ------ -- ----- -- ----- -- ---- ------<br>--- ----- --- --- ------ -------- ----- --- ------ ----- --<br>----- ----- ---------- --- --- ------ ------ ---- of ------<br>------- --- ------ ----- --- ---- ------- -- ---- --- --<br>------- ------,209860,209852,209637.46,209638,209637.88,209870.96,,41,of
screen,html.Screen,2_1_1_1_42,2022-02-02T16:08:23.100Z,,,,,,,,,,,,,,,,,54,,,,,,,,,,,,,,246.04000000000815,,response,,,,100,,,,,,,Space,keypress(Space),,,,,,,,-- --- ---- --- ------ ----- ------- ---- -- --- ------- --<br>------- ---------- ------ -- ----- -- ----- -- ---- ------<br>--- ----- --- --- ------ -------- ----- --- ------ ----- --<br>----- ----- ---------- --- --- ------ ------ ---- -- French<br>------- --- ------ ----- --- ---- ------- -- ---- --- --<br>------- ------,210125,210117,209860.4,209860,209870.96,210137.36,,42,French
screen,html.Screen,2_1_1_1_43,2022-02-02T16:08:23.369Z,,,,,,,,,,,,,,,,,54,,,,,,,,,,,,,,246.64000000001397,,response,,,,100,,,,,,,Space,keypress(Space),,,,,,,,-- --- ---- --- ------ ----- ------- ---- -- --- ------- --<br>------- ---------- ------ -- ----- -- ----- -- ---- ------<br>--- ----- --- --- ------ -------- ----- --- ------ ----- --<br>----- ----- ---------- --- --- ------ ------ ---- -- ------<br>credit. --- ------ ----- --- ---- ------- -- ---- --- --<br>------- ------,210393,210384,210125.4,210126,210137.36,210403.8,,43,credit.
screen,html.Screen,2_1_1_1_44,2022-02-02T16:08:23.591Z,,,,,,,,,,,,,,,,,54,,,,,,,,,,,,,,197.20000000001164,,response,,,,100,,,,,,,Space,keypress(Space),,,,,,,,-- --- ---- --- ------ ----- ------- ---- -- --- ------- --<br>------- ---------- ------ -- ----- -- ----- -- ---- ------<br>--- ----- --- --- ------ -------- ----- --- ------ ----- --<br>----- ----- ---------- --- --- ------ ------ ---- -- ------<br>------- The ------ ----- --- ---- ------- -- ---- --- --<br>------- ------,210616,210601,210394.1,210394,210403.8,210620.24,,44,The
screen,html.Screen,2_1_1_1_45,2022-02-02T16:08:23.887Z,,,,,,,,,,,,,,,,,54,,,,,,,,,,,,,,277.7600000000093,,response,,,,100,,,,,,,Space,keypress(Space),,,,,,,,-- --- ---- --- ------ ----- ------- ---- -- --- ------- --<br>------- ---------- ------ -- ----- -- ----- -- ---- ------<br>--- ----- --- --- ------ -------- ----- --- ------ ----- --<br>----- ----- ---------- --- --- ------ ------ ---- -- ------<br>------- --- French ----- --- ---- ------- -- ---- --- --<br>------- ------,210912,210898,210616,210616,210620.24,210919.88,,45,French
screen,html.Screen,2_1_1_1_46,2022-02-02T16:08:24.143Z,,,,,,,,,,,,,,,,,54,,,,,,,,,,,,,,244.11999999999534,,response,,,,100,,,,,,,Space,keypress(Space),,,,,,,,-- --- ---- --- ------ ----- ------- ---- -- --- ------- --<br>------- ---------- ------ -- ----- -- ----- -- ---- ------<br>--- ----- --- --- ------ -------- ----- --- ------ ----- --<br>----- ----- ---------- --- --- ------ ------ ---- -- ------<br>------- --- ------ state --- ---- ------- -- ---- --- --<br>------- ------,211168,211164,210911.68,210912,210919.88,211169.66,,46,state
screen,html.Screen,2_1_1_1_47,2022-02-02T16:08:24.400Z,,,,,,,,,,,,,,,,,54,,,,,,,,,,,,,,245.3399999999965,,response,,,,100,,,,,,,Space,keypress(Space),,,,,,,,-- --- ---- --- ------ ----- ------- ---- -- --- ------- --<br>------- ---------- ------ -- ----- -- ----- -- ---- ------<br>--- ----- --- --- ------ -------- ----- --- ------ ----- --<br>----- ----- ---------- --- --- ------ ------ ---- -- ------<br>------- --- ------ ----- was ---- ------- -- ---- --- --<br>------- ------,211424,211415,211168.34,211168,211169.66,211436.08,,47,was
screen,html.Screen,2_1_1_1_48,2022-02-02T16:08:24.716Z,,,,,,,,,,,,,,,,,54,,,,,,,,,,,,,,289.9200000000128,,response,,,,100,,,,,,,Space,keypress(Space),,,,,,,,-- --- ---- --- ------ ----- ------- ---- -- --- ------- --<br>------- ---------- ------ -- ----- -- ----- -- ---- ------<br>--- ----- --- --- ------ -------- ----- --- ------ ----- --<br>----- ----- ---------- --- --- ------ ------ ---- -- ------<br>------- --- ------ ----- --- left ------- -- ---- --- --<br>------- ------,211741,211726,211424.82,211424,211436.08,211752.42,,48,left
screen,html.Screen,2_1_1_1_49,2022-02-02T16:08:24.975Z,,,,,,,,,,,,,,,,,54,,,,,,,,,,,,,,239.5799999999872,,response,,,,100,,,,,,,Space,keypress(Space),,,,,,,,-- --- ---- --- ------ ----- ------- ---- -- --- ------- --<br>------- ---------- ------ -- ----- -- ----- -- ---- ------<br>--- ----- --- --- ------ -------- ----- --- ------ ----- --<br>----- ----- ---------- --- --- ------ ------ ---- -- ------<br>------- --- ------ ----- --- ---- without -- ---- --- --<br>------- ------,212001,211992,211741.28,211741,211752.42,212002.2,,49,without
screen,html.Screen,2_1_1_1_50,2022-02-02T16:08:25.226Z,,,,,,,,,,,,,,,,,54,,,,,,,,,,,,,,239.79999999998836,,response,,,,100,,,,,,,Space,keypress(Space),,,,,,,,-- --- ---- --- ------ ----- ------- ---- -- --- ------- --<br>------- ---------- ------ -- ----- -- ----- -- ---- ------<br>--- ----- --- --- ------ -------- ----- --- ------ ----- --<br>----- ----- ---------- --- --- ------ ------ ---- -- ------<br>------- --- ------ ----- --- ---- ------- an ---- --- --<br>------- ------,212251,212242,212000.54,212001,212002.2,212251.98,,50,an
screen,html.Screen,2_1_1_1_51,2022-02-02T16:08:25.513Z,,,,,,,,,,,,,,,,,54,,,,,,,,,,,,,,272.0199999999895,,response,,,,100,,,,,,,Space,keypress(Space),,,,,,,,-- --- ---- --- ------ ----- ------- ---- -- --- ------- --<br>------- ---------- ------ -- ----- -- ----- -- ---- ------<br>--- ----- --- --- ------ -------- ----- --- ------ ----- --<br>----- ----- ---------- --- --- ------ ------ ---- -- ------<br>------- --- ------ ----- --- ---- ------- -- easy --- --<br>------- ------,212538,212524,212251.42,212252,212251.98,212551.64,,51,easy
screen,html.Screen,2_1_1_1_52,2022-02-02T16:08:25.821Z,,,,,,,,,,,,,,,,,54,,,,,,,,,,,,,,284.35999999998603,,response,,,,100,,,,,,,Space,keypress(Space),,,,,,,,-- --- ---- --- ------ ----- ------- ---- -- --- ------- --<br>------- ---------- ------ -- ----- -- ----- -- ---- ------<br>--- ----- --- --- ------ -------- ----- --- ------ ----- --<br>----- ----- ---------- --- --- ------ ------ ---- -- ------<br>------- --- ------ ----- --- ---- ------- -- ---- way --<br>------- ------,212846,212836,212538.76,212538,212551.64,212851.38,,52,way
screen,html.Screen,2_1_1_1_53,2022-02-02T16:08:26.150Z,,,,,,,,,,,,,,,,,54,,,,,,,,,,,,,,312.61999999999534,,response,,,,100,,,,,,,Space,keypress(Space),,,,,,,,-- --- ---- --- ------ ----- ------- ---- -- --- ------- --<br>------- ---------- ------ -- ----- -- ----- -- ---- ------<br>--- ----- --- --- ------ -------- ----- --- ------ ----- --<br>----- ----- ---------- --- --- ------ ------ ---- -- ------<br>------- --- ------ ----- --- ---- ------- -- ---- --- of<br>------- ------,213174,213164,212845.7,212846,212851.38,213184.38,,53,of
screen,html.Screen,2_1_1_1_54,2022-02-02T16:08:26.457Z,,,,,,,,,,,,,,,,,54,,,,,,,,,,,,,,292.61999999999534,,response,,,,100,,,,,,,Space,keypress(Space),,,,,,,,-- --- ---- --- ------ ----- ------- ---- -- --- ------- --<br>------- ---------- ------ -- ----- -- ----- -- ---- ------<br>--- ----- --- --- ------ -------- ----- --- ------ ----- --<br>----- ----- ---------- --- --- ------ ------ ---- -- ------<br>------- --- ------ ----- --- ---- ------- -- ---- --- --<br>raising ------,213482,213477,213174.92,213175,213184.38,213484.1,,54,raising
screen,html.Screen,2_1_1_1_55,2022-02-02T16:08:26.931Z,,,,,,,,,,,,,,,,,54,,,,,,,,,,,,,,460.8999999999942,,response,,,,100,,,,,,,Space,keypress(Space),,,,,,,,-- --- ---- --- ------ ----- ------- ---- -- --- ------- --<br>------- ---------- ------ -- ----- -- ----- -- ---- ------<br>--- ----- --- --- ------ -------- ----- --- ------ ----- --<br>----- ----- ---------- --- --- ------ ------ ---- -- ------<br>------- --- ------ ----- --- ---- ------- -- ---- --- --<br>------- money.,213956,213945,213482.78,213482,213484.1,213966.92,,55,money.
Item 100,flow.Loop,2_1_1_1,2022-02-02T16:08:26.932Z,,,,,,,,,,,,,,,,,,,,,,,,,,,,,,,15945.600000000006,,completion,,,,,D,,,,,,,,,,,silence,,,,,213956,213945,197982.74,197985,197999.4,213966.92,,,
Question 1,html.Screen,2_1_1_2,2022-02-02T16:08:29.090Z,,,,,,,,,,,,,,,,,,,,,,,,,,,,true,TRUE,,2134.079999999987,,response,,,,100,D,,,,,,TRUE,click #choice-1,,,,silence,,,,,216114,216101,213956.98,213956,213966.92,216114.78,,,
Question 2,html.Screen,2_1_1_3,2022-02-02T16:08:30.337Z,,,,,,,,,,,,,,,,,,,,,,,,,,,,false,FALSE,,1236.2200000000012,,response,,,,100,D,,,,,,TRUE,click #choice-1,,,,silence,,,,,217362,217351,216113.66,216114,216114.78,217363.54,,,
Item 100,flow.Sequence,2_1_1,2022-02-02T16:08:30.337Z,,,,,,,,,,,,,,,,,,,,,,,,,,,,,,,29358.420000000013,,completion,,,,,,,,,,,,,,,,,,,,,217362,217351,187977.44,187979,187992.58,217363.54,,,
End of Practice,html.Page,2_1_2,2022-02-02T16:08:33.059Z,,,,,,,,,,,,,,,,,,,,,,,,,,,,,,,2720.459999999992,,form submission,,,,,,,,,,,,,,,,,,,,,220084,220084,217361.34,217362,217363.54,220094.18,,,
Practice,flow.Sequence,2_1,2022-02-02T16:08:33.060Z,,,,,,,,,,,,,,,,,,,,,,,,,,,,,,,66674,,completion,,,,,,,,,,,,,,,,,,,,,220084,220084,153393.82,153398,153410,220094.18,,,
Trap_instruction,html.Page,2_2_0,2022-02-02T16:08:35.010Z,,,,,,,,,,,,,,,,,,,,,,,,,,,,,,,1940.820000000007,,form submission,,,,,,,,,,,,,,,,,,,,,222036,222035,220081.64,220084,220094.18,222042.3,,,
trap_trial,html.Screen,2_2_1,2022-02-02T16:08:38.105Z,,,,,,,,,,,,,,,,,,,,,,,,,,,,true,1,,3074.7000000000116,,response,,,,,,,,,,,1,click #choice-1,,,,,,,,,225130,225117,222033.78,222036,222042.3,225139.26,,,
end of trap trial,html.Page,2_2_2,2022-02-02T16:08:39.337Z,,,,,,,,,,,,,,,,,,,,,,,,,,,,,,,1222.7399999999907,,form submission,,,,,,,,,,,,,,,,,,,,,226362,226362,225129.56,225130,225139.26,226371.32,,,
Trap 1,flow.Sequence,2_2,2022-02-02T16:08:39.337Z,,,,,,,,,,,,,,,,,,,,,,,,,,,,,,,6267.820000000007,,completion,,,,,,,,,,,,,,,,,,,,,226362,226362,220081.64,220084,220094.18,226371.32,,,
Standby,html.Page,2_3_0,2022-02-02T16:08:47.323Z,,,,,,,,,,,,,,,,,,,,,,,,,,,,,,,7992.100000000006,,timeout,,,,,,,,,,,,,,,,,,,,,234348,234346.78,226360.88,226362,226371.32,234363.42,,,
Holding screen,html.Screen,2_3_1_0_0,2022-02-02T16:08:54.317Z,,,,,,,,,,,,,,,,,,,,,,,,,,,,,,,6993.119999999995,,timeout,,,,,,,,,,,,,,,,,,,,,241341,241339.9,234346.78,234348,234363.42,241356.54,,,
screen,html.Screen,2_3_1_0_1_0,2022-02-02T16:08:56.010Z,,,,,,,,,,,,,,,,,48,,,,,,,,,,,,,,1666.4599999999919,,response,,,,10,D,,,,,,Space,keypress(Space),,,,silence,,,,As -- --- ------ ------- --------- ----------- --------<br>--------- -------- --- ------- -- ------- ---- -- ------<br>-- --- -------- -------- ---------- ---- ---- ---- ------<br>-- --------- -- ---- -- --- -- --- ------- -- - -----<br>---------- -- -- -- ---- ----- -- ------ -- --- ------<br>-------,243035,243023,241339.9,241341,241356.54,243038.22,,0,As
screen,html.Screen,2_3_1_0_1_1,2022-02-02T16:08:56.266Z,,,,,,,,,,,,,,,,,48,,,,,,,,,,,,,,234.77999999999884,,response,,,,10,D,,,,,,Space,keypress(Space),,,,silence,,,,-- in --- ------ ------- --------- ----------- --------<br>--------- -------- --- ------- -- ------- ---- -- ------<br>-- --- -------- -------- ---------- ---- ---- ---- ------<br>-- --------- -- ---- -- --- -- --- ------- -- - -----<br>---------- -- -- -- ---- ----- -- ------ -- --- ------<br>-------,243291,243273,243035.18,243035,243038.22,243304.64,,1,in
screen,html.Screen,2_3_1_0_1_2,2022-02-02T16:08:56.493Z,,,,,,,,,,,,,,,,,48,,,,,,,,,,,,,,203.35999999998603,,response,,,,10,D,,,,,,Space,keypress(Space),,,,silence,,,,-- -- the ------ ------- --------- ----------- --------<br>--------- -------- --- ------- -- ------- ---- -- ------<br>-- --- -------- -------- ---------- ---- ---- ---- ------<br>-- --------- -- ---- -- --- -- --- ------- -- - -----<br>---------- -- -- -- ---- ----- -- ------ -- --- ------<br>-------,243518,243508,243290.82,243291,243304.64,243521.04,,2,the
screen,html.Screen,2_3_1_0_1_3,2022-02-02T16:08:56.693Z,,,,,,,,,,,,,,,,,48,,,,,,,,,,,,,,189.95999999999185,,response,,,,10,D,,,,,,Space,keypress(Space),,,,silence,,,,-- -- --- United ------- --------- ----------- --------<br>--------- -------- --- ------- -- ------- ---- -- ------<br>-- --- -------- -------- ---------- ---- ---- ---- ------<br>-- --------- -- ---- -- --- -- --- ------- -- - -----<br>---------- -- -- -- ---- ----- -- ------ -- --- ------<br>-------,243717,243711,243517.8,243518,243521.04,243720.86,,3,United
screen,html.Screen,2_3_1_0_1_4,2022-02-02T16:08:56.887Z,,,,,,,,,,,,,,,,,48,,,,,,,,,,,,,,178.14000000001397,,response,,,,10,D,,,,,,Space,keypress(Space),,,,silence,,,,"-- -- --- ------ States, --------- ----------- --------<br>--------- -------- --- ------- -- ------- ---- -- ------<br>-- --- -------- -------- ---------- ---- ---- ---- ------<br>-- --------- -- ---- -- --- -- --- ------- -- - -----<br>---------- -- -- -- ---- ----- -- ------ -- --- ------<br>-------",243912,243899,243717.76,243717,243720.86,243920.68,,4,"States,"
screen,html.Screen,2_3_1_0_1_5,2022-02-02T16:08:57.110Z,,,,,,,,,,,,,,,,,48,,,,,,,,,,,,,,196.32000000000698,,response,,,,10,D,,,,,,Space,keypress(Space),,,,silence,,,,-- -- --- ------ ------- Colombian ----------- --------<br>--------- -------- --- ------- -- ------- ---- -- ------<br>-- --- -------- -------- ---------- ---- ---- ---- ------<br>-- --------- -- ---- -- --- -- --- ------- -- - -----<br>---------- -- -- -- ---- ----- -- ------ -- --- ------<br>-------,244136,244117,243912.24,243912,243920.68,244137.16,,5,Colombian
screen,html.Screen,2_3_1_0_1_6,2022-02-02T16:08:57.501Z,,,,,,,,,,,,,,,,,48,,,,,,,,,,,,,,370.8399999999965,,response,,,,10,D,,,,,,Space,keypress(Space),,,,silence,,,,-- -- --- ------ ------- --------- legislation --------<br>--------- -------- --- ------- -- ------- ---- -- ------<br>-- --- -------- -------- ---------- ---- ---- ---- ------<br>-- --------- -- ---- -- --- -- --- ------- -- - -----<br>---------- -- -- -- ---- ----- -- ------ -- --- ------<br>-------,244525,244508,244135.68,244136,244137.16,244536.76,,6,legislation
screen,html.Screen,2_3_1_0_1_7,2022-02-02T16:08:57.860Z,,,,,,,,,,,,,,,,,48,,,,,,,,,,,,,,330.2399999999907,,response,,,,10,D,,,,,,Space,keypress(Space),,,,silence,,,,-- -- --- ------ ------- --------- ----------- requires<br>--------- -------- --- ------- -- ------- ---- -- ------<br>-- --- -------- -------- ---------- ---- ---- ---- ------<br>-- --------- -- ---- -- --- -- --- ------- -- - -----<br>---------- -- -- -- ---- ----- -- ------ -- --- ------<br>-------,244884,244867,244525.24,244525,244536.76,244886.4,,7,requires
screen,html.Screen,2_3_1_0_1_8,2022-02-02T16:08:58.201Z,,,,,,,,,,,,,,,,,48,,,,,,,,,,,,,,325.6000000000058,,response,,,,10,D,,,,,,Space,keypress(Space),,,,silence,,,,-- -- --- ------ ------- --------- ----------- --------<br>travelers -------- --- ------- -- ------- ---- -- ------<br>-- --- -------- -------- ---------- ---- ---- ---- ------<br>-- --------- -- ---- -- --- -- --- ------- -- - -----<br>---------- -- -- -- ---- ----- -- ------ -- --- ------<br>-------,245226,245212,244884.7,244885,244886.4,245236.08,,8,travelers
screen,html.Screen,2_3_1_0_1_9,2022-02-02T16:08:58.568Z,,,,,,,,,,,,,,,,,48,,,,,,,,,,,,,,350.9200000000128,,response,,,,10,D,,,,,,Space,keypress(Space),,,,silence,,,,-- -- --- ------ ------- --------- ----------- --------<br>--------- entering --- ------- -- ------- ---- -- ------<br>-- --- -------- -------- ---------- ---- ---- ---- ------<br>-- --------- -- ---- -- --- -- --- ------- -- - -----<br>---------- -- -- -- ---- ----- -- ------ -- --- ------<br>-------,245592,245587,245225.98,245226,245236.08,245602.38,,9,entering
screen,html.Screen,2_3_1_0_1_10,2022-02-02T16:08:58.831Z,,,,,,,,,,,,,,,,,48,,,,,,,,,,,,,,248.61999999999534,,response,,,,10,D,,,,,,Space,keypress(Space),,,,silence,,,,-- -- --- ------ ------- --------- ----------- --------<br>--------- -------- the ------- -- ------- ---- -- ------<br>-- --- -------- -------- ---------- ---- ---- ---- ------<br>-- --------- -- ---- -- --- -- --- ------- -- - -----<br>---------- -- -- -- ---- ----- -- ------ -- --- ------<br>-------,245856,245851,245592.64,245593,245602.38,245868.7,,10,the
screen,html.Screen,2_3_1_0_1_11,2022-02-02T16:08:59.121Z,,,,,,,,,,,,,,,,,48,,,,,,,,,,,,,,264.29999999998836,,response,,,,10,D,,,,,,Space,keypress(Space),,,,silence,,,,-- -- --- ------ ------- --------- ----------- --------<br>--------- -------- --- country -- ------- ---- -- ------<br>-- --- -------- -------- ---------- ---- ---- ---- ------<br>-- --------- -- ---- -- --- -- --- ------- -- - -----<br>---------- -- -- -- ---- ----- -- ------ -- --- ------<br>-------,246146,246133,245856.24,245856,245868.7,246151.78,,11,country
screen,html.Screen,2_3_1_0_1_12,2022-02-02T16:08:59.338Z,,,,,,,,,,,,,,,,,48,,,,,,,,,,,,,,199.22000000000116,,response,,,,10,D,,,,,,Space,keypress(Space),,,,silence,,,,-- -- --- ------ ------- --------- ----------- --------<br>--------- -------- --- ------- to ------- ---- -- ------<br>-- --- -------- -------- ---------- ---- ---- ---- ------<br>-- --------- -- ---- -- --- -- --- ------- -- - -----<br>---------- -- -- -- ---- ----- -- ------ -- --- ------<br>-------,246363,246351,246145.62,246146,246151.78,246368.26,,12,to
screen,html.Screen,2_3_1_0_1_13,2022-02-02T16:08:59.590Z,,,,,,,,,,,,,,,,,48,,,,,,,,,,,,,,233.7399999999907,,response,,,,10,D,,,,,,Space,keypress(Space),,,,silence,,,,-- -- --- ------ ------- --------- ----------- --------<br>--------- -------- --- ------- -- declare ---- -- ------<br>-- --- -------- -------- ---------- ---- ---- ---- ------<br>-- --------- -- ---- -- --- -- --- ------- -- - -----<br>---------- -- -- -- ---- ----- -- ------ -- --- ------<br>-------,246615,246602,246362.86,246363,246368.26,246618,,13,declare
screen,html.Screen,2_3_1_0_1_14,2022-02-02T16:08:59.790Z,,,,,,,,,,,,,,,,,48,,,,,,,,,,,,,,187,,response,,,,10,D,,,,,,Space,keypress(Space),,,,silence,,,,-- -- --- ------ ------- --------- ----------- --------<br>--------- -------- --- ------- -- ------- cash -- ------<br>-- --- -------- -------- ---------- ---- ---- ---- ------<br>-- --------- -- ---- -- --- -- --- ------- -- - -----<br>---------- -- -- -- ---- ----- -- ------ -- --- ------<br>-------,246815,246805,246614.6,246615,246618,246817.82,,14,cash
screen,html.Screen,2_3_1_0_1_15,2022-02-02T16:09:00.092Z,,,,,,,,,,,,,,,,,48,,,,,,,,,,,,,,283.179999999993,,response,,,,10,D,,,,,,Space,keypress(Space),,,,silence,,,,-- -- --- ------ ------- --------- ----------- --------<br>--------- -------- --- ------- -- ------- ---- in ------<br>-- --- -------- -------- ---------- ---- ---- ---- ------<br>-- --------- -- ---- -- --- -- --- ------- -- - -----<br>---------- -- -- -- ---- ----- -- ------ -- --- ------<br>-------,247117,247101,246815.08,246815,246817.82,247117.5,,15,in
screen,html.Screen,2_3_1_0_1_16,2022-02-02T16:09:00.357Z,,,,,,,,,,,,,,,,,48,,,,,,,,,,,,,,250.5,,response,,,,10,D,,,,,,Space,keypress(Space),,,,silence,,,,-- -- --- ------ ------- --------- ----------- --------<br>--------- -------- --- ------- -- ------- ---- -- excess<br>-- --- -------- -------- ---------- ---- ---- ---- ------<br>-- --------- -- ---- -- --- -- --- ------- -- - -----<br>---------- -- -- -- ---- ----- -- ------ -- --- ------<br>-------,247382,247368,247116.82,247117,247117.5,247383.9,,16,excess
screen,html.Screen,2_3_1_0_1_17,2022-02-02T16:09:00.649Z,,,,,,,,,,,,,,,,,48,,,,,,,,,,,,,,280.1000000000058,,response,,,,10,D,,,,,,Space,keypress(Space),,,,silence,,,,-- -- --- ------ ------- --------- ----------- --------<br>--------- -------- --- ------- -- ------- ---- -- ------<br>of --- -------- -------- ---------- ---- ---- ---- ------<br>-- --------- -- ---- -- --- -- --- ------- -- - -----<br>---------- -- -- -- ---- ----- -- ------ -- --- ------<br>-------,247674,247664,247381.9,247382,247383.9,247683.64,,17,of
screen,html.Screen,2_3_1_0_1_18,2022-02-02T16:09:00.842Z,,,,,,,,,,,,,,,,,48,,,,,,,,,,,,,,167.35999999998603,,response,,,,10,D,,,,,,Space,keypress(Space),,,,silence,,,,-- -- --- ------ ------- --------- ----------- --------<br>--------- -------- --- ------- -- ------- ---- -- ------<br>-- ten -------- -------- ---------- ---- ---- ---- ------<br>-- --------- -- ---- -- --- -- --- ------- -- - -----<br>---------- -- -- -- ---- ----- -- ------ -- --- ------<br>-------,247868,247851,247674.28,247674,247683.64,247883.46,,18,ten
screen,html.Screen,2_3_1_0_1_19,2022-02-02T16:09:01.188Z,,,,,,,,,,,,,,,,,48,,,,,,,,,,,,,,311.54000000000815,,response,,,,10,D,,,,,,Space,keypress(Space),,,,silence,,,,-- -- --- ------ ------- --------- ----------- --------<br>--------- -------- --- ------- -- ------- ---- -- ------<br>-- --- thousand -------- ---------- ---- ---- ---- ------<br>-- --------- -- ---- -- --- -- --- ------- -- - -----<br>---------- -- -- -- ---- ----- -- ------ -- --- ------<br>-------,248213,248195,247867.46,247868,247883.46,248216.38,,19,thousand
screen,html.Screen,2_3_1_0_1_20,2022-02-02T16:09:01.454Z,,,,,,,,,,,,,,,,,48,,,,,,,,,,,,,,244.61999999999534,,response,,,,10,D,,,,,,Space,keypress(Space),,,,silence,,,,-- -- --- ------ ------- --------- ----------- --------<br>--------- -------- --- ------- -- ------- ---- -- ------<br>-- --- -------- dollars. ---------- ---- ---- ---- ------<br>-- --------- -- ---- -- --- -- --- ------- -- - -----<br>---------- -- -- -- ---- ----- -- ------ -- --- ------<br>-------,248478,248461,248213.26,248213,248216.38,248482.8,,20,dollars.
screen,html.Screen,2_3_1_0_1_21,2022-02-02T16:09:01.718Z,,,,,,,,,,,,,,,,,48,,,,,,,,,,,,,,243.20000000001164,,response,,,,10,D,,,,,,Space,keypress(Space),,,,silence,,,,-- -- --- ------ ------- --------- ----------- --------<br>--------- -------- --- ------- -- ------- ---- -- ------<br>-- --- -------- -------- Concealing ---- ---- ---- ------<br>-- --------- -- ---- -- --- -- --- ------- -- - -----<br>---------- -- -- -- ---- ----- -- ------ -- --- ------<br>-------,248743,248726,248478.76,248479,248482.8,248749.22,,21,Concealing
screen,html.Screen,2_3_1_0_1_22,2022-02-02T16:09:01.985Z,,,,,,,,,,,,,,,,,48,,,,,,,,,,,,,,242.77999999999884,,response,,,,10,D,,,,,,Space,keypress(Space),,,,silence,,,,-- -- --- ------ ------- --------- ----------- --------<br>--------- -------- --- ------- -- ------- ---- -- ------<br>-- --- -------- -------- ---------- more ---- ---- ------<br>-- --------- -- ---- -- --- -- --- ------- -- - -----<br>---------- -- -- -- ---- ----- -- ------ -- --- ------<br>-------,249009,248992,248742.66,248743,248749.22,249015.66,,22,more
screen,html.Screen,2_3_1_0_1_23,2022-02-02T16:09:02.230Z,,,,,,,,,,,,,,,,,48,,,,,,,,,,,,,,226.3399999999965,,response,,,,10,D,,,,,,Space,keypress(Space),,,,silence,,,,-- -- --- ------ ------- --------- ----------- --------<br>--------- -------- --- ------- -- ------- ---- -- ------<br>-- --- -------- -------- ---------- ---- than ---- ------<br>-- --------- -- ---- -- --- -- --- ------- -- - -----<br>---------- -- -- -- ---- ----- -- ------ -- --- ------<br>-------,249254,249242,249010.14,249011,249015.66,249265.44,,23,than
screen,html.Screen,2_3_1_0_1_24,2022-02-02T16:09:02.427Z,,,,,,,,,,,,,,,,,48,,,,,,,,,,,,,,179.55999999999767,,response,,,,10,D,,,,,,Space,keypress(Space),,,,silence,,,,-- -- --- ------ ------- --------- ----------- --------<br>--------- -------- --- ------- -- ------- ---- -- ------<br>-- --- -------- -------- ---------- ---- ---- that ------<br>-- --------- -- ---- -- --- -- --- ------- -- - -----<br>---------- -- -- -- ---- ----- -- ------ -- --- ------<br>-------,249452,249445,249254.36,249255,249265.44,249465.16,,24,that
screen,html.Screen,2_3_1_0_1_25,2022-02-02T16:09:02.668Z,,,,,,,,,,,,,,,,,48,,,,,,,,,,,,,,214.8399999999965,,response,,,,10,D,,,,,,Space,keypress(Space),,,,silence,,,,-- -- --- ------ ------- --------- ----------- --------<br>--------- -------- --- ------- -- ------- ---- -- ------<br>-- --- -------- -------- ---------- ---- ---- ---- amount<br>-- --------- -- ---- -- --- -- --- ------- -- - -----<br>---------- -- -- -- ---- ----- -- ------ -- --- ------<br>-------,249692,249680,249452.1,249452,249465.16,249698.3,,25,amount
screen,html.Screen,2_3_1_0_1_26,2022-02-02T16:09:02.872Z,,,,,,,,,,,,,,,,,48,,,,,,,,,,,,,,184.70000000001164,,response,,,,10,D,,,,,,Space,keypress(Space),,,,silence,,,,-- -- --- ------ ------- --------- ----------- --------<br>--------- -------- --- ------- -- ------- ---- -- ------<br>-- --- -------- -------- ---------- ---- ---- ---- ------<br>to --------- -- ---- -- --- -- --- ------- -- - -----<br>---------- -- -- -- ---- ----- -- ------ -- --- ------<br>-------,249896,249883,249692.2,249692,249698.3,249898.12,,26,to
screen,html.Screen,2_3_1_0_1_27,2022-02-02T16:09:03.261Z,,,,,,,,,,,,,,,,,48,,,,,,,,,,,,,,374.88000000000466,,response,,,,10,D,,,,,,Space,keypress(Space),,,,silence,,,,-- -- --- ------ ------- --------- ----------- --------<br>--------- -------- --- ------- -- ------- ---- -- ------<br>-- --- -------- -------- ---------- ---- ---- ---- ------<br>-- transport -- ---- -- --- -- --- ------- -- - -----<br>---------- -- -- -- ---- ----- -- ------ -- --- ------<br>-------,250286,250273,249897.18,249897,249898.12,250297.7,,27,transport
screen,html.Screen,2_3_1_0_1_28,2022-02-02T16:09:03.477Z,,,,,,,,,,,,,,,,,48,,,,,,,,,,,,,,195.29999999998836,,response,,,,10,D,,,,,,Space,keypress(Space),,,,silence,,,,-- -- --- ------ ------- --------- ----------- --------<br>--------- -------- --- ------- -- ------- ---- -- ------<br>-- --- -------- -------- ---------- ---- ---- ---- ------<br>-- --------- it ---- -- --- -- --- ------- -- - -----<br>---------- -- -- -- ---- ----- -- ------ -- --- ------<br>-------,250502,250493,250285.58,250286,250297.7,250514.14,,28,it
screen,html.Screen,2_3_1_0_1_29,2022-02-02T16:09:03.646Z,,,,,,,,,,,,,,,,,48,,,,,,,,,,,,,,149.85999999998603,,response,,,,10,D,,,,,,Space,keypress(Space),,,,silence,,,,-- -- --- ------ ------- --------- ----------- --------<br>--------- -------- --- ------- -- ------- ---- -- ------<br>-- --- -------- -------- ---------- ---- ---- ---- ------<br>-- --------- -- into -- --- -- --- ------- -- - -----<br>---------- -- -- -- ---- ----- -- ------ -- --- ------<br>-------,250671,250664,250501.76,250502,250514.14,250680.66,,29,into
screen,html.Screen,2_3_1_0_1_30,2022-02-02T16:09:03.815Z,,,,,,,,,,,,,,,,,48,,,,,,,,,,,,,,139.3399999999965,,response,,,,10,D,,,,,,Space,keypress(Space),,,,silence,,,,-- -- --- ------ ------- --------- ----------- --------<br>--------- -------- --- ------- -- ------- ---- -- ------<br>-- --- -------- -------- ---------- ---- ---- ---- ------<br>-- --------- -- ---- or --- -- --- ------- -- - -----<br>---------- -- -- -- ---- ----- -- ------ -- --- ------<br>-------,250840,250820,250670.66,250671,250680.66,250847.18,,30,or
screen,html.Screen,2_3_1_0_1_31,2022-02-02T16:09:03.996Z,,,,,,,,,,,,,,,,,48,,,,,,,,,,,,,,161.82000000000698,,response,,,,10,D,,,,,,Space,keypress(Space),,,,silence,,,,-- -- --- ------ ------- --------- ----------- --------<br>--------- -------- --- ------- -- ------- ---- -- ------<br>-- --- -------- -------- ---------- ---- ---- ---- ------<br>-- --------- -- ---- -- out -- --- ------- -- - -----<br>---------- -- -- -- ---- ----- -- ------ -- --- ------<br>-------,251021,251009,250839.88,250840,250847.18,251030.36,,31,out
screen,html.Screen,2_3_1_0_1_32,2022-02-02T16:09:04.189Z,,,,,,,,,,,,,,,,,48,,,,,,,,,,,,,,165.64000000001397,,response,,,,10,D,,,,,,Space,keypress(Space),,,,silence,,,,-- -- --- ------ ------- --------- ----------- --------<br>--------- -------- --- ------- -- ------- ---- -- ------<br>-- --- -------- -------- ---------- ---- ---- ---- ------<br>-- --------- -- ---- -- --- of --- ------- -- - -----<br>---------- -- -- -- ---- ----- -- ------ -- --- ------<br>-------,251213,251196,251021.14,251021,251030.36,251230.14,,32,of
screen,html.Screen,2_3_1_0_1_33,2022-02-02T16:09:04.434Z,,,,,,,,,,,,,,,,,48,,,,,,,,,,,,,,214.85999999998603,,response,,,,10,D,,,,,,Space,keypress(Space),,,,silence,,,,-- -- --- ------ ------- --------- ----------- --------<br>--------- -------- --- ------- -- ------- ---- -- ------<br>-- --- -------- -------- ---------- ---- ---- ---- ------<br>-- --------- -- ---- -- --- -- the ------- -- - -----<br>---------- -- -- -- ---- ----- -- ------ -- --- ------<br>-------,251459,251445,251214.08,251214,251230.14,251463.22,,33,the
screen,html.Screen,2_3_1_0_1_34,2022-02-02T16:09:04.616Z,,,,,,,,,,,,,,,,,48,,,,,,,,,,,,,,170.77999999999884,,response,,,,10,D,,,,,,Space,keypress(Space),,,,silence,,,,-- -- --- ------ ------- --------- ----------- --------<br>--------- -------- --- ------- -- ------- ---- -- ------<br>-- --- -------- -------- ---------- ---- ---- ---- ------<br>-- --------- -- ---- -- --- -- --- country -- - -----<br>---------- -- -- -- ---- ----- -- ------ -- --- ------<br>-------,251641,251634,251458.8,251459,251463.22,251646.4,,34,country
screen,html.Screen,2_3_1_0_1_35,2022-02-02T16:09:04.809Z,,,,,,,,,,,,,,,,,48,,,,,,,,,,,,,,173.60000000000582,,response,,,,10,D,,,,,,Space,keypress(Space),,,,silence,,,,-- -- --- ------ ------- --------- ----------- --------<br>--------- -------- --- ------- -- ------- ---- -- ------<br>-- --- -------- -------- ---------- ---- ---- ---- ------<br>-- --------- -- ---- -- --- -- --- ------- is - -----<br>---------- -- -- -- ---- ----- -- ------ -- --- ------<br>-------,251833,251820,251640.9,251641,251646.4,251846.18,,35,is
screen,html.Screen,2_3_1_0_1_36,2022-02-02T16:09:04.986Z,,,,,,,,,,,,,,,,,48,,,,,,,,,,,,,,145.82000000000698,,response,,,,10,D,,,,,,Space,keypress(Space),,,,silence,,,,-- -- --- ------ ------- --------- ----------- --------<br>--------- -------- --- ------- -- ------- ---- -- ------<br>-- --- -------- -------- ---------- ---- ---- ---- ------<br>-- --------- -- ---- -- --- -- --- ------- -- a -----<br>---------- -- -- -- ---- ----- -- ------ -- --- ------<br>-------,252010,251992,251833.06,251833,251846.18,252012.7,,36,a
screen,html.Screen,2_3_1_0_1_37,2022-02-02T16:09:05.170Z,,,,,,,,,,,,,,,,,48,,,,,,,,,,,,,,166.29999999998836,,response,,,,10,D,,,,,,Space,keypress(Space),,,,silence,,,,-- -- --- ------ ------- --------- ----------- --------<br>--------- -------- --- ------- -- ------- ---- -- ------<br>-- --- -------- -------- ---------- ---- ---- ---- ------<br>-- --------- -- ---- -- --- -- --- ------- -- - crime<br>---------- -- -- -- ---- ----- -- ------ -- --- ------<br>-------,252193,252179,252010.88,252010,252012.7,252195.84,,37,crime
screen,html.Screen,2_3_1_0_1_38,2022-02-02T16:09:05.343Z,,,,,,,,,,,,,,,,,48,,,,,,,,,,,,,,155.1600000000035,,response,,,,10,D,,,,,,Space,keypress(Space),,,,silence,,,,-- -- --- ------ ------- --------- ----------- --------<br>--------- -------- --- ------- -- ------- ---- -- ------<br>-- --- -------- -------- ---------- ---- ---- ---- ------<br>-- --------- -- ---- -- --- -- --- ------- -- - -----<br>punishable -- -- -- ---- ----- -- ------ -- --- ------<br>-------,252368,252351,252194.08,252195,252195.84,252378.96,,38,punishable
screen,html.Screen,2_3_1_0_1_39,2022-02-02T16:09:05.538Z,,,,,,,,,,,,,,,,,48,,,,,,,,,,,,,,175.04000000000815,,response,,,,10,D,,,,,,Space,keypress(Space),,,,silence,,,,-- -- --- ------ ------- --------- ----------- --------<br>--------- -------- --- ------- -- ------- ---- -- ------<br>-- --- -------- -------- ---------- ---- ---- ---- ------<br>-- --------- -- ---- -- --- -- --- ------- -- - -----<br>---------- by -- -- ---- ----- -- ------ -- --- ------<br>-------,252562,252554,252368.2,252368,252378.96,252578.74,,39,by
screen,html.Screen,2_3_1_0_1_40,2022-02-02T16:09:05.712Z,,,,,,,,,,,,,,,,,48,,,,,,,,,,,,,,147.2600000000093,,response,,,,10,D,,,,,,Space,keypress(Space),,,,silence,,,,-- -- --- ------ ------- --------- ----------- --------<br>--------- -------- --- ------- -- ------- ---- -- ------<br>-- --- -------- -------- ---------- ---- ---- ---- ------<br>-- --------- -- ---- -- --- -- --- ------- -- - -----<br>---------- -- up -- ---- ----- -- ------ -- --- ------<br>-------,252738,252726,252562.46,252562,252578.74,252745.26,,40,up
screen,html.Screen,2_3_1_0_1_41,2022-02-02T16:09:05.903Z,,,,,,,,,,,,,,,,,48,,,,,,,,,,,,,,168.7399999999907,,response,,,,10,D,,,,,,Space,keypress(Space),,,,silence,,,,-- -- --- ------ ------- --------- ----------- --------<br>--------- -------- --- ------- -- ------- ---- -- ------<br>-- --- -------- -------- ---------- ---- ---- ---- ------<br>-- --------- -- ---- -- --- -- --- ------- -- - -----<br>---------- -- -- to ---- ----- -- ------ -- --- ------<br>-------,252927,252914,252737.28,252738,252745.26,252928.44,,41,to
screen,html.Screen,2_3_1_0_1_42,2022-02-02T16:09:06.082Z,,,,,,,,,,,,,,,,,48,,,,,,,,,,,,,,172.55999999999767,,response,,,,10,D,,,,,,Space,keypress(Space),,,,silence,,,,-- -- --- ------ ------- --------- ----------- --------<br>--------- -------- --- ------- -- ------- ---- -- ------<br>-- --- -------- -------- ---------- ---- ---- ---- ------<br>-- --------- -- ---- -- --- -- --- ------- -- - -----<br>---------- -- -- -- five ----- -- ------ -- --- ------<br>-------,253107,253101,252927.5,252928,252928.44,253111.6,,42,five
screen,html.Screen,2_3_1_0_1_43,2022-02-02T16:09:06.269Z,,,,,,,,,,,,,,,,,48,,,,,,,,,,,,,,178.39999999999418,,response,,,,10,D,,,,,,Space,keypress(Space),,,,silence,,,,-- -- --- ------ ------- --------- ----------- --------<br>--------- -------- --- ------- -- ------- ---- -- ------<br>-- --- -------- -------- ---------- ---- ---- ---- ------<br>-- --------- -- ---- -- --- -- --- ------- -- - -----<br>---------- -- -- -- ---- years -- ------ -- --- ------<br>-------,253293,253290,253106.94,253107,253111.6,253294.74,,43,years
screen,html.Screen,2_3_1_0_1_44,2022-02-02T16:09:06.462Z,,,,,,,,,,,,,,,,,48,,,,,,,,,,,,,,181.2600000000093,,response,,,,10,D,,,,,,Space,keypress(Space),,,,silence,,,,-- -- --- ------ ------- --------- ----------- --------<br>--------- -------- --- ------- -- ------- ---- -- ------<br>-- --- -------- -------- ---------- ---- ---- ---- ------<br>-- --------- -- ---- -- --- -- --- ------- -- - -----<br>---------- -- -- -- ---- ----- in ------ -- --- ------<br>-------,253487,253476,253293.88,253294,253294.74,253494.58,,44,in
screen,html.Screen,2_3_1_0_1_45,2022-02-02T16:09:06.638Z,,,,,,,,,,,,,,,,,48,,,,,,,,,,,,,,154.4200000000128,,response,,,,10,D,,,,,,Space,keypress(Space),,,,silence,,,,-- -- --- ------ ------- --------- ----------- --------<br>--------- -------- --- ------- -- ------- ---- -- ------<br>-- --- -------- -------- ---------- ---- ---- ---- ------<br>-- --------- -- ---- -- --- -- --- ------- -- - -----<br>---------- -- -- -- ---- ----- -- prison -- --- ------<br>-------,253662,253649,253487.2,253488,253494.58,253677.74,,45,prison
screen,html.Screen,2_3_1_0_1_46,2022-02-02T16:09:06.922Z,,,,,,,,,,,,,,,,,48,,,,,,,,,,,,,,251.2600000000093,,response,,,,10,D,,,,,,Space,keypress(Space),,,,silence,,,,-- -- --- ------ ------- --------- ----------- --------<br>--------- -------- --- ------- -- ------- ---- -- ------<br>-- --- -------- -------- ---------- ---- ---- ---- ------<br>-- --------- -- ---- -- --- -- --- ------- -- - -----<br>---------- -- -- -- ---- ----- -- ------ in --- ------<br>-------,253946,253929,253662,253662,253677.74,253960.76,,46,in
screen,html.Screen,2_3_1_0_1_47,2022-02-02T16:09:07.158Z,,,,,,,,,,,,,,,,,48,,,,,,,,,,,,,,203.2399999999907,,response,,,,10,D,,,,,,Space,keypress(Space),,,,silence,,,,-- -- --- ------ ------- --------- ----------- --------<br>--------- -------- --- ------- -- ------- ---- -- ------<br>-- --- -------- -------- ---------- ---- ---- ---- ------<br>-- --------- -- ---- -- --- -- --- ------- -- - -----<br>---------- -- -- -- ---- ----- -- ------ -- the ------<br>-------,254182,254164,253946.68,253947,253960.76,254193.88,,47,the
screen,html.Screen,2_3_1_0_1_48,2022-02-02T16:09:07.363Z,,,,,,,,,,,,,,,,,48,,,,,,,,,,,,,,189.11999999999534,,response,,,,10,D,,,,,,Space,keypress(Space),,,,silence,,,,-- -- --- ------ ------- --------- ----------- --------<br>--------- -------- --- ------- -- ------- ---- -- ------<br>-- --- -------- -------- ---------- ---- ---- ---- ------<br>-- --------- -- ---- -- --- -- --- ------- -- - -----<br>---------- -- -- -- ---- ----- -- ------ -- --- United<br>-------,254388,254383,254182.96,254183,254193.88,254393.68,,48,United
screen,html.Screen,2_3_1_0_1_49,2022-02-02T16:09:07.883Z,,,,,,,,,,,,,,,,,48,,,,,,,,,,,,,,504.320000000007,,response,,,,10,D,,,,,,Space,keypress(Space),,,,silence,,,,-- -- --- ------ ------- --------- ----------- --------<br>--------- -------- --- ------- -- ------- ---- -- ------<br>-- --- -------- -------- ---------- ---- ---- ---- ------<br>-- --------- -- ---- -- --- -- --- ------- -- - -----<br>---------- -- -- -- ---- ----- -- ------ -- --- ------<br>States.,254907,254898,254388.56,254388,254393.68,254909.86,,49,States.
Item 10,flow.Loop,2_3_1_0_1,2022-02-02T16:09:07.884Z,,,,,,,,,,,,,,,,,,,,,,,,,,,,,,,13541.459999999992,,completion,,,,,,,,,,,,,,,,,,,,,254908,254898,241339.9,241341,241356.54,254909.86,,,
Question 1,html.Screen,2_3_1_0_2,2022-02-02T16:09:10.234Z,,,,,,,,,,,,,,,,,,,,,,,,,,,,true,TRUE,,2332.140000000014,,response,,,,10,D,,,,,,TRUE,click #choice-1,,,,silence,,,,,257258,257242,254908.5,254908,254909.86,257274.12,,,
Question 2,html.Screen,2_3_1_0_3,2022-02-02T16:09:12.802Z,,,,,,,,,,,,,,,,,,,,,,,,,,,,true,TRUE,,2545.8800000000047,,response,,,,10,D,,,,,,TRUE,click #choice-1,,,,silence,,,,,259826,259820,257257.62,257259,257274.12,259838.3,,,
Item 10,flow.Sequence,2_3_1_0,2022-02-02T16:09:12.802Z,,,,,,,,,,,,,,,,,,,,,,,,,,,,,,,25456.579999999987,,completion,,,,,,,,,,,,,,,,,,,,,259826,259820,234346.78,234348,234363.42,259838.3,,,
Holding screen,html.Screen,2_3_1_1_0,2022-02-02T16:09:19.791Z,,,,,,,,,,,,,,,,,,,,,,,,,,,,,,,6993.100000000035,,timeout,,,,,,,,,,,,,,,,,,,,,266815,266814.74,259825.84,259826,259838.3,266831.4,,,
screen,html.Screen,2_3_1_1_1_0,2022-02-02T16:09:21.134Z,,,,,,,,,,,,,,,,,2,,,,,,,,,,,,,,1316.5999999999767,,response,,,,1,D,,,,,,Space,keypress(Space),,,,silence,,,,Two ---- ------ --- ------- ---------- ------- ----------<br>--- --------- --- ----------- ------- ----- ------- ---<br>--------- ---- -- --- ---- -- --------- -- ---- -------<br>-- --------- ------ --- ----- ------ ---- --- --------- --<br>------ - ---- -- --- ----------- ------- ---- ----- -----<br>--- -------- - ------ ---- -- ----- ---- --- --- -----------<br>-- -------,268160,268148,266814.74,266816,266831.4,268163.42,,0,Two
screen,html.Screen,2_3_1_1_1_1,2022-02-02T16:09:21.411Z,,,,,,,,,,,,,,,,,2,,,,,,,,,,,,,,266.5800000000163,,response,,,,1,D,,,,,,Space,keypress(Space),,,,silence,,,,--- days ------ --- ------- ---------- ------- ----------<br>--- --------- --- ----------- ------- ----- ------- ---<br>--------- ---- -- --- ---- -- --------- -- ---- -------<br>-- --------- ------ --- ----- ------ ---- --- --------- --<br>------ - ---- -- --- ----------- ------- ---- ----- -----<br>--- -------- - ------ ---- -- ----- ---- --- --- -----------<br>-- -------,268435,268430,268159.38,268160,268163.42,268446.48,,1,days
screen,html.Screen,2_3_1_1_1_2,2022-02-02T16:09:21.617Z,,,,,,,,,,,,,,,,,2,,,,,,,,,,,,,,186.52000000001863,,response,,,,1,D,,,,,,Space,keypress(Space),,,,silence,,,,"--- ---- later, --- ------- ---------- ------- ----------<br>--- --------- --- ----------- ------- ----- ------- ---<br>--------- ---- -- --- ---- -- --------- -- ---- -------<br>-- --------- ------ --- ----- ------ ---- --- --------- --<br>------ - ---- -- --- ----------- ------- ---- ----- -----<br>--- -------- - ------ ---- -- ----- ---- --- --- -----------<br>-- -------",268641,268633,268435.54,268435,268446.48,268646.28,,2,"later,"
screen,html.Screen,2_3_1_1_1_3,2022-02-02T16:09:21.811Z,,,,,,,,,,,,,,,,,2,,,,,,,,,,,,,,174.71999999997206,,response,,,,1,D,,,,,,Space,keypress(Space),,,,silence,,,,--- ---- ------ the ------- ---------- ------- ----------<br>--- --------- --- ----------- ------- ----- ------- ---<br>--------- ---- -- --- ---- -- --------- -- ---- -------<br>-- --------- ------ --- ----- ------ ---- --- --------- --<br>------ - ---- -- --- ----------- ------- ---- ----- -----<br>--- -------- - ------ ---- -- ----- ---- --- --- -----------<br>-- -------,268836,268821,268641.8,268642,268646.28,268846.06,,3,the
