sender,sender_type,sender_id,timestamp,meta,,Blues,Classical,Country,Dance,Electronic,Folk,Gospel,Hip-Hop,Jazz,Latin,Musical/Film,New-age,Pop,Prolific_id,Provo_ID,R&B,Rap,Reggae,Religious,Rock,Soul,Swing,Traditional,age,artist_name,correct,correctResponse,distraction,duration,education,ended_on,familiarity,gender,headphone_check_performance,item,list,music_frequency,offensiveness,pleasantness,position_correct,preference,response,response_action,snippet_file,song_name,song_rating,sound,stimulus_1,stimulus_2,stimulus_3,text,time_commit,time_end,time_render,time_run,time_show,time_switch,url,word,word_ID
Prolific ID,html.Form,0,2022-05-11T13:44:10.398Z,"{""labjs_version"":""20.2.2"",""labjs_build"":{""flavor"":""production"",""commit"":""a25486e0c714a0ae2ce03ff94b7bb6896854dcfa""},""location"":""https://run.pavlovia.org/mvasilev/prolific2_music_f/"",""userAgent"":""Mozilla/5.0 (Windows NT 10.0; Win64; x64) AppleWebKit/537.36 (KHTML, like Gecko) Chrome/101.0.4951.54 Safari/537.36"",""platform"":""Win32"",""language"":""en-GB"",""locale"":""en-GB"",""timeZone"":""Europe/London"",""timezoneOffset"":-60,""screen_width"":1920,""screen_height"":1080,""scroll_width"":1920,""scroll_height"":889,""window_innerWidth"":1920,""window_innerHeight"":937,""devicePixelRatio"":1}",,,,,,,,,,,,,,,6275abead4ed5c70eb5e5649,,,,,,,,,,,,,,,5667.80900000596,,form submission,,,,,,,,,,,,,,,,,,,,,13930.59999999404,13930.40000000596,8244.623,8244.40000000596,8262.591,13934.304,{},,
Introduction,html.Screen,1_0,2022-05-11T13:44:14.318Z,,,,,,,,,,,,,,,,,,,,,,,,,,,,,,,3915.2959999940394,,response,,,,,,,,,,,continue,click button,,,,,,,,,17850.80000001192,17849.59999999404,13926.02,13930.800000011921,13934.304,17868.47,,,
Volume calibration,html.Screen,1_1,2022-05-11T13:44:29.131Z,,,,,,,,,,,,,,,,,,,,,,,,,,,,,,,14794.129999994038,,response,,,,,,,,,,,continue,click button,,,,,,,,,32664.30000001192,32662.59999999404,17846.61,17850.80000001192,17868.47,32665.626,,,
Task instructions,html.Screen,1_2,2022-05-11T13:44:34.886Z,,,,,,,,,,,,,,,,,,,,,,,,,,,,,,,5752.973999994039,,response,,,,,,,,,,,continue,click button,,,,,,,,,38419,38418.59999999404,32661.436,32664.30000001192,32665.626,38421.387,,,
Sounds,html.Screen,1_3_0_0,2022-05-11T13:44:39.135Z,,,,,,,,,,,,,,,,,,,,,,,,,,,,,,,4250.091,,timeout,,,,,,,,,2,,,,,,,,I,S,O,,42668.59999999404,42667.382,38417.192,38419.09999999404,38421.387,42671.478,,,
Judgement,html.Screen,1_3_0_1,2022-05-11T13:44:39.685Z,,,,,,,,,,,,,,,,,,,,,,,,,,,,true,2,,546.1219999940367,,response,,,,,,,,,2,,2,click #choice-2,,,,,I,S,O,,43218.20000001788,43217.59999999404,42667.382,42668.70000001788,42671.478,43222.028,,,
Trial,flow.Sequence,1_3_0,2022-05-11T13:44:39.685Z,,,,,,,,,,,,,,,,,,,,,,,,,,,,,,,4796.212999994037,,completion,,,,,,,,,2,,,,,,,,I,S,O,,43218.20000001788,43217.59999999404,38417.192,38419,38421.387,43222.028,,,
Sounds,html.Screen,1_3_1_0,2022-05-11T13:44:43.935Z,,,,,,,,,,,,,,,,,,,,,,,,,,,,,,,4250.1990000000005,,timeout,,,,,,,,,1,,,,,,,,S,I,O,,47468.40000000596,47468.047,43213.765,43218.30000001192,43222.028,47472.227,,,
Judgement,html.Screen,1_3_1_1,2022-05-11T13:44:44.295Z,,,,,,,,,,,,,,,,,,,,,,,,,,,,true,1,,355.3729999940406,,response,,,,,,,,,1,,1,click #choice-1,,,,,S,I,O,,47828,47827.59999999404,47468.047,47468.40000000596,47472.227,47830.939,,,
Trial,flow.Sequence,1_3_1,2022-05-11T13:44:44.295Z,,,,,,,,,,,,,,,,,,,,,,,,,,,,,,,4605.571999994041,,completion,,,,,,,,,1,,,,,,,,S,I,O,,47828.09999999404,47827.59999999404,43213.765,43218.30000001192,43222.028,47830.939,,,
Sounds,html.Screen,1_3_2_0,2022-05-11T13:44:48.544Z,,,,,,,,,,,,,,,,,,,,,,,,,,,,,,,4250.084000000003,,timeout,,,,,,,,,1,,,,,,,,S,O,I,,52077.20000001788,52076.846,47826.727,47828.20000001788,47830.939,52081.023,,,
Judgement,html.Screen,1_3_2_1,2022-05-11T13:44:48.926Z,,,,,,,,,,,,,,,,,,,,,,,,,,,,true,1,,377.5769999940385,,response,,,,,,,,,1,,1,click #choice-1,,,,,S,O,I,,52459.09999999404,52458.59999999404,52076.846,52077.20000001788,52081.023,52460.52,,,
Trial,flow.Sequence,1_3_2,2022-05-11T13:44:48.926Z,,,,,,,,,,,,,,,,,,,,,,,,,,,,,,,4627.660999994041,,completion,,,,,,,,,1,,,,,,,,S,O,I,,52459.20000001788,52458.59999999404,47826.727,47828.09999999404,47830.939,52460.52,,,
Sounds,html.Screen,1_3_3_0,2022-05-11T13:44:53.173Z,,,,,,,,,,,,,,,,,,,,,,,,,,,,,,,4250.1470000000045,,timeout,,,,,,,,,3,,,,,,,,I,O,S,,56706.80000001192,56706.492,52456.387,52459.20000001788,52460.52,56710.667,,,
Judgement,html.Screen,1_3_3_1,2022-05-11T13:44:53.465Z,,,,,,,,,,,,,,,,,,,,,,,,,,,,true,3,,286.93299999403825,,response,,,,,,,,,3,,3,click #choice-3,,,,,I,O,S,,56998,56997.59999999404,56706.492,56706.90000000596,56710.667,57013.097,,,
Trial,flow.Sequence,1_3_3,2022-05-11T13:44:53.465Z,,,,,,,,,,,,,,,,,,,,,,,,,,,,,,,4537.079999994043,,completion,,,,,,,,,3,,,,,,,,I,O,S,,56998.20000001788,56997.59999999404,52456.387,52459.20000001788,52460.52,57013.097,,,
Sounds,html.Screen,1_3_4_0,2022-05-11T13:44:57.724Z,,,,,,,,,,,,,,,,,,,,,,,,,,,,,,,4247.985999999997,,timeout,,,,,,,,,2,,,,,,,,O,S,I,,61257.20000001788,61256.913,56994.275,56998.20000001788,57013.097,61261.083,,,
Judgement,html.Screen,1_3_4_1,2022-05-11T13:44:58.096Z,,,,,,,,,,,,,,,,,,,,,,,,,,,,true,2,,367.5169999940408,,response,,,,,,,,,2,,2,click #choice-2,,,,,O,S,I,,61629,61628.59999999404,61256.913,61257.30000001192,61261.083,61632.289,,,
Trial,flow.Sequence,1_3_4,2022-05-11T13:44:58.096Z,,,,,,,,,,,,,,,,,,,,,,,,,,,,,,,4615.502999994038,,completion,,,,,,,,,2,,,,,,,,O,S,I,,61629,61628.59999999404,56994.275,56998.20000001788,57013.097,61632.289,,,
Sounds,html.Screen,1_3_5_0,2022-05-11T13:45:02.345Z,,,,,,,,,,,,,,,,,,,,,,,,,,,,,,,4250.110000000008,,timeout,,,,,,,,,3,,,,,,,,O,I,S,,65878.5,65878.22,61628.048,61629.09999999404,61632.289,65882.399,,,
Judgement,html.Screen,1_3_5_1,2022-05-11T13:45:02.594Z,,,,,,,,,,,,,,,,,,,,,,,,,,,,true,3,,245.1009999999951,,response,,,,,,,,,3,,3,click #choice-3,,,,,O,I,S,,66127.80000001192,66127.5,65878.22,65878.59999999404,65882.399,66140.97,,,
Trial,flow.Sequence,1_3_5,2022-05-11T13:45:02.594Z,,,,,,,,,,,,,,,,,,,,,,,,,,,,,,,4495.211000000003,,completion,,,,,,,,,3,,,,,,,,O,I,S,,66127.90000000596,66127.5,61628.048,61629.09999999404,61632.289,66140.97,,,
Task,flow.Loop,1_3,2022-05-11T13:45:02.597Z,,,,,,,,,,,,,,,,,,,,,,,,,,,,,,,27706.112999999998,,completion,,,1,,,,,,,,,,,,,,,,,,66130.20000001788,66127.5,38417.192,38419,38421.387,66140.97,,,
Trap,html.Screen,1_4,2022-05-11T13:45:02.597Z,,,,,,,,,,,,,,,,,,,,,,,,,,,,,,,NaN,,skipped,,,,,,,,,,,,,,,,,,,,,66130.59999999404,66127.5,,66130.59999999404,,66140.97,,,
Thanks,html.Screen,1_5,2022-05-11T13:45:05.270Z,,,,,,,,,,,,,,,,,,,,,,,,,,,,,,,2661.529999999999,,response,,,,,,,,,,,continue,click button,,,,,,,,,68803,68802.5,66124.28,66130.70000001788,66140.97,71004.102,,,
Headphone screening,flow.Sequence,1,2022-05-11T13:45:05.270Z,,,,,,,,,,,,,,,,,,,,,,,,,,,,,,,54868.195999999996,,completion,,,,,,,,,,,,,,,,,,,,,68803.09999999404,68802.5,13926.02,13930.800000011921,13934.304,71004.102,,,
Instructions,html.Page,2_0,2022-05-11T13:45:28.354Z,,,,,,,,,,,,,,,,,,,,,,,,,,,,,,,20882.898,,form submission,,,,,,,,,,,,,,,,,,,,,91887.20000001788,91887,70999.956,71003.90000000596,71004.102,91887.607,,,
Holding screen,html.Screen,2_1_0_0,2022-05-11T13:45:38.353Z,,,,,,,,,,,,,,,,,,,,,,,,,,,,,,,10001.716,,timeout,,,,,,,,,,,,,,,,,,,,,101886.40000000596,101885.226,91883.417,91887.30000001192,91887.607,101889.323,,,
screen,html.Screen,2_1_0_1_0,2022-05-11T13:45:39.137Z,,,,,,,,,,,,,,,,,53,,,,,,,,,,,,,,780.7769999940356,,response,,,,99,,,,,,,Space,keypress(Space),,,,,,,,When -- ----- -- ------ - ------- --- ----------<br>------------- ------ ------ ---- ---- ------- ----- -- ----<br>-------- ------- -- ---------- --- - --- ----- ----- ----<br>---- --- --- ----- --- ---- ---- ------- ----- ---- -------<br>--- --- -- ----- -- --- ---- -- --- ---- -- ------ ------<br>--- ----- -- ----,102670.59999999404,102670.09999999404,101885.226,101886.5,101889.323,102673.637,,0,When
screen,html.Screen,2_1_0_1_1,2022-05-11T13:45:39.642Z,,,,,,,,,,,,,,,,,53,,,,,,,,,,,,,,501.4629999940371,,response,,,,99,,,,,,,Space,keypress(Space),,,,,,,,---- it ----- -- ------ - ------- --- ----------<br>------------- ------ ------ ---- ---- ------- ----- -- ----<br>-------- ------- -- ---------- --- - --- ----- ----- ----<br>---- --- --- ----- --- ---- ---- ------- ----- ---- -------<br>--- --- -- ----- -- --- ---- -- --- ---- -- ------ ------<br>--- ----- -- ----,103175.5,103175.09999999404,102669.09,102670.59999999404,102673.637,103178.106,,1,it
screen,html.Screen,2_1_0_1_2,2022-05-11T13:45:40.528Z,,,,,,,,,,,,,,,,,53,,,,,,,,,,,,,,882.9939999940398,,response,,,,99,,,,,,,Space,keypress(Space),,,,,,,,---- -- comes -- ------ - ------- --- ----------<br>------------- ------ ------ ---- ---- ------- ----- -- ----<br>-------- ------- -- ---------- --- - --- ----- ----- ----<br>---- --- --- ----- --- ---- ---- ------- ----- ---- -------<br>--- --- -- ----- -- --- ---- -- --- ---- -- ------ ------<br>--- ----- -- ----,104061.5,104061.09999999404,103173.934,103175.59999999404,103178.106,104072.886,,2,comes
screen,html.Screen,2_1_0_1_3,2022-05-11T13:45:40.860Z,,,,,,,,,,,,,,,,,53,,,,,,,,,,,,,,320.4140000119223,,response,,,,99,,,,,,,Space,keypress(Space),,,,,,,,---- -- ----- to ------ - ------- --- ----------<br>------------- ------ ------ ---- ---- ------- ----- -- ----<br>-------- ------- -- ---------- --- - --- ----- ----- ----<br>---- --- --- ----- --- ---- ---- ------- ----- ---- -------<br>--- --- -- ----- -- --- ---- -- --- ---- -- ------ ------<br>--- ----- -- ----,104393.59999999404,104393.30000001192,104058.076,104061.5,104072.886,104396.08,,3,to
screen,html.Screen,2_1_0_1_4,2022-05-11T13:45:41.203Z,,,,,,,,,,,,,,,,,53,,,,,,,,,,,,,,340.12000001787965,,response,,,,99,,,,,,,Space,keypress(Space),,,,,,,,---- -- ----- -- having - ------- --- ----------<br>------------- ------ ------ ---- ---- ------- ----- -- ----<br>-------- ------- -- ---------- --- - --- ----- ----- ----<br>---- --- --- ----- --- ---- ---- ------- ----- ---- -------<br>--- --- -- ----- -- --- ---- -- --- ---- -- ------ ------<br>--- ----- -- ----,104736.5,104736.20000001788,104391.879,104393.70000001788,104396.08,104737.997,,4,having
screen,html.Screen,2_1_0_1_5,2022-05-11T13:45:41.526Z,,,,,,,,,,,,,,,,,53,,,,,,,,,,,,,,321.1029999940365,,response,,,,99,,,,,,,Space,keypress(Space),,,,,,,,---- -- ----- -- ------ a ------- --- ----------<br>------------- ------ ------ ---- ---- ------- ----- -- ----<br>-------- ------- -- ---------- --- - --- ----- ----- ----<br>---- --- --- ----- --- ---- ---- ------- ----- ---- -------<br>--- --- -- ----- -- --- ---- -- --- ---- -- ------ ------<br>--- ----- -- ----,105059.5,105059.09999999404,104733.774,104736.5,104737.997,105063.422,,5,a
screen,html.Screen,2_1_0_1_6,2022-05-11T13:45:41.719Z,,,,,,,,,,,,,,,,,53,,,,,,,,,,,,,,188.57799999999406,,response,,,,99,,,,,,,Space,keypress(Space),,,,,,,,---- -- ----- -- ------ - lasting --- ----------<br>------------- ------ ------ ---- ---- ------- ----- -- ----<br>-------- ------- -- ---------- --- - --- ----- ----- ----<br>---- --- --- ----- --- ---- ---- ------- ----- ---- -------<br>--- --- -- ----- -- --- ---- -- --- ---- -- ------ ------<br>--- ----- -- ----,105252.30000001192,105252,105059.114,105059.5,105063.422,105255.305,,6,lasting
screen,html.Screen,2_1_0_1_7,2022-05-11T13:45:42.146Z,,,,,,,,,,,,,,,,,53,,,,,,,,,,,,,,423.8950000178884,,response,,,,99,,,,,,,Space,keypress(Space),,,,,,,,---- -- ----- -- ------ - ------- and ----------<br>------------- ------ ------ ---- ---- ------- ----- -- ----<br>-------- ------- -- ---------- --- - --- ----- ----- ----<br>---- --- --- ----- --- ---- ---- ------- ----- ---- -------<br>--- --- -- ----- -- --- ---- -- --- ---- -- ------ ------<br>--- ----- -- ----,105679.5,105679.20000001788,105251.08,105252.40000000596,105255.305,105699.896,,7,and
screen,html.Screen,2_1_0_1_8,2022-05-11T13:45:42.499Z,,,,,,,,,,,,,,,,,53,,,,,,,,,,,,,,331.80400001788803,,response,,,,99,,,,,,,Space,keypress(Space),,,,,,,,---- -- ----- -- ------ - ------- --- fulfilling<br>------------- ------ ------ ---- ---- ------- ----- -- ----<br>-------- ------- -- ---------- --- - --- ----- ----- ----<br>---- --- --- ----- --- ---- ---- ------- ----- ---- -------<br>--- --- -- ----- -- --- ---- -- --- ---- -- ------ ------<br>--- ----- -- ----,106032.09999999404,106031.70000001788,105676.465,105679.5,105699.896,106035.151,,8,fulfilling
screen,html.Screen,2_1_0_1_9,2022-05-11T13:45:42.804Z,,,,,,,,,,,,,,,,,53,,,,,,,,,,,,,,301.9489999940415,,response,,,,99,,,,,,,Space,keypress(Space),,,,,,,,"---- -- ----- -- ------ - ------- --- ----------<br>relationship, ------ ------ ---- ---- ------- ----- -- ----<br>-------- ------- -- ---------- --- - --- ----- ----- ----<br>---- --- --- ----- --- ---- ---- ------- ----- ---- -------<br>--- --- -- ----- -- --- ---- -- --- ---- -- ------ ------<br>--- ----- -- ----",106337.59999999404,106337.09999999404,106031.001,106032.09999999404,106035.151,106339.634,,9,"relationship,"
screen,html.Screen,2_1_0_1_10,2022-05-11T13:45:43.501Z,,,,,,,,,,,,,,,,,53,,,,,,,,,,,,,,693.5660000178759,,response,,,,99,,,,,,,Space,keypress(Space),,,,,,,,---- -- ----- -- ------ - ------- --- ----------<br>------------- common ------ ---- ---- ------- ----- -- ----<br>-------- ------- -- ---------- --- - --- ----- ----- ----<br>---- --- --- ----- --- ---- ---- ------- ----- ---- -------<br>--- --- -- ----- -- --- ---- -- --- ---- -- ------ ------<br>--- ----- -- ----,107033.59999999404,107033.20000001788,106335.484,106337.59999999404,106339.634,107036.166,,10,common
screen,html.Screen,2_1_0_1_11,2022-05-11T13:45:43.807Z,,,,,,,,,,,,,,,,,53,,,,,,,,,,,,,,303.4339999940421,,response,,,,99,,,,,,,Space,keypress(Space),,,,,,,,---- -- ----- -- ------ - ------- --- ----------<br>------------- ------ wisdom ---- ---- ------- ----- -- ----<br>-------- ------- -- ---------- --- - --- ----- ----- ----<br>---- --- --- ----- --- ---- ---- ------- ----- ---- -------<br>--- --- -- ----- -- --- ---- -- --- ---- -- ------ ------<br>--- ----- -- ----,107339.80000001192,107339.59999999404,107031.964,107033.70000001788,107036.166,107345.868,,11,wisdom
screen,html.Screen,2_1_0_1_12,2022-05-11T13:45:44.084Z,,,,,,,,,,,,,,,,,53,,,,,,,,,,,,,,270.6319999999978,,response,,,,99,,,,,,,Space,keypress(Space),,,,,,,,---- -- ----- -- ------ - ------- --- ----------<br>------------- ------ ------ says ---- ------- ----- -- ----<br>-------- ------- -- ---------- --- - --- ----- ----- ----<br>---- --- --- ----- --- ---- ---- ------- ----- ---- -------<br>--- --- -- ----- -- --- ---- -- --- ---- -- ------ ------<br>--- ----- -- ----,107616.80000001192,107616.5,107336.486,107340,107345.868,107620.17,,12,says
screen,html.Screen,2_1_0_1_13,2022-05-11T13:45:44.345Z,,,,,,,,,,,,,,,,,53,,,,,,,,,,,,,,257.7300000059622,,response,,,,99,,,,,,,Space,keypress(Space),,,,,,,,---- -- ----- -- ------ - ------- --- ----------<br>------------- ------ ------ ---- that ------- ----- -- ----<br>-------- ------- -- ---------- --- - --- ----- ----- ----<br>---- --- --- ----- --- ---- ---- ------- ----- ---- -------<br>--- --- -- ----- -- --- ---- -- --- ---- -- ------ ------<br>--- ----- -- ----,107878.09999999404,107877.90000000596,107615.929,107616.90000000596,107620.17,107889.177,,13,that
screen,html.Screen,2_1_0_1_14,2022-05-11T13:45:44.563Z,,,,,,,,,,,,,,,,,53,,,,,,,,,,,,,,206.72300000596442,,response,,,,99,,,,,,,Space,keypress(Space),,,,,,,,---- -- ----- -- ------ - ------- --- ----------<br>------------- ------ ------ ---- ---- feeling ----- -- ----<br>-------- ------- -- ---------- --- - --- ----- ----- ----<br>---- --- --- ----- --- ---- ---- ------- ----- ---- -------<br>--- --- -- ----- -- --- ---- -- --- ---- -- ------ ------<br>--- ----- -- ----,108096.30000001192,108095.90000000596,107874.537,107878.20000001788,107889.177,108099.815,,14,feeling
screen,html.Screen,2_1_0_1_15,2022-05-11T13:45:44.885Z,,,,,,,,,,,,,,,,,53,,,,,,,,,,,,,,317.88500001787907,,response,,,,99,,,,,,,Space,keypress(Space),,,,,,,,---- -- ----- -- ------ - ------- --- ----------<br>------------- ------ ------ ---- ---- ------- close -- ----<br>-------- ------- -- ---------- --- - --- ----- ----- ----<br>---- --- --- ----- --- ---- ---- ------- ----- ---- -------<br>--- --- -- ----- -- --- ---- -- --- ---- -- ------ ------<br>--- ----- -- ----,108418,108417.70000001788,108095.613,108096.40000000596,108099.815,108420.975,,15,close
screen,html.Screen,2_1_0_1_16,2022-05-11T13:45:45.127Z,,,,,,,,,,,,,,,,,53,,,,,,,,,,,,,,239.12499999403371,,response,,,,99,,,,,,,Space,keypress(Space),,,,,,,,---- -- ----- -- ------ - ------- --- ----------<br>------------- ------ ------ ---- ---- ------- ----- to ----<br>-------- ------- -- ---------- --- - --- ----- ----- ----<br>---- --- --- ----- --- ---- ---- ------- ----- ---- -------<br>--- --- -- ----- -- --- ---- -- --- ---- -- ------ ------<br>--- ----- -- ----,108660.5,108660.09999999404,108416.679,108418.09999999404,108420.975,108662.814,,16,to
screen,html.Screen,2_1_0_1_17,2022-05-11T13:45:45.381Z,,,,,,,,,,,,,,,,,53,,,,,,,,,,,,,,251.1860000000015,,response,,,,99,,,,,,,Space,keypress(Space),,,,,,,,---- -- ----- -- ------ - ------- --- ----------<br>------------- ------ ------ ---- ---- ------- ----- -- your<br>-------- ------- -- ---------- --- - --- ----- ----- ----<br>---- --- --- ----- --- ---- ---- ------- ----- ---- -------<br>--- --- -- ----- -- --- ---- -- --- ---- -- ------ ------<br>--- ----- -- ----,108914.30000001192,108914,108658.665,108660.5,108662.814,108917.223,,17,your
screen,html.Screen,2_1_0_1_18,2022-05-11T13:45:45.752Z,,,,,,,,,,,,,,,,,53,,,,,,,,,,,,,,367.97700001788326,,response,,,,99,,,,,,,Space,keypress(Space),,,,,,,,---- -- ----- -- ------ - ------- --- ----------<br>------------- ------ ------ ---- ---- ------- ----- -- ----<br>romantic ------- -- ---------- --- - --- ----- ----- ----<br>---- --- --- ----- --- ---- ---- ------- ----- ---- -------<br>--- --- -- ----- -- --- ---- -- --- ---- -- ------ ------<br>--- ----- -- ----,109285.5,109285.20000001788,108913.072,108914.40000000596,108917.223,109288.541,,18,romantic
screen,html.Screen,2_1_0_1_19,2022-05-11T13:45:45.962Z,,,,,,,,,,,,,,,,,53,,,,,,,,,,,,,,206.5589999940421,,response,,,,99,,,,,,,Space,keypress(Space),,,,,,,,---- -- ----- -- ------ - ------- --- ----------<br>------------- ------ ------ ---- ---- ------- ----- -- ----<br>-------- partner -- ---------- --- - --- ----- ----- ----<br>---- --- --- ----- --- ---- ---- ------- ----- ---- -------<br>--- --- -- ----- -- --- ---- -- --- ---- -- ------ ------<br>--- ----- -- ----,109495.5,109495.09999999404,109284.263,109285.5,109288.541,109496.998,,19,partner
screen,html.Screen,2_1_0_1_20,2022-05-11T13:45:46.422Z,,,,,,,,,,,,,,,,,53,,,,,,,,,,,,,,458.30200001191406,,response,,,,99,,,,,,,Space,keypress(Space),,,,,,,,---- -- ----- -- ------ - ------- --- ----------<br>------------- ------ ------ ---- ---- ------- ----- -- ----<br>-------- ------- is ---------- --- - --- ----- ----- ----<br>---- --- --- ----- --- ---- ---- ------- ----- ---- -------<br>--- --- -- ----- -- --- ---- -- --- ---- -- ------ ------<br>--- ----- -- ----,109955.59999999404,109955.30000001192,109492.865,109495.59999999404,109496.998,109959.932,,20,is
screen,html.Screen,2_1_0_1_21,2022-05-11T13:45:46.692Z,,,,,,,,,,,,,,,,,53,,,,,,,,,,,,,,265.2680000178807,,response,,,,99,,,,,,,Space,keypress(Space),,,,,,,,---- -- ----- -- ------ - ------- --- ----------<br>------------- ------ ------ ---- ---- ------- ----- -- ----<br>-------- ------- -- paramount. --- - --- ----- ----- ----<br>---- --- --- ----- --- ---- ---- ------- ----- ---- -------<br>--- --- -- ----- -- --- ---- -- --- ---- -- ------ ------<br>--- ----- -- ----,110225.5,110225.20000001788,109955.729,109955.59999999404,109959.932,110226.85,,21,paramount.
screen,html.Screen,2_1_0_1_22,2022-05-11T13:45:47.139Z,,,,,,,,,,,,,,,,,53,,,,,,,,,,,,,,444.9500000119151,,response,,,,99,,,,,,,Space,keypress(Space),,,,,,,,---- -- ----- -- ------ - ------- --- ----------<br>------------- ------ ------ ---- ---- ------- ----- -- ----<br>-------- ------- -- ---------- But - --- ----- ----- ----<br>---- --- --- ----- --- ---- ---- ------- ----- ---- -------<br>--- --- -- ----- -- --- ---- -- --- ---- -- ------ ------<br>--- ----- -- ----,110672.09999999404,110671.80000001192,110222.718,110225.59999999404,110226.85,110693.044,,22,But
screen,html.Screen,2_1_0_1_23,2022-05-11T13:45:47.362Z,,,,,,,,,,,,,,,,,53,,,,,,,,,,,,,,202.05599999404512,,response,,,,99,,,,,,,Space,keypress(Space),,,,,,,,---- -- ----- -- ------ - ------- --- ----------<br>------------- ------ ------ ---- ---- ------- ----- -- ----<br>-------- ------- -- ---------- --- a --- ----- ----- ----<br>---- --- --- ----- --- ---- ---- ------- ----- ---- -------<br>--- --- -- ----- -- --- ---- -- --- ---- -- ------ ------<br>--- ----- -- ----,110895.5,110895.09999999404,110668.893,110672.30000001192,110693.044,110898.38,,23,a
screen,html.Screen,2_1_0_1_24,2022-05-11T13:45:47.656Z,,,,,,,,,,,,,,,,,53,,,,,,,,,,,,,,290.61999999999534,,response,,,,99,,,,,,,Space,keypress(Space),,,,,,,,---- -- ----- -- ------ - ------- --- ----------<br>------------- ------ ------ ---- ---- ------- ----- -- ----<br>-------- ------- -- ---------- --- - new ----- ----- ----<br>---- --- --- ----- --- ---- ---- ------- ----- ---- -------<br>--- --- -- ----- -- --- ---- -- --- ---- -- ------ ------<br>--- ----- -- ----,111189.30000001192,111189,110894.258,110895.5,110898.38,111206.492,,24,new
screen,html.Screen,2_1_0_1_25,2022-05-11T13:45:47.869Z,,,,,,,,,,,,,,,,,53,,,,,,,,,,,,,,195.60799999404117,,response,,,,99,,,,,,,Space,keypress(Space),,,,,,,,---- -- ----- -- ------ - ------- --- ----------<br>------------- ------ ------ ---- ---- ------- ----- -- ----<br>-------- ------- -- ---------- --- - --- study ----- ----<br>---- --- --- ----- --- ---- ---- ------- ----- ---- -------<br>--- --- -- ----- -- --- ---- -- --- ---- -- ------ ------<br>--- ----- -- ----,111402.40000000596,111402.09999999404,111186.134,111189.40000000596,111206.492,111422.947,,25,study
screen,html.Screen,2_1_0_1_26,2022-05-11T13:45:48.164Z,,,,,,,,,,,,,,,,,53,,,,,,,,,,,,,,274.3530000119208,,response,,,,99,,,,,,,Space,keypress(Space),,,,,,,,---- -- ----- -- ------ - ------- --- ----------<br>------------- ------ ------ ---- ---- ------- ----- -- ----<br>-------- ------- -- ---------- --- - --- ----- finds ----<br>---- --- --- ----- --- ---- ---- ------- ----- ---- -------<br>--- --- -- ----- -- --- ---- -- --- ---- -- ------ ------<br>--- ----- -- ----,111697.59999999404,111697.30000001192,111398.934,111402.40000000596,111422.947,111699.163,,26,finds
screen,html.Screen,2_1_0_1_27,2022-05-11T13:45:48.374Z,,,,,,,,,,,,,,,,,53,,,,,,,,,,,,,,207.63700001192046,,response,,,,99,,,,,,,Space,keypress(Space),,,,,,,,---- -- ----- -- ------ - ------- --- ----------<br>------------- ------ ------ ---- ---- ------- ----- -- ----<br>-------- ------- -- ---------- --- - --- ----- ----- that<br>---- --- --- ----- --- ---- ---- ------- ----- ---- -------<br>--- --- -- ----- -- --- ---- -- --- ---- -- ------ ------<br>--- ----- -- ----,111907.20000001788,111906.80000001192,111695.038,111697.70000001788,111699.163,111911.9,,27,that
screen,html.Screen,2_1_0_1_28,2022-05-11T13:45:48.628Z,,,,,,,,,,,,,,,,,53,,,,,,,,,,,,,,248.90000001192675,,response,,,,99,,,,,,,Space,keypress(Space),,,,,,,,---- -- ----- -- ------ - ------- --- ----------<br>------------- ------ ------ ---- ---- ------- ----- -- ----<br>-------- ------- -- ---------- --- - --- ----- ----- ----<br>it's --- --- ----- --- ---- ---- ------- ----- ---- -------<br>--- --- -- ----- -- --- ---- -- --- ---- -- ------ ------<br>--- ----- -- ----,112161.20000001788,112160.80000001192,111903.601,111907.20000001788,111911.9,112180.921,,28,it's
screen,html.Screen,2_1_0_1_29,2022-05-11T13:45:48.884Z,,,,,,,,,,,,,,,,,53,,,,,,,,,,,,,,236.0789999999979,,response,,,,99,,,,,,,Space,keypress(Space),,,,,,,,---- -- ----- -- ------ - ------- --- ----------<br>------------- ------ ------ ---- ---- ------- ----- -- ----<br>-------- ------- -- ---------- --- - --- ----- ----- ----<br>---- not --- ----- --- ---- ---- ------- ----- ---- -------<br>--- --- -- ----- -- --- ---- -- --- ---- -- ------ ------<br>--- ----- -- ----,112417.30000001192,112417,112157.999,112161.20000001788,112180.921,112420.746,,29,not
screen,html.Screen,2_1_0_1_30,2022-05-11T13:45:49.135Z,,,,,,,,,,,,,,,,,53,,,,,,,,,,,,,,247.4540000178822,,response,,,,99,,,,,,,Space,keypress(Space),,,,,,,,---- -- ----- -- ------ - ------- --- ----------<br>------------- ------ ------ ---- ---- ------- ----- -- ----<br>-------- ------- -- ---------- --- - --- ----- ----- ----<br>---- --- how ----- --- ---- ---- ------- ----- ---- -------<br>--- --- -- ----- -- --- ---- -- --- ---- -- ------ ------<br>--- ----- -- ----,112668.40000000596,112668.20000001788,112416.602,112417.30000001192,112420.746,112671.004,,30,how
screen,html.Screen,2_1_0_1_31,2022-05-11T13:45:49.415Z,,,,,,,,,,,,,,,,,53,,,,,,,,,,,,,,277.2960000119201,,response,,,,99,,,,,,,Space,keypress(Space),,,,,,,,---- -- ----- -- ------ - ------- --- ----------<br>------------- ------ ------ ---- ---- ------- ----- -- ----<br>-------- ------- -- ---------- --- - --- ----- ----- ----<br>---- --- --- close --- ---- ---- ------- ----- ---- -------<br>--- --- -- ----- -- --- ---- -- --- ---- -- ------ ------<br>--- ----- -- ----,112948.59999999404,112948.30000001192,112666.86,112668.5,112671.004,112950.48,,31,close
screen,html.Screen,2_1_0_1_32,2022-05-11T13:45:49.691Z,,,,,,,,,,,,,,,,,53,,,,,,,,,,,,,,273.72000001788547,,response,,,,99,,,,,,,Space,keypress(Space),,,,,,,,---- -- ----- -- ------ - ------- --- ----------<br>------------- ------ ------ ---- ---- ------- ----- -- ----<br>-------- ------- -- ---------- --- - --- ----- ----- ----<br>---- --- --- ----- you ---- ---- ------- ----- ---- -------<br>--- --- -- ----- -- --- ---- -- --- ---- -- ------ ------<br>--- ----- -- ----,113224.5,113224.20000001788,112946.299,112948.59999999404,112950.48,113234.545,,32,you
screen,html.Screen,2_1_0_1_33,2022-05-11T13:45:50.042Z,,,,,,,,,,,,,,,,,53,,,,,,,,,,,,,,340.7550000119227,,response,,,,99,,,,,,,Space,keypress(Space),,,,,,,,---- -- ----- -- ------ - ------- --- ----------<br>------------- ------ ------ ---- ---- ------- ----- -- ----<br>-------- ------- -- ---------- --- - --- ----- ----- ----<br>---- --- --- ----- --- feel ---- ------- ----- ---- -------<br>--- --- -- ----- -- --- ---- -- --- ---- -- ------ ------<br>--- ----- -- ----,113575.59999999404,113575.30000001192,113221.493,113224.59999999404,113234.545,113590.741,,33,feel
screen,html.Screen,2_1_0_1_34,2022-05-11T13:45:50.320Z,,,,,,,,,,,,,,,,,53,,,,,,,,,,,,,,262.15900000596594,,response,,,,99,,,,,,,Space,keypress(Space),,,,,,,,---- -- ----- -- ------ - ------- --- ----------<br>------------- ------ ------ ---- ---- ------- ----- -- ----<br>-------- ------- -- ---------- --- - --- ----- ----- ----<br>---- --- --- ----- --- ---- that ------- ----- ---- -------<br>--- --- -- ----- -- --- ---- -- --- ---- -- ------ ------<br>--- ----- -- ----,113853.20000001788,113852.90000000596,113571.911,113575.59999999404,113590.741,113855.502,,34,that
screen,html.Screen,2_1_0_1_35,2022-05-11T13:45:50.603Z,,,,,,,,,,,,,,,,,53,,,,,,,,,,,,,,280.69800001788826,,response,,,,99,,,,,,,Space,keypress(Space),,,,,,,,---- -- ----- -- ------ - ------- --- ----------<br>------------- ------ ------ ---- ---- ------- ----- -- ----<br>-------- ------- -- ---------- --- - --- ----- ----- ----<br>---- --- --- ----- --- ---- ---- matters ----- ---- -------<br>--- --- -- ----- -- --- ---- -- --- ---- -- ------ ------<br>--- ----- -- ----,114136.5,114136.20000001788,113851.273,113853.30000001192,113855.502,114139.186,,35,matters
screen,html.Screen,2_1_0_1_36,2022-05-11T13:45:50.907Z,,,,,,,,,,,,,,,,,53,,,,,,,,,,,,,,300.913999994038,,response,,,,99,,,,,,,Space,keypress(Space),,,,,,,,"---- -- ----- -- ------ - ------- --- ----------<br>------------- ------ ------ ---- ---- ------- ----- -- ----<br>-------- ------- -- ---------- --- - --- ----- ----- ----<br>---- --- --- ----- --- ---- ---- ------- most, ---- -------<br>--- --- -- ----- -- --- ---- -- --- ---- -- ------ ------<br>--- ----- -- ----",114440.40000000596,114440.09999999404,114134.989,114136.5,114139.186,114443.645,,36,"most,"
screen,html.Screen,2_1_0_1_37,2022-05-11T13:45:51.183Z,,,,,,,,,,,,,,,,,53,,,,,,,,,,,,,,272.3549999999959,,response,,,,99,,,,,,,Space,keypress(Space),,,,,,,,---- -- ----- -- ------ - ------- --- ----------<br>------------- ------ ------ ---- ---- ------- ----- -- ----<br>-------- ------- -- ---------- --- - --- ----- ----- ----<br>---- --- --- ----- --- ---- ---- ------- ----- it's -------<br>--- --- -- ----- -- --- ---- -- --- ---- -- ------ ------<br>--- ----- -- ----,114716.20000001788,114716,114439.366,114440.5,114443.645,114718.966,,37,it's
screen,html.Screen,2_1_0_1_38,2022-05-11T13:45:51.414Z,,,,,,,,,,,,,,,,,53,,,,,,,,,,,,,,228.03399999999965,,response,,,,99,,,,,,,Space,keypress(Space),,,,,,,,---- -- ----- -- ------ - ------- --- ----------<br>------------- ------ ------ ---- ---- ------- ----- -- ----<br>-------- ------- -- ---------- --- - --- ----- ----- ----<br>---- --- --- ----- --- ---- ---- ------- ----- ---- whether<br>--- --- -- ----- -- --- ---- -- --- ---- -- ------ ------<br>--- ----- -- ----,114947.30000001192,114947,114714.74,114716.20000001788,114718.966,114957.115,,38,whether
screen,html.Screen,2_1_0_1_39,2022-05-11T13:45:51.743Z,,,,,,,,,,,,,,,,,53,,,,,,,,,,,,,,319.08500001787615,,response,,,,99,,,,,,,Space,keypress(Space),,,,,,,,---- -- ----- -- ------ - ------- --- ----------<br>------------- ------ ------ ---- ---- ------- ----- -- ----<br>-------- ------- -- ---------- --- - --- ----- ----- ----<br>---- --- --- ----- --- ---- ---- ------- ----- ---- -------<br>you --- -- ----- -- --- ---- -- --- ---- -- ------ ------<br>--- ----- -- ----,115276.5,115276.20000001788,114944.144,114947.30000001192,114957.115,115283.246,,39,you
screen,html.Screen,2_1_0_1_40,2022-05-11T13:45:51.969Z,,,,,,,,,,,,,,,,,53,,,,,,,,,,,,,,218.75400000000081,,response,,,,99,,,,,,,Space,keypress(Space),,,,,,,,---- -- ----- -- ------ - ------- --- ----------<br>------------- ------ ------ ---- ---- ------- ----- -- ----<br>-------- ------- -- ---------- --- - --- ----- ----- ----<br>---- --- --- ----- --- ---- ---- ------- ----- ---- -------<br>--- are -- ----- -- --- ---- -- --- ---- -- ------ ------<br>--- ----- -- ----,115502.30000001192,115502,115273.629,115276.59999999404,115283.246,115515.98,,40,are
screen,html.Screen,2_1_0_1_41,2022-05-11T13:45:52.191Z,,,,,,,,,,,,,,,,,53,,,,,,,,,,,,,,207.52000000000407,,response,,,,99,,,,,,,Space,keypress(Space),,,,,,,,---- -- ----- -- ------ - ------- --- ----------<br>------------- ------ ------ ---- ---- ------- ----- -- ----<br>-------- ------- -- ---------- --- - --- ----- ----- ----<br>---- --- --- ----- --- ---- ---- ------- ----- ---- -------<br>--- --- as ----- -- --- ---- -- --- ---- -- ------ ------<br>--- ----- -- ----,115723.70000001788,115723.5,115498.877,115502.40000000596,115515.98,115728.227,,41,as
screen,html.Screen,2_1_0_1_42,2022-05-11T13:45:52.404Z,,,,,,,,,,,,,,,,,53,,,,,,,,,,,,,,208.87299999404058,,response,,,,99,,,,,,,Space,keypress(Space),,,,,,,,---- -- ----- -- ------ - ------- --- ----------<br>------------- ------ ------ ---- ---- ------- ----- -- ----<br>-------- ------- -- ---------- --- - --- ----- ----- ----<br>---- --- --- ----- --- ---- ---- ------- ----- ---- -------<br>--- --- -- close -- --- ---- -- --- ---- -- ------ ------<br>--- ----- -- ----,115937.5,115937.09999999404,115719.966,115723.80000001192,115728.227,115941.039,,42,close
screen,html.Screen,2_1_0_1_43,2022-05-11T13:45:52.662Z,,,,,,,,,,,,,,,,,53,,,,,,,,,,,,,,253.6610000178771,,response,,,,99,,,,,,,Space,keypress(Space),,,,,,,,---- -- ----- -- ------ - ------- --- ----------<br>------------- ------ ------ ---- ---- ------- ----- -- ----<br>-------- ------- -- ---------- --- - --- ----- ----- ----<br>---- --- --- ----- --- ---- ---- ------- ----- ---- -------<br>--- --- -- ----- as --- ---- -- --- ---- -- ------ ------<br>--- ----- -- ----,116195,116194.70000001788,115936.778,115937.5,115941.039,116199.565,,43,as
screen,html.Screen,2_1_0_1_44,2022-05-11T13:45:52.873Z,,,,,,,,,,,,,,,,,53,,,,,,,,,,,,,,206.5349999940372,,response,,,,99,,,,,,,Space,keypress(Space),,,,,,,,---- -- ----- -- ------ - ------- --- ----------<br>------------- ------ ------ ---- ---- ------- ----- -- ----<br>-------- ------- -- ---------- --- - --- ----- ----- ----<br>---- --- --- ----- --- ---- ---- ------- ----- ---- -------<br>--- --- -- ----- -- you ---- -- --- ---- -- ------ ------<br>--- ----- -- ----,116406.5,116406.09999999404,116191.23,116195.09999999404,116199.565,116408.103,,44,you
screen,html.Screen,2_1_0_1_45,2022-05-11T13:45:53.108Z,,,,,,,,,,,,,,,,,53,,,,,,,,,,,,,,232.49699999403674,,response,,,,99,,,,,,,Space,keypress(Space),,,,,,,,---- -- ----- -- ------ - ------- --- ----------<br>------------- ------ ------ ---- ---- ------- ----- -- ----<br>-------- ------- -- ---------- --- - --- ----- ----- ----<br>---- --- --- ----- --- ---- ---- ------- ----- ---- -------<br>--- --- -- ----- -- --- want -- --- ---- -- ------ ------<br>--- ----- -- ----,116640.80000001192,116640.59999999404,116403.95,116406.5,116408.103,116661.457,,45,want
screen,html.Screen,2_1_0_1_46,2022-05-11T13:45:53.320Z,,,,,,,,,,,,,,,,,53,,,,,,,,,,,,,,191.64299999404466,,response,,,,99,,,,,,,Space,keypress(Space),,,,,,,,---- -- ----- -- ------ - ------- --- ----------<br>------------- ------ ------ ---- ---- ------- ----- -- ----<br>-------- ------- -- ---------- --- - --- ----- ----- ----<br>---- --- --- ----- --- ---- ---- ------- ----- ---- -------<br>--- --- -- ----- -- --- ---- to --- ---- -- ------ ------<br>--- ----- -- ----,116853.5,116853.09999999404,116637.513,116640.90000000596,116661.457,116862.506,,46,to
screen,html.Screen,2_1_0_1_47,2022-05-11T13:45:53.524Z,,,,,,,,,,,,,,,,,53,,,,,,,,,,,,,,194.69400001788745,,response,,,,99,,,,,,,Space,keypress(Space),,,,,,,,"---- -- ----- -- ------ - ------- --- ----------<br>------------- ------ ------ ---- ---- ------- ----- -- ----<br>-------- ------- -- ---------- --- - --- ----- ----- ----<br>---- --- --- ----- --- ---- ---- ------- ----- ---- -------<br>--- --- -- ----- -- --- ---- -- be, ---- -- ------ ------<br>--- ----- -- ----",117057.40000000596,117057.20000001788,116850.224,116853.5,116862.506,117058.753,,47,"be,"
screen,html.Screen,2_1_0_1_48,2022-05-11T13:45:53.827Z,,,,,,,,,,,,,,,,,53,,,,,,,,,,,,,,301.247000000003,,response,,,,99,,,,,,,Space,keypress(Space),,,,,,,,---- -- ----- -- ------ - ------- --- ----------<br>------------- ------ ------ ---- ---- ------- ----- -- ----<br>-------- ------- -- ---------- --- - --- ----- ----- ----<br>---- --- --- ----- --- ---- ---- ------- ----- ---- -------<br>--- --- -- ----- -- --- ---- -- --- even -- ------ ------<br>--- ----- -- ----,117360.30000001192,117360,117054.5,117057.5,117058.753,117363.288,,48,even
screen,html.Screen,2_1_0_1_49,2022-05-11T13:45:54.110Z,,,,,,,,,,,,,,,,,53,,,,,,,,,,,,,,279.81199999403907,,response,,,,99,,,,,,,Space,keypress(Space),,,,,,,,---- -- ----- -- ------ - ------- --- ----------<br>------------- ------ ------ ---- ---- ------- ----- -- ----<br>-------- ------- -- ---------- --- - --- ----- ----- ----<br>---- --- --- ----- --- ---- ---- ------- ----- ---- -------<br>--- --- -- ----- -- --- ---- -- --- ---- if ------ ------<br>--- ----- -- ----,117643.30000001192,117643.09999999404,117359.02,117360.40000000596,117363.288,117646.882,,49,if
screen,html.Screen,2_1_0_1_50,2022-05-11T13:45:54.387Z,,,,,,,,,,,,,,,,,53,,,,,,,,,,,,,,273.0180000059627,,response,,,,99,,,,,,,Space,keypress(Space),,,,,,,,---- -- ----- -- ------ - ------- --- ----------<br>------------- ------ ------ ---- ---- ------- ----- -- ----<br>-------- ------- -- ---------- --- - --- ----- ----- ----<br>---- --- --- ----- --- ---- ---- ------- ----- ---- -------<br>--- --- -- ----- -- --- ---- -- --- ---- -- that's ------<br>--- ----- -- ----,117920.30000001192,117919.90000000596,117642.566,117643.30000001192,117646.882,117922.1,,50,that's
screen,html.Screen,2_1_0_1_51,2022-05-11T13:45:54.722Z,,,,,,,,,,,,,,,,,53,,,,,,,,,,,,,,333.1000000178756,,response,,,,99,,,,,,,Space,keypress(Space),,,,,,,,---- -- ----- -- ------ - ------- --- ----------<br>------------- ------ ------ ---- ---- ------- ----- -- ----<br>-------- ------- -- ---------- --- - --- ----- ----- ----<br>---- --- --- ----- --- ---- ---- ------- ----- ---- -------<br>--- --- -- ----- -- --- ---- -- --- ---- -- ------ really<br>--- ----- -- ----,118255.5,118255.20000001788,117917.94,117920.40000000596,117922.1,118264.193,,51,really
screen,html.Screen,2_1_0_1_52,2022-05-11T13:45:55.027Z,,,,,,,,,,,,,,,,,53,,,,,,,,,,,,,,295.8070000000007,,response,,,,99,,,,,,,Space,keypress(Space),,,,,,,,---- -- ----- -- ------ - ------- --- ----------<br>------------- ------ ------ ---- ---- ------- ----- -- ----<br>-------- ------- -- ---------- --- - --- ----- ----- ----<br>---- --- --- ----- --- ---- ---- ------- ----- ---- -------<br>--- --- -- ----- -- --- ---- -- --- ---- -- ------ ------<br>not ----- -- ----,118560.40000000596,118560,118260.028,118255.5,118264.193,118564.495,,52,not
screen,html.Screen,2_1_0_1_53,2022-05-11T13:45:55.284Z,,,,,,,,,,,,,,,,,53,,,,,,,,,,,,,,252.50500000000466,,response,,,,99,,,,,,,Space,keypress(Space),,,,,,,,---- -- ----- -- ------ - ------- --- ----------<br>------------- ------ ------ ---- ---- ------- ----- -- ----<br>-------- ------- -- ---------- --- - --- ----- ----- ----<br>---- --- --- ----- --- ---- ---- ------- ----- ---- -------<br>--- --- -- ----- -- --- ---- -- --- ---- -- ------ ------<br>--- close -- ----,118817.20000001788,118817,118560.256,118560.40000000596,118564.495,118818.85,,53,close
screen,html.Screen,2_1_0_1_54,2022-05-11T13:45:55.573Z,,,,,,,,,,,,,,,,,53,,,,,,,,,,,,,,287.3500000178756,,response,,,,99,,,,,,,Space,keypress(Space),,,,,,,,---- -- ----- -- ------ - ------- --- ----------<br>------------- ------ ------ ---- ---- ------- ----- -- ----<br>-------- ------- -- ---------- --- - --- ----- ----- ----<br>---- --- --- ----- --- ---- ---- ------- ----- ---- -------<br>--- --- -- ----- -- --- ---- -- --- ---- -- ------ ------<br>--- ----- at ----,119106.40000000596,119106.20000001788,118814.68,118817.30000001192,118818.85,119110.885,,54,at
screen,html.Screen,2_1_0_1_55,2022-05-11T13:45:55.880Z,,,,,,,,,,,,,,,,,53,,,,,,,,,,,,,,302.41500001192617,,response,,,,99,,,,,,,Space,keypress(Space),,,,,,,,---- -- ----- -- ------ - ------- --- ----------<br>------------- ------ ------ ---- ---- ------- ----- -- ----<br>-------- ------- -- ---------- --- - --- ----- ----- ----<br>---- --- --- ----- --- ---- ---- ------- ----- ---- -------<br>--- --- -- ----- -- --- ---- -- --- ---- -- ------ ------<br>--- ----- -- all.,119413.40000000596,119413.30000001192,119106.554,119106.5,119110.885,119415.256,,55,all.
Item 99,flow.Loop,2_1_0_1,2022-05-11T13:45:55.880Z,,,,,,,,,,,,,,,,,,,,,,,,,,,,,,,17523.977000011917,,completion,,,,,F,,,,,,,,,,,silence,,,,,119413.59999999404,119413.30000001192,101885.226,101886.5,101889.323,119415.256,,,
Question 1,html.Screen,2_1_0_2,2022-05-11T13:46:03.850Z,,,,,,,,,,,,,,,,,,,,,,,,,,,,true,FALSE,,7967.244000000006,,response,,,,99,F,,,,,,FALSE,click #choice-2,,,,silence,,,,,127382.90000000596,127382.5,119411.122,119413.59999999404,119415.256,127389.997,,,
Question 2,html.Screen,2_1_0_3,2022-05-11T13:46:07.334Z,,,,,,,,,,,,,,,,,,,,,,,,,,,,true,TRUE,,3476.6029999940365,,response,,,,99,F,,,,,,TRUE,click #choice-1,,,,silence,,,,,130867,130866.59999999404,127385.854,127383,127389.997,130868.453,,,
Item 99,flow.Sequence,2_1_0,2022-05-11T13:46:07.334Z,,,,,,,,,,,,,,,,,,,,,,,,,,,,,,,38978.992999994036,,completion,,,,,,,,,,,,,,,,,,,,,130867.09999999404,130866.59999999404,91883.417,91887.30000001192,91887.607,130868.453,,,
Holding screen,html.Screen,2_1_1_0,2022-05-11T13:46:17.333Z,,,,,,,,,,,,,,,,,,,,,,,,,,,,,,,10001.713000000003,,timeout,,,,,,,,,,,,,,,,,,,,,140866.40000000596,140866.012,130864.314,130867.20000001788,130868.453,140870.166,,,
screen,html.Screen,2_1_1_1_0,2022-05-11T13:46:18.229Z,,,,,,,,,,,,,,,,,54,,,,,,,,,,,,,,891.234000005963,,response,,,,100,,,,,,,Space,keypress(Space),,,,,,,,At --- ---- --- ------ ----- ------- ---- -- --- ------- --<br>------- ---------- ------ -- ----- -- ----- -- ---- ------<br>--- ----- --- --- ------ -------- ----- --- ------ ----- --<br>----- ----- ---------- --- --- ------ ------ ---- -- ------<br>------- --- ------ ----- --- ---- ------- -- ---- --- --<br>------- ------,141761.80000001192,141761.40000000596,140866.012,140866.5,140870.166,141762.749,,0,At
screen,html.Screen,2_1_1_1_1,2022-05-11T13:46:18.523Z,,,,,,,,,,,,,,,,,54,,,,,,,,,,,,,,293.15100000594975,,response,,,,100,,,,,,,Space,keypress(Space),,,,,,,,-- the ---- --- ------ ----- ------- ---- -- --- ------- --<br>------- ---------- ------ -- ----- -- ----- -- ---- ------<br>--- ----- --- --- ------ -------- ----- --- ------ ----- --<br>----- ----- ---------- --- --- ------ ------ ---- -- ------<br>------- --- ------ ----- --- ---- ------- -- ---- --- --<br>------- ------,142056.20000001788,142055.90000000596,141758.558,141761.80000001192,141762.749,142058.921,,1,the
screen,html.Screen,2_1_1_1_2,2022-05-11T13:46:18.752Z,,,,,,,,,,,,,,,,,54,,,,,,,,,,,,,,226.17899999403744,,response,,,,100,,,,,,,Space,keypress(Space),,,,,,,,-- --- time --- ------ ----- ------- ---- -- --- ------- --<br>------- ---------- ------ -- ----- -- ----- -- ---- ------<br>--- ----- --- --- ------ -------- ----- --- ------ ----- --<br>----- ----- ---------- --- --- ------ ------ ---- -- ------<br>------- --- ------ ----- --- ---- ------- -- ---- --- --<br>------- ------,142285.40000000596,142285.09999999404,142054.621,142056.20000001788,142058.921,142288.247,,2,time
screen,html.Screen,2_1_1_1_3,2022-05-11T13:46:18.948Z,,,,,,,,,,,,,,,,,54,,,,,,,,,,,,,,192.95300001787837,,response,,,,100,,,,,,,Space,keypress(Space),,,,,,,,-- --- ---- the ------ ----- ------- ---- -- --- ------- --<br>------- ---------- ------ -- ----- -- ----- -- ---- ------<br>--- ----- --- --- ------ -------- ----- --- ------ ----- --<br>----- ----- ---------- --- --- ------ ------ ---- -- ------<br>------- --- ------ ----- --- ---- ------- -- ---- --- --<br>------- ------,142481.5,142481.20000001788,142284.103,142285.40000000596,142288.247,142484.287,,3,the
screen,html.Screen,2_1_1_1_4,2022-05-11T13:46:19.156Z,,,,,,,,,,,,,,,,,54,,,,,,,,,,,,,,204.71299999998882,,response,,,,100,,,,,,,Space,keypress(Space),,,,,,,,-- --- ---- --- French ----- ------- ---- -- --- ------- --<br>------- ---------- ------ -- ----- -- ----- -- ---- ------<br>--- ----- --- --- ------ -------- ----- --- ------ ----- --<br>----- ----- ---------- --- --- ------ ------ ---- -- ------<br>------- --- ------ ----- --- ---- ------- -- ---- --- --<br>------- ------,142689.40000000596,142689,142480.149,142481.59999999404,142484.287,142692.89,,4,French
screen,html.Screen,2_1_1_1_5,2022-05-11T13:46:19.378Z,,,,,,,,,,,,,,,,,54,,,,,,,,,,,,,,217.81000001786742,,response,,,,100,,,,,,,Space,keypress(Space),,,,,,,,-- --- ---- --- ------ crown ------- ---- -- --- ------- --<br>------- ---------- ------ -- ----- -- ----- -- ---- ------<br>--- ----- --- --- ------ -------- ----- --- ------ ----- --<br>----- ----- ---------- --- --- ------ ------ ---- -- ------<br>------- --- ------ ----- --- ---- ------- -- ---- --- --<br>------- ------,142911,142910.70000001788,142688.698,142689.40000000596,142692.89,142913.813,,5,crown
screen,html.Screen,2_1_1_1_6,2022-05-11T13:46:19.593Z,,,,,,,,,,,,,,,,,54,,,,,,,,,,,,,,211.7869999940449,,response,,,,100,,,,,,,Space,keypress(Space),,,,,,,,-- --- ---- --- ------ ----- secured ---- -- --- ------- --<br>------- ---------- ------ -- ----- -- ----- -- ---- ------<br>--- ----- --- --- ------ -------- ----- --- ------ ----- --<br>----- ----- ---------- --- --- ------ ------ ---- -- ------<br>------- --- ------ ----- --- ---- ------- -- ---- --- --<br>------- ------,143125.80000001192,143125.59999999404,142909.702,142911,142913.813,143138.735,,6,secured
screen,html.Screen,2_1_1_1_7,2022-05-11T13:46:20.063Z,,,,,,,,,,,,,,,,,54,,,,,,,,,,,,,,456.76500000001397,,response,,,,100,,,,,,,Space,keypress(Space),,,,,,,,-- --- ---- --- ------ ----- ------- much -- --- ------- --<br>------- ---------- ------ -- ----- -- ----- -- ---- ------<br>--- ----- --- --- ------ -------- ----- --- ------ ----- --<br>----- ----- ---------- --- --- ------ ------ ---- -- ------<br>------- --- ------ ----- --- ---- ------- -- ---- --- --<br>------- ------,143595.70000001788,143595.5,143122.463,143126,143138.735,143597.879,,7,much
screen,html.Screen,2_1_1_1_8,2022-05-11T13:46:20.344Z,,,,,,,,,,,,,,,,,54,,,,,,,,,,,,,,279.42100001193467,,response,,,,100,,,,,,,Space,keypress(Space),,,,,,,,-- --- ---- --- ------ ----- ------- ---- of --- ------- --<br>------- ---------- ------ -- ----- -- ----- -- ---- ------<br>--- ----- --- --- ------ -------- ----- --- ------ ----- --<br>----- ----- ---------- --- --- ------ ------ ---- -- ------<br>------- --- ------ ----- --- ---- ------- -- ---- --- --<br>------- ------,143877.5,143877.30000001192,143593.708,143595.80000001192,143597.879,143881.478,,8,of
screen,html.Screen,2_1_1_1_9,2022-05-11T13:46:20.702Z,,,,,,,,,,,,,,,,,54,,,,,,,,,,,,,,353.62199999403674,,response,,,,100,,,,,,,Space,keypress(Space),,,,,,,,-- --- ---- --- ------ ----- ------- ---- -- its ------- --<br>------- ---------- ------ -- ----- -- ----- -- ---- ------<br>--- ----- --- --- ------ -------- ----- --- ------ ----- --<br>----- ----- ---------- --- --- ------ ------ ---- -- ------<br>------- --- ------ ----- --- ---- ------- -- ---- --- --<br>------- ------,144235.40000000596,144235.09999999404,143877.364,143877.59999999404,143881.478,144253.93,,9,its
screen,html.Screen,2_1_1_1_10,2022-05-11T13:46:20.940Z,,,,,,,,,,,,,,,,,54,,,,,,,,,,,,,,219.07000000000698,,response,,,,100,,,,,,,Space,keypress(Space),,,,,,,,-- --- ---- --- ------ ----- ------- ---- -- --- revenue --<br>------- ---------- ------ -- ----- -- ----- -- ---- ------<br>--- ----- --- --- ------ -------- ----- --- ------ ----- --<br>----- ----- ---------- --- --- ------ ------ ---- -- ------<br>------- --- ------ ----- --- ---- ------- -- ---- --- --<br>------- ------,144473.30000001192,144473,144231.873,144235.40000000596,144253.93,144488.77,,10,revenue
screen,html.Screen,2_1_1_1_11,2022-05-11T13:46:21.142Z,,,,,,,,,,,,,,,,,54,,,,,,,,,,,,,,186.13000000597094,,response,,,,100,,,,,,,Space,keypress(Space),,,,,,,,-- --- ---- --- ------ ----- ------- ---- -- --- ------- by<br>------- ---------- ------ -- ----- -- ----- -- ---- ------<br>--- ----- --- --- ------ -------- ----- --- ------ ----- --<br>----- ----- ---------- --- --- ------ ------ ---- -- ------<br>------- --- ------ ----- --- ---- ------- -- ---- --- --<br>------- ------,144675.30000001192,144674.90000000596,144469.65,144473.40000000596,144488.77,144678.196,,11,by
screen,html.Screen,2_1_1_1_12,2022-05-11T13:46:21.350Z,,,,,,,,,,,,,,,,,54,,,,,,,,,,,,,,204.7040000059642,,response,,,,100,,,,,,,Space,keypress(Space),,,,,,,,-- --- ---- --- ------ ----- ------- ---- -- --- ------- --<br>issuing ---------- ------ -- ----- -- ----- -- ---- ------<br>--- ----- --- --- ------ -------- ----- --- ------ ----- --<br>----- ----- ---------- --- --- ------ ------ ---- -- ------<br>------- --- ------ ----- --- ---- ------- -- ---- --- --<br>------- ------,144883.30000001192,144882.90000000596,144674.023,144675.40000000596,144678.196,144886.757,,12,issuing
screen,html.Screen,2_1_1_1_13,2022-05-11T13:46:21.566Z,,,,,,,,,,,,,,,,,54,,,,,,,,,,,,,,212.24299999998766,,response,,,,100,,,,,,,Space,keypress(Space),,,,,,,,-- --- ---- --- ------ ----- ------- ---- -- --- ------- --<br>------- government ------ -- ----- -- ----- -- ---- ------<br>--- ----- --- --- ------ -------- ----- --- ------ ----- --<br>----- ----- ---------- --- --- ------ ------ ---- -- ------<br>------- --- ------ ----- --- ---- ------- -- ---- --- --<br>------- ------,145099.30000001192,145099,144882.561,144883.30000001192,144886.757,145103.646,,13,government
screen,html.Screen,2_1_1_1_14,2022-05-11T13:46:22.796Z,,,,,,,,,,,,,,,,,54,,,,,,,,,,,,,,1225.654000011913,,response,,,,100,,,,,,,Space,keypress(Space),,,,,,,,-- --- ---- --- ------ ----- ------- ---- -- --- ------- --<br>------- ---------- bonds. -- ----- -- ----- -- ---- ------<br>--- ----- --- --- ------ -------- ----- --- ------ ----- --<br>----- ----- ---------- --- --- ------ ------ ---- -- ------<br>------- --- ------ ----- --- ---- ------- -- ---- --- --<br>------- ------,146329.59999999404,146329.30000001192,145099.444,145099.30000001192,145103.646,146334.014,,14,bonds.
screen,html.Screen,2_1_1_1_15,2022-05-11T13:46:23.012Z,,,,,,,,,,,,,,,,,54,,,,,,,,,,,,,,211.18600001788582,,response,,,,100,,,,,,,Space,keypress(Space),,,,,,,,-- --- ---- --- ------ ----- ------- ---- -- --- ------- --<br>------- ---------- ------ In ----- -- ----- -- ---- ------<br>--- ----- --- --- ------ -------- ----- --- ------ ----- --<br>----- ----- ---------- --- --- ------ ------ ---- -- ------<br>------- --- ------ ----- --- ---- ------- -- ---- --- --<br>------- ------,146545.5,146545.20000001788,146329.638,146329.70000001788,146334.014,146546.748,,15,In
screen,html.Screen,2_1_1_1_16,2022-05-11T13:46:23.237Z,,,,,,,,,,,,,,,,,54,,,,,,,,,,,,,,223.45200001788908,,response,,,,100,,,,,,,Space,keypress(Space),,,,,,,,"-- --- ---- --- ------ ----- ------- ---- -- --- ------- --<br>------- ---------- ------ -- 1727, -- ----- -- ---- ------<br>--- ----- --- --- ------ -------- ----- --- ------ ----- --<br>----- ----- ---------- --- --- ------ ------ ---- -- ------<br>------- --- ------ ----- --- ---- ------- -- ---- --- --<br>------- ------",146770.59999999404,146770.20000001788,146542.562,146545.5,146546.748,146771.894,,16,"1727,"
screen,html.Screen,2_1_1_1_17,2022-05-11T13:46:23.461Z,,,,,,,,,,,,,,,,,54,,,,,,,,,,,,,,222.30600001788116,,response,,,,100,,,,,,,Space,keypress(Space),,,,,,,,-- --- ---- --- ------ ----- ------- ---- -- --- ------- --<br>------- ---------- ------ -- ----- in ----- -- ---- ------<br>--- ----- --- --- ------ -------- ----- --- ------ ----- --<br>----- ----- ---------- --- --- ------ ------ ---- -- ------<br>------- --- ------ ----- --- ---- ------- -- ---- --- --<br>------- ------,146994.5,146994.20000001788,146767.699,146770.59999999404,146771.894,146997.213,,17,in
screen,html.Screen,2_1_1_1_18,2022-05-11T13:46:23.982Z,,,,,,,,,,,,,,,,,54,,,,,,,,,,,,,,517.8869999940507,,response,,,,100,,,,,,,Space,keypress(Space),,,,,,,,-- --- ---- --- ------ ----- ------- ---- -- --- ------- --<br>------- ---------- ------ -- ----- -- order -- ---- ------<br>--- ----- --- --- ------ -------- ----- --- ------ ----- --<br>----- ----- ---------- --- --- ------ ------ ---- -- ------<br>------- --- ------ ----- --- ---- ------- -- ---- --- --<br>------- ------,147515.40000000596,147515.09999999404,146993.013,146994.5,146997.213,147518.498,,18,order
screen,html.Screen,2_1_1_1_19,2022-05-11T13:46:24.875Z,,,,,,,,,,,,,,,,,54,,,,,,,,,,,,,,889.9020000059681,,response,,,,100,,,,,,,Space,keypress(Space),,,,,,,,-- --- ---- --- ------ ----- ------- ---- -- --- ------- --<br>------- ---------- ------ -- ----- -- ----- to ---- ------<br>--- ----- --- --- ------ -------- ----- --- ------ ----- --<br>----- ----- ---------- --- --- ------ ------ ---- -- ------<br>------- --- ------ ----- --- ---- ------- -- ---- --- --<br>------- ------,148408.70000001788,148408.40000000596,147514.309,147515.40000000596,147518.498,148411.032,,19,to
screen,html.Screen,2_1_1_1_20,2022-05-11T13:46:25.084Z,,,,,,,,,,,,,,,,,54,,,,,,,,,,,,,,205.96799999999348,,response,,,,100,,,,,,,Space,keypress(Space),,,,,,,,-- --- ---- --- ------ ----- ------- ---- -- --- ------- --<br>------- ---------- ------ -- ----- -- ----- -- save ------<br>--- ----- --- --- ------ -------- ----- --- ------ ----- --<br>----- ----- ---------- --- --- ------ ------ ---- -- ------<br>------- --- ------ ----- --- ---- ------- -- ---- --- --<br>------- ------,148617.30000001192,148617,148406.795,148408.80000001192,148411.032,148619.575,,20,save
screen,html.Screen,2_1_1_1_21,2022-05-11T13:46:25.325Z,,,,,,,,,,,,,,,,,54,,,,,,,,,,,,,,238.42499999998836,,response,,,,100,,,,,,,Space,keypress(Space),,,,,,,,"-- --- ---- --- ------ ----- ------- ---- -- --- ------- --<br>------- ---------- ------ -- ----- -- ----- -- ---- money,<br>--- ----- --- --- ------ -------- ----- --- ------ ----- --<br>----- ----- ---------- --- --- ------ ------ ---- -- ------<br>------- --- ------ ----- --- ---- ------- -- ---- --- --<br>------- ------",148858.30000001192,148858,148615.48,148617.30000001192,148619.575,148861.6,,21,"money,"
screen,html.Screen,2_1_1_1_22,2022-05-11T13:46:25.616Z,,,,,,,,,,,,,,,,,54,,,,,,,,,,,,,,287.6000000178756,,response,,,,100,,,,,,,Space,keypress(Space),,,,,,,,-- --- ---- --- ------ ----- ------- ---- -- --- ------- --<br>------- ---------- ------ -- ----- -- ----- -- ---- ------<br>the ----- --- --- ------ -------- ----- --- ------ ----- --<br>----- ----- ---------- --- --- ------ ------ ---- -- ------<br>------- --- ------ ----- --- ---- ------- -- ---- --- --<br>------- ------,149149.5,149149.20000001788,148857.384,148858.40000000596,148861.6,149153.56,,22,the
screen,html.Screen,2_1_1_1_23,2022-05-11T13:46:25.838Z,,,,,,,,,,,,,,,,,54,,,,,,,,,,,,,,217.3400000059628,,response,,,,100,,,,,,,Space,keypress(Space),,,,,,,,-- --- ---- --- ------ ----- ------- ---- -- --- ------- --<br>------- ---------- ------ -- ----- -- ----- -- ---- ------<br>--- state --- --- ------ -------- ----- --- ------ ----- --<br>----- ----- ---------- --- --- ------ ------ ---- -- ------<br>------- --- ------ ----- --- ---- ------- -- ---- --- --<br>------- ------,149371.30000001192,149370.90000000596,149149.313,149149.5,149153.56,149374.644,,23,state
screen,html.Screen,2_1_1_1_24,2022-05-11T13:46:26.042Z,,,,,,,,,,,,,,,,,54,,,,,,,,,,,,,,200.25600000596023,,response,,,,100,,,,,,,Space,keypress(Space),,,,,,,,-- --- ---- --- ------ ----- ------- ---- -- --- ------- --<br>------- ---------- ------ -- ----- -- ----- -- ---- ------<br>--- ----- cut --- ------ -------- ----- --- ------ ----- --<br>----- ----- ---------- --- --- ------ ------ ---- -- ------<br>------- --- ------ ----- --- ---- ------- -- ---- --- --<br>------- ------,149575.20000001788,149574.90000000596,149370.397,149371.30000001192,149374.644,149578.946,,24,cut
screen,html.Screen,2_1_1_1_25,2022-05-11T13:46:26.252Z,,,,,,,,,,,,,,,,,54,,,,,,,,,,,,,,206.15399999404326,,response,,,,100,,,,,,,Space,keypress(Space),,,,,,,,-- --- ---- --- ------ ----- ------- ---- -- --- ------- --<br>------- ---------- ------ -- ----- -- ----- -- ---- ------<br>--- ----- --- the ------ -------- ----- --- ------ ----- --<br>----- ----- ---------- --- --- ------ ------ ---- -- ------<br>------- --- ------ ----- --- ---- ------- -- ---- --- --<br>------- ------,149785.40000000596,149785.09999999404,149574.777,149575.30000001192,149578.946,149787.423,,25,the
screen,html.Screen,2_1_1_1_26,2022-05-11T13:46:26.464Z,,,,,,,,,,,,,,,,,54,,,,,,,,,,,,,,209.87700001191115,,response,,,,100,,,,,,,Space,keypress(Space),,,,,,,,-- --- ---- --- ------ ----- ------- ---- -- --- ------- --<br>------- ---------- ------ -- ----- -- ----- -- ---- ------<br>--- ----- --- --- bonds' -------- ----- --- ------ ----- --<br>----- ----- ---------- --- --- ------ ------ ---- -- ------<br>------- --- ------ ----- --- ---- ------- -- ---- --- --<br>------- ------,149997.5,149997.30000001192,149783.318,149785.5,149787.423,150000.252,,26,bonds'
screen,html.Screen,2_1_1_1_27,2022-05-11T13:46:26.676Z,,,,,,,,,,,,,,,,,54,,,,,,,,,,,,,,208.84799999403185,,response,,,,100,,,,,,,Space,keypress(Space),,,,,,,,-- --- ---- --- ------ ----- ------- ---- -- --- ------- --<br>------- ---------- ------ -- ----- -- ----- -- ---- ------<br>--- ----- --- --- ------ interest ----- --- ------ ----- --<br>----- ----- ---------- --- --- ------ ------ ---- -- ------<br>------- --- ------ ----- --- ---- ------- -- ---- --- --<br>------- ------,150209.5,150209.09999999404,149996.036,149997.59999999404,150000.252,150212.963,,27,interest
screen,html.Screen,2_1_1_1_28,2022-05-11T13:46:26.876Z,,,,,,,,,,,,,,,,,54,,,,,,,,,,,,,,195.6369999940507,,response,,,,100,,,,,,,Space,keypress(Space),,,,,,,,-- --- ---- --- ------ ----- ------- ---- -- --- ------- --<br>------- ---------- ------ -- ----- -- ----- -- ---- ------<br>--- ----- --- --- ------ -------- rate. --- ------ ----- --<br>----- ----- ---------- --- --- ------ ------ ---- -- ------<br>------- --- ------ ----- --- ---- ------- -- ---- --- --<br>------- ------,150408.90000000596,150408.59999999404,150208.74,150209.5,150212.963,150413.168,,28,rate.
screen,html.Screen,2_1_1_1_29,2022-05-11T13:46:27.200Z,,,,,,,,,,,,,,,,,54,,,,,,,,,,,,,,319.9319999940344,,response,,,,100,,,,,,,Space,keypress(Space),,,,,,,,-- --- ---- --- ------ ----- ------- ---- -- --- ------- --<br>------- ---------- ------ -- ----- -- ----- -- ---- ------<br>--- ----- --- --- ------ -------- ----- The ------ ----- --<br>----- ----- ---------- --- --- ------ ------ ---- -- ------<br>------- --- ------ ----- --- ---- ------- -- ---- --- --<br>------- ------,150733.5,150733.09999999404,150408.949,150409,150413.168,150752.115,,29,The
screen,html.Screen,2_1_1_1_30,2022-05-11T13:46:27.413Z,,,,,,,,,,,,,,,,,54,,,,,,,,,,,,,,194.0850000178907,,response,,,,100,,,,,,,Space,keypress(Space),,,,,,,,-- --- ---- --- ------ ----- ------- ---- -- --- ------- --<br>------- ---------- ------ -- ----- -- ----- -- ---- ------<br>--- ----- --- --- ------ -------- ----- --- market ----- --<br>----- ----- ---------- --- --- ------ ------ ---- -- ------<br>------- --- ------ ----- --- ---- ------- -- ---- --- --<br>------- ------,150946.5,150946.20000001788,150730.087,150733.59999999404,150752.115,150953.149,,30,market
screen,html.Screen,2_1_1_1_31,2022-05-11T13:46:28.002Z,,,,,,,,,,,,,,,,,54,,,,,,,,,,,,,,582.0510000178765,,response,,,,100,,,,,,,Space,keypress(Space),,,,,,,,-- --- ---- --- ------ ----- ------- ---- -- --- ------- --<br>------- ---------- ------ -- ----- -- ----- -- ---- ------<br>--- ----- --- --- ------ -------- ----- --- ------ value --<br>----- ----- ---------- --- --- ------ ------ ---- -- ------<br>------- --- ------ ----- --- ---- ------- -- ---- --- --<br>------- ------,151535.5,151535.20000001788,150942.762,150946.59999999404,150953.149,151539.285,,31,value
screen,html.Screen,2_1_1_1_32,2022-05-11T13:46:28.178Z,,,,,,,,,,,,,,,,,54,,,,,,,,,,,,,,171.7149999999965,,response,,,,100,,,,,,,Space,keypress(Space),,,,,,,,-- --- ---- --- ------ ----- ------- ---- -- --- ------- --<br>------- ---------- ------ -- ----- -- ----- -- ---- ------<br>--- ----- --- --- ------ -------- ----- --- ------ ----- of<br>----- ----- ---------- --- --- ------ ------ ---- -- ------<br>------- --- ------ ----- --- ---- ------- -- ---- --- --<br>------- ------,151711.30000001192,151711,151534.978,151535.59999999404,151539.285,151714.42,,32,of
screen,html.Screen,2_1_1_1_33,2022-05-11T13:46:28.416Z,,,,,,,,,,,,,,,,,54,,,,,,,,,,,,,,234.5799999999872,,response,,,,100,,,,,,,Space,keypress(Space),,,,,,,,-- --- ---- --- ------ ----- ------- ---- -- --- ------- --<br>------- ---------- ------ -- ----- -- ----- -- ---- ------<br>--- ----- --- --- ------ -------- ----- --- ------ ----- --<br>these ----- ---------- --- --- ------ ------ ---- -- ------<br>------- --- ------ ----- --- ---- ------- -- ---- --- --<br>------- ------,151949.5,151949,151710.171,151711.5,151714.42,151952.167,,33,these
screen,html.Screen,2_1_1_1_34,2022-05-11T13:46:28.623Z,,,,,,,,,,,,,,,,,54,,,,,,,,,,,,,,203.9329999940528,,response,,,,100,,,,,,,Space,keypress(Space),,,,,,,,-- --- ---- --- ------ ----- ------- ---- -- --- ------- --<br>------- ---------- ------ -- ----- -- ----- -- ---- ------<br>--- ----- --- --- ------ -------- ----- --- ------ ----- --<br>----- bonds ---------- --- --- ------ ------ ---- -- ------<br>------- --- ------ ----- --- ---- ------- -- ---- --- --<br>------- ------,152156.40000000596,152156.09999999404,151947.92,151949.90000000596,151952.167,152160.732,,34,bonds
screen,html.Screen,2_1_1_1_35,2022-05-11T13:46:29.110Z,,,,,,,,,,,,,,,,,54,,,,,,,,,,,,,,481.8679999940505,,response,,,,100,,,,,,,Space,keypress(Space),,,,,,,,"-- --- ---- --- ------ ----- ------- ---- -- --- ------- --<br>------- ---------- ------ -- ----- -- ----- -- ---- ------<br>--- ----- --- --- ------ -------- ----- --- ------ ----- --<br>----- ----- plummeted, --- --- ------ ------ ---- -- ------<br>------- --- ------ ----- --- ---- ------- -- ---- --- --<br>------- ------",152643,152642.59999999404,152156.475,152156.5,152160.732,152644.456,,35,"plummeted,"
screen,html.Screen,2_1_1_1_36,2022-05-11T13:46:29.314Z,,,,,,,,,,,,,,,,,54,,,,,,,,,,,,,,202.64399999403395,,response,,,,100,,,,,,,Space,keypress(Space),,,,,,,,-- --- ---- --- ------ ----- ------- ---- -- --- ------- --<br>------- ---------- ------ -- ----- -- ----- -- ---- ------<br>--- ----- --- --- ------ -------- ----- --- ------ ----- --<br>----- ----- ---------- and --- ------ ------ ---- -- ------<br>------- --- ------ ----- --- ---- ------- -- ---- --- --<br>------- ------,152847.40000000596,152847.09999999404,152640.284,152643,152644.456,152848.864,,36,and
screen,html.Screen,2_1_1_1_37,2022-05-11T13:46:29.515Z,,,,,,,,,,,,,,,,,54,,,,,,,,,,,,,,199.33600001788,,response,,,,100,,,,,,,Space,keypress(Space),,,,,,,,-- --- ---- --- ------ ----- ------- ---- -- --- ------- --<br>------- ---------- ------ -- ----- -- ----- -- ---- ------<br>--- ----- --- --- ------ -------- ----- --- ------ ----- --<br>----- ----- ---------- --- the ------ ------ ---- -- ------<br>------- --- ------ ----- --- ---- ------- -- ---- --- --<br>------- ------,153048.59999999404,153048.20000001788,152844.739,152847.40000000596,152848.864,153056.721,,37,the
screen,html.Screen,2_1_1_1_38,2022-05-11T13:46:29.716Z,,,,,,,,,,,,,,,,,54,,,,,,,,,,,,,,192.37899999404908,,response,,,,100,,,,,,,Space,keypress(Space),,,,,,,,-- --- ---- --- ------ ----- ------- ---- -- --- ------- --<br>------- ---------- ------ -- ----- -- ----- -- ---- ------<br>--- ----- --- --- ------ -------- ----- --- ------ ----- --<br>----- ----- ---------- --- --- market ------ ---- -- ------<br>------- --- ------ ----- --- ---- ------- -- ---- --- --<br>------- ------,153249.40000000596,153249.09999999404,153044.838,153048.70000001788,153056.721,153253.402,,38,market
screen,html.Screen,2_1_1_1_39,2022-05-11T13:46:29.931Z,,,,,,,,,,,,,,,,,54,,,,,,,,,,,,,,210.59799999999814,,response,,,,100,,,,,,,Space,keypress(Space),,,,,,,,-- --- ---- --- ------ ----- ------- ---- -- --- ------- --<br>------- ---------- ------ -- ----- -- ----- -- ---- ------<br>--- ----- --- --- ------ -------- ----- --- ------ ----- --<br>----- ----- ---------- --- --- ------ became ---- -- ------<br>------- --- ------ ----- --- ---- ------- -- ---- --- --<br>------- ------,153464.30000001192,153464,153249.297,153249.5,153253.402,153466.146,,39,became
screen,html.Screen,2_1_1_1_40,2022-05-11T13:46:30.098Z,,,,,,,,,,,,,,,,,54,,,,,,,,,,,,,,164.45399999403162,,response,,,,100,,,,,,,Space,keypress(Space),,,,,,,,-- --- ---- --- ------ ----- ------- ---- -- --- ------- --<br>------- ---------- ------ -- ----- -- ----- -- ---- ------<br>--- ----- --- --- ------ -------- ----- --- ------ ----- --<br>----- ----- ---------- --- --- ------ ------ wary -- ------<br>------- --- ------ ----- --- ---- ------- -- ---- --- --<br>------- ------,153630.90000000596,153630.59999999404,153462.011,153464.30000001192,153466.146,153632.946,,40,wary
screen,html.Screen,2_1_1_1_41,2022-05-11T13:46:30.429Z,,,,,,,,,,,,,,,,,54,,,,,,,,,,,,,,329.0540000000037,,response,,,,100,,,,,,,Space,keypress(Space),,,,,,,,-- --- ---- --- ------ ----- ------- ---- -- --- ------- --<br>------- ---------- ------ -- ----- -- ----- -- ---- ------<br>--- ----- --- --- ------ -------- ----- --- ------ ----- --<br>----- ----- ---------- --- --- ------ ------ ---- of ------<br>------- --- ------ ----- --- ---- ------- -- ---- --- --<br>------- ------,153962.30000001192,153962,153628.86,153631,153632.946,153966.743,,41,of
screen,html.Screen,2_1_1_1_42,2022-05-11T13:46:30.634Z,,,,,,,,,,,,,,,,,54,,,,,,,,,,,,,,200.35699999405188,,response,,,,100,,,,,,,Space,keypress(Space),,,,,,,,-- --- ---- --- ------ ----- ------- ---- -- --- ------- --<br>------- ---------- ------ -- ----- -- ----- -- ---- ------<br>--- ----- --- --- ------ -------- ----- --- ------ ----- --<br>----- ----- ---------- --- --- ------ ------ ---- -- French<br>------- --- ------ ----- --- ---- ------- -- ---- --- --<br>------- ------,154167.40000000596,154167.09999999404,153962.493,153962.40000000596,153966.743,154171.123,,42,French
screen,html.Screen,2_1_1_1_43,2022-05-11T13:46:30.843Z,,,,,,,,,,,,,,,,,54,,,,,,,,,,,,,,204.87700000000768,,response,,,,100,,,,,,,Space,keypress(Space),,,,,,,,-- --- ---- --- ------ ----- ------- ---- -- --- ------- --<br>------- ---------- ------ -- ----- -- ----- -- ---- ------<br>--- ----- --- --- ------ -------- ----- --- ------ ----- --<br>----- ----- ---------- --- --- ------ ------ ---- -- ------<br>credit. --- ------ ----- --- ---- ------- -- ---- --- --<br>------- ------,154376.30000001192,154376,154166.872,154167.40000000596,154171.123,154379.546,,43,credit.
screen,html.Screen,2_1_1_1_44,2022-05-11T13:46:31.921Z,,,,,,,,,,,,,,,,,54,,,,,,,,,,,,,,1074.6540000178793,,response,,,,100,,,,,,,Space,keypress(Space),,,,,,,,-- --- ---- --- ------ ----- ------- ---- -- --- ------- --<br>------- ---------- ------ -- ----- -- ----- -- ---- ------<br>--- ----- --- --- ------ -------- ----- --- ------ ----- --<br>----- ----- ---------- --- --- ------ ------ ---- -- ------<br>------- The ------ ----- --- ---- ------- -- ---- --- --<br>------- ------,155454.59999999404,155454.20000001788,154375.437,154376.40000000596,154379.546,155473.555,,44,The
screen,html.Screen,2_1_1_1_45,2022-05-11T13:46:32.368Z,,,,,,,,,,,,,,,,,54,,,,,,,,,,,,,,427.445000000007,,response,,,,100,,,,,,,Space,keypress(Space),,,,,,,,-- --- ---- --- ------ ----- ------- ---- -- --- ------- --<br>------- ---------- ------ -- ----- -- ----- -- ---- ------<br>--- ----- --- --- ------ -------- ----- --- ------ ----- --<br>----- ----- ---------- --- --- ------ ------ ---- -- ------<br>------- --- French ----- --- ---- ------- -- ---- --- --<br>------- ------,155901.40000000596,155901,155451.299,155454.59999999404,155473.555,155909.624,,45,French
screen,html.Screen,2_1_1_1_46,2022-05-11T13:46:32.583Z,,,,,,,,,,,,,,,,,54,,,,,,,,,,,,,,206.67600001191022,,response,,,,100,,,,,,,Space,keypress(Space),,,,,,,,-- --- ---- --- ------ ----- ------- ---- -- --- ------- --<br>------- ---------- ------ -- ----- -- ----- -- ---- ------<br>--- ----- --- --- ------ -------- ----- --- ------ ----- --<br>----- ----- ---------- --- --- ------ ------ ---- -- ------<br>------- --- ------ state --- ---- ------- -- ---- --- --<br>------- ------,156116.59999999404,156116.30000001192,155897.756,155901.40000000596,155909.624,156118.816,,46,state
screen,html.Screen,2_1_1_1_47,2022-05-11T13:46:32.855Z,,,,,,,,,,,,,,,,,54,,,,,,,,,,,,,,269.3840000178898,,response,,,,100,,,,,,,Space,keypress(Space),,,,,,,,-- --- ---- --- ------ ----- ------- ---- -- --- ------- --<br>------- ---------- ------ -- ----- -- ----- -- ---- ------<br>--- ----- --- --- ------ -------- ----- --- ------ ----- --<br>----- ----- ---------- --- --- ------ ------ ---- -- ------<br>------- --- ------ ----- was ---- ------- -- ---- --- --<br>------- ------,156388.40000000596,156388.20000001788,156114.689,156116.59999999404,156118.816,156389.903,,47,was
screen,html.Screen,2_1_1_1_48,2022-05-11T13:46:33.118Z,,,,,,,,,,,,,,,,,54,,,,,,,,,,,,,,260.9970000059693,,response,,,,100,,,,,,,Space,keypress(Space),,,,,,,,-- --- ---- --- ------ ----- ------- ---- -- --- ------- --<br>------- ---------- ------ -- ----- -- ----- -- ---- ------<br>--- ----- --- --- ------ -------- ----- --- ------ ----- --<br>----- ----- ---------- --- --- ------ ------ ---- -- ------<br>------- --- ------ ----- --- left ------- -- ---- --- --<br>------- ------,156651.30000001192,156650.90000000596,156385.772,156388.5,156389.903,156652.707,,48,left
screen,html.Screen,2_1_1_1_49,2022-05-11T13:46:33.341Z,,,,,,,,,,,,,,,,,54,,,,,,,,,,,,,,221.09300001192605,,response,,,,100,,,,,,,Space,keypress(Space),,,,,,,,-- --- ---- --- ------ ----- ------- ---- -- --- ------- --<br>------- ---------- ------ -- ----- -- ----- -- ---- ------<br>--- ----- --- --- ------ -------- ----- --- ------ ----- --<br>----- ----- ---------- --- --- ------ ------ ---- -- ------<br>------- --- ------ ----- --- ---- without -- ---- --- --<br>------- ------,156874.20000001788,156873.80000001192,156648.456,156651.40000000596,156652.707,156877.912,,49,without
screen,html.Screen,2_1_1_1_50,2022-05-11T13:46:33.597Z,,,,,,,,,,,,,,,,,54,,,,,,,,,,,,,,252.08799999998882,,response,,,,100,,,,,,,Space,keypress(Space),,,,,,,,-- --- ---- --- ------ ----- ------- ---- -- --- ------- --<br>------- ---------- ------ -- ----- -- ----- -- ---- ------<br>--- ----- --- --- ------ -------- ----- --- ------ ----- --<br>----- ----- ---------- --- --- ------ ------ ---- -- ------<br>------- --- ------ ----- --- ---- ------- an ---- --- --<br>------- ------,157130.40000000596,157130,156873.764,156874.20000001788,156877.912,157132.325,,50,an
screen,html.Screen,2_1_1_1_51,2022-05-11T13:46:33.822Z,,,,,,,,,,,,,,,,,54,,,,,,,,,,,,,,222.67499999998836,,response,,,,100,,,,,,,Space,keypress(Space),,,,,,,,-- --- ---- --- ------ ----- ------- ---- -- --- ------- --<br>------- ---------- ------ -- ----- -- ----- -- ---- ------<br>--- ----- --- --- ------ -------- ----- --- ------ ----- --<br>----- ----- ---------- --- --- ------ ------ ---- -- ------<br>------- --- ------ ----- --- ---- ------- -- easy --- --<br>------- ------,157355.30000001192,157355,157128.188,157130.40000000596,157132.325,157357.529,,51,easy
screen,html.Screen,2_1_1_1_52,2022-05-11T13:46:34.066Z,,,,,,,,,,,,,,,,,54,,,,,,,,,,,,,,241.67100001787185,,response,,,,100,,,,,,,Space,keypress(Space),,,,,,,,-- --- ---- --- ------ ----- ------- ---- -- --- ------- --<br>------- ---------- ------ -- ----- -- ----- -- ---- ------<br>--- ----- --- --- ------ -------- ----- --- ------ ----- --<br>----- ----- ---------- --- --- ------ ------ ---- -- ------<br>------- --- ------ ----- --- ---- ------- -- ---- way --<br>------- ------,157599.5,157599.20000001788,157353.421,157355.30000001192,157357.529,157603.706,,52,way
screen,html.Screen,2_1_1_1_53,2022-05-11T13:46:34.270Z,,,,,,,,,,,,,,,,,54,,,,,,,,,,,,,,199.2939999999944,,response,,,,100,,,,,,,Space,keypress(Space),,,,,,,,-- --- ---- --- ------ ----- ------- ---- -- --- ------- --<br>------- ---------- ------ -- ----- -- ----- -- ---- ------<br>--- ----- --- --- ------ -------- ----- --- ------ ----- --<br>----- ----- ---------- --- --- ------ ------ ---- -- ------<br>------- --- ------ ----- --- ---- ------- -- ---- --- of<br>------- ------,157803.30000001192,157803,157599.484,157599.5,157603.706,157809.462,,53,of
screen,html.Screen,2_1_1_1_54,2022-05-11T13:46:34.620Z,,,,,,,,,,,,,,,,,54,,,,,,,,,,,,,,343.63799999404,,response,,,,100,,,,,,,Space,keypress(Space),,,,,,,,-- --- ---- --- ------ ----- ------- ---- -- --- ------- --<br>------- ---------- ------ -- ----- -- ----- -- ---- ------<br>--- ----- --- --- ------ -------- ----- --- ------ ----- --<br>----- ----- ---------- --- --- ------ ------ ---- -- ------<br>------- --- ------ ----- --- ---- ------- -- ---- --- --<br>raising ------,158153.40000000596,158153.09999999404,157799.708,157803.30000001192,157809.462,158165.858,,54,raising
screen,html.Screen,2_1_1_1_55,2022-05-11T13:46:34.844Z,,,,,,,,,,,,,,,,,54,,,,,,,,,,,,,,211.14199999999255,,response,,,,100,,,,,,,Space,keypress(Space),,,,,,,,-- --- ---- --- ------ ----- ------- ---- -- --- ------- --<br>------- ---------- ------ -- ----- -- ----- -- ---- ------<br>--- ----- --- --- ------ -------- ----- --- ------ ----- --<br>----- ----- ---------- --- --- ------ ------ ---- -- ------<br>------- --- ------ ----- --- ---- ------- -- ---- --- --<br>------- money.,158377.20000001788,158377,158150.038,158153.5,158165.858,158379.418,,55,money.
Item 100,flow.Loop,2_1_1_1,2022-05-11T13:46:34.844Z,,,,,,,,,,,,,,,,,,,,,,,,,,,,,,,17506.834000000003,,completion,,,,,F,,,,,,,,,,,silence,,,,,158377.40000000596,158377,140866.012,140866.40000000596,140870.166,158379.418,,,
Question 1,html.Screen,2_1_1_2,2022-05-11T13:46:36.833Z,,,,,,,,,,,,,,,,,,,,,,,,,,,,true,TRUE,,1985.9820000059553,,response,,,,100,F,,,,,,TRUE,click #choice-1,,,,silence,,,,,160365.90000000596,160365.40000000596,158375.275,158377.40000000596,158379.418,160368.921,,,
Question 2,html.Screen,2_1_1_3,2022-05-11T13:46:38.393Z,,,,,,,,,,,,,,,,,,,,,,,,,,,,true,FALSE,,1556.578999999998,,response,,,,100,F,,,,,,FALSE,click #choice-2,,,,silence,,,,,161925.90000000596,161925.5,160364.727,160366.09999999404,160368.921,161928.839,,,
Item 100,flow.Sequence,2_1_1,2022-05-11T13:46:38.393Z,,,,,,,,,,,,,,,,,,,,,,,,,,,,,,,31057.047000000006,,completion,,,,,,,,,,,,,,,,,,,,,161926,161925.5,130864.314,130867.09999999404,130868.453,161928.839,,,
End of Practice,html.Page,2_1_2,2022-05-11T13:46:40.897Z,,,,,,,,,,,,,,,,,,,,,,,,,,,,,,,2500.9610000119137,,form submission,,,,,,,,,,,,,,,,,,,,,164430.20000001788,164429.80000001192,161924.692,161926.09999999404,161928.839,164431.331,,,
Practice,flow.Sequence,2_1,2022-05-11T13:46:40.897Z,,,,,,,,,,,,,,,,,,,,,,,,,,,,,,,72542.19300001192,,completion,,,,,,,,,,,,,,,,,,,,,164430.20000001788,164429.80000001192,91883.417,91887.30000001192,91887.607,164431.331,,,
Trap_instruction,html.Page,2_2_0,2022-05-11T13:46:44.725Z,,,,,,,,,,,,,,,,,,,,,,,,,,,,,,,3826.569000005955,,form submission,,,,,,,,,,,,,,,,,,,,,168258.20000001788,168257.90000000596,164427.131,164430.20000001788,164431.331,168264.441,,,
trap_trial,html.Screen,2_2_1,2022-05-11T13:46:46.875Z,,,,,,,,,,,,,,,,,,,,,,,,,,,,true,1,,2143.158999994048,,response,,,,,,,,,,,1,click #choice-1,,,,,,,,,170407.90000000596,170407.59999999404,168256.051,168258.20000001788,168264.441,170416.045,,,
end of trap trial,html.Page,2_2_2,2022-05-11T13:46:48.401Z,,,,,,,,,,,,,,,,,,,,,,,,,,,,,,,1517.9549999999872,,form submission,,,,,,,,,,,,,,,,,,,,,171934.09999999404,171934,170404.05,170408,170416.045,171955.595,,,
Trap 1,flow.Sequence,2_2,2022-05-11T13:46:48.401Z,,,,,,,,,,,,,,,,,,,,,,,,,,,,,,,7502.668999999994,,completion,,,,,,,,,,,,,,,,,,,,,171934.09999999404,171934,164427.131,164430.20000001788,164431.331,171955.595,,,
Standby,html.Page,2_3_0,2022-05-11T13:46:56.418Z,,,,,,,,,,,,,,,,,,,,,,,,,,,,,,,7999.67300000001,,timeout,,,,,,,,,,,,,,,,,,,,,179951.40000000596,179951.155,171951.757,171934.30000001192,171955.595,179955.268,,,
Holding screen,html.Screen,2_3_1_0_0,2022-05-11T13:47:03.417Z,,,,,,,,,,,,,,,,,,,,,,,,,,,,,,,6998.760999999999,,timeout,,,,,,,,,,,,,,,,,,,,,186950,186949.754,179951.155,179951.59999999404,179955.268,186954.029,,,
screen,html.Screen,2_3_1_0_1_0,2022-05-11T13:47:06.123Z,,,,,,,,,,,,,,,,,51,,,,,,,,,,,,,,2701.371000005951,,response,,,,13,F,,,,,,Space,keypress(Space),,,,instrumental,,,,American -------- --- --- ---- --- --- ------ -- --------<br>---- --------- --- ------- ------------ ---------- ---------<br>--- ---------- ------- ---------- ------- -- -------- ----<br>---- --- ------ ----- ------ -- ---- --- ----- -- - -------<br>-------- -- --- --- -- ----- ----------- ----- -----------<br>---- --- ---------- --- ---- --- -- ----------,189655.80000001192,189655.40000000596,186949.754,186950.20000001788,186954.029,189674.547,,0,American
screen,html.Screen,2_3_1_0_1_1,2022-05-11T13:47:06.676Z,,,,,,,,,,,,,,,,,51,,,,,,,,,,,,,,534.7530000119295,,response,,,,13,F,,,,,,Space,keypress(Space),,,,instrumental,,,,-------- industry --- --- ---- --- --- ------ -- --------<br>---- --------- --- ------- ------------ ---------- ---------<br>--- ---------- ------- ---------- ------- -- -------- ----<br>---- --- ------ ----- ------ -- ---- --- ----- -- - -------<br>-------- -- --- --- -- ----- ----------- ----- -----------<br>---- --- ---------- --- ---- --- -- ----------,190209.59999999404,190209.30000001192,189652.014,189655.80000001192,189674.547,190211.396,,1,industry
screen,html.Screen,2_3_1_0_1_2,2022-05-11T13:47:07.093Z,,,,,,,,,,,,,,,,,51,,,,,,,,,,,,,,414.6039999999921,,response,,,,13,F,,,,,,Space,keypress(Space),,,,instrumental,,,,-------- -------- may --- ---- --- --- ------ -- --------<br>---- --------- --- ------- ------------ ---------- ---------<br>--- ---------- ------- ---------- ------- -- -------- ----<br>---- --- ------ ----- ------ -- ---- --- ----- -- - -------<br>-------- -- --- --- -- ----- ----------- ----- -----------<br>---- --- ---------- --- ---- --- -- ----------,190626.40000000596,190626,190207.198,190209.70000001788,190211.396,190628.554,,2,may
screen,html.Screen,2_3_1_0_1_3,2022-05-11T13:47:07.449Z,,,,,,,,,,,,,,,,,51,,,,,,,,,,,,,,353.64600001787767,,response,,,,13,F,,,,,,Space,keypress(Space),,,,instrumental,,,,-------- -------- --- not ---- --- --- ------ -- --------<br>---- --------- --- ------- ------------ ---------- ---------<br>--- ---------- ------- ---------- ------- -- -------- ----<br>---- --- ------ ----- ------ -- ---- --- ----- -- - -------<br>-------- -- --- --- -- ----- ----------- ----- -----------<br>---- --- ---------- --- ---- --- -- ----------,190982.5,190982.20000001788,190624.306,190626.40000000596,190628.554,190993.272,,3,not
screen,html.Screen,2_3_1_0_1_4,2022-05-11T13:47:07.741Z,,,,,,,,,,,,,,,,,51,,,,,,,,,,,,,,280.82799999404233,,response,,,,13,F,,,,,,Space,keypress(Space),,,,instrumental,,,,-------- -------- --- --- know --- --- ------ -- --------<br>---- --------- --- ------- ------------ ---------- ---------<br>--- ---------- ------- ---------- ------- -- -------- ----<br>---- --- ------ ----- ------ -- ---- --- ----- -- - -------<br>-------- -- --- --- -- ----- ----------- ----- -----------<br>---- --- ---------- --- ---- --- -- ----------,191274.40000000596,191274.09999999404,190978.844,190982.5,190993.272,191287.925,,4,know
screen,html.Screen,2_3_1_0_1_5,2022-05-11T13:47:08.099Z,,,,,,,,,,,,,,,,,51,,,,,,,,,,,,,,344.27500001789303,,response,,,,13,F,,,,,,Space,keypress(Space),,,,instrumental,,,,"-------- -------- --- --- ---- it, --- ------ -- --------<br>---- --------- --- ------- ------------ ---------- ---------<br>--- ---------- ------- ---------- ------- -- -------- ----<br>---- --- ------ ----- ------ -- ---- --- ----- -- - -------<br>-------- -- --- --- -- ----- ----------- ----- -----------<br>---- --- ---------- --- ---- --- -- ----------",191632.5,191632.20000001788,191270.826,191274.40000000596,191287.925,191637.806,,5,"it,"
screen,html.Screen,2_3_1_0_1_6,2022-05-11T13:47:08.358Z,,,,,,,,,,,,,,,,,51,,,,,,,,,,,,,,252.99400001190952,,response,,,,13,F,,,,,,Space,keypress(Space),,,,instrumental,,,,-------- -------- --- --- ---- --- but ------ -- --------<br>---- --------- --- ------- ------------ ---------- ---------<br>--- ---------- ------- ---------- ------- -- -------- ----<br>---- --- ------ ----- ------ -- ---- --- ----- -- - -------<br>-------- -- --- --- -- ----- ----------- ----- -----------<br>---- --- ---------- --- ---- --- -- ----------,191891.20000001788,191890.80000001192,191629.508,191632.5,191637.806,191906.986,,6,but
screen,html.Screen,2_3_1_0_1_7,2022-05-11T13:47:08.590Z,,,,,,,,,,,,,,,,,51,,,,,,,,,,,,,,216.1139999940351,,response,,,,13,F,,,,,,Space,keypress(Space),,,,instrumental,,,,-------- -------- --- --- ---- --- --- debate -- --------<br>---- --------- --- ------- ------------ ---------- ---------<br>--- ---------- ------- ---------- ------- -- -------- ----<br>---- --- ------ ----- ------ -- ---- --- ----- -- - -------<br>-------- -- --- --- -- ----- ----------- ----- -----------<br>---- --- ---------- --- ---- --- -- ----------,192123.5,192123.09999999404,191888.106,191891.30000001192,191906.986,192125.805,,7,debate
screen,html.Screen,2_3_1_0_1_8,2022-05-11T13:47:08.880Z,,,,,,,,,,,,,,,,,51,,,,,,,,,,,,,,286.59500000596745,,response,,,,13,F,,,,,,Space,keypress(Space),,,,instrumental,,,,-------- -------- --- --- ---- --- --- ------ in --------<br>---- --------- --- ------- ------------ ---------- ---------<br>--- ---------- ------- ---------- ------- -- -------- ----<br>---- --- ------ ----- ------ -- ---- --- ----- -- - -------<br>-------- -- --- --- -- ----- ----------- ----- -----------<br>---- --- ---------- --- ---- --- -- ----------,192412.80000001192,192412.40000000596,192121.693,192123.59999999404,192125.805,192431.456,,8,in
screen,html.Screen,2_3_1_0_1_9,2022-05-11T13:47:09.101Z,,,,,,,,,,,,,,,,,51,,,,,,,,,,,,,,202.34400001191534,,response,,,,13,F,,,,,,Space,keypress(Space),,,,instrumental,,,,-------- -------- --- --- ---- --- --- ------ -- Congress<br>---- --------- --- ------- ------------ ---------- ---------<br>--- ---------- ------- ---------- ------- -- -------- ----<br>---- --- ------ ----- ------ -- ---- --- ----- -- - -------<br>-------- -- --- --- -- ----- ----------- ----- -----------<br>---- --- ---------- --- ---- --- -- ----------,192634.09999999404,192633.80000001192,192409.377,192412.80000001192,192431.456,192638.928,,9,Congress
screen,html.Screen,2_3_1_0_1_10,2022-05-11T13:47:09.447Z,,,,,,,,,,,,,,,,,51,,,,,,,,,,,,,,341.1719999940251,,response,,,,13,F,,,,,,Space,keypress(Space),,,,instrumental,,,,-------- -------- --- --- ---- --- --- ------ -- --------<br>over --------- --- ------- ------------ ---------- ---------<br>--- ---------- ------- ---------- ------- -- -------- ----<br>---- --- ------ ----- ------ -- ---- --- ----- -- - -------<br>-------- -- --- --- -- ----- ----------- ----- -----------<br>---- --- ---------- --- ---- --- -- ----------,192980.40000000596,192980.09999999404,192630.539,192634.20000001788,192638.928,192985.021,,10,over
screen,html.Screen,2_3_1_0_1_11,2022-05-11T13:47:09.707Z,,,,,,,,,,,,,,,,,51,,,,,,,,,,,,,,254.57899999403162,,response,,,,13,F,,,,,,Space,keypress(Space),,,,instrumental,,,,-------- -------- --- --- ---- --- --- ------ -- --------<br>---- reforming --- ------- ------------ ---------- ---------<br>--- ---------- ------- ---------- ------- -- -------- ----<br>---- --- ------ ----- ------ -- ---- --- ----- -- - -------<br>-------- -- --- --- -- ----- ----------- ----- -----------<br>---- --- ---------- --- ---- --- -- ----------,193240,193239.59999999404,192976.628,192980.5,192985.021,193243.689,,11,reforming
screen,html.Screen,2_3_1_0_1_12,2022-05-11T13:47:10.062Z,,,,,,,,,,,,,,,,,51,,,,,,,,,,,,,,351.4109999940265,,response,,,,13,F,,,,,,Space,keypress(Space),,,,instrumental,,,,-------- -------- --- --- ---- --- --- ------ -- --------<br>---- --------- the ------- ------------ ---------- ---------<br>--- ---------- ------- ---------- ------- -- -------- ----<br>---- --- ------ ----- ------ -- ---- --- ----- -- - -------<br>-------- -- --- --- -- ----- ----------- ----- -----------<br>---- --- ---------- --- ---- --- -- ----------,193595.5,193595.09999999404,193239.479,193240,193243.689,193598.198,,12,the
screen,html.Screen,2_3_1_0_1_13,2022-05-11T13:47:11.455Z,,,,,,,,,,,,,,,,,51,,,,,,,,,,,,,,1390.102000011917,,response,,,,13,F,,,,,,Space,keypress(Space),,,,instrumental,,,,-------- -------- --- --- ---- --- --- ------ -- --------<br>---- --------- --- federal ------------ ---------- ---------<br>--- ---------- ------- ---------- ------- -- -------- ----<br>---- --- ------ ----- ------ -- ---- --- ----- -- - -------<br>-------- -- --- --- -- ----- ----------- ----- -----------<br>---- --- ---------- --- ---- --- -- ----------,194988.59999999404,194988.30000001192,193593.972,193595.59999999404,193598.198,194991.242,,13,federal
screen,html.Screen,2_3_1_0_1_14,2022-05-11T13:47:11.989Z,,,,,,,,,,,,,,,,,51,,,,,,,,,,,,,,530.6580000059621,,response,,,,13,F,,,,,,Space,keypress(Space),,,,instrumental,,,,-------- -------- --- --- ---- --- --- ------ -- --------<br>---- --------- --- ------- government's ---------- ---------<br>--- ---------- ------- ---------- ------- -- -------- ----<br>---- --- ------ ----- ------ -- ---- --- ----- -- - -------<br>-------- -- --- --- -- ----- ----------- ----- -----------<br>---- --- ---------- --- ---- --- -- ----------,195522.20000001788,195521.90000000596,194986.823,194988.70000001788,194991.242,195525.098,,14,government's
screen,html.Screen,2_3_1_0_1_15,2022-05-11T13:47:12.426Z,,,,,,,,,,,,,,,,,51,,,,,,,,,,,,,,433.90200000000186,,response,,,,13,F,,,,,,Space,keypress(Space),,,,instrumental,,,,-------- -------- --- --- ---- --- --- ------ -- --------<br>---- --------- --- ------- ------------ regulatory ---------<br>--- ---------- ------- ---------- ------- -- -------- ----<br>---- --- ------ ----- ------ -- ---- --- ----- -- - -------<br>-------- -- --- --- -- ----- ----------- ----- -----------<br>---- --- ---------- --- ---- --- -- ----------,195959.40000000596,195959,195520.963,195522.20000001788,195525.098,195963.067,,15,regulatory
screen,html.Screen,2_3_1_0_1_16,2022-05-11T13:47:13.113Z,,,,,,,,,,,,,,,,,51,,,,,,,,,,,,,,683.3330000059505,,response,,,,13,F,,,,,,Space,keypress(Space),,,,instrumental,,,,-------- -------- --- --- ---- --- --- ------ -- --------<br>---- --------- --- ------- ------------ ---------- apparatus<br>--- ---------- ------- ---------- ------- -- -------- ----<br>---- --- ------ ----- ------ -- ---- --- ----- -- - -------<br>-------- -- --- --- -- ----- ----------- ----- -----------<br>---- --- ---------- --- ---- --- -- ----------,196646.59999999404,196646.40000000596,195958.83,195959.5,195963.067,196655.455,,16,apparatus
screen,html.Screen,2_3_1_0_1_17,2022-05-11T13:47:13.526Z,,,,,,,,,,,,,,,,,51,,,,,,,,,,,,,,403.0450000000128,,response,,,,13,F,,,,,,Space,keypress(Space),,,,instrumental,,,,-------- -------- --- --- ---- --- --- ------ -- --------<br>---- --------- --- ------- ------------ ---------- ---------<br>may ---------- ------- ---------- ------- -- -------- ----<br>---- --- ------ ----- ------ -- ---- --- ----- -- - -------<br>-------- -- --- --- -- ----- ----------- ----- -----------<br>---- --- ---------- --- ---- --- -- ----------,197058.90000000596,197058.5,196651.287,196646.70000001788,196655.455,197072.907,,17,may
screen,html.Screen,2_3_1_0_1_18,2022-05-11T13:47:14.017Z,,,,,,,,,,,,,,,,,51,,,,,,,,,,,,,,477.2930000178749,,response,,,,13,F,,,,,,Space,keypress(Space),,,,instrumental,,,,-------- -------- --- --- ---- --- --- ------ -- --------<br>---- --------- --- ------- ------------ ---------- ---------<br>--- profoundly ------- ---------- ------- -- -------- ----<br>---- --- ------ ----- ------ -- ---- --- ----- -- - -------<br>-------- -- --- --- -- ----- ----------- ----- -----------<br>---- --- ---------- --- ---- --- -- ----------,197550.59999999404,197550.20000001788,197055.773,197058.90000000596,197072.907,197552.138,,18,profoundly
screen,html.Screen,2_3_1_0_1_19,2022-05-11T13:47:14.394Z,,,,,,,,,,,,,,,,,51,,,,,,,,,,,,,,374.96199999403325,,response,,,,13,F,,,,,,Space,keypress(Space),,,,instrumental,,,,-------- -------- --- --- ---- --- --- ------ -- --------<br>---- --------- --- ------- ------------ ---------- ---------<br>--- ---------- improve ---------- ------- -- -------- ----<br>---- --- ------ ----- ------ -- ---- --- ----- -- - -------<br>-------- -- --- --- -- ----- ----------- ----- -----------<br>---- --- ---------- --- ---- --- -- ----------,197927.5,197927.09999999404,197547.855,197550.70000001788,197552.138,197931.747,,19,improve
screen,html.Screen,2_3_1_0_1_20,2022-05-11T13:47:14.638Z,,,,,,,,,,,,,,,,,51,,,,,,,,,,,,,,239.3529999940365,,response,,,,13,F,,,,,,Space,keypress(Space),,,,instrumental,,,,-------- -------- --- --- ---- --- --- ------ -- --------<br>---- --------- --- ------- ------------ ---------- ---------<br>--- ---------- ------- companies' ------- -- -------- ----<br>---- --- ------ ----- ------ -- ---- --- ----- -- - -------<br>-------- -- --- --- -- ----- ----------- ----- -----------<br>---- --- ---------- --- ---- --- -- ----------,198171.40000000596,198171.09999999404,197927.495,197927.5,197931.747,198173.556,,20,companies'
screen,html.Screen,2_3_1_0_1_21,2022-05-11T13:47:15.546Z,,,,,,,,,,,,,,,,,51,,,,,,,,,,,,,,905.4439999999886,,response,,,,13,F,,,,,,Space,keypress(Space),,,,instrumental,,,,-------- -------- --- --- ---- --- --- ------ -- --------<br>---- --------- --- ------- ------------ ---------- ---------<br>--- ---------- ------- ---------- ability -- -------- ----<br>---- --- ------ ----- ------ -- ---- --- ----- -- - -------<br>-------- -- --- --- -- ----- ----------- ----- -----------<br>---- --- ---------- --- ---- --- -- ----------,199079.30000001192,199079,198169.433,198171.40000000596,198173.556,199082.907,,21,ability
screen,html.Screen,2_3_1_0_1_22,2022-05-11T13:47:15.826Z,,,,,,,,,,,,,,,,,51,,,,,,,,,,,,,,276.2930000178749,,response,,,,13,F,,,,,,Space,keypress(Space),,,,instrumental,,,,-------- -------- --- --- ---- --- --- ------ -- --------<br>---- --------- --- ------- ------------ ---------- ---------<br>--- ---------- ------- ---------- ------- to -------- ----<br>---- --- ------ ----- ------ -- ---- --- ----- -- - -------<br>-------- -- --- --- -- ----- ----------- ----- -----------<br>---- --- ---------- --- ---- --- -- ----------,199359.40000000596,199359.20000001788,199078.54,199079.40000000596,199082.907,199362.229,,22,to
screen,html.Screen,2_3_1_0_1_23,2022-05-11T13:47:16.031Z,,,,,,,,,,,,,,,,,51,,,,,,,,,,,,,,201.87099999404745,,response,,,,13,F,,,,,,Space,keypress(Space),,,,instrumental,,,,-------- -------- --- --- ---- --- --- ------ -- --------<br>---- --------- --- ------- ------------ ---------- ---------<br>--- ---------- ------- ---------- ------- -- survive. ----<br>---- --- ------ ----- ------ -- ---- --- ----- -- - -------<br>-------- -- --- --- -- ----- ----------- ----- -----------<br>---- --- ---------- --- ---- --- -- ----------,199564.40000000596,199564.09999999404,199358.119,199359.5,199362.229,199566.581,,23,survive.
screen,html.Screen,2_3_1_0_1_24,2022-05-11T13:47:16.590Z,,,,,,,,,,,,,,,,,51,,,,,,,,,,,,,,555.8190000059549,,response,,,,13,F,,,,,,Space,keypress(Space),,,,instrumental,,,,-------- -------- --- --- ---- --- --- ------ -- --------<br>---- --------- --- ------- ------------ ---------- ---------<br>--- ---------- ------- ---------- ------- -- -------- This<br>---- --- ------ ----- ------ -- ---- --- ----- -- - -------<br>-------- -- --- --- -- ----- ----------- ----- -----------<br>---- --- ---------- --- ---- --- -- ----------,200122.80000001192,200122.40000000596,199562.488,199564.5,199566.581,200125.528,,24,This
screen,html.Screen,2_3_1_0_1_25,2022-05-11T13:47:17.076Z,,,,,,,,,,,,,,,,,51,,,,,,,,,,,,,,483.47200000000885,,response,,,,13,F,,,,,,Space,keypress(Space),,,,instrumental,,,,-------- -------- --- --- ---- --- --- ------ -- --------<br>---- --------- --- ------- ------------ ---------- ---------<br>--- ---------- ------- ---------- ------- -- -------- ----<br>week --- ------ ----- ------ -- ---- --- ----- -- - -------<br>-------- -- --- --- -- ----- ----------- ----- -----------<br>---- --- ---------- --- ---- --- -- ----------,200609.5,200609,200121.311,200122.80000001192,200125.528,200613.53,,25,week
screen,html.Screen,2_3_1_0_1_26,2022-05-11T13:47:17.297Z,,,,,,,,,,,,,,,,,51,,,,,,,,,,,,,,216.37000000596163,,response,,,,13,F,,,,,,Space,keypress(Space),,,,instrumental,,,,-------- -------- --- --- ---- --- --- ------ -- --------<br>---- --------- --- ------- ------------ ---------- ---------<br>--- ---------- ------- ---------- ------- -- -------- ----<br>---- the ------ ----- ------ -- ---- --- ----- -- - -------<br>-------- -- --- --- -- ----- ----------- ----- -----------<br>---- --- ---------- --- ---- --- -- ----------,200830.30000001192,200829.90000000596,200609.325,200609.5,200613.53,200834.541,,26,the
screen,html.Screen,2_3_1_0_1_27,2022-05-11T13:47:17.503Z,,,,,,,,,,,,,,,,,51,,,,,,,,,,,,,,201.2590000119235,,response,,,,13,F,,,,,,Space,keypress(Space),,,,instrumental,,,,-------- -------- --- --- ---- --- --- ------ -- --------<br>---- --------- --- ------- ------------ ---------- ---------<br>--- ---------- ------- ---------- ------- -- -------- ----<br>---- --- Senate ----- ------ -- ---- --- ----- -- - -------<br>-------- -- --- --- -- ----- ----------- ----- -----------<br>---- --- ---------- --- ---- --- -- ----------,201036.09999999404,201035.80000001192,200830.438,200830.40000000596,200834.541,201039.037,,27,Senate
screen,html.Screen,2_3_1_0_1_28,2022-05-11T13:47:17.785Z,,,,,,,,,,,,,,,,,51,,,,,,,,,,,,,,279.26300001190975,,response,,,,13,F,,,,,,Space,keypress(Space),,,,instrumental,,,,-------- -------- --- --- ---- --- --- ------ -- --------<br>---- --------- --- ------- ------------ ---------- ---------<br>--- ---------- ------- ---------- ------- -- -------- ----<br>---- --- ------ seems ------ -- ---- --- ----- -- - -------<br>-------- -- --- --- -- ----- ----------- ----- -----------<br>---- --- ---------- --- ---- --- -- ----------,201318.5,201318.30000001192,201034.817,201036.09999999404,201039.037,201322.559,,28,seems
screen,html.Screen,2_3_1_0_1_29,2022-05-11T13:47:17.999Z,,,,,,,,,,,,,,,,,51,,,,,,,,,,,,,,209.141000017873,,response,,,,13,F,,,,,,Space,keypress(Space),,,,instrumental,,,,-------- -------- --- --- ---- --- --- ------ -- --------<br>---- --------- --- ------- ------------ ---------- ---------<br>--- ---------- ------- ---------- ------- -- -------- ----<br>---- --- ------ ----- poised -- ---- --- ----- -- - -------<br>-------- -- --- --- -- ----- ----------- ----- -----------<br>---- --- ---------- --- ---- --- -- ----------,201531.90000000596,201531.70000001788,201318.418,201318.59999999404,201322.559,201535.363,,29,poised
screen,html.Screen,2_3_1_0_1_30,2022-05-11T13:47:18.204Z,,,,,,,,,,,,,,,,,51,,,,,,,,,,,,,,201.43700001190882,,response,,,,13,F,,,,,,Space,keypress(Space),,,,instrumental,,,,-------- -------- --- --- ---- --- --- ------ -- --------<br>---- --------- --- ------- ------------ ---------- ---------<br>--- ---------- ------- ---------- ------- -- -------- ----<br>---- --- ------ ----- ------ to ---- --- ----- -- - -------<br>-------- -- --- --- -- ----- ----------- ----- -----------<br>---- --- ---------- --- ---- --- -- ----------,201737.09999999404,201736.80000001192,201531.146,201532.09999999404,201535.363,201739.615,,30,to
screen,html.Screen,2_3_1_0_1_31,2022-05-11T13:47:18.545Z,,,,,,,,,,,,,,,,,51,,,,,,,,,,,,,,338.48499999404885,,response,,,,13,F,,,,,,Space,keypress(Space),,,,instrumental,,,,-------- -------- --- --- ---- --- --- ------ -- --------<br>---- --------- --- ------- ------------ ---------- ---------<br>--- ---------- ------- ---------- ------- -- -------- ----<br>---- --- ------ ----- ------ -- join --- ----- -- - -------<br>-------- -- --- --- -- ----- ----------- ----- -----------<br>---- --- ---------- --- ---- --- -- ----------,202078.5,202078.09999999404,201735.467,201737.09999999404,201739.615,202081.792,,31,join
screen,html.Screen,2_3_1_0_1_32,2022-05-11T13:47:18.807Z,,,,,,,,,,,,,,,,,51,,,,,,,,,,,,,,258.20800000001327,,response,,,,13,F,,,,,,Space,keypress(Space),,,,instrumental,,,,-------- -------- --- --- ---- --- --- ------ -- --------<br>---- --------- --- ------- ------------ ---------- ---------<br>--- ---------- ------- ---------- ------- -- -------- ----<br>---- --- ------ ----- ------ -- ---- the ----- -- - -------<br>-------- -- --- --- -- ----- ----------- ----- -----------<br>---- --- ---------- --- ---- --- -- ----------,202340.40000000596,202340,202077.486,202078.5,202081.792,202344.422,,32,the
screen,html.Screen,2_3_1_0_1_33,2022-05-11T13:47:19.081Z,,,,,,,,,,,,,,,,,51,,,,,,,,,,,,,,269.87800001192954,,response,,,,13,F,,,,,,Space,keypress(Space),,,,instrumental,,,,-------- -------- --- --- ---- --- --- ------ -- --------<br>---- --------- --- ------- ------------ ---------- ---------<br>--- ---------- ------- ---------- ------- -- -------- ----<br>---- --- ------ ----- ------ -- ---- --- House -- - -------<br>-------- -- --- --- -- ----- ----------- ----- -----------<br>---- --- ---------- --- ---- --- -- ----------,202614.59999999404,202614.30000001192,202340.319,202340.5,202344.422,202635.399,,33,House
screen,html.Screen,2_3_1_0_1_34,2022-05-11T13:47:19.360Z,,,,,,,,,,,,,,,,,51,,,,,,,,,,,,,,257.5010000059556,,response,,,,13,F,,,,,,Space,keypress(Space),,,,instrumental,,,,-------- -------- --- --- ---- --- --- ------ -- --------<br>---- --------- --- ------- ------------ ---------- ---------<br>--- ---------- ------- ---------- ------- -- -------- ----<br>---- --- ------ ----- ------ -- ---- --- ----- in - -------<br>-------- -- --- --- -- ----- ----------- ----- -----------<br>---- --- ---------- --- ---- --- -- ----------,202893.40000000596,202892.90000000596,202611.377,202614.59999999404,202635.399,202894.975,,34,in
screen,html.Screen,2_3_1_0_1_35,2022-05-11T13:47:19.621Z,,,,,,,,,,,,,,,,,51,,,,,,,,,,,,,,259.1249999940337,,response,,,,13,F,,,,,,Space,keypress(Space),,,,instrumental,,,,-------- -------- --- --- ---- --- --- ------ -- --------<br>---- --------- --- ------- ------------ ---------- ---------<br>--- ---------- ------- ---------- ------- -- -------- ----<br>---- --- ------ ----- ------ -- ---- --- ----- -- a -------<br>-------- -- --- --- -- ----- ----------- ----- -----------<br>---- --- ---------- --- ---- --- -- ----------,203154.40000000596,203154.09999999404,202890.835,202893.40000000596,202894.975,203157.779,,35,a
screen,html.Screen,2_3_1_0_1_36,2022-05-11T13:47:19.945Z,,,,,,,,,,,,,,,,,51,,,,,,,,,,,,,,320.42100001787185,,response,,,,13,F,,,,,,Space,keypress(Space),,,,instrumental,,,,-------- -------- --- --- ---- --- --- ------ -- --------<br>---- --------- --- ------- ------------ ---------- ---------<br>--- ---------- ------- ---------- ------- -- -------- ----<br>---- --- ------ ----- ------ -- ---- --- ----- -- - massive<br>-------- -- --- --- -- ----- ----------- ----- -----------<br>---- --- ---------- --- ---- --- -- ----------,203478.40000000596,203478.20000001788,203153.504,203154.40000000596,203157.779,203483.184,,36,massive
screen,html.Screen,2_3_1_0_1_37,2022-05-11T13:47:21.240Z,,,,,,,,,,,,,,,,,51,,,,,,,,,,,,,,1290.016000017873,,response,,,,13,F,,,,,,Space,keypress(Space),,,,instrumental,,,,-------- -------- --- --- ---- --- --- ------ -- --------<br>---- --------- --- ------- ------------ ---------- ---------<br>--- ---------- ------- ---------- ------- -- -------- ----<br>---- --- ------ ----- ------ -- ---- --- ----- -- - -------<br>overhaul -- --- --- -- ----- ----------- ----- -----------<br>---- --- ---------- --- ---- --- -- ----------,204773.5,204773.20000001788,203474.736,203478.5,203483.184,204776.116,,37,overhaul
screen,html.Screen,2_3_1_0_1_38,2022-05-11T13:47:21.462Z,,,,,,,,,,,,,,,,,51,,,,,,,,,,,,,,219.18400001191185,,response,,,,13,F,,,,,,Space,keypress(Space),,,,instrumental,,,,-------- -------- --- --- ---- --- --- ------ -- --------<br>---- --------- --- ------- ------------ ---------- ---------<br>--- ---------- ------- ---------- ------- -- -------- ----<br>---- --- ------ ----- ------ -- ---- --- ----- -- - -------<br>-------- of --- --- -- ----- ----------- ----- -----------<br>---- --- ---------- --- ---- --- -- ----------,204995.59999999404,204995.30000001192,204771.686,204773.59999999404,204776.116,204997.066,,38,of
screen,html.Screen,2_3_1_0_1_39,2022-05-11T13:47:21.666Z,,,,,,,,,,,,,,,,,51,,,,,,,,,,,,,,202.03399999404792,,response,,,,13,F,,,,,,Space,keypress(Space),,,,instrumental,,,,-------- -------- --- --- ---- --- --- ------ -- --------<br>---- --------- --- ------- ------------ ---------- ---------<br>--- ---------- ------- ---------- ------- -- -------- ----<br>---- --- ------ ----- ------ -- ---- --- ----- -- - -------<br>-------- -- the --- -- ----- ----------- ----- -----------<br>---- --- ---------- --- ---- --- -- ----------,205199.40000000596,205199.09999999404,204992.852,204995.70000001788,204997.066,205201.476,,39,the
