sender,sender_type,sender_id,timestamp,meta,,Blues,Classical,Country,Dance,Electronic,Folk,Gospel,Hip-Hop,Jazz,Latin,Musical/Film,New-age,Pop,Prolific_id,Provo_ID,R&B,Rap,Reggae,Religious,Rock,Soul,Swing,Traditional,age,artist_name,correct,correctResponse,distraction,duration,education,ended_on,familiarity,gender,headphone_check_performance,item,list,music_frequency,offensiveness,pleasantness,position_correct,preference,response,response_action,snippet_file,song_name,song_rating,sound,stimulus_1,stimulus_2,stimulus_3,text,time_commit,time_end,time_render,time_run,time_show,time_switch,url,word,word_ID
Prolific ID,html.Form,0,2022-02-02T14:31:56.772Z,"{""labjs_version"":""20.2.2"",""labjs_build"":{""flavor"":""production"",""commit"":""a25486e0c714a0ae2ce03ff94b7bb6896854dcfa""},""location"":""https://run.pavlovia.org/mvasilev/prolific2_music_c/"",""userAgent"":""Mozilla/5.0 (Macintosh; Intel Mac OS X 10_15_7) AppleWebKit/537.36 (KHTML, like Gecko) Chrome/96.0.4664.110 Safari/537.36"",""platform"":""MacIntel"",""language"":""en-GB"",""locale"":""en-GB"",""timeZone"":""Europe/London"",""timezoneOffset"":0,""screen_width"":1440,""screen_height"":900,""scroll_width"":1440,""scroll_height"":638,""window_innerWidth"":1440,""window_innerHeight"":686,""devicePixelRatio"":2}",,,,,,,,,,,,,,,60d35fa71e56e17e064c2c1e,,,,,,,,,,,,,,,9271.929999856948,,form submission,,,,,,,,,,,,,,,,,,,,,15941.199999809265,15940.399999856949,6651.803,6660.099999904633,6668.47,15952.148,{},,
Introduction,html.Screen,1_0,2022-02-02T14:32:00.670Z,,,,,,,,,,,,,,,,,,,,,,,,,,,,,,,3884.3520000000008,,response,,,,,,,,,,,continue,click button,,,,,,,,,19841.599999904633,19836.5,15935.481,15941.699999809265,15952.148,19852.226,,,
Volume calibration,html.Screen,1_1,2022-02-02T14:32:09.517Z,,,,,,,,,,,,,,,,,,,,,,,,,,,,,,,8834.573999952318,,response,,,,,,,,,,,continue,click button,,,,,,,,,28692.799999952316,28686.799999952316,19835.559,19842,19852.226,28702.478,,,
Task instructions,html.Screen,1_2,2022-02-02T14:32:20.744Z,,,,,,,,,,,,,,,,,,,,,,,,,,,,,,,11217.821999952317,,response,,,,,,,,,,,continue,click button,,,,,,,,,39922.5,39920.299999952316,28685.811,28692.89999985695,28702.478,39936.036,,,
Sounds,html.Screen,1_3_0_0,2022-02-02T14:32:24.996Z,,,,,,,,,,,,,,,,,,,,,,,,,,,,,,,4250.0899999999965,,timeout,,,,,,,,,2,,,,,,,,I,S,O,,44175.5,44169.459,39919.369,39922.799999952316,39936.036,44186.126,,,
Judgement,html.Screen,1_3_0_1,2022-02-02T14:32:25.627Z,,,,,,,,,,,,,,,,,,,,,,,,,,,,true,2,,617.6739999523197,,response,,,,,,,,,2,,2,click #choice-2,,,,,I,S,O,,44806.199999809265,44803.799999952316,44169.459,44175.699999809265,44186.126,44819.472,,,
Trial,flow.Sequence,1_3_0,2022-02-02T14:32:25.627Z,,,,,,,,,,,,,,,,,,,,,,,,,,,,,,,4867.763999952316,,completion,,,,,,,,,2,,,,,,,,I,S,O,,44806.699999809265,44803.799999952316,39919.369,39922.799999952316,39936.036,44819.472,,,
Sounds,html.Screen,1_3_1_0,2022-02-02T14:32:29.877Z,,,,,,,,,,,,,,,,,,,,,,,,,,,,,,,4250.084999999999,,timeout,,,,,,,,,1,,,,,,,,S,O,I,,49056.699999809265,49052.89,44802.805,44807.299999952316,44819.472,49069.557,,,
Judgement,html.Screen,1_3_1_1,2022-02-02T14:32:30.393Z,,,,,,,,,,,,,,,,,,,,,,,,,,,,true,1,,501.04299990463187,,response,,,,,,,,,1,,1,click #choice-1,,,,,S,O,I,,49573.59999990463,49570.59999990463,49052.89,49057,49069.557,49586.234,,,
Trial,flow.Sequence,1_3_1,2022-02-02T14:32:30.394Z,,,,,,,,,,,,,,,,,,,,,,,,,,,,,,,4751.127999904631,,completion,,,,,,,,,1,,,,,,,,S,O,I,,49574.199999809265,49570.59999990463,44802.805,44806.799999952316,44819.472,49586.234,,,
Sounds,html.Screen,1_3_2_0,2022-02-02T14:32:34.642Z,,,,,,,,,,,,,,,,,,,,,,,,,,,,,,,4250.085000000006,,timeout,,,,,,,,,1,,,,,,,,S,I,O,,53822.5,53819.652,49569.567,49574.5,49586.234,53836.319,,,
Judgement,html.Screen,1_3_2_1,2022-02-02T14:32:35.125Z,,,,,,,,,,,,,,,,,,,,,,,,,,,,true,1,,467.68099999999686,,response,,,,,,,,,1,,1,click #choice-1,,,,,S,I,O,,54305.89999985695,54304,53819.652,53822.89999985695,53836.319,54319.662,,,
Trial,flow.Sequence,1_3_2,2022-02-02T14:32:35.126Z,,,,,,,,,,,,,,,,,,,,,,,,,,,,,,,4717.766000000003,,completion,,,,,,,,,1,,,,,,,,S,I,O,,54306.299999952316,54304,49569.567,49574.39999985695,49586.234,54319.662,,,
Sounds,html.Screen,1_3_3_0,2022-02-02T14:32:39.375Z,,,,,,,,,,,,,,,,,,,,,,,,,,,,,,,4250.307000000001,,timeout,,,,,,,,,3,,,,,,,,I,O,S,,58555.699999809265,58553.302,54302.995,54306.39999985695,54319.662,58569.969,,,
Judgement,html.Screen,1_3_3_1,2022-02-02T14:32:39.942Z,,,,,,,,,,,,,,,,,,,,,,,,,,,,true,3,,550.830999952319,,response,,,,,,,,,3,,3,click #choice-3,,,,,I,O,S,,59123,59120.799999952316,58553.302,58555.89999985695,58569.969,59136.647,,,
Trial,flow.Sequence,1_3_3,2022-02-02T14:32:39.942Z,,,,,,,,,,,,,,,,,,,,,,,,,,,,,,,4801.13799995232,,completion,,,,,,,,,3,,,,,,,,I,O,S,,59123.299999952316,59120.799999952316,54302.995,54306.299999952316,54319.662,59136.647,,,
Sounds,html.Screen,1_3_4_0,2022-02-02T14:32:44.190Z,,,,,,,,,,,,,,,,,,,,,,,,,,,,,,,4250.085000000006,,timeout,,,,,,,,,3,,,,,,,,O,I,S,,63371.89999985695,63370.065,59119.98,59123.299999952316,59136.647,63386.732,,,
Judgement,html.Screen,1_3_4_1,2022-02-02T14:32:44.641Z,,,,,,,,,,,,,,,,,,,,,,,,,,,,true,3,,434.16799985694524,,response,,,,,,,,,3,,3,click #choice-3,,,,,O,I,S,,63822.799999952316,63820.89999985695,63370.065,63372.199999809265,63386.732,63836.741,,,
Trial,flow.Sequence,1_3_4,2022-02-02T14:32:44.642Z,,,,,,,,,,,,,,,,,,,,,,,,,,,,,,,4684.252999856952,,completion,,,,,,,,,3,,,,,,,,O,I,S,,63823.09999990463,63820.89999985695,59119.98,59123.299999952316,59136.647,63836.741,,,
Sounds,html.Screen,1_3_5_0,2022-02-02T14:32:48.892Z,,,,,,,,,,,,,,,,,,,,,,,,,,,,,,,4250.084999999999,,timeout,,,,,,,,,2,,,,,,,,O,S,I,,68073.39999985695,68070.159,63820.074,63823.09999990463,63836.741,68086.826,,,
Judgement,html.Screen,1_3_5_1,2022-02-02T14:32:49.308Z,,,,,,,,,,,,,,,,,,,,,,,,,,,,true,2,,400.8739998092642,,response,,,,,,,,,2,,2,click #choice-2,,,,,O,S,I,,68489.89999985695,68487.69999980927,68070.159,68073.59999990463,68086.826,68503.501,,,
Trial,flow.Sequence,1_3_5,2022-02-02T14:32:49.308Z,,,,,,,,,,,,,,,,,,,,,,,,,,,,,,,4650.958999809263,,completion,,,,,,,,,2,,,,,,,,O,S,I,,68490.19999980927,68487.69999980927,63820.074,63823.09999990463,63836.741,68503.501,,,
Task,flow.Loop,1_3,2022-02-02T14:32:49.313Z,,,,,,,,,,,,,,,,,,,,,,,,,,,,,,,28551.663999809265,,completion,,,1,,,,,,,,,,,,,,,,,,68495,68487.69999980927,39919.369,39922.699999809265,39936.036,68503.501,,,
Trap,html.Screen,1_4,2022-02-02T14:32:49.315Z,,,,,,,,,,,,,,,,,,,,,,,,,,,,,,,NaN,,skipped,,,,,,,,,,,,,,,,,,,,,68496.39999985695,68487.69999980927,,68496.29999995232,,68503.501,,,
Thanks,html.Screen,1_5,2022-02-02T14:32:53.208Z,,,,,,,,,,,,,,,,,,,,,,,,,,,,,,,3884.2989999523124,,response,,,,,,,,,,,continue,click button,,,,,,,,,72390.19999980927,72387.79999995232,68486.834,68496.39999985695,68503.501,76853.758,,,
Headphone screening,flow.Sequence,1,2022-02-02T14:32:53.209Z,,,,,,,,,,,,,,,,,,,,,,,,,,,,,,,56435.651999952315,,completion,,,,,,,,,,,,,,,,,,,,,72390.59999990463,72387.79999995232,15935.481,15941.699999809265,15952.148,76853.758,,,
Instructions,html.Page,2_0,2022-02-02T14:33:19.062Z,,,,,,,,,,,,,,,,,,,,,,,,,,,,,,,21390.84199990463,,form submission,,,,,,,,,,,,,,,,,,,,,98245.29999995232,98244.59999990463,76837.091,76840.29999995232,76853.758,98254.186,,,
Holding screen,html.Screen,2_1_0_0,2022-02-02T14:33:29.056Z,,,,,,,,,,,,,,,,,,,,,,,,,,,,,,,10000.118999999992,,timeout,,,,,,,,,,,,,,,,,,,,,108240.09999990463,108237.638,98237.519,98245.69999980927,98254.186,108254.305,,,
screen,html.Screen,2_1_0_1_0,2022-02-02T14:33:29.630Z,,,,,,,,,,,,,,,,,53,,,,,,,,,,,,,,548.0949998569558,,response,,,,99,,,,,,,Space,keypress(Space),,,,,,,,When -- ----- -- ------ - ------- --- ----------<br>------------- ------ ------ ---- ---- ------- ----- -- ----<br>-------- ------- -- ---------- --- - --- ----- ----- ----<br>---- --- --- ----- --- ---- ---- ------- ----- ---- -------<br>--- --- -- ----- -- --- ---- -- --- ---- -- ------ ------<br>--- ----- -- ----,108813.39999985695,108802.39999985695,108237.638,108242.29999995232,108254.305,108821.197,,0,When
screen,html.Screen,2_1_0_1_1,2022-02-02T14:33:30.004Z,,,,,,,,,,,,,,,,,53,,,,,,,,,,,,,,361.10299995231617,,response,,,,99,,,,,,,Space,keypress(Space),,,,,,,,---- it ----- -- ------ - ------- --- ----------<br>------------- ------ ------ ---- ---- ------- ----- -- ----<br>-------- ------- -- ---------- --- - --- ----- ----- ----<br>---- --- --- ----- --- ---- ---- ------- ----- ---- -------<br>--- --- -- ----- -- --- ---- -- --- ---- -- ------ ------<br>--- ----- -- ----,109188.09999990463,109182.29999995232,108804.53,108813.59999990463,108821.197,109204.538,,1,it
screen,html.Screen,2_1_0_1_2,2022-02-02T14:33:30.328Z,,,,,,,,,,,,,,,,,53,,,,,,,,,,,,,,300.96199999999953,,response,,,,99,,,,,,,Space,keypress(Space),,,,,,,,---- -- comes -- ------ - ------- --- ----------<br>------------- ------ ------ ---- ---- ------- ----- -- ----<br>-------- ------- -- ---------- --- - --- ----- ----- ----<br>---- --- --- ----- --- ---- ---- ------- ----- ---- -------<br>--- --- -- ----- -- --- ---- -- --- ---- -- ------ ------<br>--- ----- -- ----,109511.29999995232,109505.5,109187.871,109188.5,109204.538,109521.211,,2,comes
screen,html.Screen,2_1_0_1_3,2022-02-02T14:33:30.573Z,,,,,,,,,,,,,,,,,53,,,,,,,,,,,,,,229.98899980926944,,response,,,,99,,,,,,,Space,keypress(Space),,,,,,,,---- -- ----- to ------ - ------- --- ----------<br>------------- ------ ------ ---- ---- ------- ----- -- ----<br>-------- ------- -- ---------- --- - --- ----- ----- ----<br>---- --- --- ----- --- ---- ---- ------- ----- ---- -------<br>--- --- -- ----- -- --- ---- -- --- ---- -- ------ ------<br>--- ----- -- ----,109756.59999990463,109751.19999980927,109504.544,109511.59999990463,109521.211,109771.216,,3,to
screen,html.Screen,2_1_0_1_4,2022-02-02T14:33:30.775Z,,,,,,,,,,,,,,,,,53,,,,,,,,,,,,,,182.1839998569485,,response,,,,99,,,,,,,Space,keypress(Space),,,,,,,,---- -- ----- -- having - ------- --- ----------<br>------------- ------ ------ ---- ---- ------- ----- -- ----<br>-------- ------- -- ---------- --- - --- ----- ----- ----<br>---- --- --- ----- --- ---- ---- ------- ----- ---- -------<br>--- --- -- ----- -- --- ---- -- --- ---- -- ------ ------<br>--- ----- -- ----,109959,109953.39999985695,109754.549,109757,109771.216,109971.22,,4,having
screen,html.Screen,2_1_0_1_5,2022-02-02T14:33:30.980Z,,,,,,,,,,,,,,,,,53,,,,,,,,,,,,,,187.27999999999884,,response,,,,99,,,,,,,Space,keypress(Space),,,,,,,,---- -- ----- -- ------ a ------- --- ----------<br>------------- ------ ------ ---- ---- ------- ----- -- ----<br>-------- ------- -- ---------- --- - --- ----- ----- ----<br>---- --- --- ----- --- ---- ---- ------- ----- ---- -------<br>--- --- -- ----- -- --- ---- -- --- ---- -- ------ ------<br>--- ----- -- ----,110164.19999980927,110158.5,109954.553,109959.29999995232,109971.22,110171.224,,5,a
screen,html.Screen,2_1_0_1_6,2022-02-02T14:33:31.205Z,,,,,,,,,,,,,,,,,53,,,,,,,,,,,,,,213.27599999999802,,response,,,,99,,,,,,,Space,keypress(Space),,,,,,,,---- -- ----- -- ------ - lasting --- ----------<br>------------- ------ ------ ---- ---- ------- ----- -- ----<br>-------- ------- -- ---------- --- - --- ----- ----- ----<br>---- --- --- ----- --- ---- ---- ------- ----- ---- -------<br>--- --- -- ----- -- --- ---- -- --- ---- -- ------ ------<br>--- ----- -- ----,110388.39999985695,110384.5,110154.557,110164.5,110171.224,110404.562,,6,lasting
screen,html.Screen,2_1_0_1_7,2022-02-02T14:33:31.412Z,,,,,,,,,,,,,,,,,53,,,,,,,,,,,,,,185.93799999999464,,response,,,,99,,,,,,,Space,keypress(Space),,,,,,,,---- -- ----- -- ------ - ------- and ----------<br>------------- ------ ------ ---- ---- ------- ----- -- ----<br>-------- ------- -- ---------- --- - --- ----- ----- ----<br>---- --- --- ----- --- ---- ---- ------- ----- ---- -------<br>--- --- -- ----- -- --- ---- -- --- ---- -- ------ ------<br>--- ----- -- ----,110595.89999985695,110590.5,110387.895,110388.5,110404.562,110604.566,,7,and
screen,html.Screen,2_1_0_1_8,2022-02-02T14:33:31.635Z,,,,,,,,,,,,,,,,,53,,,,,,,,,,,,,,208.7339999523101,,response,,,,99,,,,,,,Space,keypress(Space),,,,,,,,---- -- ----- -- ------ - ------- --- fulfilling<br>------------- ------ ------ ---- ---- ------- ----- -- ----<br>-------- ------- -- ---------- --- - --- ----- ----- ----<br>---- --- --- ----- --- ---- ---- ------- ----- ---- -------<br>--- --- -- ----- -- --- ---- -- --- ---- -- ------ ------<br>--- ----- -- ----,110819.29999995232,110813.29999995232,110587.899,110596.19999980927,110604.566,110821.237,,8,fulfilling
screen,html.Screen,2_1_0_1_9,2022-02-02T14:33:31.986Z,,,,,,,,,,,,,,,,,53,,,,,,,,,,,,,,342.36299990463885,,response,,,,99,,,,,,,Space,keypress(Space),,,,,,,,"---- -- ----- -- ------ - ------- --- ----------<br>relationship, ------ ------ ---- ---- ------- ----- -- ----<br>-------- ------- -- ---------- --- - --- ----- ----- ----<br>---- --- --- ----- --- ---- ---- ------- ----- ---- -------<br>--- --- -- ----- -- --- ---- -- --- ---- -- ------ ------<br>--- ----- -- ----",111169.5,111163.59999990463,110804.57,110819.59999990463,110821.237,111171.244,,9,"relationship,"
screen,html.Screen,2_1_0_1_10,2022-02-02T14:33:32.220Z,,,,,,,,,,,,,,,,,53,,,,,,,,,,,,,,226.95599980925908,,response,,,,99,,,,,,,Space,keypress(Space),,,,,,,,---- -- ----- -- ------ - ------- --- ----------<br>------------- common ------ ---- ---- ------- ----- -- ----<br>-------- ------- -- ---------- --- - --- ----- ----- ----<br>---- --- --- ----- --- ---- ---- ------- ----- ---- -------<br>--- --- -- ----- -- --- ---- -- --- ---- -- ------ ------<br>--- ----- -- ----,111403.59999990463,111398.19999980927,111154.577,111169.69999980927,111171.244,111421.249,,10,common
screen,html.Screen,2_1_0_1_11,2022-02-02T14:33:32.459Z,,,,,,,,,,,,,,,,,53,,,,,,,,,,,,,,216.05099995232013,,response,,,,99,,,,,,,Space,keypress(Space),,,,,,,,---- -- ----- -- ------ - ------- --- ----------<br>------------- ------ wisdom ---- ---- ------- ----- -- ----<br>-------- ------- -- ---------- --- - --- ----- ----- ----<br>---- --- --- ----- --- ---- ---- ------- ----- ---- -------<br>--- --- -- ----- -- --- ---- -- --- ---- -- ------ ------<br>--- ----- -- ----,111642.89999985695,111637.29999995232,111404.582,111403.89999985695,111421.249,111654.587,,11,wisdom
screen,html.Screen,2_1_0_1_12,2022-02-02T14:33:33.090Z,,,,,,,,,,,,,,,,,53,,,,,,,,,,,,,,613.7129999523167,,response,,,,99,,,,,,,Space,keypress(Space),,,,,,,,---- -- ----- -- ------ - ------- --- ----------<br>------------- ------ ------ says ---- ------- ----- -- ----<br>-------- ------- -- ---------- --- - --- ----- ----- ----<br>---- --- --- ----- --- ---- ---- ------- ----- ---- -------<br>--- --- -- ----- -- --- ---- -- --- ---- -- ------ ------<br>--- ----- -- ----,112274,112268.29999995232,111637.92,111643.19999980927,111654.587,112287.933,,12,says
screen,html.Screen,2_1_0_1_13,2022-02-02T14:33:33.374Z,,,,,,,,,,,,,,,,,53,,,,,,,,,,,,,,264.4669998569443,,response,,,,99,,,,,,,Space,keypress(Space),,,,,,,,---- -- ----- -- ------ - ------- --- ----------<br>------------- ------ ------ ---- that ------- ----- -- ----<br>-------- ------- -- ---------- --- - --- ----- ----- ----<br>---- --- --- ----- --- ---- ---- ------- ----- ---- -------<br>--- --- -- ----- -- --- ---- -- --- ---- -- ------ ------<br>--- ----- -- ----,112558.09999990463,112552.39999985695,112271.266,112274.19999980927,112287.933,112571.272,,13,that
screen,html.Screen,2_1_0_1_14,2022-02-02T14:33:33.629Z,,,,,,,,,,,,,,,,,53,,,,,,,,,,,,,,236.32799990463536,,response,,,,99,,,,,,,Space,keypress(Space),,,,,,,,---- -- ----- -- ------ - ------- --- ----------<br>------------- ------ ------ ---- ---- feeling ----- -- ----<br>-------- ------- -- ---------- --- - --- ----- ----- ----<br>---- --- --- ----- --- ---- ---- ------- ----- ---- -------<br>--- --- -- ----- -- --- ---- -- --- ---- -- ------ ------<br>--- ----- -- ----,112813.09999990463,112807.59999990463,112554.605,112558.39999985695,112571.272,112821.277,,14,feeling
screen,html.Screen,2_1_0_1_15,2022-02-02T14:33:33.910Z,,,,,,,,,,,,,,,,,53,,,,,,,,,,,,,,267.22299999999814,,response,,,,99,,,,,,,Space,keypress(Space),,,,,,,,---- -- ----- -- ------ - ------- --- ----------<br>------------- ------ ------ ---- ---- ------- close -- ----<br>-------- ------- -- ---------- --- - --- ----- ----- ----<br>---- --- --- ----- --- ---- ---- ------- ----- ---- -------<br>--- --- -- ----- -- --- ---- -- --- ---- -- ------ ------<br>--- ----- -- ----,113094,113088.5,112804.61,112813.29999995232,112821.277,113104.616,,15,close
screen,html.Screen,2_1_0_1_16,2022-02-02T14:33:34.225Z,,,,,,,,,,,,,,,,,53,,,,,,,,,,,,,,298.88400000000547,,response,,,,99,,,,,,,Space,keypress(Space),,,,,,,,---- -- ----- -- ------ - ------- --- ----------<br>------------- ------ ------ ---- ---- ------- ----- to ----<br>-------- ------- -- ---------- --- - --- ----- ----- ----<br>---- --- --- ----- --- ---- ---- ------- ----- ---- -------<br>--- --- -- ----- -- --- ---- -- --- ---- -- ------ ------<br>--- ----- -- ----,113409,113403.5,113087.949,113094.09999990463,113104.616,113421.289,,16,to
screen,html.Screen,2_1_0_1_17,2022-02-02T14:33:34.468Z,,,,,,,,,,,,,,,,,53,,,,,,,,,,,,,,226.61099985694455,,response,,,,99,,,,,,,Space,keypress(Space),,,,,,,,---- -- ----- -- ------ - ------- --- ----------<br>------------- ------ ------ ---- ---- ------- ----- -- your<br>-------- ------- -- ---------- --- - --- ----- ----- ----<br>---- --- --- ----- --- ---- ---- ------- ----- ---- -------<br>--- --- -- ----- -- --- ---- -- --- ---- -- ------ ------<br>--- ----- -- ----,113651.79999995232,113647.89999985695,113404.622,113409.19999980927,113421.289,113654.627,,17,your
screen,html.Screen,2_1_0_1_18,2022-02-02T14:33:34.775Z,,,,,,,,,,,,,,,,,53,,,,,,,,,,,,,,300.072999809272,,response,,,,99,,,,,,,Space,keypress(Space),,,,,,,,---- -- ----- -- ------ - ------- --- ----------<br>------------- ------ ------ ---- ---- ------- ----- -- ----<br>romantic ------- -- ---------- --- - --- ----- ----- ----<br>---- --- --- ----- --- ---- ---- ------- ----- ---- -------<br>--- --- -- ----- -- --- ---- -- --- ---- -- ------ ------<br>--- ----- -- ----,113958.69999980927,113954.69999980927,113637.96,113652.09999990463,113654.627,113971.3,,18,romantic
screen,html.Screen,2_1_0_1_19,2022-02-02T14:33:35.075Z,,,,,,,,,,,,,,,,,53,,,,,,,,,,,,,,283.3999998092622,,response,,,,99,,,,,,,Space,keypress(Space),,,,,,,,---- -- ----- -- ------ - ------- --- ----------<br>------------- ------ ------ ---- ---- ------- ----- -- ----<br>-------- partner -- ---------- --- - --- ----- ----- ----<br>---- --- --- ----- --- ---- ---- ------- ----- ---- -------<br>--- --- -- ----- -- --- ---- -- --- ---- -- ------ ------<br>--- ----- -- ----,114258.69999980927,114254.69999980927,113954.633,113959,113971.3,114271.306,,19,partner
screen,html.Screen,2_1_0_1_20,2022-02-02T14:33:35.320Z,,,,,,,,,,,,,,,,,53,,,,,,,,,,,,,,228.39399980926828,,response,,,,99,,,,,,,Space,keypress(Space),,,,,,,,---- -- ----- -- ------ - ------- --- ----------<br>------------- ------ ------ ---- ---- ------- ----- -- ----<br>-------- ------- is ---------- --- - --- ----- ----- ----<br>---- --- --- ----- --- ---- ---- ------- ----- ---- -------<br>--- --- -- ----- -- --- ---- -- --- ---- -- ------ ------<br>--- ----- -- ----,114503.79999995232,114499.69999980927,114254.639,114258.79999995232,114271.306,114521.311,,20,is
screen,html.Screen,2_1_0_1_21,2022-02-02T14:33:35.576Z,,,,,,,,,,,,,,,,,53,,,,,,,,,,,,,,234.38899980926362,,response,,,,99,,,,,,,Space,keypress(Space),,,,,,,,---- -- ----- -- ------ - ------- --- ----------<br>------------- ------ ------ ---- ---- ------- ----- -- ----<br>-------- ------- -- paramount. --- - --- ----- ----- ----<br>---- --- --- ----- --- ---- ---- ------- ----- ---- -------<br>--- --- -- ----- -- --- ---- -- --- ---- -- ------ ------<br>--- ----- -- ----,114760,114755.69999980927,114504.644,114504,114521.311,114771.316,,21,paramount.
screen,html.Screen,2_1_0_1_22,2022-02-02T14:33:35.846Z,,,,,,,,,,,,,,,,,53,,,,,,,,,,,,,,254.4839999523101,,response,,,,99,,,,,,,Space,keypress(Space),,,,,,,,---- -- ----- -- ------ - ------- --- ----------<br>------------- ------ ------ ---- ---- ------- ----- -- ----<br>-------- ------- -- ---------- But - --- ----- ----- ----<br>---- --- --- ----- --- ---- ---- ------- ----- ---- -------<br>--- --- -- ----- -- --- ---- -- --- ---- -- ------ ------<br>--- ----- -- ----,115030.19999980927,115025.79999995232,114754.649,114760.19999980927,114771.316,115037.988,,22,But
screen,html.Screen,2_1_0_1_23,2022-02-02T14:33:36.133Z,,,,,,,,,,,,,,,,,53,,,,,,,,,,,,,,272.611999904635,,response,,,,99,,,,,,,Space,keypress(Space),,,,,,,,---- -- ----- -- ------ - ------- --- ----------<br>------------- ------ ------ ---- ---- ------- ----- -- ----<br>-------- ------- -- ---------- --- a --- ----- ----- ----<br>---- --- --- ----- --- ---- ---- ------- ----- ---- -------<br>--- --- -- ----- -- --- ---- -- --- ---- -- ------ ------<br>--- ----- -- ----,115316.5,115310.59999990463,115021.321,115030.29999995232,115037.988,115321.327,,23,a
screen,html.Screen,2_1_0_1_24,2022-02-02T14:33:36.372Z,,,,,,,,,,,,,,,,,53,,,,,,,,,,,,,,229.07299985694408,,response,,,,99,,,,,,,Space,keypress(Space),,,,,,,,---- -- ----- -- ------ - ------- --- ----------<br>------------- ------ ------ ---- ---- ------- ----- -- ----<br>-------- ------- -- ---------- --- - new ----- ----- ----<br>---- --- --- ----- --- ---- ---- ------- ----- ---- -------<br>--- --- -- ----- -- --- ---- -- --- ---- -- ------ ------<br>--- ----- -- ----,115555.59999990463,115550.39999985695,115304.66,115316.79999995232,115321.327,115571.332,,24,new
screen,html.Screen,2_1_0_1_25,2022-02-02T14:33:36.639Z,,,,,,,,,,,,,,,,,53,,,,,,,,,,,,,,245.86799980927026,,response,,,,99,,,,,,,Space,keypress(Space),,,,,,,,---- -- ----- -- ------ - ------- --- ----------<br>------------- ------ ------ ---- ---- ------- ----- -- ----<br>-------- ------- -- ---------- --- - --- study ----- ----<br>---- --- --- ----- --- ---- ---- ------- ----- ---- -------<br>--- --- -- ----- -- --- ---- -- --- ---- -- ------ ------<br>--- ----- -- ----,115822.59999990463,115817.19999980927,115554.665,115555.89999985695,115571.332,115838.004,,25,study
screen,html.Screen,2_1_0_1_26,2022-02-02T14:33:36.914Z,,,,,,,,,,,,,,,,,53,,,,,,,,,,,,,,253.69599980926432,,response,,,,99,,,,,,,Space,keypress(Space),,,,,,,,---- -- ----- -- ------ - ------- --- ----------<br>------------- ------ ------ ---- ---- ------- ----- -- ----<br>-------- ------- -- ---------- --- - --- ----- finds ----<br>---- --- --- ----- --- ---- ---- ------- ----- ---- -------<br>--- --- -- ----- -- --- ---- -- --- ---- -- ------ ------<br>--- ----- -- ----,116097.59999990463,116091.69999980927,115821.337,115822.89999985695,115838.004,116104.676,,26,finds
screen,html.Screen,2_1_0_1_27,2022-02-02T14:33:37.179Z,,,,,,,,,,,,,,,,,53,,,,,,,,,,,,,,252.92399990462582,,response,,,,99,,,,,,,Space,keypress(Space),,,,,,,,---- -- ----- -- ------ - ------- --- ----------<br>------------- ------ ------ ---- ---- ------- ----- -- ----<br>-------- ------- -- ---------- --- - --- ----- ----- that<br>---- --- --- ----- --- ---- ---- ------- ----- ---- -------<br>--- --- -- ----- -- --- ---- -- --- ---- -- ------ ------<br>--- ----- -- ----,116363.39999985695,116357.59999990463,116088.009,116098.09999990463,116104.676,116371.348,,27,that
screen,html.Screen,2_1_0_1_28,2022-02-02T14:33:37.476Z,,,,,,,,,,,,,,,,,53,,,,,,,,,,,,,,283.0519998569507,,response,,,,99,,,,,,,Space,keypress(Space),,,,,,,,---- -- ----- -- ------ - ------- --- ----------<br>------------- ------ ------ ---- ---- ------- ----- -- ----<br>-------- ------- -- ---------- --- - --- ----- ----- ----<br>it's --- --- ----- --- ---- ---- ------- ----- ---- -------<br>--- --- -- ----- -- --- ---- -- --- ---- -- ------ ------<br>--- ----- -- ----,116659.89999985695,116654.39999985695,116354.681,116363.59999990463,116371.348,116671.354,,28,it's
screen,html.Screen,2_1_0_1_29,2022-02-02T14:33:37.743Z,,,,,,,,,,,,,,,,,53,,,,,,,,,,,,,,250.14599999999336,,response,,,,99,,,,,,,Space,keypress(Space),,,,,,,,---- -- ----- -- ------ - ------- --- ----------<br>------------- ------ ------ ---- ---- ------- ----- -- ----<br>-------- ------- -- ---------- --- - --- ----- ----- ----<br>---- not --- ----- --- ---- ---- ------- ----- ---- -------<br>--- --- -- ----- -- --- ---- -- --- ---- -- ------ ------<br>--- ----- -- ----,116927.09999990463,116921.5,116654.687,116660.09999990463,116671.354,116938.026,,29,not
screen,html.Screen,2_1_0_1_30,2022-02-02T14:33:38.002Z,,,,,,,,,,,,,,,,,53,,,,,,,,,,,,,,242.57399990463455,,response,,,,99,,,,,,,Space,keypress(Space),,,,,,,,---- -- ----- -- ------ - ------- --- ----------<br>------------- ------ ------ ---- ---- ------- ----- -- ----<br>-------- ------- -- ---------- --- - --- ----- ----- ----<br>---- --- how ----- --- ---- ---- ------- ----- ---- -------<br>--- --- -- ----- -- --- ---- -- --- ---- -- ------ ------<br>--- ----- -- ----,117186,117180.59999990463,116921.359,116927.5,116938.026,117188.031,,30,how
screen,html.Screen,2_1_0_1_31,2022-02-02T14:33:38.257Z,,,,,,,,,,,,,,,,,53,,,,,,,,,,,,,,247.36899985694617,,response,,,,99,,,,,,,Space,keypress(Space),,,,,,,,---- -- ----- -- ------ - ------- --- ----------<br>------------- ------ ------ ---- ---- ------- ----- -- ----<br>-------- ------- -- ---------- --- - --- ----- ----- ----<br>---- --- --- close --- ---- ---- ------- ----- ---- -------<br>--- --- -- ----- -- --- ---- -- --- ---- -- ------ ------<br>--- ----- -- ----,117441,117435.39999985695,117171.364,117186.19999980927,117188.031,117454.703,,31,close
screen,html.Screen,2_1_0_1_32,2022-02-02T14:33:38.512Z,,,,,,,,,,,,,,,,,53,,,,,,,,,,,,,,237.29700000000594,,response,,,,99,,,,,,,Space,keypress(Space),,,,,,,,---- -- ----- -- ------ - ------- --- ----------<br>------------- ------ ------ ---- ---- ------- ----- -- ----<br>-------- ------- -- ---------- --- - --- ----- ----- ----<br>---- --- --- ----- you ---- ---- ------- ----- ---- -------<br>--- --- -- ----- -- --- ---- -- --- ---- -- ------ ------<br>--- ----- -- ----,117696.5,117692,117438.036,117441.19999980927,117454.703,117704.708,,32,you
screen,html.Screen,2_1_0_1_33,2022-02-02T14:33:38.811Z,,,,,,,,,,,,,,,,,53,,,,,,,,,,,,,,284.7920000000013,,response,,,,99,,,,,,,Space,keypress(Space),,,,,,,,---- -- ----- -- ------ - ------- --- ----------<br>------------- ------ ------ ---- ---- ------- ----- -- ----<br>-------- ------- -- ---------- --- - --- ----- ----- ----<br>---- --- --- ----- --- feel ---- ------- ----- ---- -------<br>--- --- -- ----- -- --- ---- -- --- ---- -- ------ ------<br>--- ----- -- ----,117995.29999995232,117989.5,117688.041,117697,117704.708,118004.802,,33,feel
screen,html.Screen,2_1_0_1_34,2022-02-02T14:33:39.119Z,,,,,,,,,,,,,,,,,53,,,,,,,,,,,,,,292.99799995232024,,response,,,,99,,,,,,,Space,keypress(Space),,,,,,,,---- -- ----- -- ------ - ------- --- ----------<br>------------- ------ ------ ---- ---- ------- ----- -- ----<br>-------- ------- -- ---------- --- - --- ----- ----- ----<br>---- --- --- ----- --- ---- that ------- ----- ---- -------<br>--- --- -- ----- -- --- ---- -- --- ---- -- ------ ------<br>--- ----- -- ----,118303.09999990463,118297.79999995232,117988.135,117995.5,118004.802,118304.808,,34,that
screen,html.Screen,2_1_0_1_35,2022-02-02T14:33:39.377Z,,,,,,,,,,,,,,,,,53,,,,,,,,,,,,,,250.69199999999546,,response,,,,99,,,,,,,Space,keypress(Space),,,,,,,,---- -- ----- -- ------ - ------- --- ----------<br>------------- ------ ------ ---- ---- ------- ----- -- ----<br>-------- ------- -- ---------- --- - --- ----- ----- ----<br>---- --- --- ----- --- ---- ---- matters ----- ---- -------<br>--- --- -- ----- -- --- ---- -- --- ---- -- ------ ------<br>--- ----- -- ----,118561.09999990463,118555.5,118288.141,118303.39999985695,118304.808,118571.48,,35,matters
screen,html.Screen,2_1_0_1_36,2022-02-02T14:33:39.677Z,,,,,,,,,,,,,,,,,53,,,,,,,,,,,,,,283.0200000000041,,response,,,,99,,,,,,,Space,keypress(Space),,,,,,,,"---- -- ----- -- ------ - ------- --- ----------<br>------------- ------ ------ ---- ---- ------- ----- -- ----<br>-------- ------- -- ---------- --- - --- ----- ----- ----<br>---- --- --- ----- --- ---- ---- ------- most, ---- -------<br>--- --- -- ----- -- --- ---- -- --- ---- -- ------ ------<br>--- ----- -- ----",118861,118854.5,118554.813,118561.59999990463,118571.48,118871.486,,36,"most,"
screen,html.Screen,2_1_0_1_37,2022-02-02T14:33:39.935Z,,,,,,,,,,,,,,,,,53,,,,,,,,,,,,,,242.01399999999558,,response,,,,99,,,,,,,Space,keypress(Space),,,,,,,,---- -- ----- -- ------ - ------- --- ----------<br>------------- ------ ------ ---- ---- ------- ----- -- ----<br>-------- ------- -- ---------- --- - --- ----- ----- ----<br>---- --- --- ----- --- ---- ---- ------- ----- it's -------<br>--- --- -- ----- -- --- ---- -- --- ---- -- ------ ------<br>--- ----- -- ----,119119.09999990463,119113.5,118854.819,118861.09999990463,118871.486,119121.491,,37,it's
screen,html.Screen,2_1_0_1_38,2022-02-02T14:33:40.224Z,,,,,,,,,,,,,,,,,53,,,,,,,,,,,,,,280.9089998569543,,response,,,,99,,,,,,,Space,keypress(Space),,,,,,,,---- -- ----- -- ------ - ------- --- ----------<br>------------- ------ ------ ---- ---- ------- ----- -- ----<br>-------- ------- -- ---------- --- - --- ----- ----- ----<br>---- --- --- ----- --- ---- ---- ------- ----- ---- whether<br>--- --- -- ----- -- --- ---- -- --- ---- -- ------ ------<br>--- ----- -- ----,119408.09999990463,119402.39999985695,119104.824,119119.29999995232,119121.491,119421.497,,38,whether
screen,html.Screen,2_1_0_1_39,2022-02-02T14:33:40.545Z,,,,,,,,,,,,,,,,,53,,,,,,,,,,,,,,303.10299990462954,,response,,,,99,,,,,,,Space,keypress(Space),,,,,,,,---- -- ----- -- ------ - ------- --- ----------<br>------------- ------ ------ ---- ---- ------- ----- -- ----<br>-------- ------- -- ---------- --- - --- ----- ----- ----<br>---- --- --- ----- --- ---- ---- ------- ----- ---- -------<br>you --- -- ----- -- --- ---- -- --- ---- -- ------ ------<br>--- ----- -- ----,119729.5,119724.59999990463,119404.83,119408.39999985695,119421.497,119738.17,,39,you
screen,html.Screen,2_1_0_1_40,2022-02-02T14:33:40.823Z,,,,,,,,,,,,,,,,,53,,,,,,,,,,,,,,263.4299999046343,,response,,,,99,,,,,,,Space,keypress(Space),,,,,,,,---- -- ----- -- ------ - ------- --- ----------<br>------------- ------ ------ ---- ---- ------- ----- -- ----<br>-------- ------- -- ---------- --- - --- ----- ----- ----<br>---- --- --- ----- --- ---- ---- ------- ----- ---- -------<br>--- are -- ----- -- --- ---- -- --- ---- -- ------ ------<br>--- ----- -- ----,120007.29999995232,120001.59999990463,119721.503,119729.59999990463,119738.17,120021.509,,40,are
screen,html.Screen,2_1_0_1_41,2022-02-02T14:33:41.081Z,,,,,,,,,,,,,,,,,53,,,,,,,,,,,,,,237.99099999999453,,response,,,,99,,,,,,,Space,keypress(Space),,,,,,,,---- -- ----- -- ------ - ------- --- ----------<br>------------- ------ ------ ---- ---- ------- ----- -- ----<br>-------- ------- -- ---------- --- - --- ----- ----- ----<br>---- --- --- ----- --- ---- ---- ------- ----- ---- -------<br>--- --- as ----- -- --- ---- -- --- ---- -- ------ ------<br>--- ----- -- ----,120265,120259.5,120004.842,120007.59999990463,120021.509,120271.514,,41,as
screen,html.Screen,2_1_0_1_42,2022-02-02T14:33:41.319Z,,,,,,,,,,,,,,,,,53,,,,,,,,,,,,,,225.98600000000442,,response,,,,99,,,,,,,Space,keypress(Space),,,,,,,,---- -- ----- -- ------ - ------- --- ----------<br>------------- ------ ------ ---- ---- ------- ----- -- ----<br>-------- ------- -- ---------- --- - --- ----- ----- ----<br>---- --- --- ----- --- ---- ---- ------- ----- ---- -------<br>--- --- -- close -- --- ---- -- --- ---- -- ------ ------<br>--- ----- -- ----,120503,120497.5,120254.847,120265.19999980927,120271.514,120504.852,,42,close
screen,html.Screen,2_1_0_1_43,2022-02-02T14:33:41.599Z,,,,,,,,,,,,,,,,,53,,,,,,,,,,,,,,272.64800000000105,,response,,,,99,,,,,,,Space,keypress(Space),,,,,,,,---- -- ----- -- ------ - ------- --- ----------<br>------------- ------ ------ ---- ---- ------- ----- -- ----<br>-------- ------- -- ---------- --- - --- ----- ----- ----<br>---- --- --- ----- --- ---- ---- ------- ----- ---- -------<br>--- --- -- ----- as --- ---- -- --- ---- -- ------ ------<br>--- ----- -- ----,120783.29999995232,120777.5,120488.185,120503.19999980927,120504.852,120788.191,,43,as
screen,html.Screen,2_1_0_1_44,2022-02-02T14:33:41.879Z,,,,,,,,,,,,,,,,,53,,,,,,,,,,,,,,269.30899999999383,,response,,,,99,,,,,,,Space,keypress(Space),,,,,,,,---- -- ----- -- ------ - ------- --- ----------<br>------------- ------ ------ ---- ---- ------- ----- -- ----<br>-------- ------- -- ---------- --- - --- ----- ----- ----<br>---- --- --- ----- --- ---- ---- ------- ----- ---- -------<br>--- --- -- ----- -- you ---- -- --- ---- -- ------ ------<br>--- ----- -- ----,121063.09999990463,121057.5,120771.524,120783.59999990463,120788.191,121071.53,,44,you
screen,html.Screen,2_1_0_1_45,2022-02-02T14:33:42.168Z,,,,,,,,,,,,,,,,,53,,,,,,,,,,,,,,274.97000000000116,,response,,,,99,,,,,,,Space,keypress(Space),,,,,,,,---- -- ----- -- ------ - ------- --- ----------<br>------------- ------ ------ ---- ---- ------- ----- -- ----<br>-------- ------- -- ---------- --- - --- ----- ----- ----<br>---- --- --- ----- --- ---- ---- ------- ----- ---- -------<br>--- --- -- ----- -- --- want -- --- ---- -- ------ ------<br>--- ----- -- ----,121352.09999990463,121346.5,121054.863,121063.29999995232,121071.53,121354.869,,45,want
screen,html.Screen,2_1_0_1_46,2022-02-02T14:33:42.458Z,,,,,,,,,,,,,,,,,53,,,,,,,,,,,,,,281.5309998569428,,response,,,,99,,,,,,,Space,keypress(Space),,,,,,,,---- -- ----- -- ------ - ------- --- ----------<br>------------- ------ ------ ---- ---- ------- ----- -- ----<br>-------- ------- -- ---------- --- - --- ----- ----- ----<br>---- --- --- ----- --- ---- ---- ------- ----- ---- -------<br>--- --- -- ----- -- --- ---- to --- ---- -- ------ ------<br>--- ----- -- ----,121641.89999985695,121636.39999985695,121338.202,121352.5,121354.869,121654.875,,46,to
screen,html.Screen,2_1_0_1_47,2022-02-02T14:33:42.731Z,,,,,,,,,,,,,,,,,53,,,,,,,,,,,,,,254.625,,response,,,,99,,,,,,,Space,keypress(Space),,,,,,,,"---- -- ----- -- ------ - ------- --- ----------<br>------------- ------ ------ ---- ---- ------- ----- -- ----<br>-------- ------- -- ---------- --- - --- ----- ----- ----<br>---- --- --- ----- --- ---- ---- ------- ----- ---- -------<br>--- --- -- ----- -- --- ---- -- be, ---- -- ------ ------<br>--- ----- -- ----",121915,121909.5,121638.208,121642.09999990463,121654.875,121921.547,,47,"be,"
screen,html.Screen,2_1_0_1_48,2022-02-02T14:33:43.006Z,,,,,,,,,,,,,,,,,53,,,,,,,,,,,,,,263.1529998092592,,response,,,,99,,,,,,,Space,keypress(Space),,,,,,,,---- -- ----- -- ------ - ------- --- ----------<br>------------- ------ ------ ---- ---- ------- ----- -- ----<br>-------- ------- -- ---------- --- - --- ----- ----- ----<br>---- --- --- ----- --- ---- ---- ------- ----- ---- -------<br>--- --- -- ----- -- --- ---- -- --- even -- ------ ------<br>--- ----- -- ----,122190.19999980927,122184.69999980927,121904.88,121915.19999980927,121921.547,122204.886,,48,even
screen,html.Screen,2_1_0_1_49,2022-02-02T14:33:43.285Z,,,,,,,,,,,,,,,,,53,,,,,,,,,,,,,,258.31399980926653,,response,,,,99,,,,,,,Space,keypress(Space),,,,,,,,---- -- ----- -- ------ - ------- --- ----------<br>------------- ------ ------ ---- ---- ------- ----- -- ----<br>-------- ------- -- ---------- --- - --- ----- ----- ----<br>---- --- --- ----- --- ---- ---- ------- ----- ---- -------<br>--- --- -- ----- -- --- ---- -- --- ---- if ------ ------<br>--- ----- -- ----,122469,122463.19999980927,122188.219,122190.5,122204.886,122471.558,,49,if
screen,html.Screen,2_1_0_1_50,2022-02-02T14:33:43.588Z,,,,,,,,,,,,,,,,,53,,,,,,,,,,,,,,294.94199999999546,,response,,,,99,,,,,,,Space,keypress(Space),,,,,,,,---- -- ----- -- ------ - ------- --- ----------<br>------------- ------ ------ ---- ---- ------- ----- -- ----<br>-------- ------- -- ---------- --- - --- ----- ----- ----<br>---- --- --- ----- --- ---- ---- ------- ----- ---- -------<br>--- --- -- ----- -- --- ---- -- --- ---- -- that's ------<br>--- ----- -- ----,122772.09999990463,122766.5,122454.891,122469.29999995232,122471.558,122788.231,,50,that's
screen,html.Screen,2_1_0_1_51,2022-02-02T14:33:43.871Z,,,,,,,,,,,,,,,,,53,,,,,,,,,,,,,,261.26900000000023,,response,,,,99,,,,,,,Space,keypress(Space),,,,,,,,---- -- ----- -- ------ - ------- --- ----------<br>------------- ------ ------ ---- ---- ------- ----- -- ----<br>-------- ------- -- ---------- --- - --- ----- ----- ----<br>---- --- --- ----- --- ---- ---- ------- ----- ---- -------<br>--- --- -- ----- -- --- ---- -- --- ---- -- ------ really<br>--- ----- -- ----,123055,123049.5,122771.564,122772.5,122788.231,123071.57,,51,really
screen,html.Screen,2_1_0_1_52,2022-02-02T14:33:44.252Z,,,,,,,,,,,,,,,,,53,,,,,,,,,,,,,,359.0299999046256,,response,,,,99,,,,,,,Space,keypress(Space),,,,,,,,---- -- ----- -- ------ - ------- --- ----------<br>------------- ------ ------ ---- ---- ------- ----- -- ----<br>-------- ------- -- ---------- --- - --- ----- ----- ----<br>---- --- --- ----- --- ---- ---- ------- ----- ---- -------<br>--- --- -- ----- -- --- ---- -- --- ---- -- ------ ------<br>not ----- -- ----,123436.29999995232,123430.59999990463,123054.903,123055.39999985695,123071.57,123438.244,,52,not
screen,html.Screen,2_1_0_1_53,2022-02-02T14:33:44.575Z,,,,,,,,,,,,,,,,,53,,,,,,,,,,,,,,315.25599999999395,,response,,,,99,,,,,,,Space,keypress(Space),,,,,,,,---- -- ----- -- ------ - ------- --- ----------<br>------------- ------ ------ ---- ---- ------- ----- -- ----<br>-------- ------- -- ---------- --- - --- ----- ----- ----<br>---- --- --- ----- --- ---- ---- ------- ----- ---- -------<br>--- --- -- ----- -- --- ---- -- --- ---- -- ------ ------<br>--- close -- ----,123759,123753.5,123421.577,123436.59999990463,123438.244,123771.584,,53,close
screen,html.Screen,2_1_0_1_54,2022-02-02T14:33:44.944Z,,,,,,,,,,,,,,,,,53,,,,,,,,,,,,,,351.8159998569463,,response,,,,99,,,,,,,Space,keypress(Space),,,,,,,,---- -- ----- -- ------ - ------- --- ----------<br>------------- ------ ------ ---- ---- ------- ----- -- ----<br>-------- ------- -- ---------- --- - --- ----- ----- ----<br>---- --- --- ----- --- ---- ---- ------- ----- ---- -------<br>--- --- -- ----- -- --- ---- -- --- ---- -- ------ ------<br>--- ----- at ----,124128.79999995232,124123.39999985695,123754.917,123759.29999995232,123771.584,124138.258,,54,at
screen,html.Screen,2_1_0_1_55,2022-02-02T14:33:45.955Z,,,,,,,,,,,,,,,,,53,,,,,,,,,,,,,,996.0419999523147,,response,,,,99,,,,,,,Space,keypress(Space),,,,,,,,---- -- ----- -- ------ - ------- --- ----------<br>------------- ------ ------ ---- ---- ------- ----- -- ----<br>-------- ------- -- ---------- --- - --- ----- ----- ----<br>---- --- --- ----- --- ---- ---- ------- ----- ---- -------<br>--- --- -- ----- -- --- ---- -- --- ---- -- ------ ------<br>--- ----- -- all.,125139.89999985695,125134.29999995232,124121.591,124129.19999980927,124138.258,125154.945,,55,all.
Item 99,flow.Loop,2_1_0_1,2022-02-02T14:33:45.956Z,,,,,,,,,,,,,,,,,,,,,,,,,,,,,,,16879.994999952323,,completion,,,,,C,,,,,,,,,,,silence,,,,,125140.39999985695,125134.29999995232,108237.638,108240.39999985695,108254.305,125154.945,,,
Question 1,html.Screen,2_1_0_2,2022-02-02T14:33:50.224Z,,,,,,,,,,,,,,,,,,,,,,,,,,,,true,FALSE,,4251.054999999993,,response,,,,99,C,,,,,,FALSE,click #choice-2,,,,silence,,,,,129408.59999990463,129406,125138.278,125140.59999990463,125154.945,129421.733,,,
Question 2,html.Screen,2_1_0_3,2022-02-02T14:33:54.656Z,,,,,,,,,,,,,,,,,,,,,,,,,,,,true,TRUE,,4417.566999952323,,response,,,,99,C,,,,,,TRUE,click #choice-1,,,,silence,,,,,133841.09999990463,133839.29999995232,129405.066,129408.79999995232,129421.733,133855.155,,,
Item 99,flow.Sequence,2_1_0,2022-02-02T14:33:54.657Z,,,,,,,,,,,,,,,,,,,,,,,,,,,,,,,35585.113999952315,,completion,,,,,,,,,,,,,,,,,,,,,133841.39999985695,133839.29999995232,98237.519,98245.69999980927,98254.186,133855.155,,,
Holding screen,html.Screen,2_1_1_0,2022-02-02T14:34:04.656Z,,,,,,,,,,,,,,,,,,,,,,,,,,,,,,,10000.318999999989,,timeout,,,,,,,,,,,,,,,,,,,,,143841,143838.807,133838.488,133841.59999990463,133855.155,143855.474,,,
screen,html.Screen,2_1_1_1_0,2022-02-02T14:34:05.265Z,,,,,,,,,,,,,,,,,54,,,,,,,,,,,,,,588.8259999523289,,response,,,,100,,,,,,,Space,keypress(Space),,,,,,,,At --- ---- --- ------ ----- ------- ---- -- --- ------- --<br>------- ---------- ------ -- ----- -- ----- -- ---- ------<br>--- ----- --- --- ------ -------- ----- --- ------ ----- --<br>----- ----- ---------- --- --- ------ ------ ---- -- ------<br>------- --- ------ ----- --- ---- ------- -- ---- --- --<br>------- ------,144450.59999990463,144444.29999995232,143838.807,143841.29999995232,143855.474,144455.486,,0,At
screen,html.Screen,2_1_1_1_1,2022-02-02T14:34:05.493Z,,,,,,,,,,,,,,,,,54,,,,,,,,,,,,,,217.7139998092607,,response,,,,100,,,,,,,Space,keypress(Space),,,,,,,,-- the ---- --- ------ ----- ------- ---- -- --- ------- --<br>------- ---------- ------ -- ----- -- ----- -- ---- ------<br>--- ----- --- --- ------ -------- ----- --- ------ ----- --<br>----- ----- ---------- --- --- ------ ------ ---- -- ------<br>------- --- ------ ----- --- ---- ------- -- ---- --- --<br>------- ------,144678.59999990463,144673.19999980927,144438.819,144450.89999985695,144455.486,144688.824,,1,the
screen,html.Screen,2_1_1_1_2,2022-02-02T14:34:05.721Z,,,,,,,,,,,,,,,,,54,,,,,,,,,,,,,,212.27599990463932,,response,,,,100,,,,,,,Space,keypress(Space),,,,,,,,-- --- time --- ------ ----- ------- ---- -- --- ------- --<br>------- ---------- ------ -- ----- -- ----- -- ---- ------<br>--- ----- --- --- ------ -------- ----- --- ------ ----- --<br>----- ----- ---------- --- --- ------ ------ ---- -- ------<br>------- --- ------ ----- --- ---- ------- -- ---- --- --<br>------- ------,144906.59999990463,144901.09999990463,144672.157,144679,144688.824,144922.162,,2,time
screen,html.Screen,2_1_1_1_3,2022-02-02T14:34:05.967Z,,,,,,,,,,,,,,,,,54,,,,,,,,,,,,,,224.9379999046214,,response,,,,100,,,,,,,Space,keypress(Space),,,,,,,,-- --- ---- the ------ ----- ------- ---- -- --- ------- --<br>------- ---------- ------ -- ----- -- ----- -- ---- ------<br>--- ----- --- --- ------ -------- ----- --- ------ ----- --<br>----- ----- ---------- --- --- ------ ------ ---- -- ------<br>------- --- ------ ----- --- ---- ------- -- ---- --- --<br>------- ------,145152.29999995232,145147.09999990463,144905.495,144906.79999995232,144922.162,145155.5,,3,the
screen,html.Screen,2_1_1_1_4,2022-02-02T14:34:06.230Z,,,,,,,,,,,,,,,,,54,,,,,,,,,,,,,,254.89999985694885,,response,,,,100,,,,,,,Space,keypress(Space),,,,,,,,-- --- ---- --- French ----- ------- ---- -- --- ------- --<br>------- ---------- ------ -- ----- -- ----- -- ---- ------<br>--- ----- --- --- ------ -------- ----- --- ------ ----- --<br>----- ----- ---------- --- --- ------ ------ ---- -- ------<br>------- --- ------ ----- --- ---- ------- -- ---- --- --<br>------- ------,145415.19999980927,145410.39999985695,145138.833,145152.59999990463,145155.5,145422.172,,4,French
screen,html.Screen,2_1_1_1_5,2022-02-02T14:34:06.490Z,,,,,,,,,,,,,,,,,54,,,,,,,,,,,,,,245.92799990464118,,response,,,,100,,,,,,,Space,keypress(Space),,,,,,,,-- --- ---- --- ------ crown ------- ---- -- --- ------- --<br>------- ---------- ------ -- ----- -- ----- -- ---- ------<br>--- ----- --- --- ------ -------- ----- --- ------ ----- --<br>----- ----- ---------- --- --- ------ ------ ---- -- ------<br>------- --- ------ ----- --- ---- ------- -- ---- --- --<br>------- ------,145673.59999990463,145668.09999990463,145405.505,145415.5,145422.172,145688.844,,5,crown
screen,html.Screen,2_1_1_1_6,2022-02-02T14:34:06.745Z,,,,,,,,,,,,,,,,,54,,,,,,,,,,,,,,236.2559999046207,,response,,,,100,,,,,,,Space,keypress(Space),,,,,,,,-- --- ---- --- ------ ----- secured ---- -- --- ------- --<br>------- ---------- ------ -- ----- -- ----- -- ---- ------<br>--- ----- --- --- ------ -------- ----- --- ------ ----- --<br>----- ----- ---------- --- --- ------ ------ ---- -- ------<br>------- --- ------ ----- --- ---- ------- -- ---- --- --<br>------- ------,145930.59999990463,145925.09999990463,145672.177,145675.5,145688.844,145938.849,,6,secured
screen,html.Screen,2_1_1_1_7,2022-02-02T14:34:07.025Z,,,,,,,,,,,,,,,,,54,,,,,,,,,,,,,,266.25099990464514,,response,,,,100,,,,,,,Space,keypress(Space),,,,,,,,-- --- ---- --- ------ ----- ------- much -- --- ------- --<br>------- ---------- ------ -- ----- -- ----- -- ---- ------<br>--- ----- --- --- ------ -------- ----- --- ------ ----- --<br>----- ----- ---------- --- --- ------ ------ ---- -- ------<br>------- --- ------ ----- --- ---- ------- -- ---- --- --<br>------- ------,146210.59999990463,146205.09999990463,145922.182,145930.89999985695,145938.849,146222.188,,7,much
screen,html.Screen,2_1_1_1_8,2022-02-02T14:34:07.324Z,,,,,,,,,,,,,,,,,54,,,,,,,,,,,,,,282.0119998092705,,response,,,,100,,,,,,,Space,keypress(Space),,,,,,,,-- --- ---- --- ------ ----- ------- ---- of --- ------- --<br>------- ---------- ------ -- ----- -- ----- -- ---- ------<br>--- ----- --- --- ------ -------- ----- --- ------ ----- --<br>----- ----- ---------- --- --- ------ ------ ---- -- ------<br>------- --- ------ ----- --- ---- ------- -- ---- --- --<br>------- ------,146509.59999990463,146504.19999980927,146205.521,146211,146222.188,146522.194,,8,of
screen,html.Screen,2_1_1_1_9,2022-02-02T14:34:07.640Z,,,,,,,,,,,,,,,,,54,,,,,,,,,,,,,,297.905999904644,,response,,,,100,,,,,,,Space,keypress(Space),,,,,,,,-- --- ---- --- ------ ----- ------- ---- -- its ------- --<br>------- ---------- ------ -- ----- -- ----- -- ---- ------<br>--- ----- --- --- ------ -------- ----- --- ------ ----- --<br>----- ----- ---------- --- --- ------ ------ ---- -- ------<br>------- --- ------ ----- --- ---- ------- -- ---- --- --<br>------- ------,146825.39999985695,146820.09999990463,146505.527,146509.79999995232,146522.194,146838.867,,9,its
screen,html.Screen,2_1_1_1_10,2022-02-02T14:34:07.949Z,,,,,,,,,,,,,,,,,54,,,,,,,,,,,,,,290.2329999046342,,response,,,,100,,,,,,,Space,keypress(Space),,,,,,,,-- --- ---- --- ------ ----- ------- ---- -- --- revenue --<br>------- ---------- ------ -- ----- -- ----- -- ---- ------<br>--- ----- --- --- ------ -------- ----- --- ------ ----- --<br>----- ----- ---------- --- --- ------ ------ ---- -- ------<br>------- --- ------ ----- --- ---- ------- -- ---- --- --<br>------- ------,147134.59999990463,147129.09999990463,146822.2,146825.59999990463,146838.867,147138.873,,10,revenue
screen,html.Screen,2_1_1_1_11,2022-02-02T14:34:08.236Z,,,,,,,,,,,,,,,,,54,,,,,,,,,,,,,,277.92699995232397,,response,,,,100,,,,,,,Space,keypress(Space),,,,,,,,-- --- ---- --- ------ ----- ------- ---- -- --- ------- by<br>------- ---------- ------ -- ----- -- ----- -- ---- ------<br>--- ----- --- --- ------ -------- ----- --- ------ ----- --<br>----- ----- ---------- --- --- ------ ------ ---- -- ------<br>------- --- ------ ----- --- ---- ------- -- ---- --- --<br>------- ------,147421.39999985695,147416.79999995232,147122.206,147134.89999985695,147138.873,147438.879,,11,by
screen,html.Screen,2_1_1_1_12,2022-02-02T14:34:08.463Z,,,,,,,,,,,,,,,,,54,,,,,,,,,,,,,,204.2209999046463,,response,,,,100,,,,,,,Space,keypress(Space),,,,,,,,-- --- ---- --- ------ ----- ------- ---- -- --- ------- --<br>issuing ---------- ------ -- ----- -- ----- -- ---- ------<br>--- ----- --- --- ------ -------- ----- --- ------ ----- --<br>----- ----- ---------- --- --- ------ ------ ---- -- ------<br>------- --- ------ ----- --- ---- ------- -- ---- --- --<br>------- ------,147647.89999985695,147643.09999990463,147422.212,147421.59999990463,147438.879,147655.55,,12,issuing
screen,html.Screen,2_1_1_1_13,2022-02-02T14:34:08.697Z,,,,,,,,,,,,,,,,,54,,,,,,,,,,,,,,221.5499999046442,,response,,,,100,,,,,,,Space,keypress(Space),,,,,,,,-- --- ---- --- ------ ----- ------- ---- -- --- ------- --<br>------- government ------ -- ----- -- ----- -- ---- ------<br>--- ----- --- --- ------ -------- ----- --- ------ ----- --<br>----- ----- ---------- --- --- ------ ------ ---- -- ------<br>------- --- ------ ----- --- ---- ------- -- ---- --- --<br>------- ------,147882.19999980927,147877.09999990463,147638.883,147648.09999990463,147655.55,147888.888,,13,government
screen,html.Screen,2_1_1_1_14,2022-02-02T14:34:09.244Z,,,,,,,,,,,,,,,,,54,,,,,,,,,,,,,,534.5119998569426,,response,,,,100,,,,,,,Space,keypress(Space),,,,,,,,-- --- ---- --- ------ ----- ------- ---- -- --- ------- --<br>------- ---------- bonds. -- ----- -- ----- -- ---- ------<br>--- ----- --- --- ------ -------- ----- --- ------ ----- --<br>----- ----- ---------- --- --- ------ ------ ---- -- ------<br>------- --- ------ ----- --- ---- ------- -- ---- --- --<br>------- ------,148429,148423.39999985695,147872.221,147882.39999985695,147888.888,148438.899,,14,bonds.
screen,html.Screen,2_1_1_1_15,2022-02-02T14:34:09.496Z,,,,,,,,,,,,,,,,,54,,,,,,,,,,,,,,237.30099980926025,,response,,,,100,,,,,,,Space,keypress(Space),,,,,,,,-- --- ---- --- ------ ----- ------- ---- -- --- ------- --<br>------- ---------- ------ In ----- -- ----- -- ---- ------<br>--- ----- --- --- ------ -------- ----- --- ------ ----- --<br>----- ----- ---------- --- --- ------ ------ ---- -- ------<br>------- --- ------ ----- --- ---- ------- -- ---- --- --<br>------- ------,148681.39999985695,148676.19999980927,148422.232,148429.19999980927,148438.899,148688.904,,15,In
screen,html.Screen,2_1_1_1_16,2022-02-02T14:34:09.750Z,,,,,,,,,,,,,,,,,54,,,,,,,,,,,,,,241.39599995230674,,response,,,,100,,,,,,,Space,keypress(Space),,,,,,,,"-- --- ---- --- ------ ----- ------- ---- -- --- ------- --<br>------- ---------- ------ -- 1727, -- ----- -- ---- ------<br>--- ----- --- --- ------ -------- ----- --- ------ ----- --<br>----- ----- ---------- --- --- ------ ------ ---- -- ------<br>------- --- ------ ----- --- ---- ------- -- ---- --- --<br>------- ------",148935.69999980927,148930.29999995232,148672.237,148681.59999990463,148688.904,148938.909,,16,"1727,"
screen,html.Screen,2_1_1_1_17,2022-02-02T14:34:10.028Z,,,,,,,,,,,,,,,,,54,,,,,,,,,,,,,,268.99099985693465,,response,,,,100,,,,,,,Space,keypress(Space),,,,,,,,-- --- ---- --- ------ ----- ------- ---- -- --- ------- --<br>------- ---------- ------ -- ----- in ----- -- ---- ------<br>--- ----- --- --- ------ -------- ----- --- ------ ----- --<br>----- ----- ---------- --- --- ------ ------ ---- -- ------<br>------- --- ------ ----- --- ---- ------- -- ---- --- --<br>------- ------,149212.89999985695,149207.89999985695,148922.242,148936,148938.909,149222.248,,17,in
screen,html.Screen,2_1_1_1_18,2022-02-02T14:34:10.299Z,,,,,,,,,,,,,,,,,54,,,,,,,,,,,,,,257.9519998092728,,response,,,,100,,,,,,,Space,keypress(Space),,,,,,,,-- --- ---- --- ------ ----- ------- ---- -- --- ------- --<br>------- ---------- ------ -- ----- -- order -- ---- ------<br>--- ----- --- --- ------ -------- ----- --- ------ ----- --<br>----- ----- ---------- --- --- ------ ------ ---- -- ------<br>------- --- ------ ----- --- ---- ------- -- ---- --- --<br>------- ------,149484.89999985695,149480.19999980927,149205.581,149213.39999985695,149222.248,149489.01,,18,order
screen,html.Screen,2_1_1_1_19,2022-02-02T14:34:10.568Z,,,,,,,,,,,,,,,,,54,,,,,,,,,,,,,,258.9899999999907,,response,,,,100,,,,,,,Space,keypress(Space),,,,,,,,-- --- ---- --- ------ ----- ------- ---- -- --- ------- --<br>------- ---------- ------ -- ----- -- ----- to ---- ------<br>--- ----- --- --- ------ -------- ----- --- ------ ----- --<br>----- ----- ---------- --- --- ------ ------ ---- -- ------<br>------- --- ------ ----- --- ---- ------- -- ---- --- --<br>------- ------,149753.39999985695,149748,149472.343,149485.09999990463,149489.01,149755.682,,19,to
screen,html.Screen,2_1_1_1_20,2022-02-02T14:34:10.823Z,,,,,,,,,,,,,,,,,54,,,,,,,,,,,,,,246.61799995231559,,response,,,,100,,,,,,,Space,keypress(Space),,,,,,,,-- --- ---- --- ------ ----- ------- ---- -- --- ------- --<br>------- ---------- ------ -- ----- -- ----- -- save ------<br>--- ----- --- --- ------ -------- ----- --- ------ ----- --<br>----- ----- ---------- --- --- ------ ------ ---- -- ------<br>------- --- ------ ----- --- ---- ------- -- ---- --- --<br>------- ------,150008.09999990463,150002.29999995232,149739.015,149753.69999980927,149755.682,150022.354,,20,save
screen,html.Screen,2_1_1_1_21,2022-02-02T14:34:11.100Z,,,,,,,,,,,,,,,,,54,,,,,,,,,,,,,,256.9459999523242,,response,,,,100,,,,,,,Space,keypress(Space),,,,,,,,"-- --- ---- --- ------ ----- ------- ---- -- --- ------- --<br>------- ---------- ------ -- ----- -- ----- -- ---- money,<br>--- ----- --- --- ------ -------- ----- --- ------ ----- --<br>----- ----- ---------- --- --- ------ ------ ---- -- ------<br>------- --- ------ ----- --- ---- ------- -- ---- --- --<br>------- ------",150285.09999990463,150279.29999995232,150005.687,150008.39999985695,150022.354,150289.026,,21,"money,"
screen,html.Screen,2_1_1_1_22,2022-02-02T14:34:11.380Z,,,,,,,,,,,,,,,,,54,,,,,,,,,,,,,,270.9739999999874,,response,,,,100,,,,,,,Space,keypress(Space),,,,,,,,-- --- ---- --- ------ ----- ------- ---- -- --- ------- --<br>------- ---------- ------ -- ----- -- ----- -- ---- ------<br>the ----- --- --- ------ -------- ----- --- ------ ----- --<br>----- ----- ---------- --- --- ------ ------ ---- -- ------<br>------- --- ------ ----- --- ---- ------- -- ---- --- --<br>------- ------,150565.5,150560,150272.359,150285.39999985695,150289.026,150572.365,,22,the
screen,html.Screen,2_1_1_1_23,2022-02-02T14:34:11.634Z,,,,,,,,,,,,,,,,,54,,,,,,,,,,,,,,243.53499985695817,,response,,,,100,,,,,,,Space,keypress(Space),,,,,,,,-- --- ---- --- ------ ----- ------- ---- -- --- ------- --<br>------- ---------- ------ -- ----- -- ----- -- ---- ------<br>--- state --- --- ------ -------- ----- --- ------ ----- --<br>----- ----- ---------- --- --- ------ ------ ---- -- ------<br>------- --- ------ ----- --- ---- ------- -- ---- --- --<br>------- ------,150819.59999990463,150815.89999985695,150555.698,150565.69999980927,150572.365,150822.37,,23,state
screen,html.Screen,2_1_1_1_24,2022-02-02T14:34:11.872Z,,,,,,,,,,,,,,,,,54,,,,,,,,,,,,,,229.8299998092698,,response,,,,100,,,,,,,Space,keypress(Space),,,,,,,,-- --- ---- --- ------ ----- ------- ---- -- --- ------- --<br>------- ---------- ------ -- ----- -- ----- -- ---- ------<br>--- ----- cut --- ------ -------- ----- --- ------ ----- --<br>----- ----- ---------- --- --- ------ ------ ---- -- ------<br>------- --- ------ ----- --- ---- ------- -- ---- --- --<br>------- ------,151057.59999990463,151052.19999980927,150805.703,150819.69999980927,150822.37,151072.375,,24,cut
screen,html.Screen,2_1_1_1_25,2022-02-02T14:34:12.102Z,,,,,,,,,,,,,,,,,54,,,,,,,,,,,,,,209.125,,response,,,,100,,,,,,,Space,keypress(Space),,,,,,,,-- --- ---- --- ------ ----- ------- ---- -- --- ------- --<br>------- ---------- ------ -- ----- -- ----- -- ---- ------<br>--- ----- --- the ------ -------- ----- --- ------ ----- --<br>----- ----- ---------- --- --- ------ ------ ---- -- ------<br>------- --- ------ ----- --- ---- ------- -- ---- --- --<br>------- ------,151287.5,151281.5,151055.708,151057.79999995232,151072.375,151289.046,,25,the
screen,html.Screen,2_1_1_1_26,2022-02-02T14:34:12.374Z,,,,,,,,,,,,,,,,,54,,,,,,,,,,,,,,265.2539999523142,,response,,,,100,,,,,,,Space,keypress(Space),,,,,,,,-- --- ---- --- ------ ----- ------- ---- -- --- ------- --<br>------- ---------- ------ -- ----- -- ----- -- ---- ------<br>--- ----- --- --- bonds' -------- ----- --- ------ ----- --<br>----- ----- ---------- --- --- ------ ------ ---- -- ------<br>------- --- ------ ----- --- ---- ------- -- ---- --- --<br>------- ------,151559.89999985695,151554.29999995232,151272.379,151287.69999980927,151289.046,151572.385,,26,bonds'
screen,html.Screen,2_1_1_1_27,2022-02-02T14:34:12.635Z,,,,,,,,,,,,,,,,,54,,,,,,,,,,,,,,242.71499990462326,,response,,,,100,,,,,,,Space,keypress(Space),,,,,,,,-- --- ---- --- ------ ----- ------- ---- -- --- ------- --<br>------- ---------- ------ -- ----- -- ----- -- ---- ------<br>--- ----- --- --- ------ interest ----- --- ------ ----- --<br>----- ----- ---------- --- --- ------ ------ ---- -- ------<br>------- --- ------ ----- --- ---- ------- -- ---- --- --<br>------- ------,151820.59999990463,151815.09999990463,151555.718,151560.19999980927,151572.385,151822.39,,27,interest
screen,html.Screen,2_1_1_1_28,2022-02-02T14:34:12.915Z,,,,,,,,,,,,,,,,,54,,,,,,,,,,,,,,272.80999980925117,,response,,,,100,,,,,,,Space,keypress(Space),,,,,,,,-- --- ---- --- ------ ----- ------- ---- -- --- ------- --<br>------- ---------- ------ -- ----- -- ----- -- ---- ------<br>--- ----- --- --- ------ -------- rate. --- ------ ----- --<br>----- ----- ---------- --- --- ------ ------ ---- -- ------<br>------- --- ------ ----- --- ---- ------- -- ---- --- --<br>------- ------,152100.79999995232,152095.19999980927,151805.723,151820.79999995232,151822.39,152105.729,,28,rate.
screen,html.Screen,2_1_1_1_29,2022-02-02T14:34:13.236Z,,,,,,,,,,,,,,,,,54,,,,,,,,,,,,,,310.5709999523242,,response,,,,100,,,,,,,Space,keypress(Space),,,,,,,,-- --- ---- --- ------ ----- ------- ---- -- --- ------- --<br>------- ---------- ------ -- ----- -- ----- -- ---- ------<br>--- ----- --- --- ------ -------- ----- The ------ ----- --<br>----- ----- ---------- --- --- ------ ------ ---- -- ------<br>------- --- ------ ----- --- ---- ------- -- ---- --- --<br>------- ------,152421.69999980927,152416.29999995232,152089.062,152101.09999990463,152105.729,152439.069,,29,The
screen,html.Screen,2_1_1_1_30,2022-02-02T14:34:13.539Z,,,,,,,,,,,,,,,,,54,,,,,,,,,,,,,,280.13099980927655,,response,,,,100,,,,,,,Space,keypress(Space),,,,,,,,-- --- ---- --- ------ ----- ------- ---- -- --- ------- --<br>------- ---------- ------ -- ----- -- ----- -- ---- ------<br>--- ----- --- --- ------ -------- ----- --- market ----- --<br>----- ----- ---------- --- --- ------ ------ ---- -- ------<br>------- --- ------ ----- --- ---- ------- -- ---- --- --<br>------- ------,152724.59999990463,152719.19999980927,152422.402,152422,152439.069,152739.075,,30,market
screen,html.Screen,2_1_1_1_31,2022-02-02T14:34:13.808Z,,,,,,,,,,,,,,,,,54,,,,,,,,,,,,,,249.1249998092535,,response,,,,100,,,,,,,Space,keypress(Space),,,,,,,,-- --- ---- --- ------ ----- ------- ---- -- --- ------- --<br>------- ---------- ------ -- ----- -- ----- -- ---- ------<br>--- ----- --- --- ------ -------- ----- --- ------ value --<br>----- ----- ---------- --- --- ------ ------ ---- -- ------<br>------- --- ------ ----- --- ---- ------- -- ---- --- --<br>------- ------,152993.89999985695,152988.19999980927,152722.408,152724.79999995232,152739.075,153005.747,,31,value
screen,html.Screen,2_1_1_1_32,2022-02-02T14:34:14.065Z,,,,,,,,,,,,,,,,,54,,,,,,,,,,,,,,239.4529998092621,,response,,,,100,,,,,,,Space,keypress(Space),,,,,,,,-- --- ---- --- ------ ----- ------- ---- -- --- ------- --<br>------- ---------- ------ -- ----- -- ----- -- ---- ------<br>--- ----- --- --- ------ -------- ----- --- ------ ----- of<br>----- ----- ---------- --- --- ------ ------ ---- -- ------<br>------- --- ------ ----- --- ---- ------- -- ---- --- --<br>------- ------,153250.79999995232,153245.19999980927,152989.08,152994.09999990463,153005.747,153255.752,,32,of
screen,html.Screen,2_1_1_1_33,2022-02-02T14:34:14.333Z,,,,,,,,,,,,,,,,,54,,,,,,,,,,,,,,257.3479999046249,,response,,,,100,,,,,,,Space,keypress(Space),,,,,,,,-- --- ---- --- ------ ----- ------- ---- -- --- ------- --<br>------- ---------- ------ -- ----- -- ----- -- ---- ------<br>--- ----- --- --- ------ -------- ----- --- ------ ----- --<br>these ----- ---------- --- --- ------ ------ ---- -- ------<br>------- --- ------ ----- --- ---- ------- -- ---- --- --<br>------- ------,153518.5,153513.09999990463,153239.085,153251.09999990463,153255.752,153522.424,,33,these
screen,html.Screen,2_1_1_1_34,2022-02-02T14:34:14.587Z,,,,,,,,,,,,,,,,,54,,,,,,,,,,,,,,244.6759999046335,,response,,,,100,,,,,,,Space,keypress(Space),,,,,,,,-- --- ---- --- ------ ----- ------- ---- -- --- ------- --<br>------- ---------- ------ -- ----- -- ----- -- ---- ------<br>--- ----- --- --- ------ -------- ----- --- ------ ----- --<br>----- bonds ---------- --- --- ------ ------ ---- -- ------<br>------- --- ------ ----- --- ---- ------- -- ---- --- --<br>------- ------,153772.89999985695,153767.09999990463,153505.757,153518.69999980927,153522.424,153789.096,,34,bonds
screen,html.Screen,2_1_1_1_35,2022-02-02T14:34:14.863Z,,,,,,,,,,,,,,,,,54,,,,,,,,,,,,,,254.3039998569584,,response,,,,100,,,,,,,Space,keypress(Space),,,,,,,,"-- --- ---- --- ------ ----- ------- ---- -- --- ------- --<br>------- ---------- ------ -- ----- -- ----- -- ---- ------<br>--- ----- --- --- ------ -------- ----- --- ------ ----- --<br>----- ----- plummeted, --- --- ------ ------ ---- -- ------<br>------- --- ------ ----- --- ---- ------- -- ---- --- --<br>------- ------",154048.39999985695,154043.39999985695,153772.429,153773.59999990463,153789.096,154055.768,,35,"plummeted,"
screen,html.Screen,2_1_1_1_36,2022-02-02T14:34:15.135Z,,,,,,,,,,,,,,,,,54,,,,,,,,,,,,,,259.3319999046216,,response,,,,100,,,,,,,Space,keypress(Space),,,,,,,,-- --- ---- --- ------ ----- ------- ---- -- --- ------- --<br>------- ---------- ------ -- ----- -- ----- -- ---- ------<br>--- ----- --- --- ------ -------- ----- --- ------ ----- --<br>----- ----- ---------- and --- ------ ------ ---- -- ------<br>------- --- ------ ----- --- ---- ------- -- ---- --- --<br>------- ------,154320.29999995232,154315.09999990463,154039.101,154048.5,154055.768,154322.44,,36,and
screen,html.Screen,2_1_1_1_37,2022-02-02T14:34:15.425Z,,,,,,,,,,,,,,,,,54,,,,,,,,,,,,,,281.5599999999977,,response,,,,100,,,,,,,Space,keypress(Space),,,,,,,,-- --- ---- --- ------ ----- ------- ---- -- --- ------- --<br>------- ---------- ------ -- ----- -- ----- -- ---- ------<br>--- ----- --- --- ------ -------- ----- --- ------ ----- --<br>----- ----- ---------- --- the ------ ------ ---- -- ------<br>------- --- ------ ----- --- ---- ------- -- ---- --- --<br>------- ------,154610.69999980927,154604,154305.773,154320.59999990463,154322.44,154622.446,,37,the
screen,html.Screen,2_1_1_1_38,2022-02-02T14:34:15.705Z,,,,,,,,,,,,,,,,,54,,,,,,,,,,,,,,264.0540000000037,,response,,,,100,,,,,,,Space,keypress(Space),,,,,,,,-- --- ---- --- ------ ----- ------- ---- -- --- ------- --<br>------- ---------- ------ -- ----- -- ----- -- ---- ------<br>--- ----- --- --- ------ -------- ----- --- ------ ----- --<br>----- ----- ---------- --- --- market ------ ---- -- ------<br>------- --- ------ ----- --- ---- ------- -- ---- --- --<br>------- ------,154890.89999985695,154886.5,154605.779,154611,154622.446,154905.785,,38,market
screen,html.Screen,2_1_1_1_39,2022-02-02T14:34:15.988Z,,,,,,,,,,,,,,,,,54,,,,,,,,,,,,,,263.0149999523128,,response,,,,100,,,,,,,Space,keypress(Space),,,,,,,,-- --- ---- --- ------ ----- ------- ---- -- --- ------- --<br>------- ---------- ------ -- ----- -- ----- -- ---- ------<br>--- ----- --- --- ------ -------- ----- --- ------ ----- --<br>----- ----- ---------- --- --- ------ became ---- -- ------<br>------- --- ------ ----- --- ---- ------- -- ---- --- --<br>------- ------,155173.39999985695,155168.79999995232,154889.118,154891,154905.785,155189.124,,39,became
screen,html.Screen,2_1_1_1_40,2022-02-02T14:34:16.275Z,,,,,,,,,,,,,,,,,54,,,,,,,,,,,,,,266.27599985693814,,response,,,,100,,,,,,,Space,keypress(Space),,,,,,,,-- --- ---- --- ------ ----- ------- ---- -- --- ------- --<br>------- ---------- ------ -- ----- -- ----- -- ---- ------<br>--- ----- --- --- ------ -------- ----- --- ------ ----- --<br>----- ----- ---------- --- --- ------ ------ wary -- ------<br>------- --- ------ ----- --- ---- ------- -- ---- --- --<br>------- ------,155461.09999990463,155455.39999985695,155172.457,155173.59999990463,155189.124,155472.463,,40,wary
screen,html.Screen,2_1_1_1_41,2022-02-02T14:34:16.600Z,,,,,,,,,,,,,,,,,54,,,,,,,,,,,,,,307.63699990464374,,response,,,,100,,,,,,,Space,keypress(Space),,,,,,,,-- --- ---- --- ------ ----- ------- ---- -- --- ------- --<br>------- ---------- ------ -- ----- -- ----- -- ---- ------<br>--- ----- --- --- ------ -------- ----- --- ------ ----- --<br>----- ----- ---------- --- --- ------ ------ ---- of ------<br>------- --- ------ ----- --- ---- ------- -- ---- --- --<br>------- ------,155785.59999990463,155780.09999990463,155455.796,155461.29999995232,155472.463,155789.136,,41,of
screen,html.Screen,2_1_1_1_42,2022-02-02T14:34:16.903Z,,,,,,,,,,,,,,,,,54,,,,,,,,,,,,,,294.26399985695025,,response,,,,100,,,,,,,Space,keypress(Space),,,,,,,,-- --- ---- --- ------ ----- ------- ---- -- --- ------- --<br>------- ---------- ------ -- ----- -- ----- -- ---- ------<br>--- ----- --- --- ------ -------- ----- --- ------ ----- --<br>----- ----- ---------- --- --- ------ ------ ---- -- French<br>------- --- ------ ----- --- ---- ------- -- ---- --- --<br>------- ------,156088.89999985695,156083.39999985695,155772.469,155785.89999985695,155789.136,156105.809,,42,French
screen,html.Screen,2_1_1_1_43,2022-02-02T14:34:17.186Z,,,,,,,,,,,,,,,,,54,,,,,,,,,,,,,,260.4909999523079,,response,,,,100,,,,,,,Space,keypress(Space),,,,,,,,-- --- ---- --- ------ ----- ------- ---- -- --- ------- --<br>------- ---------- ------ -- ----- -- ----- -- ---- ------<br>--- ----- --- --- ------ -------- ----- --- ------ ----- --<br>----- ----- ---------- --- --- ------ ------ ---- -- ------<br>credit. --- ------ ----- --- ---- ------- -- ---- --- --<br>------- ------,156371.59999990463,156366.29999995232,156089.142,156089.19999980927,156105.809,156389.148,,43,credit.
screen,html.Screen,2_1_1_1_44,2022-02-02T14:34:17.475Z,,,,,,,,,,,,,,,,,54,,,,,,,,,,,,,,265.9519999046461,,response,,,,100,,,,,,,Space,keypress(Space),,,,,,,,-- --- ---- --- ------ ----- ------- ---- -- --- ------- --<br>------- ---------- ------ -- ----- -- ----- -- ---- ------<br>--- ----- --- --- ------ -------- ----- --- ------ ----- --<br>----- ----- ---------- --- --- ------ ------ ---- -- ------<br>------- The ------ ----- --- ---- ------- -- ---- --- --<br>------- ------,156660.69999980927,156655.09999990463,156372.481,156371.79999995232,156389.148,156672.487,,44,The
screen,html.Screen,2_1_1_1_45,2022-02-02T14:34:17.904Z,,,,,,,,,,,,,,,,,54,,,,,,,,,,,,,,411.7129998092714,,response,,,,100,,,,,,,Space,keypress(Space),,,,,,,,-- --- ---- --- ------ ----- ------- ---- -- --- ------- --<br>------- ---------- ------ -- ----- -- ----- -- ---- ------<br>--- ----- --- --- ------ -------- ----- --- ------ ----- --<br>----- ----- ---------- --- --- ------ ------ ---- -- ------<br>------- --- French ----- --- ---- ------- -- ---- --- --<br>------- ------,157090,157084.19999980927,156655.82,156661,156672.487,157105.829,,45,French
screen,html.Screen,2_1_1_1_46,2022-02-02T14:34:18.218Z,,,,,,,,,,,,,,,,,54,,,,,,,,,,,,,,292.6710000000021,,response,,,,100,,,,,,,Space,keypress(Space),,,,,,,,-- --- ---- --- ------ ----- ------- ---- -- --- ------- --<br>------- ---------- ------ -- ----- -- ----- -- ---- ------<br>--- ----- --- --- ------ -------- ----- --- ------ ----- --<br>----- ----- ---------- --- --- ------ ------ ---- -- ------<br>------- --- ------ state --- ---- ------- -- ---- --- --<br>------- ------,157403.79999995232,157398.5,157089.162,157090.19999980927,157105.829,157405.835,,46,state
screen,html.Screen,2_1_1_1_47,2022-02-02T14:34:18.533Z,,,,,,,,,,,,,,,,,54,,,,,,,,,,,,,,307.3649998092733,,response,,,,100,,,,,,,Space,keypress(Space),,,,,,,,-- --- ---- --- ------ ----- ------- ---- -- --- ------- --<br>------- ---------- ------ -- ----- -- ----- -- ---- ------<br>--- ----- --- --- ------ -------- ----- --- ------ ----- --<br>----- ----- ---------- --- --- ------ ------ ---- -- ------<br>------- --- ------ ----- was ---- ------- -- ---- --- --<br>------- ------,157718.5,157713.19999980927,157389.168,157404.09999990463,157405.835,157722.508,,47,was
screen,html.Screen,2_1_1_1_48,2022-02-02T14:34:18.801Z,,,,,,,,,,,,,,,,,54,,,,,,,,,,,,,,258.79199995231465,,response,,,,100,,,,,,,Space,keypress(Space),,,,,,,,-- --- ---- --- ------ ----- ------- ---- -- --- ------- --<br>------- ---------- ------ -- ----- -- ----- -- ---- ------<br>--- ----- --- --- ------ -------- ----- --- ------ ----- --<br>----- ----- ---------- --- --- ------ ------ ---- -- ------<br>------- --- ------ ----- --- left ------- -- ---- --- --<br>------- ------,157987.09999990463,157981.29999995232,157705.841,157718.69999980927,157722.508,157989.18,,48,left
screen,html.Screen,2_1_1_1_49,2022-02-02T14:34:19.265Z,,,,,,,,,,,,,,,,,54,,,,,,,,,,,,,,456.11999995232327,,response,,,,100,,,,,,,Space,keypress(Space),,,,,,,,-- --- ---- --- ------ ----- ------- ---- -- --- ------- --<br>------- ---------- ------ -- ----- -- ----- -- ---- ------<br>--- ----- --- --- ------ -------- ----- --- ------ ----- --<br>----- ----- ---------- --- --- ------ ------ ---- -- ------<br>------- --- ------ ----- --- ---- without -- ---- --- --<br>------- ------,158450.79999995232,158445.29999995232,157972.513,157987.39999985695,157989.18,158455.856,,49,without
screen,html.Screen,2_1_1_1_50,2022-02-02T14:34:19.537Z,,,,,,,,,,,,,,,,,54,,,,,,,,,,,,,,261.34399980926537,,response,,,,100,,,,,,,Space,keypress(Space),,,,,,,,-- --- ---- --- ------ ----- ------- ---- -- --- ------- --<br>------- ---------- ------ -- ----- -- ----- -- ---- ------<br>--- ----- --- --- ------ -------- ----- --- ------ ----- --<br>----- ----- ---------- --- --- ------ ------ ---- -- ------<br>------- --- ------ ----- --- ---- ------- an ---- --- --<br>------- ------,158722.59999990463,158717.19999980927,158439.189,158451.09999990463,158455.856,158739.195,,50,an
screen,html.Screen,2_1_1_1_51,2022-02-02T14:34:19.782Z,,,,,,,,,,,,,,,,,54,,,,,,,,,,,,,,223.1049999523093,,response,,,,100,,,,,,,Space,keypress(Space),,,,,,,,-- --- ---- --- ------ ----- ------- ---- -- --- ------- --<br>------- ---------- ------ -- ----- -- ----- -- ---- ------<br>--- ----- --- --- ------ -------- ----- --- ------ ----- --<br>----- ----- ---------- --- --- ------ ------ ---- -- ------<br>------- --- ------ ----- --- ---- ------- -- easy --- --<br>------- ------,158967.79999995232,158962.29999995232,158722.528,158722.89999985695,158739.195,158972.533,,51,easy
screen,html.Screen,2_1_1_1_52,2022-02-02T14:34:20.189Z,,,,,,,,,,,,,,,,,54,,,,,,,,,,,,,,396.86699985695304,,response,,,,100,,,,,,,Space,keypress(Space),,,,,,,,-- --- ---- --- ------ ----- ------- ---- -- --- ------- --<br>------- ---------- ------ -- ----- -- ----- -- ---- ------<br>--- ----- --- --- ------ -------- ----- --- ------ ----- --<br>----- ----- ---------- --- --- ------ ------ ---- -- ------<br>------- --- ------ ----- --- ---- ------- -- ---- way --<br>------- ------,159374.89999985695,159369.39999985695,158955.866,158968.09999990463,158972.533,159389.208,,52,way
screen,html.Screen,2_1_1_1_53,2022-02-02T14:34:20.506Z,,,,,,,,,,,,,,,,,54,,,,,,,,,,,,,,296.99199980925187,,response,,,,100,,,,,,,Space,keypress(Space),,,,,,,,-- --- ---- --- ------ ----- ------- ---- -- --- ------- --<br>------- ---------- ------ -- ----- -- ----- -- ---- ------<br>--- ----- --- --- ------ -------- ----- --- ------ ----- --<br>----- ----- ---------- --- --- ------ ------ ---- -- ------<br>------- --- ------ ----- --- ---- ------- -- ---- --- of<br>------- ------,159691.59999990463,159686.19999980927,159372.541,159375.09999990463,159389.208,159705.972,,53,of
screen,html.Screen,2_1_1_1_54,2022-02-02T14:34:20.780Z,,,,,,,,,,,,,,,,,54,,,,,,,,,,,,,,254.42799985694,,response,,,,100,,,,,,,Space,keypress(Space),,,,,,,,-- --- ---- --- ------ ----- ------- ---- -- --- ------- --<br>------- ---------- ------ -- ----- -- ----- -- ---- ------<br>--- ----- --- --- ------ -------- ----- --- ------ ----- --<br>----- ----- ---------- --- --- ------ ------ ---- -- ------<br>------- --- ------ ----- --- ---- ------- -- ---- --- --<br>raising ------,159966.09999990463,159960.39999985695,159689.305,159691.79999995232,159705.972,159972.644,,54,raising
screen,html.Screen,2_1_1_1_55,2022-02-02T14:34:21.237Z,,,,,,,,,,,,,,,,,54,,,,,,,,,,,,,,446.65599995231605,,response,,,,100,,,,,,,Space,keypress(Space),,,,,,,,-- --- ---- --- ------ ----- ------- ---- -- --- ------- --<br>------- ---------- ------ -- ----- -- ----- -- ---- ------<br>--- ----- --- --- ------ -------- ----- --- ------ ----- --<br>----- ----- ---------- --- --- ------ ------ ---- -- ------<br>------- --- ------ ----- --- ---- ------- -- ---- --- --<br>------- money.,160422.69999980927,160419.29999995232,159955.977,159966.29999995232,159972.644,160439.32,,55,money.
Item 100,flow.Loop,2_1_1_1,2022-02-02T14:34:21.237Z,,,,,,,,,,,,,,,,,,,,,,,,,,,,,,,16563.82599995233,,completion,,,,,C,,,,,,,,,,,silence,,,,,160422.89999985695,160419.29999995232,143838.807,143841.19999980927,143855.474,160439.32,,,
Question 1,html.Screen,2_1_1_2,2022-02-02T14:34:23.557Z,,,,,,,,,,,,,,,,,,,,,,,,,,,,true,TRUE,,2300.879999809258,,response,,,,100,C,,,,,,TRUE,click #choice-1,,,,silence,,,,,162742.5,162740.19999980927,160422.653,160422.89999985695,160439.32,162756.033,,,
Question 2,html.Screen,2_1_1_3,2022-02-02T14:34:26.239Z,,,,,,,,,,,,,,,,,,,,,,,,,,,,false,FALSE,,2667.5669999046368,,response,,,,100,C,,,,,,TRUE,click #choice-1,,,,silence,,,,,165425.59999990463,165423.59999990463,162739.366,162742.69999980927,162756.033,165439.42,,,
Item 100,flow.Sequence,2_1_1,2022-02-02T14:34:26.240Z,,,,,,,,,,,,,,,,,,,,,,,,,,,,,,,31568.444999904634,,completion,,,,,,,,,,,,,,,,,,,,,165425.89999985695,165423.59999990463,133838.488,133841.5,133855.155,165439.42,,,
End of Practice,html.Page,2_1_2,2022-02-02T14:34:31.474Z,,,,,,,,,,,,,,,,,,,,,,,,,,,,,,,5220.279999809252,,form submission,,,,,,,,,,,,,,,,,,,,,170660.29999995232,170659.69999980927,165422.753,165425.89999985695,165439.42,170672.855,,,
Practice,flow.Sequence,2_1,2022-02-02T14:34:31.474Z,,,,,,,,,,,,,,,,,,,,,,,,,,,,,,,72405.51399980926,,completion,,,,,,,,,,,,,,,,,,,,,170660.69999980927,170659.69999980927,98237.519,98245.59999990463,98254.186,170672.855,,,
Trap_instruction,html.Page,2_2_0,2022-02-02T14:34:37.223Z,,,,,,,,,,,,,,,,,,,,,,,,,,,,,,,5736.1449999999895,,form submission,,,,,,,,,,,,,,,,,,,,,176409.39999985695,176409,170656.188,170661,170672.855,176422.97,,,
trap_trial,html.Screen,2_2_1,2022-02-02T14:34:41.173Z,,,,,,,,,,,,,,,,,,,,,,,,,,,,true,1,,3934.329999952315,,response,,,,,,,,,,,1,click #choice-1,,,,,,,,,180359.79999995232,180357.29999995232,176406.303,176409.59999990463,176422.97,180373.049,,,
end of trap trial,html.Page,2_2_2,2022-02-02T14:34:42.974Z,,,,,,,,,,,,,,,,,,,,,,,,,,,,,,,1787.3509998569498,,form submission,,,,,,,,,,,,,,,,,,,,,182160.89999985695,182160.39999985695,180356.382,180360.09999990463,180373.049,182173.077,,,
Trap 1,flow.Sequence,2_2,2022-02-02T14:34:42.974Z,,,,,,,,,,,,,,,,,,,,,,,,,,,,,,,11487.544999856938,,completion,,,,,,,,,,,,,,,,,,,,,182161.19999980927,182160.39999985695,170656.188,170660.89999985695,170672.855,182173.077,,,
Standby,html.Page,2_3_0,2022-02-02T14:34:50.972Z,,,,,,,,,,,,,,,,,,,,,,,,,,,,,,,8000.1600000000035,,timeout,,,,,,,,,,,,,,,,,,,,,190158.89999985695,190156.57,182156.41,182161.39999985695,182173.077,190173.237,,,
Holding screen,html.Screen,2_3_1_0_0,2022-02-02T14:34:57.972Z,,,,,,,,,,,,,,,,,,,,,,,,,,,,,,,7000.257000000012,,timeout,,,,,,,,,,,,,,,,,,,,,197159.09999990463,197156.827,190156.57,190159.19999980927,190173.237,197173.494,,,
screen,html.Screen,2_3_1_0_1_0,2022-02-02T14:34:58.567Z,,,,,,,,,,,,,,,,,2,,,,,,,,,,,,,,573.6059999046265,,response,,,,1,C,,,,,,Space,keypress(Space),,,,instrumental,,,,Two ---- ------ --- ------- ---------- ------- ----------<br>--- --------- --- ----------- ------- ----- ------- ---<br>--------- ---- -- --- ---- -- --------- -- ---- -------<br>-- --------- ------ --- ----- ------ ---- --- --------- --<br>------ - ---- -- --- ----------- ------- ---- ----- -----<br>--- -------- - ------ ---- -- ----- ---- --- --- -----------<br>-- -------,197754,197747.09999990463,197156.827,197159.59999990463,197173.494,197756.839,,0,Two
screen,html.Screen,2_3_1_0_1_1,2022-02-02T14:34:58.790Z,,,,,,,,,,,,,,,,,2,,,,,,,,,,,,,,214.76099990462535,,response,,,,1,C,,,,,,Space,keypress(Space),,,,instrumental,,,,--- days ------ --- ------- ---------- ------- ----------<br>--- --------- --- ----------- ------- ----- ------- ---<br>--------- ---- -- --- ---- -- --------- -- ---- -------<br>-- --------- ------ --- ----- ------ ---- --- --------- --<br>------ - ---- -- --- ----------- ------- ---- ----- -----<br>--- -------- - ------ ---- -- ----- ---- --- --- -----------<br>-- -------,197977.09999990463,197971.59999990463,197740.172,197754.39999985695,197756.839,197990.177,,1,days
screen,html.Screen,2_3_1_0_1_2,2022-02-02T14:34:59.027Z,,,,,,,,,,,,,,,,,2,,,,,,,,,,,,,,219.62299995232024,,response,,,,1,C,,,,,,Space,keypress(Space),,,,instrumental,,,,"--- ---- later, --- ------- ---------- ------- ----------<br>--- --------- --- ----------- ------- ----- ------- ---<br>--------- ---- -- --- ---- -- --------- -- ---- -------<br>-- --------- ------ --- ----- ------ ---- --- --------- --<br>------ - ---- -- --- ----------- ------- ---- ----- -----<br>--- -------- - ------ ---- -- ----- ---- --- --- -----------<br>-- -------",198214.39999985695,198209.79999995232,197973.51,197977.5,197990.177,198223.515,,2,"later,"
screen,html.Screen,2_3_1_0_1_3,2022-02-02T14:34:59.262Z,,,,,,,,,,,,,,,,,2,,,,,,,,,,,,,,219.98499999998603,,response,,,,1,C,,,,,,Space,keypress(Space),,,,instrumental,,,,--- ---- ------ the ------- ---------- ------- ----------<br>--- --------- --- ----------- ------- ----- ------- ---<br>--------- ---- -- --- ---- -- --------- -- ---- -------<br>-- --------- ------ --- ----- ------ ---- --- --------- --<br>------ - ---- -- --- ----------- ------- ---- ----- -----<br>--- -------- - ------ ---- -- ----- ---- --- --- -----------<br>-- -------,198449.19999980927,198443.5,198206.848,198214.5,198223.515,198456.853,,3,the
screen,html.Screen,2_3_1_0_1_4,2022-02-02T14:34:59.539Z,,,,,,,,,,,,,,,,,2,,,,,,,,,,,,,,263.84699980926234,,response,,,,1,C,,,,,,Space,keypress(Space),,,,instrumental,,,,--- ---- ------ --- British ---------- ------- ----------<br>--- --------- --- ----------- ------- ----- ------- ---<br>--------- ---- -- --- ---- -- --------- -- ---- -------<br>-- --------- ------ --- ----- ------ ---- --- --------- --<br>------ - ---- -- --- ----------- ------- ---- ----- -----<br>--- -------- - ------ ---- -- ----- ---- --- --- -----------<br>-- -------,198726.69999980927,198720.69999980927,198440.186,198449.5,198456.853,198740.192,,4,British
screen,html.Screen,2_3_1_0_1_5,2022-02-02T14:34:59.789Z,,,,,,,,,,,,,,,,,2,,,,,,,,,,,,,,230.40799990462256,,response,,,,1,C,,,,,,Space,keypress(Space),,,,instrumental,,,,--- ---- ------ --- ------- astronomer ------- ----------<br>--- --------- --- ----------- ------- ----- ------- ---<br>--------- ---- -- --- ---- -- --------- -- ---- -------<br>-- --------- ------ --- ----- ------ ---- --- --------- --<br>------ - ---- -- --- ----------- ------- ---- ----- -----<br>--- -------- - ------ ---- -- ----- ---- --- --- -----------<br>-- -------,198976.39999985695,198970.59999990463,198723.525,198727,198740.192,198990.197,,5,astronomer
screen,html.Screen,2_3_1_0_1_6,2022-02-02T14:35:00.049Z,,,,,,,,,,,,,,,,,2,,,,,,,,,,,,,,240.60299995233072,,response,,,,1,C,,,,,,Space,keypress(Space),,,,instrumental,,,,--- ---- ------ --- ------- ---------- Richard ----------<br>--- --------- --- ----------- ------- ----- ------- ---<br>--------- ---- -- --- ---- -- --------- -- ---- -------<br>-- --------- ------ --- ----- ------ ---- --- --------- --<br>------ - ---- -- --- ----------- ------- ---- ----- -----<br>--- -------- - ------ ---- -- ----- ---- --- --- -----------<br>-- -------,199236.19999980927,199230.79999995232,198973.53,198976.59999990463,198990.197,199240.202,,6,Richard
screen,html.Screen,2_3_1_0_1_7,2022-02-02T14:35:00.315Z,,,,,,,,,,,,,,,,,2,,,,,,,,,,,,,,256.39799990464235,,response,,,,1,C,,,,,,Space,keypress(Space),,,,instrumental,,,,--- ---- ------ --- ------- ---------- ------- Carrington<br>--- --------- --- ----------- ------- ----- ------- ---<br>--------- ---- -- --- ---- -- --------- -- ---- -------<br>-- --------- ------ --- ----- ------ ---- --- --------- --<br>------ - ---- -- --- ----------- ------- ---- ----- -----<br>--- -------- - ------ ---- -- ----- ---- --- --- -----------<br>-- -------,199502.39999985695,199496.59999990463,199223.535,199236.5,199240.202,199506.874,,7,Carrington
screen,html.Screen,2_3_1_0_1_8,2022-02-02T14:35:00.601Z,,,,,,,,,,,,,,,,,2,,,,,,,,,,,,,,277.1259999999893,,response,,,,1,C,,,,,,Space,keypress(Space),,,,instrumental,,,,--- ---- ------ --- ------- ---------- ------- ----------<br>was --------- --- ----------- ------- ----- ------- ---<br>--------- ---- -- --- ---- -- --------- -- ---- -------<br>-- --------- ------ --- ----- ------ ---- --- --------- --<br>------ - ---- -- --- ----------- ------- ---- ----- -----<br>--- -------- - ------ ---- -- ----- ---- --- --- -----------<br>-- -------,199788.5,199784,199490.207,199502.59999990463,199506.874,199790.213,,8,was
screen,html.Screen,2_3_1_0_1_9,2022-02-02T14:35:00.872Z,,,,,,,,,,,,,,,,,2,,,,,,,,,,,,,,263.38699990464374,,response,,,,1,C,,,,,,Space,keypress(Space),,,,instrumental,,,,--- ---- ------ --- ------- ---------- ------- ----------<br>--- observing --- ----------- ------- ----- ------- ---<br>--------- ---- -- --- ---- -- --------- -- ---- -------<br>-- --------- ------ --- ----- ------ ---- --- --------- --<br>------ - ---- -- --- ----------- ------- ---- ----- -----<br>--- -------- - ------ ---- -- ----- ---- --- --- -----------<br>-- -------,200059.29999995232,200053.59999990463,199773.546,199788.59999990463,199790.213,200073.552,,9,observing
screen,html.Screen,2_3_1_0_1_10,2022-02-02T14:35:01.167Z,,,,,,,,,,,,,,,,,2,,,,,,,,,,,,,,274.94800000000396,,response,,,,1,C,,,,,,Space,keypress(Space),,,,instrumental,,,,--- ---- ------ --- ------- ---------- ------- ----------<br>--- --------- the ----------- ------- ----- ------- ---<br>--------- ---- -- --- ---- -- --------- -- ---- -------<br>-- --------- ------ --- ----- ------ ---- --- --------- --<br>------ - ---- -- --- ----------- ------- ---- ----- -----<br>--- -------- - ------ ---- -- ----- ---- --- --- -----------<br>-- -------,200354.59999990463,200348.5,200056.885,200059.59999990463,200073.552,200356.891,,10,the
screen,html.Screen,2_3_1_0_1_11,2022-02-02T14:35:01.446Z,,,,,,,,,,,,,,,,,2,,,,,,,,,,,,,,270.7089999046293,,response,,,,1,C,,,,,,Space,keypress(Space),,,,instrumental,,,,--- ---- ------ --- ------- ---------- ------- ----------<br>--- --------- --- interesting ------- ----- ------- ---<br>--------- ---- -- --- ---- -- --------- -- ---- -------<br>-- --------- ------ --- ----- ------ ---- --- --------- --<br>------ - ---- -- --- ----------- ------- ---- ----- -----<br>--- -------- - ------ ---- -- ----- ---- --- --- -----------<br>-- -------,200633.29999995232,200627.59999990463,200340.224,200355,200356.891,200640.23,,11,interesting
screen,html.Screen,2_3_1_0_1_12,2022-02-02T14:35:01.755Z,,,,,,,,,,,,,,,,,2,,,,,,,,,,,,,,296.2699999999895,,response,,,,1,C,,,,,,Space,keypress(Space),,,,instrumental,,,,--- ---- ------ --- ------- ---------- ------- ----------<br>--- --------- --- ----------- sunspot ----- ------- ---<br>--------- ---- -- --- ---- -- --------- -- ---- -------<br>-- --------- ------ --- ----- ------ ---- --- --------- --<br>------ - ---- -- --- ----------- ------- ---- ----- -----<br>--- -------- - ------ ---- -- ----- ---- --- --- -----------<br>-- -------,200942.59999990463,200936.5,200623.563,200633.59999990463,200640.23,200956.903,,12,sunspot
screen,html.Screen,2_3_1_0_1_13,2022-02-02T14:35:02.642Z,,,,,,,,,,,,,,,,,2,,,,,,,,,,,,,,866.796999809274,,response,,,,1,C,,,,,,Space,keypress(Space),,,,instrumental,,,,--- ---- ------ --- ------- ---------- ------- ----------<br>--- --------- --- ----------- ------- group ------- ---<br>--------- ---- -- --- ---- -- --------- -- ---- -------<br>-- --------- ------ --- ----- ------ ---- --- --------- --<br>------ - ---- -- --- ----------- ------- ---- ----- -----<br>--- -------- - ------ ---- -- ----- ---- --- --- -----------<br>-- -------,201829.5,201823.69999980927,200940.236,200943,200956.903,201840.254,,13,group
screen,html.Screen,2_3_1_0_1_14,2022-02-02T14:35:02.915Z,,,,,,,,,,,,,,,,,2,,,,,,,,,,,,,,256.4459998092789,,response,,,,1,C,,,,,,Space,keypress(Space),,,,instrumental,,,,--- ---- ------ --- ------- ---------- ------- ----------<br>--- --------- --- ----------- ------- ----- through ---<br>--------- ---- -- --- ---- -- --------- -- ---- -------<br>-- --------- ------ --- ----- ------ ---- --- --------- --<br>------ - ---- -- --- ----------- ------- ---- ----- -----<br>--- -------- - ------ ---- -- ----- ---- --- --- -----------<br>-- -------,202102.29999995232,202096.69999980927,201823.587,201829.89999985695,201840.254,202106.926,,14,through
screen,html.Screen,2_3_1_0_1_15,2022-02-02T14:35:03.147Z,,,,,,,,,,,,,,,,,2,,,,,,,,,,,,,,221.67399990462582,,response,,,,1,C,,,,,,Space,keypress(Space),,,,instrumental,,,,--- ---- ------ --- ------- ---------- ------- ----------<br>--- --------- --- ----------- ------- ----- ------- his<br>--------- ---- -- --- ---- -- --------- -- ---- -------<br>-- --------- ------ --- ----- ------ ---- --- --------- --<br>------ - ---- -- --- ----------- ------- ---- ----- -----<br>--- -------- - ------ ---- -- ----- ---- --- --- -----------<br>-- -------,202334.09999990463,202328.59999990463,202090.259,202102.5,202106.926,202340.301,,15,his
screen,html.Screen,2_3_1_0_1_16,2022-02-02T14:35:03.370Z,,,,,,,,,,,,,,,,,2,,,,,,,,,,,,,,211.49899995230953,,response,,,,1,C,,,,,,Space,keypress(Space),,,,instrumental,,,,--- ---- ------ --- ------- ---------- ------- ----------<br>--- --------- --- ----------- ------- ----- ------- ---<br>telescope ---- -- --- ---- -- --------- -- ---- -------<br>-- --------- ------ --- ----- ------ ---- --- --------- --<br>------ - ---- -- --- ----------- ------- ---- ----- -----<br>--- -------- - ------ ---- -- ----- ---- --- --- -----------<br>-- -------,202557.69999980927,202551.79999995232,202323.634,202334.39999985695,202340.301,202573.639,,16,telescope
screen,html.Screen,2_3_1_0_1_17,2022-02-02T14:35:03.618Z,,,,,,,,,,,,,,,,,2,,,,,,,,,,,,,,225.86100000000442,,response,,,,1,C,,,,,,Space,keypress(Space),,,,instrumental,,,,--- ---- ------ --- ------- ---------- ------- ----------<br>--- --------- --- ----------- ------- ----- ------- ---<br>--------- when -- --- ---- -- --------- -- ---- -------<br>-- --------- ------ --- ----- ------ ---- --- --------- --<br>------ - ---- -- --- ----------- ------- ---- ----- -----<br>--- -------- - ------ ---- -- ----- ---- --- --- -----------<br>-- -------,202805.29999995232,202799.5,202556.972,202558.09999990463,202573.639,202806.977,,17,when
screen,html.Screen,2_3_1_0_1_18,2022-02-02T14:35:03.927Z,,,,,,,,,,,,,,,,,2,,,,,,,,,,,,,,301.72299980925163,,response,,,,1,C,,,,,,Space,keypress(Space),,,,instrumental,,,,--- ---- ------ --- ------- ---------- ------- ----------<br>--- --------- --- ----------- ------- ----- ------- ---<br>--------- ---- he --- ---- -- --------- -- ---- -------<br>-- --------- ------ --- ----- ------ ---- --- --------- --<br>------ - ---- -- --- ----------- ------- ---- ----- -----<br>--- -------- - ------ ---- -- ----- ---- --- --- -----------<br>-- -------,203114.29999995232,203108.69999980927,202790.31,202805.5,202806.977,203123.65,,18,he
screen,html.Screen,2_3_1_0_1_19,2022-02-02T14:35:04.176Z,,,,,,,,,,,,,,,,,2,,,,,,,,,,,,,,234.24999985695467,,response,,,,1,C,,,,,,Space,keypress(Space),,,,instrumental,,,,--- ---- ------ --- ------- ---------- ------- ----------<br>--- --------- --- ----------- ------- ----- ------- ---<br>--------- ---- -- saw ---- -- --------- -- ---- -------<br>-- --------- ------ --- ----- ------ ---- --- --------- --<br>------ - ---- -- --- ----------- ------- ---- ----- -----<br>--- -------- - ------ ---- -- ----- ---- --- --- -----------<br>-- -------,203363.59999990463,203357.89999985695,203106.983,203114.59999990463,203123.65,203373.655,,19,saw
screen,html.Screen,2_3_1_0_1_20,2022-02-02T14:35:04.454Z,,,,,,,,,,,,,,,,,2,,,,,,,,,,,,,,261.94499990463373,,response,,,,1,C,,,,,,Space,keypress(Space),,,,instrumental,,,,--- ---- ------ --- ------- ---------- ------- ----------<br>--- --------- --- ----------- ------- ----- ------- ---<br>--------- ---- -- --- what -- --------- -- ---- -------<br>-- --------- ------ --- ----- ------ ---- --- --------- --<br>------ - ---- -- --- ----------- ------- ---- ----- -----<br>--- -------- - ------ ---- -- ----- ---- --- --- -----------<br>-- -------,203641.29999995232,203635.59999990463,203356.988,203363.79999995232,203373.655,203656.994,,20,what
screen,html.Screen,2_3_1_0_1_21,2022-02-02T14:35:04.706Z,,,,,,,,,,,,,,,,,2,,,,,,,,,,,,,,230.70599980925908,,response,,,,1,C,,,,,,Space,keypress(Space),,,,instrumental,,,,--- ---- ------ --- ------- ---------- ------- ----------<br>--- --------- --- ----------- ------- ----- ------- ---<br>--------- ---- -- --- ---- he --------- -- ---- -------<br>-- --------- ------ --- ----- ------ ---- --- --------- --<br>------ - ---- -- --- ----------- ------- ---- ----- -----<br>--- -------- - ------ ---- -- ----- ---- --- --- -----------<br>-- -------,203893.5,203887.69999980927,203640.327,203641.5,203656.994,203906.999,,21,he
screen,html.Screen,2_3_1_0_1_22,2022-02-02T14:35:04.965Z,,,,,,,,,,,,,,,,,2,,,,,,,,,,,,,,239.70099980925443,,response,,,,1,C,,,,,,Space,keypress(Space),,,,instrumental,,,,--- ---- ------ --- ------- ---------- ------- ----------<br>--- --------- --- ----------- ------- ----- ------- ---<br>--------- ---- -- --- ---- -- described -- ---- -------<br>-- --------- ------ --- ----- ------ ---- --- --------- --<br>------ - ---- -- --- ----------- ------- ---- ----- -----<br>--- -------- - ------ ---- -- ----- ---- --- --- -----------<br>-- -------,204152.39999985695,204146.69999980927,203890.332,203893.69999980927,203906.999,204157.004,,22,described
screen,html.Screen,2_3_1_0_1_23,2022-02-02T14:35:05.225Z,,,,,,,,,,,,,,,,,2,,,,,,,,,,,,,,249.5959999046463,,response,,,,1,C,,,,,,Space,keypress(Space),,,,instrumental,,,,--- ---- ------ --- ------- ---------- ------- ----------<br>--- --------- --- ----------- ------- ----- ------- ---<br>--------- ---- -- --- ---- -- --------- as ---- -------<br>-- --------- ------ --- ----- ------ ---- --- --------- --<br>------ - ---- -- --- ----------- ------- ---- ----- -----<br>--- -------- - ------ ---- -- ----- ---- --- --- -----------<br>-- -------,204412.29999995232,204406.59999990463,204140.337,204152.69999980927,204157.004,204423.676,,23,as
screen,html.Screen,2_3_1_0_1_24,2022-02-02T14:35:05.482Z,,,,,,,,,,,,,,,,,2,,,,,,,,,,,,,,240.12399995230953,,response,,,,1,C,,,,,,Space,keypress(Space),,,,instrumental,,,,"--- ---- ------ --- ------- ---------- ------- ----------<br>--- --------- --- ----------- ------- ----- ------- ---<br>--------- ---- -- --- ---- -- --------- -- ""two -------<br>-- --------- ------ --- ----- ------ ---- --- --------- --<br>------ - ---- -- --- ----------- ------- ---- ----- -----<br>--- -------- - ------ ---- -- ----- ---- --- --- -----------<br>-- -------",204669.39999985695,204663.79999995232,204407.009,204412.39999985695,204423.676,204673.681,,24,"""two"
screen,html.Screen,2_3_1_0_1_25,2022-02-02T14:35:05.722Z,,,,,,,,,,,,,,,,,2,,,,,,,,,,,,,,230.01899980925373,,response,,,,1,C,,,,,,Space,keypress(Space),,,,instrumental,,,,--- ---- ------ --- ------- ---------- ------- ----------<br>--- --------- --- ----------- ------- ----- ------- ---<br>--------- ---- -- --- ---- -- --------- -- ---- patches<br>-- --------- ------ --- ----- ------ ---- --- --------- --<br>------ - ---- -- --- ----------- ------- ---- ----- -----<br>--- -------- - ------ ---- -- ----- ---- --- --- -----------<br>-- -------,204909.29999995232,204903.69999980927,204657.014,204669.89999985695,204673.681,204923.686,,25,patches
screen,html.Screen,2_3_1_0_1_26,2022-02-02T14:35:05.986Z,,,,,,,,,,,,,,,,,2,,,,,,,,,,,,,,243.9139999046456,,response,,,,1,C,,,,,,Space,keypress(Space),,,,instrumental,,,,--- ---- ------ --- ------- ---------- ------- ----------<br>--- --------- --- ----------- ------- ----- ------- ---<br>--------- ---- -- --- ---- -- --------- -- ---- -------<br>of --------- ------ --- ----- ------ ---- --- --------- --<br>------ - ---- -- --- ----------- ------- ---- ----- -----<br>--- -------- - ------ ---- -- ----- ---- --- --- -----------<br>-- -------,205173.5,205167.59999990463,204907.019,204909.89999985695,204923.686,205190.358,,26,of
screen,html.Screen,2_3_1_0_1_27,2022-02-02T14:35:06.258Z,,,,,,,,,,,,,,,,,2,,,,,,,,,,,,,,249.3419998092577,,response,,,,1,C,,,,,,Space,keypress(Space),,,,instrumental,,,,--- ---- ------ --- ------- ---------- ------- ----------<br>--- --------- --- ----------- ------- ----- ------- ---<br>--------- ---- -- --- ---- -- --------- -- ---- -------<br>-- intensely ------ --- ----- ------ ---- --- --------- --<br>------ - ---- -- --- ----------- ------- ---- ----- -----<br>--- -------- - ------ ---- -- ----- ---- --- --- -----------<br>-- -------,205445.5,205439.69999980927,205173.691,205173.69999980927,205190.358,205457.03,,27,intensely
screen,html.Screen,2_3_1_0_1_28,2022-02-02T14:35:06.486Z,,,,,,,,,,,,,,,,,2,,,,,,,,,,,,,,211.6699998092663,,response,,,,1,C,,,,,,Space,keypress(Space),,,,instrumental,,,,--- ---- ------ --- ------- ---------- ------- ----------<br>--- --------- --- ----------- ------- ----- ------- ---<br>--------- ---- -- --- ---- -- --------- -- ---- -------<br>-- --------- bright --- ----- ------ ---- --- --------- --<br>------ - ---- -- --- ----------- ------- ---- ----- -----<br>--- -------- - ------ ---- -- ----- ---- --- --- -----------<br>-- -------,205674.09999990463,205668.69999980927,205440.363,205445.69999980927,205457.03,205690.368,,28,bright
screen,html.Screen,2_3_1_0_1_29,2022-02-02T14:35:06.723Z,,,,,,,,,,,,,,,,,2,,,,,,,,,,,,,,214.5319998569612,,response,,,,1,C,,,,,,Space,keypress(Space),,,,instrumental,,,,--- ---- ------ --- ------- ---------- ------- ----------<br>--- --------- --- ----------- ------- ----- ------- ---<br>--------- ---- -- --- ---- -- --------- -- ---- -------<br>-- --------- ------ and ----- ------ ---- --- --------- --<br>------ - ---- -- --- ----------- ------- ---- ----- -----<br>--- -------- - ------ ---- -- ----- ---- --- --- -----------<br>-- -------,205910.69999980927,205904.89999985695,205673.701,205674.39999985695,205690.368,205923.706,,29,and
screen,html.Screen,2_3_1_0_1_30,2022-02-02T14:35:06.984Z,,,,,,,,,,,,,,,,,2,,,,,,,,,,,,,,241.99399980925955,,response,,,,1,C,,,,,,Space,keypress(Space),,,,instrumental,,,,--- ---- ------ --- ------- ---------- ------- ----------<br>--- --------- --- ----------- ------- ----- ------- ---<br>--------- ---- -- --- ---- -- --------- -- ---- -------<br>-- --------- ------ --- white ------ ---- --- --------- --<br>------ - ---- -- --- ----------- ------- ---- ----- -----<br>--- -------- - ------ ---- -- ----- ---- --- --- -----------<br>-- -------,206171.59999990463,206165.69999980927,205907.039,205910.79999995232,205923.706,206173.711,,30,white
screen,html.Screen,2_3_1_0_1_31,2022-02-02T14:35:07.210Z,,,,,,,,,,,,,,,,,2,,,,,,,,,,,,,,218.08899995230604,,response,,,,1,C,,,,,,Space,keypress(Space),,,,instrumental,,,,"--- ---- ------ --- ------- ---------- ------- ----------<br>--- --------- --- ----------- ------- ----- ------- ---<br>--------- ---- -- --- ---- -- --------- -- ---- -------<br>-- --------- ------ --- ----- light"" ---- --- --------- --<br>------ - ---- -- --- ----------- ------- ---- ----- -----<br>--- -------- - ------ ---- -- ----- ---- --- --- -----------<br>-- -------",206397.39999985695,206391.79999995232,206157.044,206171.89999985695,206173.711,206407.049,,31,"light"""
screen,html.Screen,2_3_1_0_1_32,2022-02-02T14:35:07.447Z,,,,,,,,,,,,,,,,,2,,,,,,,,,,,,,,221.65099980926607,,response,,,,1,C,,,,,,Space,keypress(Space),,,,instrumental,,,,--- ---- ------ --- ------- ---------- ------- ----------<br>--- --------- --- ----------- ------- ----- ------- ---<br>--------- ---- -- --- ---- -- --------- -- ---- -------<br>-- --------- ------ --- ----- ------ over --- --------- --<br>------ - ---- -- --- ----------- ------- ---- ----- -----<br>--- -------- - ------ ---- -- ----- ---- --- --- -----------<br>-- -------,206634.39999985695,206628.69999980927,206390.382,206397.69999980927,206407.049,206640.387,,32,over
screen,html.Screen,2_3_1_0_1_33,2022-02-02T14:35:07.733Z,,,,,,,,,,,,,,,,,2,,,,,,,,,,,,,,275.4129999523284,,response,,,,1,C,,,,,,Space,keypress(Space),,,,instrumental,,,,--- ---- ------ --- ------- ---------- ------- ----------<br>--- --------- --- ----------- ------- ----- ------- ---<br>--------- ---- -- --- ---- -- --------- -- ---- -------<br>-- --------- ------ --- ----- ------ ---- the --------- --<br>------ - ---- -- --- ----------- ------- ---- ----- -----<br>--- -------- - ------ ---- -- ----- ---- --- --- -----------<br>-- -------,206921.29999995232,206915.79999995232,206623.72,206634.59999990463,206640.387,206923.726,,33,the
screen,html.Screen,2_3_1_0_1_34,2022-02-02T14:35:07.999Z,,,,,,,,,,,,,,,,,2,,,,,,,,,,,,,,256.97399980927,,response,,,,1,C,,,,,,Space,keypress(Space),,,,instrumental,,,,--- ---- ------ --- ------- ---------- ------- ----------<br>--- --------- --- ----------- ------- ----- ------- ---<br>--------- ---- -- --- ---- -- --------- -- ---- -------<br>-- --------- ------ --- ----- ------ ---- --- sunspots. --<br>------ - ---- -- --- ----------- ------- ---- ----- -----<br>--- -------- - ------ ---- -- ----- ---- --- --- -----------<br>-- -------,207186.5,207180.69999980927,206907.059,206921.39999985695,206923.726,207190.398,,34,sunspots.
screen,html.Screen,2_3_1_0_1_35,2022-02-02T14:35:08.254Z,,,,,,,,,,,,,,,,,2,,,,,,,,,,,,,,245.30199980927864,,response,,,,1,C,,,,,,Space,keypress(Space),,,,instrumental,,,,--- ---- ------ --- ------- ---------- ------- ----------<br>--- --------- --- ----------- ------- ----- ------- ---<br>--------- ---- -- --- ---- -- --------- -- ---- -------<br>-- --------- ------ --- ----- ------ ---- --- --------- He<br>------ - ---- -- --- ----------- ------- ---- ----- -----<br>--- -------- - ------ ---- -- ----- ---- --- --- -----------<br>-- -------,207441.5,207435.69999980927,207173.731,207186.79999995232,207190.398,207457.07,,35,He
screen,html.Screen,2_3_1_0_1_36,2022-02-02T14:35:08.535Z,,,,,,,,,,,,,,,,,2,,,,,,,,,,,,,,259.62999980925815,,response,,,,1,C,,,,,,Space,keypress(Space),,,,instrumental,,,,--- ---- ------ --- ------- ---------- ------- ----------<br>--- --------- --- ----------- ------- ----- ------- ---<br>--------- ---- -- --- ---- -- --------- -- ---- -------<br>-- --------- ------ --- ----- ------ ---- --- --------- --<br>jotted - ---- -- --- ----------- ------- ---- ----- -----<br>--- -------- - ------ ---- -- ----- ---- --- --- -----------<br>-- -------,207722.39999985695,207716.69999980927,207440.403,207441.69999980927,207457.07,207723.742,,36,jotted
screen,html.Screen,2_3_1_0_1_37,2022-02-02T14:35:08.804Z,,,,,,,,,,,,,,,,,2,,,,,,,,,,,,,,260.95799980926677,,response,,,,1,C,,,,,,Space,keypress(Space),,,,instrumental,,,,--- ---- ------ --- ------- ---------- ------- ----------<br>--- --------- --- ----------- ------- ----- ------- ---<br>--------- ---- -- --- ---- -- --------- -- ---- -------<br>-- --------- ------ --- ----- ------ ---- --- --------- --<br>------ a ---- -- --- ----------- ------- ---- ----- -----<br>--- -------- - ------ ---- -- ----- ---- --- --- -----------<br>-- -------,207991.29999995232,207984.69999980927,207707.075,207722.59999990463,207723.742,208007.081,,37,a
