sender,sender_type,sender_id,timestamp,meta,,Blues,Classical,Country,Dance,Electronic,Folk,Gospel,Hip-Hop,Jazz,Latin,Musical/Film,New-age,Pop,Prolific_id,Provo_ID,R&B,Rap,Reggae,Religious,Rock,Soul,Swing,Traditional,age,artist_name,correct,correctResponse,distraction,duration,education,ended_on,familiarity,gender,headphone_check_performance,item,list,music_frequency,offensiveness,pleasantness,position_correct,preference,response,response_action,snippet_file,song_name,song_rating,sound,stimulus_1,stimulus_2,stimulus_3,text,time_commit,time_end,time_render,time_run,time_show,time_switch,url,word,word_ID
Prolific ID,html.Form,0,2022-02-02T13:27:56.404Z,"{""labjs_version"":""20.2.2"",""labjs_build"":{""flavor"":""production"",""commit"":""a25486e0c714a0ae2ce03ff94b7bb6896854dcfa""},""location"":""https://run.pavlovia.org/mvasilev/prolific2_music_b/"",""userAgent"":""Mozilla/5.0 (Windows NT 10.0; Win64; x64) AppleWebKit/537.36 (KHTML, like Gecko) Chrome/97.0.4692.71 Safari/537.36"",""platform"":""Win32"",""language"":""en-GB"",""locale"":""en-GB"",""timeZone"":""Europe/London"",""timezoneOffset"":0,""screen_width"":1920,""screen_height"":1080,""scroll_width"":1920,""scroll_height"":889,""window_innerWidth"":1920,""window_innerHeight"":937,""devicePixelRatio"":1}",,,,,,,,,,,,,,,5a993130f6dfdd0001ea8301,,,,,,,,,,,,,,,6671.196999997765,,form submission,,,,,,,,,,,,,,,,,,,,,14811.79999999702,14811.599999997765,8123.708,8125.199999999255,8140.403,14813.651,{},,
Introduction,html.Screen,1_0,2022-02-02T13:29:08.228Z,,,,,,,,,,,,,,,,,,,,,,,,,,,,,,,71820.04899999926,,response,,,,,,,,,,,continue,click button,,,,,,,,,86635.79999999702,86633.69999999925,14796.982,14812,14813.651,86664.659,,,
Volume calibration,html.Screen,1_1,2022-02-02T13:29:25.191Z,,,,,,,,,,,,,,,,,,,,,,,,,,,,,,,16931.341,,response,,,,,,,,,,,continue,click button,,,,,,,,,103598.09999999776,103596,86618.064,86635.89999999851,86664.659,103601.351,,,
Task instructions,html.Screen,1_2,2022-02-02T13:29:34.873Z,,,,,,,,,,,,,,,,,,,,,,,,,,,,,,,9677.84899999926,,response,,,,,,,,,,,continue,click button,,,,,,,,,113280.09999999776,113279.19999999925,103584.694,103598.19999999925,103601.351,113294.832,,,
Sounds,html.Screen,1_3_0_0,2022-02-02T13:29:39.126Z,,,,,,,,,,,,,,,,,,,,,,,,,,,,,,,4253.771000000008,,timeout,,,,,,,,,3,,,,,,,,O,I,S,,117533.69999999925,117532.21,113277.692,113280.19999999925,113294.832,117548.603,,,
Judgement,html.Screen,1_3_0_1,2022-02-02T13:29:40.768Z,,,,,,,,,,,,,,,,,,,,,,,,,,,,true,3,,1625.996999997762,,response,,,,,,,,,3,,3,click #choice-3,,,,,O,I,S,,119175.5,119174.59999999776,117532.21,117533.79999999702,117548.603,119183.394,,,
Trial,flow.Sequence,1_3_0,2022-02-02T13:29:40.768Z,,,,,,,,,,,,,,,,,,,,,,,,,,,,,,,5879.76799999777,,completion,,,,,,,,,3,,,,,,,,O,I,S,,119175.79999999702,119174.59999999776,113277.692,113280.19999999925,113294.832,119183.394,,,
Sounds,html.Screen,1_3_1_0,2022-02-02T13:29:45.015Z,,,,,,,,,,,,,,,,,,,,,,,,,,,,,,,4254.394,,timeout,,,,,,,,,3,,,,,,,,I,O,S,,123422.19999999925,123421.689,119167.352,119175.89999999851,119183.394,123437.788,,,
Judgement,html.Screen,1_3_1_1,2022-02-02T13:29:45.539Z,,,,,,,,,,,,,,,,,,,,,,,,,,,,true,3,,507.31199999776436,,response,,,,,,,,,3,,3,click #choice-3,,,,,I,O,S,,123946.09999999776,123945.09999999776,123421.689,123422.29999999702,123437.788,123955.039,,,
Trial,flow.Sequence,1_3_1,2022-02-02T13:29:45.539Z,,,,,,,,,,,,,,,,,,,,,,,,,,,,,,,4761.705999997765,,completion,,,,,,,,,3,,,,,,,,I,O,S,,123946.29999999702,123945.09999999776,119167.352,119175.89999999851,119183.394,123955.039,,,
Sounds,html.Screen,1_3_2_0,2022-02-02T13:29:49.785Z,,,,,,,,,,,,,,,,,,,,,,,,,,,,,,,4253.95199999999,,timeout,,,,,,,,,1,,,,,,,,S,I,O,,128192.79999999702,128192.319,123938.116,123946.39999999851,123955.039,128208.991,,,
Judgement,html.Screen,1_3_2_1,2022-02-02T13:29:50.247Z,,,,,,,,,,,,,,,,,,,,,,,,,,,,true,1,,444.90899999851536,,response,,,,,,,,,1,,1,click #choice-1,,,,,S,I,O,,128654.79999999702,128653.89999999851,128192.319,128193,128208.991,128659.607,,,
Trial,flow.Sequence,1_3_2,2022-02-02T13:29:50.248Z,,,,,,,,,,,,,,,,,,,,,,,,,,,,,,,4698.860999998506,,completion,,,,,,,,,1,,,,,,,,S,I,O,,128655,128653.89999999851,123938.116,123946.39999999851,123955.039,128659.607,,,
Sounds,html.Screen,1_3_3_0,2022-02-02T13:29:54.490Z,,,,,,,,,,,,,,,,,,,,,,,,,,,,,,,4254.455000000002,,timeout,,,,,,,,,2,,,,,,,,O,S,I,,132897.29999999702,132896.916,128643.287,128655.09999999776,128659.607,132914.062,,,
Judgement,html.Screen,1_3_3_1,2022-02-02T13:29:55.116Z,,,,,,,,,,,,,,,,,,,,,,,,,,,,true,2,,607.9379999999946,,response,,,,,,,,,2,,2,click #choice-2,,,,,O,S,I,,133523,133522,132896.916,132897.3999999985,132914.062,133530.886,,,
Trial,flow.Sequence,1_3_3,2022-02-02T13:29:55.116Z,,,,,,,,,,,,,,,,,,,,,,,,,,,,,,,4862.392999999996,,completion,,,,,,,,,2,,,,,,,,O,S,I,,133523.09999999776,133522,128643.287,128655,128659.607,133530.886,,,
Sounds,html.Screen,1_3_4_0,2022-02-02T13:29:59.362Z,,,,,,,,,,,,,,,,,,,,,,,,,,,,,,,4254.806000000011,,timeout,,,,,,,,,1,,,,,,,,S,O,I,,137769.5,137768.978,133514.189,133523.09999999776,133530.886,137785.692,,,
Judgement,html.Screen,1_3_4_1,2022-02-02T13:29:59.726Z,,,,,,,,,,,,,,,,,,,,,,,,,,,,false,1,,347.00799999924493,,response,,,,,,,,,1,,2,click #choice-2,,,,,S,O,I,,138133.59999999776,138132.69999999925,137768.978,137769.59999999776,137785.692,138135.444,,,
Trial,flow.Sequence,1_3_4,2022-02-02T13:29:59.726Z,,,,,,,,,,,,,,,,,,,,,,,,,,,,,,,4601.813999999256,,completion,,,,,,,,,1,,,,,,,,S,O,I,,138133.69999999925,138132.69999999925,133514.189,133523.09999999776,133530.886,138135.444,,,
Sounds,html.Screen,1_3_5_0,2022-02-02T13:30:03.967Z,,,,,,,,,,,,,,,,,,,,,,,,,,,,,,,4254.783000000025,,timeout,,,,,,,,,2,,,,,,,,I,S,O,,142374,142373.552,138119.329,138133.8999999985,138135.444,142390.227,,,
Judgement,html.Screen,1_3_5_1,2022-02-02T13:30:04.361Z,,,,,,,,,,,,,,,,,,,,,,,,,,,,true,2,,377.3729999977513,,response,,,,,,,,,2,,2,click #choice-2,,,,,I,S,O,,142768.69999999925,142767.59999999776,142373.552,142374.09999999776,142390.227,142773.504,,,
Trial,flow.Sequence,1_3_5,2022-02-02T13:30:04.361Z,,,,,,,,,,,,,,,,,,,,,,,,,,,,,,,4632.155999997776,,completion,,,,,,,,,2,,,,,,,,I,S,O,,142768.79999999702,142767.59999999776,138119.329,138133.8999999985,138135.444,142773.504,,,
Task,flow.Loop,1_3,2022-02-02T13:30:04.364Z,,,,,,,,,,,,,,,,,,,,,,,,,,,,,,,29472.76799999777,,completion,,,0.8333333333333334,,,,,,,,,,,,,,,,,,142771.09999999776,142767.59999999776,113277.692,113280.19999999925,113294.832,142773.504,,,
Trap,html.Screen,1_4,2022-02-02T13:30:04.364Z,,,,,,,,,,,,,,,,,,,,,,,,,,,,,,,NaN,,skipped,,,,,,,,,,,,,,,,,,,,,142771.79999999702,142767.59999999776,,142771.69999999925,,142773.504,,,
Thanks,html.Screen,1_5,2022-02-02T13:30:08.475Z,,,,,,,,,,,,,,,,,,,,,,,,,,,,,,,4107.996000000014,,response,,,,,,,,,,,continue,click button,,,,,,,,,146882.59999999776,146881.5,142756.678,142771.79999999702,142773.504,150364.19,,,
Headphone screening,flow.Sequence,1,2022-02-02T13:30:08.475Z,,,,,,,,,,,,,,,,,,,,,,,,,,,,,,,132067.849,,completion,,,,,,,,,,,,,,,,,,,,,146882.69999999925,146881.5,14796.982,14812,14813.651,150364.19,,,
Instructions,html.Page,2_0,2022-02-02T13:30:34.173Z,,,,,,,,,,,,,,,,,,,,,,,,,,,,,,,22216.009999999253,,form submission,,,,,,,,,,,,,,,,,,,,,172580.69999999925,172580.19999999925,150348.065,150363,150364.19,172586.105,,,
Holding screen,html.Screen,2_1_0_0,2022-02-02T13:30:44.156Z,,,,,,,,,,,,,,,,,,,,,,,,,,,,,,,9993.353000000003,,timeout,,,,,,,,,,,,,,,,,,,,,182563.59999999776,182562.668,172569.467,172581,172586.105,182579.458,,,
screen,html.Screen,2_1_0_1_0,2022-02-02T13:30:45.305Z,,,,,,,,,,,,,,,,,53,,,,,,,,,,,,,,1131.2419999992417,,response,,,,99,,,,,,,Space,keypress(Space),,,,,,,,When -- ----- -- ------ - ------- --- ----------<br>------------- ------ ------ ---- ---- ------- ----- -- ----<br>-------- ------- -- ---------- --- - --- ----- ----- ----<br>---- --- --- ----- --- ---- ---- ------- ----- ---- -------<br>--- --- -- ----- -- --- ---- -- --- ---- -- ------ ------<br>--- ----- -- ----,183712.19999999925,183710.69999999925,182562.668,182563.69999999925,182579.458,183713.825,,0,When
screen,html.Screen,2_1_0_1_1,2022-02-02T13:30:45.704Z,,,,,,,,,,,,,,,,,53,,,,,,,,,,,,,,397.2749999977532,,response,,,,99,,,,,,,Space,keypress(Space),,,,,,,,---- it ----- -- ------ - ------- --- ----------<br>------------- ------ ------ ---- ---- ------- ----- -- ----<br>-------- ------- -- ---------- --- - --- ----- ----- ----<br>---- --- --- ----- --- ---- ---- ------- ----- ---- -------<br>--- --- -- ----- -- --- ---- -- --- ---- -- ------ ------<br>--- ----- -- ----,184111.5,184111.09999999776,183697.099,183712.3999999985,183713.825,184114.194,,1,it
screen,html.Screen,2_1_0_1_2,2022-02-02T13:30:46.152Z,,,,,,,,,,,,,,,,,53,,,,,,,,,,,,,,444.50599999926635,,response,,,,99,,,,,,,Space,keypress(Space),,,,,,,,---- -- comes -- ------ - ------- --- ----------<br>------------- ------ ------ ---- ---- ------- ----- -- ----<br>-------- ------- -- ---------- --- - --- ----- ----- ----<br>---- --- --- ----- --- ---- ---- ------- ----- ---- -------<br>--- --- -- ----- -- --- ---- -- --- ---- -- ------ ------<br>--- ----- -- ----,184559,184558.69999999925,184097.63,184111.59999999776,184114.194,184564.83,,2,comes
screen,html.Screen,2_1_0_1_3,2022-02-02T13:30:46.608Z,,,,,,,,,,,,,,,,,53,,,,,,,,,,,,,,449.86999999926775,,response,,,,99,,,,,,,Space,keypress(Space),,,,,,,,---- -- ----- to ------ - ------- --- ----------<br>------------- ------ ------ ---- ---- ------- ----- -- ----<br>-------- ------- -- ---------- --- - --- ----- ----- ----<br>---- --- --- ----- --- ---- ---- ------- ----- ---- -------<br>--- --- -- ----- -- --- ---- -- --- ---- -- ------ ------<br>--- ----- -- ----,185015.09999999776,185014.69999999925,184548.08,184559.19999999925,184564.83,185032.079,,3,to
screen,html.Screen,2_1_0_1_4,2022-02-02T13:30:47.048Z,,,,,,,,,,,,,,,,,53,,,,,,,,,,,,,,422.62099999925704,,response,,,,99,,,,,,,Space,keypress(Space),,,,,,,,---- -- ----- -- having - ------- --- ----------<br>------------- ------ ------ ---- ---- ------- ----- -- ----<br>-------- ------- -- ---------- --- - --- ----- ----- ----<br>---- --- --- ----- --- ---- ---- ------- ----- ---- -------<br>--- --- -- ----- -- --- ---- -- --- ---- -- ------ ------<br>--- ----- -- ----,185455.09999999776,185454.69999999925,185015.111,185015.29999999702,185032.079,185465.754,,4,having
screen,html.Screen,2_1_0_1_5,2022-02-02T13:30:47.512Z,,,,,,,,,,,,,,,,,53,,,,,,,,,,,,,,453.24600000001374,,response,,,,99,,,,,,,Space,keypress(Space),,,,,,,,---- -- ----- -- ------ a ------- --- ----------<br>------------- ------ ------ ---- ---- ------- ----- -- ----<br>-------- ------- -- ---------- --- - --- ----- ----- ----<br>---- --- --- ----- --- ---- ---- ------- ----- ---- -------<br>--- --- -- ----- -- --- ---- -- --- ---- -- ------ ------<br>--- ----- -- ----,185919.3999999985,185919,185449.484,185455.19999999925,185465.754,185932.678,,5,a
screen,html.Screen,2_1_0_1_6,2022-02-02T13:30:48.072Z,,,,,,,,,,,,,,,,,53,,,,,,,,,,,,,,546.6219999970053,,response,,,,99,,,,,,,Space,keypress(Space),,,,,,,,---- -- ----- -- ------ - lasting --- ----------<br>------------- ------ ------ ---- ---- ------- ----- -- ----<br>-------- ------- -- ---------- --- - --- ----- ----- ----<br>---- --- --- ----- --- ---- ---- ------- ----- ---- -------<br>--- --- -- ----- -- --- ---- -- --- ---- -- ------ ------<br>--- ----- -- ----,186479.69999999925,186479.29999999702,185916.086,185919.5,185932.678,186483.167,,6,lasting
screen,html.Screen,2_1_0_1_7,2022-02-02T13:30:48.584Z,,,,,,,,,,,,,,,,,53,,,,,,,,,,,,,,507.83300000001327,,response,,,,99,,,,,,,Space,keypress(Space),,,,,,,,---- -- ----- -- ------ - ------- and ----------<br>------------- ------ ------ ---- ---- ------- ----- -- ----<br>-------- ------- -- ---------- --- - --- ----- ----- ----<br>---- --- --- ----- --- ---- ---- ------- ----- ---- -------<br>--- --- -- ----- -- --- ---- -- --- ---- -- ------ ------<br>--- ----- -- ----,186991.3999999985,186991,186466.553,186479.79999999702,186483.167,187001,,7,and
screen,html.Screen,2_1_0_1_8,2022-02-02T13:30:49.016Z,,,,,,,,,,,,,,,,,53,,,,,,,,,,,,,,422.5,,response,,,,99,,,,,,,Space,keypress(Space),,,,,,,,---- -- ----- -- ------ - ------- --- fulfilling<br>------------- ------ ------ ---- ---- ------- ----- -- ----<br>-------- ------- -- ---------- --- - --- ----- ----- ----<br>---- --- --- ----- --- ---- ---- ------- ----- ---- -------<br>--- --- -- ----- -- --- ---- -- --- ---- -- ------ ------<br>--- ----- -- ----,187423.79999999702,187423.5,186983.721,186991.5,187001,187434.296,,8,fulfilling
screen,html.Screen,2_1_0_1_9,2022-02-02T13:30:49.465Z,,,,,,,,,,,,,,,,,53,,,,,,,,,,,,,,437.30399999776273,,response,,,,99,,,,,,,Space,keypress(Space),,,,,,,,"---- -- ----- -- ------ - ------- --- ----------<br>relationship, ------ ------ ---- ---- ------- ----- -- ----<br>-------- ------- -- ---------- --- - --- ----- ----- ----<br>---- --- --- ----- --- ---- ---- ------- ----- ---- -------<br>--- --- -- ----- -- --- ---- -- --- ---- -- ------ ------<br>--- ----- -- ----",187872.19999999925,187871.59999999776,187417.646,187424,187434.296,187884.714,,9,"relationship,"
screen,html.Screen,2_1_0_1_10,2022-02-02T13:30:49.952Z,,,,,,,,,,,,,,,,,53,,,,,,,,,,,,,,474.4859999992477,,response,,,,99,,,,,,,Space,keypress(Space),,,,,,,,---- -- ----- -- ------ - ------- --- ----------<br>------------- common ------ ---- ---- ------- ----- -- ----<br>-------- ------- -- ---------- --- - --- ----- ----- ----<br>---- --- --- ----- --- ---- ---- ------- ----- ---- -------<br>--- --- -- ----- -- --- ---- -- --- ---- -- ------ ------<br>--- ----- -- ----,188359.5,188359.19999999925,187868.063,187872.19999999925,187884.714,188369.036,,10,common
screen,html.Screen,2_1_0_1_11,2022-02-02T13:30:50.512Z,,,,,,,,,,,,,,,,,53,,,,,,,,,,,,,,550.1639999992622,,response,,,,99,,,,,,,Space,keypress(Space),,,,,,,,---- -- ----- -- ------ - ------- --- ----------<br>------------- ------ wisdom ---- ---- ------- ----- -- ----<br>-------- ------- -- ---------- --- - --- ----- ----- ----<br>---- --- --- ----- --- ---- ---- ------- ----- ---- -------<br>--- --- -- ----- -- --- ---- -- --- ---- -- ------ ------<br>--- ----- -- ----,188919.69999999925,188919.19999999925,188351.891,188359.69999999925,188369.036,188935.77,,11,wisdom
screen,html.Screen,2_1_0_1_12,2022-02-02T13:30:51.080Z,,,,,,,,,,,,,,,,,53,,,,,,,,,,,,,,551.5299999970302,,response,,,,99,,,,,,,Space,keypress(Space),,,,,,,,---- -- ----- -- ------ - ------- --- ----------<br>------------- ------ ------ says ---- ------- ----- -- ----<br>-------- ------- -- ---------- --- - --- ----- ----- ----<br>---- --- --- ----- --- ---- ---- ------- ----- ---- -------<br>--- --- -- ----- -- --- ---- -- --- ---- -- ------ ------<br>--- ----- -- ----,189487.69999999925,189487.29999999702,188919.487,188919.79999999702,188935.77,189502.88,,12,says
screen,html.Screen,2_1_0_1_13,2022-02-02T13:30:51.713Z,,,,,,,,,,,,,,,,,53,,,,,,,,,,,,,,616.7199999977602,,response,,,,99,,,,,,,Space,keypress(Space),,,,,,,,---- -- ----- -- ------ - ------- --- ----------<br>------------- ------ ------ ---- that ------- ----- -- ----<br>-------- ------- -- ---------- --- - --- ----- ----- ----<br>---- --- --- ----- --- ---- ---- ------- ----- ---- -------<br>--- --- -- ----- -- --- ---- -- --- ---- -- ------ ------<br>--- ----- -- ----,190120.09999999776,190119.59999999776,189486.353,189487.79999999702,189502.88,190136.993,,13,that
screen,html.Screen,2_1_0_1_14,2022-02-02T13:30:52.113Z,,,,,,,,,,,,,,,,,53,,,,,,,,,,,,,,382.9069999985222,,response,,,,99,,,,,,,Space,keypress(Space),,,,,,,,---- -- ----- -- ------ - ------- --- ----------<br>------------- ------ ------ ---- ---- feeling ----- -- ----<br>-------- ------- -- ---------- --- - --- ----- ----- ----<br>---- --- --- ----- --- ---- ---- ------- ----- ---- -------<br>--- --- -- ----- -- --- ---- -- --- ---- -- ------ ------<br>--- ----- -- ----,190520.5,190519.8999999985,190103.797,190120.19999999925,190136.993,190537.374,,14,feeling
screen,html.Screen,2_1_0_1_15,2022-02-02T13:30:52.745Z,,,,,,,,,,,,,,,,,53,,,,,,,,,,,,,,614.4259999970091,,response,,,,99,,,,,,,Space,keypress(Space),,,,,,,,---- -- ----- -- ------ - ------- --- ----------<br>------------- ------ ------ ---- ---- ------- close -- ----<br>-------- ------- -- ---------- --- - --- ----- ----- ----<br>---- --- --- ----- --- ---- ---- ------- ----- ---- -------<br>--- --- -- ----- -- --- ---- -- --- ---- -- ------ ------<br>--- ----- -- ----,191152.19999999925,191151.79999999702,190504.601,190520.5,190537.374,191154.477,,15,close
screen,html.Screen,2_1_0_1_16,2022-02-02T13:30:53.145Z,,,,,,,,,,,,,,,,,53,,,,,,,,,,,,,,397.6229999977513,,response,,,,99,,,,,,,Space,keypress(Space),,,,,,,,---- -- ----- -- ------ - ------- --- ----------<br>------------- ------ ------ ---- ---- ------- ----- to ----<br>-------- ------- -- ---------- --- - --- ----- ----- ----<br>---- --- --- ----- --- ---- ---- ------- ----- ---- -------<br>--- --- -- ----- -- --- ---- -- --- ---- -- ------ ------<br>--- ----- -- ----,191552.5,191552.09999999776,191137.785,191152.29999999702,191154.477,191554.879,,16,to
screen,html.Screen,2_1_0_1_17,2022-02-02T13:30:53.576Z,,,,,,,,,,,,,,,,,53,,,,,,,,,,,,,,428.5209999985236,,response,,,,99,,,,,,,Space,keypress(Space),,,,,,,,---- -- ----- -- ------ - ------- --- ----------<br>------------- ------ ------ ---- ---- ------- ----- -- your<br>-------- ------- -- ---------- --- - --- ----- ----- ----<br>---- --- --- ----- --- ---- ---- ------- ----- ---- -------<br>--- --- -- ----- -- --- ---- -- --- ---- -- ------ ------<br>--- ----- -- ----,191983.8999999985,191983.3999999985,191538.353,191552.59999999776,191554.879,191988.64,,17,your
screen,html.Screen,2_1_0_1_18,2022-02-02T13:30:53.985Z,,,,,,,,,,,,,,,,,53,,,,,,,,,,,,,,403.059999999241,,response,,,,99,,,,,,,Space,keypress(Space),,,,,,,,---- -- ----- -- ------ - ------- --- ----------<br>------------- ------ ------ ---- ---- ------- ----- -- ----<br>romantic ------- -- ---------- --- - --- ----- ----- ----<br>---- --- --- ----- --- ---- ---- ------- ----- ---- -------<br>--- --- -- ----- -- --- ---- -- --- ---- -- ------ ------<br>--- ----- -- ----,192392.09999999776,192391.69999999925,191972.141,191983.8999999985,191988.64,192405.893,,18,romantic
screen,html.Screen,2_1_0_1_19,2022-02-02T13:30:54.481Z,,,,,,,,,,,,,,,,,53,,,,,,,,,,,,,,481.7069999977539,,response,,,,99,,,,,,,Space,keypress(Space),,,,,,,,---- -- ----- -- ------ - ------- --- ----------<br>------------- ------ ------ ---- ---- ------- ----- -- ----<br>-------- partner -- ---------- --- - --- ----- ----- ----<br>---- --- --- ----- --- ---- ---- ------- ----- ---- -------<br>--- --- -- ----- -- --- ---- -- --- ---- -- ------ ------<br>--- ----- -- ----,192888,192887.59999999776,192389.482,192392.19999999925,192405.893,192889.52,,19,partner
screen,html.Screen,2_1_0_1_20,2022-02-02T13:30:54.881Z,,,,,,,,,,,,,,,,,53,,,,,,,,,,,,,,398.37999999852036,,response,,,,99,,,,,,,Space,keypress(Space),,,,,,,,---- -- ----- -- ------ - ------- --- ----------<br>------------- ------ ------ ---- ---- ------- ----- -- ----<br>-------- ------- is ---------- --- - --- ----- ----- ----<br>---- --- --- ----- --- ---- ---- ------- ----- ---- -------<br>--- --- -- ----- -- --- ---- -- --- ---- -- ------ ------<br>--- ----- -- ----,193288.29999999702,193287.8999999985,192872.811,192888,192889.52,193289.922,,20,is
screen,html.Screen,2_1_0_1_21,2022-02-02T13:30:55.457Z,,,,,,,,,,,,,,,,,53,,,,,,,,,,,,,,574.1779999977734,,response,,,,99,,,,,,,Space,keypress(Space),,,,,,,,---- -- ----- -- ------ - ------- --- ----------<br>------------- ------ ------ ---- ---- ------- ----- -- ----<br>-------- ------- -- paramount. --- - --- ----- ----- ----<br>---- --- --- ----- --- ---- ---- ------- ----- ---- -------<br>--- --- -- ----- -- --- ---- -- --- ---- -- ------ ------<br>--- ----- -- ----,193864.59999999776,193864.09999999776,193273.395,193288.3999999985,193289.922,193873.883,,21,paramount.
screen,html.Screen,2_1_0_1_22,2022-02-02T13:30:55.929Z,,,,,,,,,,,,,,,,,53,,,,,,,,,,,,,,462.01699999850825,,response,,,,99,,,,,,,Space,keypress(Space),,,,,,,,---- -- ----- -- ------ - ------- --- ----------<br>------------- ------ ------ ---- ---- ------- ----- -- ----<br>-------- ------- -- ---------- But - --- ----- ----- ----<br>---- --- --- ----- --- ---- ---- ------- ----- ---- -------<br>--- --- -- ----- -- --- ---- -- --- ---- -- ------ ------<br>--- ----- -- ----,194336.29999999702,194335.8999999985,193857.531,193864.69999999925,193873.883,194340.946,,22,But
screen,html.Screen,2_1_0_1_23,2022-02-02T13:30:56.425Z,,,,,,,,,,,,,,,,,53,,,,,,,,,,,,,,490.8539999970235,,response,,,,99,,,,,,,Space,keypress(Space),,,,,,,,---- -- ----- -- ------ - ------- --- ----------<br>------------- ------ ------ ---- ---- ------- ----- -- ----<br>-------- ------- -- ---------- --- a --- ----- ----- ----<br>---- --- --- ----- --- ---- ---- ------- ----- ---- -------<br>--- --- -- ----- -- --- ---- -- --- ---- -- ------ ------<br>--- ----- -- ----,194832.29999999702,194831.79999999702,194324.437,194336.29999999702,194340.946,194841.459,,23,a
screen,html.Screen,2_1_0_1_24,2022-02-02T13:30:57.034Z,,,,,,,,,,,,,,,,,53,,,,,,,,,,,,,,599.1409999977623,,response,,,,99,,,,,,,Space,keypress(Space),,,,,,,,---- -- ----- -- ------ - ------- --- ----------<br>------------- ------ ------ ---- ---- ------- ----- -- ----<br>-------- ------- -- ---------- --- - new ----- ----- ----<br>---- --- --- ----- --- ---- ---- ------- ----- ---- -------<br>--- --- -- ----- -- --- ---- -- --- ---- -- ------ ------<br>--- ----- -- ----,195441,195440.59999999776,194824.767,194832.29999999702,194841.459,195460.83,,24,new
screen,html.Screen,2_1_0_1_25,2022-02-02T13:30:57.489Z,,,,,,,,,,,,,,,,,53,,,,,,,,,,,,,,435.36999999926775,,response,,,,99,,,,,,,Space,keypress(Space),,,,,,,,---- -- ----- -- ------ - ------- --- ----------<br>------------- ------ ------ ---- ---- ------- ----- -- ----<br>-------- ------- -- ---------- --- - --- study ----- ----<br>---- --- --- ----- --- ---- ---- ------- ----- ---- -------<br>--- --- -- ----- -- --- ---- -- --- ---- -- ------ ------<br>--- ----- -- ----,195896.5,195896.19999999925,195426.375,195441,195460.83,195909.744,,25,study
screen,html.Screen,2_1_0_1_26,2022-02-02T13:30:57.922Z,,,,,,,,,,,,,,,,,53,,,,,,,,,,,,,,418.9559999992489,,response,,,,99,,,,,,,Space,keypress(Space),,,,,,,,---- -- ----- -- ------ - ------- --- ----------<br>------------- ------ ------ ---- ---- ------- ----- -- ----<br>-------- ------- -- ---------- --- - --- ----- finds ----<br>---- --- --- ----- --- ---- ---- ------- ----- ---- -------<br>--- --- -- ----- -- --- ---- -- --- ---- -- ------ ------<br>--- ----- -- ----,196329.3999999985,196328.69999999925,195892.643,195896.59999999776,195909.744,196342.998,,26,finds
screen,html.Screen,2_1_0_1_27,2022-02-02T13:30:58.362Z,,,,,,,,,,,,,,,,,53,,,,,,,,,,,,,,425.7019999992626,,response,,,,99,,,,,,,Space,keypress(Space),,,,,,,,---- -- ----- -- ------ - ------- --- ----------<br>------------- ------ ------ ---- ---- ------- ----- -- ----<br>-------- ------- -- ---------- --- - --- ----- ----- that<br>---- --- --- ----- --- ---- ---- ------- ----- ---- -------<br>--- --- -- ----- -- --- ---- -- --- ---- -- ------ ------<br>--- ----- -- ----,196769.09999999776,196768.69999999925,196326.874,196329.5,196342.998,196776.687,,27,that
screen,html.Screen,2_1_0_1_28,2022-02-02T13:30:58.737Z,,,,,,,,,,,,,,,,,53,,,,,,,,,,,,,,367.71299999850453,,response,,,,99,,,,,,,Space,keypress(Space),,,,,,,,---- -- ----- -- ------ - ------- --- ----------<br>------------- ------ ------ ---- ---- ------- ----- -- ----<br>-------- ------- -- ---------- --- - --- ----- ----- ----<br>it's --- --- ----- --- ---- ---- ------- ----- ---- -------<br>--- --- -- ----- -- --- ---- -- --- ---- -- ------ ------<br>--- ----- -- ----,197144.8999999985,197144.3999999985,196760.05,196769.19999999925,196776.687,197160.61,,28,it's
screen,html.Screen,2_1_0_1_29,2022-02-02T13:30:59.225Z,,,,,,,,,,,,,,,,,53,,,,,,,,,,,,,,471.68999999703374,,response,,,,99,,,,,,,Space,keypress(Space),,,,,,,,---- -- ----- -- ------ - ------- --- ----------<br>------------- ------ ------ ---- ---- ------- ----- -- ----<br>-------- ------- -- ---------- --- - --- ----- ----- ----<br>---- not --- ----- --- ---- ---- ------- ----- ---- -------<br>--- --- -- ----- -- --- ---- -- --- ---- -- ------ ------<br>--- ----- -- ----,197632.69999999925,197632.29999999702,197143.94,197145,197160.61,197644.212,,29,not
screen,html.Screen,2_1_0_1_30,2022-02-02T13:30:59.601Z,,,,,,,,,,,,,,,,,53,,,,,,,,,,,,,,364.18799999851035,,response,,,,99,,,,,,,Space,keypress(Space),,,,,,,,---- -- ----- -- ------ - ------- --- ----------<br>------------- ------ ------ ---- ---- ------- ----- -- ----<br>-------- ------- -- ---------- --- - --- ----- ----- ----<br>---- --- how ----- --- ---- ---- ------- ----- ---- -------<br>--- --- -- ----- -- --- ---- -- --- ---- -- ------ ------<br>--- ----- -- ----,198008.79999999702,198008.3999999985,197627.581,197632.79999999702,197644.212,198011.243,,30,how
screen,html.Screen,2_1_0_1_31,2022-02-02T13:31:00.025Z,,,,,,,,,,,,,,,,,53,,,,,,,,,,,,,,421.0569999970321,,response,,,,99,,,,,,,Space,keypress(Space),,,,,,,,---- -- ----- -- ------ - ------- --- ----------<br>------------- ------ ------ ---- ---- ------- ----- -- ----<br>-------- ------- -- ---------- --- - --- ----- ----- ----<br>---- --- --- close --- ---- ---- ------- ----- ---- -------<br>--- --- -- ----- -- --- ---- -- --- ---- -- ------ ------<br>--- ----- -- ----,198432.69999999925,198432.29999999702,197994.899,198009.59999999776,198011.243,198445.201,,31,close
screen,html.Screen,2_1_0_1_32,2022-02-02T13:31:00.761Z,,,,,,,,,,,,,,,,,53,,,,,,,,,,,,,,723.0989999970188,,response,,,,99,,,,,,,Space,keypress(Space),,,,,,,,---- -- ----- -- ------ - ------- --- ----------<br>------------- ------ ------ ---- ---- ------- ----- -- ----<br>-------- ------- -- ---------- --- - --- ----- ----- ----<br>---- --- --- ----- you ---- ---- ------- ----- ---- -------<br>--- --- -- ----- -- --- ---- -- --- ---- -- ------ ------<br>--- ----- -- ----,199168.79999999702,199168.29999999702,198428.756,198432.79999999702,198445.201,199179.304,,32,you
screen,html.Screen,2_1_0_1_33,2022-02-02T13:31:01.274Z,,,,,,,,,,,,,,,,,53,,,,,,,,,,,,,,501.6959999999963,,response,,,,99,,,,,,,Space,keypress(Space),,,,,,,,---- -- ----- -- ------ - ------- --- ----------<br>------------- ------ ------ ---- ---- ------- ----- -- ----<br>-------- ------- -- ---------- --- - --- ----- ----- ----<br>---- --- --- ----- --- feel ---- ------- ----- ---- -------<br>--- --- -- ----- -- --- ---- -- --- ---- -- ------ ------<br>--- ----- -- ----,199681.3999999985,199681,199162.482,199168.79999999702,199179.304,199696.267,,33,feel
screen,html.Screen,2_1_0_1_34,2022-02-02T13:31:01.706Z,,,,,,,,,,,,,,,,,53,,,,,,,,,,,,,,416.8329999977723,,response,,,,99,,,,,,,Space,keypress(Space),,,,,,,,---- -- ----- -- ------ - ------- --- ----------<br>------------- ------ ------ ---- ---- ------- ----- -- ----<br>-------- ------- -- ---------- --- - --- ----- ----- ----<br>---- --- --- ----- --- ---- that ------- ----- ---- -------<br>--- --- -- ----- -- --- ---- -- --- ---- -- ------ ------<br>--- ----- -- ----,200113.69999999925,200113.09999999776,199679.54,199681.5,199696.267,200130.058,,34,that
screen,html.Screen,2_1_0_1_35,2022-02-02T13:31:02.122Z,,,,,,,,,,,,,,,,,53,,,,,,,,,,,,,,398.7419999970298,,response,,,,99,,,,,,,Space,keypress(Space),,,,,,,,---- -- ----- -- ------ - ------- --- ----------<br>------------- ------ ------ ---- ---- ------- ----- -- ----<br>-------- ------- -- ---------- --- - --- ----- ----- ----<br>---- --- --- ----- --- ---- ---- matters ----- ---- -------<br>--- --- -- ----- -- --- ---- -- --- ---- -- ------ ------<br>--- ----- -- ----,200529.19999999925,200528.79999999702,200113.502,200113.69999999925,200130.058,200551.642,,35,matters
screen,html.Screen,2_1_0_1_36,2022-02-02T13:31:02.514Z,,,,,,,,,,,,,,,,,53,,,,,,,,,,,,,,369.5579999992624,,response,,,,99,,,,,,,Space,keypress(Space),,,,,,,,"---- -- ----- -- ------ - ------- --- ----------<br>------------- ------ ------ ---- ---- ------- ----- -- ----<br>-------- ------- -- ---------- --- - --- ----- ----- ----<br>---- --- --- ----- --- ---- ---- ------- most, ---- -------<br>--- --- -- ----- -- --- ---- -- --- ---- -- ------ ------<br>--- ----- -- ----",200921.69999999925,200921.19999999925,200513.727,200529.3999999985,200551.642,200930.842,,36,"most,"
screen,html.Screen,2_1_0_1_37,2022-02-02T13:31:03.058Z,,,,,,,,,,,,,,,,,53,,,,,,,,,,,,,,533.8579999992508,,response,,,,99,,,,,,,Space,keypress(Space),,,,,,,,---- -- ----- -- ------ - ------- --- ----------<br>------------- ------ ------ ---- ---- ------- ----- -- ----<br>-------- ------- -- ---------- --- - --- ----- ----- ----<br>---- --- --- ----- --- ---- ---- ------- ----- it's -------<br>--- --- -- ----- -- --- ---- -- --- ---- -- ------ ------<br>--- ----- -- ----,201465.19999999925,201464.69999999925,200914.304,200921.79999999702,200930.842,201481.925,,37,it's
screen,html.Screen,2_1_0_1_38,2022-02-02T13:31:03.418Z,,,,,,,,,,,,,,,,,53,,,,,,,,,,,,,,343.07500000001164,,response,,,,99,,,,,,,Space,keypress(Space),,,,,,,,---- -- ----- -- ------ - ------- --- ----------<br>------------- ------ ------ ---- ---- ------- ----- -- ----<br>-------- ------- -- ---------- --- - --- ----- ----- ----<br>---- --- --- ----- --- ---- ---- ------- ----- ---- whether<br>--- --- -- ----- -- --- ---- -- --- ---- -- ------ ------<br>--- ----- -- ----,201825.29999999702,201825,201465.202,201465.29999999702,201481.925,201831.668,,38,whether
screen,html.Screen,2_1_0_1_39,2022-02-02T13:31:03.786Z,,,,,,,,,,,,,,,,,53,,,,,,,,,,,,,,361.4319999977597,,response,,,,99,,,,,,,Space,keypress(Space),,,,,,,,---- -- ----- -- ------ - ------- --- ----------<br>------------- ------ ------ ---- ---- ------- ----- -- ----<br>-------- ------- -- ---------- --- - --- ----- ----- ----<br>---- --- --- ----- --- ---- ---- ------- ----- ---- -------<br>you --- -- ----- -- --- ---- -- --- ---- -- ------ ------<br>--- ----- -- ----,202193.5,202193.09999999776,201815.576,201825.3999999985,201831.668,202198.835,,39,you
screen,html.Screen,2_1_0_1_40,2022-02-02T13:31:04.098Z,,,,,,,,,,,,,,,,,53,,,,,,,,,,,,,,306.264999997773,,response,,,,99,,,,,,,Space,keypress(Space),,,,,,,,---- -- ----- -- ------ - ------- --- ----------<br>------------- ------ ------ ---- ---- ------- ----- -- ----<br>-------- ------- -- ---------- --- - --- ----- ----- ----<br>---- --- --- ----- --- ---- ---- ------- ----- ---- -------<br>--- are -- ----- -- --- ---- -- --- ---- -- ------ ------<br>--- ----- -- ----,202505.3999999985,202505.09999999776,202182.018,202193.59999999776,202198.835,202515.882,,40,are
screen,html.Screen,2_1_0_1_41,2022-02-02T13:31:04.426Z,,,,,,,,,,,,,,,,,53,,,,,,,,,,,,,,317.51799999849754,,response,,,,99,,,,,,,Space,keypress(Space),,,,,,,,---- -- ----- -- ------ - ------- --- ----------<br>------------- ------ ------ ---- ---- ------- ----- -- ----<br>-------- ------- -- ---------- --- - --- ----- ----- ----<br>---- --- --- ----- --- ---- ---- ------- ----- ---- -------<br>--- --- as ----- -- --- ---- -- --- ---- -- ------ ------<br>--- ----- -- ----,202833.79999999702,202833.3999999985,202499.447,202505.3999999985,202515.882,202849.917,,41,as
screen,html.Screen,2_1_0_1_42,2022-02-02T13:31:04.810Z,,,,,,,,,,,,,,,,,53,,,,,,,,,,,,,,367.1829999977781,,response,,,,99,,,,,,,Space,keypress(Space),,,,,,,,---- -- ----- -- ------ - ------- --- ----------<br>------------- ------ ------ ---- ---- ------- ----- -- ----<br>-------- ------- -- ---------- --- - --- ----- ----- ----<br>---- --- --- ----- --- ---- ---- ------- ----- ---- -------<br>--- --- -- close -- --- ---- -- --- ---- -- ------ ------<br>--- ----- -- ----,203217.5,203217.09999999776,202832.712,202833.8999999985,202849.917,203233.323,,42,close
screen,html.Screen,2_1_0_1_43,2022-02-02T13:31:05.146Z,,,,,,,,,,,,,,,,,53,,,,,,,,,,,,,,319.876999999251,,response,,,,99,,,,,,,Space,keypress(Space),,,,,,,,---- -- ----- -- ------ - ------- --- ----------<br>------------- ------ ------ ---- ---- ------- ----- -- ----<br>-------- ------- -- ---------- --- - --- ----- ----- ----<br>---- --- --- ----- --- ---- ---- ------- ----- ---- -------<br>--- --- -- ----- as --- ---- -- --- ---- -- ------ ------<br>--- ----- -- ----,203553.5,203553.19999999925,203216.615,203217.59999999776,203233.323,203566.788,,43,as
screen,html.Screen,2_1_0_1_44,2022-02-02T13:31:05.491Z,,,,,,,,,,,,,,,,,53,,,,,,,,,,,,,,330.6119999985094,,response,,,,99,,,,,,,Space,keypress(Space),,,,,,,,---- -- ----- -- ------ - ------- --- ----------<br>------------- ------ ------ ---- ---- ------- ----- -- ----<br>-------- ------- -- ---------- --- - --- ----- ----- ----<br>---- --- --- ----- --- ---- ---- ------- ----- ---- -------<br>--- --- -- ----- -- you ---- -- --- ---- -- ------ ------<br>--- ----- -- ----,203898.09999999776,203897.3999999985,203550.024,203553.59999999776,203566.788,203900.391,,44,you
screen,html.Screen,2_1_0_1_45,2022-02-02T13:31:05.835Z,,,,,,,,,,,,,,,,,53,,,,,,,,,,,,,,341.3089999992517,,response,,,,99,,,,,,,Space,keypress(Space),,,,,,,,---- -- ----- -- ------ - ------- --- ----------<br>------------- ------ ------ ---- ---- ------- ----- -- ----<br>-------- ------- -- ---------- --- - --- ----- ----- ----<br>---- --- --- ----- --- ---- ---- ------- ----- ---- -------<br>--- --- -- ----- -- --- want -- --- ---- -- ------ ------<br>--- ----- -- ----,204242.19999999925,204241.69999999925,203883.707,203898.09999999776,203900.391,204251.298,,45,want
screen,html.Screen,2_1_0_1_46,2022-02-02T13:31:06.195Z,,,,,,,,,,,,,,,,,53,,,,,,,,,,,,,,350.40199999924516,,response,,,,99,,,,,,,Space,keypress(Space),,,,,,,,---- -- ----- -- ------ - ------- --- ----------<br>------------- ------ ------ ---- ---- ------- ----- -- ----<br>-------- ------- -- ---------- --- - --- ----- ----- ----<br>---- --- --- ----- --- ---- ---- ------- ----- ---- -------<br>--- --- -- ----- -- --- ---- to --- ---- -- ------ ------<br>--- ----- -- ----,204602,204601.69999999925,204234.215,204242.29999999702,204251.298,204617.796,,46,to
screen,html.Screen,2_1_0_1_47,2022-02-02T13:31:06.643Z,,,,,,,,,,,,,,,,,53,,,,,,,,,,,,,,431.90399999925285,,response,,,,99,,,,,,,Space,keypress(Space),,,,,,,,"---- -- ----- -- ------ - ------- --- ----------<br>------------- ------ ------ ---- ---- ------- ----- -- ----<br>-------- ------- -- ---------- --- - --- ----- ----- ----<br>---- --- --- ----- --- ---- ---- ------- ----- ---- -------<br>--- --- -- ----- -- --- ---- -- be, ---- -- ------ ------<br>--- ----- -- ----",205050.29999999702,205049.69999999925,204601.536,204602.19999999925,204617.796,205051.538,,47,"be,"
screen,html.Screen,2_1_0_1_48,2022-02-02T13:31:07.075Z,,,,,,,,,,,,,,,,,53,,,,,,,,,,,,,,430.2619999970193,,response,,,,99,,,,,,,Space,keypress(Space),,,,,,,,---- -- ----- -- ------ - ------- --- ----------<br>------------- ------ ------ ---- ---- ------- ----- -- ----<br>-------- ------- -- ---------- --- - --- ----- ----- ----<br>---- --- --- ----- --- ---- ---- ------- ----- ---- -------<br>--- --- -- ----- -- --- ---- -- --- even -- ------ ------<br>--- ----- -- ----,205482.29999999702,205481.79999999702,205034.854,205050.29999999702,205051.538,205485.263,,48,even
screen,html.Screen,2_1_0_1_49,2022-02-02T13:31:07.418Z,,,,,,,,,,,,,,,,,53,,,,,,,,,,,,,,340.1369999985036,,response,,,,99,,,,,,,Space,keypress(Space),,,,,,,,---- -- ----- -- ------ - ------- --- ----------<br>------------- ------ ------ ---- ---- ------- ----- -- ----<br>-------- ------- -- ---------- --- - --- ----- ----- ----<br>---- --- --- ----- --- ---- ---- ------- ----- ---- -------<br>--- --- -- ----- -- --- ---- -- --- ---- if ------ ------<br>--- ----- -- ----,205825.79999999702,205825.3999999985,205468.94,205482.29999999702,205485.263,205835.943,,49,if
screen,html.Screen,2_1_0_1_50,2022-02-02T13:31:07.795Z,,,,,,,,,,,,,,,,,53,,,,,,,,,,,,,,365.9569999985106,,response,,,,99,,,,,,,Space,keypress(Space),,,,,,,,---- -- ----- -- ------ - ------- --- ----------<br>------------- ------ ------ ---- ---- ------- ----- -- ----<br>-------- ------- -- ---------- --- - --- ----- ----- ----<br>---- --- --- ----- --- ---- ---- ------- ----- ---- -------<br>--- --- -- ----- -- --- ---- -- --- ---- -- that's ------<br>--- ----- -- ----,206202.3999999985,206201.8999999985,205819.104,205825.8999999985,205835.943,206219.385,,50,that's
screen,html.Screen,2_1_0_1_51,2022-02-02T13:31:08.243Z,,,,,,,,,,,,,,,,,53,,,,,,,,,,,,,,430.01499999850057,,response,,,,99,,,,,,,Space,keypress(Space),,,,,,,,---- -- ----- -- ------ - ------- --- ----------<br>------------- ------ ------ ---- ---- ------- ----- -- ----<br>-------- ------- -- ---------- --- - --- ----- ----- ----<br>---- --- --- ----- --- ---- ---- ------- ----- ---- -------<br>--- --- -- ----- -- --- ---- -- --- ---- -- ------ really<br>--- ----- -- ----,206650,206649.3999999985,206186.334,206202.5,206219.385,206653.085,,51,really
screen,html.Screen,2_1_0_1_52,2022-02-02T13:31:08.595Z,,,,,,,,,,,,,,,,,53,,,,,,,,,,,,,,348.7149999970279,,response,,,,99,,,,,,,Space,keypress(Space),,,,,,,,---- -- ----- -- ------ - ------- --- ----------<br>------------- ------ ------ ---- ---- ------- ----- -- ----<br>-------- ------- -- ---------- --- - --- ----- ----- ----<br>---- --- --- ----- --- ---- ---- ------- ----- ---- -------<br>--- --- -- ----- -- --- ---- -- --- ---- -- ------ ------<br>not ----- -- ----,207002.19999999925,207001.79999999702,206636.995,206650,206653.085,207020.727,,52,not
screen,html.Screen,2_1_0_1_53,2022-02-02T13:31:08.899Z,,,,,,,,,,,,,,,,,53,,,,,,,,,,,,,,284.97299999924144,,response,,,,99,,,,,,,Space,keypress(Space),,,,,,,,---- -- ----- -- ------ - ------- --- ----------<br>------------- ------ ------ ---- ---- ------- ----- -- ----<br>-------- ------- -- ---------- --- - --- ----- ----- ----<br>---- --- --- ----- --- ---- ---- ------- ----- ---- -------<br>--- --- -- ----- -- --- ---- -- --- ---- -- ------ ------<br>--- close -- ----,207306.19999999925,207305.69999999925,206986.803,207002.19999999925,207020.727,207320.557,,53,close
screen,html.Screen,2_1_0_1_54,2022-02-02T13:31:09.283Z,,,,,,,,,,,,,,,,,53,,,,,,,,,,,,,,369.64299999925424,,response,,,,99,,,,,,,Space,keypress(Space),,,,,,,,---- -- ----- -- ------ - ------- --- ----------<br>------------- ------ ------ ---- ---- ------- ----- -- ----<br>-------- ------- -- ---------- --- - --- ----- ----- ----<br>---- --- --- ----- --- ---- ---- ------- ----- ---- -------<br>--- --- -- ----- -- --- ---- -- --- ---- -- ------ ------<br>--- ----- at ----,207690.79999999702,207690.19999999925,207303.902,207306.29999999702,207320.557,207704.463,,54,at
screen,html.Screen,2_1_0_1_55,2022-02-02T13:31:09.731Z,,,,,,,,,,,,,,,,,53,,,,,,,,,,,,,,433.136999997776,,response,,,,99,,,,,,,Space,keypress(Space),,,,,,,,---- -- ----- -- ------ - ------- --- ----------<br>------------- ------ ------ ---- ---- ------- ----- -- ----<br>-------- ------- -- ---------- --- - --- ----- ----- ----<br>---- --- --- ----- --- ---- ---- ------- ----- ---- -------<br>--- --- -- ----- -- --- ---- -- --- ---- -- ------ ------<br>--- ----- -- all.,208138.09999999776,208137.59999999776,207688.11,207690.8999999985,207704.463,208154.586,,55,all.
Item 99,flow.Loop,2_1_0_1,2022-02-02T13:31:09.731Z,,,,,,,,,,,,,,,,,,,,,,,,,,,,,,,25558.14199999775,,completion,,,,,B,,,,,,,,,,,silence,,,,,208138.29999999702,208137.59999999776,182562.668,182563.69999999925,182579.458,208154.586,,,
Question 1,html.Screen,2_1_0_2,2022-02-02T13:31:15.282Z,,,,,,,,,,,,,,,,,,,,,,,,,,,,true,FALSE,,5533.8139999985,,response,,,,99,B,,,,,,FALSE,click #choice-2,,,,silence,,,,,213689.3999999985,213688.3999999985,208138.274,208138.3999999985,208154.586,213710.151,,,
Question 2,html.Screen,2_1_0_3,2022-02-02T13:31:20.561Z,,,,,,,,,,,,,,,,,,,,,,,,,,,,false,TRUE,,5257.048999999242,,response,,,,99,B,,,,,,FALSE,click #choice-2,,,,silence,,,,,218968.79999999702,218967.19999999925,213676.766,213689.3999999985,213710.151,218982.375,,,
Item 99,flow.Sequence,2_1_0,2022-02-02T13:31:20.562Z,,,,,,,,,,,,,,,,,,,,,,,,,,,,,,,46381.094999999244,,completion,,,,,,,,,,,,,,,,,,,,,218969,218967.19999999925,172569.467,172581,172586.105,218982.375,,,
Holding screen,html.Screen,2_1_1_0,2022-02-02T13:31:30.552Z,,,,,,,,,,,,,,,,,,,,,,,,,,,,,,,9992.815000000002,,timeout,,,,,,,,,,,,,,,,,,,,,228959.09999999776,228958.643,218965.606,218969.09999999776,218982.375,228975.19,,,
screen,html.Screen,2_1_1_1_0,2022-02-02T13:31:31.854Z,,,,,,,,,,,,,,,,,54,,,,,,,,,,,,,,1285.5099999992526,,response,,,,100,,,,,,,Space,keypress(Space),,,,,,,,At --- ---- --- ------ ----- ------- ---- -- --- ------- --<br>------- ---------- ------ -- ----- -- ----- -- ---- ------<br>--- ----- --- --- ------ -------- ----- --- ------ ----- --<br>----- ----- ---------- --- --- ------ ------ ---- -- ------<br>------- --- ------ ----- --- ---- ------- -- ---- --- --<br>------- ------,230261.19999999925,230260.69999999925,228958.643,228959.19999999925,228975.19,230276.632,,0,At
screen,html.Screen,2_1_1_1_1,2022-02-02T13:31:32.270Z,,,,,,,,,,,,,,,,,54,,,,,,,,,,,,,,399.86799999998766,,response,,,,100,,,,,,,Space,keypress(Space),,,,,,,,-- the ---- --- ------ ----- ------- ---- -- --- ------- --<br>------- ---------- ------ -- ----- -- ----- -- ---- ------<br>--- ----- --- --- ------ -------- ----- --- ------ ----- --<br>----- ----- ---------- --- --- ------ ------ ---- -- ------<br>------- --- ------ ----- --- ---- ------- -- ---- --- --<br>------- ------,230676.8999999985,230676.5,230259.869,230261.19999999925,230276.632,230693.819,,1,the
screen,html.Screen,2_1_1_1_2,2022-02-02T13:31:32.838Z,,,,,,,,,,,,,,,,,54,,,,,,,,,,,,,,550.9809999970312,,response,,,,100,,,,,,,Space,keypress(Space),,,,,,,,-- --- time --- ------ ----- ------- ---- -- --- ------- --<br>------- ---------- ------ -- ----- -- ----- -- ---- ------<br>--- ----- --- --- ------ -------- ----- --- ------ ----- --<br>----- ----- ---------- --- --- ------ ------ ---- -- ------<br>------- --- ------ ----- --- ---- ------- -- ---- --- --<br>------- ------,231245.19999999925,231244.79999999702,230676.957,230677,230693.819,231260.894,,2,time
screen,html.Screen,2_1_1_1_3,2022-02-02T13:31:33.230Z,,,,,,,,,,,,,,,,,54,,,,,,,,,,,,,,375.90599999701953,,response,,,,100,,,,,,,Space,keypress(Space),,,,,,,,-- --- ---- the ------ ----- ------- ---- -- --- ------- --<br>------- ---------- ------ -- ----- -- ----- -- ---- ------<br>--- ----- --- --- ------ -------- ----- --- ------ ----- --<br>----- ----- ---------- --- --- ------ ------ ---- -- ------<br>------- --- ------ ----- --- ---- ------- -- ---- --- --<br>------- ------,231637.19999999925,231636.79999999702,231244.608,231245.19999999925,231260.894,231644.454,,3,the
screen,html.Screen,2_1_1_1_4,2022-02-02T13:31:33.726Z,,,,,,,,,,,,,,,,,54,,,,,,,,,,,,,,488.24599999925704,,response,,,,100,,,,,,,Space,keypress(Space),,,,,,,,-- --- ---- --- French ----- ------- ---- -- --- ------- --<br>------- ---------- ------ -- ----- -- ----- -- ---- ------<br>--- ----- --- --- ------ -------- ----- --- ------ ----- --<br>----- ----- ---------- --- --- ------ ------ ---- -- ------<br>------- --- ------ ----- --- ---- ------- -- ---- --- --<br>------- ------,232133.19999999925,232132.69999999925,231627.952,231637.19999999925,231644.454,232145.092,,4,French
screen,html.Screen,2_1_1_1_5,2022-02-02T13:31:34.126Z,,,,,,,,,,,,,,,,,54,,,,,,,,,,,,,,388.00799999776063,,response,,,,100,,,,,,,Space,keypress(Space),,,,,,,,-- --- ---- --- ------ crown ------- ---- -- --- ------- --<br>------- ---------- ------ -- ----- -- ----- -- ---- ------<br>--- ----- --- --- ------ -------- ----- --- ------ ----- --<br>----- ----- ---------- --- --- ------ ------ ---- -- ------<br>------- --- ------ ----- --- ---- ------- -- ---- --- --<br>------- ------,232533.5,232533.09999999776,232128.466,232133.19999999925,232145.092,232545.543,,5,crown
screen,html.Screen,2_1_1_1_6,2022-02-02T13:31:34.510Z,,,,,,,,,,,,,,,,,54,,,,,,,,,,,,,,371.4569999999949,,response,,,,100,,,,,,,Space,keypress(Space),,,,,,,,-- --- ---- --- ------ ----- secured ---- -- --- ------- --<br>------- ---------- ------ -- ----- -- ----- -- ---- ------<br>--- ----- --- --- ------ -------- ----- --- ------ ----- --<br>----- ----- ---------- --- --- ------ ------ ---- -- ------<br>------- --- ------ ----- --- ---- ------- -- ---- --- --<br>------- ------,232917.3999999985,232917,232528.818,232533.59999999776,232545.543,232929.065,,6,secured
screen,html.Screen,2_1_1_1_7,2022-02-02T13:31:34.878Z,,,,,,,,,,,,,,,,,54,,,,,,,,,,,,,,355.9349999999977,,response,,,,100,,,,,,,Space,keypress(Space),,,,,,,,-- --- ---- --- ------ ----- ------- much -- --- ------- --<br>------- ---------- ------ -- ----- -- ----- -- ---- ------<br>--- ----- --- --- ------ -------- ----- --- ------ ----- --<br>----- ----- ---------- --- --- ------ ------ ---- -- ------<br>------- --- ------ ----- --- ---- ------- -- ---- --- --<br>------- ------,233285.5,233285,232912.592,232917.5,232929.065,233296.23,,7,much
screen,html.Screen,2_1_1_1_8,2022-02-02T13:31:35.254Z,,,,,,,,,,,,,,,,,54,,,,,,,,,,,,,,364.6699999984994,,response,,,,100,,,,,,,Space,keypress(Space),,,,,,,,-- --- ---- --- ------ ----- ------- ---- of --- ------- --<br>------- ---------- ------ -- ----- -- ----- -- ---- ------<br>--- ----- --- --- ------ -------- ----- --- ------ ----- --<br>----- ----- ---------- --- --- ------ ------ ---- -- ------<br>------- --- ------ ----- --- ---- ------- -- ---- --- --<br>------- ------,233661.19999999925,233660.8999999985,233279.615,233285.59999999776,233296.23,233663.115,,8,of
screen,html.Screen,2_1_1_1_9,2022-02-02T13:31:35.566Z,,,,,,,,,,,,,,,,,54,,,,,,,,,,,,,,310.1849999970291,,response,,,,100,,,,,,,Space,keypress(Space),,,,,,,,-- --- ---- --- ------ ----- ------- ---- -- its ------- --<br>------- ---------- ------ -- ----- -- ----- -- ---- ------<br>--- ----- --- --- ------ -------- ----- --- ------ ----- --<br>----- ----- ---------- --- --- ------ ------ ---- -- ------<br>------- --- ------ ----- --- ---- ------- -- ---- --- --<br>------- ------,233973.69999999925,233973.29999999702,233646.606,233661.29999999702,233663.115,233980.251,,9,its
screen,html.Screen,2_1_1_1_10,2022-02-02T13:31:35.926Z,,,,,,,,,,,,,,,,,54,,,,,,,,,,,,,,352.7490000000107,,response,,,,100,,,,,,,Space,keypress(Space),,,,,,,,-- --- ---- --- ------ ----- ------- ---- -- --- revenue --<br>------- ---------- ------ -- ----- -- ----- -- ---- ------<br>--- ----- --- --- ------ -------- ----- --- ------ ----- --<br>----- ----- ---------- --- --- ------ ------ ---- -- ------<br>------- --- ------ ----- --- ---- ------- -- ---- --- --<br>------- ------,234333.3999999985,234333,233963.464,233973.69999999925,233980.251,234347.149,,10,revenue
screen,html.Screen,2_1_1_1_11,2022-02-02T13:31:36.334Z,,,,,,,,,,,,,,,,,54,,,,,,,,,,,,,,394.1509999970149,,response,,,,100,,,,,,,Space,keypress(Space),,,,,,,,-- --- ---- --- ------ ----- ------- ---- -- --- ------- by<br>------- ---------- ------ -- ----- -- ----- -- ---- ------<br>--- ----- --- --- ------ -------- ----- --- ------ ----- --<br>----- ----- ---------- --- --- ------ ------ ---- -- ------<br>------- --- ------ ----- --- ---- ------- -- ---- --- --<br>------- ------,234741.69999999925,234741.29999999702,234330.589,234333.5,234347.149,234747.697,,11,by
screen,html.Screen,2_1_1_1_12,2022-02-02T13:31:36.703Z,,,,,,,,,,,,,,,,,54,,,,,,,,,,,,,,362.2029999985243,,response,,,,100,,,,,,,Space,keypress(Space),,,,,,,,-- --- ---- --- ------ ----- ------- ---- -- --- ------- --<br>issuing ---------- ------ -- ----- -- ----- -- ---- ------<br>--- ----- --- --- ------ -------- ----- --- ------ ----- --<br>----- ----- ---------- --- --- ------ ------ ---- -- ------<br>------- --- ------ ----- --- ---- ------- -- ---- --- --<br>------- ------,235110.3999999985,235109.8999999985,234731.002,234741.79999999702,234747.697,235114.677,,12,issuing
screen,html.Screen,2_1_1_1_13,2022-02-02T13:31:37.030Z,,,,,,,,,,,,,,,,,54,,,,,,,,,,,,,,322.6229999970237,,response,,,,100,,,,,,,Space,keypress(Space),,,,,,,,-- --- ---- --- ------ ----- ------- ---- -- --- ------- --<br>------- government ------ -- ----- -- ----- -- ---- ------<br>--- ----- --- --- ------ -------- ----- --- ------ ----- --<br>----- ----- ---------- --- --- ------ ------ ---- -- ------<br>------- --- ------ ----- --- ---- ------- -- ---- --- --<br>------- ------,235437.69999999925,235437.29999999702,235098.427,235110.5,235114.677,235448.208,,13,government
screen,html.Screen,2_1_1_1_14,2022-02-02T13:31:37.358Z,,,,,,,,,,,,,,,,,54,,,,,,,,,,,,,,317.1919999984966,,response,,,,100,,,,,,,Space,keypress(Space),,,,,,,,-- --- ---- --- ------ ----- ------- ---- -- --- ------- --<br>------- ---------- bonds. -- ----- -- ----- -- ---- ------<br>--- ----- --- --- ------ -------- ----- --- ------ ----- --<br>----- ----- ---------- --- --- ------ ------ ---- -- ------<br>------- --- ------ ----- --- ---- ------- -- ---- --- --<br>------- ------,235765.79999999702,235765.3999999985,235431.536,235437.79999999702,235448.208,235782.178,,14,bonds.
screen,html.Screen,2_1_1_1_15,2022-02-02T13:31:37.823Z,,,,,,,,,,,,,,,,,54,,,,,,,,,,,,,,447.82199999998556,,response,,,,100,,,,,,,Space,keypress(Space),,,,,,,,-- --- ---- --- ------ ----- ------- ---- -- --- ------- --<br>------- ---------- ------ In ----- -- ----- -- ---- ------<br>--- ----- --- --- ------ -------- ----- --- ------ ----- --<br>----- ----- ---------- --- --- ------ ------ ---- -- ------<br>------- --- ------ ----- --- ---- ------- -- ---- --- --<br>------- ------,236230.3999999985,236230,235765.792,235765.8999999985,235782.178,236249.56,,15,In
screen,html.Screen,2_1_1_1_16,2022-02-02T13:31:38.150Z,,,,,,,,,,,,,,,,,54,,,,,,,,,,,,,,307.63999999925727,,response,,,,100,,,,,,,Space,keypress(Space),,,,,,,,"-- --- ---- --- ------ ----- ------- ---- -- --- ------- --<br>------- ---------- ------ -- 1727, -- ----- -- ---- ------<br>--- ----- --- --- ------ -------- ----- --- ------ ----- --<br>----- ----- ---------- --- --- ------ ------ ---- -- ------<br>------- --- ------ ----- --- ---- ------- -- ---- --- --<br>------- ------",236557.59999999776,236557.19999999925,236215.658,236230.5,236249.56,236565.982,,16,"1727,"
screen,html.Screen,2_1_1_1_17,2022-02-02T13:31:38.742Z,,,,,,,,,,,,,,,,,54,,,,,,,,,,,,,,583.3179999970307,,response,,,,100,,,,,,,Space,keypress(Space),,,,,,,,-- --- ---- --- ------ ----- ------- ---- -- --- ------- --<br>------- ---------- ------ -- ----- in ----- -- ---- ------<br>--- ----- --- --- ------ -------- ----- --- ------ ----- --<br>----- ----- ---------- --- --- ------ ------ ---- -- ------<br>------- --- ------ ----- --- ---- ------- -- ---- --- --<br>------- ------,237149.79999999702,237149.29999999702,236549.313,236557.69999999925,236565.982,237166.751,,17,in
screen,html.Screen,2_1_1_1_18,2022-02-02T13:31:39.295Z,,,,,,,,,,,,,,,,,54,,,,,,,,,,,,,,534.8489999977755,,response,,,,100,,,,,,,Space,keypress(Space),,,,,,,,-- --- ---- --- ------ ----- ------- ---- -- --- ------- --<br>------- ---------- ------ -- ----- -- order -- ---- ------<br>--- ----- --- --- ------ -------- ----- --- ------ ----- --<br>----- ----- ---------- --- --- ------ ------ ---- -- ------<br>------- --- ------ ----- --- ---- ------- -- ---- --- --<br>------- ------,237702.09999999776,237701.59999999776,237133.391,237149.79999999702,237166.751,237717.142,,18,order
screen,html.Screen,2_1_1_1_19,2022-02-02T13:31:39.638Z,,,,,,,,,,,,,,,,,54,,,,,,,,,,,,,,328.35800000000745,,response,,,,100,,,,,,,Space,keypress(Space),,,,,,,,-- --- ---- --- ------ ----- ------- ---- -- --- ------- --<br>------- ---------- ------ -- ----- -- ----- to ---- ------<br>--- ----- --- --- ------ -------- ----- --- ------ ----- --<br>----- ----- ---------- --- --- ------ ------ ---- -- ------<br>------- --- ------ ----- --- ---- ------- -- ---- --- --<br>------- ------,238045.79999999702,238045.5,237700.457,237702.19999999925,237717.142,238050.776,,19,to
screen,html.Screen,2_1_1_1_20,2022-02-02T13:31:40.015Z,,,,,,,,,,,,,,,,,54,,,,,,,,,,,,,,370.92399999924237,,response,,,,100,,,,,,,Space,keypress(Space),,,,,,,,-- --- ---- --- ------ ----- ------- ---- -- --- ------- --<br>------- ---------- ------ -- ----- -- ----- -- save ------<br>--- ----- --- --- ------ -------- ----- --- ------ ----- --<br>----- ----- ---------- --- --- ------ ------ ---- -- ------<br>------- --- ------ ----- --- ---- ------- -- ---- --- --<br>------- ------,238422.19999999925,238421.69999999925,238034.098,238045.8999999985,238050.776,238434.683,,20,save
screen,html.Screen,2_1_1_1_21,2022-02-02T13:31:40.359Z,,,,,,,,,,,,,,,,,54,,,,,,,,,,,,,,331.1169999970298,,response,,,,100,,,,,,,Space,keypress(Space),,,,,,,,"-- --- ---- --- ------ ----- ------- ---- -- --- ------- --<br>------- ---------- ------ -- ----- -- ----- -- ---- money,<br>--- ----- --- --- ------ -------- ----- --- ------ ----- --<br>----- ----- ---------- --- --- ------ ------ ---- -- ------<br>------- --- ------ ----- --- ---- ------- -- ---- --- --<br>------- ------",238766.19999999925,238765.79999999702,238418.189,238422.19999999925,238434.683,238768.169,,21,"money,"
screen,html.Screen,2_1_1_1_22,2022-02-02T13:31:40.743Z,,,,,,,,,,,,,,,,,54,,,,,,,,,,,,,,382.13099999702536,,response,,,,100,,,,,,,Space,keypress(Space),,,,,,,,-- --- ---- --- ------ ----- ------- ---- -- --- ------- --<br>------- ---------- ------ -- ----- -- ----- -- ---- ------<br>the ----- --- --- ------ -------- ----- --- ------ ----- --<br>----- ----- ---------- --- --- ------ ------ ---- -- ------<br>------- --- ------ ----- --- ---- ------- -- ---- --- --<br>------- ------,239150.79999999702,239150.29999999702,238751.63,238766.19999999925,238768.169,239182.701,,22,the
screen,html.Screen,2_1_1_1_23,2022-02-02T13:31:41.095Z,,,,,,,,,,,,,,,,,54,,,,,,,,,,,,,,318.998999999254,,response,,,,100,,,,,,,Space,keypress(Space),,,,,,,,-- --- ---- --- ------ ----- ------- ---- -- --- ------- --<br>------- ---------- ------ -- ----- -- ----- -- ---- ------<br>--- state --- --- ------ -------- ----- --- ------ ----- --<br>----- ----- ---------- --- --- ------ ------ ---- -- ------<br>------- --- ------ ----- --- ---- ------- -- ---- --- --<br>------- ------,239502.09999999776,239501.69999999925,239135.739,239150.79999999702,239182.701,239519.467,,23,state
screen,html.Screen,2_1_1_1_24,2022-02-02T13:31:41.639Z,,,,,,,,,,,,,,,,,54,,,,,,,,,,,,,,526.5329999999958,,response,,,,100,,,,,,,Space,keypress(Space),,,,,,,,-- --- ---- --- ------ ----- ------- ---- -- --- ------- --<br>------- ---------- ------ -- ----- -- ----- -- ---- ------<br>--- ----- cut --- ------ -------- ----- --- ------ ----- --<br>----- ----- ---------- --- --- ------ ------ ---- -- ------<br>------- --- ------ ----- --- ---- ------- -- ---- --- --<br>------- ------,240046.3999999985,240046,239485.824,239502.19999999925,239519.467,240052.885,,24,cut
screen,html.Screen,2_1_1_1_25,2022-02-02T13:31:42.031Z,,,,,,,,,,,,,,,,,54,,,,,,,,,,,,,,385.31499999924563,,response,,,,100,,,,,,,Space,keypress(Space),,,,,,,,-- --- ---- --- ------ ----- ------- ---- -- --- ------- --<br>------- ---------- ------ -- ----- -- ----- -- ---- ------<br>--- ----- --- the ------ -------- ----- --- ------ ----- --<br>----- ----- ---------- --- --- ------ ------ ---- -- ------<br>------- --- ------ ----- --- ---- ------- -- ---- --- --<br>------- ------,240438.69999999925,240438.19999999925,240036.65,240046.5,240052.885,240453.235,,25,the
screen,html.Screen,2_1_1_1_26,2022-02-02T13:31:42.327Z,,,,,,,,,,,,,,,,,54,,,,,,,,,,,,,,280.76500000001397,,response,,,,100,,,,,,,Space,keypress(Space),,,,,,,,-- --- ---- --- ------ ----- ------- ---- -- --- ------- --<br>------- ---------- ------ -- ----- -- ----- -- ---- ------<br>--- ----- --- --- bonds' -------- ----- --- ------ ----- --<br>----- ----- ---------- --- --- ------ ------ ---- -- ------<br>------- --- ------ ----- --- ---- ------- -- ---- --- --<br>------- ------,240734.29999999702,240734,240436.511,240438.79999999702,240453.235,240736.747,,26,bonds'
screen,html.Screen,2_1_1_1_27,2022-02-02T13:31:42.816Z,,,,,,,,,,,,,,,,,54,,,,,,,,,,,,,,485.8529999977618,,response,,,,100,,,,,,,Space,keypress(Space),,,,,,,,-- --- ---- --- ------ ----- ------- ---- -- --- ------- --<br>------- ---------- ------ -- ----- -- ----- -- ---- ------<br>--- ----- --- --- ------ interest ----- --- ------ ----- --<br>----- ----- ---------- --- --- ------ ------ ---- -- ------<br>------- --- ------ ----- --- ---- ------- -- ---- --- --<br>------- ------,241223,241222.59999999776,240720.272,240734.3999999985,240736.747,241237.397,,27,interest
screen,html.Screen,2_1_1_1_28,2022-02-02T13:31:43.215Z,,,,,,,,,,,,,,,,,54,,,,,,,,,,,,,,384.7029999977676,,response,,,,100,,,,,,,Space,keypress(Space),,,,,,,,-- --- ---- --- ------ ----- ------- ---- -- --- ------- --<br>------- ---------- ------ -- ----- -- ----- -- ---- ------<br>--- ----- --- --- ------ -------- rate. --- ------ ----- --<br>----- ----- ---------- --- --- ------ ------ ---- -- ------<br>------- --- ------ ----- --- ---- ------- -- ---- --- --<br>------- ------,241622.3999999985,241622.09999999776,241220.859,241223.09999999776,241237.397,241638.471,,28,rate.
screen,html.Screen,2_1_1_1_29,2022-02-02T13:31:43.695Z,,,,,,,,,,,,,,,,,54,,,,,,,,,,,,,,463.92899999851943,,response,,,,100,,,,,,,Space,keypress(Space),,,,,,,,-- --- ---- --- ------ ----- ------- ---- -- --- ------- --<br>------- ---------- ------ -- ----- -- ----- -- ---- ------<br>--- ----- --- --- ------ -------- ----- The ------ ----- --<br>----- ----- ---------- --- --- ------ ------ ---- -- ------<br>------- --- ------ ----- --- ---- ------- -- ---- --- --<br>------- ------,242102.79999999702,242102.3999999985,241621.155,241622.59999999776,241638.471,242104.797,,29,The
screen,html.Screen,2_1_1_1_30,2022-02-02T13:31:44.103Z,,,,,,,,,,,,,,,,,54,,,,,,,,,,,,,,405.40299999926356,,response,,,,100,,,,,,,Space,keypress(Space),,,,,,,,-- --- ---- --- ------ ----- ------- ---- -- --- ------- --<br>------- ---------- ------ -- ----- -- ----- -- ---- ------<br>--- ----- --- --- ------ -------- ----- --- market ----- --<br>----- ----- ---------- --- --- ------ ------ ---- -- ------<br>------- --- ------ ----- --- ---- ------- -- ---- --- --<br>------- ------,242510.59999999776,242510.19999999925,242089.119,242102.79999999702,242104.797,242522.373,,30,market
screen,html.Screen,2_1_1_1_31,2022-02-02T13:31:44.471Z,,,,,,,,,,,,,,,,,54,,,,,,,,,,,,,,356.02699999851757,,response,,,,100,,,,,,,Space,keypress(Space),,,,,,,,-- --- ---- --- ------ ----- ------- ---- -- --- ------- --<br>------- ---------- ------ -- ----- -- ----- -- ---- ------<br>--- ----- --- --- ------ -------- ----- --- ------ value --<br>----- ----- ---------- --- --- ------ ------ ---- -- ------<br>------- --- ------ ----- --- ---- ------- -- ---- --- --<br>------- ------,242878.79999999702,242878.3999999985,242505.36,242510.69999999925,242522.373,242889.112,,31,value
screen,html.Screen,2_1_1_1_32,2022-02-02T13:31:44.816Z,,,,,,,,,,,,,,,,,54,,,,,,,,,,,,,,333.68799999702605,,response,,,,100,,,,,,,Space,keypress(Space),,,,,,,,-- --- ---- --- ------ ----- ------- ---- -- --- ------- --<br>------- ---------- ------ -- ----- -- ----- -- ---- ------<br>--- ----- --- --- ------ -------- ----- --- ------ ----- of<br>----- ----- ---------- --- --- ------ ------ ---- -- ------<br>------- --- ------ ----- --- ---- ------- -- ---- --- --<br>------- ------,243223.3999999985,243222.79999999702,242872.212,242878.8999999985,242889.112,243239.666,,32,of
screen,html.Screen,2_1_1_1_33,2022-02-02T13:31:45.096Z,,,,,,,,,,,,,,,,,54,,,,,,,,,,,,,,263.13399999702233,,response,,,,100,,,,,,,Space,keypress(Space),,,,,,,,-- --- ---- --- ------ ----- ------- ---- -- --- ------- --<br>------- ---------- ------ -- ----- -- ----- -- ---- ------<br>--- ----- --- --- ------ -------- ----- --- ------ ----- --<br>these ----- ---------- --- --- ------ ------ ---- -- ------<br>------- --- ------ ----- --- ---- ------- -- ---- --- --<br>------- ------,243503.29999999702,243502.79999999702,243223.125,243223.3999999985,243239.666,243506.145,,33,these
screen,html.Screen,2_1_1_1_34,2022-02-02T13:31:45.408Z,,,,,,,,,,,,,,,,,54,,,,,,,,,,,,,,308.25499999852036,,response,,,,100,,,,,,,Space,keypress(Space),,,,,,,,-- --- ---- --- ------ ----- ------- ---- -- --- ------- --<br>------- ---------- ------ -- ----- -- ----- -- ---- ------<br>--- ----- --- --- ------ -------- ----- --- ------ ----- --<br>----- bonds ---------- --- --- ------ ------ ---- -- ------<br>------- --- ------ ----- --- ---- ------- -- ---- --- --<br>------- ------,243814.8999999985,243814.3999999985,243489.531,243503.29999999702,243506.145,243823.144,,34,bonds
screen,html.Screen,2_1_1_1_35,2022-02-02T13:31:45.775Z,,,,,,,,,,,,,,,,,54,,,,,,,,,,,,,,359.0559999992547,,response,,,,100,,,,,,,Space,keypress(Space),,,,,,,,"-- --- ---- --- ------ ----- ------- ---- -- --- ------- --<br>------- ---------- ------ -- ----- -- ----- -- ---- ------<br>--- ----- --- --- ------ -------- ----- --- ------ ----- --<br>----- ----- plummeted, --- --- ------ ------ ---- -- ------<br>------- --- ------ ----- --- ---- ------- -- ---- --- --<br>------- ------",244182.79999999702,244182.19999999925,243806.47,243814.8999999985,243823.144,244190.192,,35,"plummeted,"
screen,html.Screen,2_1_1_1_36,2022-02-02T13:31:46.176Z,,,,,,,,,,,,,,,,,54,,,,,,,,,,,,,,392.80799999999,,response,,,,100,,,,,,,Space,keypress(Space),,,,,,,,-- --- ---- --- ------ ----- ------- ---- -- --- ------- --<br>------- ---------- ------ -- ----- -- ----- -- ---- ------<br>--- ----- --- --- ------ -------- ----- --- ------ ----- --<br>----- ----- ---------- and --- ------ ------ ---- -- ------<br>------- --- ------ ----- --- ---- ------- -- ---- --- --<br>------- ------,244583.3999999985,244583,244173.605,244182.8999999985,244190.192,244590.712,,36,and
screen,html.Screen,2_1_1_1_37,2022-02-02T13:31:46.536Z,,,,,,,,,,,,,,,,,54,,,,,,,,,,,,,,351.8879999977653,,response,,,,100,,,,,,,Space,keypress(Space),,,,,,,,-- --- ---- --- ------ ----- ------- ---- -- --- ------- --<br>------- ---------- ------ -- ----- -- ----- -- ---- ------<br>--- ----- --- --- ------ -------- ----- --- ------ ----- --<br>----- ----- ---------- --- the ------ ------ ---- -- ------<br>------- --- ------ ----- --- ---- ------- -- ---- --- --<br>------- ------,244942.8999999985,244942.59999999776,244573.916,244583.3999999985,244590.712,244957.802,,37,the
screen,html.Screen,2_1_1_1_38,2022-02-02T13:31:46.896Z,,,,,,,,,,,,,,,,,54,,,,,,,,,,,,,,344.7979999977688,,response,,,,100,,,,,,,Space,keypress(Space),,,,,,,,-- --- ---- --- ------ ----- ------- ---- -- --- ------- --<br>------- ---------- ------ -- ----- -- ----- -- ---- ------<br>--- ----- --- --- ------ -------- ----- --- ------ ----- --<br>----- ----- ---------- --- --- market ------ ---- -- ------<br>------- --- ------ ----- --- ---- ------- -- ---- --- --<br>------- ------,245302.8999999985,245302.59999999776,244941.042,244943,244957.802,245308.095,,38,market
screen,html.Screen,2_1_1_1_39,2022-02-02T13:31:47.248Z,,,,,,,,,,,,,,,,,54,,,,,,,,,,,,,,346.40499999999884,,response,,,,100,,,,,,,Space,keypress(Space),,,,,,,,-- --- ---- --- ------ ----- ------- ---- -- --- ------- --<br>------- ---------- ------ -- ----- -- ----- -- ---- ------<br>--- ----- --- --- ------ -------- ----- --- ------ ----- --<br>----- ----- ---------- --- --- ------ became ---- -- ------<br>------- --- ------ ----- --- ---- ------- -- ---- --- --<br>------- ------,245654.8999999985,245654.5,245291.255,245303,245308.095,245658.309,,39,became
screen,html.Screen,2_1_1_1_40,2022-02-02T13:31:47.592Z,,,,,,,,,,,,,,,,,54,,,,,,,,,,,,,,340.39099999924656,,response,,,,100,,,,,,,Space,keypress(Space),,,,,,,,-- --- ---- --- ------ ----- ------- ---- -- --- ------- --<br>------- ---------- ------ -- ----- -- ----- -- ---- ------<br>--- ----- --- --- ------ -------- ----- --- ------ ----- --<br>----- ----- ---------- --- --- ------ ------ wary -- ------<br>------- --- ------ ----- --- ---- ------- -- ---- --- --<br>------- ------,245999.09999999776,245998.69999999925,245642.127,245655,245658.309,246008.749,,40,wary
screen,html.Screen,2_1_1_1_41,2022-02-02T13:31:47.936Z,,,,,,,,,,,,,,,,,54,,,,,,,,,,,,,,334.45099999924423,,response,,,,100,,,,,,,Space,keypress(Space),,,,,,,,-- --- ---- --- ------ ----- ------- ---- -- --- ------- --<br>------- ---------- ------ -- ----- -- ----- -- ---- ------<br>--- ----- --- --- ------ -------- ----- --- ------ ----- --<br>----- ----- ---------- --- --- ------ ------ ---- of ------<br>------- --- ------ ----- --- ---- ------- -- ---- --- --<br>------- ------,246343.59999999776,246343.19999999925,245991.964,245999.19999999925,246008.749,246359.06,,41,of
screen,html.Screen,2_1_1_1_42,2022-02-02T13:31:48.304Z,,,,,,,,,,,,,,,,,54,,,,,,,,,,,,,,351.9400000000023,,response,,,,100,,,,,,,Space,keypress(Space),,,,,,,,-- --- ---- --- ------ ----- ------- ---- -- --- ------- --<br>------- ---------- ------ -- ----- -- ----- -- ---- ------<br>--- ----- --- --- ------ -------- ----- --- ------ ----- --<br>----- ----- ---------- --- --- ------ ------ ---- -- French<br>------- --- ------ ----- --- ---- ------- -- ---- --- --<br>------- ------,246711.29999999702,246711,246342.453,246343.69999999925,246359.06,246726.057,,42,French
screen,html.Screen,2_1_1_1_43,2022-02-02T13:31:48.656Z,,,,,,,,,,,,,,,,,54,,,,,,,,,,,,,,337.24299999701907,,response,,,,100,,,,,,,Space,keypress(Space),,,,,,,,-- --- ---- --- ------ ----- ------- ---- -- --- ------- --<br>------- ---------- ------ -- ----- -- ----- -- ---- ------<br>--- ----- --- --- ------ -------- ----- --- ------ ----- --<br>----- ----- ---------- --- --- ------ ------ ---- -- ------<br>credit. --- ------ ----- --- ---- ------- -- ---- --- --<br>------- ------,247063.59999999776,247063.29999999702,246709.779,246711.3999999985,246726.057,247076.7,,43,credit.
screen,html.Screen,2_1_1_1_44,2022-02-02T13:31:49.152Z,,,,,,,,,,,,,,,,,54,,,,,,,,,,,,,,481.9999999992433,,response,,,,100,,,,,,,Space,keypress(Space),,,,,,,,-- --- ---- --- ------ ----- ------- ---- -- --- ------- --<br>------- ---------- ------ -- ----- -- ----- -- ---- ------<br>--- ----- --- --- ------ -------- ----- --- ------ ----- --<br>----- ----- ---------- --- --- ------ ------ ---- -- ------<br>------- The ------ ----- --- ---- ------- -- ---- --- --<br>------- ------,247559.09999999776,247558.69999999925,247059.834,247063.69999999925,247076.7,247585.673,,44,The
screen,html.Screen,2_1_1_1_45,2022-02-02T13:31:49.480Z,,,,,,,,,,,,,,,,,54,,,,,,,,,,,,,,301.3269999999902,,response,,,,100,,,,,,,Space,keypress(Space),,,,,,,,-- --- ---- --- ------ ----- ------- ---- -- --- ------- --<br>------- ---------- ------ -- ----- -- ----- -- ---- ------<br>--- ----- --- --- ------ -------- ----- --- ------ ----- --<br>----- ----- ---------- --- --- ------ ------ ---- -- ------<br>------- --- French ----- --- ---- ------- -- ---- --- --<br>------- ------,247887.3999999985,247887,247543.684,247559.19999999925,247585.673,247893.979,,45,French
screen,html.Screen,2_1_1_1_46,2022-02-02T13:31:49.896Z,,,,,,,,,,,,,,,,,54,,,,,,,,,,,,,,409.4209999985178,,response,,,,100,,,,,,,Space,keypress(Space),,,,,,,,-- --- ---- --- ------ ----- ------- ---- -- --- ------- --<br>------- ---------- ------ -- ----- -- ----- -- ---- ------<br>--- ----- --- --- ------ -------- ----- --- ------ ----- --<br>----- ----- ---------- --- --- ------ ------ ---- -- ------<br>------- --- ------ state --- ---- ------- -- ---- --- --<br>------- ------,248303.69999999925,248303.3999999985,247878.095,247887.3999999985,247893.979,248311.066,,46,state
screen,html.Screen,2_1_1_1_47,2022-02-02T13:31:50.273Z,,,,,,,,,,,,,,,,,54,,,,,,,,,,,,,,368.4340000000084,,response,,,,100,,,,,,,Space,keypress(Space),,,,,,,,-- --- ---- --- ------ ----- ------- ---- -- --- ------- --<br>------- ---------- ------ -- ----- -- ----- -- ---- ------<br>--- ----- --- --- ------ -------- ----- --- ------ ----- --<br>----- ----- ---------- --- --- ------ ------ ---- -- ------<br>------- --- ------ ----- was ---- ------- -- ---- --- --<br>------- ------,248680.09999999776,248679.5,248294.438,248303.79999999702,248311.066,248694.826,,47,was
screen,html.Screen,2_1_1_1_48,2022-02-02T13:31:50.592Z,,,,,,,,,,,,,,,,,54,,,,,,,,,,,,,,304.2739999977639,,response,,,,100,,,,,,,Space,keypress(Space),,,,,,,,-- --- ---- --- ------ ----- ------- ---- -- --- ------- --<br>------- ---------- ------ -- ----- -- ----- -- ---- ------<br>--- ----- --- --- ------ -------- ----- --- ------ ----- --<br>----- ----- ---------- --- --- ------ ------ ---- -- ------<br>------- --- ------ ----- --- left ------- -- ---- --- --<br>------- ------,248999.5,248999.09999999776,248678.119,248680.09999999776,248694.826,249011.768,,48,left
screen,html.Screen,2_1_1_1_49,2022-02-02T13:31:50.880Z,,,,,,,,,,,,,,,,,54,,,,,,,,,,,,,,275.3319999977539,,response,,,,100,,,,,,,Space,keypress(Space),,,,,,,,-- --- ---- --- ------ ----- ------- ---- -- --- ------- --<br>------- ---------- ------ -- ----- -- ----- -- ---- ------<br>--- ----- --- --- ------ -------- ----- --- ------ ----- --<br>----- ----- ---------- --- --- ------ ------ ---- -- ------<br>------- --- ------ ----- --- ---- without -- ---- --- --<br>------- ------,249287.5,249287.09999999776,248995.111,248999.59999999776,249011.768,249295.363,,49,without
screen,html.Screen,2_1_1_1_50,2022-02-02T13:31:51.288Z,,,,,,,,,,,,,,,,,54,,,,,,,,,,,,,,399.6369999999879,,response,,,,100,,,,,,,Space,keypress(Space),,,,,,,,-- --- ---- --- ------ ----- ------- ---- -- --- ------- --<br>------- ---------- ------ -- ----- -- ----- -- ---- ------<br>--- ----- --- --- ------ -------- ----- --- ------ ----- --<br>----- ----- ---------- --- --- ------ ------ ---- -- ------<br>------- --- ------ ----- --- ---- ------- an ---- --- --<br>------- ------,249695.3999999985,249695,249278.896,249287.59999999776,249295.363,249712.479,,50,an
screen,html.Screen,2_1_1_1_51,2022-02-02T13:31:51.728Z,,,,,,,,,,,,,,,,,54,,,,,,,,,,,,,,422.8209999970277,,response,,,,100,,,,,,,Space,keypress(Space),,,,,,,,-- --- ---- --- ------ ----- ------- ---- -- --- ------- --<br>------- ---------- ------ -- ----- -- ----- -- ---- ------<br>--- ----- --- --- ------ -------- ----- --- ------ ----- --<br>----- ----- ---------- --- --- ------ ------ ---- -- ------<br>------- --- ------ ----- --- ---- ------- -- easy --- --<br>------- ------,250135.69999999925,250135.29999999702,249679.059,249695.5,249712.479,250146.06,,51,easy
screen,html.Screen,2_1_1_1_52,2022-02-02T13:31:52.472Z,,,,,,,,,,,,,,,,,54,,,,,,,,,,,,,,733.3399999985122,,response,,,,100,,,,,,,Space,keypress(Space),,,,,,,,-- --- ---- --- ------ ----- ------- ---- -- --- ------- --<br>------- ---------- ------ -- ----- -- ----- -- ---- ------<br>--- ----- --- --- ------ -------- ----- --- ------ ----- --<br>----- ----- ---------- --- --- ------ ------ ---- -- ------<br>------- --- ------ ----- --- ---- ------- -- ---- way --<br>------- ------,250879.79999999702,250879.3999999985,250129.4,250135.79999999702,250146.06,250897,,52,way
screen,html.Screen,2_1_1_1_53,2022-02-02T13:31:52.889Z,,,,,,,,,,,,,,,,,54,,,,,,,,,,,,,,398.5,,response,,,,100,,,,,,,Space,keypress(Space),,,,,,,,-- --- ---- --- ------ ----- ------- ---- -- --- ------- --<br>------- ---------- ------ -- ----- -- ----- -- ---- ------<br>--- ----- --- --- ------ -------- ----- --- ------ ----- --<br>----- ----- ---------- --- --- ------ ------ ---- -- ------<br>------- --- ------ ----- --- ---- ------- -- ---- --- of<br>------- ------,251295.8999999985,251295.5,250863.572,250879.8999999985,250897,251329.145,,53,of
screen,html.Screen,2_1_1_1_54,2022-02-02T13:31:53.344Z,,,,,,,,,,,,,,,,,54,,,,,,,,,,,,,,422.25499999852036,,response,,,,100,,,,,,,Space,keypress(Space),,,,,,,,-- --- ---- --- ------ ----- ------- ---- -- --- ------- --<br>------- ---------- ------ -- ----- -- ----- -- ---- ------<br>--- ----- --- --- ------ -------- ----- --- ------ ----- --<br>----- ----- ---------- --- --- ------ ------ ---- -- ------<br>------- --- ------ ----- --- ---- ------- -- ---- --- --<br>raising ------,251751.79999999702,251751.3999999985,251280.699,251296,251329.145,251764.642,,54,raising
screen,html.Screen,2_1_1_1_55,2022-02-02T13:31:53.696Z,,,,,,,,,,,,,,,,,54,,,,,,,,,,,,,,338.75799999851733,,response,,,,100,,,,,,,Space,keypress(Space),,,,,,,,-- --- ---- --- ------ ----- ------- ---- -- --- ------- --<br>------- ---------- ------ -- ----- -- ----- -- ---- ------<br>--- ----- --- --- ------ -------- ----- --- ------ ----- --<br>----- ----- ---------- --- --- ------ ------ ---- -- ------<br>------- --- ------ ----- --- ---- ------- -- ---- --- --<br>------- money.,252103.69999999925,252103.3999999985,251747.884,251751.8999999985,251764.642,252114.809,,55,money.
Item 100,flow.Loop,2_1_1_1,2022-02-02T13:31:53.696Z,,,,,,,,,,,,,,,,,,,,,,,,,,,,,,,23128.209999998508,,completion,,,,,B,,,,,,,,,,,silence,,,,,252103.79999999702,252103.3999999985,228958.643,228959.19999999925,228975.19,252114.809,,,
Question 1,html.Screen,2_1_1_2,2022-02-02T13:31:56.669Z,,,,,,,,,,,,,,,,,,,,,,,,,,,,true,TRUE,,2960.7909999977564,,response,,,,100,B,,,,,,TRUE,click #choice-1,,,,silence,,,,,255076.59999999776,255075.59999999776,252098.249,252103.8999999985,252114.809,255084.303,,,
Question 2,html.Screen,2_1_1_3,2022-02-02T13:31:58.714Z,,,,,,,,,,,,,,,,,,,,,,,,,,,,true,FALSE,,2036.1969999999856,,response,,,,100,B,,,,,,FALSE,click #choice-2,,,,silence,,,,,257121.3999999985,257120.5,255067.769,255076.59999999776,255084.303,257153.124,,,
Item 100,flow.Sequence,2_1_1,2022-02-02T13:31:58.714Z,,,,,,,,,,,,,,,,,,,,,,,,,,,,,,,38138.125,,completion,,,,,,,,,,,,,,,,,,,,,257121.5,257120.5,218965.606,218969.09999999776,218982.375,257153.124,,,
End of Practice,html.Page,2_1_2,2022-02-02T13:32:03.097Z,,,,,,,,,,,,,,,,,,,,,,,,,,,,,,,4350.875999999989,,form submission,,,,,,,,,,,,,,,,,,,,,261504.5,261504,257136.678,257121.5,257153.124,261507.289,,,
Practice,flow.Sequence,2_1,2022-02-02T13:32:03.097Z,,,,,,,,,,,,,,,,,,,,,,,,,,,,,,,88917.89499999999,,completion,,,,,,,,,,,,,,,,,,,,,261504.59999999776,261504,172569.467,172580.8999999985,172586.105,261507.289,,,
Trap_instruction,html.Page,2_2_0,2022-02-02T13:32:06.797Z,,,,,,,,,,,,,,,,,,,,,,,,,,,,,,,3697.01099999703,,form submission,,,,,,,,,,,,,,,,,,,,,265204.5,265204.299999997,261490.763,261504.69999999925,261507.289,265210.956,,,
trap_trial,html.Screen,2_2_1,2022-02-02T13:32:09.361Z,,,,,,,,,,,,,,,,,,,,,,,,,,,,true,1,,2556.5439999999944,,response,,,,,,,,,,,1,click #choice-1,,,,,,,,,267768.299999997,267767.5,265194.547,265204.59999999776,265210.956,267780.302,,,
end of trap trial,html.Page,2_2_2,2022-02-02T13:32:11.106Z,,,,,,,,,,,,,,,,,,,,,,,,,,,,,,,1732.4979999969946,,form submission,,,,,,,,,,,,,,,,,,,,,269513.299999997,269512.799999997,267763.486,267768.3999999985,267780.302,269515.203,,,
Trap 1,flow.Sequence,2_2,2022-02-02T13:32:11.106Z,,,,,,,,,,,,,,,,,,,,,,,,,,,,,,,8005.51099999703,,completion,,,,,,,,,,,,,,,,,,,,,269513.3999999985,269512.799999997,261490.763,261504.59999999776,261507.289,269515.203,,,
Standby,html.Page,2_3_0,2022-02-02T13:32:19.100Z,,,,,,,,,,,,,,,,,,,,,,,,,,,,,,,8007.929000000004,,timeout,,,,,,,,,,,,,,,,,,,,,277507.5,277507.004,269498.514,269513.3999999985,269515.203,277523.132,,,
Holding screen,html.Screen,2_3_1_0_0,2022-02-02T13:32:26.108Z,,,,,,,,,,,,,,,,,,,,,,,,,,,,,,,7007.8429999999935,,timeout,,,,,,,,,,,,,,,,,,,,,284515.69999999925,284513.363,277507.004,277507.59999999776,277523.132,284530.975,,,
screen,html.Screen,2_3_1_0_1_0,2022-02-02T13:32:26.958Z,,,,,,,,,,,,,,,,,51,,,,,,,,,,,,,,833.7249999992782,,response,,,,13,B,,,,,,Space,keypress(Space),,,,lyrical,,,,American -------- --- --- ---- --- --- ------ -- --------<br>---- --------- --- ------- ------------ ---------- ---------<br>--- ---------- ------- ---------- ------- -- -------- ----<br>---- --- ------ ----- ------ -- ---- --- ----- -- - -------<br>-------- -- --- --- -- ----- ----------- ----- -----------<br>---- --- ---------- --- ---- --- -- ----------,285365.09999999776,285364.69999999925,284513.363,284515.8999999985,284530.975,285380.874,,0,American
screen,html.Screen,2_3_1_0_1_1,2022-02-02T13:32:27.478Z,,,,,,,,,,,,,,,,,51,,,,,,,,,,,,,,503.5259999984992,,response,,,,13,B,,,,,,Space,keypress(Space),,,,lyrical,,,,-------- industry --- --- ---- --- --- ------ -- --------<br>---- --------- --- ------- ------------ ---------- ---------<br>--- ---------- ------- ---------- ------- -- -------- ----<br>---- --- ------ ----- ------ -- ---- --- ----- -- - -------<br>-------- -- --- --- -- ----- ----------- ----- -----------<br>---- --- ---------- --- ---- --- -- ----------,285884.8999999985,285884.3999999985,285364.233,285365.19999999925,285380.874,285898.481,,1,industry
screen,html.Screen,2_3_1_0_1_2,2022-02-02T13:32:27.854Z,,,,,,,,,,,,,,,,,51,,,,,,,,,,,,,,362.11899999773595,,response,,,,13,B,,,,,,Space,keypress(Space),,,,lyrical,,,,-------- -------- may --- ---- --- --- ------ -- --------<br>---- --------- --- ------- ------------ ---------- ---------<br>--- ---------- ------- ---------- ------- -- -------- ----<br>---- --- ------ ----- ------ -- ---- --- ----- -- - -------<br>-------- -- --- --- -- ----- ----------- ----- -----------<br>---- --- ---------- --- ---- --- -- ----------,286260.8999999985,286260.59999999776,285881.354,285885,285898.481,286265.635,,2,may
screen,html.Screen,2_3_1_0_1_3,2022-02-02T13:32:28.222Z,,,,,,,,,,,,,,,,,51,,,,,,,,,,,,,,362.9649999977555,,response,,,,13,B,,,,,,Space,keypress(Space),,,,lyrical,,,,-------- -------- --- not ---- --- --- ------ -- --------<br>---- --------- --- ------- ------------ ---------- ---------<br>--- ---------- ------- ---------- ------- -- -------- ----<br>---- --- ------ ----- ------ -- ---- --- ----- -- - -------<br>-------- -- --- --- -- ----- ----------- ----- -----------<br>---- --- ---------- --- ---- --- -- ----------,286629,286628.59999999776,286248.408,286261,286265.635,286632.077,,3,not
screen,html.Screen,2_3_1_0_1_4,2022-02-02T13:32:28.806Z,,,,,,,,,,,,,,,,,51,,,,,,,,,,,,,,580.8229999985197,,response,,,,13,B,,,,,,Space,keypress(Space),,,,lyrical,,,,-------- -------- --- --- know --- --- ------ -- --------<br>---- --------- --- ------- ------------ ---------- ---------<br>--- ---------- ------- ---------- ------- -- -------- ----<br>---- --- ------ ----- ------ -- ---- --- ----- -- - -------<br>-------- -- --- --- -- ----- ----------- ----- -----------<br>---- --- ---------- --- ---- --- -- ----------,287213.299999997,287212.8999999985,286615.981,286629,286632.077,287215.976,,4,know
screen,html.Screen,2_3_1_0_1_5,2022-02-02T13:32:29.229Z,,,,,,,,,,,,,,,,,51,,,,,,,,,,,,,,420.1239999977406,,response,,,,13,B,,,,,,Space,keypress(Space),,,,lyrical,,,,"-------- -------- --- --- ---- it, --- ------ -- --------<br>---- --------- --- ------- ------------ ---------- ---------<br>--- ---------- ------- ---------- ------- -- -------- ----<br>---- --- ------ ----- ------ -- ---- --- ----- -- - -------<br>-------- -- --- --- -- ----- ----------- ----- -----------<br>---- --- ---------- --- ---- --- -- ----------",287636.5,287636.09999999776,287199.478,287213.299999997,287215.976,287649.941,,5,"it,"
screen,html.Screen,2_3_1_0_1_6,2022-02-02T13:32:29.790Z,,,,,,,,,,,,,,,,,51,,,,,,,,,,,,,,546.8589999970281,,response,,,,13,B,,,,,,Space,keypress(Space),,,,lyrical,,,,-------- -------- --- --- ---- --- but ------ -- --------<br>---- --------- --- ------- ------------ ---------- ---------<br>--- ---------- ------- ---------- ------- -- -------- ----<br>---- --- ------ ----- ------ -- ---- --- ----- -- - -------<br>-------- -- --- --- -- ----- ----------- ----- -----------<br>---- --- ---------- --- ---- --- -- ----------,288197.19999999925,288196.799999997,287633.678,287636.59999999776,287649.941,288200.282,,6,but
screen,html.Screen,2_3_1_0_1_7,2022-02-02T13:32:30.198Z,,,,,,,,,,,,,,,,,51,,,,,,,,,,,,,,404.61799999850336,,response,,,,13,B,,,,,,Space,keypress(Space),,,,lyrical,,,,-------- -------- --- --- ---- --- --- debate -- --------<br>---- --------- --- ------- ------------ ---------- ---------<br>--- ---------- ------- ---------- ------- -- -------- ----<br>---- --- ------ ----- ------ -- ---- --- ----- -- - -------<br>-------- -- --- --- -- ----- ----------- ----- -----------<br>---- --- ---------- --- ---- --- -- ----------,288605.299999997,288604.8999999985,288183.66,288197.299999997,288200.282,288617.842,,7,debate
screen,html.Screen,2_3_1_0_1_8,2022-02-02T13:32:30.590Z,,,,,,,,,,,,,,,,,51,,,,,,,,,,,,,,379.0579999985057,,response,,,,13,B,,,,,,Space,keypress(Space),,,,lyrical,,,,-------- -------- --- --- ---- --- --- ------ in --------<br>---- --------- --- ------- ------------ ---------- ---------<br>--- ---------- ------- ---------- ------- -- -------- ----<br>---- --- ------ ----- ------ -- ---- --- ----- -- - -------<br>-------- -- --- --- -- ----- ----------- ----- -----------<br>---- --- ---------- --- ---- --- -- ----------,288997.299999997,288996.8999999985,288600.763,288605.3999999985,288617.842,289001.081,,8,in
screen,html.Screen,2_3_1_0_1_9,2022-02-02T13:32:31.150Z,,,,,,,,,,,,,,,,,51,,,,,,,,,,,,,,555.9189999999944,,response,,,,13,B,,,,,,Space,keypress(Space),,,,lyrical,,,,-------- -------- --- --- ---- --- --- ------ -- Congress<br>---- --------- --- ------- ------------ ---------- ---------<br>--- ---------- ------- ---------- ------- -- -------- ----<br>---- --- ------ ----- ------ -- ---- --- ----- -- - -------<br>-------- -- --- --- -- ----- ----------- ----- -----------<br>---- --- ---------- --- ---- --- -- ----------,289557.299999997,289557,288984.694,288997.299999997,289001.081,289568.973,,9,Congress
screen,html.Screen,2_3_1_0_1_10,2022-02-02T13:32:31.542Z,,,,,,,,,,,,,,,,,51,,,,,,,,,,,,,,380.1269999977667,,response,,,,13,B,,,,,,Space,keypress(Space),,,,lyrical,,,,-------- -------- --- --- ---- --- --- ------ -- --------<br>over --------- --- ------- ------------ ---------- ---------<br>--- ---------- ------- ---------- ------- -- -------- ----<br>---- --- ------ ----- ------ -- ---- --- ----- -- - -------<br>-------- -- --- --- -- ----- ----------- ----- -----------<br>---- --- ---------- --- ---- --- -- ----------,289949.5,289949.09999999776,289551.642,289557.3999999985,289568.973,289952.05,,10,over
screen,html.Screen,2_3_1_0_1_11,2022-02-02T13:32:31.885Z,,,,,,,,,,,,,,,,,51,,,,,,,,,,,,,,340.3499999985215,,response,,,,13,B,,,,,,Space,keypress(Space),,,,lyrical,,,,-------- -------- --- --- ---- --- --- ------ -- --------<br>---- reforming --- ------- ------------ ---------- ---------<br>--- ---------- ------- ---------- ------- -- -------- ----<br>---- --- ------ ----- ------ -- ---- --- ----- -- - -------<br>-------- -- --- --- -- ----- ----------- ----- -----------<br>---- --- ---------- --- ---- --- -- ----------,290292.799999997,290292.3999999985,289935.86,289949.59999999776,289952.05,290302.575,,11,reforming
screen,html.Screen,2_3_1_0_1_12,2022-02-02T13:32:32.238Z,,,,,,,,,,,,,,,,,51,,,,,,,,,,,,,,342.1249999992433,,response,,,,13,B,,,,,,Space,keypress(Space),,,,lyrical,,,,-------- -------- --- --- ---- --- --- ------ -- --------<br>---- --------- the ------- ------------ ---------- ---------<br>--- ---------- ------- ---------- ------- -- -------- ----<br>---- --- ------ ----- ------ -- ---- --- ----- -- - -------<br>-------- -- --- --- -- ----- ----------- ----- -----------<br>---- --- ---------- --- ---- --- -- ----------,290645.09999999776,290644.69999999925,290286.437,290292.8999999985,290302.575,290652.878,,12,the
screen,html.Screen,2_3_1_0_1_13,2022-02-02T13:32:32.702Z,,,,,,,,,,,,,,,,,51,,,,,,,,,,,,,,455.82199999922886,,response,,,,13,B,,,,,,Space,keypress(Space),,,,lyrical,,,,-------- -------- --- --- ---- --- --- ------ -- --------<br>---- --------- --- federal ------------ ---------- ---------<br>--- ---------- ------- ---------- ------- -- -------- ----<br>---- --- ------ ----- ------ -- ---- --- ----- -- - -------<br>-------- -- --- --- -- ----- ----------- ----- -----------<br>---- --- ---------- --- ---- --- -- ----------,291109.09999999776,291108.69999999925,290636.051,290645.19999999925,290652.878,291120.308,,13,federal
screen,html.Screen,2_3_1_0_1_14,2022-02-02T13:32:33.110Z,,,,,,,,,,,,,,,,,51,,,,,,,,,,,,,,396.89199999923585,,response,,,,13,B,,,,,,Space,keypress(Space),,,,lyrical,,,,-------- -------- --- --- ---- --- --- ------ -- --------<br>---- --------- --- ------- government's ---------- ---------<br>--- ---------- ------- ---------- ------- -- -------- ----<br>---- --- ------ ----- ------ -- ---- --- ----- -- - -------<br>-------- -- --- --- -- ----- ----------- ----- -----------<br>---- --- ---------- --- ---- --- -- ----------,291517.69999999925,291517.19999999925,291103.349,291109.19999999925,291120.308,291520.227,,14,government's
screen,html.Screen,2_3_1_0_1_15,2022-02-02T13:32:33.670Z,,,,,,,,,,,,,,,,,51,,,,,,,,,,,,,,557.0729999970063,,response,,,,13,B,,,,,,Space,keypress(Space),,,,lyrical,,,,-------- -------- --- --- ---- --- --- ------ -- --------<br>---- --------- --- ------- ------------ regulatory ---------<br>--- ---------- ------- ---------- ------- -- -------- ----<br>---- --- ------ ----- ------ -- ---- --- ----- -- - -------<br>-------- -- --- --- -- ----- ----------- ----- -----------<br>---- --- ---------- --- ---- --- -- ----------,292077.59999999776,292077.299999997,291504.032,291517.799999997,291520.227,292088.227,,15,regulatory
screen,html.Screen,2_3_1_0_1_16,2022-02-02T13:32:34.926Z,,,,,,,,,,,,,,,,,51,,,,,,,,,,,,,,1244.6729999984964,,response,,,,13,B,,,,,,Space,keypress(Space),,,,lyrical,,,,-------- -------- --- --- ---- --- --- ------ -- --------<br>---- --------- --- ------- ------------ ---------- apparatus<br>--- ---------- ------- ---------- ------- -- -------- ----<br>---- --- ------ ----- ------ -- ---- --- ----- -- - -------<br>-------- -- --- --- -- ----- ----------- ----- -----------<br>---- --- ---------- --- ---- --- -- ----------,293333.299999997,293332.8999999985,292070.937,292077.69999999925,292088.227,293339.307,,16,apparatus
screen,html.Screen,2_3_1_0_1_17,2022-02-02T13:32:35.318Z,,,,,,,,,,,,,,,,,51,,,,,,,,,,,,,,385.4929999970482,,response,,,,13,B,,,,,,Space,keypress(Space),,,,lyrical,,,,-------- -------- --- --- ---- --- --- ------ -- --------<br>---- --------- --- ------- ------------ ---------- ---------<br>may ---------- ------- ---------- ------- -- -------- ----<br>---- --- ------ ----- ------ -- ---- --- ----- -- - -------<br>-------- -- --- --- -- ----- ----------- ----- -----------<br>---- --- ---------- --- ---- --- -- ----------,293725.19999999925,293724.799999997,293322.617,293333.3999999985,293339.307,293739.142,,17,may
screen,html.Screen,2_3_1_0_1_18,2022-02-02T13:32:35.959Z,,,,,,,,,,,,,,,,,51,,,,,,,,,,,,,,626.4579999977723,,response,,,,13,B,,,,,,Space,keypress(Space),,,,lyrical,,,,-------- -------- --- --- ---- --- --- ------ -- --------<br>---- --------- --- ------- ------------ ---------- ---------<br>--- profoundly ------- ---------- ------- -- -------- ----<br>---- --- ------ ----- ------ -- ---- --- ----- -- - -------<br>-------- -- --- --- -- ----- ----------- ----- -----------<br>---- --- ---------- --- ---- --- -- ----------,294366,294365.59999999776,293723.013,293725.299999997,293739.142,294373.104,,18,profoundly
screen,html.Screen,2_3_1_0_1_19,2022-02-02T13:32:36.519Z,,,,,,,,,,,,,,,,,51,,,,,,,,,,,,,,552.5959999992629,,response,,,,13,B,,,,,,Space,keypress(Space),,,,lyrical,,,,-------- -------- --- --- ---- --- --- ------ -- --------<br>---- --------- --- ------- ------------ ---------- ---------<br>--- ---------- improve ---------- ------- -- -------- ----<br>---- --- ------ ----- ------ -- ---- --- ----- -- - -------<br>-------- -- --- --- -- ----- ----------- ----- -----------<br>---- --- ---------- --- ---- --- -- ----------,294926.09999999776,294925.69999999925,294356.572,294366.09999999776,294373.104,294940.783,,19,improve
screen,html.Screen,2_3_1_0_1_20,2022-02-02T13:32:36.935Z,,,,,,,,,,,,,,,,,51,,,,,,,,,,,,,,401.01699999702396,,response,,,,13,B,,,,,,Space,keypress(Space),,,,lyrical,,,,-------- -------- --- --- ---- --- --- ------ -- --------<br>---- --------- --- ------- ------------ ---------- ---------<br>--- ---------- ------- companies' ------- -- -------- ----<br>---- --- ------ ----- ------ -- ---- --- ----- -- - -------<br>-------- -- --- --- -- ----- ----------- ----- -----------<br>---- --- ---------- --- ---- --- -- ----------,295342.299999997,295341.799999997,294923.856,294926.19999999925,294940.783,295357.95,,20,companies'
screen,html.Screen,2_3_1_0_1_21,2022-02-02T13:32:37.295Z,,,,,,,,,,,,,,,,,51,,,,,,,,,,,,,,343.44999999849824,,response,,,,13,B,,,,,,Space,keypress(Space),,,,lyrical,,,,-------- -------- --- --- ---- --- --- ------ -- --------<br>---- --------- --- ------- ------------ ---------- ---------<br>--- ---------- ------- ---------- ability -- -------- ----<br>---- --- ------ ----- ------ -- ---- --- ----- -- - -------<br>-------- -- --- --- -- ----- ----------- ----- -----------<br>---- --- ---------- --- ---- --- -- ----------,295701.8999999985,295701.3999999985,295341.357,295342.3999999985,295357.95,295707.977,,21,ability
screen,html.Screen,2_3_1_0_1_22,2022-02-02T13:32:37.726Z,,,,,,,,,,,,,,,,,51,,,,,,,,,,,,,,425.22299999924144,,response,,,,13,B,,,,,,Space,keypress(Space),,,,lyrical,,,,-------- -------- --- --- ---- --- --- ------ -- --------<br>---- --------- --- ------- ------------ ---------- ---------<br>--- ---------- ------- ---------- ------- to -------- ----<br>---- --- ------ ----- ------ -- ---- --- ----- -- - -------<br>-------- -- --- --- -- ----- ----------- ----- -----------<br>---- --- ---------- --- ---- --- -- ----------,296133.59999999776,296133.19999999925,295691.628,295702,295707.977,296141.551,,22,to
screen,html.Screen,2_3_1_0_1_23,2022-02-02T13:32:38.039Z,,,,,,,,,,,,,,,,,51,,,,,,,,,,,,,,304.34899999853224,,response,,,,13,B,,,,,,Space,keypress(Space),,,,lyrical,,,,-------- -------- --- --- ---- --- --- ------ -- --------<br>---- --------- --- ------- ------------ ---------- ---------<br>--- ---------- ------- ---------- ------- -- survive. ----<br>---- --- ------ ----- ------ -- ---- --- ----- -- - -------<br>-------- -- --- --- -- ----- ----------- ----- -----------<br>---- --- ---------- --- ---- --- -- ----------,296446.3999999985,296445.8999999985,296124.916,296133.59999999776,296141.551,296458.926,,23,survive.
screen,html.Screen,2_3_1_0_1_24,2022-02-02T13:32:38.607Z,,,,,,,,,,,,,,,,,51,,,,,,,,,,,,,,555.3739999970421,,response,,,,13,B,,,,,,Space,keypress(Space),,,,lyrical,,,,-------- -------- --- --- ---- --- --- ------ -- --------<br>---- --------- --- ------- ------------ ---------- ---------<br>--- ---------- ------- ---------- ------- -- -------- This<br>---- --- ------ ----- ------ -- ---- --- ----- -- - -------<br>-------- -- --- --- -- ----- ----------- ----- -----------<br>---- --- ---------- --- ---- --- -- ----------,297014.799999997,297014.299999997,296441.995,296446.5,296458.926,297026.286,,24,This
screen,html.Screen,2_3_1_0_1_25,2022-02-02T13:32:39.063Z,,,,,,,,,,,,,,,,,51,,,,,,,,,,,,,,443.7139999999781,,response,,,,13,B,,,,,,Space,keypress(Space),,,,lyrical,,,,-------- -------- --- --- ---- --- --- ------ -- --------<br>---- --------- --- ------- ------------ ---------- ---------<br>--- ---------- ------- ---------- ------- -- -------- ----<br>week --- ------ ----- ------ -- ---- --- ----- -- - -------<br>-------- -- --- --- -- ----- ----------- ----- -----------<br>---- --- ---------- --- ---- --- -- ----------,297470.3999999985,297470,297009.588,297014.8999999985,297026.286,297476.582,,25,week
screen,html.Screen,2_3_1_0_1_26,2022-02-02T13:32:39.688Z,,,,,,,,,,,,,,,,,51,,,,,,,,,,,,,,617.7179999970249,,response,,,,13,B,,,,,,Space,keypress(Space),,,,lyrical,,,,-------- -------- --- --- ---- --- --- ------ -- --------<br>---- --------- --- ------- ------------ ---------- ---------<br>--- ---------- ------- ---------- ------- -- -------- ----<br>---- the ------ ----- ------ -- ---- --- ----- -- - -------<br>-------- -- --- --- -- ----- ----------- ----- -----------<br>---- --- ---------- --- ---- --- -- ----------,298094.8999999985,298094.299999997,297459.456,297470.5,297476.582,298110.109,,26,the
screen,html.Screen,2_3_1_0_1_27,2022-02-02T13:32:40.391Z,,,,,,,,,,,,,,,,,51,,,,,,,,,,,,,,688.0909999992582,,response,,,,13,B,,,,,,Space,keypress(Space),,,,lyrical,,,,-------- -------- --- --- ---- --- --- ------ -- --------<br>---- --------- --- ------- ------------ ---------- ---------<br>--- ---------- ------- ---------- ------- -- -------- ----<br>---- --- Senate ----- ------ -- ---- --- ----- -- - -------<br>-------- -- --- --- -- ----- ----------- ----- -----------<br>---- --- ---------- --- ---- --- -- ----------,298798.59999999776,298798.19999999925,298093.98,298094.8999999985,298110.109,298811.455,,27,Senate
screen,html.Screen,2_3_1_0_1_28,2022-02-02T13:32:41.287Z,,,,,,,,,,,,,,,,,51,,,,,,,,,,,,,,882.1449999977485,,response,,,,13,B,,,,,,Space,keypress(Space),,,,lyrical,,,,-------- -------- --- --- ---- --- --- ------ -- --------<br>---- --------- --- ------- ------------ ---------- ---------<br>--- ---------- ------- ---------- ------- -- -------- ----<br>---- --- ------ seems ------ -- ---- --- ----- -- - -------<br>-------- -- --- --- -- ----- ----------- ----- -----------<br>---- --- ---------- --- ---- --- -- ----------,299694,299693.59999999776,298794.889,298798.59999999776,298811.455,299731.784,,28,seems
screen,html.Screen,2_3_1_0_1_29,2022-02-02T13:32:41.799Z,,,,,,,,,,,,,,,,,51,,,,,,,,,,,,,,474.6159999985248,,response,,,,13,B,,,,,,Space,keypress(Space),,,,lyrical,,,,-------- -------- --- --- ---- --- --- ------ -- --------<br>---- --------- --- ------- ------------ ---------- ---------<br>--- ---------- ------- ---------- ------- -- -------- ----<br>---- --- ------ ----- poised -- ---- --- ----- -- - -------<br>-------- -- --- --- -- ----- ----------- ----- -----------<br>---- --- ---------- --- ---- --- -- ----------,300206.799999997,300206.3999999985,299678.937,299694.09999999776,299731.784,300212.279,,29,poised
screen,html.Screen,2_3_1_0_1_30,2022-02-02T13:32:42.191Z,,,,,,,,,,,,,,,,,51,,,,,,,,,,,,,,386.12099999852944,,response,,,,13,B,,,,,,Space,keypress(Space),,,,lyrical,,,,-------- -------- --- --- ---- --- --- ------ -- --------<br>---- --------- --- ------- ------------ ---------- ---------<br>--- ---------- ------- ---------- ------- -- -------- ----<br>---- --- ------ ----- ------ to ---- --- ----- -- - -------<br>-------- -- --- --- -- ----- ----------- ----- -----------<br>---- --- ---------- --- ---- --- -- ----------,300598.799999997,300598.3999999985,300195.833,300206.799999997,300212.279,300612.584,,30,to
screen,html.Screen,2_3_1_0_1_31,2022-02-02T13:32:42.655Z,,,,,,,,,,,,,,,,,51,,,,,,,,,,,,,,449.91600000002654,,response,,,,13,B,,,,,,Space,keypress(Space),,,,lyrical,,,,-------- -------- --- --- ---- --- --- ------ -- --------<br>---- --------- --- ------- ------------ ---------- ---------<br>--- ---------- ------- ---------- ------- -- -------- ----<br>---- --- ------ ----- ------ -- join --- ----- -- - -------<br>-------- -- --- --- -- ----- ----------- ----- -----------<br>---- --- ---------- --- ---- --- -- ----------,301062.799999997,301062.5,300595.994,300598.8999999985,300612.584,301080.268,,31,join
screen,html.Screen,2_3_1_0_1_32,2022-02-02T13:32:43.071Z,,,,,,,,,,,,,,,,,51,,,,,,,,,,,,,,397.73200000001816,,response,,,,13,B,,,,,,Space,keypress(Space),,,,lyrical,,,,-------- -------- --- --- ---- --- --- ------ -- --------<br>---- --------- --- ------- ------------ ---------- ---------<br>--- ---------- ------- ---------- ------- -- -------- ----<br>---- --- ------ ----- ------ -- ---- the ----- -- - -------<br>-------- -- --- --- -- ----- ----------- ----- -----------<br>---- --- ---------- --- ---- --- -- ----------,301478.3999999985,301478,301063.012,301062.8999999985,301080.268,301480.103,,32,the
screen,html.Screen,2_3_1_0_1_33,2022-02-02T13:32:43.519Z,,,,,,,,,,,,,,,,,51,,,,,,,,,,,,,,445.99699999776203,,response,,,,13,B,,,,,,Space,keypress(Space),,,,lyrical,,,,-------- -------- --- --- ---- --- --- ------ -- --------<br>---- --------- --- ------- ------------ ---------- ---------<br>--- ---------- ------- ---------- ------- -- -------- ----<br>---- --- ------ ----- ------ -- ---- --- House -- - -------<br>-------- -- --- --- -- ----- ----------- ----- -----------<br>---- --- ---------- --- ---- --- -- ----------,301926.5,301926.09999999776,301463.431,301478.3999999985,301480.103,301930.674,,33,House
screen,html.Screen,2_3_1_0_1_34,2022-02-02T13:32:43.927Z,,,,,,,,,,,,,,,,,51,,,,,,,,,,,,,,403.32600000000093,,response,,,,13,B,,,,,,Space,keypress(Space),,,,lyrical,,,,-------- -------- --- --- ---- --- --- ------ -- --------<br>---- --------- --- ------- ------------ ---------- ---------<br>--- ---------- ------- ---------- ------- -- -------- ----<br>---- --- ------ ----- ------ -- ---- --- ----- in - -------<br>-------- -- --- --- -- ----- ----------- ----- -----------<br>---- --- ---------- --- ---- --- -- ----------,302334.5,302334,301914.091,301926.59999999776,301930.674,302348.413,,34,in
screen,html.Screen,2_3_1_0_1_35,2022-02-02T13:32:44.256Z,,,,,,,,,,,,,,,,,51,,,,,,,,,,,,,,314.3869999970193,,response,,,,13,B,,,,,,Space,keypress(Space),,,,lyrical,,,,-------- -------- --- --- ---- --- --- ------ -- --------<br>---- --------- --- ------- ------------ ---------- ---------<br>--- ---------- ------- ---------- ------- -- -------- ----<br>---- --- ------ ----- ------ -- ---- --- ----- -- a -------<br>-------- -- --- --- -- ----- ----------- ----- -----------<br>---- --- ---------- --- ---- --- -- ----------,302663.09999999776,302662.799999997,302331.134,302334.5,302348.413,302664.595,,35,a
screen,html.Screen,2_3_1_0_1_36,2022-02-02T13:32:44.680Z,,,,,,,,,,,,,,,,,51,,,,,,,,,,,,,,422.1049999992829,,response,,,,13,B,,,,,,Space,keypress(Space),,,,lyrical,,,,-------- -------- --- --- ---- --- --- ------ -- --------<br>---- --------- --- ------- ------------ ---------- ---------<br>--- ---------- ------- ---------- ------- -- -------- ----<br>---- --- ------ ----- ------ -- ---- --- ----- -- - massive<br>-------- -- --- --- -- ----- ----------- ----- -----------<br>---- --- ---------- --- ---- --- -- ----------,303087.299999997,303086.69999999925,302648.741,302663.19999999925,302664.595,303098.366,,36,massive
screen,html.Screen,2_3_1_0_1_37,2022-02-02T13:32:45.047Z,,,,,,,,,,,,,,,,,51,,,,,,,,,,,,,,355.73399999778485,,response,,,,13,B,,,,,,Space,keypress(Space),,,,lyrical,,,,-------- -------- --- --- ---- --- --- ------ -- --------<br>---- --------- --- ------- ------------ ---------- ---------<br>--- ---------- ------- ---------- ------- -- -------- ----<br>---- --- ------ ----- ------ -- ---- --- ----- -- - -------<br>overhaul -- --- --- -- ----- ----------- ----- -----------<br>---- --- ---------- --- ---- --- -- ----------,303454.5,303454.09999999776,303081.694,303087.299999997,303098.366,303466.02,,37,overhaul
screen,html.Screen,2_3_1_0_1_38,2022-02-02T13:32:45.567Z,,,,,,,,,,,,,,,,,51,,,,,,,,,,,,,,508.1799999992363,,response,,,,13,B,,,,,,Space,keypress(Space),,,,lyrical,,,,-------- -------- --- --- ---- --- --- ------ -- --------<br>---- --------- --- ------- ------------ ---------- ---------<br>--- ---------- ------- ---------- ------- -- -------- ----<br>---- --- ------ ----- ------ -- ---- --- ----- -- - -------<br>-------- of --- --- -- ----- ----------- ----- -----------<br>---- --- ---------- --- ---- --- -- ----------,303974.69999999925,303974.19999999925,303449.267,303454.59999999776,303466.02,303983.584,,38,of
