sender,sender_type,sender_id,timestamp,meta,,Blues,Classical,Country,Dance,Electronic,Folk,Gospel,Hip-Hop,Jazz,Latin,Musical/Film,New-age,Pop,Prolific_id,Provo_ID,R&B,Rap,Reggae,Religious,Rock,Soul,Swing,Traditional,age,artist_name,correct,correctResponse,distraction,duration,education,ended_on,familiarity,gender,headphone_check_performance,item,list,music_frequency,offensiveness,pleasantness,position_correct,preference,response,response_action,snippet_file,song_name,song_rating,sound,stimulus_1,stimulus_2,stimulus_3,text,time_commit,time_end,time_render,time_run,time_show,time_switch,url,word,word_ID
Prolific ID,html.Form,0,2022-02-21T16:57:54.256Z,"{""labjs_version"":""20.2.2"",""labjs_build"":{""flavor"":""production"",""commit"":""a25486e0c714a0ae2ce03ff94b7bb6896854dcfa""},""location"":""https://run.pavlovia.org/mvasilev/prolific2_music_e/"",""userAgent"":""Mozilla/5.0 (X11; CrOS x86_64 14324.80.0) AppleWebKit/537.36 (KHTML, like Gecko) Chrome/97.0.4692.102 Safari/537.36"",""platform"":""Linux x86_64"",""language"":""en-GB"",""locale"":""en-GB"",""timeZone"":""Europe/London"",""timezoneOffset"":0,""screen_width"":1536,""screen_height"":864,""scroll_width"":1536,""scroll_height"":698,""window_innerWidth"":1536,""window_innerHeight"":746,""devicePixelRatio"":1.25}",,,,,,,,,,,,,,,60defc766cf4057b8193ea46,,,,,,,,,,,,,,,9100.198,,form submission,,,,,,,,,,,,,,,,,,,,,15458.40000000596,15457.5,6257.396,6263.200000017881,6357.302,15499.71,{},,
Introduction,html.Screen,1_0,2022-02-21T16:57:57.599Z,,,,,,,,,,,,,,,,,,,,,,,,,,,,,,,3295.4900000178823,,response,,,,,,,,,,,continue,click button,,,,,,,,,18801.20000001788,18795.20000001788,15449.754,15459.5,15499.71,18813.628,,,
Volume calibration,html.Screen,1_1,2022-02-21T16:58:20.146Z,,,,,,,,,,,,,,,,,,,,,,,,,,,,,,,22532.57200001788,,response,,,,,,,,,,,continue,click button,,,,,,,,,41348.59999999404,41346.20000001788,18796.967,18802.30000001192,18813.628,41361.556,,,
Task instructions,html.Screen,1_2,2022-02-21T16:59:36.502Z,,,,,,,,,,,,,,,,,,,,,,,,,,,,,,,76341.84400000596,,response,,,,,,,,,,,continue,click button,,,,,,,,,117705,117703.40000000596,41344.904,41348.70000001788,41361.556,117714.759,,,
Sounds,html.Screen,1_3_0_0,2022-02-21T16:59:40.746Z,,,,,,,,,,,,,,,,,,,,,,,,,,,,,,,4246.324999999997,,timeout,,,,,,,,,2,,,,,,,,O,S,I,,121948.80000001192,121944.432,117698.107,117705.40000000596,117714.759,121961.084,,,
Judgement,html.Screen,1_3_0_1,2022-02-21T16:59:42.248Z,,,,,,,,,,,,,,,,,,,,,,,,,,,,true,2,,1487.515999994037,,response,,,,,,,,,2,,2,click #choice-2,,,,,O,S,I,,123450.30000001192,123448.59999999404,121944.432,121949,121961.084,123459.988,,,
Trial,flow.Sequence,1_3_0,2022-02-21T16:59:42.248Z,,,,,,,,,,,,,,,,,,,,,,,,,,,,,,,5733.840999994034,,completion,,,,,,,,,2,,,,,,,,O,S,I,,123450.90000000596,123448.59999999404,117698.107,117705.30000001192,117714.759,123459.988,,,
Sounds,html.Screen,1_3_1_0,2022-02-21T16:59:46.488Z,,,,,,,,,,,,,,,,,,,,,,,,,,,,,,,4246.269,,timeout,,,,,,,,,1,,,,,,,,S,I,O,,127691.09999999404,127689.605,123443.336,123451.30000001192,123459.988,127706.257,,,
Judgement,html.Screen,1_3_1_1,2022-02-21T16:59:47.107Z,,,,,,,,,,,,,,,,,,,,,,,,,,,,true,1,,601.8429999940417,,response,,,,,,,,,1,,1,click #choice-1,,,,,S,I,O,,128309.80000001192,128308.09999999404,127689.605,127691.30000001192,127706.257,128322.619,,,
Trial,flow.Sequence,1_3_1,2022-02-21T16:59:47.107Z,,,,,,,,,,,,,,,,,,,,,,,,,,,,,,,4848.111999994042,,completion,,,,,,,,,1,,,,,,,,S,I,O,,128310.09999999404,128308.09999999404,123443.336,123451.09999999404,123459.988,128322.619,,,
Sounds,html.Screen,1_3_2_0,2022-02-21T16:59:51.351Z,,,,,,,,,,,,,,,,,,,,,,,,,,,,,,,4246.2759999999835,,timeout,,,,,,,,,3,,,,,,,,O,I,S,,132553.5,132552.243,128305.967,128310.40000000596,128322.619,132568.895,,,
Judgement,html.Screen,1_3_2_1,2022-02-21T16:59:51.874Z,,,,,,,,,,,,,,,,,,,,,,,,,,,,true,3,,506.6050000000105,,response,,,,,,,,,3,,3,click #choice-3,,,,,O,I,S,,133077,133075.5,132552.243,132553.80000001192,132568.895,133085.319,,,
Trial,flow.Sequence,1_3_2,2022-02-21T16:59:51.875Z,,,,,,,,,,,,,,,,,,,,,,,,,,,,,,,4752.880999999994,,completion,,,,,,,,,3,,,,,,,,O,I,S,,133077.30000001192,133075.5,128305.967,128310.30000001192,128322.619,133085.319,,,
Sounds,html.Screen,1_3_3_0,2022-02-21T16:59:56.113Z,,,,,,,,,,,,,,,,,,,,,,,,,,,,,,,4246.274000000005,,timeout,,,,,,,,,2,,,,,,,,I,S,O,,137315.59999999404,137314.941,133068.667,133077.59999999404,133085.319,137331.593,,,
Judgement,html.Screen,1_3_3_1,2022-02-21T16:59:56.738Z,,,,,,,,,,,,,,,,,,,,,,,,,,,,true,2,,608.4070000000065,,response,,,,,,,,,2,,2,click #choice-2,,,,,I,S,O,,137941.20000001788,137940,137314.941,137315.80000001192,137331.593,137947.945,,,
Trial,flow.Sequence,1_3_3,2022-02-21T16:59:56.739Z,,,,,,,,,,,,,,,,,,,,,,,,,,,,,,,4854.681000000011,,completion,,,,,,,,,2,,,,,,,,I,S,O,,137941.5,137940,133068.667,133077.5,133085.319,137947.945,,,
Sounds,html.Screen,1_3_4_0,2022-02-21T17:00:00.976Z,,,,,,,,,,,,,,,,,,,,,,,,,,,,,,,4246.361000000004,,timeout,,,,,,,,,1,,,,,,,,S,O,I,,142179,142177.654,137931.293,137941.70000001788,137947.945,142194.306,,,
Judgement,html.Screen,1_3_4_1,2022-02-21T17:00:01.587Z,,,,,,,,,,,,,,,,,,,,,,,,,,,,true,1,,593.6939999999886,,response,,,,,,,,,1,,1,click #choice-1,,,,,S,O,I,,142789.59999999404,142788,142177.654,142179.30000001192,142194.306,142793.931,,,
Trial,flow.Sequence,1_3_4,2022-02-21T17:00:01.587Z,,,,,,,,,,,,,,,,,,,,,,,,,,,,,,,4840.054999999993,,completion,,,,,,,,,1,,,,,,,,S,O,I,,142789.90000000596,142788,137931.293,137941.70000001788,137947.945,142793.931,,,
Sounds,html.Screen,1_3_5_0,2022-02-21T17:00:05.822Z,,,,,,,,,,,,,,,,,,,,,,,,,,,,,,,4246.269,,timeout,,,,,,,,,3,,,,,,,,I,O,S,,147024.70000001788,147023.548,142777.279,142790.09999999404,142793.931,147040.2,,,
Judgement,html.Screen,1_3_5_1,2022-02-21T17:00:06.394Z,,,,,,,,,,,,,,,,,,,,,,,,,,,,true,3,,555.2000000059488,,response,,,,,,,,,3,,3,click #choice-3,,,,,I,O,S,,147597,147595.40000000596,147023.548,147024.80000001192,147040.2,147606.578,,,
Trial,flow.Sequence,1_3_5,2022-02-21T17:00:06.395Z,,,,,,,,,,,,,,,,,,,,,,,,,,,,,,,4801.469000005949,,completion,,,,,,,,,3,,,,,,,,I,O,S,,147597.30000001192,147595.40000000596,142777.279,142790,142793.931,147606.578,,,
Task,flow.Loop,1_3,2022-02-21T17:00:06.403Z,,,,,,,,,,,,,,,,,,,,,,,,,,,,,,,29880.641000005955,,completion,,,1,,,,,,,,,,,,,,,,,,147605.40000000596,147595.40000000596,117698.107,117705.20000001788,117714.759,147606.578,,,
Trap,html.Screen,1_4,2022-02-21T17:00:06.414Z,,,,,,,,,,,,,,,,,,,,,,,,,,,,,,,NaN,,skipped,,,,,,,,,,,,,,,,,,,,,147616.5,147595.40000000596,,147616.30000001192,,147606.578,,,
Thanks,html.Screen,1_5,2022-02-21T17:00:10.344Z,,,,,,,,,,,,,,,,,,,,,,,,,,,,,,,3939.122000017873,,response,,,,,,,,,,,continue,click button,,,,,,,,,151547.09999999404,151545.70000001788,147589.926,147616.80000001192,147606.578,153701.435,,,
Headphone screening,flow.Sequence,1,2022-02-21T17:00:10.345Z,,,,,,,,,,,,,,,,,,,,,,,,,,,,,,,136045.9900000179,,completion,,,,,,,,,,,,,,,,,,,,,151547.5,151545.70000001788,15449.754,15459.300000011921,15499.71,153701.435,,,
Instructions,html.Page,2_0,2022-02-21T17:00:25.448Z,,,,,,,,,,,,,,,,,,,,,,,,,,,,,,,12948.765000017884,,form submission,,,,,,,,,,,,,,,,,,,,,166651,166650.20000001788,153684.783,153705.30000001192,153701.435,166657.383,,,
Holding screen,html.Screen,2_1_0_0,2022-02-21T17:00:35.431Z,,,,,,,,,,,,,,,,,,,,,,,,,,,,,,,9991.709000000003,,timeout,,,,,,,,,,,,,,,,,,,,,176633.30000001192,176632.44,166624.079,166651.30000001192,166657.383,176649.092,,,
screen,html.Screen,2_1_0_1_0,2022-02-21T17:00:36.355Z,,,,,,,,,,,,,,,,,53,,,,,,,,,,,,,,895.5079999940353,,response,,,,99,,,,,,,Space,keypress(Space),,,,,,,,When -- ----- -- ------ - ------- --- ----------<br>------------- ------ ------ ---- ---- ------- ----- -- ----<br>-------- ------- -- ---------- --- - --- ----- ----- ----<br>---- --- --- ----- --- ---- ---- ------- ----- ---- -------<br>--- --- -- ----- -- --- ---- -- --- ---- -- ------ ------<br>--- ----- -- ----,177558.09999999404,177544.59999999404,176632.44,176633.59999999404,176649.092,177565.004,,0,When
screen,html.Screen,2_1_0_1_1,2022-02-21T17:00:36.802Z,,,,,,,,,,,,,,,,,53,,,,,,,,,,,,,,438.3960000059742,,response,,,,99,,,,,,,Space,keypress(Space),,,,,,,,---- it ----- -- ------ - ------- --- ----------<br>------------- ------ ------ ---- ---- ------- ----- -- ----<br>-------- ------- -- ---------- --- - --- ----- ----- ----<br>---- --- --- ----- --- ---- ---- ------- ----- ---- -------<br>--- --- -- ----- -- --- ---- -- --- ---- -- ------ ------<br>--- ----- -- ----,178004.59999999404,178003.40000000596,177548.352,177558.5,177565.004,178014.644,,1,it
screen,html.Screen,2_1_0_1_2,2022-02-21T17:00:37.251Z,,,,,,,,,,,,,,,,,53,,,,,,,,,,,,,,438.1560000119207,,response,,,,99,,,,,,,Space,keypress(Space),,,,,,,,---- -- comes -- ------ - ------- --- ----------<br>------------- ------ ------ ---- ---- ------- ----- -- ----<br>-------- ------- -- ---------- --- - --- ----- ----- ----<br>---- --- --- ----- --- ---- ---- ------- ----- ---- -------<br>--- --- -- ----- -- --- ---- -- --- ---- -- ------ ------<br>--- ----- -- ----,178454.09999999404,178452.80000001192,177997.992,178004.90000000596,178014.644,178464.27,,2,comes
screen,html.Screen,2_1_0_1_3,2022-02-21T17:00:37.659Z,,,,,,,,,,,,,,,,,53,,,,,,,,,,,,,,396.63000000597094,,response,,,,99,,,,,,,Space,keypress(Space),,,,,,,,---- -- ----- to ------ - ------- --- ----------<br>------------- ------ ------ ---- ---- ------- ----- -- ----<br>-------- ------- -- ---------- --- - --- ----- ----- ----<br>---- --- --- ----- --- ---- ---- ------- ----- ---- -------<br>--- --- -- ----- -- --- ---- -- --- ---- -- ------ ------<br>--- ----- -- ----,178862,178860.90000000596,178447.618,178454.30000001192,178464.27,178863.95,,3,to
screen,html.Screen,2_1_0_1_4,2022-02-21T17:00:38.097Z,,,,,,,,,,,,,,,,,53,,,,,,,,,,,,,,434.1499999940279,,response,,,,99,,,,,,,Space,keypress(Space),,,,,,,,---- -- ----- -- having - ------- --- ----------<br>------------- ------ ------ ---- ---- ------- ----- -- ----<br>-------- ------- -- ---------- --- - --- ----- ----- ----<br>---- --- --- ----- --- ---- ---- ------- ----- ---- -------<br>--- --- -- ----- -- --- ---- -- --- ---- -- ------ ------<br>--- ----- -- ----,179299.30000001192,179298.09999999404,178847.298,178862.20000001788,178863.95,179313.578,,4,having
screen,html.Screen,2_1_0_1_5,2022-02-21T17:00:38.505Z,,,,,,,,,,,,,,,,,53,,,,,,,,,,,,,,393.2220000119123,,response,,,,99,,,,,,,Space,keypress(Space),,,,,,,,---- -- ----- -- ------ a ------- --- ----------<br>------------- ------ ------ ---- ---- ------- ----- -- ----<br>-------- ------- -- ---------- --- - --- ----- ----- ----<br>---- --- --- ----- --- ---- ---- ------- ----- ---- -------<br>--- --- -- ----- -- --- ---- -- --- ---- -- ------ ------<br>--- ----- -- ----,179708,179706.80000001192,179296.926,179299.5,179313.578,179713.234,,5,a
screen,html.Screen,2_1_0_1_6,2022-02-21T17:00:38.923Z,,,,,,,,,,,,,,,,,53,,,,,,,,,,,,,,411.5660000119242,,response,,,,99,,,,,,,Space,keypress(Space),,,,,,,,---- -- ----- -- ------ - lasting --- ----------<br>------------- ------ ------ ---- ---- ------- ----- -- ----<br>-------- ------- -- ---------- --- - --- ----- ----- ----<br>---- --- --- ----- --- ---- ---- ------- ----- ---- -------<br>--- --- -- ----- -- --- ---- -- --- ---- -- ------ ------<br>--- ----- -- ----,180126,180124.80000001192,179696.582,179708.30000001192,179713.234,180129.564,,6,lasting
screen,html.Screen,2_1_0_1_7,2022-02-21T17:00:39.335Z,,,,,,,,,,,,,,,,,53,,,,,,,,,,,,,,407.13600001786835,,response,,,,99,,,,,,,Space,keypress(Space),,,,,,,,---- -- ----- -- ------ - ------- and ----------<br>------------- ------ ------ ---- ---- ------- ----- -- ----<br>-------- ------- -- ---------- --- - --- ----- ----- ----<br>---- --- --- ----- --- ---- ---- ------- ----- ---- -------<br>--- --- -- ----- -- --- ---- -- --- ---- -- ------ ------<br>--- ----- -- ----,180538.20000001788,180536.70000001788,180112.912,180126.20000001788,180129.564,180545.888,,7,and
screen,html.Screen,2_1_0_1_8,2022-02-21T17:00:39.725Z,,,,,,,,,,,,,,,,,53,,,,,,,,,,,,,,380.41200001191464,,response,,,,99,,,,,,,Space,keypress(Space),,,,,,,,---- -- ----- -- ------ - ------- --- fulfilling<br>------------- ------ ------ ---- ---- ------- ----- -- ----<br>-------- ------- -- ---------- --- - --- ----- ----- ----<br>---- --- --- ----- --- ---- ---- ------- ----- ---- -------<br>--- --- -- ----- -- --- ---- -- --- ---- -- ------ ------<br>--- ----- -- ----,180927.5,180926.30000001192,180529.236,180538.30000001192,180545.888,180928.894,,8,fulfilling
screen,html.Screen,2_1_0_1_9,2022-02-21T17:00:40.175Z,,,,,,,,,,,,,,,,,53,,,,,,,,,,,,,,447.2059999940393,,response,,,,99,,,,,,,Space,keypress(Space),,,,,,,,"---- -- ----- -- ------ - ------- --- ----------<br>relationship, ------ ------ ---- ---- ------- ----- -- ----<br>-------- ------- -- ---------- --- - --- ----- ----- ----<br>---- --- --- ----- --- ---- ---- ------- ----- ---- -------<br>--- --- -- ----- -- --- ---- -- --- ---- -- ------ ------<br>--- ----- -- ----",181377.30000001192,181376.09999999404,180912.242,180927.70000001788,180928.894,181378.528,,9,"relationship,"
screen,html.Screen,2_1_0_1_10,2022-02-21T17:00:40.607Z,,,,,,,,,,,,,,,,,53,,,,,,,,,,,,,,430.0719999940484,,response,,,,99,,,,,,,Space,keypress(Space),,,,,,,,---- -- ----- -- ------ - ------- --- ----------<br>------------- common ------ ---- ---- ------- ----- -- ----<br>-------- ------- -- ---------- --- - --- ----- ----- ----<br>---- --- --- ----- --- ---- ---- ------- ----- ---- -------<br>--- --- -- ----- -- --- ---- -- --- ---- -- ------ ------<br>--- ----- -- ----,181809.80000001192,181808.59999999404,181361.876,181377.5,181378.528,181811.502,,10,common
screen,html.Screen,2_1_0_1_11,2022-02-21T17:00:40.984Z,,,,,,,,,,,,,,,,,53,,,,,,,,,,,,,,373.9979999999923,,response,,,,99,,,,,,,Space,keypress(Space),,,,,,,,---- -- ----- -- ------ - ------- --- ----------<br>------------- ------ wisdom ---- ---- ------- ----- -- ----<br>-------- ------- -- ---------- --- - --- ----- ----- ----<br>---- --- --- ----- --- ---- ---- ------- ----- ---- -------<br>--- --- -- ----- -- --- ---- -- --- ---- -- ------ ------<br>--- ----- -- ----,182186.90000000596,182185.5,181794.85,181809.90000000596,181811.502,182194.507,,11,wisdom
screen,html.Screen,2_1_0_1_12,2022-02-21T17:00:41.371Z,,,,,,,,,,,,,,,,,53,,,,,,,,,,,,,,377.99299999998766,,response,,,,99,,,,,,,Space,keypress(Space),,,,,,,,---- -- ----- -- ------ - ------- --- ----------<br>------------- ------ ------ says ---- ------- ----- -- ----<br>-------- ------- -- ---------- --- - --- ----- ----- ----<br>---- --- --- ----- --- ---- ---- ------- ----- ---- -------<br>--- --- -- ----- -- --- ---- -- --- ---- -- ------ ------<br>--- ----- -- ----,182573.59999999404,182572.5,182177.855,182187.09999999404,182194.507,182577.521,,12,says
screen,html.Screen,2_1_0_1_13,2022-02-21T17:00:41.755Z,,,,,,,,,,,,,,,,,53,,,,,,,,,,,,,,378.87900000595255,,response,,,,99,,,,,,,Space,keypress(Space),,,,,,,,---- -- ----- -- ------ - ------- --- ----------<br>------------- ------ ------ ---- that ------- ----- -- ----<br>-------- ------- -- ---------- --- - --- ----- ----- ----<br>---- --- --- ----- --- ---- ---- ------- ----- ---- -------<br>--- --- -- ----- -- --- ---- -- --- ---- -- ------ ------<br>--- ----- -- ----,182957.70000001788,182956.40000000596,182560.869,182573.70000001788,182577.521,182960.546,,13,that
screen,html.Screen,2_1_0_1_14,2022-02-21T17:00:42.141Z,,,,,,,,,,,,,,,,,53,,,,,,,,,,,,,,382.1540000178793,,response,,,,99,,,,,,,Space,keypress(Space),,,,,,,,---- -- ----- -- ------ - ------- --- ----------<br>------------- ------ ------ ---- ---- feeling ----- -- ----<br>-------- ------- -- ---------- --- - --- ----- ----- ----<br>---- --- --- ----- --- ---- ---- ------- ----- ---- -------<br>--- --- -- ----- -- --- ---- -- --- ---- -- ------ ------<br>--- ----- -- ----,183344.09999999404,183342.70000001788,182943.894,182957.90000000596,182960.546,183360.205,,14,feeling
screen,html.Screen,2_1_0_1_15,2022-02-21T17:00:42.535Z,,,,,,,,,,,,,,,,,53,,,,,,,,,,,,,,375.7950000000128,,response,,,,99,,,,,,,Space,keypress(Space),,,,,,,,---- -- ----- -- ------ - ------- --- ----------<br>------------- ------ ------ ---- ---- ------- close -- ----<br>-------- ------- -- ---------- --- - --- ----- ----- ----<br>---- --- --- ----- --- ---- ---- ------- ----- ---- -------<br>--- --- -- ----- -- --- ---- -- --- ---- -- ------ ------<br>--- ----- -- ----,183737.59999999404,183736,183343.553,183344.30000001192,183360.205,183743.219,,15,close
screen,html.Screen,2_1_0_1_16,2022-02-21T17:00:42.927Z,,,,,,,,,,,,,,,,,53,,,,,,,,,,,,,,385.4810000178695,,response,,,,99,,,,,,,Space,keypress(Space),,,,,,,,---- -- ----- -- ------ - ------- --- ----------<br>------------- ------ ------ ---- ---- ------- ----- to ----<br>-------- ------- -- ---------- --- - --- ----- ----- ----<br>---- --- --- ----- --- ---- ---- ------- ----- ---- -------<br>--- --- -- ----- -- --- ---- -- --- ---- -- ------ ------<br>--- ----- -- ----,184129.90000000596,184128.70000001788,183726.567,183737.80000001192,183743.219,184142.889,,16,to
screen,html.Screen,2_1_0_1_17,2022-02-21T17:00:43.317Z,,,,,,,,,,,,,,,,,53,,,,,,,,,,,,,,375.91100001192535,,response,,,,99,,,,,,,Space,keypress(Space),,,,,,,,---- -- ----- -- ------ - ------- --- ----------<br>------------- ------ ------ ---- ---- ------- ----- -- your<br>-------- ------- -- ---------- --- - --- ----- ----- ----<br>---- --- --- ----- --- ---- ---- ------- ----- ---- -------<br>--- --- -- ----- -- --- ---- -- --- ---- -- ------ ------<br>--- ----- -- ----,184520,184518.80000001192,184126.237,184129.90000000596,184142.889,184525.905,,17,your
screen,html.Screen,2_1_0_1_18,2022-02-21T17:00:43.747Z,,,,,,,,,,,,,,,,,53,,,,,,,,,,,,,,422.1949999940407,,response,,,,99,,,,,,,Space,keypress(Space),,,,,,,,---- -- ----- -- ------ - ------- --- ----------<br>------------- ------ ------ ---- ---- ------- ----- -- ----<br>romantic ------- -- ---------- --- - --- ----- ----- ----<br>---- --- --- ----- --- ---- ---- ------- ----- ---- -------<br>--- --- -- ----- -- --- ---- -- --- ---- -- ------ ------<br>--- ----- -- ----,184949.30000001192,184948.09999999404,184509.253,184520.20000001788,184525.905,184958.875,,18,romantic
screen,html.Screen,2_1_0_1_19,2022-02-21T17:00:44.133Z,,,,,,,,,,,,,,,,,53,,,,,,,,,,,,,,376.22499999403954,,response,,,,99,,,,,,,Space,keypress(Space),,,,,,,,---- -- ----- -- ------ - ------- --- ----------<br>------------- ------ ------ ---- ---- ------- ----- -- ----<br>-------- partner -- ---------- --- - --- ----- ----- ----<br>---- --- --- ----- --- ---- ---- ------- ----- ---- -------<br>--- --- -- ----- -- --- ---- -- --- ---- -- ------ ------<br>--- ----- -- ----,185335.90000000596,185335.09999999404,184942.223,184949.5,184958.875,185341.903,,19,partner
screen,html.Screen,2_1_0_1_20,2022-02-21T17:00:44.523Z,,,,,,,,,,,,,,,,,53,,,,,,,,,,,,,,382.9970000059693,,response,,,,99,,,,,,,Space,keypress(Space),,,,,,,,---- -- ----- -- ------ - ------- --- ----------<br>------------- ------ ------ ---- ---- ------- ----- -- ----<br>-------- ------- is ---------- --- - --- ----- ----- ----<br>---- --- --- ----- --- ---- ---- ------- ----- ---- -------<br>--- --- -- ----- -- --- ---- -- --- ---- -- ------ ------<br>--- ----- -- ----,185726.20000001788,185724.90000000596,185325.251,185335.90000000596,185341.903,185741.567,,20,is
screen,html.Screen,2_1_0_1_21,2022-02-21T17:00:44.955Z,,,,,,,,,,,,,,,,,53,,,,,,,,,,,,,,415.2330000119109,,response,,,,99,,,,,,,Space,keypress(Space),,,,,,,,---- -- ----- -- ------ - ------- --- ----------<br>------------- ------ ------ ---- ---- ------- ----- -- ----<br>-------- ------- -- paramount. --- - --- ----- ----- ----<br>---- --- --- ----- --- ---- ---- ------- ----- ---- -------<br>--- --- -- ----- -- --- ---- -- --- ---- -- ------ ------<br>--- ----- -- ----,186158.09999999404,186156.80000001192,185724.915,185726.40000000596,185741.567,186174.53,,21,paramount.
screen,html.Screen,2_1_0_1_22,2022-02-21T17:00:45.359Z,,,,,,,,,,,,,,,,,53,,,,,,,,,,,,,,386.17000001788256,,response,,,,99,,,,,,,Space,keypress(Space),,,,,,,,---- -- ----- -- ------ - ------- --- ----------<br>------------- ------ ------ ---- ---- ------- ----- -- ----<br>-------- ------- -- ---------- But - --- ----- ----- ----<br>---- --- --- ----- --- ---- ---- ------- ----- ---- -------<br>--- --- -- ----- -- --- ---- -- --- ---- -- ------ ------<br>--- ----- -- ----,186562,186560.70000001788,186157.878,186158.20000001788,186174.53,186574.202,,22,But
screen,html.Screen,2_1_0_1_23,2022-02-21T17:00:45.772Z,,,,,,,,,,,,,,,,,53,,,,,,,,,,,,,,399.4980000178912,,response,,,,99,,,,,,,Space,keypress(Space),,,,,,,,---- -- ----- -- ------ - ------- --- ----------<br>------------- ------ ------ ---- ---- ------- ----- -- ----<br>-------- ------- -- ---------- --- a --- ----- ----- ----<br>---- --- --- ----- --- ---- ---- ------- ----- ---- -------<br>--- --- -- ----- -- --- ---- -- --- ---- -- ------ ------<br>--- ----- -- ----,186974.90000000596,186973.70000001788,186557.55,186562.20000001788,186574.202,186990.52,,23,a
screen,html.Screen,2_1_0_1_24,2022-02-21T17:00:46.168Z,,,,,,,,,,,,,,,,,53,,,,,,,,,,,,,,378.9800000000105,,response,,,,99,,,,,,,Space,keypress(Space),,,,,,,,---- -- ----- -- ------ - ------- --- ----------<br>------------- ------ ------ ---- ---- ------- ----- -- ----<br>-------- ------- -- ---------- --- - new ----- ----- ----<br>---- --- --- ----- --- ---- ---- ------- ----- ---- -------<br>--- --- -- ----- -- --- ---- -- --- ---- -- ------ ------<br>--- ----- -- ----,187370.90000000596,187369.5,186973.868,186975.09999999404,186990.52,187373.539,,24,new
screen,html.Screen,2_1_0_1_25,2022-02-21T17:00:46.542Z,,,,,,,,,,,,,,,,,53,,,,,,,,,,,,,,368.66100001789164,,response,,,,99,,,,,,,Space,keypress(Space),,,,,,,,---- -- ----- -- ------ - ------- --- ----------<br>------------- ------ ------ ---- ---- ------- ----- -- ----<br>-------- ------- -- ---------- --- - --- study ----- ----<br>---- --- --- ----- --- ---- ---- ------- ----- ---- -------<br>--- --- -- ----- -- --- ---- -- --- ---- -- ------ ------<br>--- ----- -- ----,187744.40000000596,187742.20000001788,187356.887,187371,187373.539,187756.552,,25,study
screen,html.Screen,2_1_0_1_26,2022-02-21T17:00:46.932Z,,,,,,,,,,,,,,,,,53,,,,,,,,,,,,,,376.8480000059644,,response,,,,99,,,,,,,Space,keypress(Space),,,,,,,,---- -- ----- -- ------ - ------- --- ----------<br>------------- ------ ------ ---- ---- ------- ----- -- ----<br>-------- ------- -- ---------- --- - --- ----- finds ----<br>---- --- --- ----- --- ---- ---- ------- ----- ---- -------<br>--- --- -- ----- -- --- ---- -- --- ---- -- ------ ------<br>--- ----- -- ----,188134.70000001788,188133.40000000596,187739.9,187744.59999999404,187756.552,188139.568,,26,finds
screen,html.Screen,2_1_0_1_27,2022-02-21T17:00:47.300Z,,,,,,,,,,,,,,,,,53,,,,,,,,,,,,,,361.53199999404023,,response,,,,99,,,,,,,Space,keypress(Space),,,,,,,,---- -- ----- -- ------ - ------- --- ----------<br>------------- ------ ------ ---- ---- ------- ----- -- ----<br>-------- ------- -- ---------- --- - --- ----- ----- that<br>---- --- --- ----- --- ---- ---- ------- ----- ---- -------<br>--- --- -- ----- -- --- ---- -- --- ---- -- ------ ------<br>--- ----- -- ----,188502.70000001788,188501.09999999404,188122.916,188135.09999999404,188139.568,188505.943,,27,that
screen,html.Screen,2_1_0_1_28,2022-02-21T17:00:47.714Z,,,,,,,,,,,,,,,,,53,,,,,,,,,,,,,,409.2570000178821,,response,,,,99,,,,,,,Space,keypress(Space),,,,,,,,---- -- ----- -- ------ - ------- --- ----------<br>------------- ------ ------ ---- ---- ------- ----- -- ----<br>-------- ------- -- ---------- --- - --- ----- ----- ----<br>it's --- --- ----- --- ---- ---- ------- ----- ---- -------<br>--- --- -- ----- -- --- ---- -- --- ---- -- ------ ------<br>--- ----- -- ----,188916.59999999404,188915.20000001788,188489.291,188502.90000000596,188505.943,188922.26,,28,it's
screen,html.Screen,2_1_0_1_29,2022-02-21T17:00:48.081Z,,,,,,,,,,,,,,,,,53,,,,,,,,,,,,,,360.5400000119116,,response,,,,99,,,,,,,Space,keypress(Space),,,,,,,,---- -- ----- -- ------ - ------- --- ----------<br>------------- ------ ------ ---- ---- ------- ----- -- ----<br>-------- ------- -- ---------- --- - --- ----- ----- ----<br>---- not --- ----- --- ---- ---- ------- ----- ---- -------<br>--- --- -- ----- -- --- ---- -- --- ---- -- ------ ------<br>--- ----- -- ----,189283.90000000596,189282.80000001192,188905.608,188916.80000001192,188922.26,189288.623,,29,not
screen,html.Screen,2_1_0_1_30,2022-02-21T17:00:48.463Z,,,,,,,,,,,,,,,,,53,,,,,,,,,,,,,,376.5770000178891,,response,,,,99,,,,,,,Space,keypress(Space),,,,,,,,---- -- ----- -- ------ - ------- --- ----------<br>------------- ------ ------ ---- ---- ------- ----- -- ----<br>-------- ------- -- ---------- --- - --- ----- ----- ----<br>---- --- how ----- --- ---- ---- ------- ----- ---- -------<br>--- --- -- ----- -- --- ---- -- --- ---- -- ------ ------<br>--- ----- -- ----,189666.09999999404,189665.20000001788,189271.971,189284.09999999404,189288.623,189671.629,,30,how
screen,html.Screen,2_1_0_1_31,2022-02-21T17:00:48.838Z,,,,,,,,,,,,,,,,,53,,,,,,,,,,,,,,367.57100001789513,,response,,,,99,,,,,,,Space,keypress(Space),,,,,,,,---- -- ----- -- ------ - ------- --- ----------<br>------------- ------ ------ ---- ---- ------- ----- -- ----<br>-------- ------- -- ---------- --- - --- ----- ----- ----<br>---- --- --- close --- ---- ---- ------- ----- ---- -------<br>--- --- -- ----- -- --- ---- -- --- ---- -- ------ ------<br>--- ----- -- ----,190040.30000001192,190039.20000001788,189654.977,189666.20000001788,189671.629,190054.653,,31,close
screen,html.Screen,2_1_0_1_32,2022-02-21T17:00:49.213Z,,,,,,,,,,,,,,,,,53,,,,,,,,,,,,,,359.9469999940484,,response,,,,99,,,,,,,Space,keypress(Space),,,,,,,,---- -- ----- -- ------ - ------- --- ----------<br>------------- ------ ------ ---- ---- ------- ----- -- ----<br>-------- ------- -- ---------- --- - --- ----- ----- ----<br>---- --- --- ----- you ---- ---- ------- ----- ---- -------<br>--- --- -- ----- -- --- ---- -- --- ---- -- ------ ------<br>--- ----- -- ----,190415.80000001192,190414.59999999404,190038.001,190040.59999999404,190054.653,190421.008,,32,you
screen,html.Screen,2_1_0_1_33,2022-02-21T17:00:49.612Z,,,,,,,,,,,,,,,,,53,,,,,,,,,,,,,,392.0919999940379,,response,,,,99,,,,,,,Space,keypress(Space),,,,,,,,---- -- ----- -- ------ - ------- --- ----------<br>------------- ------ ------ ---- ---- ------- ----- -- ----<br>-------- ------- -- ---------- --- - --- ----- ----- ----<br>---- --- --- ----- --- feel ---- ------- ----- ---- -------<br>--- --- -- ----- -- --- ---- -- --- ---- -- ------ ------<br>--- ----- -- ----,190814.30000001192,190813.09999999404,190404.356,190416,190421.008,190820.686,,33,feel
screen,html.Screen,2_1_0_1_34,2022-02-21T17:00:49.986Z,,,,,,,,,,,,,,,,,53,,,,,,,,,,,,,,367.4139999940526,,response,,,,99,,,,,,,Space,keypress(Space),,,,,,,,---- -- ----- -- ------ - ------- --- ----------<br>------------- ------ ------ ---- ---- ------- ----- -- ----<br>-------- ------- -- ---------- --- - --- ----- ----- ----<br>---- --- --- ----- --- ---- that ------- ----- ---- -------<br>--- --- -- ----- -- --- ---- -- --- ---- -- ------ ------<br>--- ----- -- ----,191189.20000001788,191188.09999999404,190804.034,190814.59999999404,190820.686,191203.697,,34,that
screen,html.Screen,2_1_0_1_35,2022-02-21T17:00:50.360Z,,,,,,,,,,,,,,,,,53,,,,,,,,,,,,,,357.7030000059749,,response,,,,99,,,,,,,Space,keypress(Space),,,,,,,,---- -- ----- -- ------ - ------- --- ----------<br>------------- ------ ------ ---- ---- ------- ----- -- ----<br>-------- ------- -- ---------- --- - --- ----- ----- ----<br>---- --- --- ----- --- ---- ---- matters ----- ---- -------<br>--- --- -- ----- -- --- ---- -- --- ---- -- ------ ------<br>--- ----- -- ----,191562.90000000596,191561.40000000596,191187.045,191189.30000001192,191203.697,191570.05,,35,matters
screen,html.Screen,2_1_0_1_36,2022-02-21T17:00:50.766Z,,,,,,,,,,,,,,,,,53,,,,,,,,,,,,,,397.25000001193257,,response,,,,99,,,,,,,Space,keypress(Space),,,,,,,,"---- -- ----- -- ------ - ------- --- ----------<br>------------- ------ ------ ---- ---- ------- ----- -- ----<br>-------- ------- -- ---------- --- - --- ----- ----- ----<br>---- --- --- ----- --- ---- ---- ------- most, ---- -------<br>--- --- -- ----- -- --- ---- -- --- ---- -- ------ ------<br>--- ----- -- ----",191968.90000000596,191967.30000001192,191553.398,191563.20000001788,191570.05,191986.373,,36,"most,"
screen,html.Screen,2_1_0_1_37,2022-02-21T17:00:51.152Z,,,,,,,,,,,,,,,,,53,,,,,,,,,,,,,,367.02700000596815,,response,,,,99,,,,,,,Space,keypress(Space),,,,,,,,---- -- ----- -- ------ - ------- --- ----------<br>------------- ------ ------ ---- ---- ------- ----- -- ----<br>-------- ------- -- ---------- --- - --- ----- ----- ----<br>---- --- --- ----- --- ---- ---- ------- ----- it's -------<br>--- --- -- ----- -- --- ---- -- --- ---- -- ------ ------<br>--- ----- -- ----,192354.59999999404,192353.40000000596,191969.721,191969.09999999404,191986.373,192369.385,,37,it's
screen,html.Screen,2_1_0_1_38,2022-02-21T17:00:51.543Z,,,,,,,,,,,,,,,,,53,,,,,,,,,,,,,,374.8150000178721,,response,,,,99,,,,,,,Space,keypress(Space),,,,,,,,---- -- ----- -- ------ - ------- --- ----------<br>------------- ------ ------ ---- ---- ------- ----- -- ----<br>-------- ------- -- ---------- --- - --- ----- ----- ----<br>---- --- --- ----- --- ---- ---- ------- ----- ---- whether<br>--- --- -- ----- -- --- ---- -- --- ---- -- ------ ------<br>--- ----- -- ----,192746,192744.20000001788,192352.733,192354.80000001192,192369.385,192752.413,,38,whether
screen,html.Screen,2_1_0_1_39,2022-02-21T17:00:51.907Z,,,,,,,,,,,,,,,,,53,,,,,,,,,,,,,,356.2870000178809,,response,,,,99,,,,,,,Space,keypress(Space),,,,,,,,---- -- ----- -- ------ - ------- --- ----------<br>------------- ------ ------ ---- ---- ------- ----- -- ----<br>-------- ------- -- ---------- --- - --- ----- ----- ----<br>---- --- --- ----- --- ---- ---- ------- ----- ---- -------<br>you --- -- ----- -- --- ---- -- --- ---- -- ------ ------<br>--- ----- -- ----,193109.80000001192,193108.70000001788,192735.761,192746.09999999404,192752.413,193135.427,,39,you
screen,html.Screen,2_1_0_1_40,2022-02-21T17:00:52.302Z,,,,,,,,,,,,,,,,,53,,,,,,,,,,,,,,367.8730000119249,,response,,,,99,,,,,,,Space,keypress(Space),,,,,,,,---- -- ----- -- ------ - ------- --- ----------<br>------------- ------ ------ ---- ---- ------- ----- -- ----<br>-------- ------- -- ---------- --- - --- ----- ----- ----<br>---- --- --- ----- --- ---- ---- ------- ----- ---- -------<br>--- are -- ----- -- --- ---- -- --- ---- -- ------ ------<br>--- ----- -- ----,193504.5,193503.30000001192,193118.775,193119.09999999404,193135.427,193518.44,,40,are
screen,html.Screen,2_1_0_1_41,2022-02-21T17:00:52.677Z,,,,,,,,,,,,,,,,,53,,,,,,,,,,,,,,360.1599999940372,,response,,,,99,,,,,,,Space,keypress(Space),,,,,,,,---- -- ----- -- ------ - ------- --- ----------<br>------------- ------ ------ ---- ---- ------- ----- -- ----<br>-------- ------- -- ---------- --- - --- ----- ----- ----<br>---- --- --- ----- --- ---- ---- ------- ----- ---- -------<br>--- --- as ----- -- --- ---- -- --- ---- -- ------ ------<br>--- ----- -- ----,193879.80000001192,193878.59999999404,193501.788,193504.70000001788,193518.44,193884.793,,41,as
screen,html.Screen,2_1_0_1_42,2022-02-21T17:00:53.062Z,,,,,,,,,,,,,,,,,53,,,,,,,,,,,,,,378.8069999940344,,response,,,,99,,,,,,,Space,keypress(Space),,,,,,,,---- -- ----- -- ------ - ------- --- ----------<br>------------- ------ ------ ---- ---- ------- ----- -- ----<br>-------- ------- -- ---------- --- - --- ----- ----- ----<br>---- --- --- ----- --- ---- ---- ------- ----- ---- -------<br>--- --- -- close -- --- ---- -- --- ---- -- ------ ------<br>--- ----- -- ----,194264.90000000596,194263.59999999404,193868.141,193879.90000000596,193884.793,194267.817,,42,close
screen,html.Screen,2_1_0_1_43,2022-02-21T17:00:53.438Z,,,,,,,,,,,,,,,,,53,,,,,,,,,,,,,,371.9830000119109,,response,,,,99,,,,,,,Space,keypress(Space),,,,,,,,---- -- ----- -- ------ - ------- --- ----------<br>------------- ------ ------ ---- ---- ------- ----- -- ----<br>-------- ------- -- ---------- --- - --- ----- ----- ----<br>---- --- --- ----- --- ---- ---- ------- ----- ---- -------<br>--- --- -- ----- as --- ---- -- --- ---- -- ------ ------<br>--- ----- -- ----,194641.09999999404,194639.80000001192,194251.165,194265,194267.817,194650.827,,43,as
screen,html.Screen,2_1_0_1_44,2022-02-21T17:00:53.820Z,,,,,,,,,,,,,,,,,53,,,,,,,,,,,,,,370.3730000178912,,response,,,,99,,,,,,,Space,keypress(Space),,,,,,,,---- -- ----- -- ------ - ------- --- ----------<br>------------- ------ ------ ---- ---- ------- ----- -- ----<br>-------- ------- -- ---------- --- - --- ----- ----- ----<br>---- --- --- ----- --- ---- ---- ------- ----- ---- -------<br>--- --- -- ----- -- you ---- -- --- ---- -- ------ ------<br>--- ----- -- ----,195022.40000000596,195021.20000001788,194634.175,194641.20000001788,194650.827,195033.84,,44,you
screen,html.Screen,2_1_0_1_45,2022-02-21T17:00:54.201Z,,,,,,,,,,,,,,,,,53,,,,,,,,,,,,,,368.4600000119244,,response,,,,99,,,,,,,Space,keypress(Space),,,,,,,,---- -- ----- -- ------ - ------- --- ----------<br>------------- ------ ------ ---- ---- ------- ----- -- ----<br>-------- ------- -- ---------- --- - --- ----- ----- ----<br>---- --- --- ----- --- ---- ---- ------- ----- ---- -------<br>--- --- -- ----- -- --- want -- --- ---- -- ------ ------<br>--- ----- -- ----,195403.59999999404,195402.30000001192,195017.188,195022.80000001192,195033.84,195416.864,,45,want
screen,html.Screen,2_1_0_1_46,2022-02-21T17:00:54.595Z,,,,,,,,,,,,,,,,,53,,,,,,,,,,,,,,379.53600000595907,,response,,,,99,,,,,,,Space,keypress(Space),,,,,,,,---- -- ----- -- ------ - ------- --- ----------<br>------------- ------ ------ ---- ---- ------- ----- -- ----<br>-------- ------- -- ---------- --- - --- ----- ----- ----<br>---- --- --- ----- --- ---- ---- ------- ----- ---- -------<br>--- --- -- ----- -- --- ---- to --- ---- -- ------ ------<br>--- ----- -- ----,195797.70000001788,195796.40000000596,195400.212,195403.80000001192,195416.864,195799.871,,46,to
screen,html.Screen,2_1_0_1_47,2022-02-21T17:00:54.946Z,,,,,,,,,,,,,,,,,53,,,,,,,,,,,,,,348.0290000059467,,response,,,,99,,,,,,,Space,keypress(Space),,,,,,,,"---- -- ----- -- ------ - ------- --- ----------<br>------------- ------ ------ ---- ---- ------- ----- -- ----<br>-------- ------- -- ---------- --- - --- ----- ----- ----<br>---- --- --- ----- --- ---- ---- ------- ----- ---- -------<br>--- --- -- ----- -- --- ---- -- be, ---- -- ------ ------<br>--- ----- -- ----",196149.09999999404,196147.90000000596,195783.219,195797.80000001192,195799.871,196166.233,,47,"be,"
screen,html.Screen,2_1_0_1_48,2022-02-21T17:00:55.347Z,,,,,,,,,,,,,,,,,53,,,,,,,,,,,,,,381.667000005953,,response,,,,99,,,,,,,Space,keypress(Space),,,,,,,,---- -- ----- -- ------ - ------- --- ----------<br>------------- ------ ------ ---- ---- ------- ----- -- ----<br>-------- ------- -- ---------- --- - --- ----- ----- ----<br>---- --- --- ----- --- ---- ---- ------- ----- ---- -------<br>--- --- -- ----- -- --- ---- -- --- even -- ------ ------<br>--- ----- -- ----,196549.40000000596,196547.90000000596,196149.581,196149.30000001192,196166.233,196565.897,,48,even
screen,html.Screen,2_1_0_1_49,2022-02-21T17:00:55.728Z,,,,,,,,,,,,,,,,,53,,,,,,,,,,,,,,363.6030000000028,,response,,,,99,,,,,,,Space,keypress(Space),,,,,,,,---- -- ----- -- ------ - ------- --- ----------<br>------------- ------ ------ ---- ---- ------- ----- -- ----<br>-------- ------- -- ---------- --- - --- ----- ----- ----<br>---- --- --- ----- --- ---- ---- ------- ----- ---- -------<br>--- --- -- ----- -- --- ---- -- --- ---- if ------ ------<br>--- ----- -- ----,196930.59999999404,196929.5,196549.245,196549.70000001788,196565.897,196932.264,,49,if
screen,html.Screen,2_1_0_1_50,2022-02-21T17:00:56.080Z,,,,,,,,,,,,,,,,,53,,,,,,,,,,,,,,349.33599999404396,,response,,,,99,,,,,,,Space,keypress(Space),,,,,,,,---- -- ----- -- ------ - ------- --- ----------<br>------------- ------ ------ ---- ---- ------- ----- -- ----<br>-------- ------- -- ---------- --- - --- ----- ----- ----<br>---- --- --- ----- --- ---- ---- ------- ----- ---- -------<br>--- --- -- ----- -- --- ---- -- --- ---- -- that's ------<br>--- ----- -- ----,197283,197281.59999999404,196915.612,196930.80000001192,196932.264,197298.627,,50,that's
screen,html.Screen,2_1_0_1_51,2022-02-21T17:00:56.425Z,,,,,,,,,,,,,,,,,53,,,,,,,,,,,,,,327.5730000178737,,response,,,,99,,,,,,,Space,keypress(Space),,,,,,,,---- -- ----- -- ------ - ------- --- ----------<br>------------- ------ ------ ---- ---- ------- ----- -- ----<br>-------- ------- -- ---------- --- - --- ----- ----- ----<br>---- --- --- ----- --- ---- ---- ------- ----- ---- -------<br>--- --- -- ----- -- --- ---- -- --- ---- -- ------ really<br>--- ----- -- ----,197627.40000000596,197626.20000001788,197281.975,197283.20000001788,197298.627,197631.692,,51,really
screen,html.Screen,2_1_0_1_52,2022-02-21T17:00:56.825Z,,,,,,,,,,,,,,,,,53,,,,,,,,,,,,,,394.1080000119109,,response,,,,99,,,,,,,Space,keypress(Space),,,,,,,,---- -- ----- -- ------ - ------- --- ----------<br>------------- ------ ------ ---- ---- ------- ----- -- ----<br>-------- ------- -- ---------- --- - --- ----- ----- ----<br>---- --- --- ----- --- ---- ---- ------- ----- ---- -------<br>--- --- -- ----- -- --- ---- -- --- ---- -- ------ ------<br>not ----- -- ----,198028,198025.80000001192,197615.04,197627.59999999404,197631.692,198031.347,,52,not
screen,html.Screen,2_1_0_1_53,2022-02-21T17:00:57.183Z,,,,,,,,,,,,,,,,,53,,,,,,,,,,,,,,353.4530000119121,,response,,,,99,,,,,,,Space,keypress(Space),,,,,,,,---- -- ----- -- ------ - ------- --- ----------<br>------------- ------ ------ ---- ---- ------- ----- -- ----<br>-------- ------- -- ---------- --- - --- ----- ----- ----<br>---- --- --- ----- --- ---- ---- ------- ----- ---- -------<br>--- --- -- ----- -- --- ---- -- --- ---- -- ------ ------<br>--- close -- ----,198386,198384.80000001192,198014.695,198028.09999999404,198031.347,198397.711,,53,close
screen,html.Screen,2_1_0_1_54,2022-02-21T17:00:57.552Z,,,,,,,,,,,,,,,,,53,,,,,,,,,,,,,,355.5890000119107,,response,,,,99,,,,,,,Space,keypress(Space),,,,,,,,---- -- ----- -- ------ - ------- --- ----------<br>------------- ------ ------ ---- ---- ------- ----- -- ----<br>-------- ------- -- ---------- --- - --- ----- ----- ----<br>---- --- --- ----- --- ---- ---- ------- ----- ---- -------<br>--- --- -- ----- -- --- ---- -- --- ---- -- ------ ------<br>--- ----- at ----,198754.90000000596,198753.30000001192,198381.059,198386.20000001788,198397.711,198764.073,,54,at
screen,html.Screen,2_1_0_1_55,2022-02-21T17:00:57.938Z,,,,,,,,,,,,,,,,,53,,,,,,,,,,,,,,375.8270000059565,,response,,,,99,,,,,,,Space,keypress(Space),,,,,,,,---- -- ----- -- ------ - ------- --- ----------<br>------------- ------ ------ ---- ---- ------- ----- -- ----<br>-------- ------- -- ---------- --- - --- ----- ----- ----<br>---- --- --- ----- --- ---- ---- ------- ----- ---- -------<br>--- --- -- ----- -- --- ---- -- --- ---- -- ------ ------<br>--- ----- -- all.,199141.20000001788,199139.90000000596,198747.421,198755,198764.073,199147.094,,55,all.
Item 99,flow.Loop,2_1_0_1,2022-02-21T17:00:57.939Z,,,,,,,,,,,,,,,,,,,,,,,,,,,,,,,22490.808000005956,,completion,,,,,E,,,,,,,,,,,silence,,,,,199141.5,199139.90000000596,176632.44,176633.40000000596,176649.092,199147.094,,,
Question 1,html.Screen,2_1_0_2,2022-02-21T17:01:02.249Z,,,,,,,,,,,,,,,,,,,,,,,,,,,,true,FALSE,,4303.206000011909,,response,,,,99,E,,,,,,FALSE,click #choice-2,,,,silence,,,,,203451.70000001788,203450.30000001192,199130.442,199141.70000001788,199147.094,203460.183,,,
Question 2,html.Screen,2_1_0_3,2022-02-21T17:01:07.458Z,,,,,,,,,,,,,,,,,,,,,,,,,,,,true,TRUE,,5197.81700000001,,response,,,,99,E,,,,,,TRUE,click #choice-1,,,,silence,,,,,208661.09999999404,208658,203443.531,203451.80000001192,203460.183,208672.522,,,
Item 99,flow.Sequence,2_1_0,2022-02-21T17:01:07.459Z,,,,,,,,,,,,,,,,,,,,,,,,,,,,,,,42000.617,,completion,,,,,,,,,,,,,,,,,,,,,208661.40000000596,208658,166624.079,166651.20000001788,166657.383,208672.522,,,
Holding screen,html.Screen,2_1_1_0,2022-02-21T17:01:17.462Z,,,,,,,,,,,,,,,,,,,,,,,,,,,,,,,10008.309999999998,,timeout,,,,,,,,,,,,,,,,,,,,,218665.20000001788,218664.18,208655.87,208661.59999999404,208672.522,218680.832,,,
screen,html.Screen,2_1_1_1_0,2022-02-21T17:01:18.289Z,,,,,,,,,,,,,,,,,54,,,,,,,,,,,,,,809.5680000059656,,response,,,,100,,,,,,,Space,keypress(Space),,,,,,,,At --- ---- --- ------ ----- ------- ---- -- --- ------- --<br>------- ---------- ------ -- ----- -- ----- -- ---- ------<br>--- ----- --- --- ------ -------- ----- --- ------ ----- --<br>----- ----- ---------- --- --- ------ ------ ---- -- ------<br>------- --- ------ ----- --- ---- ------- -- ---- --- --<br>------- ------,219491.5,219490.40000000596,218664.18,218665.40000000596,218680.832,219496.824,,0,At
screen,html.Screen,2_1_1_1_1,2022-02-21T17:01:18.661Z,,,,,,,,,,,,,,,,,54,,,,,,,,,,,,,,365.87600001788815,,response,,,,100,,,,,,,Space,keypress(Space),,,,,,,,-- the ---- --- ------ ----- ------- ---- -- --- ------- --<br>------- ---------- ------ -- ----- -- ----- -- ---- ------<br>--- ----- --- --- ------ -------- ----- --- ------ ----- --<br>----- ----- ---------- --- --- ------ ------ ---- -- ------<br>------- --- ------ ----- --- ---- ------- -- ---- --- --<br>------- ------,219864.20000001788,219862.70000001788,219480.172,219491.59999999404,219496.824,219879.867,,1,the
screen,html.Screen,2_1_1_1_2,2022-02-21T17:01:19.038Z,,,,,,,,,,,,,,,,,54,,,,,,,,,,,,,,359.63300000000163,,response,,,,100,,,,,,,Space,keypress(Space),,,,,,,,-- --- time --- ------ ----- ------- ---- -- --- ------- --<br>------- ---------- ------ -- ----- -- ----- -- ---- ------<br>--- ----- --- --- ------ -------- ----- --- ------ ----- --<br>----- ----- ---------- --- --- ------ ------ ---- -- ------<br>------- --- ------ ----- --- ---- ------- -- ---- --- --<br>------- ------,220240.59999999404,220239.5,219863.215,219864.40000000596,219879.867,220246.233,,2,time
screen,html.Screen,2_1_1_1_3,2022-02-21T17:01:19.396Z,,,,,,,,,,,,,,,,,54,,,,,,,,,,,,,,350.8669999940321,,response,,,,100,,,,,,,Space,keypress(Space),,,,,,,,-- --- ---- the ------ ----- ------- ---- -- --- ------- --<br>------- ---------- ------ -- ----- -- ----- -- ---- ------<br>--- ----- --- --- ------ -------- ----- --- ------ ----- --<br>----- ----- ---------- --- --- ------ ------ ---- -- ------<br>------- --- ------ ----- --- ---- ------- -- ---- --- --<br>------- ------,220598.20000001788,220597.09999999404,220229.581,220240.80000001192,220246.233,220612.589,,3,the
screen,html.Screen,2_1_1_1_4,2022-02-21T17:01:19.776Z,,,,,,,,,,,,,,,,,54,,,,,,,,,,,,,,365.31100000595325,,response,,,,100,,,,,,,Space,keypress(Space),,,,,,,,-- --- ---- --- French ----- ------- ---- -- --- ------- --<br>------- ---------- ------ -- ----- -- ----- -- ---- ------<br>--- ----- --- --- ------ -------- ----- --- ------ ----- --<br>----- ----- ---------- --- --- ------ ------ ---- -- ------<br>------- --- ------ ----- --- ---- ------- -- ---- --- --<br>------- ------,220979,220977.90000000596,220595.937,220598.40000000596,220612.589,220995.602,,4,French
screen,html.Screen,2_1_1_1_5,2022-02-21T17:01:20.165Z,,,,,,,,,,,,,,,,,54,,,,,,,,,,,,,,370.5980000178679,,response,,,,100,,,,,,,Space,keypress(Space),,,,,,,,-- --- ---- --- ------ crown ------- ---- -- --- ------- --<br>------- ---------- ------ -- ----- -- ----- -- ---- ------<br>--- ----- --- --- ------ -------- ----- --- ------ ----- --<br>----- ----- ---------- --- --- ------ ------ ---- -- ------<br>------- --- ------ ----- --- ---- ------- -- ---- --- --<br>------- ------,221367.80000001192,221366.20000001788,220978.95,220979.20000001788,220995.602,221378.613,,5,crown
screen,html.Screen,2_1_1_1_6,2022-02-21T17:01:20.549Z,,,,,,,,,,,,,,,,,54,,,,,,,,,,,,,,372.1870000119088,,response,,,,100,,,,,,,Space,keypress(Space),,,,,,,,-- --- ---- --- ------ ----- secured ---- -- --- ------- --<br>------- ---------- ------ -- ----- -- ----- -- ---- ------<br>--- ----- --- --- ------ -------- ----- --- ------ ----- --<br>----- ----- ---------- --- --- ------ ------ ---- -- ------<br>------- --- ------ ----- --- ---- ------- -- ---- --- --<br>------- ------,221752,221750.80000001192,221361.961,221368,221378.613,221761.638,,6,secured
screen,html.Screen,2_1_1_1_7,2022-02-21T17:01:20.925Z,,,,,,,,,,,,,,,,,54,,,,,,,,,,,,,,364.96199999403325,,response,,,,100,,,,,,,Space,keypress(Space),,,,,,,,-- --- ---- --- ------ ----- ------- much -- --- ------- --<br>------- ---------- ------ -- ----- -- ----- -- ---- ------<br>--- ----- --- --- ------ -------- ----- --- ------ ----- --<br>----- ----- ---------- --- --- ------ ------ ---- -- ------<br>------- --- ------ ----- --- ---- ------- -- ---- --- --<br>------- ------,222127.90000000596,222126.59999999404,221744.986,221752.20000001788,221761.638,222144.644,,7,much
screen,html.Screen,2_1_1_1_8,2022-02-21T17:01:21.316Z,,,,,,,,,,,,,,,,,54,,,,,,,,,,,,,,373.25600000596023,,response,,,,100,,,,,,,Space,keypress(Space),,,,,,,,-- --- ---- --- ------ ----- ------- ---- of --- ------- --<br>------- ---------- ------ -- ----- -- ----- -- ---- ------<br>--- ----- --- --- ------ -------- ----- --- ------ ----- --<br>----- ----- ---------- --- --- ------ ------ ---- -- ------<br>------- --- ------ ----- --- ---- ------- -- ---- --- --<br>------- ------,222518.59999999404,222517.90000000596,222127.992,222128.09999999404,222144.644,222527.659,,8,of
screen,html.Screen,2_1_1_1_9,2022-02-21T17:01:21.686Z,,,,,,,,,,,,,,,,,54,,,,,,,,,,,,,,360.0410000178672,,response,,,,100,,,,,,,Space,keypress(Space),,,,,,,,-- --- ---- --- ------ ----- ------- ---- -- its ------- --<br>------- ---------- ------ -- ----- -- ----- -- ---- ------<br>--- ----- --- --- ------ -------- ----- --- ------ ----- --<br>----- ----- ---------- --- --- ------ ------ ---- -- ------<br>------- --- ------ ----- --- ---- ------- -- ---- --- --<br>------- ------,222889,222887.70000001788,222511.007,222518.70000001788,222527.659,222894.027,,9,its
screen,html.Screen,2_1_1_1_10,2022-02-21T17:01:22.060Z,,,,,,,,,,,,,,,,,54,,,,,,,,,,,,,,367.5729999940377,,response,,,,100,,,,,,,Space,keypress(Space),,,,,,,,-- --- ---- --- ------ ----- ------- ---- -- --- revenue --<br>------- ---------- ------ -- ----- -- ----- -- ---- ------<br>--- ----- --- --- ------ -------- ----- --- ------ ----- --<br>----- ----- ---------- --- --- ------ ------ ---- -- ------<br>------- --- ------ ----- --- ---- ------- -- ---- --- --<br>------- ------,223262.70000001788,223261.59999999404,222877.375,222889.20000001788,222894.027,223277.048,,10,revenue
screen,html.Screen,2_1_1_1_11,2022-02-21T17:01:22.431Z,,,,,,,,,,,,,,,,,54,,,,,,,,,,,,,,355.6520000178716,,response,,,,100,,,,,,,Space,keypress(Space),,,,,,,,-- --- ---- --- ------ ----- ------- ---- -- --- ------- by<br>------- ---------- ------ -- ----- -- ----- -- ---- ------<br>--- ----- --- --- ------ -------- ----- --- ------ ----- --<br>----- ----- ---------- --- --- ------ ------ ---- -- ------<br>------- --- ------ ----- --- ---- ------- -- ---- --- --<br>------- ------,223634,223632.70000001788,223260.396,223262.90000000596,223277.048,223643.403,,11,by
screen,html.Screen,2_1_1_1_12,2022-02-21T17:01:22.777Z,,,,,,,,,,,,,,,,,54,,,,,,,,,,,,,,335.4970000059693,,response,,,,100,,,,,,,Space,keypress(Space),,,,,,,,-- --- ---- --- ------ ----- ------- ---- -- --- ------- --<br>issuing ---------- ------ -- ----- -- ----- -- ---- ------<br>--- ----- --- --- ------ -------- ----- --- ------ ----- --<br>----- ----- ---------- --- --- ------ ------ ---- -- ------<br>------- --- ------ ----- --- ---- ------- -- ---- --- --<br>------- ------,223980.09999999404,223978.90000000596,223626.751,223634.09999999404,223643.403,223993.109,,12,issuing
screen,html.Screen,2_1_1_1_13,2022-02-21T17:01:23.120Z,,,,,,,,,,,,,,,,,54,,,,,,,,,,,,,,328.1910000119242,,response,,,,100,,,,,,,Space,keypress(Space),,,,,,,,-- --- ---- --- ------ ----- ------- ---- -- --- ------- --<br>------- government ------ -- ----- -- ----- -- ---- ------<br>--- ----- --- --- ------ -------- ----- --- ------ ----- --<br>----- ----- ---------- --- --- ------ ------ ---- -- ------<br>------- --- ------ ----- --- ---- ------- -- ---- --- --<br>------- ------,224322.5,224321.30000001192,223976.457,223980.30000001192,223993.109,224326.181,,13,government
screen,html.Screen,2_1_1_1_14,2022-02-21T17:01:23.478Z,,,,,,,,,,,,,,,,,54,,,,,,,,,,,,,,353.21900000594906,,response,,,,100,,,,,,,Space,keypress(Space),,,,,,,,-- --- ---- --- ------ ----- ------- ---- -- --- ------- --<br>------- ---------- bonds. -- ----- -- ----- -- ---- ------<br>--- ----- --- --- ------ -------- ----- --- ------ ----- --<br>----- ----- ---------- --- --- ------ ------ ---- -- ------<br>------- --- ------ ----- --- ---- ------- -- ---- --- --<br>------- ------,224680.90000000596,224679.40000000596,224309.529,224322.70000001788,224326.181,224692.529,,14,bonds.
screen,html.Screen,2_1_1_1_15,2022-02-21T17:01:23.860Z,,,,,,,,,,,,,,,,,54,,,,,,,,,,,,,,369.2710000119114,,response,,,,100,,,,,,,Space,keypress(Space),,,,,,,,-- --- ---- --- ------ ----- ------- ---- -- --- ------- --<br>------- ---------- ------ In ----- -- ----- -- ---- ------<br>--- ----- --- --- ------ -------- ----- --- ------ ----- --<br>----- ----- ---------- --- --- ------ ------ ---- -- ------<br>------- --- ------ ----- --- ---- ------- -- ---- --- --<br>------- ------,225063.09999999404,225061.80000001192,224675.877,224681,224692.529,225075.544,,15,In
screen,html.Screen,2_1_1_1_16,2022-02-21T17:01:24.219Z,,,,,,,,,,,,,,,,,54,,,,,,,,,,,,,,344.9560000000056,,response,,,,100,,,,,,,Space,keypress(Space),,,,,,,,"-- --- ---- --- ------ ----- ------- ---- -- --- ------- --<br>------- ---------- ------ -- 1727, -- ----- -- ---- ------<br>--- ----- --- --- ------ -------- ----- --- ------ ----- --<br>----- ----- ---------- --- --- ------ ------ ---- -- ------<br>------- --- ------ ----- --- ---- ------- -- ---- --- --<br>------- ------",225421.70000001788,225420.5,225058.892,225063.20000001788,225075.544,225425.253,,16,"1727,"
screen,html.Screen,2_1_1_1_17,2022-02-21T17:01:24.615Z,,,,,,,,,,,,,,,,,54,,,,,,,,,,,,,,391.54700001192396,,response,,,,100,,,,,,,Space,keypress(Space),,,,,,,,-- --- ---- --- ------ ----- ------- ---- -- --- ------- --<br>------- ---------- ------ -- ----- in ----- -- ---- ------<br>--- ----- --- --- ------ -------- ----- --- ------ ----- --<br>----- ----- ---------- --- --- ------ ------ ---- -- ------<br>------- --- ------ ----- --- ---- ------- -- ---- --- --<br>------- ------,225818,225816.80000001192,225408.601,225421.90000000596,225425.253,225824.919,,17,in
screen,html.Screen,2_1_1_1_18,2022-02-21T17:01:25.034Z,,,,,,,,,,,,,,,,,54,,,,,,,,,,,,,,410.48100000596605,,response,,,,100,,,,,,,Space,keypress(Space),,,,,,,,-- --- ---- --- ------ ----- ------- ---- -- --- ------- --<br>------- ---------- ------ -- ----- -- order -- ---- ------<br>--- ----- --- --- ------ -------- ----- --- ------ ----- --<br>----- ----- ---------- --- --- ------ ------ ---- -- ------<br>------- --- ------ ----- --- ---- ------- -- ---- --- --<br>------- ------,226236.80000001192,226235.40000000596,225808.267,225818.20000001788,225824.919,226241.238,,18,order
screen,html.Screen,2_1_1_1_19,2022-02-21T17:01:25.386Z,,,,,,,,,,,,,,,,,54,,,,,,,,,,,,,,346.5620000119088,,response,,,,100,,,,,,,Space,keypress(Space),,,,,,,,-- --- ---- --- ------ ----- ------- ---- -- --- ------- --<br>------- ---------- ------ -- ----- -- ----- to ---- ------<br>--- ----- --- --- ------ -------- ----- --- ------ ----- --<br>----- ----- ---------- --- --- ------ ------ ---- -- ------<br>------- --- ------ ----- --- ---- ------- -- ---- --- --<br>------- ------,226589.09999999404,226587.80000001192,226224.586,226237,226241.238,226590.963,,19,to
screen,html.Screen,2_1_1_1_20,2022-02-21T17:01:25.755Z,,,,,,,,,,,,,,,,,54,,,,,,,,,,,,,,365.6369999940507,,response,,,,100,,,,,,,Space,keypress(Space),,,,,,,,-- --- ---- --- ------ ----- ------- ---- -- --- ------- --<br>------- ---------- ------ -- ----- -- ----- -- save ------<br>--- ----- --- --- ------ -------- ----- --- ------ ----- --<br>----- ----- ---------- --- --- ------ ------ ---- -- ------<br>------- --- ------ ----- --- ---- ------- -- ---- --- --<br>------- ------,226958.20000001788,226956.59999999404,226574.311,226589.20000001788,226590.963,226973.968,,20,save
screen,html.Screen,2_1_1_1_21,2022-02-21T17:01:26.159Z,,,,,,,,,,,,,,,,,54,,,,,,,,,,,,,,386.33200001192745,,response,,,,100,,,,,,,Space,keypress(Space),,,,,,,,"-- --- ---- --- ------ ----- ------- ---- -- --- ------- --<br>------- ---------- ------ -- ----- -- ----- -- ---- money,<br>--- ----- --- --- ------ -------- ----- --- ------ ----- --<br>----- ----- ---------- --- --- ------ ------ ---- -- ------<br>------- --- ------ ----- --- ---- ------- -- ---- --- --<br>------- ------",227361.59999999404,227360.30000001192,226957.316,226958.40000000596,226973.968,227373.64,,21,"money,"
screen,html.Screen,2_1_1_1_22,2022-02-21T17:01:26.550Z,,,,,,,,,,,,,,,,,54,,,,,,,,,,,,,,377.85999999998603,,response,,,,100,,,,,,,Space,keypress(Space),,,,,,,,-- --- ---- --- ------ ----- ------- ---- -- --- ------- --<br>------- ---------- ------ -- ----- -- ----- -- ---- ------<br>the ----- --- --- ------ -------- ----- --- ------ ----- --<br>----- ----- ---------- --- --- ------ ------ ---- -- ------<br>------- --- ------ ----- --- ---- ------- -- ---- --- --<br>------- ------,227752.80000001192,227751.5,227356.988,227361.80000001192,227373.64,227756.655,,22,the
screen,html.Screen,2_1_1_1_23,2022-02-21T17:01:26.940Z,,,,,,,,,,,,,,,,,54,,,,,,,,,,,,,,384.54500001788256,,response,,,,100,,,,,,,Space,keypress(Space),,,,,,,,-- --- ---- --- ------ ----- ------- ---- -- --- ------- --<br>------- ---------- ------ -- ----- -- ----- -- ---- ------<br>--- state --- --- ------ -------- ----- --- ------ ----- --<br>----- ----- ---------- --- --- ------ ------ ---- -- ------<br>------- --- ------ ----- --- ---- ------- -- ---- --- --<br>------- ------,228142.5,228141.20000001788,227740.003,227753,227756.655,228156.318,,23,state
screen,html.Screen,2_1_1_1_24,2022-02-21T17:01:27.304Z,,,,,,,,,,,,,,,,,54,,,,,,,,,,,,,,349.3820000178821,,response,,,,100,,,,,,,Space,keypress(Space),,,,,,,,-- --- ---- --- ------ ----- ------- ---- -- --- ------- --<br>------- ---------- ------ -- ----- -- ----- -- ---- ------<br>--- ----- cut --- ------ -------- ----- --- ------ ----- --<br>----- ----- ---------- --- --- ------ ------ ---- -- ------<br>------- --- ------ ----- --- ---- ------- -- ---- --- --<br>------- ------,228506.5,228505.70000001788,228139.666,228142.59999999404,228156.318,228522.679,,24,cut
screen,html.Screen,2_1_1_1_25,2022-02-21T17:01:27.708Z,,,,,,,,,,,,,,,,,54,,,,,,,,,,,,,,386.3209999999963,,response,,,,100,,,,,,,Space,keypress(Space),,,,,,,,-- --- ---- --- ------ ----- ------- ---- -- --- ------- --<br>------- ---------- ------ -- ----- -- ----- -- ---- ------<br>--- ----- --- the ------ -------- ----- --- ------ ----- --<br>----- ----- ---------- --- --- ------ ------ ---- -- ------<br>------- --- ------ ----- --- ---- ------- -- ---- --- --<br>------- ------,228910.5,228909,228506.027,228506.59999999404,228522.679,228922.35,,25,the
screen,html.Screen,2_1_1_1_26,2022-02-21T17:01:28.110Z,,,,,,,,,,,,,,,,,54,,,,,,,,,,,,,,389.1499999999942,,response,,,,100,,,,,,,Space,keypress(Space),,,,,,,,-- --- ---- --- ------ ----- ------- ---- -- --- ------- --<br>------- ---------- ------ -- ----- -- ----- -- ---- ------<br>--- ----- --- --- bonds' -------- ----- --- ------ ----- --<br>----- ----- ---------- --- --- ------ ------ ---- -- ------<br>------- --- ------ ----- --- ---- ------- -- ---- --- --<br>------- ------,229313,229311.5,228905.698,228910.80000001192,228922.35,229322.014,,26,bonds'
screen,html.Screen,2_1_1_1_27,2022-02-21T17:01:28.450Z,,,,,,,,,,,,,,,,,54,,,,,,,,,,,,,,328.8860000059649,,response,,,,100,,,,,,,Space,keypress(Space),,,,,,,,-- --- ---- --- ------ ----- ------- ---- -- --- ------- --<br>------- ---------- ------ -- ----- -- ----- -- ---- ------<br>--- ----- --- --- ------ interest ----- --- ------ ----- --<br>----- ----- ---------- --- --- ------ ------ ---- -- ------<br>------- --- ------ ----- --- ---- ------- -- ---- --- --<br>------- ------,229652.59999999404,229650.90000000596,229305.362,229313.09999999404,229322.014,229655.077,,27,interest
screen,html.Screen,2_1_1_1_28,2022-02-21T17:01:28.872Z,,,,,,,,,,,,,,,,,54,,,,,,,,,,,,,,418.0229999940493,,response,,,,100,,,,,,,Space,keypress(Space),,,,,,,,-- --- ---- --- ------ ----- ------- ---- -- --- ------- --<br>------- ---------- ------ -- ----- -- ----- -- ---- ------<br>--- ----- --- --- ------ -------- rate. --- ------ ----- --<br>----- ----- ---------- --- --- ------ ------ ---- -- ------<br>------- --- ------ ----- --- ---- ------- -- ---- --- --<br>------- ------,230074.5,230073.09999999404,229638.425,229652.70000001788,229655.077,230088.049,,28,rate.
screen,html.Screen,2_1_1_1_29,2022-02-21T17:01:29.211Z,,,,,,,,,,,,,,,,,54,,,,,,,,,,,,,,324.25100001192186,,response,,,,100,,,,,,,Space,keypress(Space),,,,,,,,-- --- ---- --- ------ ----- ------- ---- -- --- ------- --<br>------- ---------- ------ -- ----- -- ----- -- ---- ------<br>--- ----- --- --- ------ -------- ----- The ------ ----- --<br>----- ----- ---------- --- --- ------ ------ ---- -- ------<br>------- --- ------ ----- --- ---- ------- -- ---- --- --<br>------- ------,230413.80000001192,230412.30000001192,230071.397,230074.59999999404,230088.049,230421.109,,29,The
screen,html.Screen,2_1_1_1_30,2022-02-21T17:01:29.616Z,,,,,,,,,,,,,,,,,54,,,,,,,,,,,,,,396.4909999940428,,response,,,,100,,,,,,,Space,keypress(Space),,,,,,,,-- --- ---- --- ------ ----- ------- ---- -- --- ------- --<br>------- ---------- ------ -- ----- -- ----- -- ---- ------<br>--- ----- --- --- ------ -------- ----- --- market ----- --<br>----- ----- ---------- --- --- ------ ------ ---- -- ------<br>------- --- ------ ----- --- ---- ------- -- ---- --- --<br>------- ------,230818.80000001192,230817.59999999404,230404.457,230413.90000000596,230421.109,230820.781,,30,market
screen,html.Screen,2_1_1_1_31,2022-02-21T17:01:29.945Z,,,,,,,,,,,,,,,,,54,,,,,,,,,,,,,,325.11900000597234,,response,,,,100,,,,,,,Space,keypress(Space),,,,,,,,-- --- ---- --- ------ ----- ------- ---- -- --- ------- --<br>------- ---------- ------ -- ----- -- ----- -- ---- ------<br>--- ----- --- --- ------ -------- ----- --- ------ value --<br>----- ----- ---------- --- --- ------ ------ ---- -- ------<br>------- --- ------ ----- --- ---- ------- -- ---- --- --<br>------- ------,231147.30000001192,231145.90000000596,230804.129,230818.90000000596,230820.781,231153.828,,31,value
screen,html.Screen,2_1_1_1_32,2022-02-21T17:01:30.327Z,,,,,,,,,,,,,,,,,54,,,,,,,,,,,,,,375.1719999999914,,response,,,,100,,,,,,,Space,keypress(Space),,,,,,,,-- --- ---- --- ------ ----- ------- ---- -- --- ------- --<br>------- ---------- ------ -- ----- -- ----- -- ---- ------<br>--- ----- --- --- ------ -------- ----- --- ------ ----- of<br>----- ----- ---------- --- --- ------ ------ ---- -- ------<br>------- --- ------ ----- --- ---- ------- -- ---- --- --<br>------- ------,231530.09999999404,231529,231137.176,231147.5,231153.828,231536.852,,32,of
screen,html.Screen,2_1_1_1_33,2022-02-21T17:01:30.708Z,,,,,,,,,,,,,,,,,54,,,,,,,,,,,,,,372.6479999999865,,response,,,,100,,,,,,,Space,keypress(Space),,,,,,,,-- --- ---- --- ------ ----- ------- ---- -- --- ------- --<br>------- ---------- ------ -- ----- -- ----- -- ---- ------<br>--- ----- --- --- ------ -------- ----- --- ------ ----- --<br>these ----- ---------- --- --- ------ ------ ---- -- ------<br>------- --- ------ ----- --- ---- ------- -- ---- --- --<br>------- ------,231911,231909.5,231520.2,231530.20000001788,231536.852,231919.866,,33,these
screen,html.Screen,2_1_1_1_34,2022-02-21T17:01:31.333Z,,,,,,,,,,,,,,,,,54,,,,,,,,,,,,,,615.2339999940305,,response,,,,100,,,,,,,Space,keypress(Space),,,,,,,,-- --- ---- --- ------ ----- ------- ---- -- --- ------- --<br>------- ---------- ------ -- ----- -- ----- -- ---- ------<br>--- ----- --- --- ------ -------- ----- --- ------ ----- --<br>----- bonds ---------- --- --- ------ ------ ---- -- ------<br>------- --- ------ ----- --- ---- ------- -- ---- --- --<br>------- ------,232536.20000001788,232535.09999999404,231903.214,231911.20000001788,231919.866,232552.656,,34,bonds
screen,html.Screen,2_1_1_1_35,2022-02-21T17:01:31.754Z,,,,,,,,,,,,,,,,,54,,,,,,,,,,,,,,402.9439999940514,,response,,,,100,,,,,,,Space,keypress(Space),,,,,,,,"-- --- ---- --- ------ ----- ------- ---- -- --- ------- --<br>------- ---------- ------ -- ----- -- ----- -- ---- ------<br>--- ----- --- --- ------ -------- ----- --- ------ ----- --<br>----- ----- plummeted, --- --- ------ ------ ---- -- ------<br>------- --- ------ ----- --- ---- ------- -- ---- --- --<br>------- ------",232957,232955.59999999404,232536.004,232536.30000001192,232552.656,232968.981,,35,"plummeted,"
screen,html.Screen,2_1_1_1_36,2022-02-21T17:01:32.174Z,,,,,,,,,,,,,,,,,54,,,,,,,,,,,,,,406.81900001192116,,response,,,,100,,,,,,,Space,keypress(Space),,,,,,,,-- --- ---- --- ------ ----- ------- ---- -- --- ------- --<br>------- ---------- ------ -- ----- -- ----- -- ---- ------<br>--- ----- --- --- ------ -------- ----- --- ------ ----- --<br>----- ----- ---------- and --- ------ ------ ---- -- ------<br>------- --- ------ ----- --- ---- ------- -- ---- --- --<br>------- ------,233377.20000001788,233375.80000001192,232952.329,232957.20000001788,232968.981,233385.307,,36,and
screen,html.Screen,2_1_1_1_37,2022-02-21T17:01:32.532Z,,,,,,,,,,,,,,,,,54,,,,,,,,,,,,,,348.49300001192023,,response,,,,100,,,,,,,Space,keypress(Space),,,,,,,,-- --- ---- --- ------ ----- ------- ---- -- --- ------- --<br>------- ---------- ------ -- ----- -- ----- -- ---- ------<br>--- ----- --- --- ------ -------- ----- --- ------ ----- --<br>----- ----- ---------- --- the ------ ------ ---- -- ------<br>------- --- ------ ----- --- ---- ------- -- ---- --- --<br>------- ------,233735.20000001788,233733.80000001192,233368.655,233377.40000000596,233385.307,233751.679,,37,the
screen,html.Screen,2_1_1_1_38,2022-02-21T17:01:32.968Z,,,,,,,,,,,,,,,,,54,,,,,,,,,,,,,,417.8209999999963,,response,,,,100,,,,,,,Space,keypress(Space),,,,,,,,-- --- ---- --- ------ ----- ------- ---- -- --- ------- --<br>------- ---------- ------ -- ----- -- ----- -- ---- ------<br>--- ----- --- --- ------ -------- ----- --- ------ ----- --<br>----- ----- ---------- --- --- market ------ ---- -- ------<br>------- --- ------ ----- --- ---- ------- -- ---- --- --<br>------- ------,234170.80000001192,234169.5,233735.027,233735.40000000596,233751.679,234184.646,,38,market
screen,html.Screen,2_1_1_1_39,2022-02-21T17:01:33.417Z,,,,,,,,,,,,,,,,,54,,,,,,,,,,,,,,433.654000011913,,response,,,,100,,,,,,,Space,keypress(Space),,,,,,,,-- --- ---- --- ------ ----- ------- ---- -- --- ------- --<br>------- ---------- ------ -- ----- -- ----- -- ---- ------<br>--- ----- --- --- ------ -------- ----- --- ------ ----- --<br>----- ----- ---------- --- --- ------ became ---- -- ------<br>------- --- ------ ----- --- ---- ------- -- ---- --- --<br>------- ------,234619.59999999404,234618.30000001192,234167.994,234171,234184.646,234634.263,,39,became
screen,html.Screen,2_1_1_1_40,2022-02-21T17:01:33.844Z,,,,,,,,,,,,,,,,,54,,,,,,,,,,,,,,411.33699999403325,,response,,,,100,,,,,,,Space,keypress(Space),,,,,,,,-- --- ---- --- ------ ----- ------- ---- -- --- ------- --<br>------- ---------- ------ -- ----- -- ----- -- ---- ------<br>--- ----- --- --- ------ -------- ----- --- ------ ----- --<br>----- ----- ---------- --- --- ------ ------ wary -- ------<br>------- --- ------ ----- --- ---- ------- -- ---- --- --<br>------- ------,235046.90000000596,235045.59999999404,234617.611,234619.80000001192,234634.263,235050.598,,40,wary
screen,html.Screen,2_1_1_1_41,2022-02-21T17:01:34.274Z,,,,,,,,,,,,,,,,,54,,,,,,,,,,,,,,425.0019999940414,,response,,,,100,,,,,,,Space,keypress(Space),,,,,,,,-- --- ---- --- ------ ----- ------- ---- -- --- ------- --<br>------- ---------- ------ -- ----- -- ----- -- ---- ------<br>--- ----- --- --- ------ -------- ----- --- ------ ----- --<br>----- ----- ---------- --- --- ------ ------ ---- of ------<br>------- --- ------ ----- --- ---- ------- -- ---- --- --<br>------- ------,235477.09999999404,235475.59999999404,235033.946,235047,235050.598,235483.571,,41,of
screen,html.Screen,2_1_1_1_42,2022-02-21T17:01:34.725Z,,,,,,,,,,,,,,,,,54,,,,,,,,,,,,,,443.22900001192465,,response,,,,100,,,,,,,Space,keypress(Space),,,,,,,,-- --- ---- --- ------ ----- ------- ---- -- --- ------- --<br>------- ---------- ------ -- ----- -- ----- -- ---- ------<br>--- ----- --- --- ------ -------- ----- --- ------ ----- --<br>----- ----- ---------- --- --- ------ ------ ---- -- French<br>------- --- ------ ----- --- ---- ------- -- ---- --- --<br>------- ------,235928,235926.80000001192,235466.919,235477.20000001788,235483.571,235933.193,,42,French
screen,html.Screen,2_1_1_1_43,2022-02-21T17:01:35.184Z,,,,,,,,,,,,,,,,,54,,,,,,,,,,,,,,452.1070000119216,,response,,,,100,,,,,,,Space,keypress(Space),,,,,,,,-- --- ---- --- ------ ----- ------- ---- -- --- ------- --<br>------- ---------- ------ -- ----- -- ----- -- ---- ------<br>--- ----- --- --- ------ -------- ----- --- ------ ----- --<br>----- ----- ---------- --- --- ------ ------ ---- -- ------<br>credit. --- ------ ----- --- ---- ------- -- ---- --- --<br>------- ------,236386.70000001788,236385.30000001192,235916.541,235928.20000001788,235933.193,236399.464,,43,credit.
screen,html.Screen,2_1_1_1_44,2022-02-21T17:01:35.617Z,,,,,,,,,,,,,,,,,54,,,,,,,,,,,,,,419.0359999999928,,response,,,,100,,,,,,,Space,keypress(Space),,,,,,,,-- --- ---- --- ------ ----- ------- ---- -- --- ------- --<br>------- ---------- ------ -- ----- -- ----- -- ---- ------<br>--- ----- --- --- ------ -------- ----- --- ------ ----- --<br>----- ----- ---------- --- --- ------ ------ ---- -- ------<br>------- The ------ ----- --- ---- ------- -- ---- --- --<br>------- ------,236819.59999999404,236818.5,236382.812,236386.80000001192,236399.464,236832.437,,44,The
screen,html.Screen,2_1_1_1_45,2022-02-21T17:01:36.458Z,,,,,,,,,,,,,,,,,54,,,,,,,,,,,,,,827.3630000119156,,response,,,,100,,,,,,,Space,keypress(Space),,,,,,,,-- --- ---- --- ------ ----- ------- ---- -- --- ------- --<br>------- ---------- ------ -- ----- -- ----- -- ---- ------<br>--- ----- --- --- ------ -------- ----- --- ------ ----- --<br>----- ----- ---------- --- --- ------ ------ ---- -- ------<br>------- --- French ----- --- ---- ------- -- ---- --- --<br>------- ------,237661.30000001192,237659.80000001192,236815.785,236819.80000001192,236832.437,237665.066,,45,French
screen,html.Screen,2_1_1_1_46,2022-02-21T17:01:36.846Z,,,,,,,,,,,,,,,,,54,,,,,,,,,,,,,,381.9340000000084,,response,,,,100,,,,,,,Space,keypress(Space),,,,,,,,-- --- ---- --- ------ ----- ------- ---- -- --- ------- --<br>------- ---------- ------ -- ----- -- ----- -- ---- ------<br>--- ----- --- --- ------ -------- ----- --- ------ ----- --<br>----- ----- ---------- --- --- ------ ------ ---- -- ------<br>------- --- ------ state --- ---- ------- -- ---- --- --<br>------- ------,238048.30000001192,238047,237648.414,237661.40000000596,237665.066,238064.757,,46,state
screen,html.Screen,2_1_1_1_47,2022-02-21T17:01:37.265Z,,,,,,,,,,,,,,,,,54,,,,,,,,,,,,,,401.74299999998766,,response,,,,100,,,,,,,Space,keypress(Space),,,,,,,,-- --- ---- --- ------ ----- ------- ---- -- --- ------- --<br>------- ---------- ------ -- ----- -- ----- -- ---- ------<br>--- ----- --- --- ------ -------- ----- --- ------ ----- --<br>----- ----- ---------- --- --- ------ ------ ---- -- ------<br>------- --- ------ ----- was ---- ------- -- ---- --- --<br>------- ------,238467.90000000596,238466.5,238048.105,238048.5,238064.757,238481.068,,47,was
screen,html.Screen,2_1_1_1_48,2022-02-21T17:01:37.716Z,,,,,,,,,,,,,,,,,54,,,,,,,,,,,,,,436.4320000000007,,response,,,,100,,,,,,,Space,keypress(Space),,,,,,,,-- --- ---- --- ------ ----- ------- ---- -- --- ------- --<br>------- ---------- ------ -- ----- -- ----- -- ---- ------<br>--- ----- --- --- ------ -------- ----- --- ------ ----- --<br>----- ----- ---------- --- --- ------ ------ ---- -- ------<br>------- --- ------ ----- --- left ------- -- ---- --- --<br>------- ------,238918.70000001788,238917.5,238464.416,238468,238481.068,238930.699,,48,left
screen,html.Screen,2_1_1_1_49,2022-02-21T17:01:38.248Z,,,,,,,,,,,,,,,,,54,,,,,,,,,,,,,,518.2010000059672,,response,,,,100,,,,,,,Space,keypress(Space),,,,,,,,-- --- ---- --- ------ ----- ------- ---- -- --- ------- --<br>------- ---------- ------ -- ----- -- ----- -- ---- ------<br>--- ----- --- --- ------ -------- ----- --- ------ ----- --<br>----- ----- ---------- --- --- ------ ------ ---- -- ------<br>------- --- ------ ----- --- ---- without -- ---- --- --<br>------- ------,239450.20000001788,239448.90000000596,238914.047,238918.80000001192,238930.699,239463.583,,49,without
screen,html.Screen,2_1_1_1_50,2022-02-21T17:01:38.668Z,,,,,,,,,,,,,,,,,54,,,,,,,,,,,,,,405.8170000059472,,response,,,,100,,,,,,,Space,keypress(Space),,,,,,,,-- --- ---- --- ------ ----- ------- ---- -- --- ------- --<br>------- ---------- ------ -- ----- -- ----- -- ---- ------<br>--- ----- --- --- ------ -------- ----- --- ------ ----- --<br>----- ----- ---------- --- --- ------ ------ ---- -- ------<br>------- --- ------ ----- --- ---- ------- an ---- --- --<br>------- ------,239871.09999999404,239869.40000000596,239446.931,239450.5,239463.583,239879.917,,50,an
screen,html.Screen,2_1_1_1_51,2022-02-21T17:01:39.088Z,,,,,,,,,,,,,,,,,54,,,,,,,,,,,,,,409.6829999940528,,response,,,,100,,,,,,,Space,keypress(Space),,,,,,,,-- --- ---- --- ------ ----- ------- ---- -- --- ------- --<br>------- ---------- ------ -- ----- -- ----- -- ---- ------<br>--- ----- --- --- ------ -------- ----- --- ------ ----- --<br>----- ----- ---------- --- --- ------ ------ ---- -- ------<br>------- --- ------ ----- --- ---- ------- -- easy --- --<br>------- ------,240290.70000001788,240289.59999999404,239863.265,239871.20000001788,239879.917,240296.229,,51,easy
screen,html.Screen,2_1_1_1_52,2022-02-21T17:01:39.453Z,,,,,,,,,,,,,,,,,54,,,,,,,,,,,,,,357.37099999404745,,response,,,,100,,,,,,,Space,keypress(Space),,,,,,,,-- --- ---- --- ------ ----- ------- ---- -- --- ------- --<br>------- ---------- ------ -- ----- -- ----- -- ---- ------<br>--- ----- --- --- ------ -------- ----- --- ------ ----- --<br>----- ----- ---------- --- --- ------ ------ ---- -- ------<br>------- --- ------ ----- --- ---- ------- -- ---- way --<br>------- ------,240655.30000001192,240653.59999999404,240279.577,240290.90000000596,240296.229,240662.597,,52,way
screen,html.Screen,2_1_1_1_53,2022-02-21T17:01:39.815Z,,,,,,,,,,,,,,,,,54,,,,,,,,,,,,,,352.90299999999115,,response,,,,100,,,,,,,Space,keypress(Space),,,,,,,,-- --- ---- --- ------ ----- ------- ---- -- --- ------- --<br>------- ---------- ------ -- ----- -- ----- -- ---- ------<br>--- ----- --- --- ------ -------- ----- --- ------ ----- --<br>----- ----- ---------- --- --- ------ ------ ---- -- ------<br>------- --- ------ ----- --- ---- ------- -- ---- --- of<br>------- ------,241017.70000001788,241015.5,240645.945,240655.70000001788,240662.597,241028.963,,53,of
screen,html.Screen,2_1_1_1_54,2022-02-21T17:01:40.186Z,,,,,,,,,,,,,,,,,54,,,,,,,,,,,,,,357.93700000597164,,response,,,,100,,,,,,,Space,keypress(Space),,,,,,,,-- --- ---- --- ------ ----- ------- ---- -- --- ------- --<br>------- ---------- ------ -- ----- -- ----- -- ---- ------<br>--- ----- --- --- ------ -------- ----- --- ------ ----- --<br>----- ----- ---------- --- --- ------ ------ ---- -- ------<br>------- --- ------ ----- --- ---- ------- -- ---- --- --<br>raising ------,241388.30000001192,241386.90000000596,241012.311,241017.80000001192,241028.963,241395.326,,54,raising
screen,html.Screen,2_1_1_1_55,2022-02-21T17:01:40.582Z,,,,,,,,,,,,,,,,,54,,,,,,,,,,,,,,388.47400001192,,response,,,,100,,,,,,,Space,keypress(Space),,,,,,,,-- --- ---- --- ------ ----- ------- ---- -- --- ------- --<br>------- ---------- ------ -- ----- -- ----- -- ---- ------<br>--- ----- --- --- ------ -------- ----- --- ------ ----- --<br>----- ----- ---------- --- --- ------ ------ ---- -- ------<br>------- --- ------ ----- --- ---- ------- -- ---- --- --<br>------- money.,241785.20000001788,241783.80000001192,241378.674,241388.59999999404,241395.326,241794.991,,55,money.
Item 100,flow.Loop,2_1_1_1,2022-02-21T17:01:40.583Z,,,,,,,,,,,,,,,,,,,,,,,,,,,,,,,23102.968000011926,,completion,,,,,E,,,,,,,,,,,silence,,,,,241785.5,241783.80000001192,218664.18,218665.30000001192,218680.832,241794.991,,,
Question 1,html.Screen,2_1_1_2,2022-02-21T17:01:43.362Z,,,,,,,,,,,,,,,,,,,,,,,,,,,,true,TRUE,,2768.2090000178723,,response,,,,100,E,,,,,,TRUE,click #choice-1,,,,silence,,,,,244564.40000000596,244563.20000001788,241778.339,241785.70000001788,241794.991,244575.997,,,
Question 2,html.Screen,2_1_1_3,2022-02-21T17:01:45.383Z,,,,,,,,,,,,,,,,,,,,,,,,,,,,false,FALSE,,2008.303000011918,,response,,,,100,E,,,,,,TRUE,click #choice-1,,,,silence,,,,,246585.70000001788,246584.30000001192,244559.345,244564.59999999404,244575.997,246591.016,,,
Item 100,flow.Sequence,2_1_1,2022-02-21T17:01:45.383Z,,,,,,,,,,,,,,,,,,,,,,,,,,,,,,,37911.778000011924,,completion,,,,,,,,,,,,,,,,,,,,,246585.90000000596,246584.30000001192,208655.87,208661.59999999404,208672.522,246591.016,,,
End of Practice,html.Page,2_1_2,2022-02-21T17:01:55.605Z,,,,,,,,,,,,,,,,,,,,,,,,,,,,,,,10216.384000005957,,form submission,,,,,,,,,,,,,,,,,,,,,256807.90000000596,256807.40000000596,246574.322,246586.09999999404,246591.016,256815.832,,,
Practice,flow.Sequence,2_1,2022-02-21T17:01:55.605Z,,,,,,,,,,,,,,,,,,,,,,,,,,,,,,,90150.01700000596,,completion,,,,,,,,,,,,,,,,,,,,,256808.20000001788,256807.40000000596,166624.079,166651.09999999404,166657.383,256815.832,,,
Trap_instruction,html.Page,2_2_0,2022-02-21T17:02:14.457Z,,,,,,,,,,,,,,,,,,,,,,,,,,,,,,,18843.168000000005,,form submission,,,,,,,,,,,,,,,,,,,,,275659.59999999404,275659,256799.18,256808.40000000596,256815.832,275715.874,,,
trap_trial,html.Screen,2_2_1,2022-02-21T17:02:18.528Z,,,,,,,,,,,,,,,,,,,,,,,,,,,,true,1,,4013.6259999999893,,response,,,,,,,,,,,1,click #choice-1,,,,,,,,,279731.09999999404,279729.5,275649.266,275659.7000000179,275715.874,279746.613,,,
end of trap trial,html.Page,2_2_2,2022-02-21T17:02:20.058Z,,,,,,,,,,,,,,,,,,,,,,,,,,,,,,,1513.7870000059484,,form submission,,,,,,,,,,,,,,,,,,,,,281260.90000000596,281260.40000000596,279729.961,279731.3000000119,279746.613,281262.193,,,
Trap 1,flow.Sequence,2_2,2022-02-21T17:02:20.059Z,,,,,,,,,,,,,,,,,,,,,,,,,,,,,,,24444.568000005966,,completion,,,,,,,,,,,,,,,,,,,,,281261.3000000119,281260.40000000596,256799.18,256808.40000000596,256815.832,281262.193,,,
Standby,html.Page,2_3_0,2022-02-21T17:02:28.037Z,,,,,,,,,,,,,,,,,,,,,,,,,,,,,,,7992.976999999955,,timeout,,,,,,,,,,,,,,,,,,,,,289239.40000000596,289238.518,281245.541,281261.5,281262.193,289255.17,,,
Holding screen,html.Screen,2_3_1_0_0,2022-02-21T17:02:35.031Z,,,,,,,,,,,,,,,,,,,,,,,,,,,,,,,6994.543999999994,,timeout,,,,,,,,,,,,,,,,,,,,,296233.90000000596,296233.062,289238.518,289239.7000000179,289255.17,296249.714,,,
screen,html.Screen,2_3_1_0_1_0,2022-02-21T17:02:35.871Z,,,,,,,,,,,,,,,,,51,,,,,,,,,,,,,,822.3859999940614,,response,,,,13,E,,,,,,Space,keypress(Space),,,,lyrical,,,,American -------- --- --- ---- --- --- ------ -- --------<br>---- --------- --- ------- ------------ ---------- ---------<br>--- ---------- ------- ---------- ------- -- -------- ----<br>---- --- ------ ----- ------ -- ---- --- ----- -- - -------<br>-------- -- --- --- -- ----- ----------- ----- -----------<br>---- --- ---------- --- ---- --- -- ----------,297074.3000000119,297072.09999999404,296233.062,296234.2000000179,296249.714,297082.356,,0,American
screen,html.Screen,2_3_1_0_1_1,2022-02-21T17:02:36.522Z,,,,,,,,,,,,,,,,,51,,,,,,,,,,,,,,641.0440000059316,,response,,,,13,E,,,,,,Space,keypress(Space),,,,lyrical,,,,-------- industry --- --- ---- --- --- ------ -- --------<br>---- --------- --- ------- ------------ ---------- ---------<br>--- ---------- ------- ---------- ------- -- -------- ----<br>---- --- ------ ----- ------ -- ---- --- ----- -- - -------<br>-------- -- --- --- -- ----- ----------- ----- -----------<br>---- --- ---------- --- ---- --- -- ----------,297724.8000000119,297723.40000000596,297065.704,297074.5,297082.356,297731.832,,1,industry
screen,html.Screen,2_3_1_0_1_2,2022-02-21T17:02:37.158Z,,,,,,,,,,,,,,,,,51,,,,,,,,,,,,,,628.5680000059656,,response,,,,13,E,,,,,,Space,keypress(Space),,,,lyrical,,,,-------- -------- may --- ---- --- --- ------ -- --------<br>---- --------- --- ------- ------------ ---------- ---------<br>--- ---------- ------- ---------- ------- -- -------- ----<br>---- --- ------ ----- ------ -- ---- --- ----- -- - -------<br>-------- -- --- --- -- ----- ----------- ----- -----------<br>---- --- ---------- --- ---- --- -- ----------,298361.2000000179,298360.40000000596,297715.18,297725,297731.832,298364.645,,2,may
screen,html.Screen,2_3_1_0_1_3,2022-02-21T17:02:37.650Z,,,,,,,,,,,,,,,,,51,,,,,,,,,,,,,,486.75500000594184,,response,,,,13,E,,,,,,Space,keypress(Space),,,,lyrical,,,,-------- -------- --- not ---- --- --- ------ -- --------<br>---- --------- --- ------- ------------ ---------- ---------<br>--- ---------- ------- ---------- ------- -- -------- ----<br>---- --- ------ ----- ------ -- ---- --- ----- -- - -------<br>-------- -- --- --- -- ----- ----------- ----- -----------<br>---- --- ---------- --- ---- --- -- ----------,298852.59999999404,298851.40000000596,298347.993,298361.3000000119,298364.645,298864.228,,3,not
screen,html.Screen,2_3_1_0_1_4,2022-02-21T17:02:38.215Z,,,,,,,,,,,,,,,,,51,,,,,,,,,,,,,,552.1720000059577,,response,,,,13,E,,,,,,Space,keypress(Space),,,,lyrical,,,,-------- -------- --- --- know --- --- ------ -- --------<br>---- --------- --- ------- ------------ ---------- ---------<br>--- ---------- ------- ---------- ------- -- -------- ----<br>---- --- ------ ----- ------ -- ---- --- ----- -- - -------<br>-------- -- --- --- -- ----- ----------- ----- -----------<br>---- --- ---------- --- ---- --- -- ----------,299417.59999999404,299416.40000000596,298847.576,298852.8000000119,298864.228,299430.417,,4,know
screen,html.Screen,2_3_1_0_1_5,2022-02-21T17:02:38.713Z,,,,,,,,,,,,,,,,,51,,,,,,,,,,,,,,483.8830000119051,,response,,,,13,E,,,,,,Space,keypress(Space),,,,lyrical,,,,"-------- -------- --- --- ---- it, --- ------ -- --------<br>---- --------- --- ------- ------------ ---------- ---------<br>--- ---------- ------- ---------- ------- -- -------- ----<br>---- --- ------ ----- ------ -- ---- --- ----- -- - -------<br>-------- -- --- --- -- ----- ----------- ----- -----------<br>---- --- ---------- --- ---- --- -- ----------",299915.5,299914.3000000119,299413.765,299417.7000000179,299430.417,299930.004,,5,"it,"
screen,html.Screen,2_3_1_0_1_6,2022-02-21T17:02:39.129Z,,,,,,,,,,,,,,,,,51,,,,,,,,,,,,,,400.79600001190556,,response,,,,13,E,,,,,,Space,keypress(Space),,,,lyrical,,,,-------- -------- --- --- ---- --- but ------ -- --------<br>---- --------- --- ------- ------------ ---------- ---------<br>--- ---------- ------- ---------- ------- -- -------- ----<br>---- --- ------ ----- ------ -- ---- --- ----- -- - -------<br>-------- -- --- --- -- ----- ----------- ----- -----------<br>---- --- ---------- --- ---- --- -- ----------,300332,300330.8000000119,299913.352,299915.59999999404,299930.004,300346.339,,6,but
screen,html.Screen,2_3_1_0_1_7,2022-02-21T17:02:39.617Z,,,,,,,,,,,,,,,,,51,,,,,,,,,,,,,,472.4610000119428,,response,,,,13,E,,,,,,Space,keypress(Space),,,,lyrical,,,,-------- -------- --- --- ---- --- --- debate -- --------<br>---- --------- --- ------- ------------ ---------- ---------<br>--- ---------- ------- ---------- ------- -- -------- ----<br>---- --- ------ ----- ------ -- ---- --- ----- -- - -------<br>-------- -- --- --- -- ----- ----------- ----- -----------<br>---- --- ---------- --- ---- --- -- ----------,300820,300818.8000000119,300329.687,300332.2000000179,300346.339,300829.257,,7,debate
screen,html.Screen,2_3_1_0_1_8,2022-02-21T17:02:40.014Z,,,,,,,,,,,,,,,,,51,,,,,,,,,,,,,,386.74300000001676,,response,,,,13,E,,,,,,Space,keypress(Space),,,,lyrical,,,,-------- -------- --- --- ---- --- --- ------ in --------<br>---- --------- --- ------- ------------ ---------- ---------<br>--- ---------- ------- ---------- ------- -- -------- ----<br>---- --- ------ ----- ------ -- ---- --- ----- -- - -------<br>-------- -- --- --- -- ----- ----------- ----- -----------<br>---- --- ---------- --- ---- --- -- ----------,301217.09999999404,301216,300812.605,300820.09999999404,300829.257,301228.94,,8,in
screen,html.Screen,2_3_1_0_1_9,2022-02-21T17:02:40.442Z,,,,,,,,,,,,,,,,,51,,,,,,,,,,,,,,414.1599999940372,,response,,,,13,E,,,,,,Space,keypress(Space),,,,lyrical,,,,-------- -------- --- --- ---- --- --- ------ -- Congress<br>---- --------- --- ------- ------------ ---------- ---------<br>--- ---------- ------- ---------- ------- -- -------- ----<br>---- --- ------ ----- ------ -- ---- --- ----- -- - -------<br>-------- -- --- --- -- ----- ----------- ----- -----------<br>---- --- ---------- --- ---- --- -- ----------,301644.5,301643.09999999404,301212.288,301217.3000000119,301228.94,301645.262,,9,Congress
screen,html.Screen,2_3_1_0_1_10,2022-02-21T17:02:40.895Z,,,,,,,,,,,,,,,,,51,,,,,,,,,,,,,,451.4380000178935,,response,,,,13,E,,,,,,Space,keypress(Space),,,,lyrical,,,,-------- -------- --- --- ---- --- --- ------ -- --------<br>over --------- --- ------- ------------ ---------- ---------<br>--- ---------- ------- ---------- ------- -- -------- ----<br>---- --- ------ ----- ------ -- ---- --- ----- -- - -------<br>-------- -- --- --- -- ----- ----------- ----- -----------<br>---- --- ---------- --- ---- --- -- ----------,302097.90000000596,302096.7000000179,301628.61,301644.59999999404,301645.262,302111.54,,10,over
screen,html.Screen,2_3_1_0_1_11,2022-02-21T17:02:41.373Z,,,,,,,,,,,,,,,,,51,,,,,,,,,,,,,,463.66000001790235,,response,,,,13,E,,,,,,Space,keypress(Space),,,,lyrical,,,,-------- -------- --- --- ---- --- --- ------ -- --------<br>---- reforming --- ------- ------------ ---------- ---------<br>--- ---------- ------- ---------- ------- -- -------- ----<br>---- --- ------ ----- ------ -- ---- --- ----- -- - -------<br>-------- -- --- --- -- ----- ----------- ----- -----------<br>---- --- ---------- --- ---- --- -- ----------,302576.2000000179,302575.2000000179,302094.888,302098,302111.54,302577.805,,11,reforming
screen,html.Screen,2_3_1_0_1_12,2022-02-21T17:02:41.828Z,,,,,,,,,,,,,,,,,51,,,,,,,,,,,,,,449.695000000007,,response,,,,13,E,,,,,,Space,keypress(Space),,,,lyrical,,,,-------- -------- --- --- ---- --- --- ------ -- --------<br>---- --------- the ------- ------------ ---------- ---------<br>--- ---------- ------- ---------- ------- -- -------- ----<br>---- --- ------ ----- ------ -- ---- --- ----- -- - -------<br>-------- -- --- --- -- ----- ----------- ----- -----------<br>---- --- ---------- --- ---- --- -- ----------,303030.3000000119,303027.5,302561.153,302576.3000000119,302577.805,303044.087,,12,the
screen,html.Screen,2_3_1_0_1_13,2022-02-21T17:02:42.265Z,,,,,,,,,,,,,,,,,51,,,,,,,,,,,,,,422.51299999404,,response,,,,13,E,,,,,,Space,keypress(Space),,,,lyrical,,,,-------- -------- --- --- ---- --- --- ------ -- --------<br>---- --------- --- federal ------------ ---------- ---------<br>--- ---------- ------- ---------- ------- -- -------- ----<br>---- --- ------ ----- ------ -- ---- --- ----- -- - -------<br>-------- -- --- --- -- ----- ----------- ----- -----------<br>---- --- ---------- --- ---- --- -- ----------,303467.90000000596,303466.59999999404,303027.435,303030.59999999404,303044.087,303477.064,,13,federal
screen,html.Screen,2_3_1_0_1_14,2022-02-21T17:02:43.093Z,,,,,,,,,,,,,,,,,51,,,,,,,,,,,,,,816.8360000059474,,response,,,,13,E,,,,,,Space,keypress(Space),,,,lyrical,,,,-------- -------- --- --- ---- --- --- ------ -- --------<br>---- --------- --- ------- government's ---------- ---------<br>--- ---------- ------- ---------- ------- -- -------- ----<br>---- --- ------ ----- ------ -- ---- --- ----- -- - -------<br>-------- -- --- --- -- ----- ----------- ----- -----------<br>---- --- ---------- --- ---- --- -- ----------,304295.40000000596,304293.90000000596,303460.412,303468.09999999404,303477.064,304309.695,,14,government's
screen,html.Screen,2_3_1_0_1_15,2022-02-21T17:02:43.583Z,,,,,,,,,,,,,,,,,51,,,,,,,,,,,,,,474.7050000059535,,response,,,,13,E,,,,,,Space,keypress(Space),,,,lyrical,,,,-------- -------- --- --- ---- --- --- ------ -- --------<br>---- --------- --- ------- ------------ regulatory ---------<br>--- ---------- ------- ---------- ------- -- -------- ----<br>---- --- ------ ----- ------ -- ---- --- ----- -- - -------<br>-------- -- --- --- -- ----- ----------- ----- -----------<br>---- --- ---------- --- ---- --- -- ----------,304785.7000000179,304784.40000000596,304293.043,304295.5,304309.695,304792.641,,15,regulatory
screen,html.Screen,2_3_1_0_1_16,2022-02-21T17:02:44.058Z,,,,,,,,,,,,,,,,,51,,,,,,,,,,,,,,466.9589999940363,,response,,,,13,E,,,,,,Space,keypress(Space),,,,lyrical,,,,-------- -------- --- --- ---- --- --- ------ -- --------<br>---- --------- --- ------- ------------ ---------- apparatus<br>--- ---------- ------- ---------- ------- -- -------- ----<br>---- --- ------ ----- ------ -- ---- --- ----- -- - -------<br>-------- -- --- --- -- ----- ----------- ----- -----------<br>---- --- ---------- --- ---- --- -- ----------,305260.8000000119,305259.59999999404,304775.989,304785.8000000119,304792.641,305275.567,,16,apparatus
screen,html.Screen,2_3_1_0_1_17,2022-02-21T17:02:44.451Z,,,,,,,,,,,,,,,,,51,,,,,,,,,,,,,,376.6330000179005,,response,,,,13,E,,,,,,Space,keypress(Space),,,,lyrical,,,,-------- -------- --- --- ---- --- --- ------ -- --------<br>---- --------- --- ------- ------------ ---------- ---------<br>may ---------- ------- ---------- ------- -- -------- ----<br>---- --- ------ ----- ------ -- ---- --- ----- -- - -------<br>-------- -- --- --- -- ----- ----------- ----- -----------<br>---- --- ---------- --- ---- --- -- ----------,305653.5,305652.2000000179,305258.915,305261.09999999404,305275.567,305658.583,,17,may
screen,html.Screen,2_3_1_0_1_18,2022-02-21T17:02:44.892Z,,,,,,,,,,,,,,,,,51,,,,,,,,,,,,,,434.91700000001583,,response,,,,13,E,,,,,,Space,keypress(Space),,,,lyrical,,,,-------- -------- --- --- ---- --- --- ------ -- --------<br>---- --------- --- ------- ------------ ---------- ---------<br>--- profoundly ------- ---------- ------- -- -------- ----<br>---- --- ------ ----- ------ -- ---- --- ----- -- - -------<br>-------- -- --- --- -- ----- ----------- ----- -----------<br>---- --- ---------- --- ---- --- -- ----------,306094.90000000596,306093.5,305641.931,305653.7000000179,305658.583,306108.206,,18,profoundly
screen,html.Screen,2_3_1_0_1_19,2022-02-21T17:02:45.453Z,,,,,,,,,,,,,,,,,51,,,,,,,,,,,,,,546.393999994034,,response,,,,13,E,,,,,,Space,keypress(Space),,,,lyrical,,,,-------- -------- --- --- ---- --- --- ------ -- --------<br>---- --------- --- ------- ------------ ---------- ---------<br>--- ---------- improve ---------- ------- -- -------- ----<br>---- --- ------ ----- ------ -- ---- --- ----- -- - -------<br>-------- -- --- --- -- ----- ----------- ----- -----------<br>---- --- ---------- --- ---- --- -- ----------,306656.2000000179,306654.59999999404,306091.554,306095.09999999404,306108.206,306657.754,,19,improve
screen,html.Screen,2_3_1_0_1_20,2022-02-21T17:02:45.869Z,,,,,,,,,,,,,,,,,51,,,,,,,,,,,,,,412.54600001190556,,response,,,,13,E,,,,,,Space,keypress(Space),,,,lyrical,,,,-------- -------- --- --- ---- --- --- ------ -- --------<br>---- --------- --- ------- ------------ ---------- ---------<br>--- ---------- ------- companies' ------- -- -------- ----<br>---- --- ------ ----- ------ -- ---- --- ----- -- - -------<br>-------- -- --- --- -- ----- ----------- ----- -----------<br>---- --- ---------- --- ---- --- -- ----------,307071.5,307070.3000000119,306641.102,306656.5,306657.754,307074.077,,20,companies'
screen,html.Screen,2_3_1_0_1_21,2022-02-21T17:02:46.465Z,,,,,,,,,,,,,,,,,51,,,,,,,,,,,,,,591.2230000119307,,response,,,,13,E,,,,,,Space,keypress(Space),,,,lyrical,,,,-------- -------- --- --- ---- --- --- ------ -- --------<br>---- --------- --- ------- ------------ ---------- ---------<br>--- ---------- ------- ---------- ability -- -------- ----<br>---- --- ------ ----- ------ -- ---- --- ----- -- - -------<br>-------- -- --- --- -- ----- ----------- ----- -----------<br>---- --- ---------- --- ---- --- -- ----------,307667.7000000179,307665.3000000119,307057.425,307071.7000000179,307074.077,307673.566,,21,ability
screen,html.Screen,2_3_1_0_1_22,2022-02-21T17:02:47.120Z,,,,,,,,,,,,,,,,,51,,,,,,,,,,,,,,648.0339999940479,,response,,,,13,E,,,,,,Space,keypress(Space),,,,lyrical,,,,-------- -------- --- --- ---- --- --- ------ -- --------<br>---- --------- --- ------- ------------ ---------- ---------<br>--- ---------- ------- ---------- ------- to -------- ----<br>---- --- ------ ----- ------ -- ---- --- ----- -- - -------<br>-------- -- --- --- -- ----- ----------- ----- -----------<br>---- --- ---------- --- ---- --- -- ----------,308322.90000000596,308321.59999999404,307656.914,307668,307673.566,308339.687,,22,to
screen,html.Screen,2_3_1_0_1_23,2022-02-21T17:02:47.453Z,,,,,,,,,,,,,,,,,51,,,,,,,,,,,,,,314.2130000059842,,response,,,,13,E,,,,,,Space,keypress(Space),,,,lyrical,,,,-------- -------- --- --- ---- --- --- ------ -- --------<br>---- --------- --- ------- ------------ ---------- ---------<br>--- ---------- ------- ---------- ------- -- survive. ----<br>---- --- ------ ----- ------ -- ---- --- ----- -- - -------<br>-------- -- --- --- -- ----- ----------- ----- -----------<br>---- --- ---------- --- ---- --- -- ----------,308655.40000000596,308653.90000000596,308323.035,308323.09999999404,308339.687,308672.747,,23,survive.
screen,html.Screen,2_3_1_0_1_24,2022-02-21T17:02:47.850Z,,,,,,,,,,,,,,,,,51,,,,,,,,,,,,,,378.3529999940656,,response,,,,13,E,,,,,,Space,keypress(Space),,,,lyrical,,,,-------- -------- --- --- ---- --- --- ------ -- --------<br>---- --------- --- ------- ------------ ---------- ---------<br>--- ---------- ------- ---------- ------- -- -------- This<br>---- --- ------ ----- ------ -- ---- --- ----- -- - -------<br>-------- -- --- --- -- ----- ----------- ----- -----------<br>---- --- ---------- --- ---- --- -- ----------,309052.59999999404,309051.09999999404,308656.095,308655.59999999404,308672.747,309055.767,,24,This
screen,html.Screen,2_3_1_0_1_25,2022-02-21T17:02:48.245Z,,,,,,,,,,,,,,,,,51,,,,,,,,,,,,,,390.73300000000745,,response,,,,13,E,,,,,,Space,keypress(Space),,,,lyrical,,,,-------- -------- --- --- ---- --- --- ------ -- --------<br>---- --------- --- ------- ------------ ---------- ---------<br>--- ---------- ------- ---------- ------- -- -------- ----<br>week --- ------ ----- ------ -- ---- --- ----- -- - -------<br>-------- -- --- --- -- ----- ----------- ----- -----------<br>---- --- ---------- --- ---- --- -- ----------,309447.8000000119,309446.5,309039.115,309052.8000000119,309055.767,309455.43,,25,week
screen,html.Screen,2_3_1_0_1_26,2022-02-21T17:02:48.684Z,,,,,,,,,,,,,,,,,51,,,,,,,,,,,,,,430.1699999940465,,response,,,,13,E,,,,,,Space,keypress(Space),,,,lyrical,,,,-------- -------- --- --- ---- --- --- ------ -- --------<br>---- --------- --- ------- ------------ ---------- ---------<br>--- ---------- ------- ---------- ------- -- -------- ----<br>---- the ------ ----- ------ -- ---- --- ----- -- - -------<br>-------- -- --- --- -- ----- ----------- ----- -----------<br>---- --- ---------- --- ---- --- -- ----------,309887,309885.59999999404,309438.778,309448,309455.43,309888.408,,26,the
screen,html.Screen,2_3_1_0_1_27,2022-02-21T17:02:49.160Z,,,,,,,,,,,,,,,,,51,,,,,,,,,,,,,,473.3920000119251,,response,,,,13,E,,,,,,Space,keypress(Space),,,,lyrical,,,,-------- -------- --- --- ---- --- --- ------ -- --------<br>---- --------- --- ------- ------------ ---------- ---------<br>--- ---------- ------- ---------- ------- -- -------- ----<br>---- --- Senate ----- ------ -- ---- --- ----- -- - -------<br>-------- -- --- --- -- ----- ----------- ----- -----------<br>---- --- ---------- --- ---- --- -- ----------,310362.7000000179,310361.8000000119,309871.756,309887.2000000179,309888.408,310371.34,,27,Senate
screen,html.Screen,2_3_1_0_1_28,2022-02-21T17:02:49.550Z,,,,,,,,,,,,,,,,,51,,,,,,,,,,,,,,379.7599999940139,,response,,,,13,E,,,,,,Space,keypress(Space),,,,lyrical,,,,-------- -------- --- --- ---- --- --- ------ -- --------<br>---- --------- --- ------- ------------ ---------- ---------<br>--- ---------- ------- ---------- ------- -- -------- ----<br>---- --- ------ seems ------ -- ---- --- ----- -- - -------<br>-------- -- --- --- -- ----- ----------- ----- -----------<br>---- --- ---------- --- ---- --- -- ----------,310752.5,310751.09999999404,310354.688,310362.8000000119,310371.34,310754.36,,28,seems
screen,html.Screen,2_3_1_0_1_29,2022-02-21T17:02:49.947Z,,,,,,,,,,,,,,,,,51,,,,,,,,,,,,,,394.4400000119349,,response,,,,13,E,,,,,,Space,keypress(Space),,,,lyrical,,,,-------- -------- --- --- ---- --- --- ------ -- --------<br>---- --------- --- ------- ------------ ---------- ---------<br>--- ---------- ------- ---------- ------- -- -------- ----<br>---- --- ------ ----- poised -- ---- --- ----- -- - -------<br>-------- -- --- --- -- ----- ----------- ----- -----------<br>---- --- ---------- --- ---- --- -- ----------,311150.2000000179,311148.8000000119,310737.708,310752.7000000179,310754.36,311154.017,,29,poised
screen,html.Screen,2_3_1_0_1_30,2022-02-21T17:02:50.328Z,,,,,,,,,,,,,,,,,51,,,,,,,,,,,,,,375.48300000000745,,response,,,,13,E,,,,,,Space,keypress(Space),,,,lyrical,,,,-------- -------- --- --- ---- --- --- ------ -- --------<br>---- --------- --- ------- ------------ ---------- ---------<br>--- ---------- ------- ---------- ------- -- -------- ----<br>---- --- ------ ----- ------ to ---- --- ----- -- - -------<br>-------- -- --- --- -- ----- ----------- ----- -----------<br>---- --- ---------- --- ---- --- -- ----------,311530.90000000596,311529.5,311137.365,311150.3000000119,311154.017,311537.032,,30,to
screen,html.Screen,2_3_1_0_1_31,2022-02-21T17:02:50.656Z,,,,,,,,,,,,,,,,,51,,,,,,,,,,,,,,320.7680000119144,,response,,,,13,E,,,,,,Space,keypress(Space),,,,lyrical,,,,-------- -------- --- --- ---- --- --- ------ -- --------<br>---- --------- --- ------- ------------ ---------- ---------<br>--- ---------- ------- ---------- ------- -- -------- ----<br>---- --- ------ ----- ------ -- join --- ----- -- - -------<br>-------- -- --- --- -- ----- ----------- ----- -----------<br>---- --- ---------- --- ---- --- -- ----------,311859.09999999404,311857.8000000119,311520.38,311531,311537.032,311870.092,,31,join
screen,html.Screen,2_3_1_0_1_32,2022-02-21T17:02:50.987Z,,,,,,,,,,,,,,,,,51,,,,,,,,,,,,,,318.50799999403534,,response,,,,13,E,,,,,,Space,keypress(Space),,,,lyrical,,,,-------- -------- --- --- ---- --- --- ------ -- --------<br>---- --------- --- ------- ------------ ---------- ---------<br>--- ---------- ------- ---------- ------- -- -------- ----<br>---- --- ------ ----- ------ -- ---- the ----- -- - -------<br>-------- -- --- --- -- ----- ----------- ----- -----------<br>---- --- ---------- --- ---- --- -- ----------,312189.90000000596,312188.59999999404,311853.44,311859.3000000119,311870.092,312203.15,,32,the
screen,html.Screen,2_3_1_0_1_33,2022-02-21T17:02:51.312Z,,,,,,,,,,,,,,,,,51,,,,,,,,,,,,,,308.94999999401625,,response,,,,13,E,,,,,,Space,keypress(Space),,,,lyrical,,,,-------- -------- --- --- ---- --- --- ------ -- --------<br>---- --------- --- ------- ------------ ---------- ---------<br>--- ---------- ------- ---------- ------- -- -------- ----<br>---- --- ------ ----- ------ -- ---- --- House -- - -------<br>-------- -- --- --- -- ----- ----------- ----- -----------<br>---- --- ---------- --- ---- --- -- ----------,312514.3000000119,312512.09999999404,312186.498,312190.09999999404,312203.15,312519.556,,33,House
screen,html.Screen,2_3_1_0_1_34,2022-02-21T17:02:51.649Z,,,,,,,,,,,,,,,,,51,,,,,,,,,,,,,,330.34400000597816,,response,,,,13,E,,,,,,Space,keypress(Space),,,,lyrical,,,,-------- -------- --- --- ---- --- --- ------ -- --------<br>---- --------- --- ------- ------------ ---------- ---------<br>--- ---------- ------- ---------- ------- -- -------- ----<br>---- --- ------ ----- ------ -- ---- --- ----- in - -------<br>-------- -- --- --- -- ----- ----------- ----- -----------<br>---- --- ---------- --- ---- --- -- ----------,312851.3000000119,312849.90000000596,312502.904,312514.5,312519.556,312852.62,,34,in
screen,html.Screen,2_3_1_0_1_35,2022-02-21T17:02:51.962Z,,,,,,,,,,,,,,,,,51,,,,,,,,,,,,,,311.1800000119256,,response,,,,13,E,,,,,,Space,keypress(Space),,,,lyrical,,,,-------- -------- --- --- ---- --- --- ------ -- --------<br>---- --------- --- ------- ------------ ---------- ---------<br>--- ---------- ------- ---------- ------- -- -------- ----<br>---- --- ------ ----- ------ -- ---- --- ----- -- a -------<br>-------- -- --- --- -- ----- ----------- ----- -----------<br>---- --- ---------- --- ---- --- -- ----------,313165.2000000179,313163.8000000119,312835.968,312851.5,312852.62,313169.022,,35,a
screen,html.Screen,2_3_1_0_1_36,2022-02-21T17:02:52.322Z,,,,,,,,,,,,,,,,,51,,,,,,,,,,,,,,354.7780000119237,,response,,,,13,E,,,,,,Space,keypress(Space),,,,lyrical,,,,-------- -------- --- --- ---- --- --- ------ -- --------<br>---- --------- --- ------- ------------ ---------- ---------<br>--- ---------- ------- ---------- ------- -- -------- ----<br>---- --- ------ ----- ------ -- ---- --- ----- -- - massive<br>-------- -- --- --- -- ----- ----------- ----- -----------<br>---- --- ---------- --- ---- --- -- ----------,313525.2000000179,313523.8000000119,313152.37,313165.40000000596,313169.022,313535.372,,36,massive
screen,html.Screen,2_3_1_0_1_37,2022-02-21T17:02:52.735Z,,,,,,,,,,,,,,,,,51,,,,,,,,,,,,,,401.1280000000261,,response,,,,13,E,,,,,,Space,keypress(Space),,,,lyrical,,,,-------- -------- --- --- ---- --- --- ------ -- --------<br>---- --------- --- ------- ------------ ---------- ---------<br>--- ---------- ------- ---------- ------- -- -------- ----<br>---- --- ------ ----- ------ -- ---- --- ----- -- - -------<br>overhaul -- --- --- -- ----- ----------- ----- -----------<br>---- --- ---------- --- ---- --- -- ----------,313937.7000000179,313936.5,313518.72,313525.40000000596,313535.372,313951.691,,37,overhaul
screen,html.Screen,2_3_1_0_1_38,2022-02-21T17:02:53.108Z,,,,,,,,,,,,,,,,,51,,,,,,,,,,,,,,358.3090000000084,,response,,,,13,E,,,,,,Space,keypress(Space),,,,lyrical,,,,-------- -------- --- --- ---- --- --- ------ -- --------<br>---- --------- --- ------- ------------ ---------- ---------<br>--- ---------- ------- ---------- ------- -- -------- ----<br>---- --- ------ ----- ------ -- ---- --- ----- -- - -------<br>-------- of --- --- -- ----- ----------- ----- -----------<br>---- --- ---------- --- ---- --- -- ----------,314311.2000000179,314310,313935.039,313937.8000000119,313951.691,314318.054,,38,of
