sender,sender_type,sender_id,timestamp,meta,,Blues,Classical,Country,Dance,Electronic,Folk,Gospel,Hip-Hop,Jazz,Latin,Musical/Film,New-age,Pop,Prolific_id,Provo_ID,R&B,Rap,Reggae,Religious,Rock,Soul,Swing,Traditional,age,artist_name,correct,correctResponse,distraction,duration,education,ended_on,familiarity,gender,headphone_check_performance,item,list,music_frequency,offensiveness,pleasantness,position_correct,preference,response,response_action,snippet_file,song_name,song_rating,sound,stimulus_1,stimulus_2,stimulus_3,text,time_commit,time_end,time_render,time_run,time_show,time_switch,url,word,word_ID
Prolific ID,html.Form,0,2022-02-01T14:25:53.114Z,"{""labjs_version"":""20.2.2"",""labjs_build"":{""flavor"":""production"",""commit"":""a25486e0c714a0ae2ce03ff94b7bb6896854dcfa""},""location"":""https://run.pavlovia.org/mvasilev/prolific2_music_f/"",""userAgent"":""Mozilla/5.0 (Windows NT 10.0; Win64; x64) AppleWebKit/537.36 (KHTML, like Gecko) Chrome/97.0.4692.99 Safari/537.36"",""platform"":""Win32"",""language"":""en-GB"",""locale"":""en-US"",""timeZone"":""Europe/London"",""timezoneOffset"":0,""screen_width"":2560,""screen_height"":1080,""scroll_width"":2560,""scroll_height"":921,""window_innerWidth"":2560,""window_innerHeight"":969,""devicePixelRatio"":1}",,,,,,,,,,,,,,,5b4b1ef3b8b20a00015a33a2,,,,,,,,,,,,,,,2481.7419999985095,,form submission,,,,,,,,,,,,,,,,,,,,,7582.19999999553,7581.89999999851,5083.414,5089.29999999702,5100.158,7583.53,{},,
Introduction,html.Screen,1_0,2022-02-01T14:25:55.951Z,,,,,,,,,,,,,,,,,,,,,,,,,,,,,,,2833.4700000000003,,response,,,,,,,,,,,continue,click button,,,,,,,,,10418.59999999404,10417,7566.889,7582.29999999702,7583.53,10433.618,,,
Volume calibration,html.Screen,1_1,2022-02-01T14:26:07.183Z,,,,,,,,,,,,,,,,,,,,,,,,,,,,,,,11210.28199999851,,response,,,,,,,,,,,continue,click button,,,,,,,,,21645.89999999851,21643.89999999851,10416.958,10418.59999999404,10433.618,21650.352,,,
Task instructions,html.Screen,1_2,2022-02-01T14:26:14.601Z,,,,,,,,,,,,,,,,,,,,,,,,,,,,,,,7412.947999997021,,response,,,,,,,,,,,continue,click button,,,,,,,,,29064.09999999404,29063.29999999702,21633.746,21646,21650.352,29067.086,,,
Sounds,html.Screen,1_3_0_0,2022-02-01T14:26:18.843Z,,,,,,,,,,,,,,,,,,,,,,,,,,,,,,,4250.138999999999,,timeout,,,,,,,,,1,,,,,,,,S,I,O,,33306,33300.583,29050.451,29064.29999999702,29067.086,33317.225,,,
Judgement,html.Screen,1_3_0_1,2022-02-01T14:26:19.578Z,,,,,,,,,,,,,,,,,,,,,,,,,,,,true,1,,723.7750000000015,,response,,,,,,,,,1,,1,click #choice-1,,,,,S,I,O,,34041.89999999851,34041,33300.583,33306.29999999702,33317.225,34050.559,,,
Trial,flow.Sequence,1_3_0,2022-02-01T14:26:19.579Z,,,,,,,,,,,,,,,,,,,,,,,,,,,,,,,4973.914000000001,,completion,,,,,,,,,1,,,,,,,,S,I,O,,34042,34041,29050.451,29064.19999999553,29067.086,34050.559,,,
Sounds,html.Screen,1_3_1_0,2022-02-01T14:26:23.821Z,,,,,,,,,,,,,,,,,,,,,,,,,,,,,,,4250.059999999998,,timeout,,,,,,,,,3,,,,,,,,I,O,S,,38284.29999999702,38283.955,34033.917,34042.19999999553,34050.559,38300.619,,,
Judgement,html.Screen,1_3_1_1,2022-02-01T14:26:24.368Z,,,,,,,,,,,,,,,,,,,,,,,,,,,,true,3,,529.9809999940408,,response,,,,,,,,,3,,3,click #choice-3,,,,,I,O,S,,38831.09999999404,38830.59999999404,38283.955,38284.39999999851,38300.619,38833.883,,,
Trial,flow.Sequence,1_3_1,2022-02-01T14:26:24.368Z,,,,,,,,,,,,,,,,,,,,,,,,,,,,,,,4780.040999994038,,completion,,,,,,,,,3,,,,,,,,I,O,S,,38831.39999999851,38830.59999999404,34033.917,34042.19999999553,34050.559,38833.883,,,
Sounds,html.Screen,1_3_2_0,2022-02-01T14:26:28.605Z,,,,,,,,,,,,,,,,,,,,,,,,,,,,,,,4250.065999999999,,timeout,,,,,,,,,1,,,,,,,,S,O,I,,43068.59999999404,43067.364,38817.266,38831.39999999851,38833.883,43083.949,,,
Judgement,html.Screen,1_3_2_1,2022-02-01T14:26:29.175Z,,,,,,,,,,,,,,,,,,,,,,,,,,,,true,1,,554.0509999999995,,response,,,,,,,,,1,,1,click #choice-1,,,,,S,O,I,,43638.5,43638,43067.364,43068.89999999851,43083.949,43650.683,,,
Trial,flow.Sequence,1_3_2,2022-02-01T14:26:29.175Z,,,,,,,,,,,,,,,,,,,,,,,,,,,,,,,4804.116999999998,,completion,,,,,,,,,1,,,,,,,,S,O,I,,43638.59999999404,43638,38817.266,38831.39999999851,38833.883,43650.683,,,
Sounds,html.Screen,1_3_3_0,2022-02-01T14:26:33.421Z,,,,,,,,,,,,,,,,,,,,,,,,,,,,,,,4250.050000000003,,timeout,,,,,,,,,2,,,,,,,,I,S,O,,47884.39999999851,47884.029,43634.046,43638.69999999553,43650.683,47900.733,,,
Judgement,html.Screen,1_3_3_1,2022-02-01T14:26:33.847Z,,,,,,,,,,,,,,,,,,,,,,,,,,,,true,2,,409.2669999999998,,response,,,,,,,,,2,,2,click #choice-2,,,,,I,S,O,,48310.5,48310,47884.029,47884.5,47900.733,48317.406,,,
Trial,flow.Sequence,1_3_3,2022-02-01T14:26:33.847Z,,,,,,,,,,,,,,,,,,,,,,,,,,,,,,,4659.317000000003,,completion,,,,,,,,,2,,,,,,,,I,S,O,,48310.59999999404,48310,43634.046,43638.69999999553,43650.683,48317.406,,,
Sounds,html.Screen,1_3_4_0,2022-02-01T14:26:38.089Z,,,,,,,,,,,,,,,,,,,,,,,,,,,,,,,4250.058999999994,,timeout,,,,,,,,,3,,,,,,,,O,I,S,,52552.19999999553,52550.796,48300.732,48310.69999999553,48317.406,52567.465,,,
Judgement,html.Screen,1_3_4_1,2022-02-01T14:26:38.486Z,,,,,,,,,,,,,,,,,,,,,,,,,,,,true,3,,381.134999994043,,response,,,,,,,,,3,,3,click #choice-3,,,,,O,I,S,,52949.5,52948.59999999404,52550.796,52552.5,52567.465,52950.752,,,
Trial,flow.Sequence,1_3_4,2022-02-01T14:26:38.486Z,,,,,,,,,,,,,,,,,,,,,,,,,,,,,,,4631.193999994037,,completion,,,,,,,,,3,,,,,,,,O,I,S,,52949.5,52948.59999999404,48300.732,48310.69999999553,48317.406,52950.752,,,
Sounds,html.Screen,1_3_5_0,2022-02-01T14:26:42.722Z,,,,,,,,,,,,,,,,,,,,,,,,,,,,,,,4250.082999999999,,timeout,,,,,,,,,2,,,,,,,,O,S,I,,57185,57184.183,52934.109,52949.59999999404,52950.752,57200.835,,,
Judgement,html.Screen,1_3_5_1,2022-02-01T14:26:43.076Z,,,,,,,,,,,,,,,,,,,,,,,,,,,,true,2,,338.1650000000009,,response,,,,,,,,,2,,2,click #choice-2,,,,,O,S,I,,57539.39999999851,57539,57184.183,57185.09999999404,57200.835,57550.858,,,
Trial,flow.Sequence,1_3_5,2022-02-01T14:26:43.076Z,,,,,,,,,,,,,,,,,,,,,,,,,,,,,,,4588.248,,completion,,,,,,,,,2,,,,,,,,O,S,I,,57539.5,57539,52934.109,52949.59999999404,52950.752,57550.858,,,
Task,flow.Loop,1_3,2022-02-01T14:26:43.079Z,,,,,,,,,,,,,,,,,,,,,,,,,,,,,,,28471.914,,completion,,,1,,,,,,,,,,,,,,,,,,57542.19999999553,57539,29050.451,29064.19999999553,29067.086,57550.858,,,
Trap,html.Screen,1_4,2022-02-01T14:26:43.080Z,,,,,,,,,,,,,,,,,,,,,,,,,,,,,,,NaN,,skipped,,,,,,,,,,,,,,,,,,,,,57543,57539,,57542.89999999851,,57550.858,,,
Thanks,html.Screen,1_5,2022-02-01T14:26:45.585Z,,,,,,,,,,,,,,,,,,,,,,,,,,,,,,,2497.0419999985097,,response,,,,,,,,,,,continue,click button,,,,,,,,,60048.79999999702,60047.89999999851,57534.164,57543,57550.858,62100.83,,,
Headphone screening,flow.Sequence,1,2022-02-01T14:26:45.586Z,,,,,,,,,,,,,,,,,,,,,,,,,,,,,,,52464.36999999851,,completion,,,,,,,,,,,,,,,,,,,,,60048.89999999851,60047.89999999851,7566.889,7582.29999999702,7583.53,62100.83,,,
Instructions,html.Page,2_0,2022-02-01T14:26:58.818Z,,,,,,,,,,,,,,,,,,,,,,,,,,,,,,,11180.769999994038,,form submission,,,,,,,,,,,,,,,,,,,,,73281.69999999553,73281.59999999404,62084.152,62089,62100.83,73284.338,,,
Holding screen,html.Screen,2_1_0_0,2022-02-01T14:27:08.811Z,,,,,,,,,,,,,,,,,,,,,,,,,,,,,,,10000.095000000001,,timeout,,,,,,,,,,,,,,,,,,,,,83268.69999999553,83267.845,73267.694,73281.89999999851,73284.338,83284.433,,,
screen,html.Screen,2_1_0_1_0,2022-02-01T14:27:09.723Z,,,,,,,,,,,,,,,,,53,,,,,,,,,,,,,,891.7669999955251,,response,,,,99,,,,,,,Space,keypress(Space),,,,,,,,When -- ----- -- ------ - ------- --- ----------<br>------------- ------ ------ ---- ---- ------- ----- -- ----<br>-------- ------- -- ---------- --- - --- ----- ----- ----<br>---- --- --- ----- --- ---- ---- ------- ----- ---- -------<br>--- --- -- ----- -- --- ---- -- --- ---- -- ------ ------<br>--- ----- -- ----,84181.5,84176.19999999553,83267.845,83269.29999999702,83284.433,84184.449,,0,When
screen,html.Screen,2_1_0_1_1,2022-02-01T14:27:10.095Z,,,,,,,,,,,,,,,,,53,,,,,,,,,,,,,,367.7509999955364,,response,,,,99,,,,,,,Space,keypress(Space),,,,,,,,---- it ----- -- ------ - ------- --- ----------<br>------------- ------ ------ ---- ---- ------- ----- -- ----<br>-------- ------- -- ---------- --- - --- ----- ----- ----<br>---- --- --- ----- --- ---- ---- ------- ----- ---- -------<br>--- --- -- ----- -- --- ---- -- --- ---- -- ------ ------<br>--- ----- -- ----,84553.59999999404,84552.19999999553,84167.78,84181.59999999404,84184.449,84567.89,,1,it
screen,html.Screen,2_1_0_1_2,2022-02-01T14:27:10.503Z,,,,,,,,,,,,,,,,,53,,,,,,,,,,,,,,391.80999999553023,,response,,,,99,,,,,,,Space,keypress(Space),,,,,,,,---- -- comes -- ------ - ------- --- ----------<br>------------- ------ ------ ---- ---- ------- ----- -- ----<br>-------- ------- -- ---------- --- - --- ----- ----- ----<br>---- --- --- ----- --- ---- ---- ------- ----- ---- -------<br>--- --- -- ----- -- --- ---- -- --- ---- -- ------ ------<br>--- ----- -- ----,84960.79999999702,84959.69999999553,84551.151,84553.89999999851,84567.89,84967.904,,2,comes
screen,html.Screen,2_1_0_1_3,2022-02-01T14:27:10.844Z,,,,,,,,,,,,,,,,,53,,,,,,,,,,,,,,333.9959999985149,,response,,,,99,,,,,,,Space,keypress(Space),,,,,,,,---- -- ----- to ------ - ------- --- ----------<br>------------- ------ ------ ---- ---- ------- ----- -- ----<br>-------- ------- -- ---------- --- - --- ----- ----- ----<br>---- --- --- ----- --- ---- ---- ------- ----- ---- -------<br>--- --- -- ----- -- --- ---- -- --- ---- -- ------ ------<br>--- ----- -- ----,85302.29999999702,85301.89999999851,84951.178,84961.09999999404,84967.904,85317.823,,3,to
screen,html.Screen,2_1_0_1_4,2022-02-01T14:27:11.222Z,,,,,,,,,,,,,,,,,53,,,,,,,,,,,,,,361.67699999999604,,response,,,,99,,,,,,,Space,keypress(Space),,,,,,,,---- -- ----- -- having - ------- --- ----------<br>------------- ------ ------ ---- ---- ------- ----- -- ----<br>-------- ------- -- ---------- --- - --- ----- ----- ----<br>---- --- --- ----- --- ---- ---- ------- ----- ---- -------<br>--- --- -- ----- -- --- ---- -- --- ---- -- ------ ------<br>--- ----- -- ----,85680.59999999404,85679.5,85301.183,85302.39999999851,85317.823,85684.577,,4,having
screen,html.Screen,2_1_0_1_5,2022-02-01T14:27:11.631Z,,,,,,,,,,,,,,,,,53,,,,,,,,,,,,,,403.1229999955249,,response,,,,99,,,,,,,Space,keypress(Space),,,,,,,,---- -- ----- -- ------ a ------- --- ----------<br>------------- ------ ------ ---- ---- ------- ----- -- ----<br>-------- ------- -- ---------- --- - --- ----- ----- ----<br>---- --- --- ----- --- ---- ---- ------- ----- ---- -------<br>--- --- -- ----- -- --- ---- -- --- ---- -- ------ ------<br>--- ----- -- ----,86088.79999999702,86087.69999999553,85667.837,85680.89999999851,85684.577,86101.255,,5,a
screen,html.Screen,2_1_0_1_6,2022-02-01T14:27:12.014Z,,,,,,,,,,,,,,,,,53,,,,,,,,,,,,,,370.0449999970151,,response,,,,99,,,,,,,Space,keypress(Space),,,,,,,,---- -- ----- -- ------ - lasting --- ----------<br>------------- ------ ------ ---- ---- ------- ----- -- ----<br>-------- ------- -- ---------- --- - --- ----- ----- ----<br>---- --- --- ----- --- ---- ---- ------- ----- ---- -------<br>--- --- -- ----- -- --- ---- -- --- ---- -- ------ ------<br>--- ----- -- ----,86472.39999999851,86471.29999999702,86084.5,86089.09999999404,86101.255,86484.603,,6,lasting
screen,html.Screen,2_1_0_1_7,2022-02-01T14:27:12.462Z,,,,,,,,,,,,,,,,,53,,,,,,,,,,,,,,434.49699999403674,,response,,,,99,,,,,,,Space,keypress(Space),,,,,,,,---- -- ----- -- ------ - ------- and ----------<br>------------- ------ ------ ---- ---- ------- ----- -- ----<br>-------- ------- -- ---------- --- - --- ----- ----- ----<br>---- --- --- ----- --- ---- ---- ------- ----- ---- -------<br>--- --- -- ----- -- --- ---- -- --- ---- -- ------ ------<br>--- ----- -- ----,86920.39999999851,86919.09999999404,86467.801,86472.69999999553,86484.603,86934.545,,7,and
screen,html.Screen,2_1_0_1_8,2022-02-01T14:27:12.822Z,,,,,,,,,,,,,,,,,53,,,,,,,,,,,,,,344.95500000000175,,response,,,,99,,,,,,,Space,keypress(Space),,,,,,,,---- -- ----- -- ------ - ------- --- fulfilling<br>------------- ------ ------ ---- ---- ------- ----- -- ----<br>-------- ------- -- ---------- --- - --- ----- ----- ----<br>---- --- --- ----- --- ---- ---- ------- ----- ---- -------<br>--- --- -- ----- -- --- ---- -- --- ---- -- ------ ------<br>--- ----- -- ----,87280.5,87279.5,86917.874,86920.69999999553,86934.545,87284.585,,8,fulfilling
screen,html.Screen,2_1_0_1_9,2022-02-01T14:27:13.230Z,,,,,,,,,,,,,,,,,53,,,,,,,,,,,,,,403.11499999552325,,response,,,,99,,,,,,,Space,keypress(Space),,,,,,,,"---- -- ----- -- ------ - ------- --- ----------<br>relationship, ------ ------ ---- ---- ------- ----- -- ----<br>-------- ------- -- ---------- --- - --- ----- ----- ----<br>---- --- --- ----- --- ---- ---- ------- ----- ---- -------<br>--- --- -- ----- -- --- ---- -- --- ---- -- ------ ------<br>--- ----- -- ----",87688.69999999553,87687.69999999553,87267.863,87280.79999999702,87284.585,87701.283,,9,"relationship,"
screen,html.Screen,2_1_0_1_10,2022-02-01T14:27:13.678Z,,,,,,,,,,,,,,,,,53,,,,,,,,,,,,,,434.3169999940437,,response,,,,99,,,,,,,Space,keypress(Space),,,,,,,,---- -- ----- -- ------ - ------- --- ----------<br>------------- common ------ ---- ---- ------- ----- -- ----<br>-------- ------- -- ---------- --- - --- ----- ----- ----<br>---- --- --- ----- --- ---- ---- ------- ----- ---- -------<br>--- --- -- ----- -- --- ---- -- --- ---- -- ------ ------<br>--- ----- -- ----,88136.5,88135.59999999404,87684.53,87688.89999999851,87701.283,88151.294,,10,common
screen,html.Screen,2_1_0_1_11,2022-02-01T14:27:14.029Z,,,,,,,,,,,,,,,,,53,,,,,,,,,,,,,,335.6059999985155,,response,,,,99,,,,,,,Space,keypress(Space),,,,,,,,---- -- ----- -- ------ - ------- --- ----------<br>------------- ------ wisdom ---- ---- ------- ----- -- ----<br>-------- ------- -- ---------- --- - --- ----- ----- ----<br>---- --- --- ----- --- ---- ---- ------- ----- ---- -------<br>--- --- -- ----- -- --- ---- -- --- ---- -- ------ ------<br>--- ----- -- ----,88487.19999999553,88486.89999999851,88134.559,88136.79999999702,88151.294,88501.166,,11,wisdom
screen,html.Screen,2_1_0_1_12,2022-02-01T14:27:14.438Z,,,,,,,,,,,,,,,,,53,,,,,,,,,,,,,,393.9339999940421,,response,,,,99,,,,,,,Space,keypress(Space),,,,,,,,---- -- ----- -- ------ - ------- --- ----------<br>------------- ------ ------ says ---- ------- ----- -- ----<br>-------- ------- -- ---------- --- - --- ----- ----- ----<br>---- --- --- ----- --- ---- ---- ------- ----- ---- -------<br>--- --- -- ----- -- --- ---- -- --- ---- -- ------ ------<br>--- ----- -- ----,88896.09999999404,88895.09999999404,88484.573,88487.29999999702,88501.166,88901.319,,12,says
screen,html.Screen,2_1_0_1_13,2022-02-01T14:27:14.812Z,,,,,,,,,,,,,,,,,53,,,,,,,,,,,,,,368.9809999970166,,response,,,,99,,,,,,,Space,keypress(Space),,,,,,,,---- -- ----- -- ------ - ------- --- ----------<br>------------- ------ ------ ---- that ------- ----- -- ----<br>-------- ------- -- ---------- --- - --- ----- ----- ----<br>---- --- --- ----- --- ---- ---- ------- ----- ---- -------<br>--- --- -- ----- -- --- ---- -- --- ---- -- ------ ------<br>--- ----- -- ----,89270.5,89270.29999999702,88884.545,88896.39999999851,88901.319,89284.599,,13,that
screen,html.Screen,2_1_0_1_14,2022-02-01T14:27:15.159Z,,,,,,,,,,,,,,,,,53,,,,,,,,,,,,,,331.1009999955277,,response,,,,99,,,,,,,Space,keypress(Space),,,,,,,,---- -- ----- -- ------ - ------- --- ----------<br>------------- ------ ------ ---- ---- feeling ----- -- ----<br>-------- ------- -- ---------- --- - --- ----- ----- ----<br>---- --- --- ----- --- ---- ---- ------- ----- ---- -------<br>--- --- -- ----- -- --- ---- -- --- ---- -- ------ ------<br>--- ----- -- ----,89616.79999999702,89615.69999999553,89267.935,89270.59999999404,89284.599,89634.634,,14,feeling
screen,html.Screen,2_1_0_1_15,2022-02-01T14:27:15.478Z,,,,,,,,,,,,,,,,,53,,,,,,,,,,,,,,300.7659999985044,,response,,,,99,,,,,,,Space,keypress(Space),,,,,,,,---- -- ----- -- ------ - ------- --- ----------<br>------------- ------ ------ ---- ---- ------- close -- ----<br>-------- ------- -- ---------- --- - --- ----- ----- ----<br>---- --- --- ----- --- ---- ---- ------- ----- ---- -------<br>--- --- -- ----- -- --- ---- -- --- ---- -- ------ ------<br>--- ----- -- ----,89936.59999999404,89935.39999999851,89601.223,89617,89634.634,89951.292,,15,close
screen,html.Screen,2_1_0_1_16,2022-02-01T14:27:15.805Z,,,,,,,,,,,,,,,,,53,,,,,,,,,,,,,,311.2079999999987,,response,,,,99,,,,,,,Space,keypress(Space),,,,,,,,---- -- ----- -- ------ - ------- --- ----------<br>------------- ------ ------ ---- ---- ------- ----- to ----<br>-------- ------- -- ---------- --- - --- ----- ----- ----<br>---- --- --- ----- --- ---- ---- ------- ----- ---- -------<br>--- --- -- ----- -- --- ---- -- --- ---- -- ------ ------<br>--- ----- -- ----,90262.89999999851,90262.5,89934.592,89936.89999999851,89951.292,90267.927,,16,to
screen,html.Screen,2_1_0_1_17,2022-02-01T14:27:16.198Z,,,,,,,,,,,,,,,,,53,,,,,,,,,,,,,,387.07300000000396,,response,,,,99,,,,,,,Space,keypress(Space),,,,,,,,---- -- ----- -- ------ - ------- --- ----------<br>------------- ------ ------ ---- ---- ------- ----- -- your<br>-------- ------- -- ---------- --- - --- ----- ----- ----<br>---- --- --- ----- --- ---- ---- ------- ----- ---- -------<br>--- --- -- ----- -- --- ---- -- --- ---- -- ------ ------<br>--- ----- -- ----,90656.19999999553,90655,90251.264,90262.89999999851,90267.927,90667.967,,17,your
screen,html.Screen,2_1_0_1_18,2022-02-01T14:27:16.510Z,,,,,,,,,,,,,,,,,53,,,,,,,,,,,,,,299.0329999999958,,response,,,,99,,,,,,,Space,keypress(Space),,,,,,,,---- -- ----- -- ------ - ------- --- ----------<br>------------- ------ ------ ---- ---- ------- ----- -- ----<br>romantic ------- -- ---------- --- - --- ----- ----- ----<br>---- --- --- ----- --- ---- ---- ------- ----- ---- -------<br>--- --- -- ----- -- --- ---- -- --- ---- -- ------ ------<br>--- ----- -- ----,90968.19999999553,90967,90651.22,90656.39999999851,90667.967,90984.641,,18,romantic
screen,html.Screen,2_1_0_1_19,2022-02-01T14:27:16.869Z,,,,,,,,,,,,,,,,,53,,,,,,,,,,,,,,341.7589999985066,,response,,,,99,,,,,,,Space,keypress(Space),,,,,,,,---- -- ----- -- ------ - ------- --- ----------<br>------------- ------ ------ ---- ---- ------- ----- -- ----<br>-------- partner -- ---------- --- - --- ----- ----- ----<br>---- --- --- ----- --- ---- ---- ------- ----- ---- -------<br>--- --- -- ----- -- --- ---- -- --- ---- -- ------ ------<br>--- ----- -- ----,91326.69999999553,91326.39999999851,90967.937,90968.5,90984.641,91334.613,,19,partner
screen,html.Screen,2_1_0_1_20,2022-02-01T14:27:17.175Z,,,,,,,,,,,,,,,,,53,,,,,,,,,,,,,,297.0869999955321,,response,,,,99,,,,,,,Space,keypress(Space),,,,,,,,---- -- ----- -- ------ - ------- --- ----------<br>------------- ------ ------ ---- ---- ------- ----- -- ----<br>-------- ------- is ---------- --- - --- ----- ----- ----<br>---- --- --- ----- --- ---- ---- ------- ----- ---- -------<br>--- --- -- ----- -- --- ---- -- --- ---- -- ------ ------<br>--- ----- -- ----,91632.79999999702,91631.69999999553,91317.928,91326.69999999553,91334.613,91666.434,,20,is
screen,html.Screen,2_1_0_1_21,2022-02-01T14:27:17.510Z,,,,,,,,,,,,,,,,,53,,,,,,,,,,,,,,300.46599999851605,,response,,,,99,,,,,,,Space,keypress(Space),,,,,,,,---- -- ----- -- ------ - ------- --- ----------<br>------------- ------ ------ ---- ---- ------- ----- -- ----<br>-------- ------- -- paramount. --- - --- ----- ----- ----<br>---- --- --- ----- --- ---- ---- ------- ----- ---- -------<br>--- --- -- ----- -- --- ---- -- --- ---- -- ------ ------<br>--- ----- -- ----,91968,91966.89999999851,91617.917,91633,91666.434,91984.562,,21,paramount.
screen,html.Screen,2_1_0_1_22,2022-02-01T14:27:17.828Z,,,,,,,,,,,,,,,,,53,,,,,,,,,,,,,,301.5379999940342,,response,,,,99,,,,,,,Space,keypress(Space),,,,,,,,---- -- ----- -- ------ - ------- --- ----------<br>------------- ------ ------ ---- ---- ------- ----- -- ----<br>-------- ------- -- ---------- But - --- ----- ----- ----<br>---- --- --- ----- --- ---- ---- ------- ----- ---- -------<br>--- --- -- ----- -- --- ---- -- --- ---- -- ------ ------<br>--- ----- -- ----,92286.39999999851,92286.09999999404,91967.947,91968.39999999851,91984.562,92301.235,,22,But
screen,html.Screen,2_1_0_1_23,2022-02-01T14:27:18.150Z,,,,,,,,,,,,,,,,,53,,,,,,,,,,,,,,305.86499999403895,,response,,,,99,,,,,,,Space,keypress(Space),,,,,,,,---- -- ----- -- ------ - ------- --- ----------<br>------------- ------ ------ ---- ---- ------- ----- -- ----<br>-------- ------- -- ---------- --- a --- ----- ----- ----<br>---- --- --- ----- --- ---- ---- ------- ----- ---- -------<br>--- --- -- ----- -- --- ---- -- --- ---- -- ------ ------<br>--- ----- -- ----,92608.29999999702,92607.09999999404,92284.602,92287.09999999404,92301.235,92618.02,,23,a
screen,html.Screen,2_1_0_1_24,2022-02-01T14:27:18.486Z,,,,,,,,,,,,,,,,,53,,,,,,,,,,,,,,325.07999999403546,,response,,,,99,,,,,,,Space,keypress(Space),,,,,,,,---- -- ----- -- ------ - ------- --- ----------<br>------------- ------ ------ ---- ---- ------- ----- -- ----<br>-------- ------- -- ---------- --- - new ----- ----- ----<br>---- --- --- ----- --- ---- ---- ------- ----- ---- -------<br>--- --- -- ----- -- --- ---- -- --- ---- -- ------ ------<br>--- ----- -- ----,92944.29999999702,92943.09999999404,92601.248,92608.5,92618.02,92951.294,,24,new
screen,html.Screen,2_1_0_1_25,2022-02-01T14:27:18.774Z,,,,,,,,,,,,,,,,,53,,,,,,,,,,,,,,279.90599999553524,,response,,,,99,,,,,,,Space,keypress(Space),,,,,,,,---- -- ----- -- ------ - ------- --- ----------<br>------------- ------ ------ ---- ---- ------- ----- -- ----<br>-------- ------- -- ---------- --- - --- study ----- ----<br>---- --- --- ----- --- ---- ---- ------- ----- ---- -------<br>--- --- -- ----- -- --- ---- -- --- ---- -- ------ ------<br>--- ----- -- ----,93232.29999999702,93231.19999999553,92934.631,92944.59999999404,92951.294,93234.629,,25,study
screen,html.Screen,2_1_0_1_26,2022-02-01T14:27:19.111Z,,,,,,,,,,,,,,,,,53,,,,,,,,,,,,,,333.4709999940387,,response,,,,99,,,,,,,Space,keypress(Space),,,,,,,,---- -- ----- -- ------ - ------- --- ----------<br>------------- ------ ------ ---- ---- ------- ----- -- ----<br>-------- ------- -- ---------- --- - --- ----- finds ----<br>---- --- --- ----- --- ---- ---- ------- ----- ---- -------<br>--- --- -- ----- -- --- ---- -- --- ---- -- ------ ------<br>--- ----- -- ----,93569.39999999851,93568.09999999404,93217.963,93232.59999999404,93234.629,93584.632,,26,finds
screen,html.Screen,2_1_0_1_27,2022-02-01T14:27:19.429Z,,,,,,,,,,,,,,,,,53,,,,,,,,,,,,,,301.96799999404175,,response,,,,99,,,,,,,Space,keypress(Space),,,,,,,,---- -- ----- -- ------ - ------- --- ----------<br>------------- ------ ------ ---- ---- ------- ----- -- ----<br>-------- ------- -- ---------- --- - --- ----- ----- that<br>---- --- --- ----- --- ---- ---- ------- ----- ---- -------<br>--- --- -- ----- -- --- ---- -- --- ---- -- ------ ------<br>--- ----- -- ----,93887.19999999553,93886.59999999404,93567.966,93569.79999999702,93584.632,93901.299,,27,that
screen,html.Screen,2_1_0_1_28,2022-02-01T14:27:19.719Z,,,,,,,,,,,,,,,,,53,,,,,,,,,,,,,,274.6009999985108,,response,,,,99,,,,,,,Space,keypress(Space),,,,,,,,---- -- ----- -- ------ - ------- --- ----------<br>------------- ------ ------ ---- ---- ------- ----- -- ----<br>-------- ------- -- ---------- --- - --- ----- ----- ----<br>it's --- --- ----- --- ---- ---- ------- ----- ---- -------<br>--- --- -- ----- -- --- ---- -- --- ---- -- ------ ------<br>--- ----- -- ----,94177.29999999702,94175.89999999851,93884.601,93887.19999999553,93901.299,94184.639,,28,it's
screen,html.Screen,2_1_0_1_29,2022-02-01T14:27:20.039Z,,,,,,,,,,,,,,,,,53,,,,,,,,,,,,,,311.46099999404396,,response,,,,99,,,,,,,Space,keypress(Space),,,,,,,,---- -- ----- -- ------ - ------- --- ----------<br>------------- ------ ------ ---- ---- ------- ----- -- ----<br>-------- ------- -- ---------- --- - --- ----- ----- ----<br>---- not --- ----- --- ---- ---- ------- ----- ---- -------<br>--- --- -- ----- -- --- ---- -- --- ---- -- ------ ------<br>--- ----- -- ----,94497.29999999702,94496.09999999404,94167.979,94177.5,94184.639,94501.243,,29,not
screen,html.Screen,2_1_0_1_30,2022-02-01T14:27:20.358Z,,,,,,,,,,,,,,,,,53,,,,,,,,,,,,,,313.95699999552744,,response,,,,99,,,,,,,Space,keypress(Space),,,,,,,,---- -- ----- -- ------ - ------- --- ----------<br>------------- ------ ------ ---- ---- ------- ----- -- ----<br>-------- ------- -- ---------- --- - --- ----- ----- ----<br>---- --- how ----- --- ---- ---- ------- ----- ---- -------<br>--- --- -- ----- -- --- ---- -- --- ---- -- ------ ------<br>--- ----- -- ----,94816.29999999702,94815.19999999553,94484.658,94497.59999999404,94501.243,94841.851,,30,how
screen,html.Screen,2_1_0_1_31,2022-02-01T14:27:20.646Z,,,,,,,,,,,,,,,,,53,,,,,,,,,,,,,,261.1490000000049,,response,,,,99,,,,,,,Space,keypress(Space),,,,,,,,---- -- ----- -- ------ - ------- --- ----------<br>------------- ------ ------ ---- ---- ------- ----- -- ----<br>-------- ------- -- ---------- --- - --- ----- ----- ----<br>---- --- --- close --- ---- ---- ------- ----- ---- -------<br>--- --- -- ----- -- --- ---- -- --- ---- -- ------ ------<br>--- ----- -- ----,95104.29999999702,95103,94801.244,94816.5,94841.851,95118.038,,31,close
screen,html.Screen,2_1_0_1_32,2022-02-01T14:27:20.981Z,,,,,,,,,,,,,,,,,53,,,,,,,,,,,,,,320.3619999985094,,response,,,,99,,,,,,,Space,keypress(Space),,,,,,,,---- -- ----- -- ------ - ------- --- ----------<br>------------- ------ ------ ---- ---- ------- ----- -- ----<br>-------- ------- -- ---------- --- - --- ----- ----- ----<br>---- --- --- ----- you ---- ---- ------- ----- ---- -------<br>--- --- -- ----- -- --- ---- -- --- ---- -- ------ ------<br>--- ----- -- ----,95438.69999999553,95438.39999999851,95101.333,95104.5,95118.038,95451.278,,32,you
screen,html.Screen,2_1_0_1_33,2022-02-01T14:27:21.278Z,,,,,,,,,,,,,,,,,53,,,,,,,,,,,,,,284.2219999999943,,response,,,,99,,,,,,,Space,keypress(Space),,,,,,,,---- -- ----- -- ------ - ------- --- ----------<br>------------- ------ ------ ---- ---- ------- ----- -- ----<br>-------- ------- -- ---------- --- - --- ----- ----- ----<br>---- --- --- ----- --- feel ---- ------- ----- ---- -------<br>--- --- -- ----- -- --- ---- -- --- ---- -- ------ ------<br>--- ----- -- ----,95736.69999999553,95735.5,95434.672,95438.79999999702,95451.278,95751.376,,33,feel
screen,html.Screen,2_1_0_1_34,2022-02-01T14:27:21.709Z,,,,,,,,,,,,,,,,,53,,,,,,,,,,,,,,415.02399999850604,,response,,,,99,,,,,,,Space,keypress(Space),,,,,,,,---- -- ----- -- ------ - ------- --- ----------<br>------------- ------ ------ ---- ---- ------- ----- -- ----<br>-------- ------- -- ---------- --- - --- ----- ----- ----<br>---- --- --- ----- --- ---- that ------- ----- ---- -------<br>--- --- -- ----- -- --- ---- -- --- ---- -- ------ ------<br>--- ----- -- ----,96166.79999999702,96166.39999999851,95734.631,95736.89999999851,95751.376,96197.447,,34,that
screen,html.Screen,2_1_0_1_35,2022-02-01T14:27:22.046Z,,,,,,,,,,,,,,,,,53,,,,,,,,,,,,,,305.6529999940394,,response,,,,99,,,,,,,Space,keypress(Space),,,,,,,,---- -- ----- -- ------ - ------- --- ----------<br>------------- ------ ------ ---- ---- ------- ----- -- ----<br>-------- ------- -- ---------- --- - --- ----- ----- ----<br>---- --- --- ----- --- ---- ---- matters ----- ---- -------<br>--- --- -- ----- -- --- ---- -- --- ---- -- ------ ------<br>--- ----- -- ----,96504.19999999553,96503.09999999404,96151.322,96166.89999999851,96197.447,96518.03,,35,matters
screen,html.Screen,2_1_0_1_36,2022-02-01T14:27:22.422Z,,,,,,,,,,,,,,,,,53,,,,,,,,,,,,,,361.0699999940407,,response,,,,99,,,,,,,Space,keypress(Space),,,,,,,,"---- -- ----- -- ------ - ------- --- ----------<br>------------- ------ ------ ---- ---- ------- ----- -- ----<br>-------- ------- -- ---------- --- - --- ----- ----- ----<br>---- --- --- ----- --- ---- ---- ------- most, ---- -------<br>--- --- -- ----- -- --- ---- -- --- ---- -- ------ ------<br>--- ----- -- ----",96880.59999999404,96879.09999999404,96501.294,96504.5,96518.03,96884.609,,36,"most,"
screen,html.Screen,2_1_0_1_37,2022-02-01T14:27:22.742Z,,,,,,,,,,,,,,,,,53,,,,,,,,,,,,,,314.5909999955329,,response,,,,99,,,,,,,Space,keypress(Space),,,,,,,,---- -- ----- -- ------ - ------- --- ----------<br>------------- ------ ------ ---- ---- ------- ----- -- ----<br>-------- ------- -- ---------- --- - --- ----- ----- ----<br>---- --- --- ----- --- ---- ---- ------- ----- it's -------<br>--- --- -- ----- -- --- ---- -- --- ---- -- ------ ------<br>--- ----- -- ----,97200.39999999851,97199.19999999553,96867.947,96880.79999999702,96884.609,97234.72,,37,it's
screen,html.Screen,2_1_0_1_38,2022-02-01T14:27:23.124Z,,,,,,,,,,,,,,,,,53,,,,,,,,,,,,,,347.37999999403837,,response,,,,99,,,,,,,Space,keypress(Space),,,,,,,,---- -- ----- -- ------ - ------- --- ----------<br>------------- ------ ------ ---- ---- ------- ----- -- ----<br>-------- ------- -- ---------- --- - --- ----- ----- ----<br>---- --- --- ----- --- ---- ---- ------- ----- ---- whether<br>--- --- -- ----- -- --- ---- -- --- ---- -- ------ ------<br>--- ----- -- ----,97582.5,97582.09999999404,97218.074,97200.59999999404,97234.72,97584.619,,38,whether
screen,html.Screen,2_1_0_1_39,2022-02-01T14:27:23.454Z,,,,,,,,,,,,,,,,,53,,,,,,,,,,,,,,326.4809999940335,,response,,,,99,,,,,,,Space,keypress(Space),,,,,,,,---- -- ----- -- ------ - ------- --- ----------<br>------------- ------ ------ ---- ---- ------- ----- -- ----<br>-------- ------- -- ---------- --- - --- ----- ----- ----<br>---- --- --- ----- --- ---- ---- ------- ----- ---- -------<br>you --- -- ----- -- --- ---- -- --- ---- -- ------ ------<br>--- ----- -- ----,97912.09999999404,97911.09999999404,97567.991,97582.5,97584.619,97918.018,,39,you
screen,html.Screen,2_1_0_1_40,2022-02-01T14:27:23.734Z,,,,,,,,,,,,,,,,,53,,,,,,,,,,,,,,273.18199999553326,,response,,,,99,,,,,,,Space,keypress(Space),,,,,,,,---- -- ----- -- ------ - ------- --- ----------<br>------------- ------ ------ ---- ---- ------- ----- -- ----<br>-------- ------- -- ---------- --- - --- ----- ----- ----<br>---- --- --- ----- --- ---- ---- ------- ----- ---- -------<br>--- are -- ----- -- --- ---- -- --- ---- -- ------ ------<br>--- ----- -- ----,98192.29999999702,98191.19999999553,97901.317,97912.29999999702,97918.018,98201.394,,40,are
screen,html.Screen,2_1_0_1_41,2022-02-01T14:27:24.013Z,,,,,,,,,,,,,,,,,53,,,,,,,,,,,,,,268.90599999701953,,response,,,,99,,,,,,,Space,keypress(Space),,,,,,,,---- -- ----- -- ------ - ------- --- ----------<br>------------- ------ ------ ---- ---- ------- ----- -- ----<br>-------- ------- -- ---------- --- - --- ----- ----- ----<br>---- --- --- ----- --- ---- ---- ------- ----- ---- -------<br>--- --- as ----- -- --- ---- -- --- ---- -- ------ ------<br>--- ----- -- ----,98470.69999999553,98470.29999999702,98184.672,98192.5,98201.394,98484.593,,41,as
screen,html.Screen,2_1_0_1_42,2022-02-01T14:27:24.254Z,,,,,,,,,,,,,,,,,53,,,,,,,,,,,,,,226.8069999985164,,response,,,,99,,,,,,,Space,keypress(Space),,,,,,,,---- -- ----- -- ------ - ------- --- ----------<br>------------- ------ ------ ---- ---- ------- ----- -- ----<br>-------- ------- -- ---------- --- - --- ----- ----- ----<br>---- --- --- ----- --- ---- ---- ------- ----- ---- -------<br>--- --- -- close -- --- ---- -- --- ---- -- ------ ------<br>--- ----- -- ----,98712.39999999851,98711.39999999851,98467.973,98470.79999999702,98484.593,98717.984,,42,close
screen,html.Screen,2_1_0_1_43,2022-02-01T14:27:24.510Z,,,,,,,,,,,,,,,,,53,,,,,,,,,,,,,,249.2159999955329,,response,,,,99,,,,,,,Space,keypress(Space),,,,,,,,---- -- ----- -- ------ - ------- --- ----------<br>------------- ------ ------ ---- ---- ------- ----- -- ----<br>-------- ------- -- ---------- --- - --- ----- ----- ----<br>---- --- --- ----- --- ---- ---- ------- ----- ---- -------<br>--- --- -- ----- as --- ---- -- --- ---- -- ------ ------<br>--- ----- -- ----,98968.39999999851,98967.19999999553,98701.357,98712.69999999553,98717.984,98984.749,,43,as
screen,html.Screen,2_1_0_1_44,2022-02-01T14:27:24.862Z,,,,,,,,,,,,,,,,,53,,,,,,,,,,,,,,334.6509999985137,,response,,,,99,,,,,,,Space,keypress(Space),,,,,,,,---- -- ----- -- ------ - ------- --- ----------<br>------------- ------ ------ ---- ---- ------- ----- -- ----<br>-------- ------- -- ---------- --- - --- ----- ----- ----<br>---- --- --- ----- --- ---- ---- ------- ----- ---- -------<br>--- --- -- ----- -- you ---- -- --- ---- -- ------ ------<br>--- ----- -- ----,99320.39999999851,99319.39999999851,98967.988,98968.59999999404,98984.749,99334.73,,44,you
screen,html.Screen,2_1_0_1_45,2022-02-01T14:27:25.190Z,,,,,,,,,,,,,,,,,53,,,,,,,,,,,,,,312.7700000000041,,response,,,,99,,,,,,,Space,keypress(Space),,,,,,,,---- -- ----- -- ------ - ------- --- ----------<br>------------- ------ ------ ---- ---- ------- ----- -- ----<br>-------- ------- -- ---------- --- - --- ----- ----- ----<br>---- --- --- ----- --- ---- ---- ------- ----- ---- -------<br>--- --- -- ----- -- --- want -- --- ---- -- ------ ------<br>--- ----- -- ----,99648.59999999404,99647.5,99318.036,99320.69999999553,99334.73,99651.405,,45,want
screen,html.Screen,2_1_0_1_46,2022-02-01T14:27:25.446Z,,,,,,,,,,,,,,,,,53,,,,,,,,,,,,,,251.6949999940407,,response,,,,99,,,,,,,Space,keypress(Space),,,,,,,,---- -- ----- -- ------ - ------- --- ----------<br>------------- ------ ------ ---- ---- ------- ----- -- ----<br>-------- ------- -- ---------- --- - --- ----- ----- ----<br>---- --- --- ----- --- ---- ---- ------- ----- ---- -------<br>--- --- -- ----- -- --- ---- to --- ---- -- ------ ------<br>--- ----- -- ----,99904.09999999404,99903.09999999404,99634.696,99648.79999999702,99651.405,99918.099,,46,to
screen,html.Screen,2_1_0_1_47,2022-02-01T14:27:25.726Z,,,,,,,,,,,,,,,,,53,,,,,,,,,,,,,,264.900999999998,,response,,,,99,,,,,,,Space,keypress(Space),,,,,,,,"---- -- ----- -- ------ - ------- --- ----------<br>------------- ------ ------ ---- ---- ------- ----- -- ----<br>-------- ------- -- ---------- --- - --- ----- ----- ----<br>---- --- --- ----- --- ---- ---- ------- ----- ---- -------<br>--- --- -- ----- -- --- ---- -- be, ---- -- ------ ------<br>--- ----- -- ----",100184,100183,99901.387,99904.39999999851,99918.099,100201.409,,47,"be,"
screen,html.Screen,2_1_0_1_48,2022-02-01T14:27:26.022Z,,,,,,,,,,,,,,,,,53,,,,,,,,,,,,,,277.6909999940399,,response,,,,99,,,,,,,Space,keypress(Space),,,,,,,,---- -- ----- -- ------ - ------- --- ----------<br>------------- ------ ------ ---- ---- ------- ----- -- ----<br>-------- ------- -- ---------- --- - --- ----- ----- ----<br>---- --- --- ----- --- ---- ---- ------- ----- ---- -------<br>--- --- -- ----- -- --- ---- -- --- even -- ------ ------<br>--- ----- -- ----,100480.29999999702,100479.09999999404,100184.735,100184.29999999702,100201.409,100484.709,,48,even
screen,html.Screen,2_1_0_1_49,2022-02-01T14:27:26.326Z,,,,,,,,,,,,,,,,,53,,,,,,,,,,,,,,298.29099999999744,,response,,,,99,,,,,,,Space,keypress(Space),,,,,,,,---- -- ----- -- ------ - ------- --- ----------<br>------------- ------ ------ ---- ---- ------- ----- -- ----<br>-------- ------- -- ---------- --- - --- ----- ----- ----<br>---- --- --- ----- --- ---- ---- ------- ----- ---- -------<br>--- --- -- ----- -- --- ---- -- --- ---- if ------ ------<br>--- ----- -- ----,100784.09999999404,100783,100468.055,100480.5,100484.709,100801.467,,49,if
screen,html.Screen,2_1_0_1_50,2022-02-01T14:27:26.613Z,,,,,,,,,,,,,,,,,53,,,,,,,,,,,,,,269.0329999999958,,response,,,,99,,,,,,,Space,keypress(Space),,,,,,,,---- -- ----- -- ------ - ------- --- ----------<br>------------- ------ ------ ---- ---- ------- ----- -- ----<br>-------- ------- -- ---------- --- - --- ----- ----- ----<br>---- --- --- ----- --- ---- ---- ------- ----- ---- -------<br>--- --- -- ----- -- --- ---- -- --- ---- -- that's ------<br>--- ----- -- ----,101070.89999999851,101070.5,100784.697,100784.39999999851,100801.467,101084.707,,50,that's
screen,html.Screen,2_1_0_1_51,2022-02-01T14:27:27.111Z,,,,,,,,,,,,,,,,,53,,,,,,,,,,,,,,483.0929999970249,,response,,,,99,,,,,,,Space,keypress(Space),,,,,,,,---- -- ----- -- ------ - ------- --- ----------<br>------------- ------ ------ ---- ---- ------- ----- -- ----<br>-------- ------- -- ---------- --- - --- ----- ----- ----<br>---- --- --- ----- --- ---- ---- ------- ----- ---- -------<br>--- --- -- ----- -- --- ---- -- --- ---- -- ------ really<br>--- ----- -- ----,101568.89999999851,101567.79999999702,101068.078,101071.09999999404,101084.707,101584.745,,51,really
screen,html.Screen,2_1_0_1_52,2022-02-01T14:27:27.454Z,,,,,,,,,,,,,,,,,53,,,,,,,,,,,,,,326.4549999955343,,response,,,,99,,,,,,,Space,keypress(Space),,,,,,,,---- -- ----- -- ------ - ------- --- ----------<br>------------- ------ ------ ---- ---- ------- ----- -- ----<br>-------- ------- -- ---------- --- - --- ----- ----- ----<br>---- --- --- ----- --- ---- ---- ------- ----- ---- -------<br>--- --- -- ----- -- --- ---- -- --- ---- -- ------ ------<br>not ----- -- ----,101912.29999999702,101911.19999999553,101568.049,101569.09999999404,101584.745,101918.009,,52,not
screen,html.Screen,2_1_0_1_53,2022-02-01T14:27:27.790Z,,,,,,,,,,,,,,,,,53,,,,,,,,,,,,,,329.09099999403406,,response,,,,99,,,,,,,Space,keypress(Space),,,,,,,,---- -- ----- -- ------ - ------- --- ----------<br>------------- ------ ------ ---- ---- ------- ----- -- ----<br>-------- ------- -- ---------- --- - --- ----- ----- ----<br>---- --- --- ----- --- ---- ---- ------- ----- ---- -------<br>--- --- -- ----- -- --- ---- -- --- ---- -- ------ ------<br>--- close -- ----,102248.19999999553,102247.09999999404,101901.387,101912.5,101918.009,102251.425,,53,close
screen,html.Screen,2_1_0_1_54,2022-02-01T14:27:28.094Z,,,,,,,,,,,,,,,,,53,,,,,,,,,,,,,,299.6749999940366,,response,,,,99,,,,,,,Space,keypress(Space),,,,,,,,---- -- ----- -- ------ - ------- --- ----------<br>------------- ------ ------ ---- ---- ------- ----- -- ----<br>-------- ------- -- ---------- --- - --- ----- ----- ----<br>---- --- --- ----- --- ---- ---- ------- ----- ---- -------<br>--- --- -- ----- -- --- ---- -- --- ---- -- ------ ------<br>--- ----- at ----,102552.39999999851,102551.09999999404,102234.703,102248.39999999851,102251.425,102568.154,,54,at
screen,html.Screen,2_1_0_1_55,2022-02-01T14:27:28.782Z,,,,,,,,,,,,,,,,,53,,,,,,,,,,,,,,671.0459999955347,,response,,,,99,,,,,,,Space,keypress(Space),,,,,,,,---- -- ----- -- ------ - ------- --- ----------<br>------------- ------ ------ ---- ---- ------- ----- -- ----<br>-------- ------- -- ---------- --- - --- ----- ----- ----<br>---- --- --- ----- --- ---- ---- ------- ----- ---- -------<br>--- --- -- ----- -- --- ---- -- --- ---- -- ------ ------<br>--- ----- -- all.,103240.39999999851,103239.19999999553,102551.357,102552.59999999404,102568.154,103251.478,,55,all.
Item 99,flow.Loop,2_1_0_1,2022-02-01T14:27:28.783Z,,,,,,,,,,,,,,,,,,,,,,,,,,,,,,,19954.766999995525,,completion,,,,,F,,,,,,,,,,,silence,,,,,103240.79999999702,103239.19999999553,83267.845,83269.09999999404,83284.433,103251.478,,,
Question 1,html.Screen,2_1_0_2,2022-02-01T14:27:32.219Z,,,,,,,,,,,,,,,,,,,,,,,,,,,,true,FALSE,,3425.221999995527,,response,,,,99,F,,,,,,FALSE,click #choice-2,,,,silence,,,,,106677.19999999553,106676.69999999553,103234.752,103241.09999999404,103251.478,106684.755,,,
Question 2,html.Screen,2_1_0_3,2022-02-01T14:27:34.966Z,,,,,,,,,,,,,,,,,,,,,,,,,,,,true,TRUE,,2739.044999997015,,response,,,,99,F,,,,,,TRUE,click #choice-1,,,,silence,,,,,109424.29999999702,109423.79999999702,106668.128,106677.39999999851,106684.755,109434.848,,,
Item 99,flow.Sequence,2_1_0,2022-02-01T14:27:34.966Z,,,,,,,,,,,,,,,,,,,,,,,,,,,,,,,36139.46199999702,,completion,,,,,,,,,,,,,,,,,,,,,109424.39999999851,109423.79999999702,73267.694,73281.89999999851,73284.338,109434.848,,,
Holding screen,html.Screen,2_1_1_0,2022-02-01T14:27:44.961Z,,,,,,,,,,,,,,,,,,,,,,,,,,,,,,,10000.122000000003,,timeout,,,,,,,,,,,,,,,,,,,,,119419,119418.301,109418.146,109424.5,109434.848,119434.97,,,
screen,html.Screen,2_1_1_1_0,2022-02-01T14:27:45.551Z,,,,,,,,,,,,,,,,,54,,,,,,,,,,,,,,573.1299999940384,,response,,,,100,,,,,,,Space,keypress(Space),,,,,,,,At --- ---- --- ------ ----- ------- ---- -- --- ------- --<br>------- ---------- ------ -- ----- -- ----- -- ---- ------<br>--- ----- --- --- ------ -------- ----- --- ------ ----- --<br>----- ----- ---------- --- --- ------ ------ ---- -- ------<br>------- --- ------ ----- --- ---- ------- -- ---- --- --<br>------- ------,120009.5,120008.09999999404,119418.301,119419.29999999702,119434.97,120018.291,,0,At
screen,html.Screen,2_1_1_1_1,2022-02-01T14:27:45.919Z,,,,,,,,,,,,,,,,,54,,,,,,,,,,,,,,357.4089999955322,,response,,,,100,,,,,,,Space,keypress(Space),,,,,,,,-- the ---- --- ------ ----- ------- ---- -- --- ------- --<br>------- ---------- ------ -- ----- -- ----- -- ---- ------<br>--- ----- --- --- ------ -------- ----- --- ------ ----- --<br>----- ----- ---------- --- --- ------ ------ ---- -- ------<br>------- --- ------ ----- --- ---- ------- -- ---- --- --<br>------- ------,120376.69999999553,120375.69999999553,120001.582,120009.79999999702,120018.291,120384.995,,1,the
screen,html.Screen,2_1_1_1_2,2022-02-01T14:27:46.191Z,,,,,,,,,,,,,,,,,54,,,,,,,,,,,,,,262.7049999955343,,response,,,,100,,,,,,,Space,keypress(Space),,,,,,,,-- --- time --- ------ ----- ------- ---- -- --- ------- --<br>------- ---------- ------ -- ----- -- ----- -- ---- ------<br>--- ----- --- --- ------ -------- ----- --- ------ ----- --<br>----- ----- ---------- --- --- ------ ------ ---- -- ------<br>------- --- ------ ----- --- ---- ------- -- ---- --- --<br>------- ------,120648.79999999702,120647.69999999553,120368.265,120377,120384.995,120651.648,,2,time
screen,html.Screen,2_1_1_1_3,2022-02-01T14:27:46.494Z,,,,,,,,,,,,,,,,,54,,,,,,,,,,,,,,299.1519999970187,,response,,,,100,,,,,,,Space,keypress(Space),,,,,,,,-- --- ---- the ------ ----- ------- ---- -- --- ------- --<br>------- ---------- ------ -- ----- -- ----- -- ---- ------<br>--- ----- --- --- ------ -------- ----- --- ------ ----- --<br>----- ----- ---------- --- --- ------ ------ ---- -- ------<br>------- --- ------ ----- --- ---- ------- -- ---- --- --<br>------- ------,120951.79999999702,120950.79999999702,120634.971,120649,120651.648,120968.348,,3,the
screen,html.Screen,2_1_1_1_4,2022-02-01T14:27:46.782Z,,,,,,,,,,,,,,,,,54,,,,,,,,,,,,,,271.05199999851175,,response,,,,100,,,,,,,Space,keypress(Space),,,,,,,,-- --- ---- --- French ----- ------- ---- -- --- ------- --<br>------- ---------- ------ -- ----- -- ----- -- ---- ------<br>--- ----- --- --- ------ -------- ----- --- ------ ----- --<br>----- ----- ---------- --- --- ------ ------ ---- -- ------<br>------- --- ------ ----- --- ---- ------- -- ---- --- --<br>------- ------,121240.59999999404,121239.39999999851,120951.641,120952.09999999404,120968.348,121251.672,,4,French
screen,html.Screen,2_1_1_1_5,2022-02-01T14:27:47.124Z,,,,,,,,,,,,,,,,,54,,,,,,,,,,,,,,330.5279999955237,,response,,,,100,,,,,,,Space,keypress(Space),,,,,,,,-- --- ---- --- ------ crown ------- ---- -- --- ------- --<br>------- ---------- ------ -- ----- -- ----- -- ---- ------<br>--- ----- --- --- ------ -------- ----- --- ------ ----- --<br>----- ----- ---------- --- --- ------ ------ ---- -- ------<br>------- --- ------ ----- --- ---- ------- -- ---- --- --<br>------- ------,121582.59999999404,121582.19999999553,121234.991,121240.79999999702,121251.672,121584.928,,5,crown
screen,html.Screen,2_1_1_1_6,2022-02-01T14:27:47.509Z,,,,,,,,,,,,,,,,,54,,,,,,,,,,,,,,381.47199999851,,response,,,,100,,,,,,,Space,keypress(Space),,,,,,,,-- --- ---- --- ------ ----- secured ---- -- --- ------- --<br>------- ---------- ------ -- ----- -- ----- -- ---- ------<br>--- ----- --- --- ------ -------- ----- --- ------ ----- --<br>----- ----- ---------- --- --- ------ ------ ---- -- ------<br>------- --- ------ ----- --- ---- ------- -- ---- --- --<br>------- ------,121967,121966.39999999851,121568.308,121582.59999999404,121584.928,121994.674,,6,secured
screen,html.Screen,2_1_1_1_7,2022-02-01T14:27:47.846Z,,,,,,,,,,,,,,,,,54,,,,,,,,,,,,,,308.92599999404047,,response,,,,100,,,,,,,Space,keypress(Space),,,,,,,,-- --- ---- --- ------ ----- ------- much -- --- ------- --<br>------- ---------- ------ -- ----- -- ----- -- ---- ------<br>--- ----- --- --- ------ -------- ----- --- ------ ----- --<br>----- ----- ---------- --- --- ------ ------ ---- -- ------<br>------- --- ------ ----- --- ---- ------- -- ---- --- --<br>------- ------,122304.69999999553,122303.59999999404,121951.621,121967.09999999404,121994.674,122318.345,,7,much
screen,html.Screen,2_1_1_1_8,2022-02-01T14:27:48.702Z,,,,,,,,,,,,,,,,,54,,,,,,,,,,,,,,840.8549999955285,,response,,,,100,,,,,,,Space,keypress(Space),,,,,,,,-- --- ---- --- ------ ----- ------- ---- of --- ------- --<br>------- ---------- ------ -- ----- -- ----- -- ---- ------<br>--- ----- --- --- ------ -------- ----- --- ------ ----- --<br>----- ----- ---------- --- --- ------ ------ ---- -- ------<br>------- --- ------ ----- --- ---- ------- -- ---- --- --<br>------- ------,123160.19999999553,123159.19999999553,122301.657,122304.89999999851,122318.345,123168.389,,8,of
screen,html.Screen,2_1_1_1_9,2022-02-01T14:27:48.982Z,,,,,,,,,,,,,,,,,54,,,,,,,,,,,,,,270.71099999404396,,response,,,,100,,,,,,,Space,keypress(Space),,,,,,,,-- --- ---- --- ------ ----- ------- ---- -- its ------- --<br>------- ---------- ------ -- ----- -- ----- -- ---- ------<br>--- ----- --- --- ------ -------- ----- --- ------ ----- --<br>----- ----- ---------- --- --- ------ ------ ---- -- ------<br>------- --- ------ ----- --- ---- ------- -- ---- --- --<br>------- ------,123440.19999999553,123439.09999999404,123151.596,123160.39999999851,123168.389,123451.695,,9,its
screen,html.Screen,2_1_1_1_10,2022-02-01T14:27:49.238Z,,,,,,,,,,,,,,,,,54,,,,,,,,,,,,,,243.40499999403255,,response,,,,100,,,,,,,Space,keypress(Space),,,,,,,,-- --- ---- --- ------ ----- ------- ---- -- --- revenue --<br>------- ---------- ------ -- ----- -- ----- -- ---- ------<br>--- ----- --- --- ------ -------- ----- --- ------ ----- --<br>----- ----- ---------- --- --- ------ ------ ---- -- ------<br>------- --- ------ ----- --- ---- ------- -- ---- --- --<br>------- ------,123696.09999999404,123695.09999999404,123435.009,123440.39999999851,123451.695,123701.721,,10,revenue
screen,html.Screen,2_1_1_1_11,2022-02-01T14:27:49.550Z,,,,,,,,,,,,,,,,,54,,,,,,,,,,,,,,305.37899999403453,,response,,,,100,,,,,,,Space,keypress(Space),,,,,,,,-- --- ---- --- ------ ----- ------- ---- -- --- ------- by<br>------- ---------- ------ -- ----- -- ----- -- ---- ------<br>--- ----- --- --- ------ -------- ----- --- ------ ----- --<br>----- ----- ---------- --- --- ------ ------ ---- -- ------<br>------- --- ------ ----- --- ---- ------- -- ---- --- --<br>------- ------,124008.19999999553,124007.09999999404,123685.02,123696.29999999702,123701.721,124018.416,,11,by
screen,html.Screen,2_1_1_1_12,2022-02-01T14:27:49.870Z,,,,,,,,,,,,,,,,,54,,,,,,,,,,,,,,308.7839999955322,,response,,,,100,,,,,,,Space,keypress(Space),,,,,,,,-- --- ---- --- ------ ----- ------- ---- -- --- ------- --<br>issuing ---------- ------ -- ----- -- ----- -- ---- ------<br>--- ----- --- --- ------ -------- ----- --- ------ ----- --<br>----- ----- ---------- --- --- ------ ------ ---- -- ------<br>------- --- ------ ----- --- ---- ------- -- ---- --- --<br>------- ------,124328.19999999553,124327.19999999553,124001.607,124008.5,124018.416,124335.028,,12,issuing
screen,html.Screen,2_1_1_1_13,2022-02-01T14:27:50.198Z,,,,,,,,,,,,,,,,,54,,,,,,,,,,,,,,319.9719999999943,,response,,,,100,,,,,,,Space,keypress(Space),,,,,,,,-- --- ---- --- ------ ----- ------- ---- -- --- ------- --<br>------- government ------ -- ----- -- ----- -- ---- ------<br>--- ----- --- --- ------ -------- ----- --- ------ ----- --<br>----- ----- ---------- --- --- ------ ------ ---- -- ------<br>------- --- ------ ----- --- ---- ------- -- ---- --- --<br>------- ------,124656.09999999404,124655,124318.342,124328.5,124335.028,124668.407,,13,government
screen,html.Screen,2_1_1_1_14,2022-02-01T14:27:50.606Z,,,,,,,,,,,,,,,,,54,,,,,,,,,,,,,,394.79299999552313,,response,,,,100,,,,,,,Space,keypress(Space),,,,,,,,-- --- ---- --- ------ ----- ------- ---- -- --- ------- --<br>------- ---------- bonds. -- ----- -- ----- -- ---- ------<br>--- ----- --- --- ------ -------- ----- --- ------ ----- --<br>----- ----- ---------- --- --- ------ ------ ---- -- ------<br>------- --- ------ ----- --- ---- ------- -- ---- --- --<br>------- ------,125064.29999999702,125063.19999999553,124651.688,124656.29999999702,124668.407,125068.42,,14,bonds.
screen,html.Screen,2_1_1_1_15,2022-02-01T14:27:50.926Z,,,,,,,,,,,,,,,,,54,,,,,,,,,,,,,,315.2799999955314,,response,,,,100,,,,,,,Space,keypress(Space),,,,,,,,-- --- ---- --- ------ ----- ------- ---- -- --- ------- --<br>------- ---------- ------ In ----- -- ----- -- ---- ------<br>--- ----- --- --- ------ -------- ----- --- ------ ----- --<br>----- ----- ---------- --- --- ------ ------ ---- -- ------<br>------- --- ------ ----- --- ---- ------- -- ---- --- --<br>------- ------,125384.69999999553,125383.69999999553,125051.681,125064.59999999404,125068.42,125401.691,,15,In
screen,html.Screen,2_1_1_1_16,2022-02-01T14:27:51.223Z,,,,,,,,,,,,,,,,,54,,,,,,,,,,,,,,278.0089999955235,,response,,,,100,,,,,,,Space,keypress(Space),,,,,,,,"-- --- ---- --- ------ ----- ------- ---- -- --- ------- --<br>------- ---------- ------ -- 1727, -- ----- -- ---- ------<br>--- ----- --- --- ------ -------- ----- --- ------ ----- --<br>----- ----- ---------- --- --- ------ ------ ---- -- ------<br>------- --- ------ ----- --- ---- ------- -- ---- --- --<br>------- ------",125680.69999999553,125679.69999999553,125384.989,125385,125401.691,125685.049,,16,"1727,"
screen,html.Screen,2_1_1_1_17,2022-02-01T14:27:51.516Z,,,,,,,,,,,,,,,,,54,,,,,,,,,,,,,,288.7509999970207,,response,,,,100,,,,,,,Space,keypress(Space),,,,,,,,-- --- ---- --- ------ ----- ------- ---- -- --- ------- --<br>------- ---------- ------ -- ----- in ----- -- ---- ------<br>--- ----- --- --- ------ -------- ----- --- ------ ----- --<br>----- ----- ---------- --- --- ------ ------ ---- -- ------<br>------- --- ------ ----- --- ---- ------- -- ---- --- --<br>------- ------,125974.19999999553,125973.79999999702,125668.328,125680.89999999851,125685.049,125984.977,,17,in
screen,html.Screen,2_1_1_1_18,2022-02-01T14:27:51.983Z,,,,,,,,,,,,,,,,,54,,,,,,,,,,,,,,454.8229999970208,,response,,,,100,,,,,,,Space,keypress(Space),,,,,,,,-- --- ---- --- ------ ----- ------- ---- -- --- ------- --<br>------- ---------- ------ -- ----- -- order -- ---- ------<br>--- ----- --- --- ------ -------- ----- --- ------ ----- --<br>----- ----- ---------- --- --- ------ ------ ---- -- ------<br>------- --- ------ ----- --- ---- ------- -- ---- --- --<br>------- ------,126440.89999999851,126439.79999999702,125968.288,125974.19999999553,125984.977,126451.704,,18,order
screen,html.Screen,2_1_1_1_19,2022-02-01T14:27:52.430Z,,,,,,,,,,,,,,,,,54,,,,,,,,,,,,,,435.39599999404163,,response,,,,100,,,,,,,Space,keypress(Space),,,,,,,,-- --- ---- --- ------ ----- ------- ---- -- --- ------- --<br>------- ---------- ------ -- ----- -- ----- to ---- ------<br>--- ----- --- --- ------ -------- ----- --- ------ ----- --<br>----- ----- ---------- --- --- ------ ------ ---- -- ------<br>------- --- ------ ----- --- ---- ------- -- ---- --- --<br>------- ------,126888.29999999702,126887.09999999404,126435.011,126441.09999999404,126451.704,126901.756,,19,to
screen,html.Screen,2_1_1_1_20,2022-02-01T14:27:52.694Z,,,,,,,,,,,,,,,,,54,,,,,,,,,,,,,,249.04399999702582,,response,,,,100,,,,,,,Space,keypress(Space),,,,,,,,-- --- ---- --- ------ ----- ------- ---- -- --- ------- --<br>------- ---------- ------ -- ----- -- ----- -- save ------<br>--- ----- --- --- ------ -------- ----- --- ------ ----- --<br>----- ----- ---------- --- --- ------ ------ ---- -- ------<br>------- --- ------ ----- --- ---- ------- -- ---- --- --<br>------- ------,127152,127150.79999999702,126885.02,126888.5,126901.756,127168.452,,20,save
screen,html.Screen,2_1_1_1_21,2022-02-01T14:27:52.950Z,,,,,,,,,,,,,,,,,54,,,,,,,,,,,,,,238.54799999999523,,response,,,,100,,,,,,,Space,keypress(Space),,,,,,,,"-- --- ---- --- ------ ----- ------- ---- -- --- ------- --<br>------- ---------- ------ -- ----- -- ----- -- ---- money,<br>--- ----- --- --- ------ -------- ----- --- ------ ----- --<br>----- ----- ---------- --- --- ------ ------ ---- -- ------<br>------- --- ------ ----- --- ---- ------- -- ---- --- --<br>------- ------",127408.19999999553,127407,127151.733,127152.19999999553,127168.452,127418.578,,21,"money,"
screen,html.Screen,2_1_1_1_22,2022-02-01T14:27:53.270Z,,,,,,,,,,,,,,,,,54,,,,,,,,,,,,,,308.8219999985158,,response,,,,100,,,,,,,Space,keypress(Space),,,,,,,,-- --- ---- --- ------ ----- ------- ---- -- --- ------- --<br>------- ---------- ------ -- ----- -- ----- -- ---- ------<br>the ----- --- --- ------ -------- ----- --- ------ ----- --<br>----- ----- ---------- --- --- ------ ------ ---- -- ------<br>------- --- ------ ----- --- ---- ------- -- ---- --- --<br>------- ------,127728.39999999851,127727.39999999851,127401.717,127408.39999999851,127418.578,127735.056,,22,the
screen,html.Screen,2_1_1_1_23,2022-02-01T14:27:53.548Z,,,,,,,,,,,,,,,,,54,,,,,,,,,,,,,,271.1439999955328,,response,,,,100,,,,,,,Space,keypress(Space),,,,,,,,-- --- ---- --- ------ ----- ------- ---- -- --- ------- --<br>------- ---------- ------ -- ----- -- ----- -- ---- ------<br>--- state --- --- ------ -------- ----- --- ------ ----- --<br>----- ----- ---------- --- --- ------ ------ ---- -- ------<br>------- --- ------ ----- --- ---- ------- -- ---- --- --<br>------- ------,128006.59999999404,128006.19999999553,127718.384,127728.59999999404,127735.056,128018.406,,23,state
screen,html.Screen,2_1_1_1_24,2022-02-01T14:27:53.830Z,,,,,,,,,,,,,,,,,54,,,,,,,,,,,,,,268.5939999999973,,response,,,,100,,,,,,,Space,keypress(Space),,,,,,,,-- --- ---- --- ------ ----- ------- ---- -- --- ------- --<br>------- ---------- ------ -- ----- -- ----- -- ---- ------<br>--- ----- cut --- ------ -------- ----- --- ------ ----- --<br>----- ----- ---------- --- --- ------ ------ ---- -- ------<br>------- --- ------ ----- --- ---- ------- -- ---- --- --<br>------- ------,128288.19999999553,128287,128001.733,128006.69999999553,128018.406,128301.778,,24,cut
screen,html.Screen,2_1_1_1_25,2022-02-01T14:27:54.054Z,,,,,,,,,,,,,,,,,54,,,,,,,,,,,,,,209.32199999403383,,response,,,,100,,,,,,,Space,keypress(Space),,,,,,,,-- --- ---- --- ------ ----- ------- ---- -- --- ------- --<br>------- ---------- ------ -- ----- -- ----- -- ---- ------<br>--- ----- --- the ------ -------- ----- --- ------ ----- --<br>----- ----- ---------- --- --- ------ ------ ---- -- ------<br>------- --- ------ ----- --- ---- ------- -- ---- --- --<br>------- ------,128512.09999999404,128511.09999999404,128285.019,128288.39999999851,128301.778,128518.319,,25,the
screen,html.Screen,2_1_1_1_26,2022-02-01T14:27:54.334Z,,,,,,,,,,,,,,,,,54,,,,,,,,,,,,,,272.68099999999686,,response,,,,100,,,,,,,Space,keypress(Space),,,,,,,,-- --- ---- --- ------ ----- ------- ---- -- --- ------- --<br>------- ---------- ------ -- ----- -- ----- -- ---- ------<br>--- ----- --- --- bonds' -------- ----- --- ------ ----- --<br>----- ----- ---------- --- --- ------ ------ ---- -- ------<br>------- --- ------ ----- --- ---- ------- -- ---- --- --<br>------- ------,128792.09999999404,128791,128501.743,128512.39999999851,128518.319,128801.784,,26,bonds'
screen,html.Screen,2_1_1_1_27,2022-02-01T14:27:54.637Z,,,,,,,,,,,,,,,,,54,,,,,,,,,,,,,,293.0159999970201,,response,,,,100,,,,,,,Space,keypress(Space),,,,,,,,-- --- ---- --- ------ ----- ------- ---- -- --- ------- --<br>------- ---------- ------ -- ----- -- ----- -- ---- ------<br>--- ----- --- --- ------ interest ----- --- ------ ----- --<br>----- ----- ---------- --- --- ------ ------ ---- -- ------<br>------- --- ------ ----- --- ---- ------- -- ---- --- --<br>------- ------,129095.59999999404,129094.79999999702,128785.029,128792.39999999851,128801.784,129101.758,,27,interest
screen,html.Screen,2_1_1_1_28,2022-02-01T14:27:54.983Z,,,,,,,,,,,,,,,,,54,,,,,,,,,,,,,,338.24199999999837,,response,,,,100,,,,,,,Space,keypress(Space),,,,,,,,-- --- ---- --- ------ ----- ------- ---- -- --- ------- --<br>------- ---------- ------ -- ----- -- ----- -- ---- ------<br>--- ----- --- --- ------ -------- rate. --- ------ ----- --<br>----- ----- ---------- --- --- ------ ------ ---- -- ------<br>------- --- ------ ----- --- ---- ------- -- ---- --- --<br>------- ------,129441,129440,129085.064,129095.69999999553,129101.758,129451.754,,28,rate.
screen,html.Screen,2_1_1_1_29,2022-02-01T14:27:55.366Z,,,,,,,,,,,,,,,,,54,,,,,,,,,,,,,,371.94599999552884,,response,,,,100,,,,,,,Space,keypress(Space),,,,,,,,-- --- ---- --- ------ ----- ------- ---- -- --- ------- --<br>------- ---------- ------ -- ----- -- ----- -- ---- ------<br>--- ----- --- --- ------ -------- ----- The ------ ----- --<br>----- ----- ---------- --- --- ------ ------ ---- -- ------<br>------- --- ------ ----- --- ---- ------- -- ---- --- --<br>------- ------,129824.59999999404,129823.69999999553,129435.02,129441.29999999702,129451.754,129835.178,,29,The
screen,html.Screen,2_1_1_1_30,2022-02-01T14:27:55.687Z,,,,,,,,,,,,,,,,,54,,,,,,,,,,,,,,308.92199999403965,,response,,,,100,,,,,,,Space,keypress(Space),,,,,,,,-- --- ---- --- ------ ----- ------- ---- -- --- ------- --<br>------- ---------- ------ -- ----- -- ----- -- ---- ------<br>--- ----- --- --- ------ -------- ----- --- market ----- --<br>----- ----- ---------- --- --- ------ ------ ---- -- ------<br>------- --- ------ ----- --- ---- ------- -- ---- --- --<br>------- ------,130145,130144.09999999404,129818.389,129824.79999999702,129835.178,130151.736,,30,market
screen,html.Screen,2_1_1_1_31,2022-02-01T14:27:55.990Z,,,,,,,,,,,,,,,,,54,,,,,,,,,,,,,,295.2639999999956,,response,,,,100,,,,,,,Space,keypress(Space),,,,,,,,-- --- ---- --- ------ ----- ------- ---- -- --- ------- --<br>------- ---------- ------ -- ----- -- ----- -- ---- ------<br>--- ----- --- --- ------ -------- ----- --- ------ value --<br>----- ----- ---------- --- --- ------ ------ ---- -- ------<br>------- --- ------ ----- --- ---- ------- -- ---- --- --<br>------- ------,130448,130447,130135.09,130145.19999999553,130151.736,130451.788,,31,value
screen,html.Screen,2_1_1_1_32,2022-02-01T14:27:56.294Z,,,,,,,,,,,,,,,,,54,,,,,,,,,,,,,,299.0119999970193,,response,,,,100,,,,,,,Space,keypress(Space),,,,,,,,-- --- ---- --- ------ ----- ------- ---- -- --- ------- --<br>------- ---------- ------ -- ----- -- ----- -- ---- ------<br>--- ----- --- --- ------ -------- ----- --- ------ ----- of<br>----- ----- ---------- --- --- ------ ------ ---- -- ------<br>------- --- ------ ----- --- ---- ------- -- ---- --- --<br>------- ------,130751.79999999702,130750.79999999702,130435.076,130448.29999999702,130451.788,130768.481,,32,of
screen,html.Screen,2_1_1_1_33,2022-02-01T14:27:56.550Z,,,,,,,,,,,,,,,,,54,,,,,,,,,,,,,,238.91899999851012,,response,,,,100,,,,,,,Space,keypress(Space),,,,,,,,-- --- ---- --- ------ ----- ------- ---- -- --- ------- --<br>------- ---------- ------ -- ----- -- ----- -- ---- ------<br>--- ----- --- --- ------ -------- ----- --- ------ ----- --<br>these ----- ---------- --- --- ------ ------ ---- -- ------<br>------- --- ------ ----- --- ---- ------- -- ---- --- --<br>------- ------,131008.5,131007.39999999851,130751.757,130752.09999999404,130768.481,131018.362,,33,these
screen,html.Screen,2_1_1_1_34,2022-02-01T14:27:56.806Z,,,,,,,,,,,,,,,,,54,,,,,,,,,,,,,,243.43799999702605,,response,,,,100,,,,,,,Space,keypress(Space),,,,,,,,-- --- ---- --- ------ ----- ------- ---- -- --- ------- --<br>------- ---------- ------ -- ----- -- ----- -- ---- ------<br>--- ----- --- --- ------ -------- ----- --- ------ ----- --<br>----- bonds ---------- --- --- ------ ------ ---- -- ------<br>------- --- ------ ----- --- ---- ------- -- ---- --- --<br>------- ------,131263.69999999553,131261.79999999702,131001.725,131008.69999999553,131018.362,131268.384,,34,bonds
screen,html.Screen,2_1_1_1_35,2022-02-01T14:27:57.046Z,,,,,,,,,,,,,,,,,54,,,,,,,,,,,,,,234.61600000000908,,response,,,,100,,,,,,,Space,keypress(Space),,,,,,,,"-- --- ---- --- ------ ----- ------- ---- -- --- ------- --<br>------- ---------- ------ -- ----- -- ----- -- ---- ------<br>--- ----- --- --- ------ -------- ----- --- ------ ----- --<br>----- ----- plummeted, --- --- ------ ------ ---- -- ------<br>------- --- ------ ----- --- ---- ------- -- ---- --- --<br>------- ------",131504.09999999404,131503,131251.741,131263.8999999985,131268.384,131518.467,,35,"plummeted,"
screen,html.Screen,2_1_1_1_36,2022-02-01T14:27:57.342Z,,,,,,,,,,,,,,,,,54,,,,,,,,,,,,,,280.4329999985057,,response,,,,100,,,,,,,Space,keypress(Space),,,,,,,,-- --- ---- --- ------ ----- ------- ---- -- --- ------- --<br>------- ---------- ------ -- ----- -- ----- -- ---- ------<br>--- ----- --- --- ------ -------- ----- --- ------ ----- --<br>----- ----- ---------- and --- ------ ------ ---- -- ------<br>------- --- ------ ----- --- ---- ------- -- ---- --- --<br>------- ------,131800,131798.8999999985,131501.733,131504.3999999985,131518.467,131801.81,,36,and
screen,html.Screen,2_1_1_1_37,2022-02-01T14:27:57.654Z,,,,,,,,,,,,,,,,,54,,,,,,,,,,,,,,309.28999999404186,,response,,,,100,,,,,,,Space,keypress(Space),,,,,,,,-- --- ---- --- ------ ----- ------- ---- -- --- ------- --<br>------- ---------- ------ -- ----- -- ----- -- ---- ------<br>--- ----- --- --- ------ -------- ----- --- ------ ----- --<br>----- ----- ---------- --- the ------ ------ ---- -- ------<br>------- --- ------ ----- --- ---- ------- -- ---- --- --<br>------- ------,132112.19999999553,132111.09999999404,131785.12,131800.29999999702,131801.81,132118.38,,37,the
screen,html.Screen,2_1_1_1_38,2022-02-01T14:27:57.902Z,,,,,,,,,,,,,,,,,54,,,,,,,,,,,,,,241.319999995525,,response,,,,100,,,,,,,Space,keypress(Space),,,,,,,,-- --- ---- --- ------ ----- ------- ---- -- --- ------- --<br>------- ---------- ------ -- ----- -- ----- -- ---- ------<br>--- ----- --- --- ------ -------- ----- --- ------ ----- --<br>----- ----- ---------- --- --- market ------ ---- -- ------<br>------- --- ------ ----- --- ---- ------- -- ---- --- --<br>------- ------,132360.59999999404,132359.69999999553,132101.771,132112.5,132118.38,132368.389,,38,market
screen,html.Screen,2_1_1_1_39,2022-02-01T14:27:58.110Z,,,,,,,,,,,,,,,,,54,,,,,,,,,,,,,,198.61100000000442,,response,,,,100,,,,,,,Space,keypress(Space),,,,,,,,-- --- ---- --- ------ ----- ------- ---- -- --- ------- --<br>------- ---------- ------ -- ----- -- ----- -- ---- ------<br>--- ----- --- --- ------ -------- ----- --- ------ ----- --<br>----- ----- ---------- --- --- ------ became ---- -- ------<br>------- --- ------ ----- --- ---- ------- -- ---- --- --<br>------- ------,132568.3999999985,132567,132351.739,132360.8999999985,132368.389,132585.18,,39,became
screen,html.Screen,2_1_1_1_40,2022-02-01T14:27:58.423Z,,,,,,,,,,,,,,,,,54,,,,,,,,,,,,,,294.51999999553664,,response,,,,100,,,,,,,Space,keypress(Space),,,,,,,,-- --- ---- --- ------ ----- ------- ---- -- --- ------- --<br>------- ---------- ------ -- ----- -- ----- -- ---- ------<br>--- ----- --- --- ------ -------- ----- --- ------ ----- --<br>----- ----- ---------- --- --- ------ ------ wary -- ------<br>------- --- ------ ----- --- ---- ------- -- ---- --- --<br>------- ------,132880.69999999553,132879.69999999553,132568.433,132568.79999999702,132585.18,132885.158,,40,wary
screen,html.Screen,2_1_1_1_41,2022-02-01T14:27:58.702Z,,,,,,,,,,,,,,,,,54,,,,,,,,,,,,,,273.8420000000042,,response,,,,100,,,,,,,Space,keypress(Space),,,,,,,,-- --- ---- --- ------ ----- ------- ---- -- --- ------- --<br>------- ---------- ------ -- ----- -- ----- -- ---- ------<br>--- ----- --- --- ------ -------- ----- --- ------ ----- --<br>----- ----- ---------- --- --- ------ ------ ---- of ------<br>------- --- ------ ----- --- ---- ------- -- ---- --- --<br>------- ------,133160.3999999985,133159,132868.447,132881,132885.158,133168.445,,41,of
screen,html.Screen,2_1_1_1_42,2022-02-01T14:27:58.990Z,,,,,,,,,,,,,,,,,54,,,,,,,,,,,,,,278.554999999993,,response,,,,100,,,,,,,Space,keypress(Space),,,,,,,,-- --- ---- --- ------ ----- ------- ---- -- --- ------- --<br>------- ---------- ------ -- ----- -- ----- -- ---- ------<br>--- ----- --- --- ------ -------- ----- --- ------ ----- --<br>----- ----- ---------- --- --- ------ ------ ---- -- French<br>------- --- ------ ----- --- ---- ------- -- ---- --- --<br>------- ------,133448.09999999404,133447,133151.788,133160.59999999404,133168.445,133451.825,,42,French
screen,html.Screen,2_1_1_1_43,2022-02-01T14:27:59.350Z,,,,,,,,,,,,,,,,,54,,,,,,,,,,,,,,355.17499999998836,,response,,,,100,,,,,,,Space,keypress(Space),,,,,,,,-- --- ---- --- ------ ----- ------- ---- -- --- ------- --<br>------- ---------- ------ -- ----- -- ----- -- ---- ------<br>--- ----- --- --- ------ -------- ----- --- ------ ----- --<br>----- ----- ---------- --- --- ------ ------ ---- -- ------<br>credit. --- ------ ----- --- ---- ------- -- ---- --- --<br>------- ------,133808.09999999404,133807,133435.134,133448.29999999702,133451.825,133818.501,,43,credit.
screen,html.Screen,2_1_1_1_44,2022-02-01T14:27:59.668Z,,,,,,,,,,,,,,,,,54,,,,,,,,,,,,,,307.3989999985206,,response,,,,100,,,,,,,Space,keypress(Space),,,,,,,,-- --- ---- --- ------ ----- ------- ---- -- --- ------- --<br>------- ---------- ------ -- ----- -- ----- -- ---- ------<br>--- ----- --- --- ------ -------- ----- --- ------ ----- --<br>----- ----- ---------- --- --- ------ ------ ---- -- ------<br>------- The ------ ----- --- ---- ------- -- ---- --- --<br>------- ------,134126.29999999702,134125.8999999985,133801.788,133808.19999999553,133818.501,134135.149,,44,The
screen,html.Screen,2_1_1_1_45,2022-02-01T14:27:59.926Z,,,,,,,,,,,,,,,,,54,,,,,,,,,,,,,,247.8509999999951,,response,,,,100,,,,,,,Space,keypress(Space),,,,,,,,-- --- ---- --- ------ ----- ------- ---- -- --- ------- --<br>------- ---------- ------ -- ----- -- ----- -- ---- ------<br>--- ----- --- --- ------ -------- ----- --- ------ ----- --<br>----- ----- ---------- --- --- ------ ------ ---- -- ------<br>------- --- French ----- --- ---- ------- -- ---- --- --<br>------- ------,134384.3999999985,134383,134118.463,134126.29999999702,134135.149,134401.849,,45,French
screen,html.Screen,2_1_1_1_46,2022-02-01T14:28:00.198Z,,,,,,,,,,,,,,,,,54,,,,,,,,,,,,,,253.35099999554222,,response,,,,100,,,,,,,Space,keypress(Space),,,,,,,,-- --- ---- --- ------ ----- ------- ---- -- --- ------- --<br>------- ---------- ------ -- ----- -- ----- -- ---- ------<br>--- ----- --- --- ------ -------- ----- --- ------ ----- --<br>----- ----- ---------- --- --- ------ ------ ---- -- ------<br>------- --- ------ state --- ---- ------- -- ---- --- --<br>------- ------,134656.29999999702,134655.19999999553,134385.106,134384.59999999404,134401.849,134668.525,,46,state
screen,html.Screen,2_1_1_1_47,2022-02-01T14:28:00.478Z,,,,,,,,,,,,,,,,,54,,,,,,,,,,,,,,266.3749999985157,,response,,,,100,,,,,,,Space,keypress(Space),,,,,,,,-- --- ---- --- ------ ----- ------- ---- -- --- ------- --<br>------- ---------- ------ -- ----- -- ----- -- ---- ------<br>--- ----- --- --- ------ -------- ----- --- ------ ----- --<br>----- ----- ---------- --- --- ------ ------ ---- -- ------<br>------- --- ------ ----- was ---- ------- -- ---- --- --<br>------- ------,134936.09999999404,134934.8999999985,134651.805,134656.5,134668.525,134951.856,,47,was
screen,html.Screen,2_1_1_1_48,2022-02-01T14:28:00.732Z,,,,,,,,,,,,,,,,,54,,,,,,,,,,,,,,238.04399999851012,,response,,,,100,,,,,,,Space,keypress(Space),,,,,,,,-- --- ---- --- ------ ----- ------- ---- -- --- ------- --<br>------- ---------- ------ -- ----- -- ----- -- ---- ------<br>--- ----- --- --- ------ -------- ----- --- ------ ----- --<br>----- ----- ---------- --- --- ------ ------ ---- -- ------<br>------- --- ------ ----- --- left ------- -- ---- --- --<br>------- ------,135190.29999999702,135189.8999999985,134935.171,134936.29999999702,134951.856,135201.723,,48,left
screen,html.Screen,2_1_1_1_49,2022-02-01T14:28:00.998Z,,,,,,,,,,,,,,,,,54,,,,,,,,,,,,,,253.27700000000186,,response,,,,100,,,,,,,Space,keypress(Space),,,,,,,,-- --- ---- --- ------ ----- ------- ---- -- --- ------- --<br>------- ---------- ------ -- ----- -- ----- -- ---- ------<br>--- ----- --- --- ------ -------- ----- --- ------ ----- --<br>----- ----- ---------- --- --- ------ ------ ---- -- ------<br>------- --- ------ ----- --- ---- without -- ---- --- --<br>------- ------,135456.5,135455,135185.096,135190.29999999702,135201.723,135468.482,,49,without
screen,html.Screen,2_1_1_1_50,2022-02-01T14:28:01.277Z,,,,,,,,,,,,,,,,,54,,,,,,,,,,,,,,266.3179999970307,,response,,,,100,,,,,,,Space,keypress(Space),,,,,,,,-- --- ---- --- ------ ----- ------- ---- -- --- ------- --<br>------- ---------- ------ -- ----- -- ----- -- ---- ------<br>--- ----- --- --- ------ -------- ----- --- ------ ----- --<br>----- ----- ---------- --- --- ------ ------ ---- -- ------<br>------- --- ------ ----- --- ---- ------- an ---- --- --<br>------- ------,135735.5,135734.79999999702,135451.83,135456.69999999553,135468.482,135751.876,,50,an
screen,html.Screen,2_1_1_1_51,2022-02-01T14:28:01.574Z,,,,,,,,,,,,,,,,,54,,,,,,,,,,,,,,279.82399999554036,,response,,,,100,,,,,,,Space,keypress(Space),,,,,,,,-- --- ---- --- ------ ----- ------- ---- -- --- ------- --<br>------- ---------- ------ -- ----- -- ----- -- ---- ------<br>--- ----- --- --- ------ -------- ----- --- ------ ----- --<br>----- ----- ---------- --- --- ------ ------ ---- -- ------<br>------- --- ------ ----- --- ---- ------- -- easy --- --<br>------- ------,136032.69999999553,136031.69999999553,135735.12,135735.59999999404,135751.876,136035.191,,51,easy
screen,html.Screen,2_1_1_1_52,2022-02-01T14:28:01.886Z,,,,,,,,,,,,,,,,,54,,,,,,,,,,,,,,307.9089999940479,,response,,,,100,,,,,,,Space,keypress(Space),,,,,,,,-- --- ---- --- ------ ----- ------- ---- -- --- ------- --<br>------- ---------- ------ -- ----- -- ----- -- ---- ------<br>--- ----- --- --- ------ -------- ----- --- ------ ----- --<br>----- ----- ---------- --- --- ------ ------ ---- -- ------<br>------- --- ------ ----- --- ---- ------- -- ---- way --<br>------- ------,136344.19999999553,136343.09999999404,136018.487,136032.8999999985,136035.191,136351.827,,52,way
screen,html.Screen,2_1_1_1_53,2022-02-01T14:28:02.190Z,,,,,,,,,,,,,,,,,54,,,,,,,,,,,,,,295.07299999851966,,response,,,,100,,,,,,,Space,keypress(Space),,,,,,,,-- --- ---- --- ------ ----- ------- ---- -- --- ------- --<br>------- ---------- ------ -- ----- -- ----- -- ---- ------<br>--- ----- --- --- ------ -------- ----- --- ------ ----- --<br>----- ----- ---------- --- --- ------ ------ ---- -- ------<br>------- --- ------ ----- --- ---- ------- -- ---- --- of<br>------- ------,136648.09999999404,136646.8999999985,136335.169,136344.3999999985,136351.827,136651.849,,53,of
screen,html.Screen,2_1_1_1_54,2022-02-01T14:28:02.502Z,,,,,,,,,,,,,,,,,54,,,,,,,,,,,,,,307.05099999852246,,response,,,,100,,,,,,,Space,keypress(Space),,,,,,,,-- --- ---- --- ------ ----- ------- ---- -- --- ------- --<br>------- ---------- ------ -- ----- -- ----- -- ---- ------<br>--- ----- --- --- ------ -------- ----- --- ------ ----- --<br>----- ----- ---------- --- --- ------ ------ ---- -- ------<br>------- --- ------ ----- --- ---- ------- -- ---- --- --<br>raising ------,136960.09999999404,136958.8999999985,136635.133,136648.29999999702,136651.849,136968.615,,54,raising
screen,html.Screen,2_1_1_1_55,2022-02-01T14:28:02.934Z,,,,,,,,,,,,,,,,,54,,,,,,,,,,,,,,422.48499999404885,,response,,,,100,,,,,,,Space,keypress(Space),,,,,,,,-- --- ---- --- ------ ----- ------- ---- -- --- ------- --<br>------- ---------- ------ -- ----- -- ----- -- ---- ------<br>--- ----- --- --- ------ -------- ----- --- ------ ----- --<br>----- ----- ---------- --- --- ------ ------ ---- -- ------<br>------- --- ------ ----- --- ---- ------- -- ---- --- --<br>------- money.,137392.19999999553,137391.09999999404,136951.764,136960.3999999985,136968.615,137401.746,,55,money.
Item 100,flow.Loop,2_1_1_1,2022-02-01T14:28:02.935Z,,,,,,,,,,,,,,,,,,,,,,,,,,,,,,,17956.12999999404,,completion,,,,,F,,,,,,,,,,,silence,,,,,137392.8999999985,137391.09999999404,119418.301,119419.19999999553,119434.97,137401.746,,,
Question 1,html.Screen,2_1_1_2,2022-02-01T14:28:05.130Z,,,,,,,,,,,,,,,,,,,,,,,,,,,,true,TRUE,,2186.053999997006,,response,,,,100,F,,,,,,TRUE,click #choice-1,,,,silence,,,,,139588.19999999553,139587.79999999702,137385.175,137393,137401.746,139601.878,,,
Question 2,html.Screen,2_1_1_3,2022-02-01T14:28:06.786Z,,,,,,,,,,,,,,,,,,,,,,,,,,,,true,FALSE,,1636.9219999970228,,response,,,,100,F,,,,,,FALSE,click #choice-2,,,,silence,,,,,141239.29999999702,141238.79999999702,139585.191,139588.29999999702,139601.878,141251.84,,,
Item 100,flow.Sequence,2_1_1,2022-02-01T14:28:06.786Z,,,,,,,,,,,,,,,,,,,,,,,,,,,,,,,31803.95199999702,,completion,,,,,,,,,,,,,,,,,,,,,141239.3999999985,141238.79999999702,109418.146,109424.5,109434.848,141251.84,,,
End of Practice,html.Page,2_1_2,2022-02-01T14:28:10.675Z,,,,,,,,,,,,,,,,,,,,,,,,,,,,,,,3876.4599999970233,,form submission,,,,,,,,,,,,,,,,,,,,,145128.5,145128.29999999702,141235.209,141239.3999999985,141251.84,145135.283,,,
Practice,flow.Sequence,2_1,2022-02-01T14:28:10.675Z,,,,,,,,,,,,,,,,,,,,,,,,,,,,,,,71843.96199999702,,completion,,,,,,,,,,,,,,,,,,,,,145128.59999999404,145128.29999999702,73267.694,73281.89999999851,73284.338,145135.283,,,
Trap_instruction,html.Page,2_2_0,2022-02-01T14:28:13.281Z,,,,,,,,,,,,,,,,,,,,,,,,,,,,,,,2599.3169999940437,,form submission,,,,,,,,,,,,,,,,,,,,,147734.79999999702,147734.59999999404,145118.59,145128.69999999553,145135.283,147767.404,,,
trap_trial,html.Screen,2_2_1,2022-02-01T14:28:15.856Z,,,,,,,,,,,,,,,,,,,,,,,,,,,,true,1,,2541.29599999552,,response,,,,,,,,,,,1,click #choice-1,,,,,,,,,150309.29999999702,150308.69999999553,147718.611,147734.79999999702,147767.404,150318.676,,,
end of trap trial,html.Page,2_2_2,2022-02-01T14:28:17.180Z,,,,,,,,,,,,,,,,,,,,,,,,,,,,,,,1314.7239999985031,,form submission,,,,,,,,,,,,,,,,,,,,,151633.59999999404,151633.3999999985,150301.944,150309.29999999702,150318.676,151635.303,,,
Trap 1,flow.Sequence,2_2,2022-02-01T14:28:17.180Z,,,,,,,,,,,,,,,,,,,,,,,,,,,,,,,6498.116999998514,,completion,,,,,,,,,,,,,,,,,,,,,151633.69999999553,151633.3999999985,145118.59,145128.69999999553,145135.283,151635.303,,,
Standby,html.Page,2_3_0,2022-02-01T14:28:25.166Z,,,,,,,,,,,,,,,,,,,,,,,,,,,,,,,8000.145999999979,,timeout,,,,,,,,,,,,,,,,,,,,,159619.19999999553,159618.77,151618.674,151633.69999999553,151635.303,159635.449,,,
Holding screen,html.Screen,2_3_1_0_0,2022-02-01T14:28:32.166Z,,,,,,,,,,,,,,,,,,,,,,,,,,,,,,,7000.09600000002,,timeout,,,,,,,,,,,,,,,,,,,,,166619.29999999702,166618.836,159618.77,159619.5,159635.449,166635.545,,,
screen,html.Screen,2_3_1_0_1_0,2022-02-01T14:28:32.788Z,,,,,,,,,,,,,,,,,48,,,,,,,,,,,,,,604.5549999940267,,response,,,,10,F,,,,,,Space,keypress(Space),,,,instrumental,,,,As -- --- ------ ------- --------- ----------- --------<br>--------- -------- --- ------- -- ------- ---- -- ------<br>-- --- -------- -------- ---------- ---- ---- ---- ------<br>-- --------- -- ---- -- --- -- --- ------- -- - -----<br>---------- -- -- -- ---- ----- -- ------ -- --- ------<br>-------,167241.5,167240.09999999404,166618.836,166619.59999999404,166635.545,167252.242,,0,As
screen,html.Screen,2_3_1_0_1_1,2022-02-01T14:28:33.089Z,,,,,,,,,,,,,,,,,48,,,,,,,,,,,,,,289.85799999404117,,response,,,,10,F,,,,,,Space,keypress(Space),,,,instrumental,,,,-- in --- ------ ------- --------- ----------- --------<br>--------- -------- --- ------- -- ------- ---- -- ------<br>-- --- -------- -------- ---------- ---- ---- ---- ------<br>-- --------- -- ---- -- --- -- --- ------- -- - -----<br>---------- -- -- -- ---- ----- -- ------ -- --- ------<br>-------,167542.5,167542.09999999404,167235.491,167241.79999999702,167252.242,167552.168,,1,in
screen,html.Screen,2_3_1_0_1_2,2022-02-01T14:28:33.354Z,,,,,,,,,,,,,,,,,48,,,,,,,,,,,,,,254.73199999850476,,response,,,,10,F,,,,,,Space,keypress(Space),,,,instrumental,,,,-- -- the ------ ------- --------- ----------- --------<br>--------- -------- --- ------- -- ------- ---- -- ------<br>-- --- -------- -------- ---------- ---- ---- ---- ------<br>-- --------- -- ---- -- --- -- --- ------- -- - -----<br>---------- -- -- -- ---- ----- -- ------ -- --- ------<br>-------,167808,167806.8999999985,167535.553,167542.5,167552.168,167818.944,,2,the
screen,html.Screen,2_3_1_0_1_3,2022-02-01T14:28:33.681Z,,,,,,,,,,,,,,,,,48,,,,,,,,,,,,,,315.25599999554106,,response,,,,10,F,,,,,,Space,keypress(Space),,,,instrumental,,,,-- -- --- United ------- --------- ----------- --------<br>--------- -------- --- ------- -- ------- ---- -- ------<br>-- --- -------- -------- ---------- ---- ---- ---- ------<br>-- --------- -- ---- -- --- -- --- ------- -- - -----<br>---------- -- -- -- ---- ----- -- ------ -- --- ------<br>-------,168134.59999999404,168134.19999999553,167802.148,167808.29999999702,167818.944,168163.52,,3,United
screen,html.Screen,2_3_1_0_1_4,2022-02-01T14:28:33.979Z,,,,,,,,,,,,,,,,,48,,,,,,,,,,,,,,267.9800000000105,,response,,,,10,F,,,,,,Space,keypress(Space),,,,instrumental,,,,"-- -- --- ------ States, --------- ----------- --------<br>--------- -------- --- ------- -- ------- ---- -- ------<br>-- --- -------- -------- ---------- ---- ---- ---- ------<br>-- --------- -- ---- -- --- -- --- ------- -- - -----<br>---------- -- -- -- ---- ----- -- ------ -- --- ------<br>-------",168432.59999999404,168431.5,168118.855,168134.69999999553,168163.52,168435.603,,4,"States,"
screen,html.Screen,2_3_1_0_1_5,2022-02-01T14:28:34.283Z,,,,,,,,,,,,,,,,,48,,,,,,,,,,,,,,299.696999997017,,response,,,,10,F,,,,,,Space,keypress(Space),,,,instrumental,,,,-- -- --- ------ ------- Colombian ----------- --------<br>--------- -------- --- ------- -- ------- ---- -- ------<br>-- --- -------- -------- ---------- ---- ---- ---- ------<br>-- --------- -- ---- -- --- -- --- ------- -- - -----<br>---------- -- -- -- ---- ----- -- ------ -- --- ------<br>-------,168736.29999999702,168735.29999999702,168418.864,168432.69999999553,168435.603,168752.272,,5,Colombian
screen,html.Screen,2_3_1_0_1_6,2022-02-01T14:28:34.610Z,,,,,,,,,,,,,,,,,48,,,,,,,,,,,,,,310.82799999404233,,response,,,,10,F,,,,,,Space,keypress(Space),,,,instrumental,,,,-- -- --- ------ ------- --------- legislation --------<br>--------- -------- --- ------- -- ------- ---- -- ------<br>-- --- -------- -------- ---------- ---- ---- ---- ------<br>-- --------- -- ---- -- --- -- --- ------- -- - -----<br>---------- -- -- -- ---- ----- -- ------ -- --- ------<br>-------,169064.09999999404,169063.09999999404,168735.572,168736.5,168752.272,169068.945,,6,legislation
screen,html.Screen,2_3_1_0_1_7,2022-02-01T14:28:34.899Z,,,,,,,,,,,,,,,,,48,,,,,,,,,,,,,,282.554999999993,,response,,,,10,F,,,,,,Space,keypress(Space),,,,instrumental,,,,-- -- --- ------ ------- --------- ----------- requires<br>--------- -------- --- ------- -- ------- ---- -- ------<br>-- --- -------- -------- ---------- ---- ---- ---- ------<br>-- --------- -- ---- -- --- -- --- ------- -- - -----<br>---------- -- -- -- ---- ----- -- ------ -- --- ------<br>-------,169352.59999999404,169351.5,169052.183,169064.3999999985,169068.945,169368.947,,7,requires
screen,html.Screen,2_3_1_0_1_8,2022-02-01T14:28:35.210Z,,,,,,,,,,,,,,,,,48,,,,,,,,,,,,,,294.15299999405397,,response,,,,10,F,,,,,,Space,keypress(Space),,,,instrumental,,,,-- -- --- ------ ------- --------- ----------- --------<br>travelers -------- --- ------- -- ------- ---- -- ------<br>-- --- -------- -------- ---------- ---- ---- ---- ------<br>-- --------- -- ---- -- --- -- --- ------- -- - -----<br>---------- -- -- -- ---- ----- -- ------ -- --- ------<br>-------,169664.09999999404,169663.09999999404,169352.233,169352.79999999702,169368.947,169668.961,,8,travelers
screen,html.Screen,2_3_1_0_1_9,2022-02-01T14:28:35.561Z,,,,,,,,,,,,,,,,,48,,,,,,,,,,,,,,345.2389999955194,,response,,,,10,F,,,,,,Space,keypress(Space),,,,instrumental,,,,-- -- --- ------ ------- --------- ----------- --------<br>--------- entering --- ------- -- ------- ---- -- ------<br>-- --- -------- -------- ---------- ---- ---- ---- ------<br>-- --------- -- ---- -- --- -- --- ------- -- - -----<br>---------- -- -- -- ---- ----- -- ------ -- --- ------<br>-------,170014.59999999404,170014.19999999553,169652.236,169664.29999999702,169668.961,170018.903,,9,entering
screen,html.Screen,2_3_1_0_1_10,2022-02-01T14:28:35.858Z,,,,,,,,,,,,,,,,,48,,,,,,,,,,,,,,292.09700000000885,,response,,,,10,F,,,,,,Space,keypress(Space),,,,instrumental,,,,-- -- --- ------ ------- --------- ----------- --------<br>--------- -------- the ------- -- ------- ---- -- ------<br>-- --- -------- -------- ---------- ---- ---- ---- ------<br>-- --------- -- ---- -- --- -- --- ------- -- - -----<br>---------- -- -- -- ---- ----- -- ------ -- --- ------<br>-------,170311.8999999985,170311,170002.235,170014.59999999404,170018.903,170318.919,,10,the
screen,html.Screen,2_3_1_0_1_11,2022-02-01T14:28:36.145Z,,,,,,,,,,,,,,,,,48,,,,,,,,,,,,,,278.88099999702536,,response,,,,10,F,,,,,,Space,keypress(Space),,,,instrumental,,,,-- -- --- ------ ------- --------- ----------- --------<br>--------- -------- --- country -- ------- ---- -- ------<br>-- --- -------- -------- ---------- ---- ---- ---- ------<br>-- --------- -- ---- -- --- -- --- ------- -- - -----<br>---------- -- -- -- ---- ----- -- ------ -- --- ------<br>-------,170598.3999999985,170597.79999999702,170302.214,170312.19999999553,170318.919,170602.271,,11,country
screen,html.Screen,2_3_1_0_1_12,2022-02-01T14:28:36.418Z,,,,,,,,,,,,,,,,,48,,,,,,,,,,,,,,268.7289999999921,,response,,,,10,F,,,,,,Space,keypress(Space),,,,instrumental,,,,-- -- --- ------ ------- --------- ----------- --------<br>--------- -------- --- ------- to ------- ---- -- ------<br>-- --- -------- -------- ---------- ---- ---- ---- ------<br>-- --------- -- ---- -- --- -- --- ------- -- - -----<br>---------- -- -- -- ---- ----- -- ------ -- --- ------<br>-------,170871.8999999985,170871,170585.584,170598.5,170602.271,170885.634,,12,to
screen,html.Screen,2_3_1_0_1_13,2022-02-01T14:28:36.705Z,,,,,,,,,,,,,,,,,48,,,,,,,,,,,,,,272.9659999940486,,response,,,,10,F,,,,,,Space,keypress(Space),,,,instrumental,,,,-- -- --- ------ ------- --------- ----------- --------<br>--------- -------- --- ------- -- declare ---- -- ------<br>-- --- -------- -------- ---------- ---- ---- ---- ------<br>-- --------- -- ---- -- --- -- --- ------- -- - -----<br>---------- -- -- -- ---- ----- -- ------ -- --- ------<br>-------,171158.8999999985,171158.59999999404,170868.873,170872.19999999553,170885.634,171168.941,,13,declare
screen,html.Screen,2_3_1_0_1_14,2022-02-01T14:28:37.403Z,,,,,,,,,,,,,,,,,48,,,,,,,,,,,,,,686.4589999985183,,response,,,,10,F,,,,,,Space,keypress(Space),,,,instrumental,,,,-- -- --- ------ ------- --------- ----------- --------<br>--------- -------- --- ------- -- ------- cash -- ------<br>-- --- -------- -------- ---------- ---- ---- ---- ------<br>-- --------- -- ---- -- --- -- --- ------- -- - -----<br>---------- -- -- -- ---- ----- -- ------ -- --- ------<br>-------,171856.5,171855.3999999985,171152.267,171159,171168.941,171868.927,,14,cash
screen,html.Screen,2_3_1_0_1_15,2022-02-01T14:28:37.722Z,,,,,,,,,,,,,,,,,48,,,,,,,,,,,,,,305.97299999851384,,response,,,,10,F,,,,,,Space,keypress(Space),,,,instrumental,,,,-- -- --- ------ ------- --------- ----------- --------<br>--------- -------- --- ------- -- ------- ---- in ------<br>-- --- -------- -------- ---------- ---- ---- ---- ------<br>-- --------- -- ---- -- --- -- --- ------- -- - -----<br>---------- -- -- -- ---- ----- -- ------ -- --- ------<br>-------,172176,172174.8999999985,171852.214,171856.79999999702,171868.927,172185.651,,15,in
screen,html.Screen,2_3_1_0_1_16,2022-02-01T14:28:38.067Z,,,,,,,,,,,,,,,,,48,,,,,,,,,,,,,,333.2489999984973,,response,,,,10,F,,,,,,Space,keypress(Space),,,,instrumental,,,,-- -- --- ------ ------- --------- ----------- --------<br>--------- -------- --- ------- -- ------- ---- -- excess<br>-- --- -------- -------- ---------- ---- ---- ---- ------<br>-- --------- -- ---- -- --- -- --- ------- -- - -----<br>---------- -- -- -- ---- ----- -- ------ -- --- ------<br>-------,172520.29999999702,172518.8999999985,172168.897,172176.19999999553,172185.651,172535.674,,16,excess
screen,html.Screen,2_3_1_0_1_17,2022-02-01T14:28:38.362Z,,,,,,,,,,,,,,,,,48,,,,,,,,,,,,,,279.2259999985108,,response,,,,10,F,,,,,,Space,keypress(Space),,,,instrumental,,,,-- -- --- ------ ------- --------- ----------- --------<br>--------- -------- --- ------- -- ------- ---- -- ------<br>of --- -------- -------- ---------- ---- ---- ---- ------<br>-- --------- -- ---- -- --- -- --- ------- -- - -----<br>---------- -- -- -- ---- ----- -- ------ -- --- ------<br>-------,172816.09999999404,172814.8999999985,172518.939,172520.59999999404,172535.674,172818.933,,17,of
screen,html.Screen,2_3_1_0_1_18,2022-02-01T14:28:38.601Z,,,,,,,,,,,,,,,,,48,,,,,,,,,,,,,,235.26699999553966,,response,,,,10,F,,,,,,Space,keypress(Space),,,,instrumental,,,,-- -- --- ------ ------- --------- ----------- --------<br>--------- -------- --- ------- -- ------- ---- -- ------<br>-- ten -------- -------- ---------- ---- ---- ---- ------<br>-- --------- -- ---- -- --- -- --- ------- -- - -----<br>---------- -- -- -- ---- ----- -- ------ -- --- ------<br>-------,173054.59999999404,173054.19999999553,172802.28,172816.3999999985,172818.933,173068.949,,18,ten
screen,html.Screen,2_3_1_0_1_19,2022-02-01T14:28:38.818Z,,,,,,,,,,,,,,,,,48,,,,,,,,,,,,,,202.1509999940463,,response,,,,10,F,,,,,,Space,keypress(Space),,,,instrumental,,,,-- -- --- ------ ------- --------- ----------- --------<br>--------- -------- --- ------- -- ------- ---- -- ------<br>-- --- thousand -------- ---------- ---- ---- ---- ------<br>-- --------- -- ---- -- --- -- --- ------- -- - -----<br>---------- -- -- -- ---- ----- -- ------ -- --- ------<br>-------,173272.09999999404,173271.09999999404,173052.284,173054.59999999404,173068.949,173285.661,,19,thousand
screen,html.Screen,2_3_1_0_1_20,2022-02-01T14:28:39.034Z,,,,,,,,,,,,,,,,,48,,,,,,,,,,,,,,201.2389999985171,,response,,,,10,F,,,,,,Space,keypress(Space),,,,instrumental,,,,-- -- --- ------ ------- --------- ----------- --------<br>--------- -------- --- ------- -- ------- ---- -- ------<br>-- --- -------- dollars. ---------- ---- ---- ---- ------<br>-- --------- -- ---- -- --- -- --- ------- -- - -----<br>---------- -- -- -- ---- ----- -- ------ -- --- ------<br>-------,173487.29999999702,173486.8999999985,173268.934,173272.3999999985,173285.661,173502.243,,20,dollars.
screen,html.Screen,2_3_1_0_1_21,2022-02-01T14:28:39.323Z,,,,,,,,,,,,,,,,,48,,,,,,,,,,,,,,272.956999995542,,response,,,,10,F,,,,,,Space,keypress(Space),,,,instrumental,,,,-- -- --- ------ ------- --------- ----------- --------<br>--------- -------- --- ------- -- ------- ---- -- ------<br>-- --- -------- -------- Concealing ---- ---- ---- ------<br>-- --------- -- ---- -- --- -- --- ------- -- - -----<br>---------- -- -- -- ---- ----- -- ------ -- --- ------<br>-------,173776.3999999985,173775.19999999553,173485.617,173487.29999999702,173502.243,173785.678,,21,Concealing
screen,html.Screen,2_3_1_0_1_22,2022-02-01T14:28:39.609Z,,,,,,,,,,,,,,,,,48,,,,,,,,,,,,,,277.0219999955152,,response,,,,10,F,,,,,,Space,keypress(Space),,,,instrumental,,,,-- -- --- ------ ------- --------- ----------- --------<br>--------- -------- --- ------- -- ------- ---- -- ------<br>-- --- -------- -------- ---------- more ---- ---- ------<br>-- --------- -- ---- -- --- -- --- ------- -- - -----<br>---------- -- -- -- ---- ----- -- ------ -- --- ------<br>-------,174063.09999999404,174062.69999999553,173768.928,173776.59999999404,173785.678,174068.942,,22,more
screen,html.Screen,2_3_1_0_1_23,2022-02-01T14:28:39.857Z,,,,,,,,,,,,,,,,,48,,,,,,,,,,,,,,241.25799999551964,,response,,,,10,F,,,,,,Space,keypress(Space),,,,instrumental,,,,-- -- --- ------ ------- --------- ----------- --------<br>--------- -------- --- ------- -- ------- ---- -- ------<br>-- --- -------- -------- ---------- ---- than ---- ------<br>-- --------- -- ---- -- --- -- --- ------- -- - -----<br>---------- -- -- -- ---- ----- -- ------ -- --- ------<br>-------,174310.69999999553,174310.19999999553,174052.295,174063.19999999553,174068.942,174318.971,,23,than
screen,html.Screen,2_3_1_0_1_24,2022-02-01T14:28:40.090Z,,,,,,,,,,,,,,,,,48,,,,,,,,,,,,,,223.92899999851943,,response,,,,10,F,,,,,,Space,keypress(Space),,,,instrumental,,,,-- -- --- ------ ------- --------- ----------- --------<br>--------- -------- --- ------- -- ------- ---- -- ------<br>-- --- -------- -------- ---------- ---- ---- that ------<br>-- --------- -- ---- -- --- -- --- ------- -- - -----<br>---------- -- -- -- ---- ----- -- ------ -- --- ------<br>-------,174544,174542.8999999985,174302.265,174310.69999999553,174318.971,174552.309,,24,that
screen,html.Screen,2_3_1_0_1_25,2022-02-01T14:28:40.347Z,,,,,,,,,,,,,,,,,48,,,,,,,,,,,,,,246.69099999999162,,response,,,,10,F,,,,,,Space,keypress(Space),,,,instrumental,,,,-- -- --- ------ ------- --------- ----------- --------<br>--------- -------- --- ------- -- ------- ---- -- ------<br>-- --- -------- -------- ---------- ---- ---- ---- amount<br>-- --------- -- ---- -- --- -- --- ------- -- - -----<br>---------- -- -- -- ---- ----- -- ------ -- --- ------<br>-------,174800.3999999985,174799,174535.599,174544.29999999702,174552.309,174802.284,,25,amount
screen,html.Screen,2_3_1_0_1_26,2022-02-01T14:28:40.618Z,,,,,,,,,,,,,,,,,48,,,,,,,,,,,,,,268.2159999999858,,response,,,,10,F,,,,,,Space,keypress(Space),,,,instrumental,,,,-- -- --- ------ ------- --------- ----------- --------<br>--------- -------- --- ------- -- ------- ---- -- ------<br>-- --- -------- -------- ---------- ---- ---- ---- ------<br>to --------- -- ---- -- --- -- --- ------- -- - -----<br>---------- -- -- -- ---- ----- -- ------ -- --- ------<br>-------,175071.19999999553,175070.5,174785.57,174800.59999999404,174802.284,175085.647,,26,to
screen,html.Screen,2_3_1_0_1_27,2022-02-01T14:28:40.867Z,,,,,,,,,,,,,,,,,48,,,,,,,,,,,,,,233.75299999851268,,response,,,,10,F,,,,,,Space,keypress(Space),,,,instrumental,,,,-- -- --- ------ ------- --------- ----------- --------<br>--------- -------- --- ------- -- ------- ---- -- ------<br>-- --- -------- -------- ---------- ---- ---- ---- ------<br>-- transport -- ---- -- --- -- --- ------- -- - -----<br>---------- -- -- -- ---- ----- -- ------ -- --- ------<br>-------,175320.3999999985,175319.3999999985,175068.973,175071.3999999985,175085.647,175335.642,,27,transport
screen,html.Screen,2_3_1_0_1_28,2022-02-01T14:28:41.122Z,,,,,,,,,,,,,,,,,48,,,,,,,,,,,,,,239.25799999851733,,response,,,,10,F,,,,,,Space,keypress(Space),,,,instrumental,,,,-- -- --- ------ ------- --------- ----------- --------<br>--------- -------- --- ------- -- ------- ---- -- ------<br>-- --- -------- -------- ---------- ---- ---- ---- ------<br>-- --------- it ---- -- --- -- --- ------- -- - -----<br>---------- -- -- -- ---- ----- -- ------ -- --- ------<br>-------,175576,175574.8999999985,175318.984,175320.69999999553,175335.642,175585.814,,28,it
screen,html.Screen,2_3_1_0_1_29,2022-02-01T14:28:41.394Z,,,,,,,,,,,,,,,,,48,,,,,,,,,,,,,,261.18599999998696,,response,,,,10,F,,,,,,Space,keypress(Space),,,,instrumental,,,,-- -- --- ------ ------- --------- ----------- --------<br>--------- -------- --- ------- -- ------- ---- -- ------<br>-- --- -------- -------- ---------- ---- ---- ---- ------<br>-- --------- -- into -- --- -- --- ------- -- - -----<br>---------- -- -- -- ---- ----- -- ------ -- --- ------<br>-------,175848,175847,175568.91,175576.29999999702,175585.814,175852.353,,29,into
screen,html.Screen,2_3_1_0_1_30,2022-02-01T14:28:41.691Z,,,,,,,,,,,,,,,,,48,,,,,,,,,,,,,,291.446999997017,,response,,,,10,F,,,,,,Space,keypress(Space),,,,instrumental,,,,-- -- --- ------ ------- --------- ----------- --------<br>--------- -------- --- ------- -- ------- ---- -- ------<br>-- --- -------- -------- ---------- ---- ---- ---- ------<br>-- --------- -- ---- or --- -- --- ------- -- - -----<br>---------- -- -- -- ---- ----- -- ------ -- --- ------<br>-------,176144.8999999985,176143.79999999702,175835.636,175848.29999999702,175852.353,176152.362,,30,or
screen,html.Screen,2_3_1_0_1_31,2022-02-01T14:28:41.954Z,,,,,,,,,,,,,,,,,48,,,,,,,,,,,,,,254.53799999851617,,response,,,,10,F,,,,,,Space,keypress(Space),,,,instrumental,,,,-- -- --- ------ ------- --------- ----------- --------<br>--------- -------- --- ------- -- ------- ---- -- ------<br>-- --- -------- -------- ---------- ---- ---- ---- ------<br>-- --------- -- ---- -- out -- --- ------- -- - -----<br>---------- -- -- -- ---- ----- -- ------ -- --- ------<br>-------,176408,176406.8999999985,176135.665,176145.19999999553,176152.362,176419.244,,31,out
screen,html.Screen,2_3_1_0_1_32,2022-02-01T14:28:42.203Z,,,,,,,,,,,,,,,,,48,,,,,,,,,,,,,,235.9559999955236,,response,,,,10,F,,,,,,Space,keypress(Space),,,,instrumental,,,,-- -- --- ------ ------- --------- ----------- --------<br>--------- -------- --- ------- -- ------- ---- -- ------<br>-- --- -------- -------- ---------- ---- ---- ---- ------<br>-- --------- -- ---- -- --- of --- ------- -- - -----<br>---------- -- -- -- ---- ----- -- ------ -- --- ------<br>-------,176656.19999999553,176655.19999999553,176402.334,176408.19999999553,176419.244,176669.047,,32,of
screen,html.Screen,2_3_1_0_1_33,2022-02-01T14:28:42.450Z,,,,,,,,,,,,,,,,,48,,,,,,,,,,,,,,233.8529999985185,,response,,,,10,F,,,,,,Space,keypress(Space),,,,instrumental,,,,-- -- --- ------ ------- --------- ----------- --------<br>--------- -------- --- ------- -- ------- ---- -- ------<br>-- --- -------- -------- ---------- ---- ---- ---- ------<br>-- --------- -- ---- -- --- -- the ------- -- - -----<br>---------- -- -- -- ---- ----- -- ------ -- --- ------<br>-------,176903.8999999985,176902.8999999985,176652.321,176656.5,176669.047,176919.036,,33,the
screen,html.Screen,2_3_1_0_1_34,2022-02-01T14:28:42.745Z,,,,,,,,,,,,,,,,,48,,,,,,,,,,,,,,279.06399999404675,,response,,,,10,F,,,,,,Space,keypress(Space),,,,instrumental,,,,-- -- --- ------ ------- --------- ----------- --------<br>--------- -------- --- ------- -- ------- ---- -- ------<br>-- --- -------- -------- ---------- ---- ---- ---- ------<br>-- --------- -- ---- -- --- -- --- country -- - -----<br>---------- -- -- -- ---- ----- -- ------ -- --- ------<br>-------,177198.69999999553,177198.09999999404,176902.314,176904.09999999404,176919.036,177202.306,,34,country
screen,html.Screen,2_3_1_0_1_35,2022-02-01T14:28:43.027Z,,,,,,,,,,,,,,,,,48,,,,,,,,,,,,,,277.6939999999886,,response,,,,10,F,,,,,,Space,keypress(Space),,,,instrumental,,,,-- -- --- ------ ------- --------- ----------- --------<br>--------- -------- --- ------- -- ------- ---- -- ------<br>-- --- -------- -------- ---------- ---- ---- ---- ------<br>-- --------- -- ---- -- --- -- --- ------- is - -----<br>---------- -- -- -- ---- ----- -- ------ -- --- ------<br>-------,177481.09999999404,177480,177185.682,177198.79999999702,177202.306,177485.711,,35,is
screen,html.Screen,2_3_1_0_1_36,2022-02-01T14:28:43.258Z,,,,,,,,,,,,,,,,,48,,,,,,,,,,,,,,224.9889999955194,,response,,,,10,F,,,,,,Space,keypress(Space),,,,instrumental,,,,-- -- --- ------ ------- --------- ----------- --------<br>--------- -------- --- ------- -- ------- ---- -- ------<br>-- --- -------- -------- ---------- ---- ---- ---- ------<br>-- --------- -- ---- -- --- -- --- ------- -- a -----<br>---------- -- -- -- ---- ----- -- ------ -- --- ------<br>-------,177711.79999999702,177710.69999999553,177468.975,177481.3999999985,177485.711,177719.043,,36,a
screen,html.Screen,2_3_1_0_1_37,2022-02-01T14:28:43.554Z,,,,,,,,,,,,,,,,,48,,,,,,,,,,,,,,287.85699999850476,,response,,,,10,F,,,,,,Space,keypress(Space),,,,instrumental,,,,-- -- --- ------ ------- --------- ----------- --------<br>--------- -------- --- ------- -- ------- ---- -- ------<br>-- --- -------- -------- ---------- ---- ---- ---- ------<br>-- --------- -- ---- -- --- -- --- ------- -- - crime<br>---------- -- -- -- ---- ----- -- ------ -- --- ------<br>-------,178008,178006.8999999985,177702.306,177712,177719.043,178019.023,,37,crime
screen,html.Screen,2_3_1_0_1_38,2022-02-01T14:28:43.977Z,,,,,,,,,,,,,,,,,48,,,,,,,,,,,,,,411.07699999405304,,response,,,,10,F,,,,,,Space,keypress(Space),,,,instrumental,,,,-- -- --- ------ ------- --------- ----------- --------<br>--------- -------- --- ------- -- ------- ---- -- ------<br>-- --- -------- -------- ---------- ---- ---- ---- ------<br>-- --------- -- ---- -- --- -- --- ------- -- - -----<br>punishable -- -- -- ---- ----- -- ------ -- --- ------<br>-------,178430.59999999404,178430.09999999404,178002.337,178008.19999999553,178019.023,178435.685,,38,punishable
screen,html.Screen,2_3_1_0_1_39,2022-02-01T14:28:44.299Z,,,,,,,,,,,,,,,,,48,,,,,,,,,,,,,,315.41499999404186,,response,,,,10,F,,,,,,Space,keypress(Space),,,,instrumental,,,,-- -- --- ------ ------- --------- ----------- --------<br>--------- -------- --- ------- -- ------- ---- -- ------<br>-- --- -------- -------- ---------- ---- ---- ---- ------<br>-- --------- -- ---- -- --- -- --- ------- -- - -----<br>---------- by -- -- ---- ----- -- ------ -- --- ------<br>-------,178752.19999999553,178751.09999999404,178418.998,178430.59999999404,178435.685,178769.064,,39,by
screen,html.Screen,2_3_1_0_1_40,2022-02-01T14:28:44.649Z,,,,,,,,,,,,,,,,,48,,,,,,,,,,,,,,333.23599999700673,,response,,,,10,F,,,,,,Space,keypress(Space),,,,instrumental,,,,-- -- --- ------ ------- --------- ----------- --------<br>--------- -------- --- ------- -- ------- ---- -- ------<br>-- --- -------- -------- ---------- ---- ---- ---- ------<br>-- --------- -- ---- -- --- -- --- ------- -- - -----<br>---------- -- up -- ---- ----- -- ------ -- --- ------<br>-------,179102.79999999702,179102.29999999702,178752.316,178752.5,178769.064,179119.031,,40,up
screen,html.Screen,2_3_1_0_1_41,2022-02-01T14:28:44.954Z,,,,,,,,,,,,,,,,,48,,,,,,,,,,,,,,287.86899999852176,,response,,,,10,F,,,,,,Space,keypress(Space),,,,instrumental,,,,-- -- --- ------ ------- --------- ----------- --------<br>--------- -------- --- ------- -- ------- ---- -- ------<br>-- --- -------- -------- ---------- ---- ---- ---- ------<br>-- --------- -- ---- -- --- -- --- ------- -- - -----<br>---------- -- -- to ---- ----- -- ------ -- --- ------<br>-------,179407.8999999985,179406.8999999985,179102.347,179102.8999999985,179119.031,179419.059,,41,to
screen,html.Screen,2_3_1_0_1_42,2022-02-01T14:28:45.218Z,,,,,,,,,,,,,,,,,48,,,,,,,,,,,,,,251.8409999985015,,response,,,,10,F,,,,,,Space,keypress(Space),,,,instrumental,,,,-- -- --- ------ ------- --------- ----------- --------<br>--------- -------- --- ------- -- ------- ---- -- ------<br>-- --- -------- -------- ---------- ---- ---- ---- ------<br>-- --------- -- ---- -- --- -- --- ------- -- - -----<br>---------- -- -- -- five ----- -- ------ -- --- ------<br>-------,179671.69999999553,179670.8999999985,179402.327,179408.09999999404,179419.059,179685.733,,42,five
screen,html.Screen,2_3_1_0_1_43,2022-02-01T14:28:45.490Z,,,,,,,,,,,,,,,,,48,,,,,,,,,,,,,,257.26699999999255,,response,,,,10,F,,,,,,Space,keypress(Space),,,,instrumental,,,,-- -- --- ------ ------- --------- ----------- --------<br>--------- -------- --- ------- -- ------- ---- -- ------<br>-- --- -------- -------- ---------- ---- ---- ---- ------<br>-- --------- -- ---- -- --- -- --- ------- -- - -----<br>---------- -- -- -- ---- years -- ------ -- --- ------<br>-------,179944,179943,179669.022,179671.8999999985,179685.733,179952.373,,43,years
