sender,sender_type,sender_id,timestamp,meta,,Blues,Classical,Country,Dance,Electronic,Folk,Gospel,Hip-Hop,Jazz,Latin,Musical/Film,New-age,Pop,Prolific_id,Provo_ID,R&B,Rap,Reggae,Religious,Rock,Soul,Swing,Traditional,age,artist_name,correct,correctResponse,distraction,duration,education,ended_on,familiarity,gender,headphone_check_performance,item,list,music_frequency,offensiveness,pleasantness,position_correct,preference,response,response_action,snippet_file,song_name,song_rating,sound,stimulus_1,stimulus_2,stimulus_3,text,time_commit,time_end,time_render,time_run,time_show,time_switch,url,word,word_ID
Prolific ID,html.Form,0,2022-02-04T11:50:46.084Z,"{""labjs_version"":""20.2.2"",""labjs_build"":{""flavor"":""production"",""commit"":""a25486e0c714a0ae2ce03ff94b7bb6896854dcfa""},""location"":""https://run.pavlovia.org/mvasilev/prolific2_music_c/"",""userAgent"":""Mozilla/5.0 (Windows NT 10.0; Win64; x64) AppleWebKit/537.36 (KHTML, like Gecko) Chrome/97.0.4692.99 Safari/537.36"",""platform"":""Win32"",""language"":""en-GB"",""locale"":""en-GB"",""timeZone"":""Europe/London"",""timezoneOffset"":0,""screen_width"":1920,""screen_height"":1080,""scroll_width"":1920,""scroll_height"":889,""window_innerWidth"":1920,""window_innerHeight"":937,""devicePixelRatio"":1}",,,,,,,,,,,,,,,5f6b8c1f5622370b0c94d597,,,,,,,,,,,,,,,6085.743,,form submission,,,,,,,,,,,,,,,,,,,,,19487.299999952316,19487,13384.461,13391.400000095367,13401.257,19484.439,{},,
Introduction,html.Screen,1_0,2022-02-04T11:50:59.450Z,,,,,,,,,,,,,,,,,,,,,,,,,,,,,,,13366.461000095369,,response,,,,,,,,,,,continue,click button,,,,,,,,,32853.09999990463,32850.90000009537,19467.748,19487.5,19484.439,32867.676,,,
Volume calibration,html.Screen,1_1,2022-02-04T11:51:22.211Z,,,,,,,,,,,,,,,,,,,,,,,,,,,,,,,22744.923999904633,,response,,,,,,,,,,,continue,click button,,,,,,,,,55615.09999990463,55612.59999990463,32850.954,32853.299999952316,32867.676,55617.479,,,
Task instructions,html.Screen,1_2,2022-02-04T11:51:35.044Z,,,,,,,,,,,,,,,,,,,,,,,,,,,,,,,12828.021,,response,,,,,,,,,,,continue,click button,,,,,,,,,68446.5,68445.5,55600.984,55615.200000047684,55617.479,68450.682,,,
Sounds,html.Screen,1_3_0_0,2022-02-04T11:51:39.283Z,,,,,,,,,,,,,,,,,,,,,,,,,,,,,,,4249.974000000002,,timeout,,,,,,,,,1,,,,,,,,S,O,I,,72685.40000009537,72683.982,68434.195,68446.70000004768,68450.682,72700.656,,,
Judgement,html.Screen,1_3_0_1,2022-02-04T11:51:40.293Z,,,,,,,,,,,,,,,,,,,,,,,,,,,,true,1,,993.4439999046299,,response,,,,,,,,,1,,1,click #choice-1,,,,,S,O,I,,73695.20000004768,73694.09999990463,72683.982,72685.5,72700.656,73700.886,,,
Trial,flow.Sequence,1_3_0,2022-02-04T11:51:40.293Z,,,,,,,,,,,,,,,,,,,,,,,,,,,,,,,5243.417999904632,,completion,,,,,,,,,1,,,,,,,,S,O,I,,73695.40000009537,73694.09999990463,68434.195,68446.70000004768,68450.682,73700.886,,,
Sounds,html.Screen,1_3_1_0,2022-02-04T11:51:44.532Z,,,,,,,,,,,,,,,,,,,,,,,,,,,,,,,4249.717000000004,,timeout,,,,,,,,,1,,,,,,,,S,I,O,,77934.40000009537,77933.947,73684.124,73695.59999990463,73700.886,77950.603,,,
Judgement,html.Screen,1_3_1_1,2022-02-04T11:51:45.381Z,,,,,,,,,,,,,,,,,,,,,,,,,,,,true,1,,831.8969999999972,,response,,,,,,,,,1,,1,click #choice-1,,,,,S,I,O,,78783.59999990463,78782.5,77933.947,77934.59999990463,77950.603,78783.988,,,
Trial,flow.Sequence,1_3_1,2022-02-04T11:51:45.381Z,,,,,,,,,,,,,,,,,,,,,,,,,,,,,,,5081.614000000001,,completion,,,,,,,,,1,,,,,,,,S,I,O,,78784,78782.5,73684.124,73695.59999990463,73700.886,78783.988,,,
Sounds,html.Screen,1_3_2_0,2022-02-04T11:51:49.616Z,,,,,,,,,,,,,,,,,,,,,,,,,,,,,,,4250.02900000001,,timeout,,,,,,,,,2,,,,,,,,I,S,O,,83018.70000004768,83017.271,78767.276,78784.20000004768,78783.988,83034.017,,,
Judgement,html.Screen,1_3_2_1,2022-02-04T11:51:50.838Z,,,,,,,,,,,,,,,,,,,,,,,,,,,,true,2,,1204.982999999993,,response,,,,,,,,,2,,2,click #choice-2,,,,,I,S,O,,84240.20000004768,84239,83017.271,83018.70000004768,83034.017,84250.833,,,
Trial,flow.Sequence,1_3_2,2022-02-04T11:51:50.838Z,,,,,,,,,,,,,,,,,,,,,,,,,,,,,,,5455.012000000002,,completion,,,,,,,,,2,,,,,,,,I,S,O,,84240.40000009537,84239,78767.276,78784.09999990463,78783.988,84250.833,,,
Sounds,html.Screen,1_3_3_0,2022-02-04T11:51:55.082Z,,,,,,,,,,,,,,,,,,,,,,,,,,,,,,,4249.960000000006,,timeout,,,,,,,,,3,,,,,,,,O,I,S,,88484.5,88483.887,84234.753,84240.5,84250.833,88500.793,,,
Judgement,html.Screen,1_3_3_1,2022-02-04T11:51:55.870Z,,,,,,,,,,,,,,,,,,,,,,,,,,,,true,3,,770.6070000953623,,response,,,,,,,,,3,,3,click #choice-3,,,,,O,I,S,,89272.40000009537,89271.40000009537,88483.887,88484.70000004768,88500.793,89283.872,,,
Trial,flow.Sequence,1_3_3,2022-02-04T11:51:55.870Z,,,,,,,,,,,,,,,,,,,,,,,,,,,,,,,5020.567000095369,,completion,,,,,,,,,3,,,,,,,,O,I,S,,89272.5,89271.40000009537,84234.753,84240.5,84250.833,89283.872,,,
Sounds,html.Screen,1_3_4_0,2022-02-04T11:52:00.115Z,,,,,,,,,,,,,,,,,,,,,,,,,,,,,,,4250.085999999996,,timeout,,,,,,,,,2,,,,,,,,O,S,I,,93517.70000004768,93517.143,89267.207,89272.59999990463,89283.872,93533.958,,,
Judgement,html.Screen,1_3_4_1,2022-02-04T11:52:00.734Z,,,,,,,,,,,,,,,,,,,,,,,,,,,,true,2,,601.6419999046338,,response,,,,,,,,,2,,2,click #choice-2,,,,,O,S,I,,94136.59999990463,94135.59999990463,93517.143,93517.70000004768,93533.958,94150.662,,,
Trial,flow.Sequence,1_3_4,2022-02-04T11:52:00.734Z,,,,,,,,,,,,,,,,,,,,,,,,,,,,,,,4851.7279999046295,,completion,,,,,,,,,2,,,,,,,,O,S,I,,94136.79999995232,94135.59999990463,89267.207,89272.59999990463,89283.872,94150.662,,,
Sounds,html.Screen,1_3_5_0,2022-02-04T11:52:04.982Z,,,,,,,,,,,,,,,,,,,,,,,,,,,,,,,4249.815000000002,,timeout,,,,,,,,,3,,,,,,,,I,O,S,,98384.20000004768,98383.777,94133.852,94136.79999995232,94150.662,98400.477,,,
Judgement,html.Screen,1_3_5_1,2022-02-04T11:52:05.646Z,,,,,,,,,,,,,,,,,,,,,,,,,,,,true,3,,647.3229999523173,,response,,,,,,,,,3,,3,click #choice-3,,,,,I,O,S,,99048.90000009537,99047.79999995232,98383.777,98384.40000009537,98400.477,99050.468,,,
Trial,flow.Sequence,1_3_5,2022-02-04T11:52:05.646Z,,,,,,,,,,,,,,,,,,,,,,,,,,,,,,,4897.13799995232,,completion,,,,,,,,,3,,,,,,,,I,O,S,,99049,99047.79999995232,94133.852,94136.79999995232,94150.662,99050.468,,,
Task,flow.Loop,1_3,2022-02-04T11:52:05.649Z,,,,,,,,,,,,,,,,,,,,,,,,,,,,,,,30597.117999952316,,completion,,,1,,,,,,,,,,,,,,,,,,99051.79999995232,99047.79999995232,68434.195,68446.59999990463,68450.682,99050.468,,,
Trap,html.Screen,1_4,2022-02-04T11:52:05.650Z,,,,,,,,,,,,,,,,,,,,,,,,,,,,,,,NaN,,skipped,,,,,,,,,,,,,,,,,,,,,99052.70000004768,99047.79999995232,,99052.59999990463,,99050.468,,,
Thanks,html.Screen,1_5,2022-02-04T11:52:17.535Z,,,,,,,,,,,,,,,,,,,,,,,,,,,,,,,11886.432000095374,,response,,,,,,,,,,,continue,click button,,,,,,,,,110938,110936.90000009537,99033.924,99052.79999995232,99050.468,113233.713,,,
Headphone screening,flow.Sequence,1,2022-02-04T11:52:17.535Z,,,,,,,,,,,,,,,,,,,,,,,,,,,,,,,91452.46100009537,,completion,,,,,,,,,,,,,,,,,,,,,110938.09999990463,110936.90000009537,19467.748,19487.5,19484.439,113233.713,,,
Instructions,html.Page,2_0,2022-02-04T11:52:38.266Z,,,,,,,,,,,,,,,,,,,,,,,,,,,,,,,18434.38699990463,,form submission,,,,,,,,,,,,,,,,,,,,,131668.79999995232,131668.09999990463,113217.035,113219.90000009537,113233.713,131683.553,,,
Holding screen,html.Screen,2_1_0_0,2022-02-04T11:52:48.265Z,,,,,,,,,,,,,,,,,,,,,,,,,,,,,,,10000.015999999974,,timeout,,,,,,,,,,,,,,,,,,,,,141668.20000004768,141666.838,131666.877,131668.90000009537,131683.553,141683.569,,,
screen,html.Screen,2_1_0_1_0,2022-02-04T11:52:49.280Z,,,,,,,,,,,,,,,,,53,,,,,,,,,,,,,,997.3310000953788,,response,,,,99,,,,,,,Space,keypress(Space),,,,,,,,When -- ----- -- ------ - ------- --- ----------<br>------------- ------ ------ ---- ---- ------- ----- -- ----<br>-------- ------- -- ---------- --- - --- ----- ----- ----<br>---- --- --- ----- --- ---- ---- ------- ----- ---- -------<br>--- --- -- ----- -- --- ---- -- --- ---- -- ------ ------<br>--- ----- -- ----,142682.5,142680.90000009537,141666.838,141668.29999995232,141683.569,142683.435,,0,When
screen,html.Screen,2_1_0_1_1,2022-02-04T11:52:49.726Z,,,,,,,,,,,,,,,,,53,,,,,,,,,,,,,,445.26500004768604,,response,,,,99,,,,,,,Space,keypress(Space),,,,,,,,---- it ----- -- ------ - ------- --- ----------<br>------------- ------ ------ ---- ---- ------- ----- -- ----<br>-------- ------- -- ---------- --- - --- ----- ----- ----<br>---- --- --- ----- --- ---- ---- ------- ----- ---- -------<br>--- --- -- ----- -- --- ---- -- --- ---- -- ------ ------<br>--- ----- -- ----,143129.09999990463,143128.70000004768,142666.788,142682.59999990463,142683.435,143133.441,,1,it
screen,html.Screen,2_1_0_1_2,2022-02-04T11:52:50.174Z,,,,,,,,,,,,,,,,,53,,,,,,,,,,,,,,442.9590000953758,,response,,,,99,,,,,,,Space,keypress(Space),,,,,,,,---- -- comes -- ------ - ------- --- ----------<br>------------- ------ ------ ---- ---- ------- ----- -- ----<br>-------- ------- -- ---------- --- - --- ----- ----- ----<br>---- --- --- ----- --- ---- ---- ------- ----- ---- -------<br>--- --- -- ----- -- --- ---- -- --- ---- -- ------ ------<br>--- ----- -- ----,143577,143576.40000009537,143116.873,143129.20000004768,143133.441,143583.735,,2,comes
screen,html.Screen,2_1_0_1_3,2022-02-04T11:52:50.566Z,,,,,,,,,,,,,,,,,53,,,,,,,,,,,,,,384.86499990464654,,response,,,,99,,,,,,,Space,keypress(Space),,,,,,,,---- -- ----- to ------ - ------- --- ----------<br>------------- ------ ------ ---- ---- ------- ----- -- ----<br>-------- ------- -- ---------- --- - --- ----- ----- ----<br>---- --- --- ----- --- ---- ---- ------- ----- ---- -------<br>--- --- -- ----- -- --- ---- -- --- ---- -- ------ ------<br>--- ----- -- ----,143969,143968.59999990463,143567.248,143577.09999990463,143583.735,143983.623,,3,to
screen,html.Screen,2_1_0_1_4,2022-02-04T11:52:51.206Z,,,,,,,,,,,,,,,,,53,,,,,,,,,,,,,,624.9769999046403,,response,,,,99,,,,,,,Space,keypress(Space),,,,,,,,---- -- ----- -- having - ------- --- ----------<br>------------- ------ ------ ---- ---- ------- ----- -- ----<br>-------- ------- -- ---------- --- - --- ----- ----- ----<br>---- --- --- ----- --- ---- ---- ------- ----- ---- -------<br>--- --- -- ----- -- --- ---- -- --- ---- -- ------ ------<br>--- ----- -- ----,144609.09999990463,144608.59999990463,143966.809,143969,143983.623,144616.933,,4,having
screen,html.Screen,2_1_0_1_5,2022-02-04T11:52:52.070Z,,,,,,,,,,,,,,,,,53,,,,,,,,,,,,,,855.7670000476937,,response,,,,99,,,,,,,Space,keypress(Space),,,,,,,,---- -- ----- -- ------ a ------- --- ----------<br>------------- ------ ------ ---- ---- ------- ----- -- ----<br>-------- ------- -- ---------- --- - --- ----- ----- ----<br>---- --- --- ----- --- ---- ---- ------- ----- ---- -------<br>--- --- -- ----- -- --- ---- -- --- ---- -- ------ ------<br>--- ----- -- ----,145473.09999990463,145472.70000004768,144600.226,144609.20000004768,144616.933,145483.591,,5,a
screen,html.Screen,2_1_0_1_6,2022-02-04T11:52:52.582Z,,,,,,,,,,,,,,,,,53,,,,,,,,,,,,,,501.2089999523305,,response,,,,99,,,,,,,Space,keypress(Space),,,,,,,,---- -- ----- -- ------ - lasting --- ----------<br>------------- ------ ------ ---- ---- ------- ----- -- ----<br>-------- ------- -- ---------- --- - --- ----- ----- ----<br>---- --- --- ----- --- ---- ---- ------- ----- ---- -------<br>--- --- -- ----- -- --- ---- -- --- ---- -- ------ ------<br>--- ----- -- ----,145985.40000009537,145984.79999995232,145466.885,145473.20000004768,145483.591,146000.268,,6,lasting
screen,html.Screen,2_1_0_1_7,2022-02-04T11:52:53.031Z,,,,,,,,,,,,,,,,,53,,,,,,,,,,,,,,432.8319999046216,,response,,,,99,,,,,,,Space,keypress(Space),,,,,,,,---- -- ----- -- ------ - ------- and ----------<br>------------- ------ ------ ---- ---- ------- ----- -- ----<br>-------- ------- -- ---------- --- - --- ----- ----- ----<br>---- --- --- ----- --- ---- ---- ------- ----- ---- -------<br>--- --- -- ----- -- --- ---- -- --- ---- -- ------ ------<br>--- ----- -- ----,146433.59999990463,146433.09999990463,145983.468,145985.5,146000.268,146450.12,,7,and
screen,html.Screen,2_1_0_1_8,2022-02-04T11:52:53.574Z,,,,,,,,,,,,,,,,,53,,,,,,,,,,,,,,526.7800000953721,,response,,,,99,,,,,,,Space,keypress(Space),,,,,,,,---- -- ----- -- ------ - ------- --- fulfilling<br>------------- ------ ------ ---- ---- ------- ----- -- ----<br>-------- ------- -- ---------- --- - --- ----- ----- ----<br>---- --- --- ----- --- ---- ---- ------- ----- ---- -------<br>--- --- -- ----- -- --- ---- -- --- ---- -- ------ ------<br>--- ----- -- ----,146977.29999995232,146976.90000009537,146433.389,146433.59999990463,146450.12,146983.457,,8,fulfilling
screen,html.Screen,2_1_0_1_9,2022-02-04T11:52:54.118Z,,,,,,,,,,,,,,,,,53,,,,,,,,,,,,,,537.5430000000051,,response,,,,99,,,,,,,Space,keypress(Space),,,,,,,,"---- -- ----- -- ------ - ------- --- ----------<br>relationship, ------ ------ ---- ---- ------- ----- -- ----<br>-------- ------- -- ---------- --- - --- ----- ----- ----<br>---- --- --- ----- --- ---- ---- ------- ----- ---- -------<br>--- --- -- ----- -- --- ---- -- --- ---- -- ------ ------<br>--- ----- -- ----",147521.29999995232,147521,146966.761,146977.5,146983.457,147533.576,,9,"relationship,"
screen,html.Screen,2_1_0_1_10,2022-02-04T11:52:54.639Z,,,,,,,,,,,,,,,,,53,,,,,,,,,,,,,,507.52399990463164,,response,,,,99,,,,,,,Space,keypress(Space),,,,,,,,---- -- ----- -- ------ - ------- --- ----------<br>------------- common ------ ---- ---- ------- ----- -- ----<br>-------- ------- -- ---------- --- - --- ----- ----- ----<br>---- --- --- ----- --- ---- ---- ------- ----- ---- -------<br>--- --- -- ----- -- --- ---- -- --- ---- -- ------ ------<br>--- ----- -- ----,148041.5,148041.09999990463,147516.873,147521.40000009537,147533.576,148050.087,,10,common
screen,html.Screen,2_1_0_1_11,2022-02-04T11:52:55.055Z,,,,,,,,,,,,,,,,,53,,,,,,,,,,,,,,407.1130000476842,,response,,,,99,,,,,,,Space,keypress(Space),,,,,,,,---- -- ----- -- ------ - ------- --- ----------<br>------------- ------ wisdom ---- ---- ------- ----- -- ----<br>-------- ------- -- ---------- --- - --- ----- ----- ----<br>---- --- --- ----- --- ---- ---- ------- ----- ---- -------<br>--- --- -- ----- -- --- ---- -- --- ---- -- ------ ------<br>--- ----- -- ----,148457.70000004768,148457.20000004768,148033.816,148041.70000004768,148050.087,148466.747,,11,wisdom
screen,html.Screen,2_1_0_1_12,2022-02-04T11:52:55.502Z,,,,,,,,,,,,,,,,,53,,,,,,,,,,,,,,438.1530000953644,,response,,,,99,,,,,,,Space,keypress(Space),,,,,,,,---- -- ----- -- ------ - ------- --- ----------<br>------------- ------ ------ says ---- ------- ----- -- ----<br>-------- ------- -- ---------- --- - --- ----- ----- ----<br>---- --- --- ----- --- ---- ---- ------- ----- ---- -------<br>--- --- -- ----- -- --- ---- -- --- ---- -- ------ ------<br>--- ----- -- ----,148905.40000009537,148904.90000009537,148450.116,148457.79999995232,148466.747,148916.76,,12,says
screen,html.Screen,2_1_0_1_13,2022-02-04T11:52:56.047Z,,,,,,,,,,,,,,,,,53,,,,,,,,,,,,,,532.3399999046233,,response,,,,99,,,,,,,Space,keypress(Space),,,,,,,,---- -- ----- -- ------ - ------- --- ----------<br>------------- ------ ------ ---- that ------- ----- -- ----<br>-------- ------- -- ---------- --- - --- ----- ----- ----<br>---- --- --- ----- --- ---- ---- ------- ----- ---- -------<br>--- --- -- ----- -- --- ---- -- --- ---- -- ------ ------<br>--- ----- -- ----,149449.5,149449.09999990463,148900.209,148905.40000009537,148916.76,149450.071,,13,that
screen,html.Screen,2_1_0_1_14,2022-02-04T11:52:56.495Z,,,,,,,,,,,,,,,,,53,,,,,,,,,,,,,,446.9290000000037,,response,,,,99,,,,,,,Space,keypress(Space),,,,,,,,---- -- ----- -- ------ - ------- --- ----------<br>------------- ------ ------ ---- ---- feeling ----- -- ----<br>-------- ------- -- ---------- --- - --- ----- ----- ----<br>---- --- --- ----- --- ---- ---- ------- ----- ---- -------<br>--- --- -- ----- -- --- ---- -- --- ---- -- ------ ------<br>--- ----- -- ----,149897.5,149897,149433.413,149449.70000004768,149450.071,149900.08,,14,feeling
screen,html.Screen,2_1_0_1_15,2022-02-04T11:52:57.007Z,,,,,,,,,,,,,,,,,53,,,,,,,,,,,,,,509.32000009538024,,response,,,,99,,,,,,,Space,keypress(Space),,,,,,,,---- -- ----- -- ------ - ------- --- ----------<br>------------- ------ ------ ---- ---- ------- close -- ----<br>-------- ------- -- ---------- --- - --- ----- ----- ----<br>---- --- --- ----- --- ---- ---- ------- ----- ---- -------<br>--- --- -- ----- -- --- ---- -- --- ---- -- ------ ------<br>--- ----- -- ----,150409.79999995232,150409.40000009537,149883.543,149897.59999990463,149900.08,150416.87,,15,close
screen,html.Screen,2_1_0_1_16,2022-02-04T11:52:57.359Z,,,,,,,,,,,,,,,,,53,,,,,,,,,,,,,,344.3300000476884,,response,,,,99,,,,,,,Space,keypress(Space),,,,,,,,---- -- ----- -- ------ - ------- --- ----------<br>------------- ------ ------ ---- ---- ------- ----- to ----<br>-------- ------- -- ---------- --- - --- ----- ----- ----<br>---- --- --- ----- --- ---- ---- ------- ----- ---- -------<br>--- --- -- ----- -- --- ---- -- --- ---- -- ------ ------<br>--- ----- -- ----,150761.59999990463,150761.20000004768,150400.027,150410,150416.87,150766.848,,16,to
screen,html.Screen,2_1_0_1_17,2022-02-04T11:52:57.807Z,,,,,,,,,,,,,,,,,53,,,,,,,,,,,,,,442.5520000953693,,response,,,,99,,,,,,,Space,keypress(Space),,,,,,,,---- -- ----- -- ------ - ------- --- ----------<br>------------- ------ ------ ---- ---- ------- ----- -- your<br>-------- ------- -- ---------- --- - --- ----- ----- ----<br>---- --- --- ----- --- ---- ---- ------- ----- ---- -------<br>--- --- -- ----- -- --- ---- -- --- ---- -- ------ ------<br>--- ----- -- ----,151209.79999995232,151209.40000009537,150750.243,150761.70000004768,150766.848,151216.731,,17,your
screen,html.Screen,2_1_0_1_18,2022-02-04T11:52:58.295Z,,,,,,,,,,,,,,,,,53,,,,,,,,,,,,,,480.8689999046328,,response,,,,99,,,,,,,Space,keypress(Space),,,,,,,,---- -- ----- -- ------ - ------- --- ----------<br>------------- ------ ------ ---- ---- ------- ----- -- ----<br>romantic ------- -- ---------- --- - --- ----- ----- ----<br>---- --- --- ----- --- ---- ---- ------- ----- ---- -------<br>--- --- -- ----- -- --- ---- -- --- ---- -- ------ ------<br>--- ----- -- ----,151698,151697.59999990463,151200.238,151209.90000009537,151216.731,151700.064,,18,romantic
screen,html.Screen,2_1_0_1_19,2022-02-04T11:52:58.679Z,,,,,,,,,,,,,,,,,53,,,,,,,,,,,,,,381.1360000476707,,response,,,,99,,,,,,,Space,keypress(Space),,,,,,,,---- -- ----- -- ------ - ------- --- ----------<br>------------- ------ ------ ---- ---- ------- ----- -- ----<br>-------- partner -- ---------- --- - --- ----- ----- ----<br>---- --- --- ----- --- ---- ---- ------- ----- ---- -------<br>--- --- -- ----- -- --- ---- -- --- ---- -- ------ ------<br>--- ----- -- ----,152081.70000004768,152081.20000004768,151683.379,151698.09999990463,151700.064,152083.386,,19,partner
screen,html.Screen,2_1_0_1_20,2022-02-04T11:52:59.063Z,,,,,,,,,,,,,,,,,53,,,,,,,,,,,,,,381.9139999523177,,response,,,,99,,,,,,,Space,keypress(Space),,,,,,,,---- -- ----- -- ------ - ------- --- ----------<br>------------- ------ ------ ---- ---- ------- ----- -- ----<br>-------- ------- is ---------- --- - --- ----- ----- ----<br>---- --- --- ----- --- ---- ---- ------- ----- ---- -------<br>--- --- -- ----- -- --- ---- -- --- ---- -- ------ ------<br>--- ----- -- ----,152465.79999995232,152465.29999995232,152066.879,152081.70000004768,152083.386,152466.686,,20,is
screen,html.Screen,2_1_0_1_21,2022-02-04T11:52:59.544Z,,,,,,,,,,,,,,,,,53,,,,,,,,,,,,,,479.6139999523293,,response,,,,99,,,,,,,Space,keypress(Space),,,,,,,,---- -- ----- -- ------ - ------- --- ----------<br>------------- ------ ------ ---- ---- ------- ----- -- ----<br>-------- ------- -- paramount. --- - --- ----- ----- ----<br>---- --- --- ----- --- ---- ---- ------- ----- ---- -------<br>--- --- -- ----- -- --- ---- -- --- ---- -- ------ ------<br>--- ----- -- ----,152946.79999995232,152946.29999995232,152450.14,152465.90000009537,152466.686,152950.034,,21,paramount.
screen,html.Screen,2_1_0_1_22,2022-02-04T11:53:00.151Z,,,,,,,,,,,,,,,,,53,,,,,,,,,,,,,,603.4659999999858,,response,,,,99,,,,,,,Space,keypress(Space),,,,,,,,---- -- ----- -- ------ - ------- --- ----------<br>------------- ------ ------ ---- ---- ------- ----- -- ----<br>-------- ------- -- ---------- But - --- ----- ----- ----<br>---- --- --- ----- --- ---- ---- ------- ----- ---- -------<br>--- --- -- ----- -- --- ---- -- --- ---- -- ------ ------<br>--- ----- -- ----,153553.90000009537,153553.5,152933.504,152946.90000009537,152950.034,153566.84,,22,But
screen,html.Screen,2_1_0_1_23,2022-02-04T11:53:00.695Z,,,,,,,,,,,,,,,,,53,,,,,,,,,,,,,,530.5600000953709,,response,,,,99,,,,,,,Space,keypress(Space),,,,,,,,---- -- ----- -- ------ - ------- --- ----------<br>------------- ------ ------ ---- ---- ------- ----- -- ----<br>-------- ------- -- ---------- --- a --- ----- ----- ----<br>---- --- --- ----- --- ---- ---- ------- ----- ---- -------<br>--- --- -- ----- -- --- ---- -- --- ---- -- ------ ------<br>--- ----- -- ----,154097.90000009537,154097.40000009537,153550.061,153554.09999990463,153566.84,154100.027,,23,a
screen,html.Screen,2_1_0_1_24,2022-02-04T11:53:01.143Z,,,,,,,,,,,,,,,,,53,,,,,,,,,,,,,,445.47299999999814,,response,,,,99,,,,,,,Space,keypress(Space),,,,,,,,---- -- ----- -- ------ - ------- --- ----------<br>------------- ------ ------ ---- ---- ------- ----- -- ----<br>-------- ------- -- ---------- --- - new ----- ----- ----<br>---- --- --- ----- --- ---- ---- ------- ----- ---- -------<br>--- --- -- ----- -- --- ---- -- --- ---- -- ------ ------<br>--- ----- -- ----,154546,154545.5,154083.905,154098.09999990463,154100.027,154550.04,,24,new
screen,html.Screen,2_1_0_1_25,2022-02-04T11:53:01.591Z,,,,,,,,,,,,,,,,,53,,,,,,,,,,,,,,443.75999995230814,,response,,,,99,,,,,,,Space,keypress(Space),,,,,,,,---- -- ----- -- ------ - ------- --- ----------<br>------------- ------ ------ ---- ---- ------- ----- -- ----<br>-------- ------- -- ---------- --- - --- study ----- ----<br>---- --- --- ----- --- ---- ---- ------- ----- ---- -------<br>--- --- -- ----- -- --- ---- -- --- ---- -- ------ ------<br>--- ----- -- ----,154994.09999990463,154993.79999995232,154533.497,154546,154550.04,155000.05,,25,study
screen,html.Screen,2_1_0_1_26,2022-02-04T11:53:02.047Z,,,,,,,,,,,,,,,,,53,,,,,,,,,,,,,,449.5499999046442,,response,,,,99,,,,,,,Space,keypress(Space),,,,,,,,---- -- ----- -- ------ - ------- --- ----------<br>------------- ------ ------ ---- ---- ------- ----- -- ----<br>-------- ------- -- ---------- --- - --- ----- finds ----<br>---- --- --- ----- --- ---- ---- ------- ----- ---- -------<br>--- --- -- ----- -- --- ---- -- --- ---- -- ------ ------<br>--- ----- -- ----,155450.09999990463,155449.59999990463,154983.485,154994.20000004768,155000.05,155467.131,,26,finds
screen,html.Screen,2_1_0_1_27,2022-02-04T11:53:02.495Z,,,,,,,,,,,,,,,,,53,,,,,,,,,,,,,,430.4689999046386,,response,,,,99,,,,,,,Space,keypress(Space),,,,,,,,---- -- ----- -- ------ - ------- --- ----------<br>------------- ------ ------ ---- ---- ------- ----- -- ----<br>-------- ------- -- ---------- --- - --- ----- ----- that<br>---- --- --- ----- --- ---- ---- ------- ----- ---- -------<br>--- --- -- ----- -- --- ---- -- --- ---- -- ------ ------<br>--- ----- -- ----,155898.09999990463,155897.59999990463,155449.987,155450.20000004768,155467.131,155900.022,,27,that
screen,html.Screen,2_1_0_1_28,2022-02-04T11:53:02.911Z,,,,,,,,,,,,,,,,,53,,,,,,,,,,,,,,413.57799990463536,,response,,,,99,,,,,,,Space,keypress(Space),,,,,,,,---- -- ----- -- ------ - ------- --- ----------<br>------------- ------ ------ ---- ---- ------- ----- -- ----<br>-------- ------- -- ---------- --- - --- ----- ----- ----<br>it's --- --- ----- --- ---- ---- ------- ----- ---- -------<br>--- --- -- ----- -- --- ---- -- --- ---- -- ------ ------<br>--- ----- -- ----,156314,156313.59999990463,155883.993,155898.20000004768,155900.022,156316.707,,28,it's
screen,html.Screen,2_1_0_1_29,2022-02-04T11:53:03.167Z,,,,,,,,,,,,,,,,,53,,,,,,,,,,,,,,253.19300009537255,,response,,,,99,,,,,,,Space,keypress(Space),,,,,,,,---- -- ----- -- ------ - ------- --- ----------<br>------------- ------ ------ ---- ---- ------- ----- -- ----<br>-------- ------- -- ---------- --- - --- ----- ----- ----<br>---- not --- ----- --- ---- ---- ------- ----- ---- -------<br>--- --- -- ----- -- --- ---- -- --- ---- -- ------ ------<br>--- ----- -- ----,156570.29999995232,156569.90000009537,156300.14,156314.09999990463,156316.707,156583.477,,29,not
screen,html.Screen,2_1_0_1_30,2022-02-04T11:53:03.487Z,,,,,,,,,,,,,,,,,53,,,,,,,,,,,,,,306.2230000476702,,response,,,,99,,,,,,,Space,keypress(Space),,,,,,,,---- -- ----- -- ------ - ------- --- ----------<br>------------- ------ ------ ---- ---- ------- ----- -- ----<br>-------- ------- -- ---------- --- - --- ----- ----- ----<br>---- --- how ----- --- ---- ---- ------- ----- ---- -------<br>--- --- -- ----- -- --- ---- -- --- ---- -- ------ ------<br>--- ----- -- ----,156890.20000004768,156889.70000004768,156567.094,156570.40000009537,156583.477,156900.036,,30,how
screen,html.Screen,2_1_0_1_31,2022-02-04T11:53:03.840Z,,,,,,,,,,,,,,,,,53,,,,,,,,,,,,,,342.2639999523235,,response,,,,99,,,,,,,Space,keypress(Space),,,,,,,,---- -- ----- -- ------ - ------- --- ----------<br>------------- ------ ------ ---- ---- ------- ----- -- ----<br>-------- ------- -- ---------- --- - --- ----- ----- ----<br>---- --- --- close --- ---- ---- ------- ----- ---- -------<br>--- --- -- ----- -- --- ---- -- --- ---- -- ------ ------<br>--- ----- -- ----,157242.79999995232,157242.29999995232,156883.395,156890.29999995232,156900.036,157250.163,,31,close
screen,html.Screen,2_1_0_1_32,2022-02-04T11:53:04.127Z,,,,,,,,,,,,,,,,,53,,,,,,,,,,,,,,279.6369999523158,,response,,,,99,,,,,,,Space,keypress(Space),,,,,,,,---- -- ----- -- ------ - ------- --- ----------<br>------------- ------ ------ ---- ---- ------- ----- -- ----<br>-------- ------- -- ---------- --- - --- ----- ----- ----<br>---- --- --- ----- you ---- ---- ------- ----- ---- -------<br>--- --- -- ----- -- --- ---- -- --- ---- -- ------ ------<br>--- ----- -- ----,157530.29999995232,157529.79999995232,157233.897,157242.79999995232,157250.163,157533.325,,32,you
screen,html.Screen,2_1_0_1_33,2022-02-04T11:53:04.511Z,,,,,,,,,,,,,,,,,53,,,,,,,,,,,,,,380.5750000953558,,response,,,,99,,,,,,,Space,keypress(Space),,,,,,,,---- -- ----- -- ------ - ------- --- ----------<br>------------- ------ ------ ---- ---- ------- ----- -- ----<br>-------- ------- -- ---------- --- - --- ----- ----- ----<br>---- --- --- ----- --- feel ---- ------- ----- ---- -------<br>--- --- -- ----- -- --- ---- -- --- ---- -- ------ ------<br>--- ----- -- ----,157914.20000004768,157913.90000009537,157516.945,157530.40000009537,157533.325,157916.651,,33,feel
screen,html.Screen,2_1_0_1_34,2022-02-04T11:53:04.928Z,,,,,,,,,,,,,,,,,53,,,,,,,,,,,,,,413.6489999523037,,response,,,,99,,,,,,,Space,keypress(Space),,,,,,,,---- -- ----- -- ------ - ------- --- ----------<br>------------- ------ ------ ---- ---- ------- ----- -- ----<br>-------- ------- -- ---------- --- - --- ----- ----- ----<br>---- --- --- ----- --- ---- that ------- ----- ---- -------<br>--- --- -- ----- -- --- ---- -- --- ---- -- ------ ------<br>--- ----- -- ----,158330.79999995232,158330.29999995232,157900.127,157914.40000009537,157916.651,158333.348,,34,that
screen,html.Screen,2_1_0_1_35,2022-02-04T11:53:05.311Z,,,,,,,,,,,,,,,,,53,,,,,,,,,,,,,,380.5520000953693,,response,,,,99,,,,,,,Space,keypress(Space),,,,,,,,---- -- ----- -- ------ - ------- --- ----------<br>------------- ------ ------ ---- ---- ------- ----- -- ----<br>-------- ------- -- ---------- --- - --- ----- ----- ----<br>---- --- --- ----- --- ---- ---- matters ----- ---- -------<br>--- --- -- ----- -- --- ---- -- --- ---- -- ------ ------<br>--- ----- -- ----,158714.29999995232,158713.90000009537,158316.844,158330.90000009537,158333.348,158716.666,,35,matters
screen,html.Screen,2_1_0_1_36,2022-02-04T11:53:05.696Z,,,,,,,,,,,,,,,,,53,,,,,,,,,,,,,,381.63399995231885,,response,,,,99,,,,,,,Space,keypress(Space),,,,,,,,"---- -- ----- -- ------ - ------- --- ----------<br>------------- ------ ------ ---- ---- ------- ----- -- ----<br>-------- ------- -- ---------- --- - --- ----- ----- ----<br>---- --- --- ----- --- ---- ---- ------- most, ---- -------<br>--- --- -- ----- -- --- ---- -- --- ---- -- ------ ------<br>--- ----- -- ----",159098.79999995232,159098.29999995232,158700.172,158714.5,158716.666,159100.01,,36,"most,"
screen,html.Screen,2_1_0_1_37,2022-02-04T11:53:06.151Z,,,,,,,,,,,,,,,,,53,,,,,,,,,,,,,,453.8900000953581,,response,,,,99,,,,,,,Space,keypress(Space),,,,,,,,---- -- ----- -- ------ - ------- --- ----------<br>------------- ------ ------ ---- ---- ------- ----- -- ----<br>-------- ------- -- ---------- --- - --- ----- ----- ----<br>---- --- --- ----- --- ---- ---- ------- ----- it's -------<br>--- --- -- ----- -- --- ---- -- --- ---- -- ------ ------<br>--- ----- -- ----,159554.29999995232,159553.90000009537,159083.497,159098.90000009537,159100.01,159566.721,,37,it's
screen,html.Screen,2_1_0_1_38,2022-02-04T11:53:06.568Z,,,,,,,,,,,,,,,,,53,,,,,,,,,,,,,,403.27900000000955,,response,,,,99,,,,,,,Space,keypress(Space),,,,,,,,---- -- ----- -- ------ - ------- --- ----------<br>------------- ------ ------ ---- ---- ------- ----- -- ----<br>-------- ------- -- ---------- --- - --- ----- ----- ----<br>---- --- --- ----- --- ---- ---- ------- ----- ---- whether<br>--- --- -- ----- -- --- ---- -- --- ---- -- ------ ------<br>--- ----- -- ----,159970.5,159970,159550.112,159554.40000009537,159566.721,159983.347,,38,whether
screen,html.Screen,2_1_0_1_39,2022-02-04T11:53:06.919Z,,,,,,,,,,,,,,,,,53,,,,,,,,,,,,,,338.45299995230744,,response,,,,99,,,,,,,Space,keypress(Space),,,,,,,,---- -- ----- -- ------ - ------- --- ----------<br>------------- ------ ------ ---- ---- ------- ----- -- ----<br>-------- ------- -- ---------- --- - --- ----- ----- ----<br>---- --- --- ----- --- ---- ---- ------- ----- ---- -------<br>you --- -- ----- -- --- ---- -- --- ---- -- ------ ------<br>--- ----- -- ----,160322.29999995232,160321.79999995232,159966.671,159970.59999990463,159983.347,160333.464,,39,you
screen,html.Screen,2_1_0_1_40,2022-02-04T11:53:07.208Z,,,,,,,,,,,,,,,,,53,,,,,,,,,,,,,,276.5359999999928,,response,,,,99,,,,,,,Space,keypress(Space),,,,,,,,---- -- ----- -- ------ - ------- --- ----------<br>------------- ------ ------ ---- ---- ------- ----- -- ----<br>-------- ------- -- ---------- --- - --- ----- ----- ----<br>---- --- --- ----- --- ---- ---- ------- ----- ---- -------<br>--- are -- ----- -- --- ---- -- --- ---- -- ------ ------<br>--- ----- -- ----,160610.40000009537,160610,160317.117,160322.29999995232,160333.464,160616.655,,40,are
screen,html.Screen,2_1_0_1_41,2022-02-04T11:53:07.496Z,,,,,,,,,,,,,,,,,53,,,,,,,,,,,,,,281.2450000953686,,response,,,,99,,,,,,,Space,keypress(Space),,,,,,,,---- -- ----- -- ------ - ------- --- ----------<br>------------- ------ ------ ---- ---- ------- ----- -- ----<br>-------- ------- -- ---------- --- - --- ----- ----- ----<br>---- --- --- ----- --- ---- ---- ------- ----- ---- -------<br>--- --- as ----- -- --- ---- -- --- ---- -- ------ ------<br>--- ----- -- ----,160898.29999995232,160897.90000009537,160600.515,160610.59999990463,160616.655,160899.98,,41,as
screen,html.Screen,2_1_0_1_42,2022-02-04T11:53:08.072Z,,,,,,,,,,,,,,,,,53,,,,,,,,,,,,,,574.3199999523058,,response,,,,99,,,,,,,Space,keypress(Space),,,,,,,,---- -- ----- -- ------ - ------- --- ----------<br>------------- ------ ------ ---- ---- ------- ----- -- ----<br>-------- ------- -- ---------- --- - --- ----- ----- ----<br>---- --- --- ----- --- ---- ---- ------- ----- ---- -------<br>--- --- -- close -- --- ---- -- --- ---- -- ------ ------<br>--- ----- -- ----,161474.70000004768,161474.29999995232,160883.561,160898.40000009537,160899.98,161483.317,,42,close
screen,html.Screen,2_1_0_1_43,2022-02-04T11:53:08.520Z,,,,,,,,,,,,,,,,,53,,,,,,,,,,,,,,438.8830000476737,,response,,,,99,,,,,,,Space,keypress(Space),,,,,,,,---- -- ----- -- ------ - ------- --- ----------<br>------------- ------ ------ ---- ---- ------- ----- -- ----<br>-------- ------- -- ---------- --- - --- ----- ----- ----<br>---- --- --- ----- --- ---- ---- ------- ----- ---- -------<br>--- --- -- ----- as --- ---- -- --- ---- -- ------ ------<br>--- ----- -- ----,161922.59999990463,161922.20000004768,161466.76,161474.79999995232,161483.317,161933.475,,43,as
screen,html.Screen,2_1_0_1_44,2022-02-04T11:53:09.096Z,,,,,,,,,,,,,,,,,53,,,,,,,,,,,,,,564.5249999999942,,response,,,,99,,,,,,,Space,keypress(Space),,,,,,,,---- -- ----- -- ------ - ------- --- ----------<br>------------- ------ ------ ---- ---- ------- ----- -- ----<br>-------- ------- -- ---------- --- - --- ----- ----- ----<br>---- --- --- ----- --- ---- ---- ------- ----- ---- -------<br>--- --- -- ----- -- you ---- -- --- ---- -- ------ ------<br>--- ----- -- ----,162498.5,162498,161917.105,161922.79999995232,161933.475,162499.978,,44,you
screen,html.Screen,2_1_0_1_45,2022-02-04T11:53:09.584Z,,,,,,,,,,,,,,,,,53,,,,,,,,,,,,,,486.6219999046298,,response,,,,99,,,,,,,Space,keypress(Space),,,,,,,,---- -- ----- -- ------ - ------- --- ----------<br>------------- ------ ------ ---- ---- ------- ----- -- ----<br>-------- ------- -- ---------- --- - --- ----- ----- ----<br>---- --- --- ----- --- ---- ---- ------- ----- ---- -------<br>--- --- -- ----- -- --- want -- --- ---- -- ------ ------<br>--- ----- -- ----,162987,162986.59999990463,162483.905,162498.59999990463,162499.978,163000.091,,45,want
screen,html.Screen,2_1_0_1_46,2022-02-04T11:53:10.096Z,,,,,,,,,,,,,,,,,53,,,,,,,,,,,,,,498.00899990464677,,response,,,,99,,,,,,,Space,keypress(Space),,,,,,,,---- -- ----- -- ------ - ------- --- ----------<br>------------- ------ ------ ---- ---- ------- ----- -- ----<br>-------- ------- -- ---------- --- - --- ----- ----- ----<br>---- --- --- ----- --- ---- ---- ------- ----- ---- -------<br>--- --- -- ----- -- --- ---- to --- ---- -- ------ ------<br>--- ----- -- ----,163498.59999990463,163498.09999990463,162983.62,162987.09999990463,163000.091,163499.975,,46,to
screen,html.Screen,2_1_0_1_47,2022-02-04T11:53:10.544Z,,,,,,,,,,,,,,,,,53,,,,,,,,,,,,,,446.32499995231046,,response,,,,99,,,,,,,Space,keypress(Space),,,,,,,,"---- -- ----- -- ------ - ------- --- ----------<br>------------- ------ ------ ---- ---- ------- ----- -- ----<br>-------- ------- -- ---------- --- - --- ----- ----- ----<br>---- --- --- ----- --- ---- ---- ------- ----- ---- -------<br>--- --- -- ----- -- --- ---- -- be, ---- -- ------ ------<br>--- ----- -- ----",163946.70000004768,163946.29999995232,163483.423,163498.70000004768,163499.975,163949.949,,47,"be,"
screen,html.Screen,2_1_0_1_48,2022-02-04T11:53:10.992Z,,,,,,,,,,,,,,,,,53,,,,,,,,,,,,,,444.1509999046393,,response,,,,99,,,,,,,Space,keypress(Space),,,,,,,,---- -- ----- -- ------ - ------- --- ----------<br>------------- ------ ------ ---- ---- ------- ----- -- ----<br>-------- ------- -- ---------- --- - --- ----- ----- ----<br>---- --- --- ----- --- ---- ---- ------- ----- ---- -------<br>--- --- -- ----- -- --- ---- -- --- even -- ------ ------<br>--- ----- -- ----,164394.59999990463,164394.09999990463,163933.263,163946.79999995232,163949.949,164400.123,,48,even
screen,html.Screen,2_1_0_1_49,2022-02-04T11:53:11.312Z,,,,,,,,,,,,,,,,,53,,,,,,,,,,,,,,314.0770000476914,,response,,,,99,,,,,,,Space,keypress(Space),,,,,,,,---- -- ----- -- ------ - ------- --- ----------<br>------------- ------ ------ ---- ---- ------- ----- -- ----<br>-------- ------- -- ---------- --- - --- ----- ----- ----<br>---- --- --- ----- --- ---- ---- ------- ----- ---- -------<br>--- --- -- ----- -- --- ---- -- --- ---- if ------ ------<br>--- ----- -- ----,164714.59999990463,164714.20000004768,164383.948,164394.79999995232,164400.123,164716.588,,49,if
screen,html.Screen,2_1_0_1_50,2022-02-04T11:53:11.728Z,,,,,,,,,,,,,,,,,53,,,,,,,,,,,,,,413.8120000953786,,response,,,,99,,,,,,,Space,keypress(Space),,,,,,,,---- -- ----- -- ------ - ------- --- ----------<br>------------- ------ ------ ---- ---- ------- ----- -- ----<br>-------- ------- -- ---------- --- - --- ----- ----- ----<br>---- --- --- ----- --- ---- ---- ------- ----- ---- -------<br>--- --- -- ----- -- --- ---- -- --- ---- -- that's ------<br>--- ----- -- ----,165131,165130.40000009537,164700.087,164714.70000004768,164716.588,165133.284,,50,that's
screen,html.Screen,2_1_0_1_51,2022-02-04T11:53:12.144Z,,,,,,,,,,,,,,,,,53,,,,,,,,,,,,,,413.5159999523021,,response,,,,99,,,,,,,Space,keypress(Space),,,,,,,,---- -- ----- -- ------ - ------- --- ----------<br>------------- ------ ------ ---- ---- ------- ----- -- ----<br>-------- ------- -- ---------- --- - --- ----- ----- ----<br>---- --- --- ----- --- ---- ---- ------- ----- ---- -------<br>--- --- -- ----- -- --- ---- -- --- ---- -- ------ really<br>--- ----- -- ----,165547.40000009537,165546.79999995232,165116.585,165131.09999990463,165133.284,165549.934,,51,really
screen,html.Screen,2_1_0_1_52,2022-02-04T11:53:12.592Z,,,,,,,,,,,,,,,,,53,,,,,,,,,,,,,,444.46600009535905,,response,,,,99,,,,,,,Space,keypress(Space),,,,,,,,---- -- ----- -- ------ - ------- --- ----------<br>------------- ------ ------ ---- ---- ------- ----- -- ----<br>-------- ------- -- ---------- --- - --- ----- ----- ----<br>---- --- --- ----- --- ---- ---- ------- ----- ---- -------<br>--- --- -- ----- -- --- ---- -- --- ---- -- ------ ------<br>not ----- -- ----,165994.90000009537,165994.40000009537,165533.4,165547.40000009537,165549.934,165999.972,,52,not
screen,html.Screen,2_1_0_1_53,2022-02-04T11:53:13.048Z,,,,,,,,,,,,,,,,,53,,,,,,,,,,,,,,450.52799999999115,,response,,,,99,,,,,,,Space,keypress(Space),,,,,,,,---- -- ----- -- ------ - ------- --- ----------<br>------------- ------ ------ ---- ---- ------- ----- -- ----<br>-------- ------- -- ---------- --- - --- ----- ----- ----<br>---- --- --- ----- --- ---- ---- ------- ----- ---- -------<br>--- --- -- ----- -- --- ---- -- --- ---- -- ------ ------<br>--- close -- ----,166450.90000009537,166450.5,165983.438,165995,165999.972,166466.662,,53,close
screen,html.Screen,2_1_0_1_54,2022-02-04T11:53:13.496Z,,,,,,,,,,,,,,,,,53,,,,,,,,,,,,,,431.6379999523051,,response,,,,99,,,,,,,Space,keypress(Space),,,,,,,,---- -- ----- -- ------ - ------- --- ----------<br>------------- ------ ------ ---- ---- ------- ----- -- ----<br>-------- ------- -- ---------- --- - --- ----- ----- ----<br>---- --- --- ----- --- ---- ---- ------- ----- ---- -------<br>--- --- -- ----- -- --- ---- -- --- ---- -- ------ ------<br>--- ----- at ----,166898.79999995232,166898.29999995232,166450.05,166451,166466.662,166899.93,,54,at
screen,html.Screen,2_1_0_1_55,2022-02-04T11:53:15.192Z,,,,,,,,,,,,,,,,,53,,,,,,,,,,,,,,1694.6699999046396,,response,,,,99,,,,,,,Space,keypress(Space),,,,,,,,---- -- ----- -- ------ - ------- --- ----------<br>------------- ------ ------ ---- ---- ------- ----- -- ----<br>-------- ------- -- ---------- --- - --- ----- ----- ----<br>---- --- --- ----- --- ---- ---- ------- ----- ---- -------<br>--- --- -- ----- -- --- ---- -- --- ---- -- ------ ------<br>--- ----- -- all.,168595.09999990463,168594.59999990463,166883.79,166899,166899.93,168600.174,,55,all.
Item 99,flow.Loop,2_1_0_1,2022-02-04T11:53:15.192Z,,,,,,,,,,,,,,,,,,,,,,,,,,,,,,,26911.030999904644,,completion,,,,,C,,,,,,,,,,,silence,,,,,168595.29999995232,168594.59999990463,141666.838,141668.29999995232,141683.569,168600.174,,,
Question 1,html.Screen,2_1_0_2,2022-02-04T11:53:20.660Z,,,,,,,,,,,,,,,,,,,,,,,,,,,,true,FALSE,,5461.526000047685,,response,,,,99,C,,,,,,FALSE,click #choice-2,,,,silence,,,,,174062.90000009537,174061.70000004768,168583.296,168595.40000009537,168600.174,174066.555,,,
Question 2,html.Screen,2_1_0_3,2022-02-04T11:53:30.717Z,,,,,,,,,,,,,,,,,,,,,,,,,,,,true,TRUE,,10052.14500004769,,response,,,,99,C,,,,,,TRUE,click #choice-1,,,,silence,,,,,184119.59999990463,184118.70000004768,174050.126,174063,174066.555,184133.339,,,
Item 99,flow.Sequence,2_1_0,2022-02-04T11:53:30.717Z,,,,,,,,,,,,,,,,,,,,,,,,,,,,,,,52435.14700004767,,completion,,,,,,,,,,,,,,,,,,,,,184119.79999995232,184118.70000004768,131666.877,131668.90000009537,131683.553,184133.339,,,
Holding screen,html.Screen,2_1_1_0,2022-02-04T11:53:40.715Z,,,,,,,,,,,,,,,,,,,,,,,,,,,,,,,9999.869999999995,,timeout,,,,,,,,,,,,,,,,,,,,,194117.90000009537,194116.502,184116.655,184119.79999995232,184133.339,194133.209,,,
screen,html.Screen,2_1_1_1_0,2022-02-04T11:53:42.322Z,,,,,,,,,,,,,,,,,54,,,,,,,,,,,,,,1591.9910000476812,,response,,,,100,,,,,,,Space,keypress(Space),,,,,,,,At --- ---- --- ------ ----- ------- ---- -- --- ------- --<br>------- ---------- ------ -- ----- -- ----- -- ---- ------<br>--- ----- --- --- ------ -------- ----- --- ------ ----- --<br>----- ----- ---------- --- --- ------ ------ ---- -- ------<br>------- --- ------ ----- --- ---- ------- -- ---- --- --<br>------- ------,195725.70000004768,195725.20000004768,194116.502,194118,194133.209,195733.212,,0,At
screen,html.Screen,2_1_1_1_1,2022-02-04T11:53:42.738Z,,,,,,,,,,,,,,,,,54,,,,,,,,,,,,,,407.4880000476842,,response,,,,100,,,,,,,Space,keypress(Space),,,,,,,,-- the ---- --- ------ ----- ------- ---- -- --- ------- --<br>------- ---------- ------ -- ----- -- ----- -- ---- ------<br>--- ----- --- --- ------ -------- ----- --- ------ ----- --<br>----- ----- ---------- --- --- ------ ------ ---- -- ------<br>------- --- ------ ----- --- ---- ------- -- ---- --- --<br>------- ------,196141.09999990463,196140.70000004768,195716.495,195725.79999995232,195733.212,196149.858,,1,the
screen,html.Screen,2_1_1_1_2,2022-02-04T11:53:43.090Z,,,,,,,,,,,,,,,,,54,,,,,,,,,,,,,,343.14199999999255,,response,,,,100,,,,,,,Space,keypress(Space),,,,,,,,-- --- time --- ------ ----- ------- ---- -- --- ------- --<br>------- ---------- ------ -- ----- -- ----- -- ---- ------<br>--- ----- --- --- ------ -------- ----- --- ------ ----- --<br>----- ----- ---------- --- --- ------ ------ ---- -- ------<br>------- --- ------ ----- --- ---- ------- -- ---- --- --<br>------- ------,196493.40000009537,196493,196133.158,196141.20000004768,196149.858,196499.856,,2,time
screen,html.Screen,2_1_1_1_3,2022-02-04T11:53:43.474Z,,,,,,,,,,,,,,,,,54,,,,,,,,,,,,,,376.84400004768395,,response,,,,100,,,,,,,Space,keypress(Space),,,,,,,,-- --- ---- the ------ ----- ------- ---- -- --- ------- --<br>------- ---------- ------ -- ----- -- ----- -- ---- ------<br>--- ----- --- --- ------ -------- ----- --- ------ ----- --<br>----- ----- ---------- --- --- ------ ------ ---- -- ------<br>------- --- ------ ----- --- ---- ------- -- ---- --- --<br>------- ------,196877.09999990463,196876.70000004768,196483.056,196493.5,196499.856,196883.247,,3,the
screen,html.Screen,2_1_1_1_4,2022-02-04T11:53:43.922Z,,,,,,,,,,,,,,,,,54,,,,,,,,,,,,,,441.55299995231326,,response,,,,100,,,,,,,Space,keypress(Space),,,,,,,,-- --- ---- --- French ----- ------- ---- -- --- ------- --<br>------- ---------- ------ -- ----- -- ----- -- ---- ------<br>--- ----- --- --- ------ -------- ----- --- ------ ----- --<br>----- ----- ---------- --- --- ------ ------ ---- -- ------<br>------- --- ------ ----- --- ---- ------- -- ---- --- --<br>------- ------,197325.29999995232,197324.79999995232,196867.105,196877.20000004768,196883.247,197333.222,,4,French
screen,html.Screen,2_1_1_1_5,2022-02-04T11:53:44.434Z,,,,,,,,,,,,,,,,,54,,,,,,,,,,,,,,503.57799995230744,,response,,,,100,,,,,,,Space,keypress(Space),,,,,,,,-- --- ---- --- ------ crown ------- ---- -- --- ------- --<br>------- ---------- ------ -- ----- -- ----- -- ---- ------<br>--- ----- --- --- ------ -------- ----- --- ------ ----- --<br>----- ----- ---------- --- --- ------ ------ ---- -- ------<br>------- --- ------ ----- --- ---- ------- -- ---- --- --<br>------- ------,197837.29999995232,197836.79999995232,197317.002,197325.40000009537,197333.222,197849.839,,5,crown
screen,html.Screen,2_1_1_1_6,2022-02-04T11:53:45.114Z,,,,,,,,,,,,,,,,,54,,,,,,,,,,,,,,667.1609999999928,,response,,,,100,,,,,,,Space,keypress(Space),,,,,,,,-- --- ---- --- ------ ----- secured ---- -- --- ------- --<br>------- ---------- ------ -- ----- -- ----- -- ---- ------<br>--- ----- --- --- ------ -------- ----- --- ------ ----- --<br>----- ----- ---------- --- --- ------ ------ ---- -- ------<br>------- --- ------ ----- --- ---- ------- -- ---- --- --<br>------- ------,198517.5,198517,197833.204,197837.40000009537,197849.839,198533.34,,6,secured
screen,html.Screen,2_1_1_1_7,2022-02-04T11:53:45.626Z,,,,,,,,,,,,,,,,,54,,,,,,,,,,,,,,495.6600000000035,,response,,,,100,,,,,,,Space,keypress(Space),,,,,,,,-- --- ---- --- ------ ----- ------- much -- --- ------- --<br>------- ---------- ------ -- ----- -- ----- -- ---- ------<br>--- ----- --- --- ------ -------- ----- --- ------ ----- --<br>----- ----- ---------- --- --- ------ ------ ---- -- ------<br>------- --- ------ ----- --- ---- ------- -- ---- --- --<br>------- ------,199029.5,199029,198516.49,198517.5,198533.34,199032.996,,7,much
screen,html.Screen,2_1_1_1_8,2022-02-04T11:53:46.074Z,,,,,,,,,,,,,,,,,54,,,,,,,,,,,,,,444.00399999998626,,response,,,,100,,,,,,,Space,keypress(Space),,,,,,,,-- --- ---- --- ------ ----- ------- ---- of --- ------- --<br>------- ---------- ------ -- ----- -- ----- -- ---- ------<br>--- ----- --- --- ------ -------- ----- --- ------ ----- --<br>----- ----- ---------- --- --- ------ ------ ---- -- ------<br>------- --- ------ ----- --- ---- ------- -- ---- --- --<br>------- ------,199477.5,199477,199016.473,199029.5,199032.996,199483.037,,8,of
screen,html.Screen,2_1_1_1_9,2022-02-04T11:53:46.522Z,,,,,,,,,,,,,,,,,54,,,,,,,,,,,,,,442.0629999046214,,response,,,,100,,,,,,,Space,keypress(Space),,,,,,,,-- --- ---- --- ------ ----- ------- ---- -- its ------- --<br>------- ---------- ------ -- ----- -- ----- -- ---- ------<br>--- ----- --- --- ------ -------- ----- --- ------ ----- --<br>----- ----- ---------- --- --- ------ ------ ---- -- ------<br>------- --- ------ ----- --- ---- ------- -- ---- --- --<br>------- ------,199925.59999990463,199925.09999990463,199466.482,199477.5,199483.037,199933.015,,9,its
screen,html.Screen,2_1_1_1_10,2022-02-04T11:53:46.939Z,,,,,,,,,,,,,,,,,54,,,,,,,,,,,,,,408.48499999998603,,response,,,,100,,,,,,,Space,keypress(Space),,,,,,,,-- --- ---- --- ------ ----- ------- ---- -- --- revenue --<br>------- ---------- ------ -- ----- -- ----- -- ---- ------<br>--- ----- --- --- ------ -------- ----- --- ------ ----- --<br>----- ----- ---------- --- --- ------ ------ ---- -- ------<br>------- --- ------ ----- --- ---- ------- -- ---- --- --<br>------- ------,200342,200341.5,199916.461,199925.59999990463,199933.015,200349.682,,10,revenue
screen,html.Screen,2_1_1_1_11,2022-02-04T11:53:47.386Z,,,,,,,,,,,,,,,,,54,,,,,,,,,,,,,,439.3179999999993,,response,,,,100,,,,,,,Space,keypress(Space),,,,,,,,-- --- ---- --- ------ ----- ------- ---- -- --- ------- by<br>------- ---------- ------ -- ----- -- ----- -- ---- ------<br>--- ----- --- --- ------ -------- ----- --- ------ ----- --<br>----- ----- ---------- --- --- ------ ------ ---- -- ------<br>------- --- ------ ----- --- ---- ------- -- ---- --- --<br>------- ------,200789.5,200789,200333.133,200342.09999990463,200349.682,200799.826,,11,by
screen,html.Screen,2_1_1_1_12,2022-02-04T11:53:48.218Z,,,,,,,,,,,,,,,,,54,,,,,,,,,,,,,,821.3740000476828,,response,,,,100,,,,,,,Space,keypress(Space),,,,,,,,-- --- ---- --- ------ ----- ------- ---- -- --- ------- --<br>issuing ---------- ------ -- ----- -- ----- -- ---- ------<br>--- ----- --- --- ------ -------- ----- --- ------ ----- --<br>----- ----- ---------- --- --- ------ ------ ---- -- ------<br>------- --- ------ ----- --- ---- ------- -- ---- --- --<br>------- ------,201621.59999990463,201621.20000004768,200783.17,200789.59999990463,200799.826,201633.011,,12,issuing
screen,html.Screen,2_1_1_1_13,2022-02-04T11:53:49.059Z,,,,,,,,,,,,,,,,,54,,,,,,,,,,,,,,828.1890000476851,,response,,,,100,,,,,,,Space,keypress(Space),,,,,,,,-- --- ---- --- ------ ----- ------- ---- -- --- ------- --<br>------- government ------ -- ----- -- ----- -- ---- ------<br>--- ----- --- --- ------ -------- ----- --- ------ ----- --<br>----- ----- ---------- --- --- ------ ------ ---- -- ------<br>------- --- ------ ----- --- ---- ------- -- ---- --- --<br>------- ------,202461.79999995232,202461.20000004768,201616.305,201621.70000004768,201633.011,202466.453,,13,government
screen,html.Screen,2_1_1_1_14,2022-02-04T11:53:53.483Z,,,,,,,,,,,,,,,,,54,,,,,,,,,,,,,,4419.546999999991,,response,,,,100,,,,,,,Space,keypress(Space),,,,,,,,-- --- ---- --- ------ ----- ------- ---- -- --- ------- --<br>------- ---------- bonds. -- ----- -- ----- -- ---- ------<br>--- ----- --- --- ------ -------- ----- --- ------ ----- --<br>----- ----- ---------- --- --- ------ ------ ---- -- ------<br>------- --- ------ ----- --- ---- ------- -- ---- --- --<br>------- ------,206886.5,206886,202449.695,202461.79999995232,202466.453,206899.613,,14,bonds.
screen,html.Screen,2_1_1_1_15,2022-02-04T11:53:53.931Z,,,,,,,,,,,,,,,,,54,,,,,,,,,,,,,,433.98699990462046,,response,,,,100,,,,,,,Space,keypress(Space),,,,,,,,-- --- ---- --- ------ ----- ------- ---- -- --- ------- --<br>------- ---------- ------ In ----- -- ----- -- ---- ------<br>--- ----- --- --- ------ -------- ----- --- ------ ----- --<br>----- ----- ---------- --- --- ------ ------ ---- -- ------<br>------- --- ------ ----- --- ---- ------- -- ---- --- --<br>------- ------,207334.09999990463,207333.59999990463,206883.092,206886.70000004768,206899.613,207349.924,,15,In
screen,html.Screen,2_1_1_1_16,2022-02-04T11:53:54.315Z,,,,,,,,,,,,,,,,,54,,,,,,,,,,,,,,367.57600000000093,,response,,,,100,,,,,,,Space,keypress(Space),,,,,,,,"-- --- ---- --- ------ ----- ------- ---- -- --- ------- --<br>------- ---------- ------ -- 1727, -- ----- -- ---- ------<br>--- ----- --- --- ------ -------- ----- --- ------ ----- --<br>----- ----- ---------- --- --- ------ ------ ---- -- ------<br>------- --- ------ ----- --- ---- ------- -- ---- --- --<br>------- ------",207717.90000009537,207717.5,207333.142,207334.20000004768,207349.924,207733.081,,16,"1727,"
screen,html.Screen,2_1_1_1_17,2022-02-04T11:53:55.691Z,,,,,,,,,,,,,,,,,54,,,,,,,,,,,,,,1360.6190000476781,,response,,,,100,,,,,,,Space,keypress(Space),,,,,,,,-- --- ---- --- ------ ----- ------- ---- -- --- ------- --<br>------- ---------- ------ -- ----- in ----- -- ---- ------<br>--- ----- --- --- ------ -------- ----- --- ------ ----- --<br>----- ----- ---------- --- --- ------ ------ ---- -- ------<br>------- --- ------ ----- --- ---- ------- -- ---- --- --<br>------- ------,209094.20000004768,209093.70000004768,207716.42,207718.09999990463,207733.081,209099.761,,17,in
screen,html.Screen,2_1_1_1_18,2022-02-04T11:53:56.171Z,,,,,,,,,,,,,,,,,54,,,,,,,,,,,,,,474.0389999523177,,response,,,,100,,,,,,,Space,keypress(Space),,,,,,,,-- --- ---- --- ------ ----- ------- ---- -- --- ------- --<br>------- ---------- ------ -- ----- -- order -- ---- ------<br>--- ----- --- --- ------ -------- ----- --- ------ ----- --<br>----- ----- ---------- --- --- ------ ------ ---- -- ------<br>------- --- ------ ----- --- ---- ------- -- ---- --- --<br>------- ------,209574.29999995232,209573.79999995232,209083.182,209094.29999995232,209099.761,209583.255,,18,order
screen,html.Screen,2_1_1_1_19,2022-02-04T11:53:56.555Z,,,,,,,,,,,,,,,,,54,,,,,,,,,,,,,,374.44500004767906,,response,,,,100,,,,,,,Space,keypress(Space),,,,,,,,-- --- ---- --- ------ ----- ------- ---- -- --- ------- --<br>------- ---------- ------ -- ----- -- ----- to ---- ------<br>--- ----- --- --- ------ -------- ----- --- ------ ----- --<br>----- ----- ---------- --- --- ------ ------ ---- -- ------<br>------- --- ------ ----- --- ---- ------- -- ---- --- --<br>------- ------,209958.20000004768,209957.70000004768,209566.797,209574.29999995232,209583.255,209966.374,,19,to
screen,html.Screen,2_1_1_1_20,2022-02-04T11:53:57.107Z,,,,,,,,,,,,,,,,,54,,,,,,,,,,,,,,543.5260000953567,,response,,,,100,,,,,,,Space,keypress(Space),,,,,,,,-- --- ---- --- ------ ----- ------- ---- -- --- ------- --<br>------- ---------- ------ -- ----- -- ----- -- save ------<br>--- ----- --- --- ------ -------- ----- --- ------ ----- --<br>----- ----- ---------- --- --- ------ ------ ---- -- ------<br>------- --- ------ ----- --- ---- ------- -- ---- --- --<br>------- ------,210510.29999995232,210509.90000009537,209949.59,209958.29999995232,209966.374,210516.284,,20,save
screen,html.Screen,2_1_1_1_21,2022-02-04T11:53:57.523Z,,,,,,,,,,,,,,,,,54,,,,,,,,,,,,,,409.61600009535323,,response,,,,100,,,,,,,Space,keypress(Space),,,,,,,,"-- --- ---- --- ------ ----- ------- ---- -- --- ------- --<br>------- ---------- ------ -- ----- -- ----- -- ---- money,<br>--- ----- --- --- ------ -------- ----- --- ------ ----- --<br>----- ----- ---------- --- --- ------ ------ ---- -- ------<br>------- --- ------ ----- --- ---- ------- -- ---- --- --<br>------- ------",210926.29999995232,210925.90000009537,210499.626,210510.5,210516.284,210932.928,,21,"money,"
screen,html.Screen,2_1_1_1_22,2022-02-04T11:53:58.003Z,,,,,,,,,,,,,,,,,54,,,,,,,,,,,,,,472.87199995230185,,response,,,,100,,,,,,,Space,keypress(Space),,,,,,,,-- --- ---- --- ------ ----- ------- ---- -- --- ------- --<br>------- ---------- ------ -- ----- -- ----- -- ---- ------<br>the ----- --- --- ------ -------- ----- --- ------ ----- --<br>----- ----- ---------- --- --- ------ ------ ---- -- ------<br>------- --- ------ ----- --- ---- ------- -- ---- --- --<br>------- ------,211406.29999995232,211405.79999995232,210916.265,210926.5,210932.928,211416.606,,22,the
screen,html.Screen,2_1_1_1_23,2022-02-04T11:53:58.451Z,,,,,,,,,,,,,,,,,54,,,,,,,,,,,,,,437.1939999523165,,response,,,,100,,,,,,,Space,keypress(Space),,,,,,,,-- --- ---- --- ------ ----- ------- ---- -- --- ------- --<br>------- ---------- ------ -- ----- -- ----- -- ---- ------<br>--- state --- --- ------ -------- ----- --- ------ ----- --<br>----- ----- ---------- --- --- ------ ------ ---- -- ------<br>------- --- ------ ----- --- ---- ------- -- ---- --- --<br>------- ------,211854.20000004768,211853.79999995232,211399.781,211406.40000009537,211416.606,211866.686,,23,state
screen,html.Screen,2_1_1_1_24,2022-02-04T11:53:58.867Z,,,,,,,,,,,,,,,,,54,,,,,,,,,,,,,,403.4139999046456,,response,,,,100,,,,,,,Space,keypress(Space),,,,,,,,-- --- ---- --- ------ ----- ------- ---- -- --- ------- --<br>------- ---------- ------ -- ----- -- ----- -- ---- ------<br>--- ----- cut --- ------ -------- ----- --- ------ ----- --<br>----- ----- ---------- --- --- ------ ------ ---- -- ------<br>------- --- ------ ----- --- ---- ------- -- ---- --- --<br>------- ------,212270.59999990463,212270.09999990463,211849.718,211854.40000009537,211866.686,212282.926,,24,cut
screen,html.Screen,2_1_1_1_25,2022-02-04T11:53:59.283Z,,,,,,,,,,,,,,,,,54,,,,,,,,,,,,,,402.9740000953607,,response,,,,100,,,,,,,Space,keypress(Space),,,,,,,,-- --- ---- --- ------ ----- ------- ---- -- --- ------- --<br>------- ---------- ------ -- ----- -- ----- -- ---- ------<br>--- ----- --- the ------ -------- ----- --- ------ ----- --<br>----- ----- ---------- --- --- ------ ------ ---- -- ------<br>------- --- ------ ----- --- ---- ------- -- ---- --- --<br>------- ------,212686.40000009537,212685.90000009537,212266.801,212270.59999990463,212282.926,212699.701,,25,the
screen,html.Screen,2_1_1_1_26,2022-02-04T11:53:59.795Z,,,,,,,,,,,,,,,,,54,,,,,,,,,,,,,,498.29899999999907,,response,,,,100,,,,,,,Space,keypress(Space),,,,,,,,-- --- ---- --- ------ ----- ------- ---- -- --- ------- --<br>------- ---------- ------ -- ----- -- ----- -- ---- ------<br>--- ----- --- --- bonds' -------- ----- --- ------ ----- --<br>----- ----- ---------- --- --- ------ ------ ---- -- ------<br>------- --- ------ ----- --- ---- ------- -- ---- --- --<br>------- ------,213198.40000009537,213198,212683.042,212686.40000009537,212699.701,213199.588,,26,bonds'
screen,html.Screen,2_1_1_1_27,2022-02-04T11:54:00.339Z,,,,,,,,,,,,,,,,,54,,,,,,,,,,,,,,542.4120000000112,,response,,,,100,,,,,,,Space,keypress(Space),,,,,,,,-- --- ---- --- ------ ----- ------- ---- -- --- ------- --<br>------- ---------- ------ -- ----- -- ----- -- ---- ------<br>--- ----- --- --- ------ interest ----- --- ------ ----- --<br>----- ----- ---------- --- --- ------ ------ ---- -- ------<br>------- --- ------ ----- --- ---- ------- -- ---- --- --<br>------- ------,213742.40000009537,213742,213183.523,213198.5,213199.588,213749.722,,27,interest
screen,html.Screen,2_1_1_1_28,2022-02-04T11:54:00.788Z,,,,,,,,,,,,,,,,,54,,,,,,,,,,,,,,440.57799995230744,,response,,,,100,,,,,,,Space,keypress(Space),,,,,,,,-- --- ---- --- ------ ----- ------- ---- -- --- ------- --<br>------- ---------- ------ -- ----- -- ----- -- ---- ------<br>--- ----- --- --- ------ -------- rate. --- ------ ----- --<br>----- ----- ---------- --- --- ------ ------ ---- -- ------<br>------- --- ------ ----- --- ---- ------- -- ---- --- --<br>------- ------,214190.70000004768,214190.29999995232,213733.237,213742.5,213749.722,214199.842,,28,rate.
screen,html.Screen,2_1_1_1_29,2022-02-04T11:54:01.268Z,,,,,,,,,,,,,,,,,54,,,,,,,,,,,,,,470.4579999523121,,response,,,,100,,,,,,,Space,keypress(Space),,,,,,,,-- --- ---- --- ------ ----- ------- ---- -- --- ------- --<br>------- ---------- ------ -- ----- -- ----- -- ---- ------<br>--- ----- --- --- ------ -------- ----- The ------ ----- --<br>----- ----- ---------- --- --- ------ ------ ---- -- ------<br>------- --- ------ ----- --- ---- ------- -- ---- --- --<br>------- ------,214670.79999995232,214670.29999995232,214183.07,214190.90000009537,214199.842,214683.063,,29,The
screen,html.Screen,2_1_1_1_30,2022-02-04T11:54:01.724Z,,,,,,,,,,,,,,,,,54,,,,,,,,,,,,,,443.23699995232164,,response,,,,100,,,,,,,Space,keypress(Space),,,,,,,,-- --- ---- --- ------ ----- ------- ---- -- --- ------- --<br>------- ---------- ------ -- ----- -- ----- -- ---- ------<br>--- ----- --- --- ------ -------- ----- --- market ----- --<br>----- ----- ---------- --- --- ------ ------ ---- -- ------<br>------- --- ------ ----- --- ---- ------- -- ---- --- --<br>------- ------,215126.70000004768,215126.29999995232,214666.397,214670.79999995232,214683.063,215133.014,,30,market
screen,html.Screen,2_1_1_1_31,2022-02-04T11:54:02.171Z,,,,,,,,,,,,,,,,,54,,,,,,,,,,,,,,441.18600004768814,,response,,,,100,,,,,,,Space,keypress(Space),,,,,,,,-- --- ---- --- ------ ----- ------- ---- -- --- ------- --<br>------- ---------- ------ -- ----- -- ----- -- ---- ------<br>--- ----- --- --- ------ -------- ----- --- ------ value --<br>----- ----- ---------- --- --- ------ ------ ---- -- ------<br>------- --- ------ ----- --- ---- ------- -- ---- --- --<br>------- ------,215574.70000004768,215574.20000004768,215116.392,215126.79999995232,215133.014,215582.879,,31,value
screen,html.Screen,2_1_1_1_32,2022-02-04T11:54:02.555Z,,,,,,,,,,,,,,,,,54,,,,,,,,,,,,,,375.32100004769745,,response,,,,100,,,,,,,Space,keypress(Space),,,,,,,,-- --- ---- --- ------ ----- ------- ---- -- --- ------- --<br>------- ---------- ------ -- ----- -- ----- -- ---- ------<br>--- ----- --- --- ------ -------- ----- --- ------ ----- of<br>----- ----- ---------- --- --- ------ ------ ---- -- ------<br>------- --- ------ ----- --- ---- ------- -- ---- --- --<br>------- ------,215958.5,215958.20000004768,215566.23,215574.70000004768,215582.879,215966.425,,32,of
screen,html.Screen,2_1_1_1_33,2022-02-04T11:54:03.131Z,,,,,,,,,,,,,,,,,54,,,,,,,,,,,,,,567.7750000476954,,response,,,,100,,,,,,,Space,keypress(Space),,,,,,,,-- --- ---- --- ------ ----- ------- ---- -- --- ------- --<br>------- ---------- ------ -- ----- -- ----- -- ---- ------<br>--- ----- --- --- ------ -------- ----- --- ------ ----- --<br>these ----- ---------- --- --- ------ ------ ---- -- ------<br>------- --- ------ ----- --- ---- ------- -- ---- --- --<br>------- ------,216534.59999990463,216534.20000004768,215949.716,215958.70000004768,215966.425,216549.696,,33,these
screen,html.Screen,2_1_1_1_34,2022-02-04T11:54:03.964Z,,,,,,,,,,,,,,,,,54,,,,,,,,,,,,,,817.2040000953712,,response,,,,100,,,,,,,Space,keypress(Space),,,,,,,,-- --- ---- --- ------ ----- ------- ---- -- --- ------- --<br>------- ---------- ------ -- ----- -- ----- -- ---- ------<br>--- ----- --- --- ------ -------- ----- --- ------ ----- --<br>----- bonds ---------- --- --- ------ ------ ---- -- ------<br>------- --- ------ ----- --- ---- ------- -- ---- --- --<br>------- ------,217367.29999995232,217366.90000009537,216533.024,216534.70000004768,216549.696,217382.877,,34,bonds
screen,html.Screen,2_1_1_1_35,2022-02-04T11:54:04.572Z,,,,,,,,,,,,,,,,,54,,,,,,,,,,,,,,591.6229999999923,,response,,,,100,,,,,,,Space,keypress(Space),,,,,,,,"-- --- ---- --- ------ ----- ------- ---- -- --- ------- --<br>------- ---------- ------ -- ----- -- ----- -- ---- ------<br>--- ----- --- --- ------ -------- ----- --- ------ ----- --<br>----- ----- plummeted, --- --- ------ ------ ---- -- ------<br>------- --- ------ ----- --- ---- ------- -- ---- --- --<br>------- ------",217975,217974.5,217366.176,217367.5,217382.877,217982.871,,35,"plummeted,"
screen,html.Screen,2_1_1_1_36,2022-02-04T11:54:05.796Z,,,,,,,,,,,,,,,,,54,,,,,,,,,,,,,,1215.6289999999863,,response,,,,100,,,,,,,Space,keypress(Space),,,,,,,,-- --- ---- --- ------ ----- ------- ---- -- --- ------- --<br>------- ---------- ------ -- ----- -- ----- -- ---- ------<br>--- ----- --- --- ------ -------- ----- --- ------ ----- --<br>----- ----- ---------- and --- ------ ------ ---- -- ------<br>------- --- ------ ----- --- ---- ------- -- ---- --- --<br>------- ------,219198.90000009537,219198.5,217967.074,217975,217982.871,219199.532,,36,and
screen,html.Screen,2_1_1_1_37,2022-02-04T11:54:06.404Z,,,,,,,,,,,,,,,,,54,,,,,,,,,,,,,,607.067999904626,,response,,,,100,,,,,,,Space,keypress(Space),,,,,,,,-- --- ---- --- ------ ----- ------- ---- -- --- ------- --<br>------- ---------- ------ -- ----- -- ----- -- ---- ------<br>--- ----- --- --- ------ -------- ----- --- ------ ----- --<br>----- ----- ---------- --- the ------ ------ ---- -- ------<br>------- --- ------ ----- --- ---- ------- -- ---- --- --<br>------- ------,219807,219806.59999990463,219182.837,219199,219199.532,219816.467,,37,the
screen,html.Screen,2_1_1_1_38,2022-02-04T11:54:06.788Z,,,,,,,,,,,,,,,,,54,,,,,,,,,,,,,,374.0329999999958,,response,,,,100,,,,,,,Space,keypress(Space),,,,,,,,-- --- ---- --- ------ ----- ------- ---- -- --- ------- --<br>------- ---------- ------ -- ----- -- ----- -- ---- ------<br>--- ----- --- --- ------ -------- ----- --- ------ ----- --<br>----- ----- ---------- --- --- market ------ ---- -- ------<br>------- --- ------ ----- --- ---- ------- -- ---- --- --<br>------- ------,220190.90000009537,220190.5,219799.651,219807.09999990463,219816.467,220199.536,,38,market
screen,html.Screen,2_1_1_1_39,2022-02-04T11:54:07.332Z,,,,,,,,,,,,,,,,,54,,,,,,,,,,,,,,534.9640000000072,,response,,,,100,,,,,,,Space,keypress(Space),,,,,,,,-- --- ---- --- ------ ----- ------- ---- -- --- ------- --<br>------- ---------- ------ -- ----- -- ----- -- ---- ------<br>--- ----- --- --- ------ -------- ----- --- ------ ----- --<br>----- ----- ---------- --- --- ------ became ---- -- ------<br>------- --- ------ ----- --- ---- ------- -- ---- --- --<br>------- ------,220735.09999990463,220734.5,220182.837,220191,220199.536,220749.672,,39,became
screen,html.Screen,2_1_1_1_40,2022-02-04T11:54:07.716Z,,,,,,,,,,,,,,,,,54,,,,,,,,,,,,,,369.02800004769233,,response,,,,100,,,,,,,Space,keypress(Space),,,,,,,,-- --- ---- --- ------ ----- ------- ---- -- --- ------- --<br>------- ---------- ------ -- ----- -- ----- -- ---- ------<br>--- ----- --- --- ------ -------- ----- --- ------ ----- --<br>----- ----- ---------- --- --- ------ ------ wary -- ------<br>------- --- ------ ----- --- ---- ------- -- ---- --- --<br>------- ------,221119.20000004768,221118.70000004768,220733.162,220735.09999990463,220749.672,221132.901,,40,wary
screen,html.Screen,2_1_1_1_41,2022-02-04T11:54:08.100Z,,,,,,,,,,,,,,,,,54,,,,,,,,,,,,,,369.79900004767114,,response,,,,100,,,,,,,Space,keypress(Space),,,,,,,,-- --- ---- --- ------ ----- ------- ---- -- --- ------- --<br>------- ---------- ------ -- ----- -- ----- -- ---- ------<br>--- ----- --- --- ------ -------- ----- --- ------ ----- --<br>----- ----- ---------- --- --- ------ ------ ---- of ------<br>------- --- ------ ----- --- ---- ------- -- ---- --- --<br>------- ------,221503.29999995232,221502.70000004768,221116.344,221119.29999995232,221132.901,221516.221,,41,of
screen,html.Screen,2_1_1_1_42,2022-02-04T11:54:08.548Z,,,,,,,,,,,,,,,,,54,,,,,,,,,,,,,,434.3789999046421,,response,,,,100,,,,,,,Space,keypress(Space),,,,,,,,-- --- ---- --- ------ ----- ------- ---- -- --- ------- --<br>------- ---------- ------ -- ----- -- ----- -- ---- ------<br>--- ----- --- --- ------ -------- ----- --- ------ ----- --<br>----- ----- ---------- --- --- ------ ------ ---- -- French<br>------- --- ------ ----- --- ---- ------- -- ---- --- --<br>------- ------,221951,221950.59999990463,221499.528,221503.40000009537,221516.221,221966.263,,42,French
screen,html.Screen,2_1_1_1_43,2022-02-04T11:54:10.445Z,,,,,,,,,,,,,,,,,54,,,,,,,,,,,,,,1881.3369999046263,,response,,,,100,,,,,,,Space,keypress(Space),,,,,,,,-- --- ---- --- ------ ----- ------- ---- -- --- ------- --<br>------- ---------- ------ -- ----- -- ----- -- ---- ------<br>--- ----- --- --- ------ -------- ----- --- ------ ----- --<br>----- ----- ---------- --- --- ------ ------ ---- -- ------<br>credit. --- ------ ----- --- ---- ------- -- ---- --- --<br>------- ------,223847.90000009537,223847.59999990463,221949.502,221951.09999990463,221966.263,223849.497,,43,credit.
screen,html.Screen,2_1_1_1_44,2022-02-04T11:54:10.956Z,,,,,,,,,,,,,,,,,54,,,,,,,,,,,,,,509.502999999997,,response,,,,100,,,,,,,Space,keypress(Space),,,,,,,,-- --- ---- --- ------ ----- ------- ---- -- --- ------- --<br>------- ---------- ------ -- ----- -- ----- -- ---- ------<br>--- ----- --- --- ------ -------- ----- --- ------ ----- --<br>----- ----- ---------- --- --- ------ ------ ---- -- ------<br>------- The ------ ----- --- ---- ------- -- ---- --- --<br>------- ------,224359.40000009537,224359,223832.835,223848.09999990463,223849.497,224366.343,,44,The
screen,html.Screen,2_1_1_1_45,2022-02-04T11:54:11.372Z,,,,,,,,,,,,,,,,,54,,,,,,,,,,,,,,408.55700009537395,,response,,,,100,,,,,,,Space,keypress(Space),,,,,,,,-- --- ---- --- ------ ----- ------- ---- -- --- ------- --<br>------- ---------- ------ -- ----- -- ----- -- ---- ------<br>--- ----- --- --- ------ -------- ----- --- ------ ----- --<br>----- ----- ---------- --- --- ------ ------ ---- -- ------<br>------- --- French ----- --- ---- ------- -- ---- --- --<br>------- ------,224775.29999995232,224774.90000009537,224349.594,224359.59999990463,224366.343,224782.851,,45,French
screen,html.Screen,2_1_1_1_46,2022-02-04T11:54:11.916Z,,,,,,,,,,,,,,,,,54,,,,,,,,,,,,,,536.2489999046375,,response,,,,100,,,,,,,Space,keypress(Space),,,,,,,,-- --- ---- --- ------ ----- ------- ---- -- --- ------- --<br>------- ---------- ------ -- ----- -- ----- -- ---- ------<br>--- ----- --- --- ------ -------- ----- --- ------ ----- --<br>----- ----- ---------- --- --- ------ ------ ---- -- ------<br>------- --- ------ state --- ---- ------- -- ---- --- --<br>------- ------,225319.5,225319.09999990463,224766.317,224775.40000009537,224782.851,225332.802,,46,state
screen,html.Screen,2_1_1_1_47,2022-02-04T11:54:12.332Z,,,,,,,,,,,,,,,,,54,,,,,,,,,,,,,,402.0980000953714,,response,,,,100,,,,,,,Space,keypress(Space),,,,,,,,-- --- ---- --- ------ ----- ------- ---- -- --- ------- --<br>------- ---------- ------ -- ----- -- ----- -- ---- ------<br>--- ----- --- --- ------ -------- ----- --- ------ ----- --<br>----- ----- ---------- --- --- ------ ------ ---- -- ------<br>------- --- ------ ----- was ---- ------- -- ---- --- --<br>------- ------,225735.40000009537,225734.90000009537,225316.282,225319.5,225332.802,225749.523,,47,was
screen,html.Screen,2_1_1_1_48,2022-02-04T11:54:12.780Z,,,,,,,,,,,,,,,,,54,,,,,,,,,,,,,,433.6770000476972,,response,,,,100,,,,,,,Space,keypress(Space),,,,,,,,-- --- ---- --- ------ ----- ------- ---- -- --- ------- --<br>------- ---------- ------ -- ----- -- ----- -- ---- ------<br>--- ----- --- --- ------ -------- ----- --- ------ ----- --<br>----- ----- ---------- --- --- ------ ------ ---- -- ------<br>------- --- ------ ----- --- left ------- -- ---- --- --<br>------- ------,226183.59999990463,226183.20000004768,225733.649,225735.59999990463,225749.523,226199.685,,48,left
screen,html.Screen,2_1_1_1_49,2022-02-04T11:54:13.164Z,,,,,,,,,,,,,,,,,54,,,,,,,,,,,,,,367.3150000000023,,response,,,,100,,,,,,,Space,keypress(Space),,,,,,,,-- --- ---- --- ------ ----- ------- ---- -- --- ------- --<br>------- ---------- ------ -- ----- -- ----- -- ---- ------<br>--- ----- --- --- ------ -------- ----- --- ------ ----- --<br>----- ----- ---------- --- --- ------ ------ ---- -- ------<br>------- --- ------ ----- --- ---- without -- ---- --- --<br>------- ------,226567.40000009537,226567,226182.772,226183.70000004768,226199.685,226582.956,,49,without
screen,html.Screen,2_1_1_1_50,2022-02-04T11:54:13.484Z,,,,,,,,,,,,,,,,,54,,,,,,,,,,,,,,304.0439999999944,,response,,,,100,,,,,,,Space,keypress(Space),,,,,,,,-- --- ---- --- ------ ----- ------- ---- -- --- ------- --<br>------- ---------- ------ -- ----- -- ----- -- ---- ------<br>--- ----- --- --- ------ -------- ----- --- ------ ----- --<br>----- ----- ---------- --- --- ------ ------ ---- -- ------<br>------- --- ------ ----- --- ---- ------- an ---- --- --<br>------- ------,226887.5,226887,226566.273,226567.5,226582.956,226899.785,,50,an
screen,html.Screen,2_1_1_1_51,2022-02-04T11:54:13.869Z,,,,,,,,,,,,,,,,,54,,,,,,,,,,,,,,371.5149999523128,,response,,,,100,,,,,,,Space,keypress(Space),,,,,,,,-- --- ---- --- ------ ----- ------- ---- -- --- ------- --<br>------- ---------- ------ -- ----- -- ----- -- ---- ------<br>--- ----- --- --- ------ -------- ----- --- ------ ----- --<br>----- ----- ---------- --- --- ------ ------ ---- -- ------<br>------- --- ------ ----- --- ---- ------- -- easy --- --<br>------- ------,227272.5,227271.29999995232,226882.949,226887.59999990463,226899.785,227282.949,,51,easy
screen,html.Screen,2_1_1_1_52,2022-02-04T11:54:14.189Z,,,,,,,,,,,,,,,,,54,,,,,,,,,,,,,,308.75100004769047,,response,,,,100,,,,,,,Space,keypress(Space),,,,,,,,-- --- ---- --- ------ ----- ------- ---- -- --- ------- --<br>------- ---------- ------ -- ----- -- ----- -- ---- ------<br>--- ----- --- --- ------ -------- ----- --- ------ ----- --<br>----- ----- ---------- --- --- ------ ------ ---- -- ------<br>------- --- ------ ----- --- ---- ------- -- ---- way --<br>------- ------,227592.09999990463,227591.70000004768,227266.161,227272.59999990463,227282.949,227599.604,,52,way
screen,html.Screen,2_1_1_1_53,2022-02-04T11:54:14.581Z,,,,,,,,,,,,,,,,,54,,,,,,,,,,,,,,383.6959999523242,,response,,,,100,,,,,,,Space,keypress(Space),,,,,,,,-- --- ---- --- ------ ----- ------- ---- -- --- ------- --<br>------- ---------- ------ -- ----- -- ----- -- ---- ------<br>--- ----- --- --- ------ -------- ----- --- ------ ----- --<br>----- ----- ---------- --- --- ------ ------ ---- -- ------<br>------- --- ------ ----- --- ---- ------- -- ---- --- of<br>------- ------,227983.70000004768,227983.29999995232,227583.07,227592.20000004768,227599.604,227999.603,,53,of
screen,html.Screen,2_1_1_1_54,2022-02-04T11:54:15.093Z,,,,,,,,,,,,,,,,,54,,,,,,,,,,,,,,495.6969999523135,,response,,,,100,,,,,,,Space,keypress(Space),,,,,,,,-- --- ---- --- ------ ----- ------- ---- -- --- ------- --<br>------- ---------- ------ -- ----- -- ----- -- ---- ------<br>--- ----- --- --- ------ -------- ----- --- ------ ----- --<br>----- ----- ---------- --- --- ------ ------ ---- -- ------<br>------- --- ------ ----- --- ---- ------- -- ---- --- --<br>raising ------,228495.70000004768,228495.29999995232,227982.826,227983.79999995232,227999.603,228499.437,,54,raising
screen,html.Screen,2_1_1_1_55,2022-02-04T11:54:15.669Z,,,,,,,,,,,,,,,,,54,,,,,,,,,,,,,,571.8629999523109,,response,,,,100,,,,,,,Space,keypress(Space),,,,,,,,-- --- ---- --- ------ ----- ------- ---- -- --- ------- --<br>------- ---------- ------ -- ----- -- ----- -- ---- ------<br>--- ----- --- --- ------ -------- ----- --- ------ ----- --<br>----- ----- ---------- --- --- ------ ------ ---- -- ------<br>------- --- ------ ----- --- ---- ------- -- ---- --- --<br>------- money.,229071.79999995232,229071.29999995232,228482.802,228495.79999995232,228499.437,229082.786,,55,money.
Item 100,flow.Loop,2_1_1_1,2022-02-04T11:54:15.669Z,,,,,,,,,,,,,,,,,,,,,,,,,,,,,,,34938.090999952314,,completion,,,,,C,,,,,,,,,,,silence,,,,,229071.90000009537,229071.29999995232,194116.502,194117.90000009537,194133.209,229082.786,,,
Question 1,html.Screen,2_1_1_2,2022-02-04T11:54:19.400Z,,,,,,,,,,,,,,,,,,,,,,,,,,,,true,TRUE,,3719.6140000953746,,response,,,,100,C,,,,,,TRUE,click #choice-1,,,,silence,,,,,232803.5,232802.40000009537,229066.224,229072,229082.786,232816.268,,,
Question 2,html.Screen,2_1_1_3,2022-02-04T11:54:22.224Z,,,,,,,,,,,,,,,,,,,,,,,,,,,,true,FALSE,,2810.231999999989,,response,,,,100,C,,,,,,FALSE,click #choice-2,,,,silence,,,,,235627.5,235626.5,232799.547,232803.59999990463,232816.268,235632.708,,,
Item 100,flow.Sequence,2_1_1,2022-02-04T11:54:22.224Z,,,,,,,,,,,,,,,,,,,,,,,,,,,,,,,51493.16099999999,,completion,,,,,,,,,,,,,,,,,,,,,235627.70000004768,235626.5,184116.655,184119.79999995232,184133.339,235632.708,,,
End of Practice,html.Page,2_1_2,2022-02-04T11:54:27.322Z,,,,,,,,,,,,,,,,,,,,,,,,,,,,,,,5091.591999952303,,form submission,,,,,,,,,,,,,,,,,,,,,240724.90000009537,240724.29999995232,235616.213,235627.79999995232,235632.708,240732.711,,,
Practice,flow.Sequence,2_1,2022-02-04T11:54:27.322Z,,,,,,,,,,,,,,,,,,,,,,,,,,,,,,,109040.7469999523,,completion,,,,,,,,,,,,,,,,,,,,,240725,240724.29999995232,131666.877,131668.90000009537,131683.553,240732.711,,,
Trap_instruction,html.Page,2_2_0,2022-02-04T11:54:31.202Z,,,,,,,,,,,,,,,,,,,,,,,,,,,,,,,3872.189000095357,,form submission,,,,,,,,,,,,,,,,,,,,,244605.20000004768,244604.90000009537,240716.212,240725.20000004768,240732.711,244616.021,,,
trap_trial,html.Screen,2_2_1,2022-02-04T11:54:35.010Z,,,,,,,,,,,,,,,,,,,,,,,,,,,,true,1,,3795.679000047676,,response,,,,,,,,,,,1,click #choice-1,,,,,,,,,248412.79999995232,248411.70000004768,244599.505,244605.20000004768,244616.021,248415.988,,,
end of trap trial,html.Page,2_2_2,2022-02-04T11:54:36.978Z,,,,,,,,,,,,,,,,,,,,,,,,,,,,,,,1965.2120000476716,,form submission,,,,,,,,,,,,,,,,,,,,,250381.70000004768,250381.20000004768,248399.305,248412.79999995232,248415.988,250382.63,,,
Trap 1,flow.Sequence,2_2,2022-02-04T11:54:36.979Z,,,,,,,,,,,,,,,,,,,,,,,,,,,,,,,9648.489000047673,,completion,,,,,,,,,,,,,,,,,,,,,250381.79999995232,250381.20000004768,240716.212,240725.09999990463,240732.711,250382.63,,,
Standby,html.Page,2_3_0,2022-02-04T11:54:44.964Z,,,,,,,,,,,,,,,,,,,,,,,,,,,,,,,8000.066999999981,,timeout,,,,,,,,,,,,,,,,,,,,,258366.5,258365.924,250365.938,250381.90000009537,250382.63,258382.697,,,
Holding screen,html.Screen,2_3_1_0_0,2022-02-04T11:54:51.963Z,,,,,,,,,,,,,,,,,,,,,,,,,,,,,,,6999.835000000021,,timeout,,,,,,,,,,,,,,,,,,,,,265366.09999990463,265365.806,258365.924,258366.59999990463,258382.697,265382.532,,,
screen,html.Screen,2_3_1_0_1_0,2022-02-04T11:54:53.377Z,,,,,,,,,,,,,,,,,2,,,,,,,,,,,,,,1396.2679999523098,,response,,,,1,C,,,,,,Space,keypress(Space),,,,instrumental,,,,Two ---- ------ --- ------- ---------- ------- ----------<br>--- --------- --- ----------- ------- ----- ------- ---<br>--------- ---- -- --- ---- -- --------- -- ---- -------<br>-- --------- ------ --- ----- ------ ---- --- --------- --<br>------ - ---- -- --- ----------- ------- ---- ----- -----<br>--- -------- - ------ ---- -- ----- ---- --- --- -----------<br>-- -------,266779.2999999523,266778.7999999523,265365.806,265366.2999999523,265382.532,266782.508,,0,Two
screen,html.Screen,2_3_1_0_1_1,2022-02-04T11:54:53.760Z,,,,,,,,,,,,,,,,,2,,,,,,,,,,,,,,379.6920000477112,,response,,,,1,C,,,,,,Space,keypress(Space),,,,instrumental,,,,--- days ------ --- ------- ---------- ------- ----------<br>--- --------- --- ----------- ------- ----- ------- ---<br>--------- ---- -- --- ---- -- --------- -- ---- -------<br>-- --------- ------ --- ----- ------ ---- --- --------- --<br>------ - ---- -- --- ----------- ------- ---- ----- -----<br>--- -------- - ------ ---- -- ----- ---- --- --- -----------<br>-- -------,267162.59999990463,267162.2000000477,266765.828,266779.40000009537,266782.508,267165.808,,1,days
screen,html.Screen,2_3_1_0_1_2,2022-02-04T11:54:54.016Z,,,,,,,,,,,,,,,,,2,,,,,,,,,,,,,,252.4919999522972,,response,,,,1,C,,,,,,Space,keypress(Space),,,,instrumental,,,,"--- ---- later, --- ------- ---------- ------- ----------<br>--- --------- --- ----------- ------- ----- ------- ---<br>--------- ---- -- --- ---- -- --------- -- ---- -------<br>-- --------- ------ --- ----- ------ ---- --- --------- --<br>------ - ---- -- --- ----------- ------- ---- ----- -----<br>--- -------- - ------ ---- -- ----- ---- --- --- -----------<br>-- -------",267418.7999999523,267418.2999999523,267149.25,267162.7000000477,267165.808,267432.483,,2,"later,"
screen,html.Screen,2_3_1_0_1_3,2022-02-04T11:54:54.592Z,,,,,,,,,,,,,,,,,2,,,,,,,,,,,,,,562.1169999046251,,response,,,,1,C,,,,,,Space,keypress(Space),,,,instrumental,,,,--- ---- ------ the ------- ---------- ------- ----------<br>--- --------- --- ----------- ------- ----- ------- ---<br>--------- ---- -- --- ---- -- --------- -- ---- -------<br>-- --------- ------ --- ----- ------ ---- --- --------- --<br>------ - ---- -- --- ----------- ------- ---- ----- -----<br>--- -------- - ------ ---- -- ----- ---- --- --- -----------<br>-- -------,267995,267994.59999990463,267415.873,267418.90000009537,267432.483,267999.165,,3,the
screen,html.Screen,2_3_1_0_1_4,2022-02-04T11:54:55.048Z,,,,,,,,,,,,,,,,,2,,,,,,,,,,,,,,451.03500004770467,,response,,,,1,C,,,,,,Space,keypress(Space),,,,instrumental,,,,--- ---- ------ --- British ---------- ------- ----------<br>--- --------- --- ----------- ------- ----- ------- ---<br>--------- ---- -- --- ---- -- --------- -- ---- -------<br>-- --------- ------ --- ----- ------ ---- --- --------- --<br>------ - ---- -- --- ----------- ------- ---- ----- -----<br>--- -------- - ------ ---- -- ----- ---- --- --- -----------<br>-- -------,268450.59999990463,268450.2000000477,267982.673,267995.2000000477,267999.165,268465.838,,4,British
screen,html.Screen,2_3_1_0_1_5,2022-02-04T11:54:55.784Z,,,,,,,,,,,,,,,,,2,,,,,,,,,,,,,,720.4619999523275,,response,,,,1,C,,,,,,Space,keypress(Space),,,,instrumental,,,,--- ---- ------ --- ------- astronomer ------- ----------<br>--- --------- --- ----------- ------- ----- ------- ---<br>--------- ---- -- --- ---- -- --------- -- ---- -------<br>-- --------- ------ --- ----- ------ ---- --- --------- --<br>------ - ---- -- --- ----------- ------- ---- ----- -----<br>--- -------- - ------ ---- -- ----- ---- --- --- -----------<br>-- -------,269186.7999999523,269186.2999999523,268449.137,268450.7000000477,268465.838,269199.277,,5,astronomer
screen,html.Screen,2_3_1_0_1_6,2022-02-04T11:54:56.264Z,,,,,,,,,,,,,,,,,2,,,,,,,,,,,,,,467.12300009536557,,response,,,,1,C,,,,,,Space,keypress(Space),,,,instrumental,,,,--- ---- ------ --- ------- ---------- Richard ----------<br>--- --------- --- ----------- ------- ----- ------- ---<br>--------- ---- -- --- ---- -- --------- -- ---- -------<br>-- --------- ------ --- ----- ------ ---- --- --------- --<br>------ - ---- -- --- ----------- ------- ---- ----- -----<br>--- -------- - ------ ---- -- ----- ---- --- --- -----------<br>-- -------,269666.7999999523,269666.40000009537,269182.65,269186.90000009537,269199.277,269682.488,,6,Richard
screen,html.Screen,2_3_1_0_1_7,2022-02-04T11:54:57.321Z,,,,,,,,,,,,,,,,,2,,,,,,,,,,,,,,1040.3119999523042,,response,,,,1,C,,,,,,Space,keypress(Space),,,,instrumental,,,,--- ---- ------ --- ------- ---------- ------- Carrington<br>--- --------- --- ----------- ------- ----- ------- ---<br>--------- ---- -- --- ---- -- --------- -- ---- -------<br>-- --------- ------ --- ----- ------ ---- --- --------- --<br>------ - ---- -- --- ----------- ------- ---- ----- -----<br>--- -------- - ------ ---- -- ----- ---- --- --- -----------<br>-- -------,270723.2999999523,270722.7999999523,269665.9,269666.90000009537,269682.488,270732.494,,7,Carrington
screen,html.Screen,2_3_1_0_1_8,2022-02-04T11:54:57.768Z,,,,,,,,,,,,,,,,,2,,,,,,,,,,,,,,438.20600004767766,,response,,,,1,C,,,,,,Space,keypress(Space),,,,instrumental,,,,--- ---- ------ --- ------- ---------- ------- ----------<br>was --------- --- ----------- ------- ----- ------- ---<br>--------- ---- -- --- ---- -- --------- -- ---- -------<br>-- --------- ------ --- ----- ------ ---- --- --------- --<br>------ - ---- -- --- ----------- ------- ---- ----- -----<br>--- -------- - ------ ---- -- ----- ---- --- --- -----------<br>-- -------,271171.09999990463,271170.7000000477,270715.808,270723.5,270732.494,271182.465,,8,was
screen,html.Screen,2_3_1_0_1_9,2022-02-04T11:54:58.184Z,,,,,,,,,,,,,,,,,2,,,,,,,,,,,,,,404.0349999999744,,response,,,,1,C,,,,,,Space,keypress(Space),,,,instrumental,,,,--- ---- ------ --- ------- ---------- ------- ----------<br>--- observing --- ----------- ------- ----- ------- ---<br>--------- ---- -- --- ---- -- --------- -- ---- -------<br>-- --------- ------ --- ----- ------ ---- --- --------- --<br>------ - ---- -- --- ----------- ------- ---- ----- -----<br>--- -------- - ------ ---- -- ----- ---- --- --- -----------<br>-- -------,271586.90000009537,271586.5,271165.786,271171.2000000477,271182.465,271599.141,,9,observing
screen,html.Screen,2_3_1_0_1_10,2022-02-04T11:54:58.664Z,,,,,,,,,,,,,,,,,2,,,,,,,,,,,,,,467.35899999999674,,response,,,,1,C,,,,,,Space,keypress(Space),,,,instrumental,,,,--- ---- ------ --- ------- ---------- ------- ----------<br>--- --------- the ----------- ------- ----- ------- ---<br>--------- ---- -- --- ---- -- --------- -- ---- -------<br>-- --------- ------ --- ----- ------ ---- --- --------- --<br>------ - ---- -- --- ----------- ------- ---- ----- -----<br>--- -------- - ------ ---- -- ----- ---- --- --- -----------<br>-- -------,272066.90000009537,272066.5,271582.559,271587,271599.141,272082.604,,10,the
screen,html.Screen,2_3_1_0_1_11,2022-02-04T11:54:59.152Z,,,,,,,,,,,,,,,,,2,,,,,,,,,,,,,,471.8960000000079,,response,,,,1,C,,,,,,Space,keypress(Space),,,,instrumental,,,,--- ---- ------ --- ------- ---------- ------- ----------<br>--- --------- --- interesting ------- ----- ------- ---<br>--------- ---- -- --- ---- -- --------- -- ---- -------<br>-- --------- ------ --- ----- ------ ---- --- --------- --<br>------ - ---- -- --- ----------- ------- ---- ----- -----<br>--- -------- - ------ ---- -- ----- ---- --- --- -----------<br>-- -------,272555,272554.5,272065.804,272067,272082.604,272565.818,,11,interesting
screen,html.Screen,2_3_1_0_1_12,2022-02-04T11:55:00.080Z,,,,,,,,,,,,,,,,,2,,,,,,,,,,,,,,916.8820000476553,,response,,,,1,C,,,,,,Space,keypress(Space),,,,instrumental,,,,--- ---- ------ --- ------- ---------- ------- ----------<br>--- --------- --- ----------- sunspot ----- ------- ---<br>--------- ---- -- --- ---- -- --------- -- ---- -------<br>-- --------- ------ --- ----- ------ ---- --- --------- --<br>------ - ---- -- --- ----------- ------- ---- ----- -----<br>--- -------- - ------ ---- -- ----- ---- --- --- -----------<br>-- -------,273483.09999990463,273482.7000000477,272549.29,272555.09999990463,272565.818,273499.121,,12,sunspot
screen,html.Screen,2_3_1_0_1_13,2022-02-04T11:55:00.656Z,,,,,,,,,,,,,,,,,2,,,,,,,,,,,,,,559.5790000476991,,response,,,,1,C,,,,,,Space,keypress(Space),,,,instrumental,,,,--- ---- ------ --- ------- ---------- ------- ----------<br>--- --------- --- ----------- ------- group ------- ---<br>--------- ---- -- --- ---- -- --------- -- ---- -------<br>-- --------- ------ --- ----- ------ ---- --- --------- --<br>------ - ---- -- --- ----------- ------- ---- ----- -----<br>--- -------- - ------ ---- -- ----- ---- --- --- -----------<br>-- -------,274059.2000000477,274058.7000000477,273482.418,273483.2000000477,273499.121,274066.01,,13,group
screen,html.Screen,2_3_1_0_1_14,2022-02-04T11:55:01.201Z,,,,,,,,,,,,,,,,,2,,,,,,,,,,,,,,536.8900000953581,,response,,,,1,C,,,,,,Space,keypress(Space),,,,instrumental,,,,--- ---- ------ --- ------- ---------- ------- ----------<br>--- --------- --- ----------- ------- ----- through ---<br>--------- ---- -- --- ---- -- --------- -- ---- -------<br>-- --------- ------ --- ----- ------ ---- --- --------- --<br>------ - ---- -- --- ----------- ------- ---- ----- -----<br>--- -------- - ------ ---- -- ----- ---- --- --- -----------<br>-- -------,274603.40000009537,274602.90000009537,274049.216,274059.2999999523,274066.01,274615.782,,14,through
screen,html.Screen,2_3_1_0_1_15,2022-02-04T11:55:01.584Z,,,,,,,,,,,,,,,,,2,,,,,,,,,,,,,,371.01799995230976,,response,,,,1,C,,,,,,Space,keypress(Space),,,,instrumental,,,,--- ---- ------ --- ------- ---------- ------- ----------<br>--- --------- --- ----------- ------- ----- ------- his<br>--------- ---- -- --- ---- -- --------- -- ---- -------<br>-- --------- ------ --- ----- ------ ---- --- --------- --<br>------ - ---- -- --- ----------- ------- ---- ----- -----<br>--- -------- - ------ ---- -- ----- ---- --- --- -----------<br>-- -------,274987.2999999523,274986.7999999523,274599.189,274603.5,274615.782,274999.107,,15,his
screen,html.Screen,2_3_1_0_1_16,2022-02-04T11:55:02.032Z,,,,,,,,,,,,,,,,,2,,,,,,,,,,,,,,435.6929999522981,,response,,,,1,C,,,,,,Space,keypress(Space),,,,instrumental,,,,--- ---- ------ --- ------- ---------- ------- ----------<br>--- --------- --- ----------- ------- ----- ------- ---<br>telescope ---- -- --- ---- -- --------- -- ---- -------<br>-- --------- ------ --- ----- ------ ---- --- --------- --<br>------ - ---- -- --- ----------- ------- ---- ----- -----<br>--- -------- - ------ ---- -- ----- ---- --- --- -----------<br>-- -------,275435.09999990463,275434.7999999523,274982.465,274987.2999999523,274999.107,275449.261,,16,telescope
screen,html.Screen,2_3_1_0_1_17,2022-02-04T11:55:02.481Z,,,,,,,,,,,,,,,,,2,,,,,,,,,,,,,,433.7390000000014,,response,,,,1,C,,,,,,Space,keypress(Space),,,,instrumental,,,,--- ---- ------ --- ------- ---------- ------- ----------<br>--- --------- --- ----------- ------- ----- ------- ---<br>--------- when -- --- ---- -- --------- -- ---- -------<br>-- --------- ------ --- ----- ------ ---- --- --------- --<br>------ - ---- -- --- ----------- ------- ---- ----- -----<br>--- -------- - ------ ---- -- ----- ---- --- --- -----------<br>-- -------,275883.40000009537,275883,275432.563,275435.2999999523,275449.261,275899.246,,17,when
screen,html.Screen,2_3_1_0_1_18,2022-02-04T11:55:02.833Z,,,,,,,,,,,,,,,,,2,,,,,,,,,,,,,,335.55399995233165,,response,,,,1,C,,,,,,Space,keypress(Space),,,,instrumental,,,,--- ---- ------ --- ------- ---------- ------- ----------<br>--- --------- --- ----------- ------- ----- ------- ---<br>--------- ---- he --- ---- -- --------- -- ---- -------<br>-- --------- ------ --- ----- ------ ---- --- --------- --<br>------ - ---- -- --- ----------- ------- ---- ----- -----<br>--- -------- - ------ ---- -- ----- ---- --- --- -----------<br>-- -------,276235.2999999523,276234.7999999523,275882.494,275883.40000009537,275899.246,276249.238,,18,he
screen,html.Screen,2_3_1_0_1_19,2022-02-04T11:55:03.217Z,,,,,,,,,,,,,,,,,2,,,,,,,,,,,,,,369.6620000953553,,response,,,,1,C,,,,,,Space,keypress(Space),,,,instrumental,,,,--- ---- ------ --- ------- ---------- ------- ----------<br>--- --------- --- ----------- ------- ----- ------- ---<br>--------- ---- -- saw ---- -- --------- -- ---- -------<br>-- --------- ------ --- ----- ------ ---- --- --------- --<br>------ - ---- -- --- ----------- ------- ---- ----- -----<br>--- -------- - ------ ---- -- ----- ---- --- --- -----------<br>-- -------,276619.40000009537,276618.90000009537,276232.405,276235.40000009537,276249.238,276632.428,,19,saw
screen,html.Screen,2_3_1_0_1_20,2022-02-04T11:55:03.609Z,,,,,,,,,,,,,,,,,2,,,,,,,,,,,,,,379.07199999998556,,response,,,,1,C,,,,,,Space,keypress(Space),,,,instrumental,,,,--- ---- ------ --- ------- ---------- ------- ----------<br>--- --------- --- ----------- ------- ----- ------- ---<br>--------- ---- -- --- what -- --------- -- ---- -------<br>-- --------- ------ --- ----- ------ ---- --- --------- --<br>------ - ---- -- --- ----------- ------- ---- ----- -----<br>--- -------- - ------ ---- -- ----- ---- --- --- -----------<br>-- -------,277012,277011.5,276615.738,276619.40000009537,276632.428,277015.764,,20,what
screen,html.Screen,2_3_1_0_1_21,2022-02-04T11:55:04.313Z,,,,,,,,,,,,,,,,,2,,,,,,,,,,,,,,699.3359999046079,,response,,,,1,C,,,,,,Space,keypress(Space),,,,instrumental,,,,--- ---- ------ --- ------- ---------- ------- ----------<br>--- --------- --- ----------- ------- ----- ------- ---<br>--------- ---- -- --- ---- he --------- -- ---- -------<br>-- --------- ------ --- ----- ------ ---- --- --------- --<br>------ - ---- -- --- ----------- ------- ---- ----- -----<br>--- -------- - ------ ---- -- ----- ---- --- --- -----------<br>-- -------,277715.59999990463,277715.09999990463,276999.053,277012,277015.764,277715.753,,21,he
screen,html.Screen,2_3_1_0_1_22,2022-02-04T11:55:04.793Z,,,,,,,,,,,,,,,,,2,,,,,,,,,,,,,,479.2469999999739,,response,,,,1,C,,,,,,Space,keypress(Space),,,,instrumental,,,,--- ---- ------ --- ------- ---------- ------- ----------<br>--- --------- --- ----------- ------- ----- ------- ---<br>--------- ---- -- --- ---- -- described -- ---- -------<br>-- --------- ------ --- ----- ------ ---- --- --------- --<br>------ - ---- -- --- ----------- ------- ---- ----- -----<br>--- -------- - ------ ---- -- ----- ---- --- --- -----------<br>-- -------,278195.40000009537,278195,277699.208,277715.7000000477,277715.753,278199.07,,22,described
screen,html.Screen,2_3_1_0_1_23,2022-02-04T11:55:05.177Z,,,,,,,,,,,,,,,,,2,,,,,,,,,,,,,,380.13000004767673,,response,,,,1,C,,,,,,Space,keypress(Space),,,,instrumental,,,,--- ---- ------ --- ------- ---------- ------- ----------<br>--- --------- --- ----------- ------- ----- ------- ---<br>--------- ---- -- --- ---- -- --------- as ---- -------<br>-- --------- ------ --- ----- ------ ---- --- --------- --<br>------ - ---- -- --- ----------- ------- ---- ----- -----<br>--- -------- - ------ ---- -- ----- ---- --- --- -----------<br>-- -------,278579.59999990463,278579.2000000477,278182.587,278195.59999990463,278199.07,278582.416,,23,as
screen,html.Screen,2_3_1_0_1_24,2022-02-04T11:55:05.849Z,,,,,,,,,,,,,,,,,2,,,,,,,,,,,,,,668.683999904606,,response,,,,1,C,,,,,,Space,keypress(Space),,,,instrumental,,,,"--- ---- ------ --- ------- ---------- ------- ----------<br>--- --------- --- ----------- ------- ----- ------- ---<br>--------- ---- -- --- ---- -- --------- -- ""two -------<br>-- --------- ------ --- ----- ------ ---- --- --------- --<br>------ - ---- -- --- ----------- ------- ---- ----- -----<br>--- -------- - ------ ---- -- ----- ---- --- --- -----------<br>-- -------",279251.59999990463,279251.09999990463,278565.733,278579.7000000477,278582.416,279265.875,,24,"""two"
screen,html.Screen,2_3_1_0_1_25,2022-02-04T11:55:06.297Z,,,,,,,,,,,,,,,,,2,,,,,,,,,,,,,,433.3250000476837,,response,,,,1,C,,,,,,Space,keypress(Space),,,,instrumental,,,,--- ---- ------ --- ------- ---------- ------- ----------<br>--- --------- --- ----------- ------- ----- ------- ---<br>--------- ---- -- --- ---- -- --------- -- ---- patches<br>-- --------- ------ --- ----- ------ ---- --- --------- --<br>------ - ---- -- --- ----------- ------- ---- ----- -----<br>--- -------- - ------ ---- -- ----- ---- --- --- -----------<br>-- -------,279699.7000000477,279699.2000000477,279249.212,279252.2000000477,279265.875,279715.776,,25,patches
screen,html.Screen,2_3_1_0_1_26,2022-02-04T11:55:06.777Z,,,,,,,,,,,,,,,,,2,,,,,,,,,,,,,,463.5239999523037,,response,,,,1,C,,,,,,Space,keypress(Space),,,,instrumental,,,,--- ---- ------ --- ------- ---------- ------- ----------<br>--- --------- --- ----------- ------- ----- ------- ---<br>--------- ---- -- --- ---- -- --------- -- ---- -------<br>of --------- ------ --- ----- ------ ---- --- --------- --<br>------ - ---- -- --- ----------- ------- ---- ----- -----<br>--- -------- - ------ ---- -- ----- ---- --- --- -----------<br>-- -------,280179.7000000477,280179.2999999523,279699.065,279699.7999999523,279715.776,280182.399,,26,of
screen,html.Screen,2_3_1_0_1_27,2022-02-04T11:55:07.257Z,,,,,,,,,,,,,,,,,2,,,,,,,,,,,,,,476.80100004770793,,response,,,,1,C,,,,,,Space,keypress(Space),,,,instrumental,,,,--- ---- ------ --- ------- ---------- ------- ----------<br>--- --------- --- ----------- ------- ----- ------- ---<br>--------- ---- -- --- ---- -- --------- -- ---- -------<br>-- intensely ------ --- ----- ------ ---- --- --------- --<br>------ - ---- -- --- ----------- ------- ---- ----- -----<br>--- -------- - ------ ---- -- ----- ---- --- --- -----------<br>-- -------,280659.59999990463,280659.2000000477,280165.72,280179.7999999523,280182.399,280665.713,,27,intensely
screen,html.Screen,2_3_1_0_1_28,2022-02-04T11:55:07.649Z,,,,,,,,,,,,,,,,,2,,,,,,,,,,,,,,385.58699995232746,,response,,,,1,C,,,,,,Space,keypress(Space),,,,instrumental,,,,--- ---- ------ --- ------- ---------- ------- ----------<br>--- --------- --- ----------- ------- ----- ------- ---<br>--------- ---- -- --- ---- -- --------- -- ---- -------<br>-- --------- bright --- ----- ------ ---- --- --------- --<br>------ - ---- -- --- ----------- ------- ---- ----- -----<br>--- -------- - ------ ---- -- ----- ---- --- --- -----------<br>-- -------,281051.7000000477,281051.2999999523,280649.022,280659.7000000477,280665.713,281065.746,,28,bright
screen,html.Screen,2_3_1_0_1_29,2022-02-04T11:55:08.097Z,,,,,,,,,,,,,,,,,2,,,,,,,,,,,,,,433.6540000953828,,response,,,,1,C,,,,,,Space,keypress(Space),,,,instrumental,,,,--- ---- ------ --- ------- ---------- ------- ----------<br>--- --------- --- ----------- ------- ----- ------- ---<br>--------- ---- -- --- ---- -- --------- -- ---- -------<br>-- --------- ------ and ----- ------ ---- --- --------- --<br>------ - ---- -- --- ----------- ------- ---- ----- -----<br>--- -------- - ------ ---- -- ----- ---- --- --- -----------<br>-- -------,281500,281499.40000009537,281049.037,281051.7999999523,281065.746,281515.775,,29,and
screen,html.Screen,2_3_1_0_1_30,2022-02-04T11:55:08.449Z,,,,,,,,,,,,,,,,,2,,,,,,,,,,,,,,335.524999952293,,response,,,,1,C,,,,,,Space,keypress(Space),,,,instrumental,,,,--- ---- ------ --- ------- ---------- ------- ----------<br>--- --------- --- ----------- ------- ----- ------- ---<br>--------- ---- -- --- ---- -- --------- -- ---- -------<br>-- --------- ------ --- white ------ ---- --- --------- --<br>------ - ---- -- --- ----------- ------- ---- ----- -----<br>--- -------- - ------ ---- -- ----- ---- --- --- -----------<br>-- -------,281851.7999999523,281851.2999999523,281499.038,281500.09999990463,281515.775,281865.762,,30,white
screen,html.Screen,2_3_1_0_1_31,2022-02-04T11:55:08.961Z,,,,,,,,,,,,,,,,,2,,,,,,,,,,,,,,497.7380000000121,,response,,,,1,C,,,,,,Space,keypress(Space),,,,instrumental,,,,"--- ---- ------ --- ------- ---------- ------- ----------<br>--- --------- --- ----------- ------- ----- ------- ---<br>--------- ---- -- --- ---- -- --------- -- ---- -------<br>-- --------- ------ --- ----- light"" ---- --- --------- --<br>------ - ---- -- --- ----------- ------- ---- ----- -----<br>--- -------- - ------ ---- -- ----- ---- --- --- -----------<br>-- -------",282364,282363.5,281849.254,281851.90000009537,281865.762,282365.717,,31,"light"""
screen,html.Screen,2_3_1_0_1_32,2022-02-04T11:55:09.473Z,,,,,,,,,,,,,,,,,2,,,,,,,,,,,,,,509.68300009536324,,response,,,,1,C,,,,,,Space,keypress(Space),,,,instrumental,,,,--- ---- ------ --- ------- ---------- ------- ----------<br>--- --------- --- ----------- ------- ----- ------- ---<br>--------- ---- -- --- ---- -- --------- -- ---- -------<br>-- --------- ------ --- ----- ------ over --- --------- --<br>------ - ---- -- --- ----------- ------- ---- ----- -----<br>--- -------- - ------ ---- -- ----- ---- --- --- -----------<br>-- -------,282875.7999999523,282875.40000009537,282349.151,282364.09999990463,282365.717,282882.511,,32,over
screen,html.Screen,2_3_1_0_1_33,2022-02-04T11:55:09.985Z,,,,,,,,,,,,,,,,,2,,,,,,,,,,,,,,504.88900009536883,,response,,,,1,C,,,,,,Space,keypress(Space),,,,instrumental,,,,--- ---- ------ --- ------- ---------- ------- ----------<br>--- --------- --- ----------- ------- ----- ------- ---<br>--------- ---- -- --- ---- -- --------- -- ---- -------<br>-- --------- ------ --- ----- ------ ---- the --------- --<br>------ - ---- -- --- ----------- ------- ---- ----- -----<br>--- -------- - ------ ---- -- ----- ---- --- --- -----------<br>-- -------,283387.7999999523,283387.40000009537,282865.7,282875.7999999523,282882.511,283399.177,,33,the
screen,html.Screen,2_3_1_0_1_34,2022-02-04T11:55:10.945Z,,,,,,,,,,,,,,,,,2,,,,,,,,,,,,,,948.5230000476586,,response,,,,1,C,,,,,,Space,keypress(Space),,,,instrumental,,,,--- ---- ------ --- ------- ---------- ------- ----------<br>--- --------- --- ----------- ------- ----- ------- ---<br>--------- ---- -- --- ---- -- --------- -- ---- -------<br>-- --------- ------ --- ----- ------ ---- --- sunspots. --<br>------ - ---- -- --- ----------- ------- ---- ----- -----<br>--- -------- - ------ ---- -- ----- ---- --- --- -----------<br>-- -------,284348.09999990463,284347.7000000477,283382.514,283387.90000009537,283399.177,284349.01,,34,sunspots.
screen,html.Screen,2_3_1_0_1_35,2022-02-04T11:55:11.329Z,,,,,,,,,,,,,,,,,2,,,,,,,,,,,,,,382.4899999999907,,response,,,,1,C,,,,,,Space,keypress(Space),,,,instrumental,,,,--- ---- ------ --- ------- ---------- ------- ----------<br>--- --------- --- ----------- ------- ----- ------- ---<br>--------- ---- -- --- ---- -- --------- -- ---- -------<br>-- --------- ------ --- ----- ------ ---- --- --------- He<br>------ - ---- -- --- ----------- ------- ---- ----- -----<br>--- -------- - ------ ---- -- ----- ---- --- --- -----------<br>-- -------,284731.90000009537,284731.5,284332.532,284348.2999999523,284349.01,284732.328,,35,He
screen,html.Screen,2_3_1_0_1_36,2022-02-04T11:55:11.785Z,,,,,,,,,,,,,,,,,2,,,,,,,,,,,,,,455.1720000000205,,response,,,,1,C,,,,,,Space,keypress(Space),,,,instrumental,,,,--- ---- ------ --- ------- ---------- ------- ----------<br>--- --------- --- ----------- ------- ----- ------- ---<br>--------- ---- -- --- ---- -- --------- -- ---- -------<br>-- --------- ------ --- ----- ------ ---- --- --------- --<br>jotted - ---- -- --- ----------- ------- ---- ----- -----<br>--- -------- - ------ ---- -- ----- ---- --- --- -----------<br>-- -------,285188,285187.5,284715.677,284732,284732.328,285199.05,,36,jotted
screen,html.Screen,2_3_1_0_1_37,2022-02-04T11:55:12.041Z,,,,,,,,,,,,,,,,,2,,,,,,,,,,,,,,244.5499999046442,,response,,,,1,C,,,,,,Space,keypress(Space),,,,instrumental,,,,--- ---- ------ --- ------- ---------- ------- ----------<br>--- --------- --- ----------- ------- ----- ------- ---<br>--------- ---- -- --- ---- -- --------- -- ---- -------<br>-- --------- ------ --- ----- ------ ---- --- --------- --<br>------ a ---- -- --- ----------- ------- ---- ----- -----<br>--- -------- - ------ ---- -- ----- ---- --- --- -----------<br>-- -------,285444,285443.59999990463,285182.361,285188,285199.05,285449.07,,37,a
