sender,sender_type,sender_id,timestamp,meta,,Blues,Classical,Country,Dance,Electronic,Folk,Gospel,Hip-Hop,Jazz,Latin,Musical/Film,New-age,Pop,Prolific_id,Provo_ID,R&B,Rap,Reggae,Religious,Rock,Soul,Swing,Traditional,age,artist_name,correct,correctResponse,distraction,duration,education,ended_on,familiarity,gender,headphone_check_performance,item,list,music_frequency,offensiveness,pleasantness,position_correct,preference,response,response_action,snippet_file,song_name,song_rating,sound,stimulus_1,stimulus_2,stimulus_3,text,time_commit,time_end,time_render,time_run,time_show,time_switch,url,word,word_ID
Prolific ID,html.Form,0,2022-02-21T16:47:59.982Z,"{""labjs_version"":""20.2.2"",""labjs_build"":{""flavor"":""production"",""commit"":""a25486e0c714a0ae2ce03ff94b7bb6896854dcfa""},""location"":""https://run.pavlovia.org/mvasilev/prolific2_music_e/"",""userAgent"":""Mozilla/5.0 (Windows NT 10.0; Win64; x64) AppleWebKit/537.36 (KHTML, like Gecko) Chrome/98.0.4758.102 Safari/537.36"",""platform"":""Win32"",""language"":""en-GB"",""locale"":""en-GB"",""timeZone"":""Europe/London"",""timezoneOffset"":0,""screen_width"":1366,""screen_height"":768,""scroll_width"":1366,""scroll_height"":577,""window_innerWidth"":1366,""window_innerHeight"":625,""devicePixelRatio"":1}",,,,,,,,,,,,,,,60e73dc83a5b65a43f1e3b37,,,,,,,,,,,,,,,7876.153999976159,,form submission,,,,,,,,,,,,,,,,,,,,,25914.100000023842,25913.399999976158,17988.565,17992.800000071526,18037.246,25929.536,{},,
Introduction,html.Screen,1_0,2022-02-21T16:48:06.514Z,,,,,,,,,,,,,,,,,,,,,,,,,,,,,,,6513.664000047684,,response,,,,,,,,,,,continue,click button,,,,,,,,,32445.5,32443.200000047684,25895.265,25914.600000023842,25929.536,32454.694,,,
Volume calibration,html.Screen,1_1,2022-02-21T16:48:24.740Z,,,,,,,,,,,,,,,,,,,,,,,,,,,,,,,18213.70599997616,,response,,,,,,,,,,,continue,click button,,,,,,,,,50671.800000071526,50668.39999997616,32438.059,32445.700000047684,32454.694,50684.781,,,
Task instructions,html.Screen,1_2,2022-02-21T16:48:30.520Z,,,,,,,,,,,,,,,,,,,,,,,,,,,,,,,5766.1189999761555,,response,,,,,,,,,,,continue,click button,,,,,,,,,56451.60000002384,56450.89999997616,50668.04,50671.89999997616,50684.781,56478.274,,,
Sounds,html.Screen,1_3_0_0,2022-02-21T16:48:34.785Z,,,,,,,,,,,,,,,,,,,,,,,,,,,,,,,4245.302000000003,,timeout,,,,,,,,,2,,,,,,,,O,S,I,,60716.300000071526,60707.088,56461.779,56451.700000047684,56478.274,60723.576,,,
Judgement,html.Screen,1_3_0_1,2022-02-21T16:48:36.183Z,,,,,,,,,,,,,,,,,,,,,,,,,,,,true,2,,1390.1240000476828,,response,,,,,,,,,2,,2,click #choice-2,,,,,O,S,I,,62114.5,62113.700000047684,60707.088,60716.39999997616,60723.576,62122.033,,,
Trial,flow.Sequence,1_3_0,2022-02-21T16:48:36.183Z,,,,,,,,,,,,,,,,,,,,,,,,,,,,,,,5635.426000047686,,completion,,,,,,,,,2,,,,,,,,O,S,I,,62114.800000071526,62113.700000047684,56461.779,56451.700000047684,56478.274,62122.033,,,
Sounds,html.Screen,1_3_1_0,2022-02-21T16:48:40.420Z,,,,,,,,,,,,,,,,,,,,,,,,,,,,,,,4245.499999999993,,timeout,,,,,,,,,1,,,,,,,,S,O,I,,66351.89999997616,66350.74,62105.419,62115,62122.033,66367.533,,,
Judgement,html.Screen,1_3_1_1,2022-02-21T16:48:41.020Z,,,,,,,,,,,,,,,,,,,,,,,,,,,,true,1,,583.6670000476879,,response,,,,,,,,,1,,1,click #choice-1,,,,,S,O,I,,66952.10000002384,66951.20000004768,66350.74,66352.10000002384,66367.533,66966.91,,,
Trial,flow.Sequence,1_3_1,2022-02-21T16:48:41.028Z,,,,,,,,,,,,,,,,,,,,,,,,,,,,,,,4829.167000047681,,completion,,,,,,,,,1,,,,,,,,S,O,I,,66959.10000002384,66951.20000004768,62105.419,62115,62122.033,66966.91,,,
Sounds,html.Screen,1_3_2_0,2022-02-21T16:48:45.265Z,,,,,,,,,,,,,,,,,,,,,,,,,,,,,,,4245.275999999998,,timeout,,,,,,,,,3,,,,,,,,I,O,S,,71196.80000007153,71195.398,66950.104,66959.30000007153,66966.91,71212.186,,,
Judgement,html.Screen,1_3_2_1,2022-02-21T16:48:45.977Z,,,,,,,,,,,,,,,,,,,,,,,,,,,,true,3,,696.2139999761566,,response,,,,,,,,,3,,3,click #choice-3,,,,,I,O,S,,71909.10000002384,71908.39999997616,71195.398,71197,71212.186,71911.316,,,
Trial,flow.Sequence,1_3_2,2022-02-21T16:48:45.978Z,,,,,,,,,,,,,,,,,,,,,,,,,,,,,,,4941.489999976155,,completion,,,,,,,,,3,,,,,,,,I,O,S,,71909.30000007153,71908.39999997616,66950.104,66959.30000007153,66966.91,71911.316,,,
Sounds,html.Screen,1_3_3_0,2022-02-21T16:48:50.209Z,,,,,,,,,,,,,,,,,,,,,,,,,,,,,,,4245.314999999988,,timeout,,,,,,,,,3,,,,,,,,O,I,S,,76140.89999997616,76139.956,71894.668,71909.39999997616,71911.316,76156.631,,,
Judgement,html.Screen,1_3_3_1,2022-02-21T16:48:50.636Z,,,,,,,,,,,,,,,,,,,,,,,,,,,,true,3,,410.06900004768977,,response,,,,,,,,,3,,3,click #choice-3,,,,,O,I,S,,76567.39999997616,76566.70000004768,76139.956,76141,76156.631,76572.833,,,
Trial,flow.Sequence,1_3_3,2022-02-21T16:48:50.636Z,,,,,,,,,,,,,,,,,,,,,,,,,,,,,,,4655.384000047678,,completion,,,,,,,,,3,,,,,,,,O,I,S,,76567.60000002384,76566.70000004768,71894.668,71909.39999997616,71911.316,76572.833,,,
Sounds,html.Screen,1_3_4_0,2022-02-21T16:48:54.871Z,,,,,,,,,,,,,,,,,,,,,,,,,,,,,,,4245.335000000006,,timeout,,,,,,,,,2,,,,,,,,I,S,O,,80802.5,80801.668,76556.727,76567.60000002384,76572.833,80818.168,,,
Judgement,html.Screen,1_3_4_1,2022-02-21T16:48:55.398Z,,,,,,,,,,,,,,,,,,,,,,,,,,,,true,2,,510.5320000476786,,response,,,,,,,,,2,,2,click #choice-2,,,,,I,S,O,,81329.39999997616,81328.70000004768,80801.668,80802.70000004768,80818.168,81334.223,,,
Trial,flow.Sequence,1_3_4,2022-02-21T16:48:55.398Z,,,,,,,,,,,,,,,,,,,,,,,,,,,,,,,4755.867000047685,,completion,,,,,,,,,2,,,,,,,,I,S,O,,81329.60000002384,81328.70000004768,76556.727,76567.60000002384,76572.833,81334.223,,,
Sounds,html.Screen,1_3_5_0,2022-02-21T16:48:59.632Z,,,,,,,,,,,,,,,,,,,,,,,,,,,,,,,4245.334000000003,,timeout,,,,,,,,,1,,,,,,,,S,I,O,,85563.60000002384,85562.908,81317.754,81329.70000004768,81334.223,85579.557,,,
Judgement,html.Screen,1_3_5_1,2022-02-21T16:49:00.063Z,,,,,,,,,,,,,,,,,,,,,,,,,,,,true,1,,414.143000047683,,response,,,,,,,,,1,,1,click #choice-1,,,,,S,I,O,,85994.5,85993.70000004768,85562.908,85563.70000004768,85579.557,85995.788,,,
Trial,flow.Sequence,1_3_5,2022-02-21T16:49:00.063Z,,,,,,,,,,,,,,,,,,,,,,,,,,,,,,,4659.477000047686,,completion,,,,,,,,,1,,,,,,,,S,I,O,,85994.70000004768,85993.70000004768,81317.754,81329.70000004768,81334.223,85995.788,,,
Task,flow.Loop,1_3,2022-02-21T16:49:00.068Z,,,,,,,,,,,,,,,,,,,,,,,,,,,,,,,29515.426000047686,,completion,,,1,,,,,,,,,,,,,,,,,,85999.60000002384,85993.70000004768,56461.779,56451.700000047684,56478.274,85995.788,,,
Trap,html.Screen,1_4,2022-02-21T16:49:00.070Z,,,,,,,,,,,,,,,,,,,,,,,,,,,,,,,NaN,,skipped,,,,,,,,,,,,,,,,,,,,,86001.20000004768,85993.70000004768,,86000.89999997616,,85995.788,,,
Thanks,html.Screen,1_5,2022-02-21T16:49:03.498Z,,,,,,,,,,,,,,,,,,,,,,,,,,,,,,,3432.7119999999995,,response,,,,,,,,,,,continue,click button,,,,,,,,,89429.30000007153,89428.5,85979.14,86001.30000007153,85995.788,92122.377,,,
Headphone screening,flow.Sequence,1,2022-02-21T16:49:03.498Z,,,,,,,,,,,,,,,,,,,,,,,,,,,,,,,63498.964,,completion,,,,,,,,,,,,,,,,,,,,,89429.30000007153,89428.5,25895.265,25914.600000023842,25929.536,92122.377,,,
Instructions,html.Page,2_0,2022-02-21T16:49:27.114Z,,,,,,,,,,,,,,,,,,,,,,,,,,,,,,,20923.022999976165,,form submission,,,,,,,,,,,,,,,,,,,,,113045.70000004768,113045.39999997616,92105.721,92123,92122.377,113050.352,,,
Holding screen,html.Screen,2_1_0_0,2022-02-21T16:49:37.108Z,,,,,,,,,,,,,,,,,,,,,,,,,,,,,,,10004.633000000002,,timeout,,,,,,,,,,,,,,,,,,,,,123038.89999997616,123038.372,113016.053,113046,113050.352,123054.985,,,
screen,html.Screen,2_1_0_1_0,2022-02-21T16:49:38.015Z,,,,,,,,,,,,,,,,,53,,,,,,,,,,,,,,881.815000071525,,response,,,,99,,,,,,,Space,keypress(Space),,,,,,,,When -- ----- -- ------ - ------- --- ----------<br>------------- ------ ------ ---- ---- ------- ----- -- ----<br>-------- ------- -- ---------- --- - --- ----- ----- ----<br>---- --- --- ----- --- ---- ---- ------- ----- ---- -------<br>--- --- -- ----- -- --- ---- -- --- ---- -- ------ ------<br>--- ----- -- ----,123945.89999997616,123936.80000007153,123038.372,123039,123054.985,123954.032,,0,When
screen,html.Screen,2_1_0_1_1,2022-02-21T16:49:38.410Z,,,,,,,,,,,,,,,,,53,,,,,,,,,,,,,,387.1680000476772,,response,,,,99,,,,,,,Space,keypress(Space),,,,,,,,---- it ----- -- ------ - ------- --- ----------<br>------------- ------ ------ ---- ---- ------- ----- -- ----<br>-------- ------- -- ---------- --- - --- ----- ----- ----<br>---- --- --- ----- --- ---- ---- ------- ----- ---- -------<br>--- --- -- ----- -- --- ---- -- --- ---- -- ------ ------<br>--- ----- -- ----,124341.70000004768,124341.20000004768,123937.511,123946.10000002384,123954.032,124353.611,,1,it
screen,html.Screen,2_1_0_1_2,2022-02-21T16:49:38.782Z,,,,,,,,,,,,,,,,,53,,,,,,,,,,,,,,358.68900007152115,,response,,,,99,,,,,,,Space,keypress(Space),,,,,,,,---- -- comes -- ------ - ------- --- ----------<br>------------- ------ ------ ---- ---- ------- ----- -- ----<br>-------- ------- -- ---------- --- - --- ----- ----- ----<br>---- --- --- ----- --- ---- ---- ------- ----- ---- -------<br>--- --- -- ----- -- --- ---- -- --- ---- -- ------ ------<br>--- ----- -- ----,124712.80000007153,124712.30000007153,124336.973,124341.80000007153,124353.611,124719.873,,2,comes
screen,html.Screen,2_1_0_1_3,2022-02-21T16:49:39.076Z,,,,,,,,,,,,,,,,,53,,,,,,,,,,,,,,286.82700004767685,,response,,,,99,,,,,,,Space,keypress(Space),,,,,,,,---- -- ----- to ------ - ------- --- ----------<br>------------- ------ ------ ---- ---- ------- ----- -- ----<br>-------- ------- -- ---------- --- - --- ----- ----- ----<br>---- --- --- ----- --- ---- ---- ------- ----- ---- -------<br>--- --- -- ----- -- --- ---- -- --- ---- -- ------ ------<br>--- ----- -- ----,125007.20000004768,125006.70000004768,124703.342,124712.89999997616,124719.873,125019.551,,3,to
screen,html.Screen,2_1_0_1_4,2022-02-21T16:49:39.416Z,,,,,,,,,,,,,,,,,53,,,,,,,,,,,,,,327.64900004767696,,response,,,,99,,,,,,,Space,keypress(Space),,,,,,,,---- -- ----- -- having - ------- --- ----------<br>------------- ------ ------ ---- ---- ------- ----- -- ----<br>-------- ------- -- ---------- --- - --- ----- ----- ----<br>---- --- --- ----- --- ---- ---- ------- ----- ---- -------<br>--- --- -- ----- -- --- ---- -- --- ---- -- ------ ------<br>--- ----- -- ----,125347.70000004768,125347.20000004768,125002.844,125007.30000007153,125019.551,125352.62,,4,having
screen,html.Screen,2_1_0_1_5,2022-02-21T16:49:39.760Z,,,,,,,,,,,,,,,,,53,,,,,,,,,,,,,,337.88000000000466,,response,,,,99,,,,,,,Space,keypress(Space),,,,,,,,---- -- ----- -- ------ a ------- --- ----------<br>------------- ------ ------ ---- ---- ------- ----- -- ----<br>-------- ------- -- ---------- --- - --- ----- ----- ----<br>---- --- --- ----- --- ---- ---- ------- ----- ---- -------<br>--- --- -- ----- -- --- ---- -- --- ---- -- ------ ------<br>--- ----- -- ----,125691.10000002384,125690.5,125335.853,125347.89999997616,125352.62,125702.13,,5,a
screen,html.Screen,2_1_0_1_6,2022-02-21T16:49:40.352Z,,,,,,,,,,,,,,,,,53,,,,,,,,,,,,,,580.4700000238372,,response,,,,99,,,,,,,Space,keypress(Space),,,,,,,,---- -- ----- -- ------ - lasting --- ----------<br>------------- ------ ------ ---- ---- ------- ----- -- ----<br>-------- ------- -- ---------- --- - --- ----- ----- ----<br>---- --- --- ----- --- ---- ---- ------- ----- ---- -------<br>--- --- -- ----- -- --- ---- -- --- ---- -- ------ ------<br>--- ----- -- ----,126283.10000002384,126282.60000002384,125685.644,125691.20000004768,125702.13,126284.741,,6,lasting
screen,html.Screen,2_1_0_1_7,2022-02-21T16:49:40.900Z,,,,,,,,,,,,,,,,,53,,,,,,,,,,,,,,545.7590000000055,,response,,,,99,,,,,,,Space,keypress(Space),,,,,,,,---- -- ----- -- ------ - ------- and ----------<br>------------- ------ ------ ---- ---- ------- ----- -- ----<br>-------- ------- -- ---------- --- - --- ----- ----- ----<br>---- --- --- ----- --- ---- ---- ------- ----- ---- -------<br>--- --- -- ----- -- --- ---- -- --- ---- -- ------ ------<br>--- ----- -- ----,126830.89999997616,126830.5,126268.175,126283.10000002384,126284.741,126834.151,,7,and
screen,html.Screen,2_1_0_1_8,2022-02-21T16:49:41.291Z,,,,,,,,,,,,,,,,,53,,,,,,,,,,,,,,387.44900002384384,,response,,,,99,,,,,,,Space,keypress(Space),,,,,,,,---- -- ----- -- ------ - ------- --- fulfilling<br>------------- ------ ------ ---- ---- ------- ----- -- ----<br>-------- ------- -- ---------- --- - --- ----- ----- ----<br>---- --- --- ----- --- ---- ---- ------- ----- ---- -------<br>--- --- -- ----- -- --- ---- -- --- ---- -- ------ ------<br>--- ----- -- ----,127222.20000004768,127221.60000002384,126817.674,126831,126834.151,127233.875,,8,fulfilling
screen,html.Screen,2_1_0_1_9,2022-02-21T16:49:41.655Z,,,,,,,,,,,,,,,,,53,,,,,,,,,,,,,,352.02499997615814,,response,,,,99,,,,,,,Space,keypress(Space),,,,,,,,"---- -- ----- -- ------ - ------- --- ----------<br>relationship, ------ ------ ---- ---- ------- ----- -- ----<br>-------- ------- -- ---------- --- - --- ----- ----- ----<br>---- --- --- ----- --- ---- ---- ------- ----- ---- -------<br>--- --- -- ----- -- --- ---- -- --- ---- -- ------ ------<br>--- ----- -- ----",127586.60000002384,127585.89999997616,127217.135,127222.30000007153,127233.875,127600.18,,9,"relationship,"
screen,html.Screen,2_1_0_1_10,2022-02-21T16:49:42.087Z,,,,,,,,,,,,,,,,,53,,,,,,,,,,,,,,417.42000002384884,,response,,,,99,,,,,,,Space,keypress(Space),,,,,,,,---- -- ----- -- ------ - ------- --- ----------<br>------------- common ------ ---- ---- ------- ----- -- ----<br>-------- ------- -- ---------- --- - --- ----- ----- ----<br>---- --- --- ----- --- ---- ---- ------- ----- ---- -------<br>--- --- -- ----- -- --- ---- -- --- ---- -- ------ ------<br>--- ----- -- ----,128018.80000007153,128017.60000002384,127583.533,127586.70000004768,127600.18,128033.035,,10,common
screen,html.Screen,2_1_0_1_11,2022-02-21T16:49:42.424Z,,,,,,,,,,,,,,,,,53,,,,,,,,,,,,,,321.86499997615465,,response,,,,99,,,,,,,Space,keypress(Space),,,,,,,,---- -- ----- -- ------ - ------- --- ----------<br>------------- ------ wisdom ---- ---- ------- ----- -- ----<br>-------- ------- -- ---------- --- - --- ----- ----- ----<br>---- --- --- ----- --- ---- ---- ------- ----- ---- -------<br>--- --- -- ----- -- --- ---- -- --- ---- -- ------ ------<br>--- ----- -- ----,128355.60000002384,128354.89999997616,128016.244,128018.89999997616,128033.035,128365.853,,11,wisdom
screen,html.Screen,2_1_0_1_12,2022-02-21T16:49:42.814Z,,,,,,,,,,,,,,,,,53,,,,,,,,,,,,,,378.8470000476809,,response,,,,99,,,,,,,Space,keypress(Space),,,,,,,,---- -- ----- -- ------ - ------- --- ----------<br>------------- ------ ------ says ---- ------- ----- -- ----<br>-------- ------- -- ---------- --- - --- ----- ----- ----<br>---- --- --- ----- --- ---- ---- ------- ----- ---- -------<br>--- --- -- ----- -- --- ---- -- --- ---- -- ------ ------<br>--- ----- -- ----,128745.39999997616,128744.70000004768,128349.214,128355.70000004768,128365.853,128749.796,,12,says
screen,html.Screen,2_1_0_1_13,2022-02-21T16:49:43.167Z,,,,,,,,,,,,,,,,,53,,,,,,,,,,,,,,347.80400002383976,,response,,,,99,,,,,,,Space,keypress(Space),,,,,,,,---- -- ----- -- ------ - ------- --- ----------<br>------------- ------ ------ ---- that ------- ----- -- ----<br>-------- ------- -- ---------- --- - --- ----- ----- ----<br>---- --- --- ----- --- ---- ---- ------- ----- ---- -------<br>--- --- -- ----- -- --- ---- -- --- ---- -- ------ ------<br>--- ----- -- ----,129098.20000004768,129097.60000002384,128732.115,128745.5,128749.796,129115.077,,13,that
screen,html.Screen,2_1_0_1_14,2022-02-21T16:49:43.527Z,,,,,,,,,,,,,,,,,53,,,,,,,,,,,,,,342.9229999999952,,response,,,,99,,,,,,,Space,keypress(Space),,,,,,,,---- -- ----- -- ------ - ------- --- ----------<br>------------- ------ ------ ---- ---- feeling ----- -- ----<br>-------- ------- -- ---------- --- - --- ----- ----- ----<br>---- --- --- ----- --- ---- ---- ------- ----- ---- -------<br>--- --- -- ----- -- --- ---- -- --- ---- -- ------ ------<br>--- ----- -- ----,129458.5,129458,129098.376,129098.30000007153,129115.077,129464.657,,14,feeling
screen,html.Screen,2_1_0_1_15,2022-02-21T16:49:43.870Z,,,,,,,,,,,,,,,,,53,,,,,,,,,,,,,,336.2429999761516,,response,,,,99,,,,,,,Space,keypress(Space),,,,,,,,---- -- ----- -- ------ - ------- --- ----------<br>------------- ------ ------ ---- ---- ------- close -- ----<br>-------- ------- -- ---------- --- - --- ----- ----- ----<br>---- --- --- ----- --- ---- ---- ------- ----- ---- -------<br>--- --- -- ----- -- --- ---- -- --- ---- -- ------ ------<br>--- ----- -- ----,129801.39999997616,129800.89999997616,129447.984,129458.60000002384,129464.657,129814.253,,15,close
screen,html.Screen,2_1_0_1_16,2022-02-21T16:49:44.238Z,,,,,,,,,,,,,,,,,53,,,,,,,,,,,,,,354.44700004768674,,response,,,,99,,,,,,,Space,keypress(Space),,,,,,,,---- -- ----- -- ------ - ------- --- ----------<br>------------- ------ ------ ---- ---- ------- ----- to ----<br>-------- ------- -- ---------- --- - --- ----- ----- ----<br>---- --- --- ----- --- ---- ---- ------- ----- ---- -------<br>--- --- -- ----- -- --- ---- -- --- ---- -- ------ ------<br>--- ----- -- ----,130169.39999997616,130168.70000004768,129797.58,129801.5,129814.253,130180.531,,16,to
screen,html.Screen,2_1_0_1_17,2022-02-21T16:49:44.615Z,,,,,,,,,,,,,,,,,53,,,,,,,,,,,,,,365.36899997615546,,response,,,,99,,,,,,,Space,keypress(Space),,,,,,,,---- -- ----- -- ------ - ------- --- ----------<br>------------- ------ ------ ---- ---- ------- ----- -- your<br>-------- ------- -- ---------- --- - --- ----- ----- ----<br>---- --- --- ----- --- ---- ---- ------- ----- ---- -------<br>--- --- -- ----- -- --- ---- -- --- ---- -- ------ ------<br>--- ----- -- ----,130546.5,130545.89999997616,130163.846,130169.5,130180.531,130563.421,,17,your
screen,html.Screen,2_1_0_1_18,2022-02-21T16:49:45.002Z,,,,,,,,,,,,,,,,,53,,,,,,,,,,,,,,369.5789999999979,,response,,,,99,,,,,,,Space,keypress(Space),,,,,,,,---- -- ----- -- ------ - ------- --- ----------<br>------------- ------ ------ ---- ---- ------- ----- -- ----<br>romantic ------- -- ---------- --- - --- ----- ----- ----<br>---- --- --- ----- --- ---- ---- ------- ----- ---- -------<br>--- --- -- ----- -- --- ---- -- --- ---- -- ------ ------<br>--- ----- -- ----,130933.39999997616,130933,130546.881,130546.5,130563.421,130946.326,,18,romantic
screen,html.Screen,2_1_0_1_19,2022-02-21T16:49:45.326Z,,,,,,,,,,,,,,,,,53,,,,,,,,,,,,,,310.17399999999907,,response,,,,99,,,,,,,Space,keypress(Space),,,,,,,,---- -- ----- -- ------ - ------- --- ----------<br>------------- ------ ------ ---- ---- ------- ----- -- ----<br>-------- partner -- ---------- --- - --- ----- ----- ----<br>---- --- --- ----- --- ---- ---- ------- ----- ---- -------<br>--- --- -- ----- -- --- ---- -- --- ---- -- ------ ------<br>--- ----- -- ----,131257,131256.5,130929.786,130933.60000002384,130946.326,131262.66,,19,partner
screen,html.Screen,2_1_0_1_20,2022-02-21T16:49:45.641Z,,,,,,,,,,,,,,,,,53,,,,,,,,,,,,,,308.6400000715221,,response,,,,99,,,,,,,Space,keypress(Space),,,,,,,,---- -- ----- -- ------ - ------- --- ----------<br>------------- ------ ------ ---- ---- ------- ----- -- ----<br>-------- ------- is ---------- --- - --- ----- ----- ----<br>---- --- --- ----- --- ---- ---- ------- ----- ---- -------<br>--- --- -- ----- -- --- ---- -- --- ---- -- ------ ------<br>--- ----- -- ----,131571.89999997616,131571.30000007153,131246.023,131257.10000002384,131262.66,131578.993,,20,is
screen,html.Screen,2_1_0_1_21,2022-02-21T16:49:45.960Z,,,,,,,,,,,,,,,,,53,,,,,,,,,,,,,,311.70700004769606,,response,,,,99,,,,,,,Space,keypress(Space),,,,,,,,---- -- ----- -- ------ - ------- --- ----------<br>------------- ------ ------ ---- ---- ------- ----- -- ----<br>-------- ------- -- paramount. --- - --- ----- ----- ----<br>---- --- --- ----- --- ---- ---- ------- ----- ---- -------<br>--- --- -- ----- -- --- ---- -- --- ---- -- ------ ------<br>--- ----- -- ----,131891.39999997616,131890.70000004768,131562.343,131572,131578.993,131895.256,,21,paramount.
screen,html.Screen,2_1_0_1_22,2022-02-21T16:49:46.442Z,,,,,,,,,,,,,,,,,53,,,,,,,,,,,,,,477.3440000238479,,response,,,,99,,,,,,,Space,keypress(Space),,,,,,,,---- -- ----- -- ------ - ------- --- ----------<br>------------- ------ ------ ---- ---- ------- ----- -- ----<br>-------- ------- -- ---------- But - --- ----- ----- ----<br>---- --- --- ----- --- ---- ---- ------- ----- ---- -------<br>--- --- -- ----- -- --- ---- -- --- ---- -- ------ ------<br>--- ----- -- ----,132373.20000004768,132372.60000002384,131878.795,131891.5,131895.256,132378.07,,22,But
screen,html.Screen,2_1_0_1_23,2022-02-21T16:49:46.780Z,,,,,,,,,,,,,,,,,53,,,,,,,,,,,,,,333.13000004767673,,response,,,,99,,,,,,,Space,keypress(Space),,,,,,,,---- -- ----- -- ------ - ------- --- ----------<br>------------- ------ ------ ---- ---- ------- ----- -- ----<br>-------- ------- -- ---------- --- a --- ----- ----- ----<br>---- --- --- ----- --- ---- ---- ------- ----- ---- -------<br>--- --- -- ----- -- --- ---- -- --- ---- -- ------ ------<br>--- ----- -- ----,132711.70000004768,132711.20000004768,132361.467,132373.30000007153,132378.07,132727.71,,23,a
screen,html.Screen,2_1_0_1_24,2022-02-21T16:49:47.092Z,,,,,,,,,,,,,,,,,53,,,,,,,,,,,,,,294.6899999761663,,response,,,,99,,,,,,,Space,keypress(Space),,,,,,,,---- -- ----- -- ------ - ------- --- ----------<br>------------- ------ ------ ---- ---- ------- ----- -- ----<br>-------- ------- -- ---------- --- - new ----- ----- ----<br>---- --- --- ----- --- ---- ---- ------- ----- ---- -------<br>--- --- -- ----- -- --- ---- -- --- ---- -- ------ ------<br>--- ----- -- ----,133023,133022.39999997616,132711.187,132711.80000007153,132727.71,133027.371,,24,new
screen,html.Screen,2_1_0_1_25,2022-02-21T16:49:47.415Z,,,,,,,,,,,,,,,,,53,,,,,,,,,,,,,,318.0289999761444,,response,,,,99,,,,,,,Space,keypress(Space),,,,,,,,---- -- ----- -- ------ - ------- --- ----------<br>------------- ------ ------ ---- ---- ------- ----- -- ----<br>-------- ------- -- ---------- --- - --- study ----- ----<br>---- --- --- ----- --- ---- ---- ------- ----- ---- -------<br>--- --- -- ----- -- --- ---- -- --- ---- -- ------ ------<br>--- ----- -- ----,133346.10000002384,133345.39999997616,133010.697,133023.10000002384,133027.371,133360.508,,25,study
screen,html.Screen,2_1_0_1_26,2022-02-21T16:49:47.771Z,,,,,,,,,,,,,,,,,53,,,,,,,,,,,,,,341.49199999999837,,response,,,,99,,,,,,,Space,keypress(Space),,,,,,,,---- -- ----- -- ------ - ------- --- ----------<br>------------- ------ ------ ---- ---- ------- ----- -- ----<br>-------- ------- -- ---------- --- - --- ----- finds ----<br>---- --- --- ----- --- ---- ---- ------- ----- ---- -------<br>--- --- -- ----- -- --- ---- -- --- ---- -- ------ ------<br>--- ----- -- ----,133702.60000002384,133702,133343.706,133346.20000004768,133360.508,133709.984,,26,finds
screen,html.Screen,2_1_0_1_27,2022-02-21T16:49:48.125Z,,,,,,,,,,,,,,,,,53,,,,,,,,,,,,,,345.01600000000326,,response,,,,99,,,,,,,Space,keypress(Space),,,,,,,,---- -- ----- -- ------ - ------- --- ----------<br>------------- ------ ------ ---- ---- ------- ----- -- ----<br>-------- ------- -- ---------- --- - --- ----- ----- that<br>---- --- --- ----- --- ---- ---- ------- ----- ---- -------<br>--- --- -- ----- -- --- ---- -- --- ---- -- ------ ------<br>--- ----- -- ----,134056,134055,133693.298,133702.89999997616,133709.984,134059.575,,27,that
screen,html.Screen,2_1_0_1_28,2022-02-21T16:49:48.468Z,,,,,,,,,,,,,,,,,53,,,,,,,,,,,,,,338.8249999761465,,response,,,,99,,,,,,,Space,keypress(Space),,,,,,,,---- -- ----- -- ------ - ------- --- ----------<br>------------- ------ ------ ---- ---- ------- ----- -- ----<br>-------- ------- -- ---------- --- - --- ----- ----- ----<br>it's --- --- ----- --- ---- ---- ------- ----- ---- -------<br>--- --- -- ----- -- --- ---- -- --- ---- -- ------ ------<br>--- ----- -- ----,134399,134398.39999997616,134042.932,134056.10000002384,134059.575,134409.209,,28,it's
screen,html.Screen,2_1_0_1_29,2022-02-21T16:49:48.742Z,,,,,,,,,,,,,,,,,53,,,,,,,,,,,,,,263.091000071523,,response,,,,99,,,,,,,Space,keypress(Space),,,,,,,,---- -- ----- -- ------ - ------- --- ----------<br>------------- ------ ------ ---- ---- ------- ----- -- ----<br>-------- ------- -- ---------- --- - --- ----- ----- ----<br>---- not --- ----- --- ---- ---- ------- ----- ---- -------<br>--- --- -- ----- -- --- ---- -- --- ---- -- ------ ------<br>--- ----- -- ----,134672.80000007153,134672.30000007153,134392.687,134399.10000002384,134409.209,134675.523,,29,not
screen,html.Screen,2_1_0_1_30,2022-02-21T16:49:49.071Z,,,,,,,,,,,,,,,,,53,,,,,,,,,,,,,,326.37699997617165,,response,,,,99,,,,,,,Space,keypress(Space),,,,,,,,---- -- ----- -- ------ - ------- --- ----------<br>------------- ------ ------ ---- ---- ------- ----- -- ----<br>-------- ------- -- ---------- --- - --- ----- ----- ----<br>---- --- how ----- --- ---- ---- ------- ----- ---- -------<br>--- --- -- ----- -- --- ---- -- --- ---- -- ------ ------<br>--- ----- -- ----,135002.39999997616,135001.89999997616,134658.892,134672.89999997616,134675.523,135008.556,,30,how
screen,html.Screen,2_1_0_1_31,2022-02-21T16:49:49.391Z,,,,,,,,,,,,,,,,,53,,,,,,,,,,,,,,313.1440000476723,,response,,,,99,,,,,,,Space,keypress(Space),,,,,,,,---- -- ----- -- ------ - ------- --- ----------<br>------------- ------ ------ ---- ---- ------- ----- -- ----<br>-------- ------- -- ---------- --- - --- ----- ----- ----<br>---- --- --- close --- ---- ---- ------- ----- ---- -------<br>--- --- -- ----- -- --- ---- -- --- ---- -- ------ ------<br>--- ----- -- ----,135322.20000004768,135321.70000004768,134991.899,135002.39999997616,135008.556,135324.81,,31,close
screen,html.Screen,2_1_0_1_32,2022-02-21T16:49:49.744Z,,,,,,,,,,,,,,,,,53,,,,,,,,,,,,,,349.7900000238442,,response,,,,99,,,,,,,Space,keypress(Space),,,,,,,,---- -- ----- -- ------ - ------- --- ----------<br>------------- ------ ------ ---- ---- ------- ----- -- ----<br>-------- ------- -- ---------- --- - --- ----- ----- ----<br>---- --- --- ----- you ---- ---- ------- ----- ---- -------<br>--- --- -- ----- -- --- ---- -- --- ---- -- ------ ------<br>--- ----- -- ----,135675.30000007153,135674.60000002384,135308.213,135322.30000007153,135324.81,135691.154,,32,you
screen,html.Screen,2_1_0_1_33,2022-02-21T16:49:50.077Z,,,,,,,,,,,,,,,,,53,,,,,,,,,,,,,,316.4460000238323,,response,,,,99,,,,,,,Space,keypress(Space),,,,,,,,---- -- ----- -- ------ - ------- --- ----------<br>------------- ------ ------ ---- ---- ------- ----- -- ----<br>-------- ------- -- ---------- --- - --- ----- ----- ----<br>---- --- --- ----- --- feel ---- ------- ----- ---- -------<br>--- --- -- ----- -- --- ---- -- --- ---- -- ------ ------<br>--- ----- -- ----,136008.30000007153,136007.60000002384,135674.476,135675.5,135691.154,136024.202,,33,feel
screen,html.Screen,2_1_0_1_34,2022-02-21T16:49:50.379Z,,,,,,,,,,,,,,,,,53,,,,,,,,,,,,,,285.6979999761679,,response,,,,99,,,,,,,Space,keypress(Space),,,,,,,,---- -- ----- -- ------ - ------- --- ----------<br>------------- ------ ------ ---- ---- ------- ----- -- ----<br>-------- ------- -- ---------- --- - --- ----- ----- ----<br>---- --- --- ----- --- ---- that ------- ----- ---- -------<br>--- --- -- ----- -- --- ---- -- --- ---- -- ------ ------<br>--- ----- -- ----,136310.39999997616,136309.89999997616,136007.447,136008.30000007153,136024.202,136323.769,,34,that
screen,html.Screen,2_1_0_1_35,2022-02-21T16:49:50.654Z,,,,,,,,,,,,,,,,,53,,,,,,,,,,,,,,260.8310000238416,,response,,,,99,,,,,,,Space,keypress(Space),,,,,,,,---- -- ----- -- ------ - ------- --- ----------<br>------------- ------ ------ ---- ---- ------- ----- -- ----<br>-------- ------- -- ---------- --- - --- ----- ----- ----<br>---- --- --- ----- --- ---- ---- matters ----- ---- -------<br>--- --- -- ----- -- --- ---- -- --- ---- -- ------ ------<br>--- ----- -- ----,136585.20000004768,136584.60000002384,136307.111,136310.5,136323.769,136590.082,,35,matters
screen,html.Screen,2_1_0_1_36,2022-02-21T16:49:51.016Z,,,,,,,,,,,,,,,,,53,,,,,,,,,,,,,,356.4180000000051,,response,,,,99,,,,,,,Space,keypress(Space),,,,,,,,"---- -- ----- -- ------ - ------- --- ----------<br>------------- ------ ------ ---- ---- ------- ----- -- ----<br>-------- ------- -- ---------- --- - --- ----- ----- ----<br>---- --- --- ----- --- ---- ---- ------- most, ---- -------<br>--- --- -- ----- -- --- ---- -- --- ---- -- ------ ------<br>--- ----- -- ----",136947.10000002384,136946.5,136573.462,136585.30000007153,136590.082,136956.395,,36,"most,"
screen,html.Screen,2_1_0_1_37,2022-02-21T16:49:51.398Z,,,,,,,,,,,,,,,,,53,,,,,,,,,,,,,,372.6050000000105,,response,,,,99,,,,,,,Space,keypress(Space),,,,,,,,---- -- ----- -- ------ - ------- --- ----------<br>------------- ------ ------ ---- ---- ------- ----- -- ----<br>-------- ------- -- ---------- --- - --- ----- ----- ----<br>---- --- --- ----- --- ---- ---- ------- ----- it's -------<br>--- --- -- ----- -- --- ---- -- --- ---- -- ------ ------<br>--- ----- -- ----,137329.60000002384,137329,136939.731,136947.20000004768,136956.395,137339.46,,37,it's
screen,html.Screen,2_1_0_1_38,2022-02-21T16:49:51.699Z,,,,,,,,,,,,,,,,,53,,,,,,,,,,,,,,290.4399999761663,,response,,,,99,,,,,,,Space,keypress(Space),,,,,,,,---- -- ----- -- ------ - ------- --- ----------<br>------------- ------ ------ ---- ---- ------- ----- -- ----<br>-------- ------- -- ---------- --- - --- ----- ----- ----<br>---- --- --- ----- --- ---- ---- ------- ----- ---- whether<br>--- --- -- ----- -- --- ---- -- --- ---- -- ------ ------<br>--- ----- -- ----,137630.39999997616,137629.89999997616,137322.634,137329.70000004768,137339.46,137638.996,,38,whether
screen,html.Screen,2_1_0_1_39,2022-02-21T16:49:52.101Z,,,,,,,,,,,,,,,,,53,,,,,,,,,,,,,,393.00399999998626,,response,,,,99,,,,,,,Space,keypress(Space),,,,,,,,---- -- ----- -- ------ - ------- --- ----------<br>------------- ------ ------ ---- ---- ------- ----- -- ----<br>-------- ------- -- ---------- --- - --- ----- ----- ----<br>---- --- --- ----- --- ---- ---- ------- ----- ---- -------<br>you --- -- ----- -- --- ---- -- --- ---- -- ------ ------<br>--- ----- -- ----,138032.39999997616,138032,137622.296,137630.5,137638.996,138038.674,,39,you
screen,html.Screen,2_1_0_1_40,2022-02-21T16:49:52.400Z,,,,,,,,,,,,,,,,,53,,,,,,,,,,,,,,291.6260000715265,,response,,,,99,,,,,,,Space,keypress(Space),,,,,,,,---- -- ----- -- ------ - ------- --- ----------<br>------------- ------ ------ ---- ---- ------- ----- -- ----<br>-------- ------- -- ---------- --- - --- ----- ----- ----<br>---- --- --- ----- --- ---- ---- ------- ----- ---- -------<br>--- are -- ----- -- --- ---- -- --- ---- -- ------ ------<br>--- ----- -- ----,138330.80000007153,138330.30000007153,138021.901,138032.5,138038.674,138338.218,,40,are
screen,html.Screen,2_1_0_1_41,2022-02-21T16:49:52.671Z,,,,,,,,,,,,,,,,,53,,,,,,,,,,,,,,263.8820000238484,,response,,,,99,,,,,,,Space,keypress(Space),,,,,,,,---- -- ----- -- ------ - ------- --- ----------<br>------------- ------ ------ ---- ---- ------- ----- -- ----<br>-------- ------- -- ---------- --- - --- ----- ----- ----<br>---- --- --- ----- --- ---- ---- ------- ----- ---- -------<br>--- --- as ----- -- --- ---- -- --- ---- -- ------ ------<br>--- ----- -- ----,138602.70000004768,138602.10000002384,138321.548,138330.89999997616,138338.218,138622.423,,41,as
screen,html.Screen,2_1_0_1_42,2022-02-21T16:49:53.005Z,,,,,,,,,,,,,,,,,53,,,,,,,,,,,,,,313.3770000715158,,response,,,,99,,,,,,,Space,keypress(Space),,,,,,,,---- -- ----- -- ------ - ------- --- ----------<br>------------- ------ ------ ---- ---- ------- ----- -- ----<br>-------- ------- -- ---------- --- - --- ----- ----- ----<br>---- --- --- ----- --- ---- ---- ------- ----- ---- -------<br>--- --- -- close -- --- ---- -- --- ---- -- ------ ------<br>--- ----- -- ----,138936.5,138935.80000007153,138587.93,138603.39999997616,138622.423,138955.396,,42,close
screen,html.Screen,2_1_0_1_43,2022-02-21T16:49:53.305Z,,,,,,,,,,,,,,,,,53,,,,,,,,,,,,,,279.70400002383394,,response,,,,99,,,,,,,Space,keypress(Space),,,,,,,,---- -- ----- -- ------ - ------- --- ----------<br>------------- ------ ------ ---- ---- ------- ----- -- ----<br>-------- ------- -- ---------- --- - --- ----- ----- ----<br>---- --- --- ----- --- ---- ---- ------- ----- ---- -------<br>--- --- -- ----- as --- ---- -- --- ---- -- ------ ------<br>--- ----- -- ----,139235.80000007153,139235.10000002384,138920.873,138936.60000002384,138955.396,139255.246,,43,as
screen,html.Screen,2_1_0_1_44,2022-02-21T16:49:53.612Z,,,,,,,,,,,,,,,,,53,,,,,,,,,,,,,,287.95400004767,,response,,,,99,,,,,,,Space,keypress(Space),,,,,,,,---- -- ----- -- ------ - ------- --- ----------<br>------------- ------ ------ ---- ---- ------- ----- -- ----<br>-------- ------- -- ---------- --- - --- ----- ----- ----<br>---- --- --- ----- --- ---- ---- ------- ----- ---- -------<br>--- --- -- ----- -- you ---- -- --- ---- -- ------ ------<br>--- ----- -- ----,139543.60000002384,139543.20000004768,139220.568,139236,139255.246,139553.548,,44,you
screen,html.Screen,2_1_0_1_45,2022-02-21T16:49:53.935Z,,,,,,,,,,,,,,,,,53,,,,,,,,,,,,,,312.65200004767394,,response,,,,99,,,,,,,Space,keypress(Space),,,,,,,,---- -- ----- -- ------ - ------- --- ----------<br>------------- ------ ------ ---- ---- ------- ----- -- ----<br>-------- ------- -- ---------- --- - --- ----- ----- ----<br>---- --- --- ----- --- ---- ---- ------- ----- ---- -------<br>--- --- -- ----- -- --- want -- --- ---- -- ------ ------<br>--- ----- -- ----,139866.70000004768,139866.20000004768,139536.859,139543.70000004768,139553.548,139869.833,,45,want
screen,html.Screen,2_1_0_1_46,2022-02-21T16:49:54.241Z,,,,,,,,,,,,,,,,,53,,,,,,,,,,,,,,301.4670000715123,,response,,,,99,,,,,,,Space,keypress(Space),,,,,,,,---- -- ----- -- ------ - ------- --- ----------<br>------------- ------ ------ ---- ---- ------- ----- -- ----<br>-------- ------- -- ---------- --- - --- ----- ----- ----<br>---- --- --- ----- --- ---- ---- ------- ----- ---- -------<br>--- --- -- ----- -- --- ---- to --- ---- -- ------ ------<br>--- ----- -- ----,140171.89999997616,140171.30000007153,139853.257,139866.80000007153,139869.833,140186.313,,46,to
screen,html.Screen,2_1_0_1_47,2022-02-21T16:49:54.556Z,,,,,,,,,,,,,,,,,53,,,,,,,,,,,,,,300.18700000000536,,response,,,,99,,,,,,,Space,keypress(Space),,,,,,,,"---- -- ----- -- ------ - ------- --- ----------<br>------------- ------ ------ ---- ---- ------- ----- -- ----<br>-------- ------- -- ---------- --- - --- ----- ----- ----<br>---- --- --- ----- --- ---- ---- ------- ----- ---- -------<br>--- --- -- ----- -- --- ---- -- be, ---- -- ------ ------<br>--- ----- -- ----",140486.89999997616,140486.5,140169.494,140171.89999997616,140186.313,140502.517,,47,"be,"
screen,html.Screen,2_1_0_1_48,2022-02-21T16:49:54.960Z,,,,,,,,,,,,,,,,,53,,,,,,,,,,,,,,388.3829999761656,,response,,,,99,,,,,,,Space,keypress(Space),,,,,,,,---- -- ----- -- ------ - ------- --- ----------<br>------------- ------ ------ ---- ---- ------- ----- -- ----<br>-------- ------- -- ---------- --- - --- ----- ----- ----<br>---- --- --- ----- --- ---- ---- ------- ----- ---- -------<br>--- --- -- ----- -- --- ---- -- --- even -- ------ ------<br>--- ----- -- ----,140891.5,140890.89999997616,140485.845,140487,140502.517,140902.193,,48,even
screen,html.Screen,2_1_0_1_49,2022-02-21T16:49:55.308Z,,,,,,,,,,,,,,,,,53,,,,,,,,,,,,,,336.40700002384256,,response,,,,99,,,,,,,Space,keypress(Space),,,,,,,,---- -- ----- -- ------ - ------- --- ----------<br>------------- ------ ------ ---- ---- ------- ----- -- ----<br>-------- ------- -- ---------- --- - --- ----- ----- ----<br>---- --- --- ----- --- ---- ---- ------- ----- ---- -------<br>--- --- -- ----- -- --- ---- -- --- ---- if ------ ------<br>--- ----- -- ----,141239.10000002384,141238.60000002384,140885.398,140891.60000002384,140902.193,141251.683,,49,if
screen,html.Screen,2_1_0_1_50,2022-02-21T16:49:55.639Z,,,,,,,,,,,,,,,,,53,,,,,,,,,,,,,,318.41700002385187,,response,,,,99,,,,,,,Space,keypress(Space),,,,,,,,---- -- ----- -- ------ - ------- --- ----------<br>------------- ------ ------ ---- ---- ------- ----- -- ----<br>-------- ------- -- ---------- --- - --- ----- ----- ----<br>---- --- --- ----- --- ---- ---- ------- ----- ---- -------<br>--- --- -- ----- -- --- ---- -- --- ---- -- that's ------<br>--- ----- -- ----,141570.80000007153,141570.10000002384,141235.028,141239.30000007153,141251.683,141584.626,,50,that's
screen,html.Screen,2_1_0_1_51,2022-02-21T16:49:56.026Z,,,,,,,,,,,,,,,,,53,,,,,,,,,,,,,,371.6740000715363,,response,,,,99,,,,,,,Space,keypress(Space),,,,,,,,---- -- ----- -- ------ - ------- --- ----------<br>------------- ------ ------ ---- ---- ------- ----- -- ----<br>-------- ------- -- ---------- --- - --- ----- ----- ----<br>---- --- --- ----- --- ---- ---- ------- ----- ---- -------<br>--- --- -- ----- -- --- ---- -- --- ---- -- ------ really<br>--- ----- -- ----,141956.80000007153,141956.30000007153,141567.991,141570.89999997616,141584.626,141967.535,,51,really
screen,html.Screen,2_1_0_1_52,2022-02-21T16:49:56.355Z,,,,,,,,,,,,,,,,,53,,,,,,,,,,,,,,318.6650000476802,,response,,,,99,,,,,,,Space,keypress(Space),,,,,,,,---- -- ----- -- ------ - ------- --- ----------<br>------------- ------ ------ ---- ---- ------- ----- -- ----<br>-------- ------- -- ---------- --- - --- ----- ----- ----<br>---- --- --- ----- --- ---- ---- ------- ----- ---- -------<br>--- --- -- ----- -- --- ---- -- --- ---- -- ------ ------<br>not ----- -- ----,142286.80000007153,142286.20000004768,141950.916,141957,141967.535,142300.636,,52,not
screen,html.Screen,2_1_0_1_53,2022-02-21T16:49:56.701Z,,,,,,,,,,,,,,,,,53,,,,,,,,,,,,,,331.16400007152697,,response,,,,99,,,,,,,Space,keypress(Space),,,,,,,,---- -- ----- -- ------ - ------- --- ----------<br>------------- ------ ------ ---- ---- ------- ----- -- ----<br>-------- ------- -- ---------- --- - --- ----- ----- ----<br>---- --- --- ----- --- ---- ---- ------- ----- ---- -------<br>--- --- -- ----- -- --- ---- -- --- ---- -- ------ ------<br>--- close -- ----,142632.30000007153,142631.80000007153,142284.002,142286.80000007153,142300.636,142651.422,,53,close
screen,html.Screen,2_1_0_1_54,2022-02-21T16:49:57.037Z,,,,,,,,,,,,,,,,,53,,,,,,,,,,,,,,316.5780000000086,,response,,,,99,,,,,,,Space,keypress(Space),,,,,,,,---- -- ----- -- ------ - ------- --- ----------<br>------------- ------ ------ ---- ---- ------- ----- -- ----<br>-------- ------- -- ---------- --- - --- ----- ----- ----<br>---- --- --- ----- --- ---- ---- ------- ----- ---- -------<br>--- --- -- ----- -- --- ---- -- --- ---- -- ------ ------<br>--- ----- at ----,142968.5,142968,142616.842,142632.30000007153,142651.422,142983.228,,54,at
screen,html.Screen,2_1_0_1_55,2022-02-21T16:49:58.192Z,,,,,,,,,,,,,,,,,53,,,,,,,,,,,,,,1139.472000047681,,response,,,,99,,,,,,,Space,keypress(Space),,,,,,,,---- -- ----- -- ------ - ------- --- ----------<br>------------- ------ ------ ---- ---- ------- ----- -- ----<br>-------- ------- -- ---------- --- - --- ----- ----- ----<br>---- --- --- ----- --- ---- ---- ------- ----- ---- -------<br>--- --- -- ----- -- --- ---- -- --- ---- -- ------ ------<br>--- ----- -- all.,144123.5,144122.70000004768,142966.448,142968.70000004768,142983.228,144131.783,,55,all.
Item 99,flow.Loop,2_1_0_1,2022-02-21T16:49:58.192Z,,,,,,,,,,,,,,,,,,,,,,,,,,,,,,,21067.715000047683,,completion,,,,,E,,,,,,,,,,,silence,,,,,144123.60000002384,144122.70000004768,123038.372,123039,123054.985,144131.783,,,
Question 1,html.Screen,2_1_0_2,2022-02-21T16:50:00.873Z,,,,,,,,,,,,,,,,,,,,,,,,,,,,true,FALSE,,2672.217000000004,,response,,,,99,E,,,,,,FALSE,click #choice-2,,,,silence,,,,,146804.70000004768,146804,144115.294,144123.70000004768,144131.783,146812.214,,,
Question 2,html.Screen,2_1_0_3,2022-02-21T16:50:05.988Z,,,,,,,,,,,,,,,,,,,,,,,,,,,,true,TRUE,,5106.685999976151,,response,,,,99,E,,,,,,TRUE,click #choice-1,,,,silence,,,,,151919.70000004768,151918.89999997616,146795.546,146804.80000007153,146812.214,151923.21,,,
Item 99,flow.Sequence,2_1_0,2022-02-21T16:50:05.989Z,,,,,,,,,,,,,,,,,,,,,,,,,,,,,,,38868.54799997616,,completion,,,,,,,,,,,,,,,,,,,,,151919.89999997616,151918.89999997616,113016.053,113046,113050.352,151923.21,,,
Holding screen,html.Screen,2_1_1_0,2022-02-21T16:50:15.982Z,,,,,,,,,,,,,,,,,,,,,,,,,,,,,,,10005.706000000006,,timeout,,,,,,,,,,,,,,,,,,,,,161912.89999997616,161912.397,151906.586,151920,151923.21,161928.916,,,
screen,html.Screen,2_1_1_1_0,2022-02-21T16:50:16.505Z,,,,,,,,,,,,,,,,,54,,,,,,,,,,,,,,506.88400007152813,,response,,,,100,,,,,,,Space,keypress(Space),,,,,,,,At --- ---- --- ------ ----- ------- ---- -- --- ------- --<br>------- ---------- ------ -- ----- -- ----- -- ---- ------<br>--- ----- --- --- ------ -------- ----- --- ------ ----- --<br>----- ----- ---------- --- --- ------ ------ ---- -- ------<br>------- --- ------ ----- --- ---- ------- -- ---- --- --<br>------- ------,162436.39999997616,162435.80000007153,161912.397,161913.10000002384,161928.916,162445.033,,0,At
screen,html.Screen,2_1_1_1_1,2022-02-21T16:50:16.840Z,,,,,,,,,,,,,,,,,54,,,,,,,,,,,,,,325.56700002384605,,response,,,,100,,,,,,,Space,keypress(Space),,,,,,,,-- the ---- --- ------ ----- ------- ---- -- --- ------- --<br>------- ---------- ------ -- ----- -- ----- -- ---- ------<br>--- ----- --- --- ------ -------- ----- --- ------ ----- --<br>----- ----- ---------- --- --- ------ ------ ---- -- ------<br>------- --- ------ ----- --- ---- ------- -- ---- --- --<br>------- ------,162771.20000004768,162770.60000002384,162428.399,162436.39999997616,162445.033,162778,,1,the
screen,html.Screen,2_1_1_1_2,2022-02-21T16:50:17.145Z,,,,,,,,,,,,,,,,,54,,,,,,,,,,,,,,297.7000000476837,,response,,,,100,,,,,,,Space,keypress(Space),,,,,,,,-- --- time --- ------ ----- ------- ---- -- --- ------- --<br>------- ---------- ------ -- ----- -- ----- -- ---- ------<br>--- ----- --- --- ------ -------- ----- --- ------ ----- --<br>----- ----- ---------- --- --- ------ ------ ---- -- ------<br>------- --- ------ ----- --- ---- ------- -- ---- --- --<br>------- ------,163076.39999997616,163075.70000004768,162761.445,162771.30000007153,162778,163095.088,,2,time
screen,html.Screen,2_1_1_1_3,2022-02-21T16:50:17.478Z,,,,,,,,,,,,,,,,,54,,,,,,,,,,,,,,313.6120000476949,,response,,,,100,,,,,,,Space,keypress(Space),,,,,,,,-- --- ---- the ------ ----- ------- ---- -- --- ------- --<br>------- ---------- ------ -- ----- -- ----- -- ---- ------<br>--- ----- --- --- ------ -------- ----- --- ------ ----- --<br>----- ----- ---------- --- --- ------ ------ ---- -- ------<br>------- --- ------ ----- --- ---- ------- -- ---- --- --<br>------- ------,163409.30000007153,163408.70000004768,163061.003,163076.5,163095.088,163428.315,,3,the
screen,html.Screen,2_1_1_1_4,2022-02-21T16:50:17.780Z,,,,,,,,,,,,,,,,,54,,,,,,,,,,,,,,282.5849999761558,,response,,,,100,,,,,,,Space,keypress(Space),,,,,,,,-- --- ---- --- French ----- ------- ---- -- --- ------- --<br>------- ---------- ------ -- ----- -- ----- -- ---- ------<br>--- ----- --- --- ------ -------- ----- --- ------ ----- --<br>----- ----- ---------- --- --- ------ ------ ---- -- ------<br>------- --- ------ ----- --- ---- ------- -- ---- --- --<br>------- ------,163711.39999997616,163710.89999997616,163393.979,163409.39999997616,163428.315,163726.925,,4,French
screen,html.Screen,2_1_1_1_5,2022-02-21T16:50:18.192Z,,,,,,,,,,,,,,,,,54,,,,,,,,,,,,,,395.6750000238535,,response,,,,100,,,,,,,Space,keypress(Space),,,,,,,,-- --- ---- --- ------ crown ------- ---- -- --- ------- --<br>------- ---------- ------ -- ----- -- ----- -- ---- ------<br>--- ----- --- --- ------ -------- ----- --- ------ ----- --<br>----- ----- ---------- --- --- ------ ------ ---- -- ------<br>------- --- ------ ----- --- ---- ------- -- ---- --- --<br>------- ------,164123.10000002384,164122.60000002384,163710.288,163711.5,163726.925,164126.641,,5,crown
screen,html.Screen,2_1_1_1_6,2022-02-21T16:50:18.542Z,,,,,,,,,,,,,,,,,54,,,,,,,,,,,,,,345.6590000715223,,response,,,,100,,,,,,,Space,keypress(Space),,,,,,,,-- --- ---- --- ------ ----- secured ---- -- --- ------- --<br>------- ---------- ------ -- ----- -- ----- -- ---- ------<br>--- ----- --- --- ------ -------- ----- --- ------ ----- --<br>----- ----- ---------- --- --- ------ ------ ---- -- ------<br>------- --- ------ ----- --- ---- ------- -- ---- --- --<br>------- ------,164472.89999997616,164472.30000007153,164109.853,164123.20000004768,164126.641,164476.144,,6,secured
screen,html.Screen,2_1_1_1_7,2022-02-21T16:50:18.965Z,,,,,,,,,,,,,,,,,54,,,,,,,,,,,,,,419.5560000476835,,response,,,,100,,,,,,,Space,keypress(Space),,,,,,,,-- --- ---- --- ------ ----- ------- much -- --- ------- --<br>------- ---------- ------ -- ----- -- ----- -- ---- ------<br>--- ----- --- --- ------ -------- ----- --- ------ ----- --<br>----- ----- ---------- --- --- ------ ------ ---- -- ------<br>------- --- ------ ----- --- ---- ------- -- ---- --- --<br>------- ------,164896.30000007153,164895.70000004768,164459.466,164473,164476.144,164909.122,,7,much
screen,html.Screen,2_1_1_1_8,2022-02-21T16:50:19.363Z,,,,,,,,,,,,,,,,,54,,,,,,,,,,,,,,384.7779999761551,,response,,,,100,,,,,,,Space,keypress(Space),,,,,,,,-- --- ---- --- ------ ----- ------- ---- of --- ------- --<br>------- ---------- ------ -- ----- -- ----- -- ---- ------<br>--- ----- --- --- ------ -------- ----- --- ------ ----- --<br>----- ----- ---------- --- --- ------ ------ ---- -- ------<br>------- --- ------ ----- --- ---- ------- -- ---- --- --<br>------- ------,165294.5,165293.89999997616,164892.303,164896.39999997616,164909.122,165308.679,,8,of
screen,html.Screen,2_1_1_1_9,2022-02-21T16:50:19.644Z,,,,,,,,,,,,,,,,,54,,,,,,,,,,,,,,266.02100004768,,response,,,,100,,,,,,,Space,keypress(Space),,,,,,,,-- --- ---- --- ------ ----- ------- ---- -- its ------- --<br>------- ---------- ------ -- ----- -- ----- -- ---- ------<br>--- ----- --- --- ------ -------- ----- --- ------ ----- --<br>----- ----- ---------- --- --- ------ ------ ---- -- ------<br>------- --- ------ ----- --- ---- ------- -- ---- --- --<br>------- ------,165575.30000007153,165574.70000004768,165291.902,165294.60000002384,165308.679,165591.563,,9,its
screen,html.Screen,2_1_1_1_10,2022-02-21T16:50:19.951Z,,,,,,,,,,,,,,,,,54,,,,,,,,,,,,,,290.0370000238472,,response,,,,100,,,,,,,Space,keypress(Space),,,,,,,,-- --- ---- --- ------ ----- ------- ---- -- --- revenue --<br>------- ---------- ------ -- ----- -- ----- -- ---- ------<br>--- ----- --- --- ------ -------- ----- --- ------ ----- --<br>----- ----- ---------- --- --- ------ ------ ---- -- ------<br>------- --- ------ ----- --- ---- ------- -- ---- --- --<br>------- ------,165882.20000004768,165881.60000002384,165574.901,165575.39999997616,165591.563,165891.219,,10,revenue
screen,html.Screen,2_1_1_1_11,2022-02-21T16:50:20.321Z,,,,,,,,,,,,,,,,,54,,,,,,,,,,,,,,360.38100002383,,response,,,,100,,,,,,,Space,keypress(Space),,,,,,,,-- --- ---- --- ------ ----- ------- ---- -- --- ------- by<br>------- ---------- ------ -- ----- -- ----- -- ---- ------<br>--- ----- --- --- ------ -------- ----- --- ------ ----- --<br>----- ----- ---------- --- --- ------ ------ ---- -- ------<br>------- --- ------ ----- --- ---- ------- -- ---- --- --<br>------- ------,166252.10000002384,166251.60000002384,165874.707,165882.30000007153,165891.219,166257.475,,11,by
screen,html.Screen,2_1_1_1_12,2022-02-21T16:50:20.664Z,,,,,,,,,,,,,,,,,54,,,,,,,,,,,,,,337.62500002383604,,response,,,,100,,,,,,,Space,keypress(Space),,,,,,,,-- --- ---- --- ------ ----- ------- ---- -- --- ------- --<br>issuing ---------- ------ -- ----- -- ----- -- ---- ------<br>--- ----- --- --- ------ -------- ----- --- ------ ----- --<br>----- ----- ---------- --- --- ------ ------ ---- -- ------<br>------- --- ------ ----- --- ---- ------- -- ---- --- --<br>------- ------,166595.80000007153,166595.10000002384,166240.951,166252.10000002384,166257.475,166607.094,,12,issuing
screen,html.Screen,2_1_1_1_13,2022-02-21T16:50:21.177Z,,,,,,,,,,,,,,,,,54,,,,,,,,,,,,,,501.10600004767184,,response,,,,100,,,,,,,Space,keypress(Space),,,,,,,,-- --- ---- --- ------ ----- ------- ---- -- --- ------- --<br>------- government ------ -- ----- -- ----- -- ---- ------<br>--- ----- --- --- ------ -------- ----- --- ------ ----- --<br>----- ----- ---------- --- --- ------ ------ ---- -- ------<br>------- --- ------ ----- --- ---- ------- -- ---- --- --<br>------- ------,167108.80000007153,167108.20000004768,166590.454,166595.89999997616,166607.094,167123.229,,13,government
screen,html.Screen,2_1_1_1_14,2022-02-21T16:50:21.585Z,,,,,,,,,,,,,,,,,54,,,,,,,,,,,,,,392.17099997616606,,response,,,,100,,,,,,,Space,keypress(Space),,,,,,,,-- --- ---- --- ------ ----- ------- ---- -- --- ------- --<br>------- ---------- bonds. -- ----- -- ----- -- ---- ------<br>--- ----- --- --- ------ -------- ----- --- ------ ----- --<br>----- ----- ---------- --- --- ------ ------ ---- -- ------<br>------- --- ------ ----- --- ---- ------- -- ---- --- --<br>------- ------,167516.20000004768,167515.39999997616,167106.543,167108.80000007153,167123.229,167522.752,,14,bonds.
screen,html.Screen,2_1_1_1_15,2022-02-21T16:50:22.056Z,,,,,,,,,,,,,,,,,54,,,,,,,,,,,,,,464.0480000715179,,response,,,,100,,,,,,,Space,keypress(Space),,,,,,,,-- --- ---- --- ------ ----- ------- ---- -- --- ------- --<br>------- ---------- ------ In ----- -- ----- -- ---- ------<br>--- ----- --- --- ------ -------- ----- --- ------ ----- --<br>----- ----- ---------- --- --- ------ ------ ---- -- ------<br>------- --- ------ ----- --- ---- ------- -- ---- --- --<br>------- ------,167987.39999997616,167986.80000007153,167506.208,167516.39999997616,167522.752,167988.854,,15,In
screen,html.Screen,2_1_1_1_16,2022-02-21T16:50:22.395Z,,,,,,,,,,,,,,,,,54,,,,,,,,,,,,,,336.54599997616606,,response,,,,100,,,,,,,Space,keypress(Space),,,,,,,,"-- --- ---- --- ------ ----- ------- ---- -- --- ------- --<br>------- ---------- ------ -- 1727, -- ----- -- ---- ------<br>--- ----- --- --- ------ -------- ----- --- ------ ----- --<br>----- ----- ---------- --- --- ------ ------ ---- -- ------<br>------- --- ------ ----- --- ---- ------- -- ---- --- --<br>------- ------",168326,168325.39999997616,167972.267,167987.5,167988.854,168338.655,,16,"1727,"
screen,html.Screen,2_1_1_1_17,2022-02-21T16:50:23.246Z,,,,,,,,,,,,,,,,,54,,,,,,,,,,,,,,837.945000023843,,response,,,,100,,,,,,,Space,keypress(Space),,,,,,,,-- --- ---- --- ------ ----- ------- ---- -- --- ------- --<br>------- ---------- ------ -- ----- in ----- -- ---- ------<br>--- ----- --- --- ------ -------- ----- --- ------ ----- --<br>----- ----- ---------- --- --- ------ ------ ---- -- ------<br>------- --- ------ ----- --- ---- ------- -- ---- --- --<br>------- ------,169177,169176.60000002384,168321.892,168326.10000002384,168338.655,169187.759,,17,in
screen,html.Screen,2_1_1_1_18,2022-02-21T16:50:23.615Z,,,,,,,,,,,,,,,,,54,,,,,,,,,,,,,,358.2410000000091,,response,,,,100,,,,,,,Space,keypress(Space),,,,,,,,-- --- ---- --- ------ ----- ------- ---- -- --- ------- --<br>------- ---------- ------ -- ----- -- order -- ---- ------<br>--- ----- --- --- ------ -------- ----- --- ------ ----- --<br>----- ----- ---------- --- --- ------ ------ ---- -- ------<br>------- --- ------ ----- --- ---- ------- -- ---- --- --<br>------- ------,169546.60000002384,169546,169171.096,169177.20000004768,169187.759,169553.87,,18,order
screen,html.Screen,2_1_1_1_19,2022-02-21T16:50:23.928Z,,,,,,,,,,,,,,,,,54,,,,,,,,,,,,,,305.13000000000466,,response,,,,100,,,,,,,Space,keypress(Space),,,,,,,,-- --- ---- --- ------ ----- ------- ---- -- --- ------- --<br>------- ---------- ------ -- ----- -- ----- to ---- ------<br>--- ----- --- --- ------ -------- ----- --- ------ ----- --<br>----- ----- ---------- --- --- ------ ------ ---- -- ------<br>------- --- ------ ----- --- ---- ------- -- ---- --- --<br>------- ------,169859.60000002384,169859,169537.215,169546.70000004768,169553.87,169870.167,,19,to
screen,html.Screen,2_1_1_1_20,2022-02-21T16:50:24.204Z,,,,,,,,,,,,,,,,,54,,,,,,,,,,,,,,264.13300007153885,,response,,,,100,,,,,,,Space,keypress(Space),,,,,,,,-- --- ---- --- ------ ----- ------- ---- -- --- ------- --<br>------- ---------- ------ -- ----- -- ----- -- save ------<br>--- ----- --- --- ------ -------- ----- --- ------ ----- --<br>----- ----- ---------- --- --- ------ ------ ---- -- ------<br>------- --- ------ ----- --- ---- ------- -- ---- --- --<br>------- ------,170135,170134.30000007153,169853.498,169859.70000004768,169870.167,170136.524,,20,save
screen,html.Screen,2_1_1_1_21,2022-02-21T16:50:24.528Z,,,,,,,,,,,,,,,,,54,,,,,,,,,,,,,,321.7760000715207,,response,,,,100,,,,,,,Space,keypress(Space),,,,,,,,"-- --- ---- --- ------ ----- ------- ---- -- --- ------- --<br>------- ---------- ------ -- ----- -- ----- -- ---- money,<br>--- ----- --- --- ------ -------- ----- --- ------ ----- --<br>----- ----- ---------- --- --- ------ ------ ---- -- ------<br>------- --- ------ ----- --- ---- ------- -- ---- --- --<br>------- ------",170459,170458.30000007153,170119.879,170135.10000002384,170136.524,170469.665,,21,"money,"
screen,html.Screen,2_1_1_1_22,2022-02-21T16:50:24.907Z,,,,,,,,,,,,,,,,,54,,,,,,,,,,,,,,368.23499997615,,response,,,,100,,,,,,,Space,keypress(Space),,,,,,,,-- --- ---- --- ------ ----- ------- ---- -- --- ------- --<br>------- ---------- ------ -- ----- -- ----- -- ---- ------<br>the ----- --- --- ------ -------- ----- --- ------ ----- --<br>----- ----- ---------- --- --- ------ ------ ---- -- ------<br>------- --- ------ ----- --- ---- ------- -- ---- --- --<br>------- ------,170838.30000007153,170837.89999997616,170452.875,170459.10000002384,170469.665,170852.411,,22,the
screen,html.Screen,2_1_1_1_23,2022-02-21T16:50:25.175Z,,,,,,,,,,,,,,,,,54,,,,,,,,,,,,,,252.98899997616536,,response,,,,100,,,,,,,Space,keypress(Space),,,,,,,,-- --- ---- --- ------ ----- ------- ---- -- --- ------- --<br>------- ---------- ------ -- ----- -- ----- -- ---- ------<br>--- state --- --- ------ -------- ----- --- ------ ----- --<br>----- ----- ---------- --- --- ------ ------ ---- -- ------<br>------- --- ------ ----- --- ---- ------- -- ---- --- --<br>------- ------,171106,171105.39999997616,170835.8,170838.39999997616,170852.411,171118.792,,23,state
screen,html.Screen,2_1_1_1_24,2022-02-21T16:50:25.430Z,,,,,,,,,,,,,,,,,54,,,,,,,,,,,,,,241.908000047697,,response,,,,100,,,,,,,Space,keypress(Space),,,,,,,,-- --- ---- --- ------ ----- ------- ---- -- --- ------- --<br>------- ---------- ------ -- ----- -- ----- -- ---- ------<br>--- ----- cut --- ------ -------- ----- --- ------ ----- --<br>----- ----- ---------- --- --- ------ ------ ---- -- ------<br>------- --- ------ ----- --- ---- ------- -- ---- --- --<br>------- ------,171361.20000004768,171360.70000004768,171102.131,171106.10000002384,171118.792,171368.681,,24,cut
screen,html.Screen,2_1_1_1_25,2022-02-21T16:50:25.763Z,,,,,,,,,,,,,,,,,54,,,,,,,,,,,,,,325.3189999999886,,response,,,,100,,,,,,,Space,keypress(Space),,,,,,,,-- --- ---- --- ------ ----- ------- ---- -- --- ------- --<br>------- ---------- ------ -- ----- -- ----- -- ---- ------<br>--- ----- --- the ------ -------- ----- --- ------ ----- --<br>----- ----- ---------- --- --- ------ ------ ---- -- ------<br>------- --- ------ ----- --- ---- ------- -- ---- --- --<br>------- ------,171694.60000002384,171694,171352.002,171361.30000007153,171368.681,171701.631,,25,the
screen,html.Screen,2_1_1_1_26,2022-02-21T16:50:26.105Z,,,,,,,,,,,,,,,,,54,,,,,,,,,,,,,,333.6690000715316,,response,,,,100,,,,,,,Space,keypress(Space),,,,,,,,-- --- ---- --- ------ ----- ------- ---- -- --- ------- --<br>------- ---------- ------ -- ----- -- ----- -- ---- ------<br>--- ----- --- --- bonds' -------- ----- --- ------ ----- --<br>----- ----- ---------- --- --- ------ ------ ---- -- ------<br>------- --- ------ ----- --- ---- ------- -- ---- --- --<br>------- ------,172036,172035.30000007153,171684.842,171694.70000004768,171701.631,172051.092,,26,bonds'
screen,html.Screen,2_1_1_1_27,2022-02-21T16:50:26.424Z,,,,,,,,,,,,,,,,,54,,,,,,,,,,,,,,303.50800002383767,,response,,,,100,,,,,,,Space,keypress(Space),,,,,,,,-- --- ---- --- ------ ----- ------- ---- -- --- ------- --<br>------- ---------- ------ -- ----- -- ----- -- ---- ------<br>--- ----- --- --- ------ interest ----- --- ------ ----- --<br>----- ----- ---------- --- --- ------ ------ ---- -- ------<br>------- --- ------ ----- --- ---- ------- -- ---- --- --<br>------- ------,172355.10000002384,172354.60000002384,172034.505,172036.10000002384,172051.092,172367.413,,27,interest
screen,html.Screen,2_1_1_1_28,2022-02-21T16:50:26.775Z,,,,,,,,,,,,,,,,,54,,,,,,,,,,,,,,338.1870000238414,,response,,,,100,,,,,,,Space,keypress(Space),,,,,,,,-- --- ---- --- ------ ----- ------- ---- -- --- ------- --<br>------- ---------- ------ -- ----- -- ----- -- ---- ------<br>--- ----- --- --- ------ -------- rate. --- ------ ----- --<br>----- ----- ---------- --- --- ------ ------ ---- -- ------<br>------- --- ------ ----- --- ---- ------- -- ---- --- --<br>------- ------,172706.20000004768,172705.60000002384,172350.8,172355.30000007153,172367.413,172717.212,,28,rate.
screen,html.Screen,2_1_1_1_29,2022-02-21T16:50:27.165Z,,,,,,,,,,,,,,,,,54,,,,,,,,,,,,,,378.3880000238423,,response,,,,100,,,,,,,Space,keypress(Space),,,,,,,,-- --- ---- --- ------ ----- ------- ---- -- --- ------- --<br>------- ---------- ------ -- ----- -- ----- -- ---- ------<br>--- ----- --- --- ------ -------- ----- The ------ ----- --<br>----- ----- ---------- --- --- ------ ------ ---- -- ------<br>------- --- ------ ----- --- ---- ------- -- ---- --- --<br>------- ------,173096.30000007153,173095.60000002384,172700.402,172706.39999997616,172717.212,173099.892,,29,The
screen,html.Screen,2_1_1_1_30,2022-02-21T16:50:27.515Z,,,,,,,,,,,,,,,,,54,,,,,,,,,,,,,,345.7080000238493,,response,,,,100,,,,,,,Space,keypress(Space),,,,,,,,-- --- ---- --- ------ ----- ------- ---- -- --- ------- --<br>------- ---------- ------ -- ----- -- ----- -- ---- ------<br>--- ----- --- --- ------ -------- ----- --- market ----- --<br>----- ----- ---------- --- --- ------ ------ ---- -- ------<br>------- --- ------ ----- --- ---- ------- -- ---- --- --<br>------- ------,173446,173445.60000002384,173083.428,173096.39999997616,173099.892,173449.718,,30,market
screen,html.Screen,2_1_1_1_31,2022-02-21T16:50:27.870Z,,,,,,,,,,,,,,,,,54,,,,,,,,,,,,,,350.7820000000065,,response,,,,100,,,,,,,Space,keypress(Space),,,,,,,,-- --- ---- --- ------ ----- ------- ---- -- --- ------- --<br>------- ---------- ------ -- ----- -- ----- -- ---- ------<br>--- ----- --- --- ------ -------- ----- --- ------ value --<br>----- ----- ---------- --- --- ------ ------ ---- -- ------<br>------- --- ------ ----- --- ---- ------- -- ---- --- --<br>------- ------,173801,173800.5,173432.935,173446.20000004768,173449.718,173815.819,,31,value
screen,html.Screen,2_1_1_1_32,2022-02-21T16:50:28.192Z,,,,,,,,,,,,,,,,,54,,,,,,,,,,,,,,306.481000071537,,response,,,,100,,,,,,,Space,keypress(Space),,,,,,,,-- --- ---- --- ------ ----- ------- ---- -- --- ------- --<br>------- ---------- ------ -- ----- -- ----- -- ---- ------<br>--- ----- --- --- ------ -------- ----- --- ------ ----- of<br>----- ----- ---------- --- --- ------ ------ ---- -- ------<br>------- --- ------ ----- --- ---- ------- -- ---- --- --<br>------- ------,174122.80000007153,174122.30000007153,173799.309,173801.10000002384,173815.819,174132.168,,32,of
screen,html.Screen,2_1_1_1_33,2022-02-21T16:50:28.493Z,,,,,,,,,,,,,,,,,54,,,,,,,,,,,,,,291.731999976153,,response,,,,100,,,,,,,Space,keypress(Space),,,,,,,,-- --- ---- --- ------ ----- ------- ---- -- --- ------- --<br>------- ---------- ------ -- ----- -- ----- -- ---- ------<br>--- ----- --- --- ------ -------- ----- --- ------ ----- --<br>these ----- ---------- --- --- ------ ------ ---- -- ------<br>------- --- ------ ----- --- ---- ------- -- ---- --- --<br>------- ------,174424.39999997616,174423.89999997616,174115.523,174122.89999997616,174132.168,174431.89,,33,these
screen,html.Screen,2_1_1_1_34,2022-02-21T16:50:28.803Z,,,,,,,,,,,,,,,,,54,,,,,,,,,,,,,,302.31000004766975,,response,,,,100,,,,,,,Space,keypress(Space),,,,,,,,-- --- ---- --- ------ ----- ------- ---- -- --- ------- --<br>------- ---------- ------ -- ----- -- ----- -- ---- ------<br>--- ----- --- --- ------ -------- ----- --- ------ ----- --<br>----- bonds ---------- --- --- ------ ------ ---- -- ------<br>------- --- ------ ----- --- ---- ------- -- ---- --- --<br>------- ------,174734.70000004768,174734.20000004768,174415.144,174424.89999997616,174431.89,174748.138,,34,bonds
screen,html.Screen,2_1_1_1_35,2022-02-21T16:50:29.153Z,,,,,,,,,,,,,,,,,54,,,,,,,,,,,,,,335.96200002383557,,response,,,,100,,,,,,,Space,keypress(Space),,,,,,,,"-- --- ---- --- ------ ----- ------- ---- -- --- ------- --<br>------- ---------- ------ -- ----- -- ----- -- ---- ------<br>--- ----- --- --- ------ -------- ----- --- ------ ----- --<br>----- ----- plummeted, --- --- ------ ------ ---- -- ------<br>------- --- ------ ----- --- ---- ------- -- ---- --- --<br>------- ------",175084.70000004768,175084.10000002384,174731.494,174734.80000007153,174748.138,175097.744,,35,"plummeted,"
screen,html.Screen,2_1_1_1_36,2022-02-21T16:50:29.571Z,,,,,,,,,,,,,,,,,54,,,,,,,,,,,,,,403.75599999999395,,response,,,,100,,,,,,,Space,keypress(Space),,,,,,,,-- --- ---- --- ------ ----- ------- ---- -- --- ------- --<br>------- ---------- ------ -- ----- -- ----- -- ---- ------<br>--- ----- --- --- ------ -------- ----- --- ------ ----- --<br>----- ----- ---------- and --- ------ ------ ---- -- ------<br>------- --- ------ ----- --- ---- ------- -- ---- --- --<br>------- ------,175502.10000002384,175501.5,175081.193,175084.70000004768,175097.744,175514.005,,36,and
screen,html.Screen,2_1_1_1_37,2022-02-21T16:50:29.887Z,,,,,,,,,,,,,,,,,54,,,,,,,,,,,,,,303.3949999761535,,response,,,,100,,,,,,,Space,keypress(Space),,,,,,,,-- --- ---- --- ------ ----- ------- ---- -- --- ------- --<br>------- ---------- ------ -- ----- -- ----- -- ---- ------<br>--- ----- --- --- ------ -------- ----- --- ------ ----- --<br>----- ----- ---------- --- the ------ ------ ---- -- ------<br>------- --- ------ ----- --- ---- ------- -- ---- --- --<br>------- ------,175817.89999997616,175817.39999997616,175497.324,175502.20000004768,175514.005,175830.279,,37,the
screen,html.Screen,2_1_1_1_38,2022-02-21T16:50:30.127Z,,,,,,,,,,,,,,,,,54,,,,,,,,,,,,,,227.92100004767417,,response,,,,100,,,,,,,Space,keypress(Space),,,,,,,,-- --- ---- --- ------ ----- ------- ---- -- --- ------- --<br>------- ---------- ------ -- ----- -- ----- -- ---- ------<br>--- ----- --- --- ------ -------- ----- --- ------ ----- --<br>----- ----- ---------- --- --- market ------ ---- -- ------<br>------- --- ------ ----- --- ---- ------- -- ---- --- --<br>------- ------,176058.70000004768,176058.20000004768,175813.629,175818,175830.279,176063.321,,38,market
screen,html.Screen,2_1_1_1_39,2022-02-21T16:50:30.423Z,,,,,,,,,,,,,,,,,54,,,,,,,,,,,,,,289.7790000238456,,response,,,,100,,,,,,,Space,keypress(Space),,,,,,,,-- --- ---- --- ------ ----- ------- ---- -- --- ------- --<br>------- ---------- ------ -- ----- -- ----- -- ---- ------<br>--- ----- --- --- ------ -------- ----- --- ------ ----- --<br>----- ----- ---------- --- --- ------ became ---- -- ------<br>------- --- ------ ----- --- ---- ------- -- ---- --- --<br>------- ------,176353.80000007153,176353.10000002384,176046.815,176058.89999997616,176063.321,176363.04,,39,became
screen,html.Screen,2_1_1_1_40,2022-02-21T16:50:30.737Z,,,,,,,,,,,,,,,,,54,,,,,,,,,,,,,,304.35999997615,,response,,,,100,,,,,,,Space,keypress(Space),,,,,,,,-- --- ---- --- ------ ----- ------- ---- -- --- ------- --<br>------- ---------- ------ -- ----- -- ----- -- ---- ------<br>--- ----- --- --- ------ -------- ----- --- ------ ----- --<br>----- ----- ---------- --- --- ------ ------ wary -- ------<br>------- --- ------ ----- --- ---- ------- -- ---- --- --<br>------- ------,176667.89999997616,176667.39999997616,176346.349,176353.89999997616,176363.04,176679.459,,40,wary
screen,html.Screen,2_1_1_1_41,2022-02-21T16:50:31.092Z,,,,,,,,,,,,,,,,,54,,,,,,,,,,,,,,343.74100004768115,,response,,,,100,,,,,,,Space,keypress(Space),,,,,,,,-- --- ---- --- ------ ----- ------- ---- -- --- ------- --<br>------- ---------- ------ -- ----- -- ----- -- ---- ------<br>--- ----- --- --- ------ -------- ----- --- ------ ----- --<br>----- ----- ---------- --- --- ------ ------ ---- of ------<br>------- --- ------ ----- --- ---- ------- -- ---- --- --<br>------- ------,177023.70000004768,177023.20000004768,176662.733,176668,176679.459,177028.949,,41,of
screen,html.Screen,2_1_1_1_42,2022-02-21T16:50:31.415Z,,,,,,,,,,,,,,,,,54,,,,,,,,,,,,,,316.8510000715323,,response,,,,100,,,,,,,Space,keypress(Space),,,,,,,,-- --- ---- --- ------ ----- ------- ---- -- --- ------- --<br>------- ---------- ------ -- ----- -- ----- -- ---- ------<br>--- ----- --- --- ------ -------- ----- --- ------ ----- --<br>----- ----- ---------- --- --- ------ ------ ---- -- French<br>------- --- ------ ----- --- ---- ------- -- ---- --- --<br>------- ------,177346.39999997616,177345.80000007153,177012.457,177023.80000007153,177028.949,177361.937,,42,French
screen,html.Screen,2_1_1_1_43,2022-02-21T16:50:31.764Z,,,,,,,,,,,,,,,,,54,,,,,,,,,,,,,,332.4629999761528,,response,,,,100,,,,,,,Space,keypress(Space),,,,,,,,-- --- ---- --- ------ ----- ------- ---- -- --- ------- --<br>------- ---------- ------ -- ----- -- ----- -- ---- ------<br>--- ----- --- --- ------ -------- ----- --- ------ ----- --<br>----- ----- ---------- --- --- ------ ------ ---- -- ------<br>credit. --- ------ ----- --- ---- ------- -- ---- --- --<br>------- ------,177694.89999997616,177694.39999997616,177345.378,177346.5,177361.937,177711.565,,43,credit.
screen,html.Screen,2_1_1_1_44,2022-02-21T16:50:32.290Z,,,,,,,,,,,,,,,,,54,,,,,,,,,,,,,,508.9349999999977,,response,,,,100,,,,,,,Space,keypress(Space),,,,,,,,-- --- ---- --- ------ ----- ------- ---- -- --- ------- --<br>------- ---------- ------ -- ----- -- ----- -- ---- ------<br>--- ----- --- --- ------ -------- ----- --- ------ ----- --<br>----- ----- ---------- --- --- ------ ------ ---- -- ------<br>------- The ------ ----- --- ---- ------- -- ---- --- --<br>------- ------,178220.89999997616,178220.5,177694.919,177695.10000002384,177711.565,178227.755,,44,The
screen,html.Screen,2_1_1_1_45,2022-02-21T16:50:32.613Z,,,,,,,,,,,,,,,,,54,,,,,,,,,,,,,,315.74499999999534,,response,,,,100,,,,,,,Space,keypress(Space),,,,,,,,-- --- ---- --- ------ ----- ------- ---- -- --- ------- --<br>------- ---------- ------ -- ----- -- ----- -- ---- ------<br>--- ----- --- --- ------ -------- ----- --- ------ ----- --<br>----- ----- ---------- --- --- ------ ------ ---- -- ------<br>------- --- French ----- --- ---- ------- -- ---- --- --<br>------- ------,178544.10000002384,178543.5,178211.157,178221,178227.755,178560.618,,45,French
screen,html.Screen,2_1_1_1_46,2022-02-21T16:50:32.909Z,,,,,,,,,,,,,,,,,54,,,,,,,,,,,,,,279.08200004769606,,response,,,,100,,,,,,,Space,keypress(Space),,,,,,,,-- --- ---- --- ------ ----- ------- ---- -- --- ------- --<br>------- ---------- ------ -- ----- -- ----- -- ---- ------<br>--- ----- --- --- ------ -------- ----- --- ------ ----- --<br>----- ----- ---------- --- --- ------ ------ ---- -- ------<br>------- --- ------ state --- ---- ------- -- ---- --- --<br>------- ------,178840.30000007153,178839.70000004768,178543.958,178544.30000007153,178560.618,178843.573,,46,state
screen,html.Screen,2_1_1_1_47,2022-02-21T16:50:33.221Z,,,,,,,,,,,,,,,,,54,,,,,,,,,,,,,,308.3269999761542,,response,,,,100,,,,,,,Space,keypress(Space),,,,,,,,-- --- ---- --- ------ ----- ------- ---- -- --- ------- --<br>------- ---------- ------ -- ----- -- ----- -- ---- ------<br>--- ----- --- --- ------ -------- ----- --- ------ ----- --<br>----- ----- ---------- --- --- ------ ------ ---- -- ------<br>------- --- ------ ----- was ---- ------- -- ---- --- --<br>------- ------,179152.5,179151.89999997616,178826.986,178840.39999997616,178843.573,179159.987,,47,was
screen,html.Screen,2_1_1_1_48,2022-02-21T16:50:33.518Z,,,,,,,,,,,,,,,,,54,,,,,,,,,,,,,,288.31300007153186,,response,,,,100,,,,,,,Space,keypress(Space),,,,,,,,-- --- ---- --- ------ ----- ------- ---- -- --- ------- --<br>------- ---------- ------ -- ----- -- ----- -- ---- ------<br>--- ----- --- --- ------ -------- ----- --- ------ ----- --<br>----- ----- ---------- --- --- ------ ------ ---- -- ------<br>------- --- ------ ----- --- left ------- -- ---- --- --<br>------- ------,179448.89999997616,179448.30000007153,179143.302,179152.5,179159.987,179459.75,,48,left
screen,html.Screen,2_1_1_1_49,2022-02-21T16:50:33.823Z,,,,,,,,,,,,,,,,,54,,,,,,,,,,,,,,294.25,,response,,,,100,,,,,,,Space,keypress(Space),,,,,,,,-- --- ---- --- ------ ----- ------- ---- -- --- ------- --<br>------- ---------- ------ -- ----- -- ----- -- ---- ------<br>--- ----- --- --- ------ -------- ----- --- ------ ----- --<br>----- ----- ---------- --- --- ------ ------ ---- -- ------<br>------- --- ------ ----- --- ---- without -- ---- --- --<br>------- ------,179754.5,179754,179442.977,179449,179459.75,179759.26,,49,without
screen,html.Screen,2_1_1_1_50,2022-02-21T16:50:34.121Z,,,,,,,,,,,,,,,,,54,,,,,,,,,,,,,,292.04000007151626,,response,,,,100,,,,,,,Space,keypress(Space),,,,,,,,-- --- ---- --- ------ ----- ------- ---- -- --- ------- --<br>------- ---------- ------ -- ----- -- ----- -- ---- ------<br>--- ----- --- --- ------ -------- ----- --- ------ ----- --<br>----- ----- ---------- --- --- ------ ------ ---- -- ------<br>------- --- ------ ----- --- ---- ------- an ---- --- --<br>------- ------,180051.80000007153,180051.30000007153,179742.787,179754.60000002384,179759.26,180058.977,,50,an
screen,html.Screen,2_1_1_1_51,2022-02-21T16:50:34.434Z,,,,,,,,,,,,,,,,,54,,,,,,,,,,,,,,306.0229999999865,,response,,,,100,,,,,,,Space,keypress(Space),,,,,,,,-- --- ---- --- ------ ----- ------- ---- -- --- ------- --<br>------- ---------- ------ -- ----- -- ----- -- ---- ------<br>--- ----- --- --- ------ -------- ----- --- ------ ----- --<br>----- ----- ---------- --- --- ------ ------ ---- -- ------<br>------- --- ------ ----- --- ---- ------- -- easy --- --<br>------- ------,180365.70000004768,180365,180042.428,180051.89999997616,180058.977,180375.413,,51,easy
screen,html.Screen,2_1_1_1_52,2022-02-21T16:50:34.745Z,,,,,,,,,,,,,,,,,54,,,,,,,,,,,,,,299.78700004768325,,response,,,,100,,,,,,,Space,keypress(Space),,,,,,,,-- --- ---- --- ------ ----- ------- ---- -- --- ------- --<br>------- ---------- ------ -- ----- -- ----- -- ---- ------<br>--- ----- --- --- ------ -------- ----- --- ------ ----- --<br>----- ----- ---------- --- --- ------ ------ ---- -- ------<br>------- --- ------ ----- --- ---- ------- -- ---- way --<br>------- ------,180676,180675.20000004768,180358.76,180365.80000007153,180375.413,180691.728,,52,way
screen,html.Screen,2_1_1_1_53,2022-02-21T16:50:35.077Z,,,,,,,,,,,,,,,,,54,,,,,,,,,,,,,,316.87200002383906,,response,,,,100,,,,,,,Space,keypress(Space),,,,,,,,-- --- ---- --- ------ ----- ------- ---- -- --- ------- --<br>------- ---------- ------ -- ----- -- ----- -- ---- ------<br>--- ----- --- --- ------ -------- ----- --- ------ ----- --<br>----- ----- ---------- --- --- ------ ------ ---- -- ------<br>------- --- ------ ----- --- ---- ------- -- ---- --- of<br>------- ------,181009,181008.60000002384,180674.946,180676.20000004768,180691.728,181024.603,,53,of
screen,html.Screen,2_1_1_1_54,2022-02-21T16:50:35.415Z,,,,,,,,,,,,,,,,,54,,,,,,,,,,,,,,320.99700002383906,,response,,,,100,,,,,,,Space,keypress(Space),,,,,,,,-- --- ---- --- ------ ----- ------- ---- -- --- ------- --<br>------- ---------- ------ -- ----- -- ----- -- ---- ------<br>--- ----- --- --- ------ -------- ----- --- ------ ----- --<br>----- ----- ---------- --- --- ------ ------ ---- -- ------<br>------- --- ------ ----- --- ---- ------- -- ---- --- --<br>raising ------,181346.10000002384,181345.60000002384,181008.038,181009.20000004768,181024.603,181357.536,,54,raising
screen,html.Screen,2_1_1_1_55,2022-02-21T16:50:35.826Z,,,,,,,,,,,,,,,,,54,,,,,,,,,,,,,,399.36399997616536,,response,,,,100,,,,,,,Space,keypress(Space),,,,,,,,-- --- ---- --- ------ ----- ------- ---- -- --- ------- --<br>------- ---------- ------ -- ----- -- ----- -- ---- ------<br>--- ----- --- --- ------ -------- ----- --- ------ ----- --<br>----- ----- ---------- --- --- ------ ------ ---- -- ------<br>------- --- ------ ----- --- ---- ------- -- ---- --- --<br>------- money.,181757.39999997616,181756.89999997616,181340.999,181346.30000007153,181357.536,181773.891,,55,money.
Item 100,flow.Loop,2_1_1_1,2022-02-21T16:50:35.826Z,,,,,,,,,,,,,,,,,,,,,,,,,,,,,,,19827.98399997616,,completion,,,,,E,,,,,,,,,,,silence,,,,,181757.60000002384,181756.89999997616,161912.397,161913,161928.916,181773.891,,,
Question 1,html.Screen,2_1_1_2,2022-02-21T16:50:37.811Z,,,,,,,,,,,,,,,,,,,,,,,,,,,,true,TRUE,,1967.8090000476805,,response,,,,100,E,,,,,,TRUE,click #choice-1,,,,silence,,,,,183742.5,183741.70000004768,181757.067,181757.60000002384,181773.891,183754.889,,,
Question 2,html.Screen,2_1_1_3,2022-02-21T16:50:39.460Z,,,,,,,,,,,,,,,,,,,,,,,,,,,,true,FALSE,,1636.5109999761626,,response,,,,100,E,,,,,,FALSE,click #choice-2,,,,silence,,,,,185392,185391.39999997616,183738.24,183742.60000002384,183754.889,185403.219,,,
Item 100,flow.Sequence,2_1_1,2022-02-21T16:50:39.460Z,,,,,,,,,,,,,,,,,,,,,,,,,,,,,,,33468.189999976166,,completion,,,,,,,,,,,,,,,,,,,,,185392.10000002384,185391.39999997616,151906.586,151920,151923.21,185403.219,,,
End of Practice,html.Page,2_1_2,2022-02-21T16:50:43.053Z,,,,,,,,,,,,,,,,,,,,,,,,,,,,,,,3581.6809999761463,,form submission,,,,,,,,,,,,,,,,,,,,,188985.10000002384,188984.89999997616,185386.53,185392.20000004768,185403.219,188999.136,,,
Practice,flow.Sequence,2_1,2022-02-21T16:50:43.054Z,,,,,,,,,,,,,,,,,,,,,,,,,,,,,,,75934.54799997616,,completion,,,,,,,,,,,,,,,,,,,,,188985.20000004768,188984.89999997616,113016.053,113045.89999997616,113050.352,188999.136,,,
Trap_instruction,html.Page,2_2_0,2022-02-21T16:50:46.527Z,,,,,,,,,,,,,,,,,,,,,,,,,,,,,,,3458.7639999761595,,form submission,,,,,,,,,,,,,,,,,,,,,192458.30000007153,192457.89999997616,188982.444,188985.30000007153,188999.136,192495.244,,,
trap_trial,html.Screen,2_2_1,2022-02-21T16:50:49.398Z,,,,,,,,,,,,,,,,,,,,,,,,,,,,true,1,,2833.9560000476777,,response,,,,,,,,,,,1,click #choice-1,,,,,,,,,195329.89999997616,195329.20000004768,192445.338,192458.39999997616,192495.244,195342.164,,,
end of trap trial,html.Page,2_2_2,2022-02-21T16:50:50.996Z,,,,,,,,,,,,,,,,,,,,,,,,,,,,,,,1585.536000047694,,form submission,,,,,,,,,,,,,,,,,,,,,196927.89999997616,196927.70000004768,195325.629,195330,195342.164,196940.41,,,
Trap 1,flow.Sequence,2_2,2022-02-21T16:50:50.996Z,,,,,,,,,,,,,,,,,,,,,,,,,,,,,,,7928.564000047685,,completion,,,,,,,,,,,,,,,,,,,,,196928,196927.70000004768,188982.444,188985.30000007153,188999.136,196940.41,,,
Standby,html.Page,2_3_0,2022-02-21T16:50:59.001Z,,,,,,,,,,,,,,,,,,,,,,,,,,,,,,,8008.011999999988,,timeout,,,,,,,,,,,,,,,,,,,,,204932.10000002384,204931.551,196923.676,196928.10000002384,196940.41,204948.422,,,
Holding screen,html.Screen,2_3_1_0_0,2022-02-21T16:51:05.993Z,,,,,,,,,,,,,,,,,,,,,,,,,,,,,,,6992.15400000001,,timeout,,,,,,,,,,,,,,,,,,,,,211924.60000002384,211924.041,204931.551,204933.20000004768,204948.422,211940.576,,,
screen,html.Screen,2_3_1_0_1_0,2022-02-21T16:51:06.874Z,,,,,,,,,,,,,,,,,48,,,,,,,,,,,,,,864.3239999761572,,response,,,,10,E,,,,,,Space,keypress(Space),,,,lyrical,,,,As -- --- ------ ------- --------- ----------- --------<br>--------- -------- --- ------- -- ------- ---- -- ------<br>-- --- -------- -------- ---------- ---- ---- ---- ------<br>-- --------- -- ---- -- --- -- --- ------- -- - -----<br>---------- -- -- -- ---- ----- -- ------ -- --- ------<br>-------,212805.60000002384,212804.89999997616,211924.041,211924.70000004768,211940.576,212806.2,,0,As
screen,html.Screen,2_3_1_0_1_1,2022-02-21T16:51:07.208Z,,,,,,,,,,,,,,,,,48,,,,,,,,,,,,,,332.9000000238302,,response,,,,10,E,,,,,,Space,keypress(Space),,,,lyrical,,,,-- in --- ------ ------- --------- ----------- --------<br>--------- -------- --- ------- -- ------- ---- -- ------<br>-- --- -------- -------- ---------- ---- ---- ---- ------<br>-- --------- -- ---- -- --- -- --- ------- -- - -----<br>---------- -- -- -- ---- ----- -- ------ -- --- ------<br>-------,213139.5,213139.10000002384,212789.663,212805.70000004768,212806.2,213155.857,,1,in
screen,html.Screen,2_3_1_0_1_2,2022-02-21T16:51:07.491Z,,,,,,,,,,,,,,,,,48,,,,,,,,,,,,,,266.2430000238528,,response,,,,10,E,,,,,,Space,keypress(Space),,,,lyrical,,,,-- -- the ------ ------- --------- ----------- --------<br>--------- -------- --- ------- -- ------- ---- -- ------<br>-- --- -------- -------- ---------- ---- ---- ---- ------<br>-- --------- -- ---- -- --- -- --- ------- -- - -----<br>---------- -- -- -- ---- ----- -- ------ -- --- ------<br>-------,213422.70000004768,213422.10000002384,213139.355,213139.70000004768,213155.857,213438.9,,2,the
screen,html.Screen,2_3_1_0_1_3,2022-02-21T16:51:07.745Z,,,,,,,,,,,,,,,,,48,,,,,,,,,,,,,,237.30000004768954,,response,,,,10,E,,,,,,Space,keypress(Space),,,,lyrical,,,,-- -- --- United ------- --------- ----------- --------<br>--------- -------- --- ------- -- ------- ---- -- ------<br>-- --- -------- -------- ---------- ---- ---- ---- ------<br>-- --------- -- ---- -- --- -- --- ------- -- - -----<br>---------- -- -- -- ---- ----- -- ------ -- --- ------<br>-------,213676.80000007153,213676.20000004768,213422.354,213422.70000004768,213438.9,213688.609,,3,United
screen,html.Screen,2_3_1_0_1_4,2022-02-21T16:51:08.091Z,,,,,,,,,,,,,,,,,48,,,,,,,,,,,,,,333.4910000238451,,response,,,,10,E,,,,,,Space,keypress(Space),,,,lyrical,,,,"-- -- --- ------ States, --------- ----------- --------<br>--------- -------- --- ------- -- ------- ---- -- ------<br>-- --- -------- -------- ---------- ---- ---- ---- ------<br>-- --------- -- ---- -- --- -- --- ------- -- - -----<br>---------- -- -- -- ---- ----- -- ------ -- --- ------<br>-------",214022.60000002384,214022.10000002384,213671.931,213677,213688.609,214038.226,,4,"States,"
screen,html.Screen,2_3_1_0_1_5,2022-02-21T16:51:08.564Z,,,,,,,,,,,,,,,,,48,,,,,,,,,,,,,,456.67399997616303,,response,,,,10,E,,,,,,Space,keypress(Space),,,,lyrical,,,,-- -- --- ------ ------- Colombian ----------- --------<br>--------- -------- --- ------- -- ------- ---- -- ------<br>-- --- -------- -------- ---------- ---- ---- ---- ------<br>-- --------- -- ---- -- --- -- --- ------- -- - -----<br>---------- -- -- -- ---- ----- -- ------ -- --- ------<br>-------,214495.5,214494.89999997616,214021.721,214022.70000004768,214038.226,214504.396,,5,Colombian
screen,html.Screen,2_3_1_0_1_6,2022-02-21T16:51:09.116Z,,,,,,,,,,,,,,,,,48,,,,,,,,,,,,,,542.7040000238339,,response,,,,10,E,,,,,,Space,keypress(Space),,,,lyrical,,,,-- -- --- ------ ------- --------- legislation --------<br>--------- -------- --- ------- -- ------- ---- -- ------<br>-- --- -------- -------- ---------- ---- ---- ---- ------<br>-- --------- -- ---- -- --- -- --- ------- -- - -----<br>---------- -- -- -- ---- ----- -- ------ -- --- ------<br>-------,215047.60000002384,215047.10000002384,214487.757,214495.60000002384,214504.396,215053.943,,6,legislation
screen,html.Screen,2_3_1_0_1_7,2022-02-21T16:51:09.559Z,,,,,,,,,,,,,,,,,48,,,,,,,,,,,,,,436.2570000476844,,response,,,,10,E,,,,,,Space,keypress(Space),,,,lyrical,,,,-- -- --- ------ ------- --------- ----------- requires<br>--------- -------- --- ------- -- ------- ---- -- ------<br>-- --- -------- -------- ---------- ---- ---- ---- ------<br>-- --------- -- ---- -- --- -- --- ------- -- - -----<br>---------- -- -- -- ---- ----- -- ------ -- --- ------<br>-------,215490.70000004768,215490.20000004768,215037.16,215047.80000007153,215053.943,215503.277,,7,requires
screen,html.Screen,2_3_1_0_1_8,2022-02-21T16:51:10.517Z,,,,,,,,,,,,,,,,,48,,,,,,,,,,,,,,945.32300002384,,response,,,,10,E,,,,,,Space,keypress(Space),,,,lyrical,,,,-- -- --- ------ ------- --------- ----------- --------<br>travelers -------- --- ------- -- ------- ---- -- ------<br>-- --- -------- -------- ---------- ---- ---- ---- ------<br>-- --------- -- ---- -- --- -- --- ------- -- - -----<br>---------- -- -- -- ---- ----- -- ------ -- --- ------<br>-------,216449,216448.60000002384,215486.619,215490.80000007153,215503.277,216452.209,,8,travelers
screen,html.Screen,2_3_1_0_1_9,2022-02-21T16:51:10.980Z,,,,,,,,,,,,,,,,,48,,,,,,,,,,,,,,458.99100004768115,,response,,,,10,E,,,,,,Space,keypress(Space),,,,lyrical,,,,-- -- --- ------ ------- --------- ----------- --------<br>--------- entering --- ------- -- ------- ---- -- ------<br>-- --- -------- -------- ---------- ---- ---- ---- ------<br>-- --------- -- ---- -- --- -- --- ------- -- - -----<br>---------- -- -- -- ---- ----- -- ------ -- --- ------<br>-------,216911.60000002384,216911.20000004768,216435.655,216449.20000004768,216452.209,216918.55,,9,entering
screen,html.Screen,2_3_1_0_1_10,2022-02-21T16:51:11.484Z,,,,,,,,,,,,,,,,,48,,,,,,,,,,,,,,496.3499999761698,,response,,,,10,E,,,,,,Space,keypress(Space),,,,lyrical,,,,-- -- --- ------ ------- --------- ----------- --------<br>--------- -------- the ------- -- ------- ---- -- ------<br>-- --- -------- -------- ---------- ---- ---- ---- ------<br>-- --------- -- ---- -- --- -- --- ------- -- - -----<br>---------- -- -- -- ---- ----- -- ------ -- --- ------<br>-------,217415.60000002384,217414.89999997616,216901.733,216911.70000004768,216918.55,217417.795,,10,the
screen,html.Screen,2_3_1_0_1_11,2022-02-21T16:51:12.097Z,,,,,,,,,,,,,,,,,48,,,,,,,,,,,,,,610.5050000715128,,response,,,,10,E,,,,,,Space,keypress(Space),,,,lyrical,,,,-- -- --- ------ ------- --------- ----------- --------<br>--------- -------- --- country -- ------- ---- -- ------<br>-- --- -------- -------- ---------- ---- ---- ---- ------<br>-- --------- -- ---- -- --- -- --- ------- -- - -----<br>---------- -- -- -- ---- ----- -- ------ -- --- ------<br>-------,218028.89999997616,218028.30000007153,217401.237,217415.70000004768,217417.795,218033.944,,11,country
screen,html.Screen,2_3_1_0_1_12,2022-02-21T16:51:13.067Z,,,,,,,,,,,,,,,,,48,,,,,,,,,,,,,,964.356000071537,,response,,,,10,E,,,,,,Space,keypress(Space),,,,lyrical,,,,-- -- --- ------ ------- --------- ----------- --------<br>--------- -------- --- ------- to ------- ---- -- ------<br>-- --- -------- -------- ---------- ---- ---- ---- ------<br>-- --------- -- ---- -- --- -- --- ------- -- - -----<br>---------- -- -- -- ---- ----- -- ------ -- --- ------<br>-------,218998.80000007153,218998.30000007153,218017.264,218029,218033.944,219017.375,,12,to
screen,html.Screen,2_3_1_0_1_13,2022-02-21T16:51:13.537Z,,,,,,,,,,,,,,,,,48,,,,,,,,,,,,,,451.22500002384186,,response,,,,10,E,,,,,,Space,keypress(Space),,,,lyrical,,,,-- -- --- ------ ------- --------- ----------- --------<br>--------- -------- --- ------- -- declare ---- -- ------<br>-- --- -------- -------- ---------- ---- ---- ---- ------<br>-- --------- -- ---- -- --- -- --- ------- -- - -----<br>---------- -- -- -- ---- ----- -- ------ -- --- ------<br>-------,219469,219468.60000002384,218982.966,218998.89999997616,219017.375,219482.235,,13,declare
screen,html.Screen,2_3_1_0_1_14,2022-02-21T16:51:13.889Z,,,,,,,,,,,,,,,,,48,,,,,,,,,,,,,,337.4650000476977,,response,,,,10,E,,,,,,Space,keypress(Space),,,,lyrical,,,,-- -- --- ------ ------- --------- ----------- --------<br>--------- -------- --- ------- -- ------- cash -- ------<br>-- --- -------- -------- ---------- ---- ---- ---- ------<br>-- --------- -- ---- -- --- -- --- ------- -- - -----<br>---------- -- -- -- ---- ----- -- ------ -- --- ------<br>-------,219820.30000007153,219819.70000004768,219465.598,219469.10000002384,219482.235,219831.986,,14,cash
screen,html.Screen,2_3_1_0_1_15,2022-02-21T16:51:14.248Z,,,,,,,,,,,,,,,,,48,,,,,,,,,,,,,,346.9139999761537,,response,,,,10,E,,,,,,Space,keypress(Space),,,,lyrical,,,,-- -- --- ------ ------- --------- ----------- --------<br>--------- -------- --- ------- -- ------- ---- in ------<br>-- --- -------- -------- ---------- ---- ---- ---- ------<br>-- --------- -- ---- -- --- -- --- ------- -- - -----<br>---------- -- -- -- ---- ----- -- ------ -- --- ------<br>-------,220179.5,220178.89999997616,219815.224,219820.39999997616,219831.986,220181.439,,15,in
screen,html.Screen,2_3_1_0_1_16,2022-02-21T16:51:14.559Z,,,,,,,,,,,,,,,,,48,,,,,,,,,,,,,,309.06099999998696,,response,,,,10,E,,,,,,Space,keypress(Space),,,,lyrical,,,,-- -- --- ------ ------- --------- ----------- --------<br>--------- -------- --- ------- -- ------- ---- -- excess<br>-- --- -------- -------- ---------- ---- ---- ---- ------<br>-- --------- -- ---- -- --- -- --- ------- -- - -----<br>---------- -- -- -- ---- ----- -- ------ -- --- ------<br>-------,220491,220490.5,220164.819,220179.70000004768,220181.439,220497.81,,16,excess
screen,html.Screen,2_3_1_0_1_17,2022-02-21T16:51:15.090Z,,,,,,,,,,,,,,,,,48,,,,,,,,,,,,,,523.4900000715279,,response,,,,10,E,,,,,,Space,keypress(Space),,,,lyrical,,,,-- -- --- ------ ------- --------- ----------- --------<br>--------- -------- --- ------- -- ------- ---- -- ------<br>of --- -------- -------- ---------- ---- ---- ---- ------<br>-- --------- -- ---- -- --- -- --- ------- -- - -----<br>---------- -- -- -- ---- ----- -- ------ -- --- ------<br>-------,221021.89999997616,221021.30000007153,220481.134,220491.10000002384,220497.81,221030.602,,17,of
screen,html.Screen,2_3_1_0_1_18,2022-02-21T16:51:15.400Z,,,,,,,,,,,,,,,,,48,,,,,,,,,,,,,,299.8979999999865,,response,,,,10,E,,,,,,Space,keypress(Space),,,,lyrical,,,,-- -- --- ------ ------- --------- ----------- --------<br>--------- -------- --- ------- -- ------- ---- -- ------<br>-- ten -------- -------- ---------- ---- ---- ---- ------<br>-- --------- -- ---- -- --- -- --- ------- -- - -----<br>---------- -- -- -- ---- ----- -- ------ -- --- ------<br>-------,221331.30000007153,221330.5,221014.038,221022,221030.602,221346.958,,18,ten
screen,html.Screen,2_3_1_0_1_19,2022-02-21T16:51:15.712Z,,,,,,,,,,,,,,,,,48,,,,,,,,,,,,,,295.94199997614487,,response,,,,10,E,,,,,,Space,keypress(Space),,,,lyrical,,,,-- -- --- ------ ------- --------- ----------- --------<br>--------- -------- --- ------- -- ------- ---- -- ------<br>-- --- thousand -------- ---------- ---- ---- ---- ------<br>-- --------- -- ---- -- --- -- --- ------- -- - -----<br>---------- -- -- -- ---- ----- -- ------ -- --- ------<br>-------,221643.30000007153,221642.89999997616,221330.32,221331.5,221346.958,221646.505,,19,thousand
screen,html.Screen,2_3_1_0_1_20,2022-02-21T16:51:16.067Z,,,,,,,,,,,,,,,,,48,,,,,,,,,,,,,,351.49499999999534,,response,,,,10,E,,,,,,Space,keypress(Space),,,,lyrical,,,,-- -- --- ------ ------- --------- ----------- --------<br>--------- -------- --- ------- -- ------- ---- -- ------<br>-- --- -------- dollars. ---------- ---- ---- ---- ------<br>-- --------- -- ---- -- --- -- --- ------- -- - -----<br>---------- -- -- -- ---- ----- -- ------ -- --- ------<br>-------,221998.5,221998,221629.878,221643.39999997616,221646.505,222012.795,,20,dollars.
screen,html.Screen,2_3_1_0_1_21,2022-02-21T16:51:16.606Z,,,,,,,,,,,,,,,,,48,,,,,,,,,,,,,,524.305000023829,,response,,,,10,E,,,,,,Space,keypress(Space),,,,lyrical,,,,-- -- --- ------ ------- --------- ----------- --------<br>--------- -------- --- ------- -- ------- ---- -- ------<br>-- --- -------- -------- Concealing ---- ---- ---- ------<br>-- --------- -- ---- -- --- -- --- ------- -- - -----<br>---------- -- -- -- ---- ----- -- ------ -- --- ------<br>-------,222537.5,222537.10000002384,221996.139,221998.5,222012.795,222545.518,,21,Concealing
screen,html.Screen,2_3_1_0_1_22,2022-02-21T16:51:16.945Z,,,,,,,,,,,,,,,,,48,,,,,,,,,,,,,,330.78200007151463,,response,,,,10,E,,,,,,Space,keypress(Space),,,,lyrical,,,,-- -- --- ------ ------- --------- ----------- --------<br>--------- -------- --- ------- -- ------- ---- -- ------<br>-- --- -------- -------- ---------- more ---- ---- ------<br>-- --------- -- ---- -- --- -- --- ------- -- - -----<br>---------- -- -- -- ---- ----- -- ------ -- --- ------<br>-------,222876.89999997616,222876.30000007153,222528.927,222537.60000002384,222545.518,222878.463,,22,more
screen,html.Screen,2_3_1_0_1_23,2022-02-21T16:51:17.255Z,,,,,,,,,,,,,,,,,48,,,,,,,,,,,,,,307.5370000000112,,response,,,,10,E,,,,,,Space,keypress(Space),,,,lyrical,,,,-- -- --- ------ ------- --------- ----------- --------<br>--------- -------- --- ------- -- ------- ---- -- ------<br>-- --- -------- -------- ---------- ---- than ---- ------<br>-- --------- -- ---- -- --- -- --- ------- -- - -----<br>---------- -- -- -- ---- ----- -- ------ -- --- ------<br>-------,223186.60000002384,223186,222861.857,222877,222878.463,223194.828,,23,than
screen,html.Screen,2_3_1_0_1_24,2022-02-21T16:51:17.517Z,,,,,,,,,,,,,,,,,48,,,,,,,,,,,,,,253.3720000476751,,response,,,,10,E,,,,,,Space,keypress(Space),,,,lyrical,,,,-- -- --- ------ ------- --------- ----------- --------<br>--------- -------- --- ------- -- ------- ---- -- ------<br>-- --- -------- -------- ---------- ---- ---- that ------<br>-- --------- -- ---- -- --- -- --- ------- -- - -----<br>---------- -- -- -- ---- ----- -- ------ -- --- ------<br>-------,223448.80000007153,223448.20000004768,223178.168,223186.70000004768,223194.828,223461.203,,24,that
screen,html.Screen,2_3_1_0_1_25,2022-02-21T16:51:17.851Z,,,,,,,,,,,,,,,,,48,,,,,,,,,,,,,,321.09700007151696,,response,,,,10,E,,,,,,Space,keypress(Space),,,,lyrical,,,,-- -- --- ------ ------- --------- ----------- --------<br>--------- -------- --- ------- -- ------- ---- -- ------<br>-- --- -------- -------- ---------- ---- ---- ---- amount<br>-- --------- -- ---- -- --- -- --- ------- -- - -----<br>---------- -- -- -- ---- ----- -- ------ -- --- ------<br>-------,223782.80000007153,223782.30000007153,223444.657,223448.89999997616,223461.203,223794.303,,25,amount
screen,html.Screen,2_3_1_0_1_26,2022-02-21T16:51:18.185Z,,,,,,,,,,,,,,,,,48,,,,,,,,,,,,,,321.8970000476693,,response,,,,10,E,,,,,,Space,keypress(Space),,,,lyrical,,,,-- -- --- ------ ------- --------- ----------- --------<br>--------- -------- --- ------- -- ------- ---- -- ------<br>-- --- -------- -------- ---------- ---- ---- ---- ------<br>to --------- -- ---- -- --- -- --- ------- -- - -----<br>---------- -- -- -- ---- ----- -- ------ -- --- ------<br>-------,224116.89999997616,224116.20000004768,223777.632,223782.89999997616,223794.303,224127.119,,26,to
screen,html.Screen,2_3_1_0_1_27,2022-02-21T16:51:18.522Z,,,,,,,,,,,,,,,,,48,,,,,,,,,,,,,,326.08100004767766,,response,,,,10,E,,,,,,Space,keypress(Space),,,,lyrical,,,,-- -- --- ------ ------- --------- ----------- --------<br>--------- -------- --- ------- -- ------- ---- -- ------<br>-- --- -------- -------- ---------- ---- ---- ---- ------<br>-- transport -- ---- -- --- -- --- ------- -- - -----<br>---------- -- -- -- ---- ----- -- ------ -- --- ------<br>-------,224453.70000004768,224453.20000004768,224110.449,224117,224127.119,224460.079,,27,transport
screen,html.Screen,2_3_1_0_1_28,2022-02-21T16:51:18.873Z,,,,,,,,,,,,,,,,,48,,,,,,,,,,,,,,344.1210000476858,,response,,,,10,E,,,,,,Space,keypress(Space),,,,lyrical,,,,-- -- --- ------ ------- --------- ----------- --------<br>--------- -------- --- ------- -- ------- ---- -- ------<br>-- --- -------- -------- ---------- ---- ---- ---- ------<br>-- --------- it ---- -- --- -- --- ------- -- - -----<br>---------- -- -- -- ---- ----- -- ------ -- --- ------<br>-------,224804.80000007153,224804.20000004768,224443.421,224453.89999997616,224460.079,224809.681,,28,it
screen,html.Screen,2_3_1_0_1_29,2022-02-21T16:51:19.200Z,,,,,,,,,,,,,,,,,48,,,,,,,,,,,,,,321.71899997614673,,response,,,,10,E,,,,,,Space,keypress(Space),,,,lyrical,,,,-- -- --- ------ ------- --------- ----------- --------<br>--------- -------- --- ------- -- ------- ---- -- ------<br>-- --- -------- -------- ---------- ---- ---- ---- ------<br>-- --------- -- into -- --- -- --- ------- -- - -----<br>---------- -- -- -- ---- ----- -- ------ -- --- ------<br>-------,225131.89999997616,225131.39999997616,224793.169,224805,224809.681,225142.749,,29,into
screen,html.Screen,2_3_1_0_1_30,2022-02-21T16:51:19.494Z,,,,,,,,,,,,,,,,,48,,,,,,,,,,,,,,282.55100007151486,,response,,,,10,E,,,,,,Space,keypress(Space),,,,lyrical,,,,-- -- --- ------ ------- --------- ----------- --------<br>--------- -------- --- ------- -- ------- ---- -- ------<br>-- --- -------- -------- ---------- ---- ---- ---- ------<br>-- --------- -- ---- or --- -- --- ------- -- - -----<br>---------- -- -- -- ---- ----- -- ------ -- --- ------<br>-------,225426.10000002384,225425.30000007153,225126.158,225132,225142.749,225442.483,,30,or
screen,html.Screen,2_3_1_0_1_31,2022-02-21T16:51:19.794Z,,,,,,,,,,,,,,,,,48,,,,,,,,,,,,,,282.8170000715181,,response,,,,10,E,,,,,,Space,keypress(Space),,,,lyrical,,,,-- -- --- ------ ------- --------- ----------- --------<br>--------- -------- --- ------- -- ------- ---- -- ------<br>-- --- -------- -------- ---------- ---- ---- ---- ------<br>-- --------- -- ---- -- out -- --- ------- -- - -----<br>---------- -- -- -- ---- ----- -- ------ -- --- ------<br>-------,225726,225725.30000007153,225425.684,225426.20000004768,225442.483,225742.014,,31,out
screen,html.Screen,2_3_1_0_1_32,2022-02-21T16:51:20.167Z,,,,,,,,,,,,,,,,,48,,,,,,,,,,,,,,356.0860000238463,,response,,,,10,E,,,,,,Space,keypress(Space),,,,lyrical,,,,-- -- --- ------ ------- --------- ----------- --------<br>--------- -------- --- ------- -- ------- ---- -- ------<br>-- --- -------- -------- ---------- ---- ---- ---- ------<br>-- --------- -- ---- -- --- of --- ------- -- - -----<br>---------- -- -- -- ---- ----- -- ------ -- --- ------<br>-------,226098.70000004768,226098.10000002384,225725.349,225726.10000002384,225742.014,226108.291,,32,of
screen,html.Screen,2_3_1_0_1_33,2022-02-21T16:51:20.527Z,,,,,,,,,,,,,,,,,48,,,,,,,,,,,,,,349.6089999761607,,response,,,,10,E,,,,,,Space,keypress(Space),,,,lyrical,,,,-- -- --- ------ ------- --------- ----------- --------<br>--------- -------- --- ------- -- ------- ---- -- ------<br>-- --- -------- -------- ---------- ---- ---- ---- ------<br>-- --------- -- ---- -- --- -- the ------- -- - -----<br>---------- -- -- -- ---- ----- -- ------ -- --- ------<br>-------,226458.5,226457.89999997616,226091.802,226098.89999997616,226108.291,226474.535,,33,the
screen,html.Screen,2_3_1_0_1_34,2022-02-21T16:51:20.920Z,,,,,,,,,,,,,,,,,48,,,,,,,,,,,,,,376.4649999999965,,response,,,,10,E,,,,,,Space,keypress(Space),,,,lyrical,,,,-- -- --- ------ ------- --------- ----------- --------<br>--------- -------- --- ------- -- ------- ---- -- ------<br>-- --- -------- -------- ---------- ---- ---- ---- ------<br>-- --------- -- ---- -- --- -- --- country -- - -----<br>---------- -- -- -- ---- ----- -- ------ -- --- ------<br>-------,226851.60000002384,226851,226457.901,226458.70000004768,226474.535,226857.442,,34,country
screen,html.Screen,2_3_1_0_1_35,2022-02-21T16:51:21.268Z,,,,,,,,,,,,,,,,,48,,,,,,,,,,,,,,341.85800007151556,,response,,,,10,E,,,,,,Space,keypress(Space),,,,lyrical,,,,-- -- --- ------ ------- --------- ----------- --------<br>--------- -------- --- ------- -- ------- ---- -- ------<br>-- --- -------- -------- ---------- ---- ---- ---- ------<br>-- --------- -- ---- -- --- -- --- ------- is - -----<br>---------- -- -- -- ---- ----- -- ------ -- --- ------<br>-------,227200,227199.30000007153,226840.82,226851.70000004768,226857.442,227207.062,,35,is
screen,html.Screen,2_3_1_0_1_36,2022-02-21T16:51:21.611Z,,,,,,,,,,,,,,,,,48,,,,,,,,,,,,,,334.63800004767836,,response,,,,10,E,,,,,,Space,keypress(Space),,,,lyrical,,,,-- -- --- ------ ------- --------- ----------- --------<br>--------- -------- --- ------- -- ------- ---- -- ------<br>-- --- -------- -------- ---------- ---- ---- ---- ------<br>-- --------- -- ---- -- --- -- --- ------- -- a -----<br>---------- -- -- -- ---- ----- -- ------ -- --- ------<br>-------,227542.20000004768,227541.70000004768,227190.451,227200.10000002384,227207.062,227556.696,,36,a
screen,html.Screen,2_3_1_0_1_37,2022-02-21T16:51:21.970Z,,,,,,,,,,,,,,,,,48,,,,,,,,,,,,,,344.70399997616187,,response,,,,10,E,,,,,,Space,keypress(Space),,,,lyrical,,,,-- -- --- ------ ------- --------- ----------- --------<br>--------- -------- --- ------- -- ------- ---- -- ------<br>-- --- -------- -------- ---------- ---- ---- ---- ------<br>-- --------- -- ---- -- --- -- --- ------- -- - crime<br>---------- -- -- -- ---- ----- -- ------ -- --- ------<br>-------,227901.89999997616,227901.39999997616,227540.051,227542.20000004768,227556.696,227906.306,,37,crime
screen,html.Screen,2_3_1_0_1_38,2022-02-21T16:51:22.461Z,,,,,,,,,,,,,,,,,48,,,,,,,,,,,,,,486.09399997614673,,response,,,,10,E,,,,,,Space,keypress(Space),,,,lyrical,,,,-- -- --- ------ ------- --------- ----------- --------<br>--------- -------- --- ------- -- ------- ---- -- ------<br>-- --- -------- -------- ---------- ---- ---- ---- ------<br>-- --------- -- ---- -- --- -- --- ------- -- - -----<br>punishable -- -- -- ---- ----- -- ------ -- --- ------<br>-------,228392.89999997616,228392.39999997616,227889.637,227902,227906.306,228405.788,,38,punishable
screen,html.Screen,2_3_1_0_1_39,2022-02-21T16:51:22.805Z,,,,,,,,,,,,,,,,,48,,,,,,,,,,,,,,329.8120000238414,,response,,,,10,E,,,,,,Space,keypress(Space),,,,lyrical,,,,-- -- --- ------ ------- --------- ----------- --------<br>--------- -------- --- ------- -- ------- ---- -- ------<br>-- --- -------- -------- ---------- ---- ---- ---- ------<br>-- --------- -- ---- -- --- -- --- ------- -- - -----<br>---------- by -- -- ---- ----- -- ------ -- --- ------<br>-------,228736.30000007153,228735.60000002384,228389.26,228393.10000002384,228405.788,228738.666,,39,by
screen,html.Screen,2_3_1_0_1_40,2022-02-21T16:51:23.138Z,,,,,,,,,,,,,,,,,48,,,,,,,,,,,,,,330.7339999761607,,response,,,,10,E,,,,,,Space,keypress(Space),,,,lyrical,,,,-- -- --- ------ ------- --------- ----------- --------<br>--------- -------- --- ------- -- ------- ---- -- ------<br>-- --- -------- -------- ---------- ---- ---- ---- ------<br>-- --------- -- ---- -- --- -- --- ------- -- - -----<br>---------- -- up -- ---- ----- -- ------ -- --- ------<br>-------,229069.89999997616,229069.39999997616,228722.054,228736.30000007153,228738.666,229071.654,,40,up
screen,html.Screen,2_3_1_0_1_41,2022-02-21T16:51:23.450Z,,,,,,,,,,,,,,,,,48,,,,,,,,,,,,,,309.4460000238323,,response,,,,10,E,,,,,,Space,keypress(Space),,,,lyrical,,,,-- -- --- ------ ------- --------- ----------- --------<br>--------- -------- --- ------- -- ------- ---- -- ------<br>-- --- -------- -------- ---------- ---- ---- ---- ------<br>-- --------- -- ---- -- --- -- --- ------- -- - -----<br>---------- -- -- to ---- ----- -- ------ -- --- ------<br>-------,229381.70000004768,229381.10000002384,229055.04,229070.10000002384,229071.654,229388.013,,41,to
screen,html.Screen,2_3_1_0_1_42,2022-02-21T16:51:23.768Z,,,,,,,,,,,,,,,,,48,,,,,,,,,,,,,,311.38699997615186,,response,,,,10,E,,,,,,Space,keypress(Space),,,,lyrical,,,,-- -- --- ------ ------- --------- ----------- --------<br>--------- -------- --- ------- -- ------- ---- -- ------<br>-- --- -------- -------- ---------- ---- ---- ---- ------<br>-- --------- -- ---- -- --- -- --- ------- -- - -----<br>---------- -- -- -- five ----- -- ------ -- --- ------<br>-------,229700,229699.39999997616,229371.501,229381.80000007153,229388.013,229704.459,,42,five
