sender,sender_type,sender_id,timestamp,meta,,Blues,Classical,Country,Dance,Electronic,Folk,Gospel,Hip-Hop,Jazz,Latin,Musical/Film,New-age,Pop,Prolific_id,Provo_ID,R&B,Rap,Reggae,Religious,Rock,Soul,Swing,Traditional,age,artist_name,correct,correctResponse,distraction,duration,education,ended_on,familiarity,gender,headphone_check_performance,item,list,music_frequency,offensiveness,pleasantness,position_correct,preference,response,response_action,snippet_file,song_name,song_rating,sound,stimulus_1,stimulus_2,stimulus_3,text,time_commit,time_end,time_render,time_run,time_show,time_switch,url,word,word_ID
Prolific ID,html.Form,0,2022-02-17T14:50:03.671Z,"{""labjs_version"":""20.2.2"",""labjs_build"":{""flavor"":""production"",""commit"":""a25486e0c714a0ae2ce03ff94b7bb6896854dcfa""},""location"":""https://run.pavlovia.org/mvasilev/prolific2_music_e/"",""userAgent"":""Mozilla/5.0 (Macintosh; Intel Mac OS X 10_15_7) AppleWebKit/605.1.15 (KHTML, like Gecko) Version/14.1.2 Safari/605.1.15"",""platform"":""MacIntel"",""language"":""en-gb"",""locale"":""en-GB"",""timeZone"":""Europe/London"",""timezoneOffset"":0,""screen_width"":1280,""screen_height"":800,""scroll_width"":1280,""scroll_height"":672,""window_innerWidth"":1280,""window_innerHeight"":720,""devicePixelRatio"":2}",,,,,,,,,,,,,,,5fbc69b5610c1913f3041a2c,,,,,,,,,,,,,,,8661,,form submission,,,,,,,,,,,,,,,,,,,,,18042,18041,9364,9340,9380,18071,{},,
Introduction,html.Screen,1_0,2022-02-17T14:50:08.524Z,,,,,,,,,,,,,,,,,,,,,,,,,,,,,,,4776,,response,,,,,,,,,,,continue,click button,,,,,,,,,22894.000000000004,22831,18055,18043,18071,22916,,,
Volume calibration,html.Screen,1_1,2022-02-17T14:50:44.194Z,,,,,,,,,,,,,,,,,,,,,,,,,,,,,,,35597.00000000001,,response,,,,,,,,,,,continue,click button,,,,,,,,,58564,58498.00000000001,22901,22895,22916,58582,,,
Task instructions,html.Screen,1_2,2022-02-17T14:50:54.808Z,,,,,,,,,,,,,,,,,,,,,,,,,,,,,,,10545,,response,,,,,,,,,,,continue,click button,,,,,,,,,69177,69113,58568,58564,58582,69201,,,
Sounds,html.Screen,1_3_0_0,2022-02-17T14:50:59.072Z,,,,,,,,,,,,,,,,,,,,,,,,,,,,,,,4257,,timeout,,,,,,,,,1,,,,,,,,S,O,I,,73441,73440,69185,69179,69201,73458,,,
Judgement,html.Screen,1_3_0_1,2022-02-17T14:51:00.558Z,,,,,,,,,,,,,,,,,,,,,,,,,,,,true,1,,1424,,response,,,,,,,,,1,,1,click #choice-1,,,,,S,O,I,,74927,74864,73440,73441,73458,74946,,,
Trial,flow.Sequence,1_3_0,2022-02-17T14:51:00.559Z,,,,,,,,,,,,,,,,,,,,,,,,,,,,,,,5663,,completion,,,,,,,,,1,,,,,,,,S,O,I,,74928,74864,69185,69178,69201,74946,,,
Sounds,html.Screen,1_3_1_0,2022-02-17T14:51:04.805Z,,,,,,,,,,,,,,,,,,,,,,,,,,,,,,,4245,,timeout,,,,,,,,,1,,,,,,,,S,I,O,,79174,79174,74931,74928,74946,79191,,,
Judgement,html.Screen,1_3_1_1,2022-02-17T14:51:06.865Z,,,,,,,,,,,,,,,,,,,,,,,,,,,,false,1,,1996,,response,,,,,,,,,1,,2,click #choice-2,,,,,S,I,O,,81234,81170,79174,79174,79191,81253,,,
Trial,flow.Sequence,1_3_1,2022-02-17T14:51:06.865Z,,,,,,,,,,,,,,,,,,,,,,,,,,,,,,,6224,,completion,,,,,,,,,1,,,,,,,,S,I,O,,81234,81170,74931,74928,74946,81253,,,
Sounds,html.Screen,1_3_2_0,2022-02-17T14:51:11.111Z,,,,,,,,,,,,,,,,,,,,,,,,,,,,,,,4244,,timeout,,,,,,,,,3,,,,,,,,O,I,S,,85480,85480,81236,81234,81253,85497,,,
Judgement,html.Screen,1_3_2_1,2022-02-17T14:51:15.004Z,,,,,,,,,,,,,,,,,,,,,,,,,,,,true,3,,3828,,response,,,,,,,,,3,,3,click #choice-3,,,,,O,I,S,,89372,89308,85480,85480,85497,89401,,,
Trial,flow.Sequence,1_3_2,2022-02-17T14:51:15.004Z,,,,,,,,,,,,,,,,,,,,,,,,,,,,,,,8055,,completion,,,,,,,,,3,,,,,,,,O,I,S,,89372,89308,81236,81234,81253,89401,,,
Sounds,html.Screen,1_3_3_0,2022-02-17T14:51:19.259Z,,,,,,,,,,,,,,,,,,,,,,,,,,,,,,,4243,,timeout,,,,,,,,,2,,,,,,,,I,S,O,,93628,93628,89385,89373,89401,93644,,,
Judgement,html.Screen,1_3_3_1,2022-02-17T14:51:19.831Z,,,,,,,,,,,,,,,,,,,,,,,,,,,,true,2,,508,,response,,,,,,,,,2,,2,click #choice-2,,,,,I,S,O,,94200,94136,93628,93628,93644,94233,,,
Trial,flow.Sequence,1_3_3,2022-02-17T14:51:19.832Z,,,,,,,,,,,,,,,,,,,,,,,,,,,,,,,4735,,completion,,,,,,,,,2,,,,,,,,I,S,O,,94200,94136,89385,89373,89401,94233,,,
Sounds,html.Screen,1_3_4_0,2022-02-17T14:51:24.107Z,,,,,,,,,,,,,,,,,,,,,,,,,,,,,,,4260,,timeout,,,,,,,,,2,,,,,,,,O,S,I,,98475.00000000001,98475,94216,94200,94233,98493,,,
Judgement,html.Screen,1_3_4_1,2022-02-17T14:51:24.895Z,,,,,,,,,,,,,,,,,,,,,,,,,,,,true,2,,725,,response,,,,,,,,,2,,2,click #choice-2,,,,,O,S,I,,99264,99200,98475,98476,98493,99296,,,
Trial,flow.Sequence,1_3_4,2022-02-17T14:51:24.896Z,,,,,,,,,,,,,,,,,,,,,,,,,,,,,,,4967,,completion,,,,,,,,,2,,,,,,,,O,S,I,,99264,99200,94216,94200,94233,99296,,,
Sounds,html.Screen,1_3_5_0,2022-02-17T14:51:29.156Z,,,,,,,,,,,,,,,,,,,,,,,,,,,,,,,4244,,timeout,,,,,,,,,3,,,,,,,,I,O,S,,103524,103524,99281,99264,99296,103540,,,
Judgement,html.Screen,1_3_5_1,2022-02-17T14:51:29.834Z,,,,,,,,,,,,,,,,,,,,,,,,,,,,true,3,,614,,response,,,,,,,,,3,,3,click #choice-3,,,,,I,O,S,,104202,104138,103524,103524,103540,104234,,,
Trial,flow.Sequence,1_3_5,2022-02-17T14:51:29.834Z,,,,,,,,,,,,,,,,,,,,,,,,,,,,,,,4842,,completion,,,,,,,,,3,,,,,,,,I,O,S,,104202,104138,99281,99264,99296,104234,,,
Task,flow.Loop,1_3,2022-02-17T14:51:29.836Z,,,,,,,,,,,,,,,,,,,,,,,,,,,,,,,34937,,completion,,,0.8333333333333334,,,,,,,,,,,,,,,,,,104204.00000000001,104138,69185,69178,69201,104234,,,
Trap,html.Screen,1_4,2022-02-17T14:51:29.837Z,,,,,,,,,,,,,,,,,,,,,,,,,,,,,,,NaN,,skipped,,,,,,,,,,,,,,,,,,,,,104205,104138,,104205,,104234,,,
Thanks,html.Screen,1_5,2022-02-17T14:51:35.741Z,,,,,,,,,,,,,,,,,,,,,,,,,,,,,,,5827,,response,,,,,,,,,,,continue,click button,,,,,,,,,110109.00000000001,110044,104217,104205,104234,114566,,,
Headphone screening,flow.Sequence,1,2022-02-17T14:51:35.741Z,,,,,,,,,,,,,,,,,,,,,,,,,,,,,,,91973,,completion,,,,,,,,,,,,,,,,,,,,,110109.00000000001,110044,18055,18042,18071,114566,,,
Instructions,html.Page,2_0,2022-02-17T14:52:34.190Z,,,,,,,,,,,,,,,,,,,,,,,,,,,,,,,53990,,form submission,,,,,,,,,,,,,,,,,,,,,168556,168556,114548,114536,114566,168581,,,
Holding screen,html.Screen,2_1_0_0,2022-02-17T14:52:44.199Z,,,,,,,,,,,,,,,,,,,,,,,,,,,,,,,10001,,timeout,,,,,,,,,,,,,,,,,,,,,178565,178565,168565,168556,168581,178582,,,
screen,html.Screen,2_1_0_1_0,2022-02-17T14:52:46.640Z,,,,,,,,,,,,,,,,,53,,,,,,,,,,,,,,2374,,response,,,,99,,,,,,,Space,keypress(Space),,,,,,,,When -- ----- -- ------ - ------- --- ----------<br>------------- ------ ------ ---- ---- ------- ----- -- ----<br>-------- ------- -- ---------- --- - --- ----- ----- ----<br>---- --- --- ----- --- ---- ---- ------- ----- ---- -------<br>--- --- -- ----- -- --- ---- -- --- ---- -- ------ ------<br>--- ----- -- ----,181006,180939,178565,178566,178582,181040,,0,When
screen,html.Screen,2_1_0_1_1,2022-02-17T14:52:47.833Z,,,,,,,,,,,,,,,,,53,,,,,,,,,,,,,,1110,,response,,,,99,,,,,,,Space,keypress(Space),,,,,,,,---- it ----- -- ------ - ------- --- ----------<br>------------- ------ ------ ---- ---- ------- ----- -- ----<br>-------- ------- -- ---------- --- - --- ----- ----- ----<br>---- --- --- ----- --- ---- ---- ------- ----- ---- -------<br>--- --- -- ----- -- --- ---- -- --- ---- -- ------ ------<br>--- ----- -- ----,182199,182133,181023,181006,181040,182239,,1,it
screen,html.Screen,2_1_0_1_2,2022-02-17T14:52:48.615Z,,,,,,,,,,,,,,,,,53,,,,,,,,,,,,,,692.0000000000291,,response,,,,99,,,,,,,Space,keypress(Space),,,,,,,,---- -- comes -- ------ - ------- --- ----------<br>------------- ------ ------ ---- ---- ------- ----- -- ----<br>-------- ------- -- ---------- --- - --- ----- ----- ----<br>---- --- --- ----- --- ---- ---- ------- ----- ---- -------<br>--- --- -- ----- -- --- ---- -- --- ---- -- ------ ------<br>--- ----- -- ----,182981,182914.00000000003,182222,182199,182239,183012,,2,comes
screen,html.Screen,2_1_0_1_3,2022-02-17T14:52:49.194Z,,,,,,,,,,,,,,,,,53,,,,,,,,,,,,,,498,,response,,,,99,,,,,,,Space,keypress(Space),,,,,,,,---- -- ----- to ------ - ------- --- ----------<br>------------- ------ ------ ---- ---- ------- ----- -- ----<br>-------- ------- -- ---------- --- - --- ----- ----- ----<br>---- --- --- ----- --- ---- ---- ------- ----- ---- -------<br>--- --- -- ----- -- --- ---- -- --- ---- -- ------ ------<br>--- ----- -- ----,183560,183493,182995,182981,183012,183603,,3,to
screen,html.Screen,2_1_0_1_4,2022-02-17T14:52:49.784Z,,,,,,,,,,,,,,,,,53,,,,,,,,,,,,,,497,,response,,,,99,,,,,,,Space,keypress(Space),,,,,,,,---- -- ----- -- having - ------- --- ----------<br>------------- ------ ------ ---- ---- ------- ----- -- ----<br>-------- ------- -- ---------- --- - --- ----- ----- ----<br>---- --- --- ----- --- ---- ---- ------- ----- ---- -------<br>--- --- -- ----- -- --- ---- -- --- ---- -- ------ ------<br>--- ----- -- ----,184150,184083,183586,183560,183603,184193,,4,having
screen,html.Screen,2_1_0_1_5,2022-02-17T14:52:50.642Z,,,,,,,,,,,,,,,,,53,,,,,,,,,,,,,,765,,response,,,,99,,,,,,,Space,keypress(Space),,,,,,,,---- -- ----- -- ------ a ------- --- ----------<br>------------- ------ ------ ---- ---- ------- ----- -- ----<br>-------- ------- -- ---------- --- - --- ----- ----- ----<br>---- --- --- ----- --- ---- ---- ------- ----- ---- -------<br>--- --- -- ----- -- --- ---- -- --- ---- -- ------ ------<br>--- ----- -- ----,185008,184941,184176,184150,184193,185049,,5,a
screen,html.Screen,2_1_0_1_6,2022-02-17T14:52:51.256Z,,,,,,,,,,,,,,,,,53,,,,,,,,,,,,,,522,,response,,,,99,,,,,,,Space,keypress(Space),,,,,,,,---- -- ----- -- ------ - lasting --- ----------<br>------------- ------ ------ ---- ---- ------- ----- -- ----<br>-------- ------- -- ---------- --- - --- ----- ----- ----<br>---- --- --- ----- --- ---- ---- ------- ----- ---- -------<br>--- --- -- ----- -- --- ---- -- --- ---- -- ------ ------<br>--- ----- -- ----,185622,185555,185033,185008,185049,185656,,6,lasting
screen,html.Screen,2_1_0_1_7,2022-02-17T14:52:51.677Z,,,,,,,,,,,,,,,,,53,,,,,,,,,,,,,,336,,response,,,,99,,,,,,,Space,keypress(Space),,,,,,,,---- -- ----- -- ------ - ------- and ----------<br>------------- ------ ------ ---- ---- ------- ----- -- ----<br>-------- ------- -- ---------- --- - --- ----- ----- ----<br>---- --- --- ----- --- ---- ---- ------- ----- ---- -------<br>--- --- -- ----- -- --- ---- -- --- ---- -- ------ ------<br>--- ----- -- ----,186043,185976,185640,185622,185656,186080,,7,and
screen,html.Screen,2_1_0_1_8,2022-02-17T14:52:51.930Z,,,,,,,,,,,,,,,,,53,,,,,,,,,,,,,,165,,response,,,,99,,,,,,,Space,keypress(Space),,,,,,,,---- -- ----- -- ------ - ------- --- fulfilling<br>------------- ------ ------ ---- ---- ------- ----- -- ----<br>-------- ------- -- ---------- --- - --- ----- ----- ----<br>---- --- --- ----- --- ---- ---- ------- ----- ---- -------<br>--- --- -- ----- -- --- ---- -- --- ---- -- ------ ------<br>--- ----- -- ----,186296,186229,186064,186043,186080,186321,,8,fulfilling
screen,html.Screen,2_1_0_1_9,2022-02-17T14:52:52.575Z,,,,,,,,,,,,,,,,,53,,,,,,,,,,,,,,571,,response,,,,99,,,,,,,Space,keypress(Space),,,,,,,,"---- -- ----- -- ------ - ------- --- ----------<br>relationship, ------ ------ ---- ---- ------- ----- -- ----<br>-------- ------- -- ---------- --- - --- ----- ----- ----<br>---- --- --- ----- --- ---- ---- ------- ----- ---- -------<br>--- --- -- ----- -- --- ---- -- --- ---- -- ------ ------<br>--- ----- -- ----",186941,186874,186303,186296,186321,186974,,9,"relationship,"
screen,html.Screen,2_1_0_1_10,2022-02-17T14:52:52.952Z,,,,,,,,,,,,,,,,,53,,,,,,,,,,,,,,295,,response,,,,99,,,,,,,Space,keypress(Space),,,,,,,,---- -- ----- -- ------ - ------- --- ----------<br>------------- common ------ ---- ---- ------- ----- -- ----<br>-------- ------- -- ---------- --- - --- ----- ----- ----<br>---- --- --- ----- --- ---- ---- ------- ----- ---- -------<br>--- --- -- ----- -- --- ---- -- --- ---- -- ------ ------<br>--- ----- -- ----,187318,187251,186956,186941,186974,187347,,10,common
screen,html.Screen,2_1_0_1_11,2022-02-17T14:52:53.528Z,,,,,,,,,,,,,,,,,53,,,,,,,,,,,,,,496,,response,,,,99,,,,,,,Space,keypress(Space),,,,,,,,---- -- ----- -- ------ - ------- --- ----------<br>------------- ------ wisdom ---- ---- ------- ----- -- ----<br>-------- ------- -- ---------- --- - --- ----- ----- ----<br>---- --- --- ----- --- ---- ---- ------- ----- ---- -------<br>--- --- -- ----- -- --- ---- -- --- ---- -- ------ ------<br>--- ----- -- ----,187894,187827,187331,187318,187347,187937,,11,wisdom
screen,html.Screen,2_1_0_1_12,2022-02-17T14:52:54.114Z,,,,,,,,,,,,,,,,,53,,,,,,,,,,,,,,493,,response,,,,99,,,,,,,Space,keypress(Space),,,,,,,,---- -- ----- -- ------ - ------- --- ----------<br>------------- ------ ------ says ---- ------- ----- -- ----<br>-------- ------- -- ---------- --- - --- ----- ----- ----<br>---- --- --- ----- --- ---- ---- ------- ----- ---- -------<br>--- --- -- ----- -- --- ---- -- --- ---- -- ------ ------<br>--- ----- -- ----,188480,188413,187920,187894,187937,188509,,12,says
screen,html.Screen,2_1_0_1_13,2022-02-17T14:52:54.327Z,,,,,,,,,,,,,,,,,53,,,,,,,,,,,,,,133,,response,,,,99,,,,,,,Space,keypress(Space),,,,,,,,---- -- ----- -- ------ - ------- --- ----------<br>------------- ------ ------ ---- that ------- ----- -- ----<br>-------- ------- -- ---------- --- - --- ----- ----- ----<br>---- --- --- ----- --- ---- ---- ------- ----- ---- -------<br>--- --- -- ----- -- --- ---- -- --- ---- -- ------ ------<br>--- ----- -- ----,188693,188626,188493,188480,188509,188715,,13,that
screen,html.Screen,2_1_0_1_14,2022-02-17T14:52:55.016Z,,,,,,,,,,,,,,,,,53,,,,,,,,,,,,,,615,,response,,,,99,,,,,,,Space,keypress(Space),,,,,,,,---- -- ----- -- ------ - ------- --- ----------<br>------------- ------ ------ ---- ---- feeling ----- -- ----<br>-------- ------- -- ---------- --- - --- ----- ----- ----<br>---- --- --- ----- --- ---- ---- ------- ----- ---- -------<br>--- --- -- ----- -- --- ---- -- --- ---- -- ------ ------<br>--- ----- -- ----,189382,189315,188700,188693,188715,189419,,14,feeling
screen,html.Screen,2_1_0_1_15,2022-02-17T14:52:55.456Z,,,,,,,,,,,,,,,,,53,,,,,,,,,,,,,,352,,response,,,,99,,,,,,,Space,keypress(Space),,,,,,,,---- -- ----- -- ------ - ------- --- ----------<br>------------- ------ ------ ---- ---- ------- close -- ----<br>-------- ------- -- ---------- --- - --- ----- ----- ----<br>---- --- --- ----- --- ---- ---- ------- ----- ---- -------<br>--- --- -- ----- -- --- ---- -- --- ---- -- ------ ------<br>--- ----- -- ----,189822,189755,189403,189382,189419,189859,,15,close
screen,html.Screen,2_1_0_1_16,2022-02-17T14:52:56.065Z,,,,,,,,,,,,,,,,,53,,,,,,,,,,,,,,521,,response,,,,99,,,,,,,Space,keypress(Space),,,,,,,,---- -- ----- -- ------ - ------- --- ----------<br>------------- ------ ------ ---- ---- ------- ----- to ----<br>-------- ------- -- ---------- --- - --- ----- ----- ----<br>---- --- --- ----- --- ---- ---- ------- ----- ---- -------<br>--- --- -- ----- -- --- ---- -- --- ---- -- ------ ------<br>--- ----- -- ----,190431,190364,189843,189822,189859,190466,,16,to
screen,html.Screen,2_1_0_1_17,2022-02-17T14:52:56.681Z,,,,,,,,,,,,,,,,,53,,,,,,,,,,,,,,532,,response,,,,99,,,,,,,Space,keypress(Space),,,,,,,,---- -- ----- -- ------ - ------- --- ----------<br>------------- ------ ------ ---- ---- ------- ----- -- your<br>-------- ------- -- ---------- --- - --- ----- ----- ----<br>---- --- --- ----- --- ---- ---- ------- ----- ---- -------<br>--- --- -- ----- -- --- ---- -- --- ---- -- ------ ------<br>--- ----- -- ----,191047,190980,190448,190431,190466,191090,,17,your
screen,html.Screen,2_1_0_1_18,2022-02-17T14:52:57.037Z,,,,,,,,,,,,,,,,,53,,,,,,,,,,,,,,264,,response,,,,99,,,,,,,Space,keypress(Space),,,,,,,,---- -- ----- -- ------ - ------- --- ----------<br>------------- ------ ------ ---- ---- ------- ----- -- ----<br>romantic ------- -- ---------- --- - --- ----- ----- ----<br>---- --- --- ----- --- ---- ---- ------- ----- ---- -------<br>--- --- -- ----- -- --- ---- -- --- ---- -- ------ ------<br>--- ----- -- ----,191403,191336,191072,191047,191090,191429,,18,romantic
screen,html.Screen,2_1_0_1_19,2022-02-17T14:52:57.285Z,,,,,,,,,,,,,,,,,53,,,,,,,,,,,,,,172,,response,,,,99,,,,,,,Space,keypress(Space),,,,,,,,---- -- ----- -- ------ - ------- --- ----------<br>------------- ------ ------ ---- ---- ------- ----- -- ----<br>-------- partner -- ---------- --- - --- ----- ----- ----<br>---- --- --- ----- --- ---- ---- ------- ----- ---- -------<br>--- --- -- ----- -- --- ---- -- --- ---- -- ------ ------<br>--- ----- -- ----,191651,191584,191412,191403,191429,191670,,19,partner
screen,html.Screen,2_1_0_1_20,2022-02-17T14:52:57.848Z,,,,,,,,,,,,,,,,,53,,,,,,,,,,,,,,494,,response,,,,99,,,,,,,Space,keypress(Space),,,,,,,,---- -- ----- -- ------ - ------- --- ----------<br>------------- ------ ------ ---- ---- ------- ----- -- ----<br>-------- ------- is ---------- --- - --- ----- ----- ----<br>---- --- --- ----- --- ---- ---- ------- ----- ---- -------<br>--- --- -- ----- -- --- ---- -- --- ---- -- ------ ------<br>--- ----- -- ----,192214,192147,191653,191651,191670,192256,,20,is
screen,html.Screen,2_1_0_1_21,2022-02-17T14:52:58.460Z,,,,,,,,,,,,,,,,,53,,,,,,,,,,,,,,520,,response,,,,99,,,,,,,Space,keypress(Space),,,,,,,,---- -- ----- -- ------ - ------- --- ----------<br>------------- ------ ------ ---- ---- ------- ----- -- ----<br>-------- ------- -- paramount. --- - --- ----- ----- ----<br>---- --- --- ----- --- ---- ---- ------- ----- ---- -------<br>--- --- -- ----- -- --- ---- -- --- ---- -- ------ ------<br>--- ----- -- ----,192826,192759,192239,192214,192256,192862,,21,paramount.
screen,html.Screen,2_1_0_1_22,2022-02-17T14:52:58.856Z,,,,,,,,,,,,,,,,,53,,,,,,,,,,,,,,310,,response,,,,99,,,,,,,Space,keypress(Space),,,,,,,,---- -- ----- -- ------ - ------- --- ----------<br>------------- ------ ------ ---- ---- ------- ----- -- ----<br>-------- ------- -- ---------- But - --- ----- ----- ----<br>---- --- --- ----- --- ---- ---- ------- ----- ---- -------<br>--- --- -- ----- -- --- ---- -- --- ---- -- ------ ------<br>--- ----- -- ----,193221,193155,192845,192826,192862,193252,,22,But
screen,html.Screen,2_1_0_1_23,2022-02-17T14:52:59.322Z,,,,,,,,,,,,,,,,,53,,,,,,,,,,,,,,387,,response,,,,99,,,,,,,Space,keypress(Space),,,,,,,,---- -- ----- -- ------ - ------- --- ----------<br>------------- ------ ------ ---- ---- ------- ----- -- ----<br>-------- ------- -- ---------- --- a --- ----- ----- ----<br>---- --- --- ----- --- ---- ---- ------- ----- ---- -------<br>--- --- -- ----- -- --- ---- -- --- ---- -- ------ ------<br>--- ----- -- ----,193688.00000000003,193621,193234,193221,193252,193725,,23,a
screen,html.Screen,2_1_0_1_24,2022-02-17T14:52:59.810Z,,,,,,,,,,,,,,,,,53,,,,,,,,,,,,,,400,,response,,,,99,,,,,,,Space,keypress(Space),,,,,,,,---- -- ----- -- ------ - ------- --- ----------<br>------------- ------ ------ ---- ---- ------- ----- -- ----<br>-------- ------- -- ---------- --- - new ----- ----- ----<br>---- --- --- ----- --- ---- ---- ------- ----- ---- -------<br>--- --- -- ----- -- --- ---- -- --- ---- -- ------ ------<br>--- ----- -- ----,194176.00000000003,194109,193709,193688.00000000003,193725,194215,,24,new
screen,html.Screen,2_1_0_1_25,2022-02-17T14:53:00.330Z,,,,,,,,,,,,,,,,,53,,,,,,,,,,,,,,430,,response,,,,99,,,,,,,Space,keypress(Space),,,,,,,,---- -- ----- -- ------ - ------- --- ----------<br>------------- ------ ------ ---- ---- ------- ----- -- ----<br>-------- ------- -- ---------- --- - --- study ----- ----<br>---- --- --- ----- --- ---- ---- ------- ----- ---- -------<br>--- --- -- ----- -- --- ---- -- --- ---- -- ------ ------<br>--- ----- -- ----,194695,194629,194199,194176.00000000003,194215,194722,,25,study
screen,html.Screen,2_1_0_1_26,2022-02-17T14:53:00.526Z,,,,,,,,,,,,,,,,,53,,,,,,,,,,,,,,119.0000000000291,,response,,,,99,,,,,,,Space,keypress(Space),,,,,,,,---- -- ----- -- ------ - ------- --- ----------<br>------------- ------ ------ ---- ---- ------- ----- -- ----<br>-------- ------- -- ---------- --- - --- ----- finds ----<br>---- --- --- ----- --- ---- ---- ------- ----- ---- -------<br>--- --- -- ----- -- --- ---- -- --- ---- -- ------ ------<br>--- ----- -- ----,194891,194825.00000000003,194706,194696,194722,194912,,26,finds
screen,html.Screen,2_1_0_1_27,2022-02-17T14:53:01.064Z,,,,,,,,,,,,,,,,,53,,,,,,,,,,,,,,468,,response,,,,99,,,,,,,Space,keypress(Space),,,,,,,,---- -- ----- -- ------ - ------- --- ----------<br>------------- ------ ------ ---- ---- ------- ----- -- ----<br>-------- ------- -- ---------- --- - --- ----- ----- that<br>---- --- --- ----- --- ---- ---- ------- ----- ---- -------<br>--- --- -- ----- -- --- ---- -- --- ---- -- ------ ------<br>--- ----- -- ----,195429,195363,194895,194892,194912,195465,,27,that
screen,html.Screen,2_1_0_1_28,2022-02-17T14:53:01.360Z,,,,,,,,,,,,,,,,,53,,,,,,,,,,,,,,210.0000000000291,,response,,,,99,,,,,,,Space,keypress(Space),,,,,,,,---- -- ----- -- ------ - ------- --- ----------<br>------------- ------ ------ ---- ---- ------- ----- -- ----<br>-------- ------- -- ---------- --- - --- ----- ----- ----<br>it's --- --- ----- --- ---- ---- ------- ----- ---- -------<br>--- --- -- ----- -- --- ---- -- --- ---- -- ------ ------<br>--- ----- -- ----,195725,195658.00000000003,195448,195430,195465,195754,,28,it's
screen,html.Screen,2_1_0_1_29,2022-02-17T14:53:01.817Z,,,,,,,,,,,,,,,,,53,,,,,,,,,,,,,,376,,response,,,,99,,,,,,,Space,keypress(Space),,,,,,,,---- -- ----- -- ------ - ------- --- ----------<br>------------- ------ ------ ---- ---- ------- ----- -- ----<br>-------- ------- -- ---------- --- - --- ----- ----- ----<br>---- not --- ----- --- ---- ---- ------- ----- ---- -------<br>--- --- -- ----- -- --- ---- -- --- ---- -- ------ ------<br>--- ----- -- ----,196182.00000000003,196115,195739,195726,195754,196215,,29,not
screen,html.Screen,2_1_0_1_30,2022-02-17T14:53:02.050Z,,,,,,,,,,,,,,,,,53,,,,,,,,,,,,,,150,,response,,,,99,,,,,,,Space,keypress(Space),,,,,,,,---- -- ----- -- ------ - ------- --- ----------<br>------------- ------ ------ ---- ---- ------- ----- -- ----<br>-------- ------- -- ---------- --- - --- ----- ----- ----<br>---- --- how ----- --- ---- ---- ------- ----- ---- -------<br>--- --- -- ----- -- --- ---- -- --- ---- -- ------ ------<br>--- ----- -- ----,196415,196348,196198,196182.00000000003,196215,196437,,30,how
screen,html.Screen,2_1_0_1_31,2022-02-17T14:53:02.261Z,,,,,,,,,,,,,,,,,53,,,,,,,,,,,,,,138,,response,,,,99,,,,,,,Space,keypress(Space),,,,,,,,---- -- ----- -- ------ - ------- --- ----------<br>------------- ------ ------ ---- ---- ------- ----- -- ----<br>-------- ------- -- ---------- --- - --- ----- ----- ----<br>---- --- --- close --- ---- ---- ------- ----- ---- -------<br>--- --- -- ----- -- --- ---- -- --- ---- -- ------ ------<br>--- ----- -- ----,196626,196559,196421,196416,196437,196657,,31,close
screen,html.Screen,2_1_0_1_32,2022-02-17T14:53:03.008Z,,,,,,,,,,,,,,,,,53,,,,,,,,,,,,,,666,,response,,,,99,,,,,,,Space,keypress(Space),,,,,,,,---- -- ----- -- ------ - ------- --- ----------<br>------------- ------ ------ ---- ---- ------- ----- -- ----<br>-------- ------- -- ---------- --- - --- ----- ----- ----<br>---- --- --- ----- you ---- ---- ------- ----- ---- -------<br>--- --- -- ----- -- --- ---- -- --- ---- -- ------ ------<br>--- ----- -- ----,197373,197306,196640,196626,196657,197408,,32,you
screen,html.Screen,2_1_0_1_33,2022-02-17T14:53:04.109Z,,,,,,,,,,,,,,,,,53,,,,,,,,,,,,,,1014,,response,,,,99,,,,,,,Space,keypress(Space),,,,,,,,---- -- ----- -- ------ - ------- --- ----------<br>------------- ------ ------ ---- ---- ------- ----- -- ----<br>-------- ------- -- ---------- --- - --- ----- ----- ----<br>---- --- --- ----- --- feel ---- ------- ----- ---- -------<br>--- --- -- ----- -- --- ---- -- --- ---- -- ------ ------<br>--- ----- -- ----,198474.00000000003,198407,197393,197374,197408,198513,,33,feel
screen,html.Screen,2_1_0_1_34,2022-02-17T14:53:04.621Z,,,,,,,,,,,,,,,,,53,,,,,,,,,,,,,,423,,response,,,,99,,,,,,,Space,keypress(Space),,,,,,,,---- -- ----- -- ------ - ------- --- ----------<br>------------- ------ ------ ---- ---- ------- ----- -- ----<br>-------- ------- -- ---------- --- - --- ----- ----- ----<br>---- --- --- ----- --- ---- that ------- ----- ---- -------<br>--- --- -- ----- -- --- ---- -- --- ---- -- ------ ------<br>--- ----- -- ----,198986,198919,198496,198475,198513,199019,,34,that
screen,html.Screen,2_1_0_1_35,2022-02-17T14:53:05.102Z,,,,,,,,,,,,,,,,,53,,,,,,,,,,,,,,398,,response,,,,99,,,,,,,Space,keypress(Space),,,,,,,,---- -- ----- -- ------ - ------- --- ----------<br>------------- ------ ------ ---- ---- ------- ----- -- ----<br>-------- ------- -- ---------- --- - --- ----- ----- ----<br>---- --- --- ----- --- ---- ---- matters ----- ---- -------<br>--- --- -- ----- -- --- ---- -- --- ---- -- ------ ------<br>--- ----- -- ----,199467,199400,199002,198986,199019,199510,,35,matters
screen,html.Screen,2_1_0_1_36,2022-02-17T14:53:05.335Z,,,,,,,,,,,,,,,,,53,,,,,,,,,,,,,,141,,response,,,,99,,,,,,,Space,keypress(Space),,,,,,,,"---- -- ----- -- ------ - ------- --- ----------<br>------------- ------ ------ ---- ---- ------- ----- -- ----<br>-------- ------- -- ---------- --- - --- ----- ----- ----<br>---- --- --- ----- --- ---- ---- ------- most, ---- -------<br>--- --- -- ----- -- --- ---- -- --- ---- -- ------ ------<br>--- ----- -- ----",199700.00000000003,199633,199492,199467,199510,199733,,36,"most,"
screen,html.Screen,2_1_0_1_37,2022-02-17T14:53:06.014Z,,,,,,,,,,,,,,,,,53,,,,,,,,,,,,,,596,,response,,,,99,,,,,,,Space,keypress(Space),,,,,,,,---- -- ----- -- ------ - ------- --- ----------<br>------------- ------ ------ ---- ---- ------- ----- -- ----<br>-------- ------- -- ---------- --- - --- ----- ----- ----<br>---- --- --- ----- --- ---- ---- ------- ----- it's -------<br>--- --- -- ----- -- --- ---- -- --- ---- -- ------ ------<br>--- ----- -- ----,200379,200312,199716,199700.00000000003,199733,200419,,37,it's
screen,html.Screen,2_1_0_1_38,2022-02-17T14:53:06.940Z,,,,,,,,,,,,,,,,,53,,,,,,,,,,,,,,835,,response,,,,99,,,,,,,Space,keypress(Space),,,,,,,,---- -- ----- -- ------ - ------- --- ----------<br>------------- ------ ------ ---- ---- ------- ----- -- ----<br>-------- ------- -- ---------- --- - --- ----- ----- ----<br>---- --- --- ----- --- ---- ---- ------- ----- ---- whether<br>--- --- -- ----- -- --- ---- -- --- ---- -- ------ ------<br>--- ----- -- ----,201305,201238,200403,200379,200419,201342,,38,whether
screen,html.Screen,2_1_0_1_39,2022-02-17T14:53:07.426Z,,,,,,,,,,,,,,,,,53,,,,,,,,,,,,,,398.0000000000291,,response,,,,99,,,,,,,Space,keypress(Space),,,,,,,,---- -- ----- -- ------ - ------- --- ----------<br>------------- ------ ------ ---- ---- ------- ----- -- ----<br>-------- ------- -- ---------- --- - --- ----- ----- ----<br>---- --- --- ----- --- ---- ---- ------- ----- ---- -------<br>you --- -- ----- -- --- ---- -- --- ---- -- ------ ------<br>--- ----- -- ----,201791,201724.00000000003,201326,201305,201342,201832,,39,you
screen,html.Screen,2_1_0_1_40,2022-02-17T14:53:08.011Z,,,,,,,,,,,,,,,,,53,,,,,,,,,,,,,,493,,response,,,,99,,,,,,,Space,keypress(Space),,,,,,,,---- -- ----- -- ------ - ------- --- ----------<br>------------- ------ ------ ---- ---- ------- ----- -- ----<br>-------- ------- -- ---------- --- - --- ----- ----- ----<br>---- --- --- ----- --- ---- ---- ------- ----- ---- -------<br>--- are -- ----- -- --- ---- -- --- ---- -- ------ ------<br>--- ----- -- ----,202376,202309,201816,201791,201832,202406,,40,are
screen,html.Screen,2_1_0_1_41,2022-02-17T14:53:08.474Z,,,,,,,,,,,,,,,,,53,,,,,,,,,,,,,,383,,response,,,,99,,,,,,,Space,keypress(Space),,,,,,,,---- -- ----- -- ------ - ------- --- ----------<br>------------- ------ ------ ---- ---- ------- ----- -- ----<br>-------- ------- -- ---------- --- - --- ----- ----- ----<br>---- --- --- ----- --- ---- ---- ------- ----- ---- -------<br>--- --- as ----- -- --- ---- -- --- ---- -- ------ ------<br>--- ----- -- ----,202839,202772,202389,202376,202406,202879,,41,as
screen,html.Screen,2_1_0_1_42,2022-02-17T14:53:08.930Z,,,,,,,,,,,,,,,,,53,,,,,,,,,,,,,,366,,response,,,,99,,,,,,,Space,keypress(Space),,,,,,,,---- -- ----- -- ------ - ------- --- ----------<br>------------- ------ ------ ---- ---- ------- ----- -- ----<br>-------- ------- -- ---------- --- - --- ----- ----- ----<br>---- --- --- ----- --- ---- ---- ------- ----- ---- -------<br>--- --- -- close -- --- ---- -- --- ---- -- ------ ------<br>--- ----- -- ----,203295.00000000003,203228,202862,202839,202879,203337,,42,close
screen,html.Screen,2_1_0_1_43,2022-02-17T14:53:09.627Z,,,,,,,,,,,,,,,,,53,,,,,,,,,,,,,,605,,response,,,,99,,,,,,,Space,keypress(Space),,,,,,,,---- -- ----- -- ------ - ------- --- ----------<br>------------- ------ ------ ---- ---- ------- ----- -- ----<br>-------- ------- -- ---------- --- - --- ----- ----- ----<br>---- --- --- ----- --- ---- ---- ------- ----- ---- -------<br>--- --- -- ----- as --- ---- -- --- ---- -- ------ ------<br>--- ----- -- ----,203992,203925,203320,203295.00000000003,203337,204026,,43,as
screen,html.Screen,2_1_0_1_44,2022-02-17T14:53:10.625Z,,,,,,,,,,,,,,,,,53,,,,,,,,,,,,,,913,,response,,,,99,,,,,,,Space,keypress(Space),,,,,,,,---- -- ----- -- ------ - ------- --- ----------<br>------------- ------ ------ ---- ---- ------- ----- -- ----<br>-------- ------- -- ---------- --- - --- ----- ----- ----<br>---- --- --- ----- --- ---- ---- ------- ----- ---- -------<br>--- --- -- ----- -- you ---- -- --- ---- -- ------ ------<br>--- ----- -- ----,204990,204923,204010,203992,204026,205017,,44,you
screen,html.Screen,2_1_0_1_45,2022-02-17T14:53:10.929Z,,,,,,,,,,,,,,,,,53,,,,,,,,,,,,,,226,,response,,,,99,,,,,,,Space,keypress(Space),,,,,,,,---- -- ----- -- ------ - ------- --- ----------<br>------------- ------ ------ ---- ---- ------- ----- -- ----<br>-------- ------- -- ---------- --- - --- ----- ----- ----<br>---- --- --- ----- --- ---- ---- ------- ----- ---- -------<br>--- --- -- ----- -- --- want -- --- ---- -- ------ ------<br>--- ----- -- ----,205294,205227,205001,204990,205017,205323,,45,want
screen,html.Screen,2_1_0_1_46,2022-02-17T14:53:11.121Z,,,,,,,,,,,,,,,,,53,,,,,,,,,,,,,,112,,response,,,,99,,,,,,,Space,keypress(Space),,,,,,,,---- -- ----- -- ------ - ------- --- ----------<br>------------- ------ ------ ---- ---- ------- ----- -- ----<br>-------- ------- -- ---------- --- - --- ----- ----- ----<br>---- --- --- ----- --- ---- ---- ------- ----- ---- -------<br>--- --- -- ----- -- --- ---- to --- ---- -- ------ ------<br>--- ----- -- ----,205486.00000000003,205419,205307,205294,205323,205515,,46,to
screen,html.Screen,2_1_0_1_47,2022-02-17T14:53:11.369Z,,,,,,,,,,,,,,,,,53,,,,,,,,,,,,,,169,,response,,,,99,,,,,,,Space,keypress(Space),,,,,,,,"---- -- ----- -- ------ - ------- --- ----------<br>------------- ------ ------ ---- ---- ------- ----- -- ----<br>-------- ------- -- ---------- --- - --- ----- ----- ----<br>---- --- --- ----- --- ---- ---- ------- ----- ---- -------<br>--- --- -- ----- -- --- ---- -- be, ---- -- ------ ------<br>--- ----- -- ----",205734,205667,205498,205486.00000000003,205515,205767,,47,"be,"
screen,html.Screen,2_1_0_1_48,2022-02-17T14:53:11.614Z,,,,,,,,,,,,,,,,,53,,,,,,,,,,,,,,160,,response,,,,99,,,,,,,Space,keypress(Space),,,,,,,,---- -- ----- -- ------ - ------- --- ----------<br>------------- ------ ------ ---- ---- ------- ----- -- ----<br>-------- ------- -- ---------- --- - --- ----- ----- ----<br>---- --- --- ----- --- ---- ---- ------- ----- ---- -------<br>--- --- -- ----- -- --- ---- -- --- even -- ------ ------<br>--- ----- -- ----,205979,205912,205752,205734,205767,206008,,48,even
screen,html.Screen,2_1_0_1_49,2022-02-17T14:53:11.859Z,,,,,,,,,,,,,,,,,53,,,,,,,,,,,,,,166,,response,,,,99,,,,,,,Space,keypress(Space),,,,,,,,---- -- ----- -- ------ - ------- --- ----------<br>------------- ------ ------ ---- ---- ------- ----- -- ----<br>-------- ------- -- ---------- --- - --- ----- ----- ----<br>---- --- --- ----- --- ---- ---- ------- ----- ---- -------<br>--- --- -- ----- -- --- ---- -- --- ---- if ------ ------<br>--- ----- -- ----,206224.00000000003,206157,205991,205979,206008,206244,,49,if
screen,html.Screen,2_1_0_1_50,2022-02-17T14:53:12.412Z,,,,,,,,,,,,,,,,,53,,,,,,,,,,,,,,481,,response,,,,99,,,,,,,Space,keypress(Space),,,,,,,,---- -- ----- -- ------ - ------- --- ----------<br>------------- ------ ------ ---- ---- ------- ----- -- ----<br>-------- ------- -- ---------- --- - --- ----- ----- ----<br>---- --- --- ----- --- ---- ---- ------- ----- ---- -------<br>--- --- -- ----- -- --- ---- -- --- ---- -- that's ------<br>--- ----- -- ----,206777.00000000003,206709,206228,206224.00000000003,206244,206812,,50,that's
screen,html.Screen,2_1_0_1_51,2022-02-17T14:53:12.980Z,,,,,,,,,,,,,,,,,53,,,,,,,,,,,,,,481,,response,,,,99,,,,,,,Space,keypress(Space),,,,,,,,---- -- ----- -- ------ - ------- --- ----------<br>------------- ------ ------ ---- ---- ------- ----- -- ----<br>-------- ------- -- ---------- --- - --- ----- ----- ----<br>---- --- --- ----- --- ---- ---- ------- ----- ---- -------<br>--- --- -- ----- -- --- ---- -- --- ---- -- ------ really<br>--- ----- -- ----,207345,207278,206797,206777.00000000003,206812,207383,,51,really
screen,html.Screen,2_1_0_1_52,2022-02-17T14:53:13.220Z,,,,,,,,,,,,,,,,,53,,,,,,,,,,,,,,152,,response,,,,99,,,,,,,Space,keypress(Space),,,,,,,,---- -- ----- -- ------ - ------- --- ----------<br>------------- ------ ------ ---- ---- ------- ----- -- ----<br>-------- ------- -- ---------- --- - --- ----- ----- ----<br>---- --- --- ----- --- ---- ---- ------- ----- ---- -------<br>--- --- -- ----- -- --- ---- -- --- ---- -- ------ ------<br>not ----- -- ----,207585,207518,207366,207345,207383,207619,,52,not
screen,html.Screen,2_1_0_1_53,2022-02-17T14:53:13.666Z,,,,,,,,,,,,,,,,,53,,,,,,,,,,,,,,361,,response,,,,99,,,,,,,Space,keypress(Space),,,,,,,,---- -- ----- -- ------ - ------- --- ----------<br>------------- ------ ------ ---- ---- ------- ----- -- ----<br>-------- ------- -- ---------- --- - --- ----- ----- ----<br>---- --- --- ----- --- ---- ---- ------- ----- ---- -------<br>--- --- -- ----- -- --- ---- -- --- ---- -- ------ ------<br>--- close -- ----,208031,207963,207602,207585,207619,208060,,53,close
screen,html.Screen,2_1_0_1_54,2022-02-17T14:53:14.076Z,,,,,,,,,,,,,,,,,53,,,,,,,,,,,,,,330,,response,,,,99,,,,,,,Space,keypress(Space),,,,,,,,---- -- ----- -- ------ - ------- --- ----------<br>------------- ------ ------ ---- ---- ------- ----- -- ----<br>-------- ------- -- ---------- --- - --- ----- ----- ----<br>---- --- --- ----- --- ---- ---- ------- ----- ---- -------<br>--- --- -- ----- -- --- ---- -- --- ---- -- ------ ------<br>--- ----- at ----,208441,208373,208043,208031,208060,208484,,54,at
screen,html.Screen,2_1_0_1_55,2022-02-17T14:53:14.530Z,,,,,,,,,,,,,,,,,53,,,,,,,,,,,,,,360,,response,,,,99,,,,,,,Space,keypress(Space),,,,,,,,---- -- ----- -- ------ - ------- --- ----------<br>------------- ------ ------ ---- ---- ------- ----- -- ----<br>-------- ------- -- ---------- --- - --- ----- ----- ----<br>---- --- --- ----- --- ---- ---- ------- ----- ---- -------<br>--- --- -- ----- -- --- ---- -- --- ---- -- ------ ------<br>--- ----- -- all.,208895,208827,208467,208441,208484,208922,,55,all.
Item 99,flow.Loop,2_1_0_1,2022-02-17T14:53:14.530Z,,,,,,,,,,,,,,,,,,,,,,,,,,,,,,,30245,,completion,,,,,E,,,,,,,,,,,silence,,,,,208895,208827,178565,178566,178582,208922,,,
Question 1,html.Screen,2_1_0_2,2022-02-17T14:53:19.839Z,,,,,,,,,,,,,,,,,,,,,,,,,,,,true,FALSE,,5230,,response,,,,99,E,,,,,,FALSE,click #choice-2,,,,silence,,,,,214204,214136,208906,208895,208922,214231,,,
Question 2,html.Screen,2_1_0_3,2022-02-17T14:53:23.708Z,,,,,,,,,,,,,,,,,,,,,,,,,,,,true,TRUE,,3791,,response,,,,99,E,,,,,,TRUE,click #choice-1,,,,silence,,,,,218073,218005,214214,214204,214231,218099,,,
Item 99,flow.Sequence,2_1_0,2022-02-17T14:53:23.708Z,,,,,,,,,,,,,,,,,,,,,,,,,,,,,,,49424,,completion,,,,,,,,,,,,,,,,,,,,,218073,218005,168565,168556,168581,218099,,,
Holding screen,html.Screen,2_1_1_0,2022-02-17T14:53:33.719Z,,,,,,,,,,,,,,,,,,,,,,,,,,,,,,,10002,,timeout,,,,,,,,,,,,,,,,,,,,,228084,228084,218076,218073,218099,228101,,,
screen,html.Screen,2_1_1_1_0,2022-02-17T14:53:44.651Z,,,,,,,,,,,,,,,,,54,,,,,,,,,,,,,,10863,,response,,,,100,,,,,,,Space,keypress(Space),,,,,,,,At --- ---- --- ------ ----- ------- ---- -- --- ------- --<br>------- ---------- ------ -- ----- -- ----- -- ---- ------<br>--- ----- --- --- ------ -------- ----- --- ------ ----- --<br>----- ----- ---------- --- --- ------ ------ ---- -- ------<br>------- --- ------ ----- --- ---- ------- -- ---- --- --<br>------- ------,239015.00000000003,238947,228084,228084,228101,239044,,0,At
screen,html.Screen,2_1_1_1_1,2022-02-17T14:53:45.876Z,,,,,,,,,,,,,,,,,54,,,,,,,,,,,,,,1145,,response,,,,100,,,,,,,Space,keypress(Space),,,,,,,,-- the ---- --- ------ ----- ------- ---- -- --- ------- --<br>------- ---------- ------ -- ----- -- ----- -- ---- ------<br>--- ----- --- --- ------ -------- ----- --- ------ ----- --<br>----- ----- ---------- --- --- ------ ------ ---- -- ------<br>------- --- ------ ----- --- ---- ------- -- ---- --- --<br>------- ------,240240,240172,239027,239015.00000000003,239044,240280,,1,the
screen,html.Screen,2_1_1_1_2,2022-02-17T14:53:47.378Z,,,,,,,,,,,,,,,,,54,,,,,,,,,,,,,,1410,,response,,,,100,,,,,,,Space,keypress(Space),,,,,,,,-- --- time --- ------ ----- ------- ---- -- --- ------- --<br>------- ---------- ------ -- ----- -- ----- -- ---- ------<br>--- ----- --- --- ------ -------- ----- --- ------ ----- --<br>----- ----- ---------- --- --- ------ ------ ---- -- ------<br>------- --- ------ ----- --- ---- ------- -- ---- --- --<br>------- ------,241742.00000000003,241674,240264,240241,240280,241773,,2,time
screen,html.Screen,2_1_1_1_3,2022-02-17T14:53:47.979Z,,,,,,,,,,,,,,,,,54,,,,,,,,,,,,,,519,,response,,,,100,,,,,,,Space,keypress(Space),,,,,,,,-- --- ---- the ------ ----- ------- ---- -- --- ------- --<br>------- ---------- ------ -- ----- -- ----- -- ---- ------<br>--- ----- --- --- ------ -------- ----- --- ------ ----- --<br>----- ----- ---------- --- --- ------ ------ ---- -- ------<br>------- --- ------ ----- --- ---- ------- -- ---- --- --<br>------- ------,242343.00000000003,242275,241756,241742.00000000003,241773,242380,,3,the
screen,html.Screen,2_1_1_1_4,2022-02-17T14:53:48.492Z,,,,,,,,,,,,,,,,,54,,,,,,,,,,,,,,425,,response,,,,100,,,,,,,Space,keypress(Space),,,,,,,,-- --- ---- --- French ----- ------- ---- -- --- ------- --<br>------- ---------- ------ -- ----- -- ----- -- ---- ------<br>--- ----- --- --- ------ -------- ----- --- ------ ----- --<br>----- ----- ---------- --- --- ------ ------ ---- -- ------<br>------- --- ------ ----- --- ---- ------- -- ---- --- --<br>------- ------,242856,242788,242363,242343.00000000003,242380,242887,,4,French
screen,html.Screen,2_1_1_1_5,2022-02-17T14:53:48.904Z,,,,,,,,,,,,,,,,,54,,,,,,,,,,,,,,330.0000000000291,,response,,,,100,,,,,,,Space,keypress(Space),,,,,,,,-- --- ---- --- ------ crown ------- ---- -- --- ------- --<br>------- ---------- ------ -- ----- -- ----- -- ---- ------<br>--- ----- --- --- ------ -------- ----- --- ------ ----- --<br>----- ----- ---------- --- --- ------ ------ ---- -- ------<br>------- --- ------ ----- --- ---- ------- -- ---- --- --<br>------- ------,243268,243200.00000000003,242870,242856,242887,243311,,5,crown
screen,html.Screen,2_1_1_1_6,2022-02-17T14:53:49.240Z,,,,,,,,,,,,,,,,,54,,,,,,,,,,,,,,242,,response,,,,100,,,,,,,Space,keypress(Space),,,,,,,,-- --- ---- --- ------ ----- secured ---- -- --- ------- --<br>------- ---------- ------ -- ----- -- ----- -- ---- ------<br>--- ----- --- --- ------ -------- ----- --- ------ ----- --<br>----- ----- ---------- --- --- ------ ------ ---- -- ------<br>------- --- ------ ----- --- ---- ------- -- ---- --- --<br>------- ------,243604,243536,243294,243268,243311,243635,,6,secured
screen,html.Screen,2_1_1_1_7,2022-02-17T14:53:49.444Z,,,,,,,,,,,,,,,,,54,,,,,,,,,,,,,,122,,response,,,,100,,,,,,,Space,keypress(Space),,,,,,,,-- --- ---- --- ------ ----- ------- much -- --- ------- --<br>------- ---------- ------ -- ----- -- ----- -- ---- ------<br>--- ----- --- --- ------ -------- ----- --- ------ ----- --<br>----- ----- ---------- --- --- ------ ------ ---- -- ------<br>------- --- ------ ----- --- ---- ------- -- ---- --- --<br>------- ------,243808,243740,243618,243604,243635,243842,,7,much
screen,html.Screen,2_1_1_1_8,2022-02-17T14:53:49.984Z,,,,,,,,,,,,,,,,,54,,,,,,,,,,,,,,455,,response,,,,100,,,,,,,Space,keypress(Space),,,,,,,,-- --- ---- --- ------ ----- ------- ---- of --- ------- --<br>------- ---------- ------ -- ----- -- ----- -- ---- ------<br>--- ----- --- --- ------ -------- ----- --- ------ ----- --<br>----- ----- ---------- --- --- ------ ------ ---- -- ------<br>------- --- ------ ----- --- ---- ------- -- ---- --- --<br>------- ------,244348,244280,243825,243808,243842,244378,,8,of
screen,html.Screen,2_1_1_1_9,2022-02-17T14:53:50.397Z,,,,,,,,,,,,,,,,,54,,,,,,,,,,,,,,332,,response,,,,100,,,,,,,Space,keypress(Space),,,,,,,,-- --- ---- --- ------ ----- ------- ---- -- its ------- --<br>------- ---------- ------ -- ----- -- ----- -- ---- ------<br>--- ----- --- --- ------ -------- ----- --- ------ ----- --<br>----- ----- ---------- --- --- ------ ------ ---- -- ------<br>------- --- ------ ----- --- ---- ------- -- ---- --- --<br>------- ------,244761,244693,244361,244348,244378,244797,,9,its
screen,html.Screen,2_1_1_1_10,2022-02-17T14:53:50.641Z,,,,,,,,,,,,,,,,,54,,,,,,,,,,,,,,157,,response,,,,100,,,,,,,Space,keypress(Space),,,,,,,,-- --- ---- --- ------ ----- ------- ---- -- --- revenue --<br>------- ---------- ------ -- ----- -- ----- -- ---- ------<br>--- ----- --- --- ------ -------- ----- --- ------ ----- --<br>----- ----- ---------- --- --- ------ ------ ---- -- ------<br>------- --- ------ ----- --- ---- ------- -- ---- --- --<br>------- ------,245005,244937,244780,244761,244797,245032,,10,revenue
screen,html.Screen,2_1_1_1_11,2022-02-17T14:53:51.084Z,,,,,,,,,,,,,,,,,54,,,,,,,,,,,,,,363,,response,,,,100,,,,,,,Space,keypress(Space),,,,,,,,-- --- ---- --- ------ ----- ------- ---- -- --- ------- by<br>------- ---------- ------ -- ----- -- ----- -- ---- ------<br>--- ----- --- --- ------ -------- ----- --- ------ ----- --<br>----- ----- ---------- --- --- ------ ------ ---- -- ------<br>------- --- ------ ----- --- ---- ------- -- ---- --- --<br>------- ------,245448,245380,245017,245005,245032,245477,,11,by
screen,html.Screen,2_1_1_1_12,2022-02-17T14:53:51.461Z,,,,,,,,,,,,,,,,,54,,,,,,,,,,,,,,298,,response,,,,100,,,,,,,Space,keypress(Space),,,,,,,,-- --- ---- --- ------ ----- ------- ---- -- --- ------- --<br>issuing ---------- ------ -- ----- -- ----- -- ---- ------<br>--- ----- --- --- ------ -------- ----- --- ------ ----- --<br>----- ----- ---------- --- --- ------ ------ ---- -- ------<br>------- --- ------ ----- --- ---- ------- -- ---- --- --<br>------- ------,245825.00000000003,245757,245459,245448,245477,245850,,12,issuing
screen,html.Screen,2_1_1_1_13,2022-02-17T14:53:51.893Z,,,,,,,,,,,,,,,,,54,,,,,,,,,,,,,,356,,response,,,,100,,,,,,,Space,keypress(Space),,,,,,,,-- --- ---- --- ------ ----- ------- ---- -- --- ------- --<br>------- government ------ -- ----- -- ----- -- ---- ------<br>--- ----- --- --- ------ -------- ----- --- ------ ----- --<br>----- ----- ---------- --- --- ------ ------ ---- -- ------<br>------- --- ------ ----- --- ---- ------- -- ---- --- --<br>------- ------,246257,246189,245833,245825.00000000003,245850,246289,,13,government
screen,html.Screen,2_1_1_1_14,2022-02-17T14:53:52.445Z,,,,,,,,,,,,,,,,,54,,,,,,,,,,,,,,469,,response,,,,100,,,,,,,Space,keypress(Space),,,,,,,,-- --- ---- --- ------ ----- ------- ---- -- --- ------- --<br>------- ---------- bonds. -- ----- -- ----- -- ---- ------<br>--- ----- --- --- ------ -------- ----- --- ------ ----- --<br>----- ----- ---------- --- --- ------ ------ ---- -- ------<br>------- --- ------ ----- --- ---- ------- -- ---- --- --<br>------- ------,246809,246741,246272,246257,246289,246846,,14,bonds.
screen,html.Screen,2_1_1_1_15,2022-02-17T14:53:52.848Z,,,,,,,,,,,,,,,,,54,,,,,,,,,,,,,,315,,response,,,,100,,,,,,,Space,keypress(Space),,,,,,,,-- --- ---- --- ------ ----- ------- ---- -- --- ------- --<br>------- ---------- ------ In ----- -- ----- -- ---- ------<br>--- ----- --- --- ------ -------- ----- --- ------ ----- --<br>----- ----- ---------- --- --- ------ ------ ---- -- ------<br>------- --- ------ ----- --- ---- ------- -- ---- --- --<br>------- ------,247212.00000000003,247144,246829,246809,246846,247235,,15,In
screen,html.Screen,2_1_1_1_16,2022-02-17T14:53:53.249Z,,,,,,,,,,,,,,,,,54,,,,,,,,,,,,,,327.0000000000291,,response,,,,100,,,,,,,Space,keypress(Space),,,,,,,,"-- --- ---- --- ------ ----- ------- ---- -- --- ------- --<br>------- ---------- ------ -- 1727, -- ----- -- ---- ------<br>--- ----- --- --- ------ -------- ----- --- ------ ----- --<br>----- ----- ---------- --- --- ------ ------ ---- -- ------<br>------- --- ------ ----- --- ---- ------- -- ---- --- --<br>------- ------",247613,247545.00000000003,247218,247212.00000000003,247235,247642,,16,"1727,"
screen,html.Screen,2_1_1_1_17,2022-02-17T14:53:53.802Z,,,,,,,,,,,,,,,,,54,,,,,,,,,,,,,,473,,response,,,,100,,,,,,,Space,keypress(Space),,,,,,,,-- --- ---- --- ------ ----- ------- ---- -- --- ------- --<br>------- ---------- ------ -- ----- in ----- -- ---- ------<br>--- ----- --- --- ------ -------- ----- --- ------ ----- --<br>----- ----- ---------- --- --- ------ ------ ---- -- ------<br>------- --- ------ ----- --- ---- ------- -- ---- --- --<br>------- ------,248166,248097,247624,247613,247642,248199,,17,in
screen,html.Screen,2_1_1_1_18,2022-02-17T14:53:54.463Z,,,,,,,,,,,,,,,,,54,,,,,,,,,,,,,,576,,response,,,,100,,,,,,,Space,keypress(Space),,,,,,,,-- --- ---- --- ------ ----- ------- ---- -- --- ------- --<br>------- ---------- ------ -- ----- -- order -- ---- ------<br>--- ----- --- --- ------ -------- ----- --- ------ ----- --<br>----- ----- ---------- --- --- ------ ------ ---- -- ------<br>------- --- ------ ----- --- ---- ------- -- ---- --- --<br>------- ------,248827,248758,248182,248166,248199,248855,,18,order
screen,html.Screen,2_1_1_1_19,2022-02-17T14:53:55.166Z,,,,,,,,,,,,,,,,,54,,,,,,,,,,,,,,624,,response,,,,100,,,,,,,Space,keypress(Space),,,,,,,,-- --- ---- --- ------ ----- ------- ---- -- --- ------- --<br>------- ---------- ------ -- ----- -- ----- to ---- ------<br>--- ----- --- --- ------ -------- ----- --- ------ ----- --<br>----- ----- ---------- --- --- ------ ------ ---- -- ------<br>------- --- ------ ----- --- ---- ------- -- ---- --- --<br>------- ------,249530,249461,248837,248827,248855,249560,,19,to
screen,html.Screen,2_1_1_1_20,2022-02-17T14:53:55.503Z,,,,,,,,,,,,,,,,,54,,,,,,,,,,,,,,255,,response,,,,100,,,,,,,Space,keypress(Space),,,,,,,,-- --- ---- --- ------ ----- ------- ---- -- --- ------- --<br>------- ---------- ------ -- ----- -- ----- -- save ------<br>--- ----- --- --- ------ -------- ----- --- ------ ----- --<br>----- ----- ---------- --- --- ------ ------ ---- -- ------<br>------- --- ------ ----- --- ---- ------- -- ---- --- --<br>------- ------,249867.00000000003,249798,249543,249530,249560,249900,,20,save
screen,html.Screen,2_1_1_1_21,2022-02-17T14:53:55.837Z,,,,,,,,,,,,,,,,,54,,,,,,,,,,,,,,248,,response,,,,100,,,,,,,Space,keypress(Space),,,,,,,,"-- --- ---- --- ------ ----- ------- ---- -- --- ------- --<br>------- ---------- ------ -- ----- -- ----- -- ---- money,<br>--- ----- --- --- ------ -------- ----- --- ------ ----- --<br>----- ----- ---------- --- --- ------ ------ ---- -- ------<br>------- --- ------ ----- --- ---- ------- -- ---- --- --<br>------- ------",250201,250132,249884,249867.00000000003,249900,250224,,21,"money,"
screen,html.Screen,2_1_1_1_22,2022-02-17T14:53:56.261Z,,,,,,,,,,,,,,,,,54,,,,,,,,,,,,,,348,,response,,,,100,,,,,,,Space,keypress(Space),,,,,,,,-- --- ---- --- ------ ----- ------- ---- -- --- ------- --<br>------- ---------- ------ -- ----- -- ----- -- ---- ------<br>the ----- --- --- ------ -------- ----- --- ------ ----- --<br>----- ----- ---------- --- --- ------ ------ ---- -- ------<br>------- --- ------ ----- --- ---- ------- -- ---- --- --<br>------- ------,250625,250556,250208,250201,250224,250663,,22,the
screen,html.Screen,2_1_1_1_23,2022-02-17T14:53:56.698Z,,,,,,,,,,,,,,,,,54,,,,,,,,,,,,,,347,,response,,,,100,,,,,,,Space,keypress(Space),,,,,,,,-- --- ---- --- ------ ----- ------- ---- -- --- ------- --<br>------- ---------- ------ -- ----- -- ----- -- ---- ------<br>--- state --- --- ------ -------- ----- --- ------ ----- --<br>----- ----- ---------- --- --- ------ ------ ---- -- ------<br>------- --- ------ ----- --- ---- ------- -- ---- --- --<br>------- ------,251062,250993,250646,250625,250663,251103,,23,state
screen,html.Screen,2_1_1_1_24,2022-02-17T14:53:57.035Z,,,,,,,,,,,,,,,,,54,,,,,,,,,,,,,,243,,response,,,,100,,,,,,,Space,keypress(Space),,,,,,,,-- --- ---- --- ------ ----- ------- ---- -- --- ------- --<br>------- ---------- ------ -- ----- -- ----- -- ---- ------<br>--- ----- cut --- ------ -------- ----- --- ------ ----- --<br>----- ----- ---------- --- --- ------ ------ ---- -- ------<br>------- --- ------ ----- --- ---- ------- -- ---- --- --<br>------- ------,251399,251330,251087,251062,251103,251426,,24,cut
screen,html.Screen,2_1_1_1_25,2022-02-17T14:53:57.357Z,,,,,,,,,,,,,,,,,54,,,,,,,,,,,,,,243.0000000000291,,response,,,,100,,,,,,,Space,keypress(Space),,,,,,,,-- --- ---- --- ------ ----- ------- ---- -- --- ------- --<br>------- ---------- ------ -- ----- -- ----- -- ---- ------<br>--- ----- --- the ------ -------- ----- --- ------ ----- --<br>----- ----- ---------- --- --- ------ ------ ---- -- ------<br>------- --- ------ ----- --- ---- ------- -- ---- --- --<br>------- ------,251721,251652.00000000003,251409,251399,251426,251749,,25,the
screen,html.Screen,2_1_1_1_26,2022-02-17T14:53:57.804Z,,,,,,,,,,,,,,,,,54,,,,,,,,,,,,,,366.0000000000291,,response,,,,100,,,,,,,Space,keypress(Space),,,,,,,,-- --- ---- --- ------ ----- ------- ---- -- --- ------- --<br>------- ---------- ------ -- ----- -- ----- -- ---- ------<br>--- ----- --- --- bonds' -------- ----- --- ------ ----- --<br>----- ----- ---------- --- --- ------ ------ ---- -- ------<br>------- --- ------ ----- --- ---- ------- -- ---- --- --<br>------- ------,252168,252099.00000000003,251733,251721,251749,252204,,26,bonds'
screen,html.Screen,2_1_1_1_27,2022-02-17T14:53:58.081Z,,,,,,,,,,,,,,,,,54,,,,,,,,,,,,,,187,,response,,,,100,,,,,,,Space,keypress(Space),,,,,,,,-- --- ---- --- ------ ----- ------- ---- -- --- ------- --<br>------- ---------- ------ -- ----- -- ----- -- ---- ------<br>--- ----- --- --- ------ interest ----- --- ------ ----- --<br>----- ----- ---------- --- --- ------ ------ ---- -- ------<br>------- --- ------ ----- --- ---- ------- -- ---- --- --<br>------- ------,252445,252376,252189,252168,252204,252479,,27,interest
screen,html.Screen,2_1_1_1_28,2022-02-17T14:53:58.531Z,,,,,,,,,,,,,,,,,54,,,,,,,,,,,,,,364,,response,,,,100,,,,,,,Space,keypress(Space),,,,,,,,-- --- ---- --- ------ ----- ------- ---- -- --- ------- --<br>------- ---------- ------ -- ----- -- ----- -- ---- ------<br>--- ----- --- --- ------ -------- rate. --- ------ ----- --<br>----- ----- ---------- --- --- ------ ------ ---- -- ------<br>------- --- ------ ----- --- ---- ------- -- ---- --- --<br>------- ------,252895,252826,252462,252445,252479,252921,,28,rate.
screen,html.Screen,2_1_1_1_29,2022-02-17T14:53:58.893Z,,,,,,,,,,,,,,,,,54,,,,,,,,,,,,,,282.0000000000291,,response,,,,100,,,,,,,Space,keypress(Space),,,,,,,,-- --- ---- --- ------ ----- ------- ---- -- --- ------- --<br>------- ---------- ------ -- ----- -- ----- -- ---- ------<br>--- ----- --- --- ------ -------- ----- The ------ ----- --<br>----- ----- ---------- --- --- ------ ------ ---- -- ------<br>------- --- ------ ----- --- ---- ------- -- ---- --- --<br>------- ------,253257,253188.00000000003,252906,252895,252921,253278,,29,The
screen,html.Screen,2_1_1_1_30,2022-02-17T14:53:59.338Z,,,,,,,,,,,,,,,,,54,,,,,,,,,,,,,,371,,response,,,,100,,,,,,,Space,keypress(Space),,,,,,,,-- --- ---- --- ------ ----- ------- ---- -- --- ------- --<br>------- ---------- ------ -- ----- -- ----- -- ---- ------<br>--- ----- --- --- ------ -------- ----- --- market ----- --<br>----- ----- ---------- --- --- ------ ------ ---- -- ------<br>------- --- ------ ----- --- ---- ------- -- ---- --- --<br>------- ------,253702,253633,253262,253257,253278,253736,,30,market
screen,html.Screen,2_1_1_1_31,2022-02-17T14:53:59.749Z,,,,,,,,,,,,,,,,,54,,,,,,,,,,,,,,325,,response,,,,100,,,,,,,Space,keypress(Space),,,,,,,,-- --- ---- --- ------ ----- ------- ---- -- --- ------- --<br>------- ---------- ------ -- ----- -- ----- -- ---- ------<br>--- ----- --- --- ------ -------- ----- --- ------ value --<br>----- ----- ---------- --- --- ------ ------ ---- -- ------<br>------- --- ------ ----- --- ---- ------- -- ---- --- --<br>------- ------,254113,254044,253719,253702,253736,254142,,31,value
screen,html.Screen,2_1_1_1_32,2022-02-17T14:54:00.219Z,,,,,,,,,,,,,,,,,54,,,,,,,,,,,,,,388,,response,,,,100,,,,,,,Space,keypress(Space),,,,,,,,-- --- ---- --- ------ ----- ------- ---- -- --- ------- --<br>------- ---------- ------ -- ----- -- ----- -- ---- ------<br>--- ----- --- --- ------ -------- ----- --- ------ ----- of<br>----- ----- ---------- --- --- ------ ------ ---- -- ------<br>------- --- ------ ----- --- ---- ------- -- ---- --- --<br>------- ------,254583,254514,254126,254113,254142,254615,,32,of
screen,html.Screen,2_1_1_1_33,2022-02-17T14:54:00.568Z,,,,,,,,,,,,,,,,,54,,,,,,,,,,,,,,264,,response,,,,100,,,,,,,Space,keypress(Space),,,,,,,,-- --- ---- --- ------ ----- ------- ---- -- --- ------- --<br>------- ---------- ------ -- ----- -- ----- -- ---- ------<br>--- ----- --- --- ------ -------- ----- --- ------ ----- --<br>these ----- ---------- --- --- ------ ------ ---- -- ------<br>------- --- ------ ----- --- ---- ------- -- ---- --- --<br>------- ------,254932.00000000003,254863,254599,254583,254615,254955,,33,these
screen,html.Screen,2_1_1_1_34,2022-02-17T14:54:00.850Z,,,,,,,,,,,,,,,,,54,,,,,,,,,,,,,,206,,response,,,,100,,,,,,,Space,keypress(Space),,,,,,,,-- --- ---- --- ------ ----- ------- ---- -- --- ------- --<br>------- ---------- ------ -- ----- -- ----- -- ---- ------<br>--- ----- --- --- ------ -------- ----- --- ------ ----- --<br>----- bonds ---------- --- --- ------ ------ ---- -- ------<br>------- --- ------ ----- --- ---- ------- -- ---- --- --<br>------- ------,255214,255145,254939,254932.00000000003,254955,255245,,34,bonds
screen,html.Screen,2_1_1_1_35,2022-02-17T14:54:01.096Z,,,,,,,,,,,,,,,,,54,,,,,,,,,,,,,,162,,response,,,,100,,,,,,,Space,keypress(Space),,,,,,,,"-- --- ---- --- ------ ----- ------- ---- -- --- ------- --<br>------- ---------- ------ -- ----- -- ----- -- ---- ------<br>--- ----- --- --- ------ -------- ----- --- ------ ----- --<br>----- ----- plummeted, --- --- ------ ------ ---- -- ------<br>------- --- ------ ----- --- ---- ------- -- ---- --- --<br>------- ------",255460,255391,255229,255214,255245,255489,,35,"plummeted,"
screen,html.Screen,2_1_1_1_36,2022-02-17T14:54:01.350Z,,,,,,,,,,,,,,,,,54,,,,,,,,,,,,,,173,,response,,,,100,,,,,,,Space,keypress(Space),,,,,,,,-- --- ---- --- ------ ----- ------- ---- -- --- ------- --<br>------- ---------- ------ -- ----- -- ----- -- ---- ------<br>--- ----- --- --- ------ -------- ----- --- ------ ----- --<br>----- ----- ---------- and --- ------ ------ ---- -- ------<br>------- --- ------ ----- --- ---- ------- -- ---- --- --<br>------- ------,255714,255645,255472,255460,255489,255741,,36,and
screen,html.Screen,2_1_1_1_37,2022-02-17T14:54:01.779Z,,,,,,,,,,,,,,,,,54,,,,,,,,,,,,,,349,,response,,,,100,,,,,,,Space,keypress(Space),,,,,,,,-- --- ---- --- ------ ----- ------- ---- -- --- ------- --<br>------- ---------- ------ -- ----- -- ----- -- ---- ------<br>--- ----- --- --- ------ -------- ----- --- ------ ----- --<br>----- ----- ---------- --- the ------ ------ ---- -- ------<br>------- --- ------ ----- --- ---- ------- -- ---- --- --<br>------- ------,256143.00000000003,256074,255725,255714,255741,256177,,37,the
screen,html.Screen,2_1_1_1_38,2022-02-17T14:54:02.106Z,,,,,,,,,,,,,,,,,54,,,,,,,,,,,,,,241,,response,,,,100,,,,,,,Space,keypress(Space),,,,,,,,-- --- ---- --- ------ ----- ------- ---- -- --- ------- --<br>------- ---------- ------ -- ----- -- ----- -- ---- ------<br>--- ----- --- --- ------ -------- ----- --- ------ ----- --<br>----- ----- ---------- --- --- market ------ ---- -- ------<br>------- --- ------ ----- --- ---- ------- -- ---- --- --<br>------- ------,256470.00000000003,256401,256160,256143.00000000003,256177,256496,,38,market
screen,html.Screen,2_1_1_1_39,2022-02-17T14:54:02.651Z,,,,,,,,,,,,,,,,,54,,,,,,,,,,,,,,467.0000000000291,,response,,,,100,,,,,,,Space,keypress(Space),,,,,,,,-- --- ---- --- ------ ----- ------- ---- -- --- ------- --<br>------- ---------- ------ -- ----- -- ----- -- ---- ------<br>--- ----- --- --- ------ -------- ----- --- ------ ----- --<br>----- ----- ---------- --- --- ------ became ---- -- ------<br>------- --- ------ ----- --- ---- ------- -- ---- --- --<br>------- ------,257015,256946.00000000003,256479,256470.00000000003,256496,257049,,39,became
screen,html.Screen,2_1_1_1_40,2022-02-17T14:54:02.926Z,,,,,,,,,,,,,,,,,54,,,,,,,,,,,,,,190,,response,,,,100,,,,,,,Space,keypress(Space),,,,,,,,-- --- ---- --- ------ ----- ------- ---- -- --- ------- --<br>------- ---------- ------ -- ----- -- ----- -- ---- ------<br>--- ----- --- --- ------ -------- ----- --- ------ ----- --<br>----- ----- ---------- --- --- ------ ------ wary -- ------<br>------- --- ------ ----- --- ---- ------- -- ---- --- --<br>------- ------,257290.00000000003,257221,257031,257015,257049,257322,,40,wary
screen,html.Screen,2_1_1_1_41,2022-02-17T14:54:03.430Z,,,,,,,,,,,,,,,,,54,,,,,,,,,,,,,,420.0000000000291,,response,,,,100,,,,,,,Space,keypress(Space),,,,,,,,-- --- ---- --- ------ ----- ------- ---- -- --- ------- --<br>------- ---------- ------ -- ----- -- ----- -- ---- ------<br>--- ----- --- --- ------ -------- ----- --- ------ ----- --<br>----- ----- ---------- --- --- ------ ------ ---- of ------<br>------- --- ------ ----- --- ---- ------- -- ---- --- --<br>------- ------,257793,257725.00000000003,257305,257290.00000000003,257322,257829,,41,of
screen,html.Screen,2_1_1_1_42,2022-02-17T14:54:03.858Z,,,,,,,,,,,,,,,,,54,,,,,,,,,,,,,,339.0000000000291,,response,,,,100,,,,,,,Space,keypress(Space),,,,,,,,-- --- ---- --- ------ ----- ------- ---- -- --- ------- --<br>------- ---------- ------ -- ----- -- ----- -- ---- ------<br>--- ----- --- --- ------ -------- ----- --- ------ ----- --<br>----- ----- ---------- --- --- ------ ------ ---- -- French<br>------- --- ------ ----- --- ---- ------- -- ---- --- --<br>------- ------,258221,258153.00000000003,257814,257793.99999999997,257829,258253,,42,French
screen,html.Screen,2_1_1_1_43,2022-02-17T14:54:04.226Z,,,,,,,,,,,,,,,,,54,,,,,,,,,,,,,,284.0000000000291,,response,,,,100,,,,,,,Space,keypress(Space),,,,,,,,-- --- ---- --- ------ ----- ------- ---- -- --- ------- --<br>------- ---------- ------ -- ----- -- ----- -- ---- ------<br>--- ----- --- --- ------ -------- ----- --- ------ ----- --<br>----- ----- ---------- --- --- ------ ------ ---- -- ------<br>credit. --- ------ ----- --- ---- ------- -- ---- --- --<br>------- ------,258590.00000000003,258521.00000000003,258237,258221.99999999997,258253,258610,,43,credit.
screen,html.Screen,2_1_1_1_44,2022-02-17T14:54:04.668Z,,,,,,,,,,,,,,,,,54,,,,,,,,,,,,,,369.0000000000291,,response,,,,100,,,,,,,Space,keypress(Space),,,,,,,,-- --- ---- --- ------ ----- ------- ---- -- --- ------- --<br>------- ---------- ------ -- ----- -- ----- -- ---- ------<br>--- ----- --- --- ------ -------- ----- --- ------ ----- --<br>----- ----- ---------- --- --- ------ ------ ---- -- ------<br>------- The ------ ----- --- ---- ------- -- ---- --- --<br>------- ------,259031.99999999997,258963.00000000003,258594,258590.00000000003,258610,259067,,44,The
screen,html.Screen,2_1_1_1_45,2022-02-17T14:54:05.121Z,,,,,,,,,,,,,,,,,54,,,,,,,,,,,,,,365,,response,,,,100,,,,,,,Space,keypress(Space),,,,,,,,-- --- ---- --- ------ ----- ------- ---- -- --- ------- --<br>------- ---------- ------ -- ----- -- ----- -- ---- ------<br>--- ----- --- --- ------ -------- ----- --- ------ ----- --<br>----- ----- ---------- --- --- ------ ------ ---- -- ------<br>------- --- French ----- --- ---- ------- -- ---- --- --<br>------- ------,259485,259416,259051,259031.99999999997,259067,259524,,45,French
screen,html.Screen,2_1_1_1_46,2022-02-17T14:54:05.338Z,,,,,,,,,,,,,,,,,54,,,,,,,,,,,,,,125.9999999999709,,response,,,,100,,,,,,,Space,keypress(Space),,,,,,,,-- --- ---- --- ------ ----- ------- ---- -- --- ------- --<br>------- ---------- ------ -- ----- -- ----- -- ---- ------<br>--- ----- --- --- ------ -------- ----- --- ------ ----- --<br>----- ----- ---------- --- --- ------ ------ ---- -- ------<br>------- --- ------ state --- ---- ------- -- ---- --- --<br>------- ------,259702,259632.99999999997,259507,259485,259524,259730,,46,state
screen,html.Screen,2_1_1_1_47,2022-02-17T14:54:05.970Z,,,,,,,,,,,,,,,,,54,,,,,,,,,,,,,,551,,response,,,,100,,,,,,,Space,keypress(Space),,,,,,,,-- --- ---- --- ------ ----- ------- ---- -- --- ------- --<br>------- ---------- ------ -- ----- -- ----- -- ---- ------<br>--- ----- --- --- ------ -------- ----- --- ------ ----- --<br>----- ----- ---------- --- --- ------ ------ ---- -- ------<br>------- --- ------ ----- was ---- ------- -- ---- --- --<br>------- ------,260333.00000000003,260264,259713,259702,259730,260366,,47,was
screen,html.Screen,2_1_1_1_48,2022-02-17T14:54:06.501Z,,,,,,,,,,,,,,,,,54,,,,,,,,,,,,,,447,,response,,,,100,,,,,,,Space,keypress(Space),,,,,,,,-- --- ---- --- ------ ----- ------- ---- -- --- ------- --<br>------- ---------- ------ -- ----- -- ----- -- ---- ------<br>--- ----- --- --- ------ -------- ----- --- ------ ----- --<br>----- ----- ---------- --- --- ------ ------ ---- -- ------<br>------- --- ------ ----- --- left ------- -- ---- --- --<br>------- ------,260864.00000000003,260796,260349,260333.00000000003,260366,260906,,48,left
screen,html.Screen,2_1_1_1_49,2022-02-17T14:54:06.791Z,,,,,,,,,,,,,,,,,54,,,,,,,,,,,,,,197,,response,,,,100,,,,,,,Space,keypress(Space),,,,,,,,-- --- ---- --- ------ ----- ------- ---- -- --- ------- --<br>------- ---------- ------ -- ----- -- ----- -- ---- ------<br>--- ----- --- --- ------ -------- ----- --- ------ ----- --<br>----- ----- ---------- --- --- ------ ------ ---- -- ------<br>------- --- ------ ----- --- ---- without -- ---- --- --<br>------- ------,261154,261086,260889,260865,260906,261179,,49,without
screen,html.Screen,2_1_1_1_50,2022-02-17T14:54:07.039Z,,,,,,,,,,,,,,,,,54,,,,,,,,,,,,,,170.0000000000291,,response,,,,100,,,,,,,Space,keypress(Space),,,,,,,,-- --- ---- --- ------ ----- ------- ---- -- --- ------- --<br>------- ---------- ------ -- ----- -- ----- -- ---- ------<br>--- ----- --- --- ------ -------- ----- --- ------ ----- --<br>----- ----- ---------- --- --- ------ ------ ---- -- ------<br>------- --- ------ ----- --- ---- ------- an ---- --- --<br>------- ------,261402,261333.00000000003,261163,261154,261179,261422,,50,an
screen,html.Screen,2_1_1_1_51,2022-02-17T14:54:07.732Z,,,,,,,,,,,,,,,,,54,,,,,,,,,,,,,,621,,response,,,,100,,,,,,,Space,keypress(Space),,,,,,,,-- --- ---- --- ------ ----- ------- ---- -- --- ------- --<br>------- ---------- ------ -- ----- -- ----- -- ---- ------<br>--- ----- --- --- ------ -------- ----- --- ------ ----- --<br>----- ----- ---------- --- --- ------ ------ ---- -- ------<br>------- --- ------ ----- --- ---- ------- -- easy --- --<br>------- ------,262095.00000000003,262026,261405,261403.00000000003,261422,262124,,51,easy
screen,html.Screen,2_1_1_1_52,2022-02-17T14:54:08.326Z,,,,,,,,,,,,,,,,,54,,,,,,,,,,,,,,513,,response,,,,100,,,,,,,Space,keypress(Space),,,,,,,,-- --- ---- --- ------ ----- ------- ---- -- --- ------- --<br>------- ---------- ------ -- ----- -- ----- -- ---- ------<br>--- ----- --- --- ------ -------- ----- --- ------ ----- --<br>----- ----- ---------- --- --- ------ ------ ---- -- ------<br>------- --- ------ ----- --- ---- ------- -- ---- way --<br>------- ------,262689,262620,262107,262095.00000000003,262124,262731,,52,way
screen,html.Screen,2_1_1_1_53,2022-02-17T14:54:08.731Z,,,,,,,,,,,,,,,,,54,,,,,,,,,,,,,,311,,response,,,,100,,,,,,,Space,keypress(Space),,,,,,,,-- --- ---- --- ------ ----- ------- ---- -- --- ------- --<br>------- ---------- ------ -- ----- -- ----- -- ---- ------<br>--- ----- --- --- ------ -------- ----- --- ------ ----- --<br>----- ----- ---------- --- --- ------ ------ ---- -- ------<br>------- --- ------ ----- --- ---- ------- -- ---- --- of<br>------- ------,263094,263025,262714,262690,262731,263121,,53,of
screen,html.Screen,2_1_1_1_54,2022-02-17T14:54:09.131Z,,,,,,,,,,,,,,,,,54,,,,,,,,,,,,,,322,,response,,,,100,,,,,,,Space,keypress(Space),,,,,,,,-- --- ---- --- ------ ----- ------- ---- -- --- ------- --<br>------- ---------- ------ -- ----- -- ----- -- ---- ------<br>--- ----- --- --- ------ -------- ----- --- ------ ----- --<br>----- ----- ---------- --- --- ------ ------ ---- -- ------<br>------- --- ------ ----- --- ---- ------- -- ---- --- --<br>raising ------,263494,263425,263103,263095,263121,263512,,54,raising
screen,html.Screen,2_1_1_1_55,2022-02-17T14:54:09.509Z,,,,,,,,,,,,,,,,,54,,,,,,,,,,,,,,308,,response,,,,100,,,,,,,Space,keypress(Space),,,,,,,,-- --- ---- --- ------ ----- ------- ---- -- --- ------- --<br>------- ---------- ------ -- ----- -- ----- -- ---- ------<br>--- ----- --- --- ------ -------- ----- --- ------ ----- --<br>----- ----- ---------- --- --- ------ ------ ---- -- ------<br>------- --- ------ ----- --- ---- ------- -- ---- --- --<br>------- money.,263872,263803,263495,263494,263512,263902,,55,money.
Item 100,flow.Loop,2_1_1_1,2022-02-17T14:54:09.509Z,,,,,,,,,,,,,,,,,,,,,,,,,,,,,,,35702,,completion,,,,,E,,,,,,,,,,,silence,,,,,263873,263803,228084,228084,228101,263902,,,
Question 1,html.Screen,2_1_1_2,2022-02-17T14:54:14.339Z,,,,,,,,,,,,,,,,,,,,,,,,,,,,true,TRUE,,4748,,response,,,,100,E,,,,,,TRUE,click #choice-1,,,,silence,,,,,268703.00000000006,268633,263885,263873,263902,268734,,,
Question 2,html.Screen,2_1_1_3,2022-02-17T14:54:23.307Z,,,,,,,,,,,,,,,,,,,,,,,,,,,,false,FALSE,,8881,,response,,,,100,E,,,,,,TRUE,click #choice-1,,,,silence,,,,,277670,277600,268719,268703.00000000006,268734,277691,,,
Item 100,flow.Sequence,2_1_1,2022-02-17T14:54:23.308Z,,,,,,,,,,,,,,,,,,,,,,,,,,,,,,,59501,,completion,,,,,,,,,,,,,,,,,,,,,277671,277600,218076,218073,218099,277691,,,
End of Practice,html.Page,2_1_2,2022-02-17T14:54:27.976Z,,,,,,,,,,,,,,,,,,,,,,,,,,,,,,,4648,,form submission,,,,,,,,,,,,,,,,,,,,,282339,282339,277675,277671,277691,282355,,,
Practice,flow.Sequence,2_1,2022-02-17T14:54:27.976Z,,,,,,,,,,,,,,,,,,,,,,,,,,,,,,,113758,,completion,,,,,,,,,,,,,,,,,,,,,282339,282339,168565,168556,168581,282355,,,
Trap_instruction,html.Page,2_2_0,2022-02-17T14:54:31.971Z,,,,,,,,,,,,,,,,,,,,,,,,,,,,,,,3979,,form submission,,,,,,,,,,,,,,,,,,,,,286334,286334,282342,282339,282355,286353,,,
trap_trial,html.Screen,2_2_1,2022-02-17T14:54:34.805Z,,,,,,,,,,,,,,,,,,,,,,,,,,,,true,1,,2753,,response,,,,,,,,,,,1,click #choice-1,,,,,,,,,289168,289098,286345,286334,286353,289207,,,
end of trap trial,html.Page,2_2_2,2022-02-17T14:54:36.502Z,,,,,,,,,,,,,,,,,,,,,,,,,,,,,,,1658,,form submission,,,,,,,,,,,,,,,,,,,,,290865,290865,289203,289168,289207,290888,,,
Trap 1,flow.Sequence,2_2,2022-02-17T14:54:36.502Z,,,,,,,,,,,,,,,,,,,,,,,,,,,,,,,8510,,completion,,,,,,,,,,,,,,,,,,,,,290865,290865,282342,282339,282355,290888,,,
Standby,html.Page,2_3_0,2022-02-17T14:54:44.508Z,,,,,,,,,,,,,,,,,,,,,,,,,,,,,,,7999,,timeout,,,,,,,,,,,,,,,,,,,,,298871,298870,290871,290865,290888,298887,,,
Holding screen,html.Screen,2_3_1_0_0,2022-02-17T14:54:51.507Z,,,,,,,,,,,,,,,,,,,,,,,,,,,,,,,6999,,timeout,,,,,,,,,,,,,,,,,,,,,305869,305869,298870,298871,298887,305886,,,
screen,html.Screen,2_3_1_0_1_0,2022-02-17T14:54:55.642Z,,,,,,,,,,,,,,,,,2,,,,,,,,,,,,,,4063,,response,,,,1,E,,,,,,Space,keypress(Space),,,,lyrical,,,,Two ---- ------ --- ------- ---------- ------- ----------<br>--- --------- --- ----------- ------- ----- ------- ---<br>--------- ---- -- --- ---- -- --------- -- ---- -------<br>-- --------- ------ --- ----- ------ ---- --- --------- --<br>------ - ---- -- --- ----------- ------- ---- ----- -----<br>--- -------- - ------ ---- -- ----- ---- --- --- -----------<br>-- -------,310004,309932,305869,305869,305886,310042,,0,Two
screen,html.Screen,2_3_1_0_1_1,2022-02-17T14:54:56.239Z,,,,,,,,,,,,,,,,,2,,,,,,,,,,,,,,505,,response,,,,1,E,,,,,,Space,keypress(Space),,,,lyrical,,,,--- days ------ --- ------- ---------- ------- ----------<br>--- --------- --- ----------- ------- ----- ------- ---<br>--------- ---- -- --- ---- -- --------- -- ---- -------<br>-- --------- ------ --- ----- ------ ---- --- --------- --<br>------ - ---- -- --- ----------- ------- ---- ----- -----<br>--- -------- - ------ ---- -- ----- ---- --- --- -----------<br>-- -------,310601,310531,310026,310004,310042,310635,,1,days
screen,html.Screen,2_3_1_0_1_2,2022-02-17T14:54:56.846Z,,,,,,,,,,,,,,,,,2,,,,,,,,,,,,,,518,,response,,,,1,E,,,,,,Space,keypress(Space),,,,lyrical,,,,"--- ---- later, --- ------- ---------- ------- ----------<br>--- --------- --- ----------- ------- ----- ------- ---<br>--------- ---- -- --- ---- -- --------- -- ---- -------<br>-- --------- ------ --- ----- ------ ---- --- --------- --<br>------ - ---- -- --- ----------- ------- ---- ----- -----<br>--- -------- - ------ ---- -- ----- ---- --- --- -----------<br>-- -------",311208,311137,310619,310601,310635,311242,,2,"later,"
screen,html.Screen,2_3_1_0_1_3,2022-02-17T14:54:57.476Z,,,,,,,,,,,,,,,,,2,,,,,,,,,,,,,,541,,response,,,,1,E,,,,,,Space,keypress(Space),,,,lyrical,,,,--- ---- ------ the ------- ---------- ------- ----------<br>--- --------- --- ----------- ------- ----- ------- ---<br>--------- ---- -- --- ---- -- --------- -- ---- -------<br>-- --------- ------ --- ----- ------ ---- --- --------- --<br>------ - ---- -- --- ----------- ------- ---- ----- -----<br>--- -------- - ------ ---- -- ----- ---- --- --- -----------<br>-- -------,311838,311767,311226,311208,311242,311865,,3,the
screen,html.Screen,2_3_1_0_1_4,2022-02-17T14:54:58.059Z,,,,,,,,,,,,,,,,,2,,,,,,,,,,,,,,501,,response,,,,1,E,,,,,,Space,keypress(Space),,,,lyrical,,,,--- ---- ------ --- British ---------- ------- ----------<br>--- --------- --- ----------- ------- ----- ------- ---<br>--------- ---- -- --- ---- -- --------- -- ---- -------<br>-- --------- ------ --- ----- ------ ---- --- --------- --<br>------ - ---- -- --- ----------- ------- ---- ----- -----<br>--- -------- - ------ ---- -- ----- ---- --- --- -----------<br>-- -------,312421,312350,311849,311838,311865,312457,,4,British
screen,html.Screen,2_3_1_0_1_5,2022-02-17T14:54:58.708Z,,,,,,,,,,,,,,,,,2,,,,,,,,,,,,,,559,,response,,,,1,E,,,,,,Space,keypress(Space),,,,lyrical,,,,--- ---- ------ --- ------- astronomer ------- ----------<br>--- --------- --- ----------- ------- ----- ------- ---<br>--------- ---- -- --- ---- -- --------- -- ---- -------<br>-- --------- ------ --- ----- ------ ---- --- --------- --<br>------ - ---- -- --- ----------- ------- ---- ----- -----<br>--- -------- - ------ ---- -- ----- ---- --- --- -----------<br>-- -------,313070,312999,312440,312421,312457,313112,,5,astronomer
screen,html.Screen,2_3_1_0_1_6,2022-02-17T14:54:59.192Z,,,,,,,,,,,,,,,,,2,,,,,,,,,,,,,,387,,response,,,,1,E,,,,,,Space,keypress(Space),,,,lyrical,,,,--- ---- ------ --- ------- ---------- Richard ----------<br>--- --------- --- ----------- ------- ----- ------- ---<br>--------- ---- -- --- ---- -- --------- -- ---- -------<br>-- --------- ------ --- ----- ------ ---- --- --------- --<br>------ - ---- -- --- ----------- ------- ---- ----- -----<br>--- -------- - ------ ---- -- ----- ---- --- --- -----------<br>-- -------,313554.00000000006,313483,313096,313070,313112,313586,,6,Richard
screen,html.Screen,2_3_1_0_1_7,2022-02-17T14:54:59.661Z,,,,,,,,,,,,,,,,,2,,,,,,,,,,,,,,383,,response,,,,1,E,,,,,,Space,keypress(Space),,,,lyrical,,,,--- ---- ------ --- ------- ---------- ------- Carrington<br>--- --------- --- ----------- ------- ----- ------- ---<br>--------- ---- -- --- ---- -- --------- -- ---- -------<br>-- --------- ------ --- ----- ------ ---- --- --------- --<br>------ - ---- -- --- ----------- ------- ---- ----- -----<br>--- -------- - ------ ---- -- ----- ---- --- --- -----------<br>-- -------,314023,313952,313569,313554.00000000006,313586,314060,,7,Carrington
screen,html.Screen,2_3_1_0_1_8,2022-02-17T14:55:00.205Z,,,,,,,,,,,,,,,,,2,,,,,,,,,,,,,,452,,response,,,,1,E,,,,,,Space,keypress(Space),,,,lyrical,,,,--- ---- ------ --- ------- ---------- ------- ----------<br>was --------- --- ----------- ------- ----- ------- ---<br>--------- ---- -- --- ---- -- --------- -- ---- -------<br>-- --------- ------ --- ----- ------ ---- --- --------- --<br>------ - ---- -- --- ----------- ------- ---- ----- -----<br>--- -------- - ------ ---- -- ----- ---- --- --- -----------<br>-- -------,314567,314496,314044,314023,314060,314599,,8,was
screen,html.Screen,2_3_1_0_1_9,2022-02-17T14:55:00.670Z,,,,,,,,,,,,,,,,,2,,,,,,,,,,,,,,378,,response,,,,1,E,,,,,,Space,keypress(Space),,,,lyrical,,,,--- ---- ------ --- ------- ---------- ------- ----------<br>--- observing --- ----------- ------- ----- ------- ---<br>--------- ---- -- --- ---- -- --------- -- ---- -------<br>-- --------- ------ --- ----- ------ ---- --- --------- --<br>------ - ---- -- --- ----------- ------- ---- ----- -----<br>--- -------- - ------ ---- -- ----- ---- --- --- -----------<br>-- -------,315032,314961,314583,314567,314599,315074,,9,observing
screen,html.Screen,2_3_1_0_1_10,2022-02-17T14:55:01.152Z,,,,,,,,,,,,,,,,,2,,,,,,,,,,,,,,386,,response,,,,1,E,,,,,,Space,keypress(Space),,,,lyrical,,,,--- ---- ------ --- ------- ---------- ------- ----------<br>--- --------- the ----------- ------- ----- ------- ---<br>--------- ---- -- --- ---- -- --------- -- ---- -------<br>-- --------- ------ --- ----- ------ ---- --- --------- --<br>------ - ---- -- --- ----------- ------- ---- ----- -----<br>--- -------- - ------ ---- -- ----- ---- --- --- -----------<br>-- -------,315514,315443,315057,315032,315074,315548,,10,the
screen,html.Screen,2_3_1_0_1_11,2022-02-17T14:55:01.581Z,,,,,,,,,,,,,,,,,2,,,,,,,,,,,,,,341,,response,,,,1,E,,,,,,Space,keypress(Space),,,,lyrical,,,,--- ---- ------ --- ------- ---------- ------- ----------<br>--- --------- --- interesting ------- ----- ------- ---<br>--------- ---- -- --- ---- -- --------- -- ---- -------<br>-- --------- ------ --- ----- ------ ---- --- --------- --<br>------ - ---- -- --- ----------- ------- ---- ----- -----<br>--- -------- - ------ ---- -- ----- ---- --- --- -----------<br>-- -------,315943,315872,315531,315514,315548,315969,,11,interesting
screen,html.Screen,2_3_1_0_1_12,2022-02-17T14:55:01.973Z,,,,,,,,,,,,,,,,,2,,,,,,,,,,,,,,310,,response,,,,1,E,,,,,,Space,keypress(Space),,,,lyrical,,,,--- ---- ------ --- ------- ---------- ------- ----------<br>--- --------- --- ----------- sunspot ----- ------- ---<br>--------- ---- -- --- ---- -- --------- -- ---- -------<br>-- --------- ------ --- ----- ------ ---- --- --------- --<br>------ - ---- -- --- ----------- ------- ---- ----- -----<br>--- -------- - ------ ---- -- ----- ---- --- --- -----------<br>-- -------,316335,316264,315954,315943,315969,316361,,12,sunspot
screen,html.Screen,2_3_1_0_1_13,2022-02-17T14:55:02.434Z,,,,,,,,,,,,,,,,,2,,,,,,,,,,,,,,381,,response,,,,1,E,,,,,,Space,keypress(Space),,,,lyrical,,,,--- ---- ------ --- ------- ---------- ------- ----------<br>--- --------- --- ----------- ------- group ------- ---<br>--------- ---- -- --- ---- -- --------- -- ---- -------<br>-- --------- ------ --- ----- ------ ---- --- --------- --<br>------ - ---- -- --- ----------- ------- ---- ----- -----<br>--- -------- - ------ ---- -- ----- ---- --- --- -----------<br>-- -------,316795,316725,316344,316335,316361,316833,,13,group
screen,html.Screen,2_3_1_0_1_14,2022-02-17T14:55:02.920Z,,,,,,,,,,,,,,,,,2,,,,,,,,,,,,,,394,,response,,,,1,E,,,,,,Space,keypress(Space),,,,lyrical,,,,--- ---- ------ --- ------- ---------- ------- ----------<br>--- --------- --- ----------- ------- ----- through ---<br>--------- ---- -- --- ---- -- --------- -- ---- -------<br>-- --------- ------ --- ----- ------ ---- --- --------- --<br>------ - ---- -- --- ----------- ------- ---- ----- -----<br>--- -------- - ------ ---- -- ----- ---- --- --- -----------<br>-- -------,317282,317211,316817,316796,316833,317322,,14,through
screen,html.Screen,2_3_1_0_1_15,2022-02-17T14:55:03.444Z,,,,,,,,,,,,,,,,,2,,,,,,,,,,,,,,429,,response,,,,1,E,,,,,,Space,keypress(Space),,,,lyrical,,,,--- ---- ------ --- ------- ---------- ------- ----------<br>--- --------- --- ----------- ------- ----- ------- his<br>--------- ---- -- --- ---- -- --------- -- ---- -------<br>-- --------- ------ --- ----- ------ ---- --- --------- --<br>------ - ---- -- --- ----------- ------- ---- ----- -----<br>--- -------- - ------ ---- -- ----- ---- --- --- -----------<br>-- -------,317805,317735,317306,317282,317322,317847,,15,his
screen,html.Screen,2_3_1_0_1_16,2022-02-17T14:55:03.978Z,,,,,,,,,,,,,,,,,2,,,,,,,,,,,,,,439,,response,,,,1,E,,,,,,Space,keypress(Space),,,,lyrical,,,,--- ---- ------ --- ------- ---------- ------- ----------<br>--- --------- --- ----------- ------- ----- ------- ---<br>telescope ---- -- --- ---- -- --------- -- ---- -------<br>-- --------- ------ --- ----- ------ ---- --- --------- --<br>------ - ---- -- --- ----------- ------- ---- ----- -----<br>--- -------- - ------ ---- -- ----- ---- --- --- -----------<br>-- -------,318339,318269,317830,317806,317847,318369,,16,telescope
screen,html.Screen,2_3_1_0_1_17,2022-02-17T14:55:04.526Z,,,,,,,,,,,,,,,,,2,,,,,,,,,,,,,,465,,response,,,,1,E,,,,,,Space,keypress(Space),,,,lyrical,,,,--- ---- ------ --- ------- ---------- ------- ----------<br>--- --------- --- ----------- ------- ----- ------- ---<br>--------- when -- --- ---- -- --------- -- ---- -------<br>-- --------- ------ --- ----- ------ ---- --- --------- --<br>------ - ---- -- --- ----------- ------- ---- ----- -----<br>--- -------- - ------ ---- -- ----- ---- --- --- -----------<br>-- -------,318887,318817,318352,318339,318369,318924,,17,when
screen,html.Screen,2_3_1_0_1_18,2022-02-17T14:55:04.999Z,,,,,,,,,,,,,,,,,2,,,,,,,,,,,,,,381,,response,,,,1,E,,,,,,Space,keypress(Space),,,,lyrical,,,,--- ---- ------ --- ------- ---------- ------- ----------<br>--- --------- --- ----------- ------- ----- ------- ---<br>--------- ---- he --- ---- -- --------- -- ---- -------<br>-- --------- ------ --- ----- ------ ---- --- --------- --<br>------ - ---- -- --- ----------- ------- ---- ----- -----<br>--- -------- - ------ ---- -- ----- ---- --- --- -----------<br>-- -------,319361,319290,318909,318888.00000000006,318924,319399,,18,he
screen,html.Screen,2_3_1_0_1_19,2022-02-17T14:55:05.483Z,,,,,,,,,,,,,,,,,2,,,,,,,,,,,,,,392,,response,,,,1,E,,,,,,Space,keypress(Space),,,,lyrical,,,,--- ---- ------ --- ------- ---------- ------- ----------<br>--- --------- --- ----------- ------- ----- ------- ---<br>--------- ---- -- saw ---- -- --------- -- ---- -------<br>-- --------- ------ --- ----- ------ ---- --- --------- --<br>------ - ---- -- --- ----------- ------- ---- ----- -----<br>--- -------- - ------ ---- -- ----- ---- --- --- -----------<br>-- -------,319845,319774,319382,319361,319399,319872,,19,saw
screen,html.Screen,2_3_1_0_1_20,2022-02-17T14:55:06.031Z,,,,,,,,,,,,,,,,,2,,,,,,,,,,,,,,467,,response,,,,1,E,,,,,,Space,keypress(Space),,,,lyrical,,,,--- ---- ------ --- ------- ---------- ------- ----------<br>--- --------- --- ----------- ------- ----- ------- ---<br>--------- ---- -- --- what -- --------- -- ---- -------<br>-- --------- ------ --- ----- ------ ---- --- --------- --<br>------ - ---- -- --- ----------- ------- ---- ----- -----<br>--- -------- - ------ ---- -- ----- ---- --- --- -----------<br>-- -------,320392,320322,319855,319845,319872,320428,,20,what
screen,html.Screen,2_3_1_0_1_21,2022-02-17T14:55:06.567Z,,,,,,,,,,,,,,,,,2,,,,,,,,,,,,,,446,,response,,,,1,E,,,,,,Space,keypress(Space),,,,lyrical,,,,--- ---- ------ --- ------- ---------- ------- ----------<br>--- --------- --- ----------- ------- ----- ------- ---<br>--------- ---- -- --- ---- he --------- -- ---- -------<br>-- --------- ------ --- ----- ------ ---- --- --------- --<br>------ - ---- -- --- ----------- ------- ---- ----- -----<br>--- -------- - ------ ---- -- ----- ---- --- --- -----------<br>-- -------,320928,320858,320412,320392,320428,320967,,21,he
screen,html.Screen,2_3_1_0_1_22,2022-02-17T14:55:07.025Z,,,,,,,,,,,,,,,,,2,,,,,,,,,,,,,,364.0000000000582,,response,,,,1,E,,,,,,Space,keypress(Space),,,,lyrical,,,,--- ---- ------ --- ------- ---------- ------- ----------<br>--- --------- --- ----------- ------- ----- ------- ---<br>--------- ---- -- --- ---- -- described -- ---- -------<br>-- --------- ------ --- ----- ------ ---- --- --------- --<br>------ - ---- -- --- ----------- ------- ---- ----- -----<br>--- -------- - ------ ---- -- ----- ---- --- --- -----------<br>-- -------,321387,321316.00000000006,320952,320928,320967,321425,,22,described
screen,html.Screen,2_3_1_0_1_23,2022-02-17T14:55:07.522Z,,,,,,,,,,,,,,,,,2,,,,,,,,,,,,,,405,,response,,,,1,E,,,,,,Space,keypress(Space),,,,lyrical,,,,--- ---- ------ --- ------- ---------- ------- ----------<br>--- --------- --- ----------- ------- ----- ------- ---<br>--------- ---- -- --- ---- -- --------- as ---- -------<br>-- --------- ------ --- ----- ------ ---- --- --------- --<br>------ - ---- -- --- ----------- ------- ---- ----- -----<br>--- -------- - ------ ---- -- ----- ---- --- --- -----------<br>-- -------,321883,321813,321408,321387,321425,321916,,23,as
screen,html.Screen,2_3_1_0_1_24,2022-02-17T14:55:07.948Z,,,,,,,,,,,,,,,,,2,,,,,,,,,,,,,,340.0000000000582,,response,,,,1,E,,,,,,Space,keypress(Space),,,,lyrical,,,,"--- ---- ------ --- ------- ---------- ------- ----------<br>--- --------- --- ----------- ------- ----- ------- ---<br>--------- ---- -- --- ---- -- --------- -- ""two -------<br>-- --------- ------ --- ----- ------ ---- --- --------- --<br>------ - ---- -- --- ----------- ------- ---- ----- -----<br>--- -------- - ------ ---- -- ----- ---- --- --- -----------<br>-- -------",322309,322239.00000000006,321899,321883,321916,322338,,24,"""two"
screen,html.Screen,2_3_1_0_1_25,2022-02-17T14:55:08.403Z,,,,,,,,,,,,,,,,,2,,,,,,,,,,,,,,372,,response,,,,1,E,,,,,,Space,keypress(Space),,,,lyrical,,,,--- ---- ------ --- ------- ---------- ------- ----------<br>--- --------- --- ----------- ------- ----- ------- ---<br>--------- ---- -- --- ---- -- --------- -- ---- patches<br>-- --------- ------ --- ----- ------ ---- --- --------- --<br>------ - ---- -- --- ----------- ------- ---- ----- -----<br>--- -------- - ------ ---- -- ----- ---- --- --- -----------<br>-- -------,322764,322694,322322,322309,322338,322795,,25,patches
screen,html.Screen,2_3_1_0_1_26,2022-02-17T14:55:08.823Z,,,,,,,,,,,,,,,,,2,,,,,,,,,,,,,,334,,response,,,,1,E,,,,,,Space,keypress(Space),,,,lyrical,,,,--- ---- ------ --- ------- ---------- ------- ----------<br>--- --------- --- ----------- ------- ----- ------- ---<br>--------- ---- -- --- ---- -- --------- -- ---- -------<br>of --------- ------ --- ----- ------ ---- --- --------- --<br>------ - ---- -- --- ----------- ------- ---- ----- -----<br>--- -------- - ------ ---- -- ----- ---- --- --- -----------<br>-- -------,323184,323113,322779,322765,322795,323217,,26,of
screen,html.Screen,2_3_1_0_1_27,2022-02-17T14:55:09.367Z,,,,,,,,,,,,,,,,,2,,,,,,,,,,,,,,457,,response,,,,1,E,,,,,,Space,keypress(Space),,,,lyrical,,,,--- ---- ------ --- ------- ---------- ------- ----------<br>--- --------- --- ----------- ------- ----- ------- ---<br>--------- ---- -- --- ---- -- --------- -- ---- -------<br>-- intensely ------ --- ----- ------ ---- --- --------- --<br>------ - ---- -- --- ----------- ------- ---- ----- -----<br>--- -------- - ------ ---- -- ----- ---- --- --- -----------<br>-- -------,323729,323658,323201,323184,323217,323758,,27,intensely
screen,html.Screen,2_3_1_0_1_28,2022-02-17T14:55:09.809Z,,,,,,,,,,,,,,,,,2,,,,,,,,,,,,,,358,,response,,,,1,E,,,,,,Space,keypress(Space),,,,lyrical,,,,--- ---- ------ --- ------- ---------- ------- ----------<br>--- --------- --- ----------- ------- ----- ------- ---<br>--------- ---- -- --- ---- -- --------- -- ---- -------<br>-- --------- bright --- ----- ------ ---- --- --------- --<br>------ - ---- -- --- ----------- ------- ---- ----- -----<br>--- -------- - ------ ---- -- ----- ---- --- --- -----------<br>-- -------,324170,324099,323741,323729,323758,324198,,28,bright
screen,html.Screen,2_3_1_0_1_29,2022-02-17T14:55:10.239Z,,,,,,,,,,,,,,,,,2,,,,,,,,,,,,,,348,,response,,,,1,E,,,,,,Space,keypress(Space),,,,lyrical,,,,--- ---- ------ --- ------- ---------- ------- ----------<br>--- --------- --- ----------- ------- ----- ------- ---<br>--------- ---- -- --- ---- -- --------- -- ---- -------<br>-- --------- ------ and ----- ------ ---- --- --------- --<br>------ - ---- -- --- ----------- ------- ---- ----- -----<br>--- -------- - ------ ---- -- ----- ---- --- --- -----------<br>-- -------,324600,324529,324181,324170,324198,324638,,29,and
screen,html.Screen,2_3_1_0_1_30,2022-02-17T14:55:10.682Z,,,,,,,,,,,,,,,,,2,,,,,,,,,,,,,,351,,response,,,,1,E,,,,,,Space,keypress(Space),,,,lyrical,,,,--- ---- ------ --- ------- ---------- ------- ----------<br>--- --------- --- ----------- ------- ----- ------- ---<br>--------- ---- -- --- ---- -- --------- -- ---- -------<br>-- --------- ------ --- white ------ ---- --- --------- --<br>------ - ---- -- --- ----------- ------- ---- ----- -----<br>--- -------- - ------ ---- -- ----- ---- --- --- -----------<br>-- -------,325043,324972,324621,324600,324638,325077,,30,white
screen,html.Screen,2_3_1_0_1_31,2022-02-17T14:55:10.977Z,,,,,,,,,,,,,,,,,2,,,,,,,,,,,,,,207,,response,,,,1,E,,,,,,Space,keypress(Space),,,,lyrical,,,,"--- ---- ------ --- ------- ---------- ------- ----------<br>--- --------- --- ----------- ------- ----- ------- ---<br>--------- ---- -- --- ---- -- --------- -- ---- -------<br>-- --------- ------ --- ----- light"" ---- --- --------- --<br>------ - ---- -- --- ----------- ------- ---- ----- -----<br>--- -------- - ------ ---- -- ----- ---- --- --- -----------<br>-- -------",325338,325267,325060,325043,325077,325366,,31,"light"""
screen,html.Screen,2_3_1_0_1_32,2022-02-17T14:55:11.201Z,,,,,,,,,,,,,,,,,2,,,,,,,,,,,,,,141,,response,,,,1,E,,,,,,Space,keypress(Space),,,,lyrical,,,,--- ---- ------ --- ------- ---------- ------- ----------<br>--- --------- --- ----------- ------- ----- ------- ---<br>--------- ---- -- --- ---- -- --------- -- ---- -------<br>-- --------- ------ --- ----- ------ over --- --------- --<br>------ - ---- -- --- ----------- ------- ---- ----- -----<br>--- -------- - ------ ---- -- ----- ---- --- --- -----------<br>-- -------,325562,325491,325350,325338,325366,325594,,32,over
screen,html.Screen,2_3_1_0_1_33,2022-02-17T14:55:11.578Z,,,,,,,,,,,,,,,,,2,,,,,,,,,,,,,,291,,response,,,,1,E,,,,,,Space,keypress(Space),,,,lyrical,,,,--- ---- ------ --- ------- ---------- ------- ----------<br>--- --------- --- ----------- ------- ----- ------- ---<br>--------- ---- -- --- ---- -- --------- -- ---- -------<br>-- --------- ------ --- ----- ------ ---- the --------- --<br>------ - ---- -- --- ----------- ------- ---- ----- -----<br>--- -------- - ------ ---- -- ----- ---- --- --- -----------<br>-- -------,325939,325868,325577,325562,325594,325963,,33,the
screen,html.Screen,2_3_1_0_1_34,2022-02-17T14:55:11.881Z,,,,,,,,,,,,,,,,,2,,,,,,,,,,,,,,226,,response,,,,1,E,,,,,,Space,keypress(Space),,,,lyrical,,,,--- ---- ------ --- ------- ---------- ------- ----------<br>--- --------- --- ----------- ------- ----- ------- ---<br>--------- ---- -- --- ---- -- --------- -- ---- -------<br>-- --------- ------ --- ----- ------ ---- --- sunspots. --<br>------ - ---- -- --- ----------- ------- ---- ----- -----<br>--- -------- - ------ ---- -- ----- ---- --- --- -----------<br>-- -------,326242,326171,325945,325939,325963,326264,,34,sunspots.
screen,html.Screen,2_3_1_0_1_35,2022-02-17T14:55:12.473Z,,,,,,,,,,,,,,,,,2,,,,,,,,,,,,,,515,,response,,,,1,E,,,,,,Space,keypress(Space),,,,lyrical,,,,--- ---- ------ --- ------- ---------- ------- ----------<br>--- --------- --- ----------- ------- ----- ------- ---<br>--------- ---- -- --- ---- -- --------- -- ---- -------<br>-- --------- ------ --- ----- ------ ---- --- --------- He<br>------ - ---- -- --- ----------- ------- ---- ----- -----<br>--- -------- - ------ ---- -- ----- ---- --- --- -----------<br>-- -------,326835,326764,326249,326242,326264,326867,,35,He
screen,html.Screen,2_3_1_0_1_36,2022-02-17T14:55:13.022Z,,,,,,,,,,,,,,,,,2,,,,,,,,,,,,,,461,,response,,,,1,E,,,,,,Space,keypress(Space),,,,lyrical,,,,--- ---- ------ --- ------- ---------- ------- ----------<br>--- --------- --- ----------- ------- ----- ------- ---<br>--------- ---- -- --- ---- -- --------- -- ---- -------<br>-- --------- ------ --- ----- ------ ---- --- --------- --<br>jotted - ---- -- --- ----------- ------- ---- ----- -----<br>--- -------- - ------ ---- -- ----- ---- --- --- -----------<br>-- -------,327383,327312,326851,326835,326867,327423,,36,jotted
screen,html.Screen,2_3_1_0_1_37,2022-02-17T14:55:13.550Z,,,,,,,,,,,,,,,,,2,,,,,,,,,,,,,,434,,response,,,,1,E,,,,,,Space,keypress(Space),,,,lyrical,,,,--- ---- ------ --- ------- ---------- ------- ----------<br>--- --------- --- ----------- ------- ----- ------- ---<br>--------- ---- -- --- ---- -- --------- -- ---- -------<br>-- --------- ------ --- ----- ------ ---- --- --------- --<br>------ a ---- -- --- ----------- ------- ---- ----- -----<br>--- -------- - ------ ---- -- ----- ---- --- --- -----------<br>-- -------,327912.00000000006,327841,327407,327383,327423,327947,,37,a
screen,html.Screen,2_3_1_0_1_38,2022-02-17T14:55:14.017Z,,,,,,,,,,,,,,,,,2,,,,,,,,,,,,,,377,,response,,,,1,E,,,,,,Space,keypress(Space),,,,lyrical,,,,--- ---- ------ --- ------- ---------- ------- ----------<br>--- --------- --- ----------- ------- ----- ------- ---<br>--------- ---- -- --- ---- -- --------- -- ---- -------<br>-- --------- ------ --- ----- ------ ---- --- --------- --<br>------ - note -- --- ----------- ------- ---- ----- -----<br>--- -------- - ------ ---- -- ----- ---- --- --- -----------<br>-- -------,328378,328307,327930,327912.00000000006,327947,328420,,38,note
screen,html.Screen,2_3_1_0_1_39,2022-02-17T14:55:14.612Z,,,,,,,,,,,,,,,,,2,,,,,,,,,,,,,,500,,response,,,,1,E,,,,,,Space,keypress(Space),,,,lyrical,,,,--- ---- ------ --- ------- ---------- ------- ----------<br>--- --------- --- ----------- ------- ----- ------- ---<br>--------- ---- -- --- ---- -- --------- -- ---- -------<br>-- --------- ------ --- ----- ------ ---- --- --------- --<br>------ - ---- in --- ----------- ------- ---- ----- -----<br>--- -------- - ------ ---- -- ----- ---- --- --- -----------<br>-- -------,328974,328903,328403,328378,328420,329010,,39,in
screen,html.Screen,2_3_1_0_1_40,2022-02-17T14:55:15.107Z,,,,,,,,,,,,,,,,,2,,,,,,,,,,,,,,404,,response,,,,1,E,,,,,,Space,keypress(Space),,,,lyrical,,,,--- ---- ------ --- ------- ---------- ------- ----------<br>--- --------- --- ----------- ------- ----- ------- ---<br>--------- ---- -- --- ---- -- --------- -- ---- -------<br>-- --------- ------ --- ----- ------ ---- --- --------- --<br>------ - ---- -- his ----------- ------- ---- ----- -----<br>--- -------- - ------ ---- -- ----- ---- --- --- -----------<br>-- -------,329468,329397,328993,328974,329010,329500,,40,his
screen,html.Screen,2_3_1_0_1_41,2022-02-17T14:55:15.663Z,,,,,,,,,,,,,,,,,2,,,,,,,,,,,,,,471,,response,,,,1,E,,,,,,Space,keypress(Space),,,,lyrical,,,,--- ---- ------ --- ------- ---------- ------- ----------<br>--- --------- --- ----------- ------- ----- ------- ---<br>--------- ---- -- --- ---- -- --------- -- ---- -------<br>-- --------- ------ --- ----- ------ ---- --- --------- --<br>------ - ---- -- --- painstaking ------- ---- ----- -----<br>--- -------- - ------ ---- -- ----- ---- --- --- -----------<br>-- -------,330025.00000000006,329954,329483,329468,329500,330058,,41,painstaking
screen,html.Screen,2_3_1_0_1_42,2022-02-17T14:55:16.205Z,,,,,,,,,,,,,,,,,2,,,,,,,,,,,,,,454,,response,,,,1,E,,,,,,Space,keypress(Space),,,,lyrical,,,,--- ---- ------ --- ------- ---------- ------- ----------<br>--- --------- --- ----------- ------- ----- ------- ---<br>--------- ---- -- --- ---- -- --------- -- ---- -------<br>-- --------- ------ --- ----- ------ ---- --- --------- --<br>------ - ---- -- --- ----------- record. ---- ----- -----<br>--- -------- - ------ ---- -- ----- ---- --- --- -----------<br>-- -------,330566.00000000006,330495,330041,330025.00000000006,330058,330598,,42,record.
screen,html.Screen,2_3_1_0_1_43,2022-02-17T14:55:17.024Z,,,,,,,,,,,,,,,,,2,,,,,,,,,,,,,,734,,response,,,,1,E,,,,,,Space,keypress(Space),,,,lyrical,,,,--- ---- ------ --- ------- ---------- ------- ----------<br>--- --------- --- ----------- ------- ----- ------- ---<br>--------- ---- -- --- ---- -- --------- -- ---- -------<br>-- --------- ------ --- ----- ------ ---- --- --------- --<br>------ - ---- -- --- ----------- ------- That ----- -----<br>--- -------- - ------ ---- -- ----- ---- --- --- -----------<br>-- -------,331386,331315,330581,330566.00000000006,330598,331421,,43,That
screen,html.Screen,2_3_1_0_1_44,2022-02-17T14:55:17.464Z,,,,,,,,,,,,,,,,,2,,,,,,,,,,,,,,351,,response,,,,1,E,,,,,,Space,keypress(Space),,,,lyrical,,,,--- ---- ------ --- ------- ---------- ------- ----------<br>--- --------- --- ----------- ------- ----- ------- ---<br>--------- ---- -- --- ---- -- --------- -- ---- -------<br>-- --------- ------ --- ----- ------ ---- --- --------- --<br>------ - ---- -- --- ----------- ------- ---- night -----<br>--- -------- - ------ ---- -- ----- ---- --- --- -----------<br>-- -------,331826,331755,331404,331386,331421,331860,,44,night
screen,html.Screen,2_3_1_0_1_45,2022-02-17T14:55:17.952Z,,,,,,,,,,,,,,,,,2,,,,,,,,,,,,,,398,,response,,,,1,E,,,,,,Space,keypress(Space),,,,lyrical,,,,--- ---- ------ --- ------- ---------- ------- ----------<br>--- --------- --- ----------- ------- ----- ------- ---<br>--------- ---- -- --- ---- -- --------- -- ---- -------<br>-- --------- ------ --- ----- ------ ---- --- --------- --<br>------ - ---- -- --- ----------- ------- ---- ----- there<br>--- -------- - ------ ---- -- ----- ---- --- --- -----------<br>-- -------,332313,332242,331844,331826,331860,332351,,45,there
screen,html.Screen,2_3_1_0_1_46,2022-02-17T14:55:18.362Z,,,,,,,,,,,,,,,,,2,,,,,,,,,,,,,,319,,response,,,,1,E,,,,,,Space,keypress(Space),,,,lyrical,,,,--- ---- ------ --- ------- ---------- ------- ----------<br>--- --------- --- ----------- ------- ----- ------- ---<br>--------- ---- -- --- ---- -- --------- -- ---- -------<br>-- --------- ------ --- ----- ------ ---- --- --------- --<br>------ - ---- -- --- ----------- ------- ---- ----- -----<br>was -------- - ------ ---- -- ----- ---- --- --- -----------<br>-- -------,332724,332653,332334,332313,332351,332740,,46,was
screen,html.Screen,2_3_1_0_1_47,2022-02-17T14:55:18.786Z,,,,,,,,,,,,,,,,,2,,,,,,,,,,,,,,352,,response,,,,1,E,,,,,,Space,keypress(Space),,,,lyrical,,,,--- ---- ------ --- ------- ---------- ------- ----------<br>--- --------- --- ----------- ------- ----- ------- ---<br>--------- ---- -- --- ---- -- --------- -- ---- -------<br>-- --------- ------ --- ----- ------ ---- --- --------- --<br>------ - ---- -- --- ----------- ------- ---- ----- -----<br>--- scarcely - ------ ---- -- ----- ---- --- --- -----------<br>-- -------,333148,333077,332725,332724,332740,333181,,47,scarcely
screen,html.Screen,2_3_1_0_1_48,2022-02-17T14:55:19.521Z,,,,,,,,,,,,,,,,,2,,,,,,,,,,,,,,648,,response,,,,1,E,,,,,,Space,keypress(Space),,,,lyrical,,,,--- ---- ------ --- ------- ---------- ------- ----------<br>--- --------- --- ----------- ------- ----- ------- ---<br>--------- ---- -- --- ---- -- --------- -- ---- -------<br>-- --------- ------ --- ----- ------ ---- --- --------- --<br>------ - ---- -- --- ----------- ------- ---- ----- -----<br>--- -------- a ------ ---- -- ----- ---- --- --- -----------<br>-- -------,333883,333812,333164,333148,333181,333921,,48,a
screen,html.Screen,2_3_1_0_1_49,2022-02-17T14:55:20.125Z,,,,,,,,,,,,,,,,,2,,,,,,,,,,,,,,511,,response,,,,1,E,,,,,,Space,keypress(Space),,,,lyrical,,,,--- ---- ------ --- ------- ---------- ------- ----------<br>--- --------- --- ----------- ------- ----- ------- ---<br>--------- ---- -- --- ---- -- --------- -- ---- -------<br>-- --------- ------ --- ----- ------ ---- --- --------- --<br>------ - ---- -- --- ----------- ------- ---- ----- -----<br>--- -------- - square ---- -- ----- ---- --- --- -----------<br>-- -------,334487,334416,333905,333883,333921,334528,,49,square
screen,html.Screen,2_3_1_0_1_50,2022-02-17T14:55:20.615Z,,,,,,,,,,,,,,,,,2,,,,,,,,,,,,,,394,,response,,,,1,E,,,,,,Space,keypress(Space),,,,lyrical,,,,--- ---- ------ --- ------- ---------- ------- ----------<br>--- --------- --- ----------- ------- ----- ------- ---<br>--------- ---- -- --- ---- -- --------- -- ---- -------<br>-- --------- ------ --- ----- ------ ---- --- --------- --<br>------ - ---- -- --- ----------- ------- ---- ----- -----<br>--- -------- - ------ inch -- ----- ---- --- --- -----------<br>-- -------,334977.00000000006,334906,334512,334487,334528,335018,,50,inch
screen,html.Screen,2_3_1_0_1_51,2022-02-17T14:55:21.063Z,,,,,,,,,,,,,,,,,2,,,,,,,,,,,,,,352,,response,,,,1,E,,,,,,Space,keypress(Space),,,,lyrical,,,,--- ---- ------ --- ------- ---------- ------- ----------<br>--- --------- --- ----------- ------- ----- ------- ---<br>--------- ---- -- --- ---- -- --------- -- ---- -------<br>-- --------- ------ --- ----- ------ ---- --- --------- --<br>------ - ---- -- --- ----------- ------- ---- ----- -----<br>--- -------- - ------ ---- of ----- ---- --- --- -----------<br>-- -------,335425,335354,335002,334977.00000000006,335018,335459,,51,of
screen,html.Screen,2_3_1_0_1_52,2022-02-17T14:55:21.360Z,,,,,,,,,,,,,,,,,2,,,,,,,,,,,,,,208.0000000000582,,response,,,,1,E,,,,,,Space,keypress(Space),,,,lyrical,,,,--- ---- ------ --- ------- ---------- ------- ----------<br>--- --------- --- ----------- ------- ----- ------- ---<br>--------- ---- -- --- ---- -- --------- -- ---- -------<br>-- --------- ------ --- ----- ------ ---- --- --------- --<br>------ - ---- -- --- ----------- ------- ---- ----- -----<br>--- -------- - ------ ---- -- earth ---- --- --- -----------<br>-- -------,335721,335650.00000000006,335442,335425,335459,335747,,52,earth
screen,html.Screen,2_3_1_0_1_53,2022-02-17T14:55:21.825Z,,,,,,,,,,,,,,,,,2,,,,,,,,,,,,,,385,,response,,,,1,E,,,,,,Space,keypress(Space),,,,lyrical,,,,--- ---- ------ --- ------- ---------- ------- ----------<br>--- --------- --- ----------- ------- ----- ------- ---<br>--------- ---- -- --- ---- -- --------- -- ---- -------<br>-- --------- ------ --- ----- ------ ---- --- --------- --<br>------ - ---- -- --- ----------- ------- ---- ----- -----<br>--- -------- - ------ ---- -- ----- that --- --- -----------<br>-- -------,336187,336116,335731,335721,335747,336223,,53,that
screen,html.Screen,2_3_1_0_1_54,2022-02-17T14:55:22.206Z,,,,,,,,,,,,,,,,,2,,,,,,,,,,,,,,290,,response,,,,1,E,,,,,,Space,keypress(Space),,,,lyrical,,,,--- ---- ------ --- ------- ---------- ------- ----------<br>--- --------- --- ----------- ------- ----- ------- ---<br>--------- ---- -- --- ---- -- --------- -- ---- -------<br>-- --------- ------ --- ----- ------ ---- --- --------- --<br>------ - ---- -- --- ----------- ------- ---- ----- -----<br>--- -------- - ------ ---- -- ----- ---- was --- -----------<br>-- -------,336568,336497,336207,336187,336223,336597,,54,was
