sender,sender_type,sender_id,timestamp,meta,,Blues,Classical,Country,Dance,Electronic,Folk,Gospel,Hip-Hop,Jazz,Latin,Musical/Film,New-age,Pop,Prolific_id,Provo_ID,R&B,Rap,Reggae,Religious,Rock,Soul,Swing,Traditional,age,artist_name,correct,correctResponse,distraction,duration,education,ended_on,familiarity,gender,headphone_check_performance,item,list,music_frequency,offensiveness,pleasantness,position_correct,preference,response,response_action,snippet_file,song_name,song_rating,sound,stimulus_1,stimulus_2,stimulus_3,text,time_commit,time_end,time_render,time_run,time_show,time_switch,url,word,word_ID
Prolific ID,html.Form,0,2022-02-02T13:31:00.436Z,"{""labjs_version"":""20.2.2"",""labjs_build"":{""flavor"":""production"",""commit"":""a25486e0c714a0ae2ce03ff94b7bb6896854dcfa""},""location"":""https://run.pavlovia.org/mvasilev/prolific2_music_b/"",""userAgent"":""Mozilla/5.0 (Windows NT 6.3; Win64; x64) AppleWebKit/537.36 (KHTML, like Gecko) Chrome/97.0.4692.99 Safari/537.36"",""platform"":""Win32"",""language"":""en-GB"",""locale"":""en-US"",""timeZone"":""Europe/London"",""timezoneOffset"":0,""screen_width"":1366,""screen_height"":768,""scroll_width"":1366,""scroll_height"":609,""window_innerWidth"":1366,""window_innerHeight"":657,""devicePixelRatio"":1}",,,,,,,,,,,,,,,5d7a1fce27fb8a000196993e,,,,,,,,,,,,,,,11550.161000047683,,form submission,,,,,,,,,,,,,,,,,,,,,42614.39999997616,42613.700000047684,31013.352,31013.299999952316,31063.539,42681.647,{},,
Introduction,html.Screen,1_0,2022-02-02T13:36:28.221Z,,,,,,,,,,,,,,,,,,,,,,,,,,,,,,,327713.45300002384,,response,,,,,,,,,,,continue,click button,,,,,,,,,370398.7000000477,370395.10000002384,42598.017,42614.89999997616,42681.647,370398.691,,,
Volume calibration,html.Screen,1_1,2022-02-02T13:36:52.999Z,,,,,,,,,,,,,,,,,,,,,,,,,,,,,,,24773.708999976167,,response,,,,,,,,,,,continue,click button,,,,,,,,,395177.2000000477,395172.39999997616,370381.964,370398.89999997616,370398.691,395188.973,,,
Task instructions,html.Screen,1_2,2022-02-02T13:37:05.759Z,,,,,,,,,,,,,,,,,,,,,,,,,,,,,,,12746.826999952318,,response,,,,,,,,,,,continue,click button,,,,,,,,,407936.7000000477,407935.7999999523,395172.24,395177.2999999523,395188.973,407949.56,,,
Sounds,html.Screen,1_3_0_0,2022-02-02T13:37:10.020Z,,,,,,,,,,,,,,,,,,,,,,,,,,,,,,,4256.560999999987,,timeout,,,,,,,,,3,,,,,,,,O,I,S,,412198,412189.388,407932.836,407937,407949.56,412206.121,,,
Judgement,html.Screen,1_3_0_1,2022-02-02T13:37:11.160Z,,,,,,,,,,,,,,,,,,,,,,,,,,,,true,3,,1130.2789999761735,,response,,,,,,,,,3,,3,click #choice-3,,,,,O,I,S,,413337.5,413336.39999997616,412189.388,412198.60000002384,412206.121,413343.828,,,
Trial,flow.Sequence,1_3_0,2022-02-02T13:37:11.160Z,,,,,,,,,,,,,,,,,,,,,,,,,,,,,,,5386.8399999761605,,completion,,,,,,,,,3,,,,,,,,O,I,S,,413338,413336.39999997616,407932.836,407936.89999997616,407949.56,413343.828,,,
Sounds,html.Screen,1_3_1_0,2022-02-02T13:37:15.401Z,,,,,,,,,,,,,,,,,,,,,,,,,,,,,,,4249.959000000032,,timeout,,,,,,,,,3,,,,,,,,I,O,S,,417578.60000002384,417577.055,413327.096,413338.2999999523,413343.828,417593.787,,,
Judgement,html.Screen,1_3_1_1,2022-02-02T13:37:16.425Z,,,,,,,,,,,,,,,,,,,,,,,,,,,,true,3,,1008.0129999523051,,response,,,,,,,,,3,,3,click #choice-3,,,,,I,O,S,,418603.10000002384,418601.7999999523,417577.055,417579,417593.787,418614.645,,,
Trial,flow.Sequence,1_3_1,2022-02-02T13:37:16.425Z,,,,,,,,,,,,,,,,,,,,,,,,,,,,,,,5257.971999952337,,completion,,,,,,,,,3,,,,,,,,I,O,S,,418603.5,418601.7999999523,413327.096,413338.10000002384,413343.828,418614.645,,,
Sounds,html.Screen,1_3_2_0,2022-02-02T13:37:20.672Z,,,,,,,,,,,,,,,,,,,,,,,,,,,,,,,4250.544999999984,,timeout,,,,,,,,,1,,,,,,,,S,O,I,,422850.39999997616,422848.456,418597.914,418603.7000000477,418614.645,422865.19,,,
Judgement,html.Screen,1_3_2_1,2022-02-02T13:37:21.652Z,,,,,,,,,,,,,,,,,,,,,,,,,,,,true,1,,964.2099999761558,,response,,,,,,,,,1,,1,click #choice-1,,,,,S,O,I,,423830.39999997616,423829.39999997616,422848.456,422850.89999997616,422865.19,423835.331,,,
Trial,flow.Sequence,1_3_2,2022-02-02T13:37:21.653Z,,,,,,,,,,,,,,,,,,,,,,,,,,,,,,,5214.7549999761395,,completion,,,,,,,,,1,,,,,,,,S,O,I,,423830.7999999523,423829.39999997616,418597.914,418603.7000000477,418614.645,423835.331,,,
Sounds,html.Screen,1_3_3_0,2022-02-02T13:37:25.894Z,,,,,,,,,,,,,,,,,,,,,,,,,,,,,,,4250.15399999998,,timeout,,,,,,,,,2,,,,,,,,O,S,I,,428072.2999999523,428068.752,423818.598,423831,423835.331,428085.485,,,
Judgement,html.Screen,1_3_3_1,2022-02-02T13:37:26.696Z,,,,,,,,,,,,,,,,,,,,,,,,,,,,true,2,,787.3149999523303,,response,,,,,,,,,2,,2,click #choice-2,,,,,O,S,I,,428873.7999999523,428872.7999999523,428068.752,428072.7000000477,428085.485,428888.392,,,
Trial,flow.Sequence,1_3_3,2022-02-02T13:37:26.696Z,,,,,,,,,,,,,,,,,,,,,,,,,,,,,,,5037.468999952311,,completion,,,,,,,,,2,,,,,,,,O,S,I,,428874.2000000477,428872.7999999523,423818.598,423830.89999997616,423835.331,428888.392,,,
Sounds,html.Screen,1_3_4_0,2022-02-02T13:37:30.944Z,,,,,,,,,,,,,,,,,,,,,,,,,,,,,,,4248.55700000003,,timeout,,,,,,,,,2,,,,,,,,I,S,O,,433121.89999997616,433120.223,428871.664,428874.2999999523,428888.392,433136.949,,,
Judgement,html.Screen,1_3_4_1,2022-02-02T13:37:31.605Z,,,,,,,,,,,,,,,,,,,,,,,,,,,,true,2,,644.7510000476614,,response,,,,,,,,,2,,2,click #choice-2,,,,,I,S,O,,433782.60000002384,433781.7000000477,433120.223,433122.39999997616,433136.949,433791.093,,,
Trial,flow.Sequence,1_3_4,2022-02-02T13:37:31.605Z,,,,,,,,,,,,,,,,,,,,,,,,,,,,,,,4893.308000047691,,completion,,,,,,,,,2,,,,,,,,I,S,O,,433782.89999997616,433781.7000000477,428871.664,428874.2000000477,428888.392,433791.093,,,
Sounds,html.Screen,1_3_5_0,2022-02-02T13:37:35.848Z,,,,,,,,,,,,,,,,,,,,,,,,,,,,,,,4249.060999999987,,timeout,,,,,,,,,1,,,,,,,,S,I,O,,438025.5,438023.426,433774.365,433783.10000002384,433791.093,438040.154,,,
Judgement,html.Screen,1_3_5_1,2022-02-02T13:37:36.465Z,,,,,,,,,,,,,,,,,,,,,,,,,,,,true,1,,601.4460000238614,,response,,,,,,,,,1,,1,click #choice-1,,,,,S,I,O,,438642.60000002384,438641.60000002384,438023.426,438025.7999999523,438040.154,438643.406,,,
Trial,flow.Sequence,1_3_5,2022-02-02T13:37:36.465Z,,,,,,,,,,,,,,,,,,,,,,,,,,,,,,,4850.507000023848,,completion,,,,,,,,,1,,,,,,,,S,I,O,,438643,438641.60000002384,433774.365,433783.10000002384,433791.093,438643.406,,,
Task,flow.Loop,1_3,2022-02-02T13:37:36.472Z,,,,,,,,,,,,,,,,,,,,,,,,,,,,,,,30692.040000023844,,completion,,,1,,,,,,,,,,,,,,,,,,438649.89999997616,438641.60000002384,407932.836,407936.89999997616,407949.56,438643.406,,,
Trap,html.Screen,1_4,2022-02-02T13:37:36.474Z,,,,,,,,,,,,,,,,,,,,,,,,,,,,,,,NaN,,skipped,,,,,,,,,,,,,,,,,,,,,438651.7000000477,438641.60000002384,,438651.5,,438643.406,,,
Thanks,html.Screen,1_5,2022-02-02T13:37:40.036Z,,,,,,,,,,,,,,,,,,,,,,,,,,,,,,,3569.393999952299,,response,,,,,,,,,,,continue,click button,,,,,,,,,442213.89999997616,442212.7999999523,438626.681,438651.7999999523,438643.406,446457.956,,,
Headphone screening,flow.Sequence,1,2022-02-02T13:37:40.036Z,,,,,,,,,,,,,,,,,,,,,,,,,,,,,,,399531.1529999523,,completion,,,,,,,,,,,,,,,,,,,,,442214.10000002384,442212.7999999523,42598.017,42614.799999952316,42681.647,446457.956,,,
Instructions,html.Page,2_0,2022-02-02T13:38:03.537Z,,,,,,,,,,,,,,,,,,,,,,,,,,,,,,,19256.34399995231,,form submission,,,,,,,,,,,,,,,,,,,,,465714.7000000477,465714.2999999523,446374.291,446381.5,446457.956,465715.437,,,
Holding screen,html.Screen,2_1_0_0,2022-02-02T13:38:13.529Z,,,,,,,,,,,,,,,,,,,,,,,,,,,,,,,10040.130000000005,,timeout,,,,,,,,,,,,,,,,,,,,,475706.60000002384,475705.398,465698.713,465714.89999997616,465715.437,475755.567,,,
screen,html.Screen,2_1_0_1_0,2022-02-02T13:38:15.950Z,,,,,,,,,,,,,,,,,53,,,,,,,,,,,,,,2364.8329999761772,,response,,,,99,,,,,,,Space,keypress(Space),,,,,,,,When -- ----- -- ------ - ------- --- ----------<br>------------- ------ ------ ---- ---- ------- ----- -- ----<br>-------- ------- -- ---------- --- - --- ----- ----- ----<br>---- --- --- ----- --- ---- ---- ------- ----- ---- -------<br>--- --- -- ----- -- --- ---- -- --- ---- -- ------ ------<br>--- ----- -- ----,478127.5,478120.39999997616,475705.398,475707.10000002384,475755.567,478131.565,,0,When
screen,html.Screen,2_1_0_1_1,2022-02-02T13:38:16.722Z,,,,,,,,,,,,,,,,,53,,,,,,,,,,,,,,766.5350000238395,,response,,,,99,,,,,,,Space,keypress(Space),,,,,,,,---- it ----- -- ------ - ------- --- ----------<br>------------- ------ ------ ---- ---- ------- ----- -- ----<br>-------- ------- -- ---------- --- - --- ----- ----- ----<br>---- --- --- ----- --- ---- ---- ------- ----- ---- -------<br>--- --- -- ----- -- --- ---- -- --- ---- -- ------ ------<br>--- ----- -- ----,478899.5,478898.10000002384,478114.841,478128,478131.565,478901.063,,1,it
screen,html.Screen,2_1_0_1_2,2022-02-02T13:38:17.482Z,,,,,,,,,,,,,,,,,53,,,,,,,,,,,,,,756.9369999999763,,response,,,,99,,,,,,,Space,keypress(Space),,,,,,,,---- -- comes -- ------ - ------- --- ----------<br>------------- ------ ------ ---- ---- ------- ----- -- ----<br>-------- ------- -- ---------- --- - --- ----- ----- ----<br>---- --- --- ----- --- ---- ---- ------- ----- ---- -------<br>--- --- -- ----- -- --- ---- -- --- ---- -- ------ ------<br>--- ----- -- ----,479659.5,479658,478884.338,478899.89999997616,478901.063,479671.225,,2,comes
screen,html.Screen,2_1_0_1_3,2022-02-02T13:38:18.098Z,,,,,,,,,,,,,,,,,53,,,,,,,,,,,,,,602.8750000238651,,response,,,,99,,,,,,,Space,keypress(Space),,,,,,,,---- -- ----- to ------ - ------- --- ----------<br>------------- ------ ------ ---- ---- ------- ----- -- ----<br>-------- ------- -- ---------- --- - --- ----- ----- ----<br>---- --- --- ----- --- ---- ---- ------- ----- ---- -------<br>--- --- -- ----- -- --- ---- -- --- ---- -- ------ ------<br>--- ----- -- ----,480275.5,480274.10000002384,479654.503,479659.7999999523,479671.225,480290.938,,3,to
screen,html.Screen,2_1_0_1_4,2022-02-02T13:38:18.657Z,,,,,,,,,,,,,,,,,53,,,,,,,,,,,,,,542.26200004766,,response,,,,99,,,,,,,Space,keypress(Space),,,,,,,,---- -- ----- -- having - ------- --- ----------<br>------------- ------ ------ ---- ---- ------- ----- -- ----<br>-------- ------- -- ---------- --- - --- ----- ----- ----<br>---- --- --- ----- --- ---- ---- ------- ----- ---- -------<br>--- --- -- ----- -- --- ---- -- --- ---- -- ------ ------<br>--- ----- -- ----,480834.60000002384,480833.2000000477,480274.215,480275.7999999523,480290.938,480843.221,,4,having
screen,html.Screen,2_1_0_1_5,2022-02-02T13:38:19.183Z,,,,,,,,,,,,,,,,,53,,,,,,,,,,,,,,516.5789999522967,,response,,,,99,,,,,,,Space,keypress(Space),,,,,,,,---- -- ----- -- ------ a ------- --- ----------<br>------------- ------ ------ ---- ---- ------- ----- -- ----<br>-------- ------- -- ---------- --- - --- ----- ----- ----<br>---- --- --- ----- --- ---- ---- ------- ----- ---- -------<br>--- --- -- ----- -- --- ---- -- --- ---- -- ------ ------<br>--- ----- -- ----,481361.2000000477,481359.7999999523,480826.497,480834.89999997616,480843.221,481378.769,,5,a
screen,html.Screen,2_1_0_1_6,2022-02-02T13:38:19.871Z,,,,,,,,,,,,,,,,,53,,,,,,,,,,,,,,668.630999976187,,response,,,,99,,,,,,,Space,keypress(Space),,,,,,,,---- -- ----- -- ------ - lasting --- ----------<br>------------- ------ ------ ---- ---- ------- ----- -- ----<br>-------- ------- -- ---------- --- - --- ----- ----- ----<br>---- --- --- ----- --- ---- ---- ------- ----- ---- -------<br>--- --- -- ----- -- --- ---- -- --- ---- -- ------ ------<br>--- ----- -- ----,482049.2000000477,482047.39999997616,481362.043,481361.60000002384,481378.769,482064.582,,6,lasting
screen,html.Screen,2_1_0_1_7,2022-02-02T13:38:20.493Z,,,,,,,,,,,,,,,,,53,,,,,,,,,,,,,,604.9180000000051,,response,,,,99,,,,,,,Space,keypress(Space),,,,,,,,---- -- ----- -- ------ - ------- and ----------<br>------------- ------ ------ ---- ---- ------- ----- -- ----<br>-------- ------- -- ---------- --- - --- ----- ----- ----<br>---- --- --- ----- --- ---- ---- ------- ----- ---- -------<br>--- --- -- ----- -- --- ---- -- --- ---- -- ------ ------<br>--- ----- -- ----,482671,482669.5,482047.86,482049.7999999523,482064.582,482683.021,,7,and
screen,html.Screen,2_1_0_1_8,2022-02-02T13:38:21.037Z,,,,,,,,,,,,,,,,,53,,,,,,,,,,,,,,529.6790000476758,,response,,,,99,,,,,,,Space,keypress(Space),,,,,,,,---- -- ----- -- ------ - ------- --- fulfilling<br>------------- ------ ------ ---- ---- ------- ----- -- ----<br>-------- ------- -- ---------- --- - --- ----- ----- ----<br>---- --- --- ----- --- ---- ---- ------- ----- ---- -------<br>--- --- -- ----- -- --- ---- -- --- ---- -- ------ ------<br>--- ----- -- ----,483214.2999999523,483212.7000000477,482666.302,482671.39999997616,482683.021,483218.985,,8,fulfilling
screen,html.Screen,2_1_0_1_9,2022-02-02T13:38:21.842Z,,,,,,,,,,,,,,,,,53,,,,,,,,,,,,,,799.7150000476977,,response,,,,99,,,,,,,Space,keypress(Space),,,,,,,,"---- -- ----- -- ------ - ------- --- ----------<br>relationship, ------ ------ ---- ---- ------- ----- -- ----<br>-------- ------- -- ---------- --- - --- ----- ----- ----<br>---- --- --- ----- --- ---- ---- ------- ----- ---- -------<br>--- --- -- ----- -- --- ---- -- --- ---- -- ------ ------<br>--- ----- -- ----",484019.60000002384,484018.7000000477,483202.261,483214.7999999523,483218.985,484022.403,,9,"relationship,"
screen,html.Screen,2_1_0_1_10,2022-02-02T13:38:22.411Z,,,,,,,,,,,,,,,,,53,,,,,,,,,,,,,,564.7970000476926,,response,,,,99,,,,,,,Space,keypress(Space),,,,,,,,---- -- ----- -- ------ - ------- --- ----------<br>------------- common ------ ---- ---- ------- ----- -- ----<br>-------- ------- -- ---------- --- - --- ----- ----- ----<br>---- --- --- ----- --- ---- ---- ------- ----- ---- -------<br>--- --- -- ----- -- --- ---- -- --- ---- -- ------ ------<br>--- ----- -- ----,484588.89999997616,484587.2000000477,484005.677,484019.7999999523,484022.403,484590.816,,10,common
screen,html.Screen,2_1_0_1_11,2022-02-02T13:38:23.277Z,,,,,,,,,,,,,,,,,53,,,,,,,,,,,,,,862.0839999761665,,response,,,,99,,,,,,,Space,keypress(Space),,,,,,,,---- -- ----- -- ------ - ------- --- ----------<br>------------- ------ wisdom ---- ---- ------- ----- -- ----<br>-------- ------- -- ---------- --- - --- ----- ----- ----<br>---- --- --- ----- --- ---- ---- ------- ----- ---- -------<br>--- --- -- ----- -- --- ---- -- --- ---- -- ------ ------<br>--- ----- -- ----,485454.5,485452.89999997616,484574.093,484589.39999997616,484590.816,485461.21,,11,wisdom
screen,html.Screen,2_1_0_1_12,2022-02-02T13:38:23.929Z,,,,,,,,,,,,,,,,,53,,,,,,,,,,,,,,643.8900000238209,,response,,,,99,,,,,,,Space,keypress(Space),,,,,,,,---- -- ----- -- ------ - ------- --- ----------<br>------------- ------ ------ says ---- ------- ----- -- ----<br>-------- ------- -- ---------- --- - --- ----- ----- ----<br>---- --- --- ----- --- ---- ---- ------- ----- ---- -------<br>--- --- -- ----- -- --- ---- -- --- ---- -- ------ ------<br>--- ----- -- ----,486106.7999999523,486105.10000002384,485444.487,485455,485461.21,486113.316,,12,says
screen,html.Screen,2_1_0_1_13,2022-02-02T13:38:24.455Z,,,,,,,,,,,,,,,,,53,,,,,,,,,,,,,,517.6840000000084,,response,,,,99,,,,,,,Space,keypress(Space),,,,,,,,---- -- ----- -- ------ - ------- --- ----------<br>------------- ------ ------ ---- that ------- ----- -- ----<br>-------- ------- -- ---------- --- - --- ----- ----- ----<br>---- --- --- ----- --- ---- ---- ------- ----- ---- -------<br>--- --- -- ----- -- --- ---- -- --- ---- -- ------ ------<br>--- ----- -- ----,486632.60000002384,486631,486096.594,486107.2000000477,486113.316,486649.597,,13,that
screen,html.Screen,2_1_0_1_14,2022-02-02T13:38:24.939Z,,,,,,,,,,,,,,,,,53,,,,,,,,,,,,,,465.3029999761493,,response,,,,99,,,,,,,Space,keypress(Space),,,,,,,,---- -- ----- -- ------ - ------- --- ----------<br>------------- ------ ------ ---- ---- feeling ----- -- ----<br>-------- ------- -- ---------- --- - --- ----- ----- ----<br>---- --- --- ----- --- ---- ---- ------- ----- ---- -------<br>--- --- -- ----- -- --- ---- -- --- ---- -- ------ ------<br>--- ----- -- ----,487116.5,487114.89999997616,486632.87,486633.10000002384,486649.597,487118.012,,14,feeling
screen,html.Screen,2_1_0_1_15,2022-02-02T13:38:25.431Z,,,,,,,,,,,,,,,,,53,,,,,,,,,,,,,,489.58800002385397,,response,,,,99,,,,,,,Space,keypress(Space),,,,,,,,---- -- ----- -- ------ - ------- --- ----------<br>------------- ------ ------ ---- ---- ------- close -- ----<br>-------- ------- -- ---------- --- - --- ----- ----- ----<br>---- --- --- ----- --- ---- ---- ------- ----- ---- -------<br>--- --- -- ----- -- --- ---- -- --- ---- -- ------ ------<br>--- ----- -- ----,487609.2999999523,487607.60000002384,487101.289,487116.89999997616,487118.012,487619.898,,15,close
screen,html.Screen,2_1_0_1_16,2022-02-02T13:38:25.871Z,,,,,,,,,,,,,,,,,53,,,,,,,,,,,,,,426.9019999523298,,response,,,,99,,,,,,,Space,keypress(Space),,,,,,,,---- -- ----- -- ------ - ------- --- ----------<br>------------- ------ ------ ---- ---- ------- ----- to ----<br>-------- ------- -- ---------- --- - --- ----- ----- ----<br>---- --- --- ----- --- ---- ---- ------- ----- ---- -------<br>--- --- -- ----- -- --- ---- -- --- ---- -- ------ ------<br>--- ----- -- ----,488048.5,488046.7999999523,487603.178,487609.7000000477,487619.898,488054.684,,16,to
screen,html.Screen,2_1_0_1_17,2022-02-02T13:38:26.361Z,,,,,,,,,,,,,,,,,53,,,,,,,,,,,,,,482.21599997614976,,response,,,,99,,,,,,,Space,keypress(Space),,,,,,,,---- -- ----- -- ------ - ------- --- ----------<br>------------- ------ ------ ---- ---- ------- ----- -- your<br>-------- ------- -- ---------- --- - --- ----- ----- ----<br>---- --- --- ----- --- ---- ---- ------- ----- ---- -------<br>--- --- -- ----- -- --- ---- -- --- ---- -- ------ ------<br>--- ----- -- ----,488538.39999997616,488536.89999997616,488037.963,488049,488054.684,488540.255,,17,your
screen,html.Screen,2_1_0_1_18,2022-02-02T13:38:27.199Z,,,,,,,,,,,,,,,,,53,,,,,,,,,,,,,,834.5449999523116,,response,,,,99,,,,,,,Space,keypress(Space),,,,,,,,---- -- ----- -- ------ - ------- --- ----------<br>------------- ------ ------ ---- ---- ------- ----- -- ----<br>romantic ------- -- ---------- --- - --- ----- ----- ----<br>---- --- --- ----- --- ---- ---- ------- ----- ---- -------<br>--- --- -- ----- -- --- ---- -- --- ---- -- ------ ------<br>--- ----- -- ----,489376.5,489374.7999999523,488523.533,488538.7999999523,488540.255,489393.245,,18,romantic
screen,html.Screen,2_1_0_1_19,2022-02-02T13:38:27.704Z,,,,,,,,,,,,,,,,,53,,,,,,,,,,,,,,487.05499995232094,,response,,,,99,,,,,,,Space,keypress(Space),,,,,,,,---- -- ----- -- ------ - ------- --- ----------<br>------------- ------ ------ ---- ---- ------- ----- -- ----<br>-------- partner -- ---------- --- - --- ----- ----- ----<br>---- --- --- ----- --- ---- ---- ------- ----- ---- -------<br>--- --- -- ----- -- --- ---- -- --- ---- -- ------ ------<br>--- ----- -- ----,489881.89999997616,489880.2999999523,489376.526,489377,489393.245,489894.906,,19,partner
screen,html.Screen,2_1_0_1_20,2022-02-02T13:38:28.182Z,,,,,,,,,,,,,,,,,53,,,,,,,,,,,,,,462.7940000476665,,response,,,,99,,,,,,,Space,keypress(Space),,,,,,,,---- -- ----- -- ------ - ------- --- ----------<br>------------- ------ ------ ---- ---- ------- ----- -- ----<br>-------- ------- is ---------- --- - --- ----- ----- ----<br>---- --- --- ----- --- ---- ---- ------- ----- ---- -------<br>--- --- -- ----- -- --- ---- -- --- ---- -- ------ ------<br>--- ----- -- ----,490359.39999997616,490357.7000000477,489878.186,489882.39999997616,489894.906,490364.178,,20,is
screen,html.Screen,2_1_0_1_21,2022-02-02T13:38:28.896Z,,,,,,,,,,,,,,,,,53,,,,,,,,,,,,,,708.1219999523018,,response,,,,99,,,,,,,Space,keypress(Space),,,,,,,,---- -- ----- -- ------ - ------- --- ----------<br>------------- ------ ------ ---- ---- ------- ----- -- ----<br>-------- ------- -- paramount. --- - --- ----- ----- ----<br>---- --- --- ----- --- ---- ---- ------- ----- ---- -------<br>--- --- -- ----- -- --- ---- -- --- ---- -- ------ ------<br>--- ----- -- ----,491074,491072.2999999523,490347.452,490359.89999997616,490364.178,491083.648,,21,paramount.
screen,html.Screen,2_1_0_1_22,2022-02-02T13:38:29.716Z,,,,,,,,,,,,,,,,,53,,,,,,,,,,,,,,808.4520000238554,,response,,,,99,,,,,,,Space,keypress(Space),,,,,,,,---- -- ----- -- ------ - ------- --- ----------<br>------------- ------ ------ ---- ---- ------- ----- -- ----<br>-------- ------- -- ---------- But - --- ----- ----- ----<br>---- --- --- ----- --- ---- ---- ------- ----- ---- -------<br>--- --- -- ----- -- --- ---- -- --- ---- -- ------ ------<br>--- ----- -- ----,491893.7999999523,491892.10000002384,491066.922,491074.2999999523,491083.648,491903.13,,22,But
screen,html.Screen,2_1_0_1_23,2022-02-02T13:38:30.175Z,,,,,,,,,,,,,,,,,53,,,,,,,,,,,,,,447.9700000238372,,response,,,,99,,,,,,,Space,keypress(Space),,,,,,,,---- -- ----- -- ------ - ------- --- ----------<br>------------- ------ ------ ---- ---- ------- ----- -- ----<br>-------- ------- -- ---------- --- a --- ----- ----- ----<br>---- --- --- ----- --- ---- ---- ------- ----- ---- -------<br>--- --- -- ----- -- --- ---- -- --- ---- -- ------ ------<br>--- ----- -- ----,492352.7000000477,492351.10000002384,491886.405,491894.2000000477,491903.13,492355.452,,23,a
screen,html.Screen,2_1_0_1_24,2022-02-02T13:38:30.669Z,,,,,,,,,,,,,,,,,53,,,,,,,,,,,,,,489.9479999761679,,response,,,,99,,,,,,,Space,keypress(Space),,,,,,,,---- -- ----- -- ------ - ------- --- ----------<br>------------- ------ ------ ---- ---- ------- ----- -- ----<br>-------- ------- -- ---------- --- - new ----- ----- ----<br>---- --- --- ----- --- ---- ---- ------- ----- ---- -------<br>--- --- -- ----- -- --- ---- -- --- ---- -- ------ ------<br>--- ----- -- ----,492847,492845.39999997616,492338.723,492353.10000002384,492355.452,492857.567,,24,new
screen,html.Screen,2_1_0_1_25,2022-02-02T13:38:31.330Z,,,,,,,,,,,,,,,,,53,,,,,,,,,,,,,,648.533000023861,,response,,,,99,,,,,,,Space,keypress(Space),,,,,,,,---- -- ----- -- ------ - ------- --- ----------<br>------------- ------ ------ ---- ---- ------- ----- -- ----<br>-------- ------- -- ---------- --- - --- study ----- ----<br>---- --- --- ----- --- ---- ---- ------- ----- ---- -------<br>--- --- -- ----- -- --- ---- -- --- ---- -- ------ ------<br>--- ----- -- ----,493507.60000002384,493506.10000002384,492840.835,492847.60000002384,492857.567,493526.681,,25,study
screen,html.Screen,2_1_0_1_26,2022-02-02T13:38:32.057Z,,,,,,,,,,,,,,,,,53,,,,,,,,,,,,,,707.7189999761758,,response,,,,99,,,,,,,Space,keypress(Space),,,,,,,,---- -- ----- -- ------ - ------- --- ----------<br>------------- ------ ------ ---- ---- ------- ----- -- ----<br>-------- ------- -- ---------- --- - --- ----- finds ----<br>---- --- --- ----- --- ---- ---- ------- ----- ---- -------<br>--- --- -- ----- -- --- ---- -- --- ---- -- ------ ------<br>--- ----- -- ----,494235.39999997616,494234.39999997616,493509.951,493510.2999999523,493526.681,494246.164,,26,finds
screen,html.Screen,2_1_0_1_27,2022-02-02T13:38:32.530Z,,,,,,,,,,,,,,,,,53,,,,,,,,,,,,,,460.63599995232653,,response,,,,99,,,,,,,Space,keypress(Space),,,,,,,,---- -- ----- -- ------ - ------- --- ----------<br>------------- ------ ------ ---- ---- ------- ----- -- ----<br>-------- ------- -- ---------- --- - --- ----- ----- that<br>---- --- --- ----- --- ---- ---- ------- ----- ---- -------<br>--- --- -- ----- -- --- ---- -- --- ---- -- ------ ------<br>--- ----- -- ----,494708.2999999523,494706.7999999523,494229.437,494235.7000000477,494246.164,494714.686,,27,that
screen,html.Screen,2_1_0_1_28,2022-02-02T13:38:33.016Z,,,,,,,,,,,,,,,,,53,,,,,,,,,,,,,,477.4140000238549,,response,,,,99,,,,,,,Space,keypress(Space),,,,,,,,---- -- ----- -- ------ - ------- --- ----------<br>------------- ------ ------ ---- ---- ------- ----- -- ----<br>-------- ------- -- ---------- --- - --- ----- ----- ----<br>it's --- --- ----- --- ---- ---- ------- ----- ---- -------<br>--- --- -- ----- -- --- ---- -- --- ---- -- ------ ------<br>--- ----- -- ----,495193.7999999523,495192.10000002384,494697.959,494708.89999997616,494714.686,495199.968,,28,it's
screen,html.Screen,2_1_0_1_29,2022-02-02T13:38:33.532Z,,,,,,,,,,,,,,,,,53,,,,,,,,,,,,,,508.23200004769024,,response,,,,99,,,,,,,Space,keypress(Space),,,,,,,,---- -- ----- -- ------ - ------- --- ----------<br>------------- ------ ------ ---- ---- ------- ----- -- ----<br>-------- ------- -- ---------- --- - --- ----- ----- ----<br>---- not --- ----- --- ---- ---- ------- ----- ---- -------<br>--- --- -- ----- -- --- ---- -- --- ---- -- ------ ------<br>--- ----- -- ----,495709.7999999523,495708.2000000477,495183.241,495194.2000000477,495199.968,495718.705,,29,not
screen,html.Screen,2_1_0_1_30,2022-02-02T13:38:34.219Z,,,,,,,,,,,,,,,,,53,,,,,,,,,,,,,,676.6949999761418,,response,,,,99,,,,,,,Space,keypress(Space),,,,,,,,---- -- ----- -- ------ - ------- --- ----------<br>------------- ------ ------ ---- ---- ------- ----- -- ----<br>-------- ------- -- ---------- --- - --- ----- ----- ----<br>---- --- how ----- --- ---- ---- ------- ----- ---- -------<br>--- --- -- ----- -- --- ---- -- --- ---- -- ------ ------<br>--- ----- -- ----,496397,496395.39999997616,495701.976,495710.10000002384,495718.705,496404.934,,30,how
screen,html.Screen,2_1_0_1_31,2022-02-02T13:38:34.868Z,,,,,,,,,,,,,,,,,53,,,,,,,,,,,,,,639.0659999999916,,response,,,,99,,,,,,,Space,keypress(Space),,,,,,,,---- -- ----- -- ------ - ------- --- ----------<br>------------- ------ ------ ---- ---- ------- ----- -- ----<br>-------- ------- -- ---------- --- - --- ----- ----- ----<br>---- --- --- close --- ---- ---- ------- ----- ---- -------<br>--- --- -- ----- -- --- ---- -- --- ---- -- ------ ------<br>--- ----- -- ----,497045.7000000477,497044,496388.201,496397.5,496404.934,497057.407,,31,close
screen,html.Screen,2_1_0_1_32,2022-02-02T13:38:35.398Z,,,,,,,,,,,,,,,,,53,,,,,,,,,,,,,,516.8929999523098,,response,,,,99,,,,,,,Space,keypress(Space),,,,,,,,---- -- ----- -- ------ - ------- --- ----------<br>------------- ------ ------ ---- ---- ------- ----- -- ----<br>-------- ------- -- ---------- --- - --- ----- ----- ----<br>---- --- --- ----- you ---- ---- ------- ----- ---- -------<br>--- --- -- ----- -- --- ---- -- --- ---- -- ------ ------<br>--- ----- -- ----,497576,497574.2999999523,497040.675,497046,497057.407,497593.009,,32,you
screen,html.Screen,2_1_0_1_33,2022-02-02T13:38:46.821Z,,,,,,,,,,,,,,,,,53,,,,,,,,,,,,,,11404.99099999998,,response,,,,99,,,,,,,Space,keypress(Space),,,,,,,,---- -- ----- -- ------ - ------- --- ----------<br>------------- ------ ------ ---- ---- ------- ----- -- ----<br>-------- ------- -- ---------- --- - --- ----- ----- ----<br>---- --- --- ----- --- feel ---- ------- ----- ---- -------<br>--- --- -- ----- -- --- ---- -- --- ---- -- ------ ------<br>--- ----- -- ----,508999.2999999523,508998,497576.274,497576.39999997616,497593.009,509003.437,,33,feel
screen,html.Screen,2_1_0_1_34,2022-02-02T13:38:47.920Z,,,,,,,,,,,,,,,,,53,,,,,,,,,,,,,,1093.0630000000237,,response,,,,99,,,,,,,Space,keypress(Space),,,,,,,,---- -- ----- -- ------ - ------- --- ----------<br>------------- ------ ------ ---- ---- ------- ----- -- ----<br>-------- ------- -- ---------- --- - --- ----- ----- ----<br>---- --- --- ----- --- ---- that ------- ----- ---- -------<br>--- --- -- ----- -- --- ---- -- --- ---- -- ------ ------<br>--- ----- -- ----,510098.10000002384,510096.5,508986.706,508999.7000000477,509003.437,510109.971,,34,that
screen,html.Screen,2_1_0_1_35,2022-02-02T13:38:48.407Z,,,,,,,,,,,,,,,,,53,,,,,,,,,,,,,,473.52899999998044,,response,,,,99,,,,,,,Space,keypress(Space),,,,,,,,---- -- ----- -- ------ - ------- --- ----------<br>------------- ------ ------ ---- ---- ------- ----- -- ----<br>-------- ------- -- ---------- --- - --- ----- ----- ----<br>---- --- --- ----- --- ---- ---- matters ----- ---- -------<br>--- --- -- ----- -- --- ---- -- --- ---- -- ------ ------<br>--- ----- -- ----,510584.89999997616,510583.5,510093.237,510098.5,510109.971,510594.352,,35,matters
screen,html.Screen,2_1_0_1_36,2022-02-02T13:38:48.911Z,,,,,,,,,,,,,,,,,53,,,,,,,,,,,,,,493.6479999999865,,response,,,,99,,,,,,,Space,keypress(Space),,,,,,,,"---- -- ----- -- ------ - ------- --- ----------<br>------------- ------ ------ ---- ---- ------- ----- -- ----<br>-------- ------- -- ---------- --- - --- ----- ----- ----<br>---- --- --- ----- --- ---- ---- ------- most, ---- -------<br>--- --- -- ----- -- --- ---- -- --- ---- -- ------ ------<br>--- ----- -- ----",511089.2999999523,511088,510577.615,510585.60000002384,510594.352,511096.177,,36,"most,"
screen,html.Screen,2_1_0_1_37,2022-02-02T13:38:49.379Z,,,,,,,,,,,,,,,,,53,,,,,,,,,,,,,,459.82299999997485,,response,,,,99,,,,,,,Space,keypress(Space),,,,,,,,---- -- ----- -- ------ - ------- --- ----------<br>------------- ------ ------ ---- ---- ------- ----- -- ----<br>-------- ------- -- ---------- --- - --- ----- ----- ----<br>---- --- --- ----- --- ---- ---- ------- ----- it's -------<br>--- --- -- ----- -- --- ---- -- --- ---- -- ------ ------<br>--- ----- -- ----,511557.39999997616,511556,511079.445,511089.89999997616,511096.177,511564.645,,37,it's
screen,html.Screen,2_1_0_1_38,2022-02-02T13:38:49.827Z,,,,,,,,,,,,,,,,,53,,,,,,,,,,,,,,438.95500002382323,,response,,,,99,,,,,,,Space,keypress(Space),,,,,,,,---- -- ----- -- ------ - ------- --- ----------<br>------------- ------ ------ ---- ---- ------- ----- -- ----<br>-------- ------- -- ---------- --- - --- ----- ----- ----<br>---- --- --- ----- --- ---- ---- ------- ----- ---- whether<br>--- --- -- ----- -- --- ---- -- --- ---- -- ------ ------<br>--- ----- -- ----,512005,512003.60000002384,511547.914,511557.7000000477,511564.645,512016.511,,38,whether
screen,html.Screen,2_1_0_1_39,2022-02-02T13:38:50.229Z,,,,,,,,,,,,,,,,,53,,,,,,,,,,,,,,389.08900002384325,,response,,,,99,,,,,,,Space,keypress(Space),,,,,,,,---- -- ----- -- ------ - ------- --- ----------<br>------------- ------ ------ ---- ---- ------- ----- -- ----<br>-------- ------- -- ---------- --- - --- ----- ----- ----<br>---- --- --- ----- --- ---- ---- ------- ----- ---- -------<br>you --- -- ----- -- --- ---- -- --- ---- -- ------ ------<br>--- ----- -- ----,512406.7999999523,512405.60000002384,511999.778,512005.39999997616,512016.511,512418.036,,39,you
screen,html.Screen,2_1_0_1_40,2022-02-02T13:38:50.686Z,,,,,,,,,,,,,,,,,53,,,,,,,,,,,,,,444.56400002382,,response,,,,99,,,,,,,Space,keypress(Space),,,,,,,,---- -- ----- -- ------ - ------- --- ----------<br>------------- ------ ------ ---- ---- ------- ----- -- ----<br>-------- ------- -- ---------- --- - --- ----- ----- ----<br>---- --- --- ----- --- ---- ---- ------- ----- ---- -------<br>--- are -- ----- -- --- ---- -- --- ---- -- ------ ------<br>--- ----- -- ----,512863.89999997616,512862.60000002384,512401.303,512407.10000002384,512418.036,512869.832,,40,are
screen,html.Screen,2_1_0_1_41,2022-02-02T13:38:51.152Z,,,,,,,,,,,,,,,,,53,,,,,,,,,,,,,,458.268000023847,,response,,,,99,,,,,,,Space,keypress(Space),,,,,,,,---- -- ----- -- ------ - ------- --- ----------<br>------------- ------ ------ ---- ---- ------- ----- -- ----<br>-------- ------- -- ---------- --- - --- ----- ----- ----<br>---- --- --- ----- --- ---- ---- ------- ----- ---- -------<br>--- --- as ----- -- --- ---- -- --- ---- -- ------ ------<br>--- ----- -- ----,513329.60000002384,513328.10000002384,512853.099,512864.2999999523,512869.832,513338.199,,41,as
screen,html.Screen,2_1_0_1_42,2022-02-02T13:38:51.640Z,,,,,,,,,,,,,,,,,53,,,,,,,,,,,,,,478.00100004766136,,response,,,,99,,,,,,,Space,keypress(Space),,,,,,,,---- -- ----- -- ------ - ------- --- ----------<br>------------- ------ ------ ---- ---- ------- ----- -- ----<br>-------- ------- -- ---------- --- - --- ----- ----- ----<br>---- --- --- ----- --- ---- ---- ------- ----- ---- -------<br>--- --- -- close -- --- ---- -- --- ---- -- ------ ------<br>--- ----- -- ----,513817.7000000477,513816.2000000477,513321.471,513329.89999997616,513338.199,513823.586,,42,close
screen,html.Screen,2_1_0_1_43,2022-02-02T13:38:52.187Z,,,,,,,,,,,,,,,,,53,,,,,,,,,,,,,,539.9139999999898,,response,,,,99,,,,,,,Space,keypress(Space),,,,,,,,---- -- ----- -- ------ - ------- --- ----------<br>------------- ------ ------ ---- ---- ------- ----- -- ----<br>-------- ------- -- ---------- --- - --- ----- ----- ----<br>---- --- --- ----- --- ---- ---- ------- ----- ---- -------<br>--- --- -- ----- as --- ---- -- --- ---- -- ------ ------<br>--- ----- -- ----,514365.10000002384,514363.5,513806.854,513818,513823.586,514375.794,,43,as
screen,html.Screen,2_1_0_1_44,2022-02-02T13:38:52.682Z,,,,,,,,,,,,,,,,,53,,,,,,,,,,,,,,482.9060000476893,,response,,,,99,,,,,,,Space,keypress(Space),,,,,,,,---- -- ----- -- ------ - ------- --- ----------<br>------------- ------ ------ ---- ---- ------- ----- -- ----<br>-------- ------- -- ---------- --- - --- ----- ----- ----<br>---- --- --- ----- --- ---- ---- ------- ----- ---- -------<br>--- --- -- ----- -- you ---- -- --- ---- -- ------ ------<br>--- ----- -- ----,514860.2999999523,514858.7000000477,514359.06,514365.60000002384,514375.794,514878.122,,44,you
screen,html.Screen,2_1_0_1_45,2022-02-02T13:38:53.192Z,,,,,,,,,,,,,,,,,53,,,,,,,,,,,,,,490.0780000477098,,response,,,,99,,,,,,,Space,keypress(Space),,,,,,,,---- -- ----- -- ------ - ------- --- ----------<br>------------- ------ ------ ---- ---- ------- ----- -- ----<br>-------- ------- -- ---------- --- - --- ----- ----- ----<br>---- --- --- ----- --- ---- ---- ------- ----- ---- -------<br>--- --- -- ----- -- --- want -- --- ---- -- ------ ------<br>--- ----- -- ----,515370,515368.2000000477,514861.384,514860.7999999523,514878.122,515379.932,,45,want
screen,html.Screen,2_1_0_1_46,2022-02-02T13:38:53.732Z,,,,,,,,,,,,,,,,,53,,,,,,,,,,,,,,528.2680000477121,,response,,,,99,,,,,,,Space,keypress(Space),,,,,,,,---- -- ----- -- ------ - ------- --- ----------<br>------------- ------ ------ ---- ---- ------- ----- -- ----<br>-------- ------- -- ---------- --- - --- ----- ----- ----<br>---- --- --- ----- --- ---- ---- ------- ----- ---- -------<br>--- --- -- ----- -- --- ---- to --- ---- -- ------ ------<br>--- ----- -- ----,515909.89999997616,515908.2000000477,515363.194,515370.5,515379.932,515915.239,,46,to
screen,html.Screen,2_1_0_1_47,2022-02-02T13:38:55.165Z,,,,,,,,,,,,,,,,,53,,,,,,,,,,,,,,1425.9610000476823,,response,,,,99,,,,,,,Space,keypress(Space),,,,,,,,"---- -- ----- -- ------ - ------- --- ----------<br>------------- ------ ------ ---- ---- ------- ----- -- ----<br>-------- ------- -- ---------- --- - --- ----- ----- ----<br>---- --- --- ----- --- ---- ---- ------- ----- ---- -------<br>--- --- -- ----- -- --- ---- -- be, ---- -- ------ ------<br>--- ----- -- ----",517342.7000000477,517341.2000000477,515898.505,515910.2999999523,515915.239,517354.255,,47,"be,"
screen,html.Screen,2_1_0_1_48,2022-02-02T13:38:55.691Z,,,,,,,,,,,,,,,,,53,,,,,,,,,,,,,,513.1449999761535,,response,,,,99,,,,,,,Space,keypress(Space),,,,,,,,---- -- ----- -- ------ - ------- --- ----------<br>------------- ------ ------ ---- ---- ------- ----- -- ----<br>-------- ------- -- ---------- --- - --- ----- ----- ----<br>---- --- --- ----- --- ---- ---- ------- ----- ---- -------<br>--- --- -- ----- -- --- ---- -- --- even -- ------ ------<br>--- ----- -- ----,517868.89999997616,517867.39999997616,517337.522,517343.2000000477,517354.255,517872.845,,48,even
screen,html.Screen,2_1_0_1_49,2022-02-02T13:38:56.124Z,,,,,,,,,,,,,,,,,53,,,,,,,,,,,,,,427.4549999523442,,response,,,,99,,,,,,,Space,keypress(Space),,,,,,,,---- -- ----- -- ------ - ------- --- ----------<br>------------- ------ ------ ---- ---- ------- ----- -- ----<br>-------- ------- -- ---------- --- - --- ----- ----- ----<br>---- --- --- ----- --- ---- ---- ------- ----- ---- -------<br>--- --- -- ----- -- --- ---- -- --- ---- if ------ ------<br>--- ----- -- ----,518302,518300.2999999523,517856.113,517869.2999999523,517872.845,518308.099,,49,if
screen,html.Screen,2_1_0_1_50,2022-02-02T13:38:56.586Z,,,,,,,,,,,,,,,,,53,,,,,,,,,,,,,,454.6010000476963,,response,,,,99,,,,,,,Space,keypress(Space),,,,,,,,---- -- ----- -- ------ - ------- --- ----------<br>------------- ------ ------ ---- ---- ------- ----- -- ----<br>-------- ------- -- ---------- --- - --- ----- ----- ----<br>---- --- --- ----- --- ---- ---- ------- ----- ---- -------<br>--- --- -- ----- -- --- ---- -- --- ---- -- that's ------<br>--- ----- -- ----,518764.2000000477,518762.7000000477,518291.362,518302.39999997616,518308.099,518776.608,,50,that's
screen,html.Screen,2_1_0_1_51,2022-02-02T13:38:57.093Z,,,,,,,,,,,,,,,,,53,,,,,,,,,,,,,,493.19199995230883,,response,,,,99,,,,,,,Space,keypress(Space),,,,,,,,---- -- ----- -- ------ - ------- --- ----------<br>------------- ------ ------ ---- ---- ------- ----- -- ----<br>-------- ------- -- ---------- --- - --- ----- ----- ----<br>---- --- --- ----- --- ---- ---- ------- ----- ---- -------<br>--- --- -- ----- -- --- ---- -- --- ---- -- ------ really<br>--- ----- -- ----,519271.39999997616,519269.7999999523,518759.871,518764.39999997616,518776.608,519278.494,,51,really
screen,html.Screen,2_1_0_1_52,2022-02-02T13:38:57.584Z,,,,,,,,,,,,,,,,,53,,,,,,,,,,,,,,481.6060000238358,,response,,,,99,,,,,,,Space,keypress(Space),,,,,,,,---- -- ----- -- ------ - ------- --- ----------<br>------------- ------ ------ ---- ---- ------- ----- -- ----<br>-------- ------- -- ---------- --- - --- ----- ----- ----<br>---- --- --- ----- --- ---- ---- ------- ----- ---- -------<br>--- --- -- ----- -- --- ---- -- --- ---- -- ------ ------<br>not ----- -- ----,519761.60000002384,519760.10000002384,519261.761,519271.7000000477,519278.494,519763.598,,52,not
screen,html.Screen,2_1_0_1_53,2022-02-02T13:38:58.097Z,,,,,,,,,,,,,,,,,53,,,,,,,,,,,,,,510.5020000238437,,response,,,,99,,,,,,,Space,keypress(Space),,,,,,,,---- -- ----- -- ------ - ------- --- ----------<br>------------- ------ ------ ---- ---- ------- ----- -- ----<br>-------- ------- -- ---------- --- - --- ----- ----- ----<br>---- --- --- ----- --- ---- ---- ------- ----- ---- -------<br>--- --- -- ----- -- --- ---- -- --- ---- -- ------ ------<br>--- close -- ----,520275,520274.10000002384,519746.868,519762,519763.598,520282.422,,53,close
screen,html.Screen,2_1_0_1_54,2022-02-02T13:38:58.642Z,,,,,,,,,,,,,,,,,53,,,,,,,,,,,,,,535.5779999999795,,response,,,,99,,,,,,,Space,keypress(Space),,,,,,,,---- -- ----- -- ------ - ------- --- ----------<br>------------- ------ ------ ---- ---- ------- ----- -- ----<br>-------- ------- -- ---------- --- - --- ----- ----- ----<br>---- --- --- ----- --- ---- ---- ------- ----- ---- -------<br>--- --- -- ----- -- --- ---- -- --- ---- -- ------ ------<br>--- ----- at ----,520819.60000002384,520818,520265.688,520275.2000000477,520282.422,520834.684,,54,at
screen,html.Screen,2_1_0_1_55,2022-02-02T13:38:59.542Z,,,,,,,,,,,,,,,,,53,,,,,,,,,,,,,,883.7159999761498,,response,,,,99,,,,,,,Space,keypress(Space),,,,,,,,---- -- ----- -- ------ - ------- --- ----------<br>------------- ------ ------ ---- ---- ------- ----- -- ----<br>-------- ------- -- ---------- --- - --- ----- ----- ----<br>---- --- --- ----- --- ---- ---- ------- ----- ---- -------<br>--- --- -- ----- -- --- ---- -- --- ---- -- ------ ------<br>--- ----- -- all.,521720.10000002384,521718.39999997616,520817.947,520820.10000002384,520834.684,521738.392,,55,all.
Item 99,flow.Loop,2_1_0_1,2022-02-02T13:38:59.543Z,,,,,,,,,,,,,,,,,,,,,,,,,,,,,,,45962.83299997618,,completion,,,,,B,,,,,,,,,,,silence,,,,,521720.7999999523,521718.39999997616,475705.398,475707,475755.567,521738.392,,,
Question 1,html.Screen,2_1_0_2,2022-02-02T13:39:05.525Z,,,,,,,,,,,,,,,,,,,,,,,,,,,,true,FALSE,,5963.208000023849,,response,,,,99,B,,,,,,FALSE,click #choice-2,,,,silence,,,,,527702.7000000477,527701.6000000238,521721.655,521721.2000000477,521738.392,527711.085,,,
Question 2,html.Screen,2_1_0_3,2022-02-02T13:39:11.329Z,,,,,,,,,,,,,,,,,,,,,,,,,,,,true,TRUE,,5794.7149999523535,,response,,,,99,B,,,,,,TRUE,click #choice-1,,,,silence,,,,,533506.7000000477,533505.7999999523,527694.364,527702.7999999523,527711.085,533517.522,,,
Item 99,flow.Sequence,2_1_0,2022-02-02T13:39:11.329Z,,,,,,,,,,,,,,,,,,,,,,,,,,,,,,,67790.36299995234,,completion,,,,,,,,,,,,,,,,,,,,,533507,533505.7999999523,465698.713,465714.89999997616,465715.437,533517.522,,,
Holding screen,html.Screen,2_1_1_0,2022-02-02T13:39:21.330Z,,,,,,,,,,,,,,,,,,,,,,,,,,,,,,,10005.398000000045,,timeout,,,,,,,,,,,,,,,,,,,,,543507.8999999762,543506.197,533500.795,533507.2000000477,533517.522,543522.92,,,
screen,html.Screen,2_1_1_1_0,2022-02-02T13:39:22.347Z,,,,,,,,,,,,,,,,,54,,,,,,,,,,,,,,1000.7800000476418,,response,,,,100,,,,,,,Space,keypress(Space),,,,,,,,At --- ---- --- ------ ----- ------- ---- -- --- ------- --<br>------- ---------- ------ -- ----- -- ----- -- ---- ------<br>--- ----- --- --- ------ -------- ----- --- ------ ----- --<br>----- ----- ---------- --- --- ------ ------ ---- -- ------<br>------- --- ------ ----- --- ---- ------- -- ---- --- --<br>------- ------,544525,544523.7000000477,543506.197,543508.3999999762,543522.92,544526.872,,0,At
screen,html.Screen,2_1_1_1_1,2022-02-02T13:39:22.840Z,,,,,,,,,,,,,,,,,54,,,,,,,,,,,,,,490.0279999761842,,response,,,,100,,,,,,,Space,keypress(Space),,,,,,,,-- the ---- --- ------ ----- ------- ---- -- --- ------- --<br>------- ---------- ------ -- ----- -- ----- -- ---- ------<br>--- ----- --- --- ------ -------- ----- --- ------ ----- --<br>----- ----- ---------- --- --- ------ ------ ---- -- ------<br>------- --- ------ ----- --- ---- ------- -- ---- --- --<br>------- ------,545018.1000000238,545016.8999999762,544510.149,544525.3999999762,544526.872,545029.555,,1,the
screen,html.Screen,2_1_1_1_2,2022-02-02T13:39:23.305Z,,,,,,,,,,,,,,,,,54,,,,,,,,,,,,,,452.3449999761069,,response,,,,100,,,,,,,Space,keypress(Space),,,,,,,,-- --- time --- ------ ----- ------- ---- -- --- ------- --<br>------- ---------- ------ -- ----- -- ----- -- ---- ------<br>--- ----- --- --- ------ -------- ----- --- ------ ----- --<br>----- ----- ---------- --- --- ------ ------ ---- -- ------<br>------- --- ------ ----- --- ---- ------- -- ---- --- --<br>------- ------,545483.1000000238,545481.8999999762,545012.828,545018.5,545029.555,545498.476,,2,time
screen,html.Screen,2_1_1_1_3,2022-02-02T13:39:23.698Z,,,,,,,,,,,,,,,,,54,,,,,,,,,,,,,,375.9239999761339,,response,,,,100,,,,,,,Space,keypress(Space),,,,,,,,-- --- ---- the ------ ----- ------- ---- -- --- ------- --<br>------- ---------- ------ -- ----- -- ----- -- ---- ------<br>--- ----- --- --- ------ -------- ----- --- ------ ----- --<br>----- ----- ---------- --- --- ------ ------ ---- -- ------<br>------- --- ------ ----- --- ---- ------- -- ---- --- --<br>------- ------,545875.7000000477,545874.3999999762,545481.747,545483.3999999762,545498.476,545883.284,,3,the
screen,html.Screen,2_1_1_1_4,2022-02-02T13:39:24.108Z,,,,,,,,,,,,,,,,,54,,,,,,,,,,,,,,401.7160000000149,,response,,,,100,,,,,,,Space,keypress(Space),,,,,,,,-- --- ---- --- French ----- ------- ---- -- --- ------- --<br>------- ---------- ------ -- ----- -- ----- -- ---- ------<br>--- ----- --- --- ------ -------- ----- --- ------ ----- --<br>----- ----- ---------- --- --- ------ ------ ---- -- ------<br>------- --- ------ ----- --- ---- ------- -- ---- --- --<br>------- ------,546285.8999999762,546285,545866.555,545875.8999999762,545883.284,546301.749,,4,French
screen,html.Screen,2_1_1_1_5,2022-02-02T13:39:24.475Z,,,,,,,,,,,,,,,,,54,,,,,,,,,,,,,,350.4510000477312,,response,,,,100,,,,,,,Space,keypress(Space),,,,,,,,-- --- ---- --- ------ crown ------- ---- -- --- ------- --<br>------- ---------- ------ -- ----- -- ----- -- ---- ------<br>--- ----- --- --- ------ -------- ----- --- ------ ----- --<br>----- ----- ---------- --- --- ------ ------ ---- -- ------<br>------- --- ------ ----- --- ---- ------- -- ---- --- --<br>------- ------,546653.6000000238,546652.2000000477,546285.016,546286.1000000238,546301.749,546669.781,,5,crown
screen,html.Screen,2_1_1_1_6,2022-02-02T13:39:24.981Z,,,,,,,,,,,,,,,,,54,,,,,,,,,,,,,,487.81900002388284,,response,,,,100,,,,,,,Space,keypress(Space),,,,,,,,-- --- ---- --- ------ ----- secured ---- -- --- ------- --<br>------- ---------- ------ -- ----- -- ----- -- ---- ------<br>--- ----- --- --- ------ -------- ----- --- ------ ----- --<br>----- ----- ---------- --- --- ------ ------ ---- -- ------<br>------- --- ------ ----- --- ---- ------- -- ---- --- --<br>------- ------,547159,547157.6000000238,546653.049,546653.8999999762,546669.781,547171.763,,6,secured
screen,html.Screen,2_1_1_1_7,2022-02-02T13:39:25.384Z,,,,,,,,,,,,,,,,,54,,,,,,,,,,,,,,388.5369999522809,,response,,,,100,,,,,,,Space,keypress(Space),,,,,,,,-- --- ---- --- ------ ----- ------- much -- --- ------- --<br>------- ---------- ------ -- ----- -- ----- -- ---- ------<br>--- ----- --- --- ------ -------- ----- --- ------ ----- --<br>----- ----- ---------- --- --- ------ ------ ---- -- ------<br>------- --- ------ ----- --- ---- ------- -- ---- --- --<br>------- ------,547561.7999999523,547560.2999999523,547155.032,547159.2999999523,547171.763,547573.369,,7,much
screen,html.Screen,2_1_1_1_8,2022-02-02T13:39:25.773Z,,,,,,,,,,,,,,,,,54,,,,,,,,,,,,,,376.43099995236844,,response,,,,100,,,,,,,Space,keypress(Space),,,,,,,,-- --- ---- --- ------ ----- ------- ---- of --- ------- --<br>------- ---------- ------ -- ----- -- ----- -- ---- ------<br>--- ----- --- --- ------ -------- ----- --- ------ ----- --<br>----- ----- ---------- --- --- ------ ------ ---- -- ------<br>------- --- ------ ----- --- ---- ------- -- ---- --- --<br>------- ------,547951.2999999523,547949.7999999523,547556.639,547562.2000000477,547573.369,547958.16,,8,of
screen,html.Screen,2_1_1_1_9,2022-02-02T13:39:26.182Z,,,,,,,,,,,,,,,,,54,,,,,,,,,,,,,,400.23999997612555,,response,,,,100,,,,,,,Space,keypress(Space),,,,,,,,-- --- ---- --- ------ ----- ------- ---- -- its ------- --<br>------- ---------- ------ -- ----- -- ----- -- ---- ------<br>--- ----- --- --- ------ -------- ----- --- ------ ----- --<br>----- ----- ---------- --- --- ------ ------ ---- -- ------<br>------- --- ------ ----- --- ---- ------- -- ---- --- --<br>------- ------,548359.8999999762,548358.3999999762,547941.43,547951.6000000238,547958.16,548376.515,,9,its
screen,html.Screen,2_1_1_1_10,2022-02-02T13:39:26.638Z,,,,,,,,,,,,,,,,,54,,,,,,,,,,,,,,437.98499999998603,,response,,,,100,,,,,,,Space,keypress(Space),,,,,,,,-- --- ---- --- ------ ----- ------- ---- -- --- revenue --<br>------- ---------- ------ -- ----- -- ----- -- ---- ------<br>--- ----- --- --- ------ -------- ----- --- ------ ----- --<br>----- ----- ---------- --- --- ------ ------ ---- -- ------<br>------- --- ------ ----- --- ---- ------- -- ---- --- --<br>------- ------,548815.8999999762,548814.5,548359.786,548360.2999999523,548376.515,548828.239,,10,revenue
screen,html.Screen,2_1_1_1_11,2022-02-02T13:39:27.240Z,,,,,,,,,,,,,,,,,54,,,,,,,,,,,,,,587.8610000238987,,response,,,,100,,,,,,,Space,keypress(Space),,,,,,,,-- --- ---- --- ------ ----- ------- ---- -- --- ------- by<br>------- ---------- ------ -- ----- -- ----- -- ---- ------<br>--- ----- --- --- ------ -------- ----- --- ------ ----- --<br>----- ----- ---------- --- --- ------ ------ ---- -- ------<br>------- --- ------ ----- --- ---- ------- -- ---- --- --<br>------- ------,549417.6000000238,549416.1000000238,548811.51,548816.2000000477,548828.239,549430.707,,11,by
screen,html.Screen,2_1_1_1_12,2022-02-02T13:39:27.686Z,,,,,,,,,,,,,,,,,54,,,,,,,,,,,,,,431.2929999999469,,response,,,,100,,,,,,,Space,keypress(Space),,,,,,,,-- --- ---- --- ------ ----- ------- ---- -- --- ------- --<br>issuing ---------- ------ -- ----- -- ----- -- ---- ------<br>--- ----- --- --- ------ -------- ----- --- ------ ----- --<br>----- ----- ---------- --- --- ------ ------ ---- -- ------<br>------- --- ------ ----- --- ---- ------- -- ---- --- --<br>------- ------,549863.6000000238,549862,549413.976,549418.1000000238,549430.707,549865.683,,12,issuing
screen,html.Screen,2_1_1_1_13,2022-02-02T13:39:28.112Z,,,,,,,,,,,,,,,,,54,,,,,,,,,,,,,,422.51700004772283,,response,,,,100,,,,,,,Space,keypress(Space),,,,,,,,-- --- ---- --- ------ ----- ------- ---- -- --- ------- --<br>------- government ------ -- ----- -- ----- -- ---- ------<br>--- ----- --- --- ------ -------- ----- --- ------ ----- --<br>----- ----- ---------- --- --- ------ ------ ---- -- ------<br>------- --- ------ ----- --- ---- ------- -- ---- --- --<br>------- ------,550290,550288.2000000477,549848.953,549864,549865.683,550300.729,,13,government
screen,html.Screen,2_1_1_1_14,2022-02-02T13:39:28.567Z,,,,,,,,,,,,,,,,,54,,,,,,,,,,,,,,442.9710000476334,,response,,,,100,,,,,,,Space,keypress(Space),,,,,,,,-- --- ---- --- ------ ----- ------- ---- -- --- ------- --<br>------- ---------- bonds. -- ----- -- ----- -- ---- ------<br>--- ----- --- --- ------ -------- ----- --- ------ ----- --<br>----- ----- ---------- --- --- ------ ------ ---- -- ------<br>------- --- ------ ----- --- ---- ------- -- ---- --- --<br>------- ------,550745.2000000477,550743.7000000477,550283.999,550290.2999999523,550300.729,550752.446,,14,bonds.
screen,html.Screen,2_1_1_1_15,2022-02-02T13:39:29.912Z,,,,,,,,,,,,,,,,,54,,,,,,,,,,,,,,1335.6540000238456,,response,,,,100,,,,,,,Space,keypress(Space),,,,,,,,-- --- ---- --- ------ ----- ------- ---- -- --- ------- --<br>------- ---------- ------ In ----- -- ----- -- ---- ------<br>--- ----- --- --- ------ -------- ----- --- ------ ----- --<br>----- ----- ---------- --- --- ------ ------ ---- -- ------<br>------- --- ------ ----- --- ---- ------- -- ---- --- --<br>------- ------,552089.7999999523,552088.1000000238,550735.716,550745.6000000238,550752.446,552107.905,,15,In
screen,html.Screen,2_1_1_1_16,2022-02-02T13:39:30.720Z,,,,,,,,,,,,,,,,,54,,,,,,,,,,,,,,788.8949999522883,,response,,,,100,,,,,,,Space,keypress(Space),,,,,,,,"-- --- ---- --- ------ ----- ------- ---- -- --- ------- --<br>------- ---------- ------ -- 1727, -- ----- -- ---- ------<br>--- ----- --- --- ------ -------- ----- --- ------ ----- --<br>----- ----- ---------- --- --- ------ ------ ---- -- ------<br>------- --- ------ ----- --- ---- ------- -- ---- --- --<br>------- ------",552898.3999999762,552896.7999999523,552091.173,552090.2999999523,552107.905,552911.034,,16,"1727,"
screen,html.Screen,2_1_1_1_17,2022-02-02T13:39:31.372Z,,,,,,,,,,,,,,,,,54,,,,,,,,,,,,,,637.4660000000149,,response,,,,100,,,,,,,Space,keypress(Space),,,,,,,,-- --- ---- --- ------ ----- ------- ---- -- --- ------- --<br>------- ---------- ------ -- ----- in ----- -- ---- ------<br>--- ----- --- --- ------ -------- ----- --- ------ ----- --<br>----- ----- ---------- --- --- ------ ------ ---- -- ------<br>------- --- ------ ----- --- ---- ------- -- ---- --- --<br>------- ------,553550.2000000477,553548.5,552894.304,552898.7999999523,552911.034,553563.533,,17,in
screen,html.Screen,2_1_1_1_18,2022-02-02T13:39:31.928Z,,,,,,,,,,,,,,,,,54,,,,,,,,,,,,,,540.7669999522623,,response,,,,100,,,,,,,Space,keypress(Space),,,,,,,,-- --- ---- --- ------ ----- ------- ---- -- --- ------- --<br>------- ---------- ------ -- ----- -- order -- ---- ------<br>--- ----- --- --- ------ -------- ----- --- ------ ----- --<br>----- ----- ---------- --- --- ------ ------ ---- -- ------<br>------- --- ------ ----- --- ---- ------- -- ---- --- --<br>------- ------,554106,554104.2999999523,553546.804,553550.6000000238,553563.533,554115.85,,18,order
screen,html.Screen,2_1_1_1_19,2022-02-02T13:39:32.260Z,,,,,,,,,,,,,,,,,54,,,,,,,,,,,,,,320.5499999761814,,response,,,,100,,,,,,,Space,keypress(Space),,,,,,,,-- --- ---- --- ------ ----- ------- ---- -- --- ------- --<br>------- ---------- ------ -- ----- -- ----- to ---- ------<br>--- ----- --- --- ------ -------- ----- --- ------ ----- --<br>----- ----- ---------- --- --- ------ ------ ---- -- ------<br>------- --- ------ ----- --- ---- ------- -- ---- --- --<br>------- ------,554438.1000000238,554436.3999999762,554099.117,554106.5,554115.85,554450.658,,19,to
screen,html.Screen,2_1_1_1_20,2022-02-02T13:39:32.727Z,,,,,,,,,,,,,,,,,54,,,,,,,,,,,,,,452.64199995226227,,response,,,,100,,,,,,,Space,keypress(Space),,,,,,,,-- --- ---- --- ------ ----- ------- ---- -- --- ------- --<br>------- ---------- ------ -- ----- -- ----- -- save ------<br>--- ----- --- --- ------ -------- ----- --- ------ ----- --<br>----- ----- ---------- --- --- ------ ------ ---- -- ------<br>------- --- ------ ----- --- ---- ------- -- ---- --- --<br>------- ------,554904.8999999762,554903.2999999523,554433.923,554438.5,554450.658,554919.051,,20,save
screen,html.Screen,2_1_1_1_21,2022-02-02T13:39:33.044Z,,,,,,,,,,,,,,,,,54,,,,,,,,,,,,,,301.74899995233864,,response,,,,100,,,,,,,Space,keypress(Space),,,,,,,,"-- --- ---- --- ------ ----- ------- ---- -- --- ------- --<br>------- ---------- ------ -- ----- -- ----- -- ---- money,<br>--- ----- --- --- ------ -------- ----- --- ------ ----- --<br>----- ----- ---------- --- --- ------ ------ ---- -- ------<br>------- --- ------ ----- --- ---- ------- -- ---- --- --<br>------- ------",555222.2999999523,555220.7999999523,554902.317,554905.3999999762,554919.051,555237.085,,21,"money,"
screen,html.Screen,2_1_1_1_22,2022-02-02T13:39:33.495Z,,,,,,,,,,,,,,,,,54,,,,,,,,,,,,,,434.41500000003725,,response,,,,100,,,,,,,Space,keypress(Space),,,,,,,,-- --- ---- --- ------ ----- ------- ---- -- --- ------- --<br>------- ---------- ------ -- ----- -- ----- -- ---- ------<br>the ----- --- --- ------ -------- ----- --- ------ ----- --<br>----- ----- ---------- --- --- ------ ------ ---- -- ------<br>------- --- ------ ----- --- ---- ------- -- ---- --- --<br>------- ------,555673.1000000238,555671.5,555220.347,555222.7999999523,555237.085,555688.895,,22,the
screen,html.Screen,2_1_1_1_23,2022-02-02T13:39:33.921Z,,,,,,,,,,,,,,,,,54,,,,,,,,,,,,,,408.5049999761395,,response,,,,100,,,,,,,Space,keypress(Space),,,,,,,,-- --- ---- --- ------ ----- ------- ---- -- --- ------- --<br>------- ---------- ------ -- ----- -- ----- -- ---- ------<br>--- state --- --- ------ -------- ----- --- ------ ----- --<br>----- ----- ---------- --- --- ------ ------ ---- -- ------<br>------- --- ------ ----- --- ---- ------- -- ---- --- --<br>------- ------,556099,556097.3999999762,555672.157,555673.6000000238,555688.895,556107.119,,23,state
screen,html.Screen,2_1_1_1_24,2022-02-02T13:39:34.277Z,,,,,,,,,,,,,,,,,54,,,,,,,,,,,,,,345.981000023894,,response,,,,100,,,,,,,Space,keypress(Space),,,,,,,,-- --- ---- --- ------ ----- ------- ---- -- --- ------- --<br>------- ---------- ------ -- ----- -- ----- -- ---- ------<br>--- ----- cut --- ------ -------- ----- --- ------ ----- --<br>----- ----- ---------- --- --- ------ ------ ---- -- ------<br>------- --- ------ ----- --- ---- ------- -- ---- --- --<br>------- ------,556454.7000000477,556453.1000000238,556090.384,556099.3999999762,556107.119,556458.461,,24,cut
screen,html.Screen,2_1_1_1_25,2022-02-02T13:39:34.588Z,,,,,,,,,,,,,,,,,54,,,,,,,,,,,,,,305.9389999761479,,response,,,,100,,,,,,,Space,keypress(Space),,,,,,,,-- --- ---- --- ------ ----- ------- ---- -- --- ------- --<br>------- ---------- ------ -- ----- -- ----- -- ---- ------<br>--- ----- --- the ------ -------- ----- --- ------ ----- --<br>----- ----- ---------- --- --- ------ ------ ---- -- ------<br>------- --- ------ ----- --- ---- ------- -- ---- --- --<br>------- ------,556765.7000000477,556764.3999999762,556441.728,556455.2000000477,556458.461,556776.339,,25,the
screen,html.Screen,2_1_1_1_26,2022-02-02T13:39:34.875Z,,,,,,,,,,,,,,,,,54,,,,,,,,,,,,,,274.5609999761218,,response,,,,100,,,,,,,Space,keypress(Space),,,,,,,,-- --- ---- --- ------ ----- ------- ---- -- --- ------- --<br>------- ---------- ------ -- ----- -- ----- -- ---- ------<br>--- ----- --- --- bonds' -------- ----- --- ------ ----- --<br>----- ----- ---------- --- --- ------ ------ ---- -- ------<br>------- --- ------ ----- --- ---- ------- -- ---- --- --<br>------- ------,557052.6000000238,557050.8999999762,556759.606,556765.8999999762,556776.339,557060.825,,26,bonds'
screen,html.Screen,2_1_1_1_27,2022-02-02T13:39:35.388Z,,,,,,,,,,,,,,,,,54,,,,,,,,,,,,,,503.47499995236285,,response,,,,100,,,,,,,Space,keypress(Space),,,,,,,,-- --- ---- --- ------ ----- ------- ---- -- --- ------- --<br>------- ---------- ------ -- ----- -- ----- -- ---- ------<br>--- ----- --- --- ------ interest ----- --- ------ ----- --<br>----- ----- ---------- --- --- ------ ------ ---- -- ------<br>------- --- ------ ----- --- ---- ------- -- ---- --- --<br>------- ------,557565.8999999762,557564.2999999523,557044.092,557053.1000000238,557060.825,557579.576,,27,interest
screen,html.Screen,2_1_1_1_28,2022-02-02T13:39:35.916Z,,,,,,,,,,,,,,,,,54,,,,,,,,,,,,,,512.2239999523154,,response,,,,100,,,,,,,Space,keypress(Space),,,,,,,,-- --- ---- --- ------ ----- ------- ---- -- --- ------- --<br>------- ---------- ------ -- ----- -- ----- -- ---- ------<br>--- ----- --- --- ------ -------- rate. --- ------ ----- --<br>----- ----- ---------- --- --- ------ ------ ---- -- ------<br>------- --- ------ ----- --- ---- ------- -- ---- --- --<br>------- ------,558093.5,558091.7999999523,557562.841,557566.3999999762,557579.576,558098.43,,28,rate.
screen,html.Screen,2_1_1_1_29,2022-02-02T13:39:37.261Z,,,,,,,,,,,,,,,,,54,,,,,,,,,,,,,,1339.0699999999488,,response,,,,100,,,,,,,Space,keypress(Space),,,,,,,,-- --- ---- --- ------ ----- ------- ---- -- --- ------- --<br>------- ---------- ------ -- ----- -- ----- -- ---- ------<br>--- ----- --- --- ------ -------- ----- The ------ ----- --<br>----- ----- ---------- --- --- ------ ------ ---- -- ------<br>------- --- ------ ----- --- ---- ------- -- ---- --- --<br>------- ------,559439.1000000238,559437.5,558081.691,558093.8999999762,558098.43,559454.314,,29,The
screen,html.Screen,2_1_1_1_30,2022-02-02T13:39:37.706Z,,,,,,,,,,,,,,,,,54,,,,,,,,,,,,,,427.68599999998696,,response,,,,100,,,,,,,Space,keypress(Space),,,,,,,,-- --- ---- --- ------ ----- ------- ---- -- --- ------- --<br>------- ---------- ------ -- ----- -- ----- -- ---- ------<br>--- ----- --- --- ------ -------- ----- --- market ----- --<br>----- ----- ---------- --- --- ------ ------ ---- -- ------<br>------- --- ------ ----- --- ---- ------- -- ---- --- --<br>------- ------,559883.6000000238,559882,559437.572,559439.6000000238,559454.314,559888.944,,30,market
screen,html.Screen,2_1_1_1_31,2022-02-02T13:39:37.981Z,,,,,,,,,,,,,,,,,54,,,,,,,,,,,,,,268.756000047666,,response,,,,100,,,,,,,Space,keypress(Space),,,,,,,,-- --- ---- --- ------ ----- ------- ---- -- --- ------- --<br>------- ---------- ------ -- ----- -- ----- -- ---- ------<br>--- ----- --- --- ------ -------- ----- --- ------ value --<br>----- ----- ---------- --- --- ------ ------ ---- -- ------<br>------- --- ------ ----- --- ---- ------- -- ---- --- --<br>------- ------,560159.2000000477,560157.7000000477,559872.199,559884.1000000238,559888.944,560173.331,,31,value
screen,html.Screen,2_1_1_1_32,2022-02-02T13:39:38.460Z,,,,,,,,,,,,,,,,,54,,,,,,,,,,,,,,462.6689999999944,,response,,,,100,,,,,,,Space,keypress(Space),,,,,,,,-- --- ---- --- ------ ----- ------- ---- -- --- ------- --<br>------- ---------- ------ -- ----- -- ----- -- ---- ------<br>--- ----- --- --- ------ -------- ----- --- ------ ----- of<br>----- ----- ---------- --- --- ------ ------ ---- -- ------<br>------- --- ------ ----- --- ---- ------- -- ---- --- --<br>------- ------,560637.6000000238,560636,560156.586,560159.7000000477,560173.331,560641.827,,32,of
screen,html.Screen,2_1_1_1_33,2022-02-02T13:39:38.775Z,,,,,,,,,,,,,,,,,54,,,,,,,,,,,,,,309.47299995226786,,response,,,,100,,,,,,,Space,keypress(Space),,,,,,,,-- --- ---- --- ------ ----- ------- ---- -- --- ------- --<br>------- ---------- ------ -- ----- -- ----- -- ---- ------<br>--- ----- --- --- ------ -------- ----- --- ------ ----- --<br>these ----- ---------- --- --- ------ ------ ---- -- ------<br>------- --- ------ ----- --- ---- ------- -- ---- --- --<br>------- ------,560953,560951.2999999523,560625.087,560638,560641.827,560959.664,,33,these
screen,html.Screen,2_1_1_1_34,2022-02-02T13:39:39.175Z,,,,,,,,,,,,,,,,,54,,,,,,,,,,,,,,391.9360000238521,,response,,,,100,,,,,,,Space,keypress(Space),,,,,,,,-- --- ---- --- ------ ----- ------- ---- -- --- ------- --<br>------- ---------- ------ -- ----- -- ----- -- ---- ------<br>--- ----- --- --- ------ -------- ----- --- ------ ----- --<br>----- bonds ---------- --- --- ------ ------ ---- -- ------<br>------- --- ------ ----- --- ---- ------- -- ---- --- --<br>------- ------,561353.1000000238,561351.6000000238,560942.925,560953.3999999762,560959.664,561361.293,,34,bonds
screen,html.Screen,2_1_1_1_35,2022-02-02T13:39:39.563Z,,,,,,,,,,,,,,,,,54,,,,,,,,,,,,,,377.80700002389494,,response,,,,100,,,,,,,Space,keypress(Space),,,,,,,,"-- --- ---- --- ------ ----- ------- ---- -- --- ------- --<br>------- ---------- ------ -- ----- -- ----- -- ---- ------<br>--- ----- --- --- ------ -------- ----- --- ------ ----- --<br>----- ----- plummeted, --- --- ------ ------ ---- -- ------<br>------- --- ------ ----- --- ---- ------- -- ---- --- --<br>------- ------",561740.6000000238,561739.1000000238,561344.554,561353.2999999523,561361.293,561746.061,,35,"plummeted,"
screen,html.Screen,2_1_1_1_36,2022-02-02T13:39:40.002Z,,,,,,,,,,,,,,,,,54,,,,,,,,,,,,,,432.63900004769675,,response,,,,100,,,,,,,Space,keypress(Space),,,,,,,,-- --- ---- --- ------ ----- ------- ---- -- --- ------- --<br>------- ---------- ------ -- ----- -- ----- -- ---- ------<br>--- ----- --- --- ------ -------- ----- --- ------ ----- --<br>----- ----- ---------- and --- ------ ------ ---- -- ------<br>------- --- ------ ----- --- ---- ------- -- ---- --- --<br>------- ------,562180.2000000477,562178.7000000477,561729.324,561741,561746.061,562197.924,,36,and
screen,html.Screen,2_1_1_1_37,2022-02-02T13:39:41.596Z,,,,,,,,,,,,,,,,,54,,,,,,,,,,,,,,1573.7760000476846,,response,,,,100,,,,,,,Space,keypress(Space),,,,,,,,-- --- ---- --- ------ ----- ------- ---- -- --- ------- --<br>------- ---------- ------ -- ----- -- ----- -- ---- ------<br>--- ----- --- --- ------ -------- ----- --- ------ ----- --<br>----- ----- ---------- --- the ------ ------ ---- -- ------<br>------- --- ------ ----- --- ---- ------- -- ---- --- --<br>------- ------,563773.3999999762,563771.7000000477,562181.186,562180.7000000477,562197.924,563787.562,,37,the
screen,html.Screen,2_1_1_1_38,2022-02-02T13:39:41.969Z,,,,,,,,,,,,,,,,,54,,,,,,,,,,,,,,357.3379999761237,,response,,,,100,,,,,,,Space,keypress(Space),,,,,,,,-- --- ---- --- ------ ----- ------- ---- -- --- ------- --<br>------- ---------- ------ -- ----- -- ----- -- ---- ------<br>--- ----- --- --- ------ -------- ----- --- ------ ----- --<br>----- ----- ---------- --- --- market ------ ---- -- ------<br>------- --- ------ ----- --- ---- ------- -- ---- --- --<br>------- ------,564146.5,564144.8999999762,563770.827,563773.7999999523,563787.562,564155.599,,38,market
screen,html.Screen,2_1_1_1_39,2022-02-02T13:39:42.443Z,,,,,,,,,,,,,,,,,54,,,,,,,,,,,,,,463.8009999761125,,response,,,,100,,,,,,,Space,keypress(Space),,,,,,,,-- --- ---- --- ------ ----- ------- ---- -- --- ------- --<br>------- ---------- ------ -- ----- -- ----- -- ---- ------<br>--- ----- --- --- ------ -------- ----- --- ------ ----- --<br>----- ----- ---------- --- --- ------ became ---- -- ------<br>------- --- ------ ----- --- ---- ------- -- ---- --- --<br>------- ------,564621.1000000238,564619.3999999762,564138.861,564146.8999999762,564155.599,564624.105,,39,became
screen,html.Screen,2_1_1_1_40,2022-02-02T13:39:42.870Z,,,,,,,,,,,,,,,,,54,,,,,,,,,,,,,,421.9950000238605,,response,,,,100,,,,,,,Space,keypress(Space),,,,,,,,-- --- ---- --- ------ ----- ------- ---- -- --- ------- --<br>------- ---------- ------ -- ----- -- ----- -- ---- ------<br>--- ----- --- --- ------ -------- ----- --- ------ ----- --<br>----- ----- ---------- --- --- ------ ------ wary -- ------<br>------- --- ------ ----- --- ---- ------- -- ---- --- --<br>------- ------,565047.6000000238,565046.1000000238,564607.367,564621.3999999762,564624.105,565059.308,,40,wary
screen,html.Screen,2_1_1_1_41,2022-02-02T13:39:43.245Z,,,,,,,,,,,,,,,,,54,,,,,,,,,,,,,,361.6920000000391,,response,,,,100,,,,,,,Space,keypress(Space),,,,,,,,-- --- ---- --- ------ ----- ------- ---- -- --- ------- --<br>------- ---------- ------ -- ----- -- ----- -- ---- ------<br>--- ----- --- --- ------ -------- ----- --- ------ ----- --<br>----- ----- ---------- --- --- ------ ------ ---- of ------<br>------- --- ------ ----- --- ---- ------- -- ---- --- --<br>------- ------,565422.5,565421,565042.566,565048,565059.308,565427.369,,41,of
screen,html.Screen,2_1_1_1_42,2022-02-02T13:39:43.596Z,,,,,,,,,,,,,,,,,54,,,,,,,,,,,,,,345.13100000005215,,response,,,,100,,,,,,,Space,keypress(Space),,,,,,,,-- --- ---- --- ------ ----- ------- ---- -- --- ------- --<br>------- ---------- ------ -- ----- -- ----- -- ---- ------<br>--- ----- --- --- ------ -------- ----- --- ------ ----- --<br>----- ----- ---------- --- --- ------ ------ ---- -- French<br>------- --- ------ ----- --- ---- ------- -- ---- --- --<br>------- ------,565774,565772.5,565410.628,565423,565427.369,565778.739,,42,French
screen,html.Screen,2_1_1_1_43,2022-02-02T13:39:44.111Z,,,,,,,,,,,,,,,,,54,,,,,,,,,,,,,,508.7610000000568,,response,,,,100,,,,,,,Space,keypress(Space),,,,,,,,-- --- ---- --- ------ ----- ------- ---- -- --- ------- --<br>------- ---------- ------ -- ----- -- ----- -- ---- ------<br>--- ----- --- --- ------ -------- ----- --- ------ ----- --<br>----- ----- ---------- --- --- ------ ------ ---- -- ------<br>credit. --- ------ ----- --- ---- ------- -- ---- --- --<br>------- ------,566289.2000000477,566287.5,565761.999,565774.3999999762,565778.739,566297.442,,43,credit.
screen,html.Screen,2_1_1_1_44,2022-02-02T13:39:44.861Z,,,,,,,,,,,,,,,,,54,,,,,,,,,,,,,,739.957999976119,,response,,,,100,,,,,,,Space,keypress(Space),,,,,,,,-- --- ---- --- ------ ----- ------- ---- -- --- ------- --<br>------- ---------- ------ -- ----- -- ----- -- ---- ------<br>--- ----- --- --- ------ -------- ----- --- ------ ----- --<br>----- ----- ---------- --- --- ------ ------ ---- -- ------<br>------- The ------ ----- --- ---- ------- -- ---- --- --<br>------- ------,567039.1000000238,567037.3999999762,566280.704,566289.7000000477,566297.442,567050.452,,44,The
screen,html.Screen,2_1_1_1_45,2022-02-02T13:39:45.341Z,,,,,,,,,,,,,,,,,54,,,,,,,,,,,,,,466.9479999761097,,response,,,,100,,,,,,,Space,keypress(Space),,,,,,,,-- --- ---- --- ------ ----- ------- ---- -- --- ------- --<br>------- ---------- ------ -- ----- -- ----- -- ---- ------<br>--- ----- --- --- ------ -------- ----- --- ------ ----- --<br>----- ----- ---------- --- --- ------ ------ ---- -- ------<br>------- --- French ----- --- ---- ------- -- ---- --- --<br>------- ------,567519.2000000477,567517.3999999762,567033.715,567039.6000000238,567050.452,567535.501,,45,French
screen,html.Screen,2_1_1_1_46,2022-02-02T13:39:45.695Z,,,,,,,,,,,,,,,,,54,,,,,,,,,,,,,,336.09900002379436,,response,,,,100,,,,,,,Space,keypress(Space),,,,,,,,-- --- ---- --- ------ ----- ------- ---- -- --- ------- --<br>------- ---------- ------ -- ----- -- ----- -- ---- ------<br>--- ----- --- --- ------ -------- ----- --- ------ ----- --<br>----- ----- ---------- --- --- ------ ------ ---- -- ------<br>------- --- ------ state --- ---- ------- -- ---- --- --<br>------- ------,567873.2000000477,567871.6000000238,567518.766,567519.7000000477,567535.501,567886.891,,46,state
screen,html.Screen,2_1_1_1_47,2022-02-02T13:39:46.085Z,,,,,,,,,,,,,,,,,54,,,,,,,,,,,,,,374.5089999762131,,response,,,,100,,,,,,,Space,keypress(Space),,,,,,,,-- --- ---- --- ------ ----- ------- ---- -- --- ------- --<br>------- ---------- ------ -- ----- -- ----- -- ---- ------<br>--- ----- --- --- ------ -------- ----- --- ------ ----- --<br>----- ----- ---------- --- --- ------ ------ ---- -- ------<br>------- --- ------ ----- was ---- ------- -- ---- --- --<br>------- ------,568263.1000000238,568261.3999999762,567870.157,567873.5,567886.891,568271.734,,47,was
screen,html.Screen,2_1_1_1_48,2022-02-02T13:39:46.422Z,,,,,,,,,,,,,,,,,54,,,,,,,,,,,,,,327.06599995226134,,response,,,,100,,,,,,,Space,keypress(Space),,,,,,,,-- --- ---- --- ------ ----- ------- ---- -- --- ------- --<br>------- ---------- ------ -- ----- -- ----- -- ---- ------<br>--- ----- --- --- ------ -------- ----- --- ------ ----- --<br>----- ----- ---------- --- --- ------ ------ ---- -- ------<br>------- --- ------ ----- --- left ------- -- ---- --- --<br>------- ------,568600.2999999523,568598.7999999523,568254.999,568263.7000000477,568271.734,568606.463,,48,left
screen,html.Screen,2_1_1_1_49,2022-02-02T13:39:46.747Z,,,,,,,,,,,,,,,,,54,,,,,,,,,,,,,,316.33699995232746,,response,,,,100,,,,,,,Space,keypress(Space),,,,,,,,-- --- ---- --- ------ ----- ------- ---- -- --- ------- --<br>------- ---------- ------ -- ----- -- ----- -- ---- ------<br>--- ----- --- --- ------ -------- ----- --- ------ ----- --<br>----- ----- ---------- --- --- ------ ------ ---- -- ------<br>------- --- ------ ----- --- ---- without -- ---- --- --<br>------- ------,568924.5,568922.7999999523,568589.726,568600.6000000238,568606.463,568941.118,,49,without
screen,html.Screen,2_1_1_1_50,2022-02-02T13:39:47.109Z,,,,,,,,,,,,,,,,,54,,,,,,,,,,,,,,344.4820000238251,,response,,,,100,,,,,,,Space,keypress(Space),,,,,,,,-- --- ---- --- ------ ----- ------- ---- -- --- ------- --<br>------- ---------- ------ -- ----- -- ----- -- ---- ------<br>--- ----- --- --- ------ -------- ----- --- ------ ----- --<br>----- ----- ---------- --- --- ------ ------ ---- -- ------<br>------- --- ------ ----- --- ---- ------- an ---- --- --<br>------- ------,569287.2999999523,569285.6000000238,568924.382,568925,568941.118,569292.48,,50,an
screen,html.Screen,2_1_1_1_51,2022-02-02T13:39:47.480Z,,,,,,,,,,,,,,,,,54,,,,,,,,,,,,,,364.3199999523349,,response,,,,100,,,,,,,Space,keypress(Space),,,,,,,,-- --- ---- --- ------ ----- ------- ---- -- --- ------- --<br>------- ---------- ------ -- ----- -- ----- -- ---- ------<br>--- ----- --- --- ------ -------- ----- --- ------ ----- --<br>----- ----- ---------- --- --- ------ ------ ---- -- ------<br>------- --- ------ ----- --- ---- ------- -- easy --- --<br>------- ------,569658.2000000477,569656.7999999523,569275.745,569287.7000000477,569292.48,569660.549,,51,easy
screen,html.Screen,2_1_1_1_52,2022-02-02T13:39:47.807Z,,,,,,,,,,,,,,,,,54,,,,,,,,,,,,,,322.8509999761591,,response,,,,100,,,,,,,Space,keypress(Space),,,,,,,,-- --- ---- --- ------ ----- ------- ---- -- --- ------- --<br>------- ---------- ------ -- ----- -- ----- -- ---- ------<br>--- ----- --- --- ------ -------- ----- --- ------ ----- --<br>----- ----- ---------- --- --- ------ ------ ---- -- ------<br>------- --- ------ ----- --- ---- ------- -- ---- way --<br>------- ------,569985.1000000238,569983.3999999762,569643.814,569658.6000000238,569660.549,569995.211,,52,way
screen,html.Screen,2_1_1_1_53,2022-02-02T13:39:48.199Z,,,,,,,,,,,,,,,,,54,,,,,,,,,,,,,,379.8890000238316,,response,,,,100,,,,,,,Space,keypress(Space),,,,,,,,-- --- ---- --- ------ ----- ------- ---- -- --- ------- --<br>------- ---------- ------ -- ----- -- ----- -- ---- ------<br>--- ----- --- --- ------ -------- ----- --- ------ ----- --<br>----- ----- ---------- --- --- ------ ------ ---- -- ------<br>------- --- ------ ----- --- ---- ------- -- ---- --- of<br>------- ------,570376.7000000477,570375.1000000238,569978.477,569985.5,569995.211,570380.09,,53,of
screen,html.Screen,2_1_1_1_54,2022-02-02T13:39:48.564Z,,,,,,,,,,,,,,,,,54,,,,,,,,,,,,,,359.7099999523489,,response,,,,100,,,,,,,Space,keypress(Space),,,,,,,,-- --- ---- --- ------ ----- ------- ---- -- --- ------- --<br>------- ---------- ------ -- ----- -- ----- -- ---- ------<br>--- ----- --- --- ------ -------- ----- --- ------ ----- --<br>----- ----- ---------- --- --- ------ ------ ---- -- ------<br>------- --- ------ ----- --- ---- ------- -- ---- --- --<br>raising ------,570741.3999999762,570739.7999999523,570363.356,570377.2000000477,570380.09,570748.15,,54,raising
screen,html.Screen,2_1_1_1_55,2022-02-02T13:39:49.114Z,,,,,,,,,,,,,,,,,54,,,,,,,,,,,,,,542.0500000476604,,response,,,,100,,,,,,,Space,keypress(Space),,,,,,,,-- --- ---- --- ------ ----- ------- ---- -- --- ------- --<br>------- ---------- ------ -- ----- -- ----- -- ---- ------<br>--- ----- --- --- ------ -------- ----- --- ------ ----- --<br>----- ----- ---------- --- --- ------ ------ ---- -- ------<br>------- --- ------ ----- --- ---- ------- -- ---- --- --<br>------- money.,571291.8999999762,571290.2000000477,570731.416,570741.8999999762,570748.15,571300.487,,55,money.
Item 100,flow.Loop,2_1_1_1,2022-02-02T13:39:49.115Z,,,,,,,,,,,,,,,,,,,,,,,,,,,,,,,27767.28000004764,,completion,,,,,B,,,,,,,,,,,silence,,,,,571292.7000000477,571290.2000000477,543506.197,543508.2999999523,543522.92,571300.487,,,
Question 1,html.Screen,2_1_1_2,2022-02-02T13:39:52.261Z,,,,,,,,,,,,,,,,,,,,,,,,,,,,true,TRUE,,3137.213000047719,,response,,,,100,B,,,,,,TRUE,click #choice-1,,,,silence,,,,,574438.7000000477,574437.7000000477,571283.749,571293,571300.487,574446.092,,,
Question 2,html.Screen,2_1_1_3,2022-02-02T13:39:55.711Z,,,,,,,,,,,,,,,,,,,,,,,,,,,,false,FALSE,,3442.008000023896,,response,,,,100,B,,,,,,TRUE,click #choice-1,,,,silence,,,,,577888.8999999762,577888.1000000238,574429.359,574438.8999999762,574446.092,577892.742,,,
Item 100,flow.Sequence,2_1_1,2022-02-02T13:39:55.711Z,,,,,,,,,,,,,,,,,,,,,,,,,,,,,,,44370.578000023845,,completion,,,,,,,,,,,,,,,,,,,,,577889.1000000238,577888.1000000238,533500.795,533507.1000000238,533517.522,577892.742,,,
End of Practice,html.Page,2_1_2,2022-02-02T13:40:00.963Z,,,,,,,,,,,,,,,,,,,,,,,,,,,,,,,5247.458000047714,,form submission,,,,,,,,,,,,,,,,,,,,,583140.5,583140.2000000477,577876.014,577889.2999999523,577892.742,583144.956,,,
Practice,flow.Sequence,2_1,2022-02-02T13:40:00.963Z,,,,,,,,,,,,,,,,,,,,,,,,,,,,,,,117424.76300004771,,completion,,,,,,,,,,,,,,,,,,,,,583140.7000000477,583140.2000000477,465698.713,465714.7999999523,465715.437,583144.956,,,
Trap_instruction,html.Page,2_2_0,2022-02-02T13:40:06.779Z,,,,,,,,,,,,,,,,,,,,,,,,,,,,,,,5811.244000047678,,form submission,,,,,,,,,,,,,,,,,,,,,588956.5,588956.2000000477,583128.23,583140.8999999762,583144.956,588985.918,,,
trap_trial,html.Screen,2_2_1,2022-02-02T13:40:09.920Z,,,,,,,,,,,,,,,,,,,,,,,,,,,,true,1,,3111.3819999523694,,response,,,,,,,,,,,1,click #choice-1,,,,,,,,,592098.2000000477,592097.2999999523,588952.458,588956.7000000477,588985.918,592114.518,,,
end of trap trial,html.Page,2_2_2,2022-02-02T13:40:15.112Z,,,,,,,,,,,,,,,,,,,,,,,,,,,,,,,5174.682000047644,,form submission,,,,,,,,,,,,,,,,,,,,,597289.5,597289.2000000477,592097.793,592098.3999999762,592114.518,597302.391,,,
Trap 1,flow.Sequence,2_2,2022-02-02T13:40:15.112Z,,,,,,,,,,,,,,,,,,,,,,,,,,,,,,,14144.244000047678,,completion,,,,,,,,,,,,,,,,,,,,,597289.7999999523,597289.2000000477,583128.23,583140.8999999762,583144.956,597302.391,,,
Standby,html.Page,2_3_0,2022-02-02T13:40:23.104Z,,,,,,,,,,,,,,,,,,,,,,,,,,,,,,,7994.150000000023,,timeout,,,,,,,,,,,,,,,,,,,,,605281.2999999523,605279.817,597285.667,597290,597302.391,605296.541,,,
Holding screen,html.Screen,2_3_1_0_0,2022-02-02T13:40:30.101Z,,,,,,,,,,,,,,,,,,,,,,,,,,,,,,,6998.254000000074,,timeout,,,,,,,,,,,,,,,,,,,,,612279.2000000477,612278.067,605279.817,605281.7999999523,605296.541,612294.795,,,
screen,html.Screen,2_3_1_0_1_0,2022-02-02T13:40:31.252Z,,,,,,,,,,,,,,,,,51,,,,,,,,,,,,,,1132.6049999761162,,response,,,,13,B,,,,,,Space,keypress(Space),,,,lyrical,,,,American -------- --- --- ---- --- --- ------ -- --------<br>---- --------- --- ------- ------------ ---------- ---------<br>--- ---------- ------- ---------- ------- -- -------- ----<br>---- --- ------ ----- ------ -- ---- --- ----- -- - -------<br>-------- -- --- --- -- ----- ----------- ----- -----------<br>---- --- ---------- --- ---- --- -- ----------,613429.2999999523,613427.3999999762,612278.067,612279.8999999762,612294.795,613432.958,,0,American
screen,html.Screen,2_3_1_0_1_1,2022-02-02T13:40:31.995Z,,,,,,,,,,,,,,,,,51,,,,,,,,,,,,,,741.5420000000158,,response,,,,13,B,,,,,,Space,keypress(Space),,,,lyrical,,,,-------- industry --- --- ---- --- --- ------ -- --------<br>---- --------- --- ------- ------------ ---------- ---------<br>--- ---------- ------- ---------- ------- -- -------- ----<br>---- --- ------ ----- ------ -- ---- --- ----- -- - -------<br>-------- -- --- --- -- ----- ----------- ----- -----------<br>---- --- ---------- --- ---- --- -- ----------,614175.2999999523,614174.5,613416.229,613429.8999999762,613432.958,614186.064,,1,industry
screen,html.Screen,2_3_1_0_1_2,2022-02-02T13:40:32.880Z,,,,,,,,,,,,,,,,,51,,,,,,,,,,,,,,873.2359999523032,,response,,,,13,B,,,,,,Space,keypress(Space),,,,lyrical,,,,-------- -------- may --- ---- --- --- ------ -- --------<br>---- --------- --- ------- ------------ ---------- ---------<br>--- ---------- ------- ---------- ------- -- -------- ----<br>---- --- ------ ----- ------ -- ---- --- ----- -- - -------<br>-------- -- --- --- -- ----- ----------- ----- -----------<br>---- --- ---------- --- ---- --- -- ----------,615060.2000000477,615059.2999999523,614169.334,614175.6000000238,614186.064,615072.759,,2,may
screen,html.Screen,2_3_1_0_1_3,2022-02-02T13:40:33.445Z,,,,,,,,,,,,,,,,,51,,,,,,,,,,,,,,551.0409999523545,,response,,,,13,B,,,,,,Space,keypress(Space),,,,lyrical,,,,-------- -------- --- not ---- --- --- ------ -- --------<br>---- --------- --- ------- ------------ ---------- ---------<br>--- ---------- ------- ---------- ------- -- -------- ----<br>---- --- ------ ----- ------ -- ---- --- ----- -- - -------<br>-------- -- --- --- -- ----- ----------- ----- -----------<br>---- --- ---------- --- ---- --- -- ----------,615625.2000000477,615623.7999999523,615056.029,615060.5,615072.759,615641.865,,3,not
screen,html.Screen,2_3_1_0_1_4,2022-02-02T13:40:33.800Z,,,,,,,,,,,,,,,,,51,,,,,,,,,,,,,,336.53499997616746,,response,,,,13,B,,,,,,Space,keypress(Space),,,,lyrical,,,,-------- -------- --- --- know --- --- ------ -- --------<br>---- --------- --- ------- ------------ ---------- ---------<br>--- ---------- ------- ---------- ------- -- -------- ----<br>---- --- ------ ----- ------ -- ---- --- ----- -- - -------<br>-------- -- --- --- -- ----- ----------- ----- -----------<br>---- --- ---------- --- ---- --- -- ----------,615979.7999999523,615978.3999999762,615625.135,615625.5,615641.865,615993.25,,4,know
screen,html.Screen,2_3_1_0_1_5,2022-02-02T13:40:34.199Z,,,,,,,,,,,,,,,,,51,,,,,,,,,,,,,,383.9500000476837,,response,,,,13,B,,,,,,Space,keypress(Space),,,,lyrical,,,,"-------- -------- --- --- ---- it, --- ------ -- --------<br>---- --------- --- ------- ------------ ---------- ---------<br>--- ---------- ------- ---------- ------- -- -------- ----<br>---- --- ------ ----- ------ -- ---- --- ----- -- - -------<br>-------- -- --- --- -- ----- ----------- ----- -----------<br>---- --- ---------- --- ---- --- -- ----------",616378.8999999762,616377.2000000477,615976.521,615980.1000000238,615993.25,616394.684,,5,"it,"
screen,html.Screen,2_3_1_0_1_6,2022-02-02T13:40:34.688Z,,,,,,,,,,,,,,,,,51,,,,,,,,,,,,,,471.51600004767533,,response,,,,13,B,,,,,,Space,keypress(Space),,,,lyrical,,,,-------- -------- --- --- ---- --- but ------ -- --------<br>---- --------- --- ------- ------------ ---------- ---------<br>--- ---------- ------- ---------- ------- -- -------- ----<br>---- --- ------ ----- ------ -- ---- --- ----- -- - -------<br>-------- -- --- --- -- ----- ----------- ----- -----------<br>---- --- ---------- --- ---- --- -- ----------,616867.7000000477,616866.2000000477,616377.959,616379.2000000477,616394.684,616879.965,,6,but
screen,html.Screen,2_3_1_0_1_7,2022-02-02T13:40:35.046Z,,,,,,,,,,,,,,,,,51,,,,,,,,,,,,,,344.8349999523489,,response,,,,13,B,,,,,,Space,keypress(Space),,,,lyrical,,,,-------- -------- --- --- ---- --- --- debate -- --------<br>---- --------- --- ------- ------------ ---------- ---------<br>--- ---------- ------- ---------- ------- -- -------- ----<br>---- --- ------ ----- ------ -- ---- --- ----- -- - -------<br>-------- -- --- --- -- ----- ----------- ----- -----------<br>---- --- ---------- --- ---- --- -- ----------,617226.1000000238,617224.7999999523,616863.239,616868.1000000238,616879.965,617231.402,,7,debate
screen,html.Screen,2_3_1_0_1_8,2022-02-02T13:40:35.419Z,,,,,,,,,,,,,,,,,51,,,,,,,,,,,,,,365.8979999523144,,response,,,,13,B,,,,,,Space,keypress(Space),,,,lyrical,,,,-------- -------- --- --- ---- --- --- ------ in --------<br>---- --------- --- ------- ------------ ---------- ---------<br>--- ---------- ------- ---------- ------- -- -------- ----<br>---- --- ------ ----- ------ -- ---- --- ----- -- - -------<br>-------- -- --- --- -- ----- ----------- ----- -----------<br>---- --- ---------- --- ---- --- -- ----------,617598.8999999762,617597.2999999523,617214.676,617226.5,617231.402,617616.211,,8,in
screen,html.Screen,2_3_1_0_1_9,2022-02-02T13:40:35.800Z,,,,,,,,,,,,,,,,,51,,,,,,,,,,,,,,362.6889999761479,,response,,,,13,B,,,,,,Space,keypress(Space),,,,lyrical,,,,-------- -------- --- --- ---- --- --- ------ -- Congress<br>---- --------- --- ------- ------------ ---------- ---------<br>--- ---------- ------- ---------- ------- -- -------- ----<br>---- --- ------ ----- ------ -- ---- --- ----- -- - -------<br>-------- -- --- --- -- ----- ----------- ----- -----------<br>---- --- ---------- --- ---- --- -- ----------,617980.3999999762,617978.8999999762,617599.484,617599.2999999523,617616.211,617984.417,,9,Congress
screen,html.Screen,2_3_1_0_1_10,2022-02-02T13:40:36.250Z,,,,,,,,,,,,,,,,,51,,,,,,,,,,,,,,443.58299999998417,,response,,,,13,B,,,,,,Space,keypress(Space),,,,lyrical,,,,-------- -------- --- --- ---- --- --- ------ -- --------<br>over --------- --- ------- ------------ ---------- ---------<br>--- ---------- ------- ---------- ------- -- -------- ----<br>---- --- ------ ----- ------ -- ---- --- ----- -- - -------<br>-------- -- --- --- -- ----- ----------- ----- -----------<br>---- --- ---------- --- ---- --- -- ----------,618429.6000000238,618428,617967.686,617980.7000000477,617984.417,618436.368,,10,over
screen,html.Screen,2_3_1_0_1_11,2022-02-02T13:40:36.700Z,,,,,,,,,,,,,,,,,51,,,,,,,,,,,,,,441.2320000238251,,response,,,,13,B,,,,,,Space,keypress(Space),,,,lyrical,,,,-------- -------- --- --- ---- --- --- ------ -- --------<br>---- reforming --- ------- ------------ ---------- ---------<br>--- ---------- ------- ---------- ------- -- -------- ----<br>---- --- ------ ----- ------ -- ---- --- ----- -- - -------<br>-------- -- --- --- -- ----- ----------- ----- -----------<br>---- --- ---------- --- ---- --- -- ----------,618879.6000000238,618877.6000000238,618419.633,618429.8999999762,618436.368,618888.005,,11,reforming
screen,html.Screen,2_3_1_0_1_12,2022-02-02T13:40:37.055Z,,,,,,,,,,,,,,,,,51,,,,,,,,,,,,,,345.3949999761535,,response,,,,13,B,,,,,,Space,keypress(Space),,,,lyrical,,,,-------- -------- --- --- ---- --- --- ------ -- --------<br>---- --------- the ------- ------------ ---------- ---------<br>--- ---------- ------- ---------- ------- -- -------- ----<br>---- --- ------ ----- ------ -- ---- --- ----- -- - -------<br>-------- -- --- --- -- ----- ----------- ----- -----------<br>---- --- ---------- --- ---- --- -- ----------,619234.8999999762,619233.3999999762,618871.275,618880.1000000238,618888.005,619239.465,,12,the
screen,html.Screen,2_3_1_0_1_13,2022-02-02T13:40:37.501Z,,,,,,,,,,,,,,,,,51,,,,,,,,,,,,,,439.8349999523489,,response,,,,13,B,,,,,,Space,keypress(Space),,,,lyrical,,,,-------- -------- --- --- ---- --- --- ------ -- --------<br>---- --------- --- federal ------------ ---------- ---------<br>--- ---------- ------- ---------- ------- -- -------- ----<br>---- --- ------ ----- ------ -- ---- --- ----- -- - -------<br>-------- -- --- --- -- ----- ----------- ----- -----------<br>---- --- ---------- --- ---- --- -- ----------,619681,619679.2999999523,619222.733,619235.2000000477,619239.465,619691.176,,13,federal
screen,html.Screen,2_3_1_0_1_14,2022-02-02T13:40:37.917Z,,,,,,,,,,,,,,,,,51,,,,,,,,,,,,,,404.12399995233864,,response,,,,13,B,,,,,,Space,keypress(Space),,,,lyrical,,,,-------- -------- --- --- ---- --- --- ------ -- --------<br>---- --------- --- ------- government's ---------- ---------<br>--- ---------- ------- ---------- ------- -- -------- ----<br>---- --- ------ ----- ------ -- ---- --- ----- -- - -------<br>-------- -- --- --- -- ----- ----------- ----- -----------<br>---- --- ---------- --- ---- --- -- ----------,620096.8999999762,620095.2999999523,619674.444,619681.5,619691.176,620109.354,,14,government's
screen,html.Screen,2_3_1_0_1_15,2022-02-02T13:40:38.271Z,,,,,,,,,,,,,,,,,51,,,,,,,,,,,,,,340.3460000476334,,response,,,,13,B,,,,,,Space,keypress(Space),,,,lyrical,,,,-------- -------- --- --- ---- --- --- ------ -- --------<br>---- --------- --- ------- ------------ regulatory ---------<br>--- ---------- ------- ---------- ------- -- -------- ----<br>---- --- ------ ----- ------ -- ---- --- ----- -- - -------<br>-------- -- --- --- -- ----- ----------- ----- -----------<br>---- --- ---------- --- ---- --- -- ----------,620451.2999999523,620449.7000000477,620092.624,620097.2999999523,620109.354,620460.895,,15,regulatory
screen,html.Screen,2_3_1_0_1_16,2022-02-02T13:40:39.654Z,,,,,,,,,,,,,,,,,51,,,,,,,,,,,,,,1372.0049999761395,,response,,,,13,B,,,,,,Space,keypress(Space),,,,lyrical,,,,-------- -------- --- --- ---- --- --- ------ -- --------<br>---- --------- --- ------- ------------ ---------- apparatus<br>--- ---------- ------- ---------- ------- -- -------- ----<br>---- --- ------ ----- ------ -- ---- --- ----- -- - -------<br>-------- -- --- --- -- ----- ----------- ----- -----------<br>---- --- ---------- --- ---- --- -- ----------,621834.5,621832.8999999762,620444.162,620451.7999999523,620460.895,621849.798,,16,apparatus
screen,html.Screen,2_3_1_0_1_17,2022-02-02T13:40:40.175Z,,,,,,,,,,,,,,,,,51,,,,,,,,,,,,,,503.20200000004843,,response,,,,13,B,,,,,,Space,keypress(Space),,,,lyrical,,,,-------- -------- --- --- ---- --- --- ------ -- --------<br>---- --------- --- ------- ------------ ---------- ---------<br>may ---------- ------- ---------- ------- -- -------- ----<br>---- --- ------ ----- ------ -- ---- --- ----- -- - -------<br>-------- -- --- --- -- ----- ----------- ----- -----------<br>---- --- ---------- --- ---- --- -- ----------,622354.5,622353,621833.064,621835,621849.798,622368.649,,17,may
screen,html.Screen,2_3_1_0_1_18,2022-02-02T13:40:40.629Z,,,,,,,,,,,,,,,,,51,,,,,,,,,,,,,,439.1509999523405,,response,,,,13,B,,,,,,Space,keypress(Space),,,,lyrical,,,,-------- -------- --- --- ---- --- --- ------ -- --------<br>---- --------- --- ------- ------------ ---------- ---------<br>--- profoundly ------- ---------- ------- -- -------- ----<br>---- --- ------ ----- ------ -- ---- --- ----- -- - -------<br>-------- -- --- --- -- ----- ----------- ----- -----------<br>---- --- ---------- --- ---- --- -- ----------,622809.5,622807.7999999523,622351.911,622354.7999999523,622368.649,622820.34,,18,profoundly
screen,html.Screen,2_3_1_0_1_19,2022-02-02T13:40:41.071Z,,,,,,,,,,,,,,,,,51,,,,,,,,,,,,,,428.8600000477163,,response,,,,13,B,,,,,,Space,keypress(Space),,,,lyrical,,,,-------- -------- --- --- ---- --- --- ------ -- --------<br>---- --------- --- ------- ------------ ---------- ---------<br>--- ---------- improve ---------- ------- -- -------- ----<br>---- --- ------ ----- ------ -- ---- --- ----- -- - -------<br>-------- -- --- --- -- ----- ----------- ----- -----------<br>---- --- ---------- --- ---- --- -- ----------,623250.8999999762,623249.2000000477,622803.602,622809.7999999523,622820.34,623255.737,,19,improve
screen,html.Screen,2_3_1_0_1_20,2022-02-02T13:40:41.701Z,,,,,,,,,,,,,,,,,51,,,,,,,,,,,,,,623.8630000238772,,response,,,,13,B,,,,,,Space,keypress(Space),,,,lyrical,,,,-------- -------- --- --- ---- --- --- ------ -- --------<br>---- --------- --- ------- ------------ ---------- ---------<br>--- ---------- ------- companies' ------- -- -------- ----<br>---- --- ------ ----- ------ -- ---- --- ----- -- - -------<br>-------- -- --- --- -- ----- ----------- ----- -----------<br>---- --- ---------- --- ---- --- -- ----------,623881.2000000477,623879.6000000238,623238.996,623251.2999999523,623255.737,623891.494,,20,companies'
screen,html.Screen,2_3_1_0_1_21,2022-02-02T13:40:42.345Z,,,,,,,,,,,,,,,,,51,,,,,,,,,,,,,,632.9059999762103,,response,,,,13,B,,,,,,Space,keypress(Space),,,,lyrical,,,,-------- -------- --- --- ---- --- --- ------ -- --------<br>---- --------- --- ------- ------------ ---------- ---------<br>--- ---------- ------- ---------- ability -- -------- ----<br>---- --- ------ ----- ------ -- ---- --- ----- -- - -------<br>-------- -- --- --- -- ----- ----------- ----- -----------<br>---- --- ---------- --- ---- --- -- ----------,624525.2999999523,624524.3999999762,623874.752,623881.7000000477,623891.494,624527.124,,21,ability
screen,html.Screen,2_3_1_0_1_22,2022-02-02T13:40:42.825Z,,,,,,,,,,,,,,,,,51,,,,,,,,,,,,,,476.47600002388936,,response,,,,13,B,,,,,,Space,keypress(Space),,,,lyrical,,,,-------- -------- --- --- ---- --- --- ------ -- --------<br>---- --------- --- ------- ------------ ---------- ---------<br>--- ---------- ------- ---------- ------- to -------- ----<br>---- --- ------ ----- ------ -- ---- --- ----- -- - -------<br>-------- -- --- --- -- ----- ----------- ----- -----------<br>---- --- ---------- --- ---- --- -- ----------,625005.1000000238,625003.6000000238,624510.386,624525.3999999762,624527.124,625012.421,,22,to
screen,html.Screen,2_3_1_0_1_23,2022-02-02T13:40:43.280Z,,,,,,,,,,,,,,,,,51,,,,,,,,,,,,,,445.7790000477107,,response,,,,13,B,,,,,,Space,keypress(Space),,,,lyrical,,,,-------- -------- --- --- ---- --- --- ------ -- --------<br>---- --------- --- ------- ------------ ---------- ---------<br>--- ---------- ------- ---------- ------- -- survive. ----<br>---- --- ------ ----- ------ -- ---- --- ----- -- - -------<br>-------- -- --- --- -- ----- ----------- ----- -----------<br>---- --- ---------- --- ---- --- -- ----------,625459.7999999523,625458.2000000477,624995.679,625005.7000000477,625012.421,625464.194,,23,survive.
screen,html.Screen,2_3_1_0_1_24,2022-02-02T13:40:44.430Z,,,,,,,,,,,,,,,,,51,,,,,,,,,,,,,,1144.006000047666,,response,,,,13,B,,,,,,Space,keypress(Space),,,,lyrical,,,,-------- -------- --- --- ---- --- --- ------ -- --------<br>---- --------- --- ------- ------------ ---------- ---------<br>--- ---------- ------- ---------- ------- -- -------- This<br>---- --- ------ ----- ------ -- ---- --- ----- -- - -------<br>-------- -- --- --- -- ----- ----------- ----- -----------<br>---- --- ---------- --- ---- --- -- ----------,626610,626608.2000000477,625447.453,625460.1000000238,625464.194,626619.008,,24,This
screen,html.Screen,2_3_1_0_1_25,2022-02-02T13:40:44.919Z,,,,,,,,,,,,,,,,,51,,,,,,,,,,,,,,477.8919999761274,,response,,,,13,B,,,,,,Space,keypress(Space),,,,lyrical,,,,-------- -------- --- --- ---- --- --- ------ -- --------<br>---- --------- --- ------- ------------ ---------- ---------<br>--- ---------- ------- ---------- ------- -- -------- ----<br>week --- ------ ----- ------ -- ---- --- ----- -- - -------<br>-------- -- --- --- -- ----- ----------- ----- -----------<br>---- --- ---------- --- ---- --- -- ----------,627098.7000000477,627096.8999999762,626602.269,626610.3999999762,626619.008,627103.911,,25,week
screen,html.Screen,2_3_1_0_1_26,2022-02-02T13:40:45.350Z,,,,,,,,,,,,,,,,,51,,,,,,,,,,,,,,423.98899997619446,,response,,,,13,B,,,,,,Space,keypress(Space),,,,lyrical,,,,-------- -------- --- --- ---- --- --- ------ -- --------<br>---- --------- --- ------- ------------ ---------- ---------<br>--- ---------- ------- ---------- ------- -- -------- ----<br>---- the ------ ----- ------ -- ---- --- ----- -- - -------<br>-------- -- --- --- -- ----- ----------- ----- -----------<br>---- --- ---------- --- ---- --- -- ----------,627529.7000000477,627527.8999999762,627087.173,627099.1000000238,627103.911,627539.082,,26,the
screen,html.Screen,2_3_1_0_1_27,2022-02-02T13:40:45.808Z,,,,,,,,,,,,,,,,,51,,,,,,,,,,,,,,447.0180000237888,,response,,,,13,B,,,,,,Space,keypress(Space),,,,lyrical,,,,-------- -------- --- --- ---- --- --- ------ -- --------<br>---- --------- --- ------- ------------ ---------- ---------<br>--- ---------- ------- ---------- ------- -- -------- ----<br>---- --- Senate ----- ------ -- ---- --- ----- -- - -------<br>-------- -- --- --- -- ----- ----------- ----- -----------<br>---- --- ---------- --- ---- --- -- ----------,627987.7999999523,627986.1000000238,627522.341,627530,627539.082,627990.775,,27,Senate
screen,html.Screen,2_3_1_0_1_28,2022-02-02T13:40:46.272Z,,,,,,,,,,,,,,,,,51,,,,,,,,,,,,,,459.2249999999767,,response,,,,13,B,,,,,,Space,keypress(Space),,,,lyrical,,,,-------- -------- --- --- ---- --- --- ------ -- --------<br>---- --------- --- ------- ------------ ---------- ---------<br>--- ---------- ------- ---------- ------- -- -------- ----<br>---- --- ------ seems ------ -- ---- --- ----- -- - -------<br>-------- -- --- --- -- ----- ----------- ----- -----------<br>---- --- ---------- --- ---- --- -- ----------,628451.6000000238,628450,627974.038,627988.2999999523,627990.775,628459.143,,28,seems
screen,html.Screen,2_3_1_0_1_29,2022-02-02T13:40:46.609Z,,,,,,,,,,,,,,,,,51,,,,,,,,,,,,,,328.2569999761181,,response,,,,13,B,,,,,,Space,keypress(Space),,,,lyrical,,,,-------- -------- --- --- ---- --- --- ------ -- --------<br>---- --------- --- ------- ------------ ---------- ---------<br>--- ---------- ------- ---------- ------- -- -------- ----<br>---- --- ------ ----- poised -- ---- --- ----- -- - -------<br>-------- -- --- --- -- ----- ----------- ----- -----------<br>---- --- ---------- --- ---- --- -- ----------,628789.2999999523,628787.3999999762,628442.409,628452.1000000238,628459.143,628793.905,,29,poised
screen,html.Screen,2_3_1_0_1_30,2022-02-02T13:40:46.962Z,,,,,,,,,,,,,,,,,51,,,,,,,,,,,,,,346.09499999997206,,response,,,,13,B,,,,,,Space,keypress(Space),,,,lyrical,,,,-------- -------- --- --- ---- --- --- ------ -- --------<br>---- --------- --- ------- ------------ ---------- ---------<br>--- ---------- ------- ---------- ------- -- -------- ----<br>---- --- ------ ----- ------ to ---- --- ----- -- - -------<br>-------- -- --- --- -- ----- ----------- ----- -----------<br>---- --- ---------- --- ---- --- -- ----------,629141.6000000238,629140,628777.168,628789.7000000477,628793.905,629145.278,,30,to
screen,html.Screen,2_3_1_0_1_31,2022-02-02T13:40:47.295Z,,,,,,,,,,,,,,,,,51,,,,,,,,,,,,,,328.22199999995064,,response,,,,13,B,,,,,,Space,keypress(Space),,,,lyrical,,,,-------- -------- --- --- ---- --- --- ------ -- --------<br>---- --------- --- ------- ------------ ---------- ---------<br>--- ---------- ------- ---------- ------- -- -------- ----<br>---- --- ------ ----- ------ -- join --- ----- -- - -------<br>-------- -- --- --- -- ----- ----------- ----- -----------<br>---- --- ---------- --- ---- --- -- ----------,629475,629473.5,629128.542,629142.1000000238,629145.278,629479.912,,31,join
screen,html.Screen,2_3_1_0_1_32,2022-02-02T13:40:47.624Z,,,,,,,,,,,,,,,,,51,,,,,,,,,,,,,,322.48799997614697,,response,,,,13,B,,,,,,Space,keypress(Space),,,,lyrical,,,,-------- -------- --- --- ---- --- --- ------ -- --------<br>---- --------- --- ------- ------------ ---------- ---------<br>--- ---------- ------- ---------- ------- -- -------- ----<br>---- --- ------ ----- ------ -- ---- the ----- -- - -------<br>-------- -- --- --- -- ----- ----------- ----- -----------<br>---- --- ---------- --- ---- --- -- ----------,629803.6000000238,629802.3999999762,629463.177,629475.5,629479.912,629814.429,,32,the
screen,html.Screen,2_3_1_0_1_33,2022-02-02T13:40:47.998Z,,,,,,,,,,,,,,,,,51,,,,,,,,,,,,,,362.17100002383813,,response,,,,13,B,,,,,,Space,keypress(Space),,,,lyrical,,,,-------- -------- --- --- ---- --- --- ------ -- --------<br>---- --------- --- ------- ------------ ---------- ---------<br>--- ---------- ------- ---------- ------- -- -------- ----<br>---- --- ------ ----- ------ -- ---- --- House -- - -------<br>-------- -- --- --- -- ----- ----------- ----- -----------<br>---- --- ---------- --- ---- --- -- ----------,630178.5,630176.6000000238,629797.699,629803.8999999762,629814.429,630182.542,,33,House
screen,html.Screen,2_3_1_0_1_34,2022-02-02T13:40:48.293Z,,,,,,,,,,,,,,,,,51,,,,,,,,,,,,,,289.1580000476679,,response,,,,13,B,,,,,,Space,keypress(Space),,,,lyrical,,,,-------- -------- --- --- ---- --- --- ------ -- --------<br>---- --------- --- ------- ------------ ---------- ---------<br>--- ---------- ------- ---------- ------- -- -------- ----<br>---- --- ------ ----- ------ -- ---- --- ----- in - -------<br>-------- -- --- --- -- ----- ----------- ----- -----------<br>---- --- ---------- --- ---- --- -- ----------,630473.3999999762,630471.7000000477,630165.81,630179,630182.542,630483.741,,34,in
screen,html.Screen,2_3_1_0_1_35,2022-02-02T13:40:48.594Z,,,,,,,,,,,,,,,,,51,,,,,,,,,,,,,,288.5589999522781,,response,,,,13,B,,,,,,Space,keypress(Space),,,,lyrical,,,,-------- -------- --- --- ---- --- --- ------ -- --------<br>---- --------- --- ------- ------------ ---------- ---------<br>--- ---------- ------- ---------- ------- -- -------- ----<br>---- --- ------ ----- ------ -- ---- --- ----- -- a -------<br>-------- -- --- --- -- ----- ----------- ----- -----------<br>---- --- ---------- --- ---- --- -- ----------,630773.8999999762,630772.2999999523,630467.009,630473.7999999523,630483.741,630785.026,,35,a
screen,html.Screen,2_3_1_0_1_36,2022-02-02T13:40:49.290Z,,,,,,,,,,,,,,,,,51,,,,,,,,,,,,,,683.6740000477294,,response,,,,13,B,,,,,,Space,keypress(Space),,,,lyrical,,,,-------- -------- --- --- ---- --- --- ------ -- --------<br>---- --------- --- ------- ------------ ---------- ---------<br>--- ---------- ------- ---------- ------- -- -------- ----<br>---- --- ------ ----- ------ -- ---- --- ----- -- - massive<br>-------- -- --- --- -- ----- ----------- ----- -----------<br>---- --- ---------- --- ---- --- -- ----------,631470.2999999523,631468.7000000477,630768.292,630774.3999999762,630785.026,631487.796,,36,massive
screen,html.Screen,2_3_1_0_1_37,2022-02-02T13:40:49.621Z,,,,,,,,,,,,,,,,,51,,,,,,,,,,,,,,311.9040000477107,,response,,,,13,B,,,,,,Space,keypress(Space),,,,lyrical,,,,-------- -------- --- --- ---- --- --- ------ -- --------<br>---- --------- --- ------- ------------ ---------- ---------<br>--- ---------- ------- ---------- ------- -- -------- ----<br>---- --- ------ ----- ------ -- ---- --- ----- -- - -------<br>overhaul -- --- --- -- ----- ----------- ----- -----------<br>---- --- ---------- --- ---- --- -- ----------,631801.2999999523,631799.7000000477,631471.063,631470.7999999523,631487.796,631805.587,,37,overhaul
screen,html.Screen,2_3_1_0_1_38,2022-02-02T13:40:50.166Z,,,,,,,,,,,,,,,,,51,,,,,,,,,,,,,,538.5130000237841,,response,,,,13,B,,,,,,Space,keypress(Space),,,,lyrical,,,,-------- -------- --- --- ---- --- --- ------ -- --------<br>---- --------- --- ------- ------------ ---------- ---------<br>--- ---------- ------- ---------- ------- -- -------- ----<br>---- --- ------ ----- ------ -- ---- --- ----- -- - -------<br>-------- of --- --- -- ----- ----------- ----- -----------<br>---- --- ---------- --- ---- --- -- ----------,632345.7000000477,632344.1000000238,631788.857,631801.7000000477,631805.587,632357.958,,38,of
screen,html.Screen,2_3_1_0_1_39,2022-02-02T13:40:50.495Z,,,,,,,,,,,,,,,,,51,,,,,,,,,,,,,,315.3419999523321,,response,,,,13,B,,,,,,Space,keypress(Space),,,,lyrical,,,,-------- -------- --- --- ---- --- --- ------ -- --------<br>---- --------- --- ------- ------------ ---------- ---------<br>--- ---------- ------- ---------- ------- -- -------- ----<br>---- --- ------ ----- ------ -- ---- --- ----- -- - -------<br>-------- -- the --- -- ----- ----------- ----- -----------<br>---- --- ---------- --- ---- --- -- ----------,632674.8999999762,632673.2999999523,632341.223,632346.1000000238,632357.958,632692.457,,39,the
