sender,sender_type,sender_id,timestamp,meta,,Blues,Classical,Country,Dance,Electronic,Folk,Gospel,Hip-Hop,Jazz,Latin,Musical/Film,New-age,Pop,Prolific_id,Provo_ID,R&B,Rap,Reggae,Religious,Rock,Soul,Swing,Traditional,age,artist_name,correct,correctResponse,distraction,duration,education,ended_on,familiarity,gender,headphone_check_performance,item,list,music_frequency,offensiveness,pleasantness,position_correct,preference,response,response_action,snippet_file,song_name,song_rating,sound,stimulus_1,stimulus_2,stimulus_3,text,time_commit,time_end,time_render,time_run,time_show,time_switch,url,word,word_ID
Prolific ID,html.Form,0,2022-02-02T13:44:08.694Z,"{""labjs_version"":""20.2.2"",""labjs_build"":{""flavor"":""production"",""commit"":""a25486e0c714a0ae2ce03ff94b7bb6896854dcfa""},""location"":""https://run.pavlovia.org/mvasilev/prolific2_music_b/"",""userAgent"":""Mozilla/5.0 (Windows NT 10.0; Win64; x64) AppleWebKit/537.36 (KHTML, like Gecko) Chrome/97.0.4692.99 Safari/537.36"",""platform"":""Win32"",""language"":""en-US"",""locale"":""en-US"",""timeZone"":""Europe/London"",""timezoneOffset"":0,""screen_width"":1600,""screen_height"":900,""scroll_width"":1600,""scroll_height"":741,""window_innerWidth"":1600,""window_innerHeight"":789,""devicePixelRatio"":1}",,,,,,,,,,,,,,,5e7b804f9379140478c688da,,,,,,,,,,,,,,,11964.413999991059,,form submission,,,,,,,,,,,,,,,,,,,,,19428.19999998808,19426.39999999106,7412.001,7424.199999988079,7461.986,19443.411,{},,
Introduction,html.Screen,1_0,2022-02-02T13:44:13.498Z,,,,,,,,,,,,,,,,,,,,,,,,,,,,,,,4785.88899999702,,response,,,,,,,,,,,continue,click button,,,,,,,,,24231.69999998808,24229.29999999702,19426.747,19428.59999999404,19443.411,24259.309,,,
Volume calibration,html.Screen,1_1,2022-02-02T13:44:34.879Z,,,,,,,,,,,,,,,,,,,,,,,,,,,,,,,21350.29099999404,,response,,,,,,,,,,,continue,click button,,,,,,,,,45612.5,45609.59999999404,24242.646,24231.79999999702,24259.309,45622.459,,,
Task instructions,html.Screen,1_2,2022-02-02T13:44:36.448Z,,,,,,,,,,,,,,,,,,,,,,,,,,,,,,,1559.0409999999974,,response,,,,,,,,,,,continue,click button,,,,,,,,,47182.29999999702,47181.5,45605.942,45612.69999998808,45622.459,47188.871,,,
Sounds,html.Screen,1_3_0_0,2022-02-02T13:44:40.694Z,,,,,,,,,,,,,,,,,,,,,,,,,,,,,,,4249.415999999997,,timeout,,,,,,,,,1,,,,,,,,S,I,O,,51427.69999998808,51421.644,47172.195,47182.5,47188.871,51438.287,,,
Judgement,html.Screen,1_3_0_1,2022-02-02T13:44:41.710Z,,,,,,,,,,,,,,,,,,,,,,,,,,,,true,1,,1004.6129999910627,,response,,,,,,,,,1,,1,click #choice-1,,,,,S,I,O,,52443.79999999702,52442.89999999106,51421.644,51428,51438.287,52471.429,,,
Trial,flow.Sequence,1_3_0,2022-02-02T13:44:41.710Z,,,,,,,,,,,,,,,,,,,,,,,,,,,,,,,5254.02899999106,,completion,,,,,,,,,1,,,,,,,,S,I,O,,52444,52442.89999999106,47172.195,47182.5,47188.871,52471.429,,,
Sounds,html.Screen,1_3_1_0,2022-02-02T13:44:45.972Z,,,,,,,,,,,,,,,,,,,,,,,,,,,,,,,4249.289000000004,,timeout,,,,,,,,,2,,,,,,,,O,S,I,,56705.79999999702,56704.067,52454.745,52444.29999999702,52471.429,56720.718,,,
Judgement,html.Screen,1_3_1_1,2022-02-02T13:44:46.607Z,,,,,,,,,,,,,,,,,,,,,,,,,,,,true,2,,619.1819999910585,,response,,,,,,,,,2,,2,click #choice-2,,,,,O,S,I,,57341.09999999404,57339.89999999106,56704.067,56706.09999999404,56720.718,57353.993,,,
Trial,flow.Sequence,1_3_1,2022-02-02T13:44:46.607Z,,,,,,,,,,,,,,,,,,,,,,,,,,,,,,,4868.470999991063,,completion,,,,,,,,,2,,,,,,,,O,S,I,,57341.29999999702,57339.89999999106,52454.745,52444.09999999404,52471.429,57353.993,,,
Sounds,html.Screen,1_3_2_0,2022-02-02T13:44:50.855Z,,,,,,,,,,,,,,,,,,,,,,,,,,,,,,,4250.339,,timeout,,,,,,,,,2,,,,,,,,I,S,O,,61588.59999999404,61586.715,57337.406,57341.39999999106,57353.993,61604.332,,,
Judgement,html.Screen,1_3_2_1,2022-02-02T13:44:51.323Z,,,,,,,,,,,,,,,,,,,,,,,,,,,,true,2,,451.7679999940374,,response,,,,,,,,,2,,2,click #choice-2,,,,,I,S,O,,62056.69999998808,62056.09999999404,61586.715,61588.79999999702,61604.332,62086.483,,,
Trial,flow.Sequence,1_3_2,2022-02-02T13:44:51.323Z,,,,,,,,,,,,,,,,,,,,,,,,,,,,,,,4702.106999994037,,completion,,,,,,,,,2,,,,,,,,I,S,O,,62057,62056.09999999404,57337.406,57341.39999999106,57353.993,62086.483,,,
Sounds,html.Screen,1_3_3_0,2022-02-02T13:44:55.587Z,,,,,,,,,,,,,,,,,,,,,,,,,,,,,,,4249.377,,timeout,,,,,,,,,1,,,,,,,,S,O,I,,66321,66319.23,62069.957,62057.09999999404,62086.483,66335.86,,,
Judgement,html.Screen,1_3_3_1,2022-02-02T13:44:56.412Z,,,,,,,,,,,,,,,,,,,,,,,,,,,,true,1,,808.739999994039,,response,,,,,,,,,1,,1,click #choice-1,,,,,S,O,I,,67145.39999999106,67144.59999999404,66319.23,66321.29999999702,66335.86,67152.269,,,
Trial,flow.Sequence,1_3_3,2022-02-02T13:44:56.412Z,,,,,,,,,,,,,,,,,,,,,,,,,,,,,,,5058.116999994039,,completion,,,,,,,,,1,,,,,,,,S,O,I,,67145.59999999404,67144.59999999404,62069.957,62057.09999999404,62086.483,67152.269,,,
Sounds,html.Screen,1_3_4_0,2022-02-02T13:45:00.654Z,,,,,,,,,,,,,,,,,,,,,,,,,,,,,,,4249.422000000006,,timeout,,,,,,,,,3,,,,,,,,O,I,S,,71387.29999999702,71384.997,67135.758,67145.69999998808,67152.269,71401.691,,,
Judgement,html.Screen,1_3_4_1,2022-02-02T13:45:01.328Z,,,,,,,,,,,,,,,,,,,,,,,,,,,,true,3,,659.9089999940334,,response,,,,,,,,,3,,3,click #choice-3,,,,,O,I,S,,72062.29999999702,72061.59999999404,71384.997,71387.79999999702,71401.691,72068.166,,,
Trial,flow.Sequence,1_3_4,2022-02-02T13:45:01.329Z,,,,,,,,,,,,,,,,,,,,,,,,,,,,,,,4909.330999994039,,completion,,,,,,,,,3,,,,,,,,O,I,S,,72062.39999999106,72061.59999999404,67135.758,67145.69999998808,67152.269,72068.166,,,
Sounds,html.Screen,1_3_5_0,2022-02-02T13:45:05.569Z,,,,,,,,,,,,,,,,,,,,,,,,,,,,,,,4249.392999999996,,timeout,,,,,,,,,3,,,,,,,,I,O,S,,76302.69999998808,76300.994,72051.629,72062.5,72068.166,76317.559,,,
Judgement,html.Screen,1_3_5_1,2022-02-02T13:45:06.056Z,,,,,,,,,,,,,,,,,,,,,,,,,,,,true,3,,471.14099998808524,,response,,,,,,,,,3,,3,click #choice-3,,,,,I,O,S,,76789.59999999404,76788.69999998808,76300.994,76303,76317.559,76800.801,,,
Trial,flow.Sequence,1_3_5,2022-02-02T13:45:06.056Z,,,,,,,,,,,,,,,,,,,,,,,,,,,,,,,4720.533999988082,,completion,,,,,,,,,3,,,,,,,,I,O,S,,76789.79999999702,76788.69999998808,72051.629,72062.5,72068.166,76800.801,,,
Task,flow.Loop,1_3,2022-02-02T13:45:06.060Z,,,,,,,,,,,,,,,,,,,,,,,,,,,,,,,29599.82899998808,,completion,,,1,,,,,,,,,,,,,,,,,,76794.19999998808,76788.69999998808,47172.195,47182.39999999106,47188.871,76800.801,,,
Trap,html.Screen,1_4,2022-02-02T13:45:06.062Z,,,,,,,,,,,,,,,,,,,,,,,,,,,,,,,NaN,,skipped,,,,,,,,,,,,,,,,,,,,,76795.39999999106,76788.69999998808,,76795.19999998808,,76800.801,,,
Thanks,html.Screen,1_5,2022-02-02T13:45:09.270Z,,,,,,,,,,,,,,,,,,,,,,,,,,,,,,,3202.3989999880723,,response,,,,,,,,,,,continue,click button,,,,,,,,,80004.09999999404,80003.19999998808,76784.146,76795.5,76800.801,82533.116,,,
Headphone screening,flow.Sequence,1,2022-02-02T13:45:09.270Z,,,,,,,,,,,,,,,,,,,,,,,,,,,,,,,60559.78899998808,,completion,,,,,,,,,,,,,,,,,,,,,80004.29999999702,80003.19999998808,19426.747,19428.59999999404,19443.411,82533.116,,,
Instructions,html.Page,2_0,2022-02-02T13:45:27.199Z,,,,,,,,,,,,,,,,,,,,,,,,,,,,,,,15398.884000000005,,form submission,,,,,,,,,,,,,,,,,,,,,97932.39999999106,97932,82499.796,82537.39999999106,82533.116,97947.248,,,
Holding screen,html.Screen,2_1_0_0,2022-02-02T13:45:37.196Z,,,,,,,,,,,,,,,,,,,,,,,,,,,,,,,10015.065999999992,,timeout,,,,,,,,,,,,,,,,,,,,,107930.19999998808,107929.155,97930.631,97932.59999999404,97947.248,107962.314,,,
screen,html.Screen,2_1_0_1_0,2022-02-02T13:45:38.059Z,,,,,,,,,,,,,,,,,53,,,,,,,,,,,,,,824.5859999910608,,response,,,,99,,,,,,,Space,keypress(Space),,,,,,,,When -- ----- -- ------ - ------- --- ----------<br>------------- ------ ------ ---- ---- ------- ----- -- ----<br>-------- ------- -- ---------- --- - --- ----- ----- ----<br>---- --- --- ----- --- ---- ---- ------- ----- ---- -------<br>--- --- -- ----- -- --- ---- -- --- ---- -- ------ ------<br>--- ----- -- ----,108792.5,108786.89999999106,107929.155,107930.59999999404,107962.314,108795.557,,0,When
screen,html.Screen,2_1_0_1_1,2022-02-02T13:45:38.364Z,,,,,,,,,,,,,,,,,53,,,,,,,,,,,,,,301.1429999880784,,response,,,,99,,,,,,,Space,keypress(Space),,,,,,,,---- it ----- -- ------ - ------- --- ----------<br>------------- ------ ------ ---- ---- ------- ----- -- ----<br>-------- ------- -- ---------- --- - --- ----- ----- ----<br>---- --- --- ----- --- ---- ---- ------- ----- ---- -------<br>--- --- -- ----- -- --- ---- -- --- ---- -- ------ ------<br>--- ----- -- ----,109097.89999999106,109096.69999998808,108779.013,108792.89999999106,108795.557,109112.367,,1,it
screen,html.Screen,2_1_0_1_2,2022-02-02T13:45:39.068Z,,,,,,,,,,,,,,,,,53,,,,,,,,,,,,,,688.2329999940412,,response,,,,99,,,,,,,Space,keypress(Space),,,,,,,,---- -- comes -- ------ - ------- --- ----------<br>------------- ------ ------ ---- ---- ------- ----- -- ----<br>-------- ------- -- ---------- --- - --- ----- ----- ----<br>---- --- --- ----- --- ---- ---- ------- ----- ---- -------<br>--- --- -- ----- -- --- ---- -- --- ---- -- ------ ------<br>--- ----- -- ----,109801.29999999702,109800.59999999404,109095.507,109098.19999998808,109112.367,109812.317,,2,comes
screen,html.Screen,2_1_0_1_3,2022-02-02T13:45:39.383Z,,,,,,,,,,,,,,,,,53,,,,,,,,,,,,,,303.4829999970243,,response,,,,99,,,,,,,Space,keypress(Space),,,,,,,,---- -- ----- to ------ - ------- --- ----------<br>------------- ------ ------ ---- ---- ------- ----- -- ----<br>-------- ------- -- ---------- --- - --- ----- ----- ----<br>---- --- --- ----- --- ---- ---- ------- ----- ---- -------<br>--- --- -- ----- -- --- ---- -- --- ---- -- ------ ------<br>--- ----- -- ----,110117.09999999404,110115.79999999702,109795.419,109801.5,109812.317,110128.656,,3,to
screen,html.Screen,2_1_0_1_4,2022-02-02T13:45:39.669Z,,,,,,,,,,,,,,,,,53,,,,,,,,,,,,,,272.8439999999973,,response,,,,99,,,,,,,Space,keypress(Space),,,,,,,,---- -- ----- -- having - ------- --- ----------<br>------------- ------ ------ ---- ---- ------- ----- -- ----<br>-------- ------- -- ---------- --- - --- ----- ----- ----<br>---- --- --- ----- --- ---- ---- ------- ----- ---- -------<br>--- --- -- ----- -- --- ---- -- --- ---- -- ------ ------<br>--- ----- -- ----,110402.79999999702,110401.5,110112.134,110117.39999999106,110128.656,110412.059,,4,having
screen,html.Screen,2_1_0_1_5,2022-02-02T13:45:39.863Z,,,,,,,,,,,,,,,,,53,,,,,,,,,,,,,,183.24099999702594,,response,,,,99,,,,,,,Space,keypress(Space),,,,,,,,---- -- ----- -- ------ a ------- --- ----------<br>------------- ------ ------ ---- ---- ------- ----- -- ----<br>-------- ------- -- ---------- --- - --- ----- ----- ----<br>---- --- --- ----- --- ---- ---- ------- ----- ---- -------<br>--- --- -- ----- -- --- ---- -- --- ---- -- ------ ------<br>--- ----- -- ----,110596.69999998808,110595.29999999702,110395.31,110403,110412.059,110612.061,,5,a
screen,html.Screen,2_1_0_1_6,2022-02-02T13:45:40.142Z,,,,,,,,,,,,,,,,,53,,,,,,,,,,,,,,262.9389999999985,,response,,,,99,,,,,,,Space,keypress(Space),,,,,,,,---- -- ----- -- ------ - lasting --- ----------<br>------------- ------ ------ ---- ---- ------- ----- -- ----<br>-------- ------- -- ---------- --- - --- ----- ----- ----<br>---- --- --- ----- --- ---- ---- ------- ----- ---- -------<br>--- --- -- ----- -- --- ---- -- --- ---- -- ------ ------<br>--- ----- -- ----,110876.09999999404,110875,110595.287,110596.89999999106,110612.061,110878.557,,6,lasting
screen,html.Screen,2_1_0_1_7,2022-02-02T13:45:40.674Z,,,,,,,,,,,,,,,,,53,,,,,,,,,,,,,,528.3429999910586,,response,,,,99,,,,,,,Space,keypress(Space),,,,,,,,---- -- ----- -- ------ - ------- and ----------<br>------------- ------ ------ ---- ---- ------- ----- -- ----<br>-------- ------- -- ---------- --- - --- ----- ----- ----<br>---- --- --- ----- --- ---- ---- ------- ----- ---- -------<br>--- --- -- ----- -- --- ---- -- --- ---- -- ------ ------<br>--- ----- -- ----,111408.09999999404,111406.89999999106,110862.019,110876.39999999106,110878.557,111411.803,,7,and
screen,html.Screen,2_1_0_1_8,2022-02-02T13:45:41.282Z,,,,,,,,,,,,,,,,,53,,,,,,,,,,,,,,602.1970000000001,,response,,,,99,,,,,,,Space,keypress(Space),,,,,,,,---- -- ----- -- ------ - ------- --- fulfilling<br>------------- ------ ------ ---- ---- ------- ----- -- ----<br>-------- ------- -- ---------- --- - --- ----- ----- ----<br>---- --- --- ----- --- ---- ---- ------- ----- ---- -------<br>--- --- -- ----- -- --- ---- -- --- ---- -- ------ ------<br>--- ----- -- ----,112015.19999998808,112014,111395.188,111408.29999999702,111411.803,112028.543,,8,fulfilling
screen,html.Screen,2_1_0_1_9,2022-02-02T13:45:41.809Z,,,,,,,,,,,,,,,,,53,,,,,,,,,,,,,,513.3569999910542,,response,,,,99,,,,,,,Space,keypress(Space),,,,,,,,"---- -- ----- -- ------ - ------- --- ----------<br>relationship, ------ ------ ---- ---- ------- ----- -- ----<br>-------- ------- -- ---------- --- - --- ----- ----- ----<br>---- --- --- ----- --- ---- ---- ------- ----- ---- -------<br>--- --- -- ----- -- --- ---- -- --- ---- -- ------ ------<br>--- ----- -- ----",112543,112541.89999999106,112011.819,112015.5,112028.543,112544.956,,9,"relationship,"
screen,html.Screen,2_1_0_1_10,2022-02-02T13:45:42.221Z,,,,,,,,,,,,,,,,,53,,,,,,,,,,,,,,408.64399999403395,,response,,,,99,,,,,,,Space,keypress(Space),,,,,,,,---- -- ----- -- ------ - ------- --- ----------<br>------------- common ------ ---- ---- ------- ----- -- ----<br>-------- ------- -- ---------- --- - --- ----- ----- ----<br>---- --- --- ----- --- ---- ---- ------- ----- ---- -------<br>--- --- -- ----- -- --- ---- -- --- ---- -- ------ ------<br>--- ----- -- ----,112954.69999998808,112953.59999999404,112528.411,112543.29999999702,112544.956,112961.545,,10,common
screen,html.Screen,2_1_0_1_11,2022-02-02T13:45:42.601Z,,,,,,,,,,,,,,,,,53,,,,,,,,,,,,,,371.6549999880808,,response,,,,99,,,,,,,Space,keypress(Space),,,,,,,,---- -- ----- -- ------ - ------- --- ----------<br>------------- ------ wisdom ---- ---- ------- ----- -- ----<br>-------- ------- -- ---------- --- - --- ----- ----- ----<br>---- --- --- ----- --- ---- ---- ------- ----- ---- -------<br>--- --- -- ----- -- --- ---- -- --- ---- -- ------ ------<br>--- ----- -- ----,113334.29999999702,113333.19999998808,112944.925,112955,112961.545,113344.798,,11,wisdom
screen,html.Screen,2_1_0_1_12,2022-02-02T13:45:42.907Z,,,,,,,,,,,,,,,,,53,,,,,,,,,,,,,,294.6019999910641,,response,,,,99,,,,,,,Space,keypress(Space),,,,,,,,---- -- ----- -- ------ - ------- --- ----------<br>------------- ------ ------ says ---- ------- ----- -- ----<br>-------- ------- -- ---------- --- - --- ----- ----- ----<br>---- --- --- ----- --- ---- ---- ------- ----- ---- -------<br>--- --- -- ----- -- --- ---- -- --- ---- -- ------ ------<br>--- ----- -- ----,113640.5,113639.39999999106,113328.281,113334.59999999404,113344.798,113644.766,,12,says
screen,html.Screen,2_1_0_1_13,2022-02-02T13:45:43.191Z,,,,,,,,,,,,,,,,,53,,,,,,,,,,,,,,278.23399999999674,,response,,,,99,,,,,,,Space,keypress(Space),,,,,,,,---- -- ----- -- ------ - ------- --- ----------<br>------------- ------ ------ ---- that ------- ----- -- ----<br>-------- ------- -- ---------- --- - --- ----- ----- ----<br>---- --- --- ----- --- ---- ---- ------- ----- ---- -------<br>--- --- -- ----- -- --- ---- -- --- ---- -- ------ ------<br>--- ----- -- ----,113924.5,113923,113628.238,113640.69999998808,113644.766,113928.079,,13,that
screen,html.Screen,2_1_0_1_14,2022-02-02T13:45:43.455Z,,,,,,,,,,,,,,,,,53,,,,,,,,,,,,,,259.4210000000021,,response,,,,99,,,,,,,Space,keypress(Space),,,,,,,,---- -- ----- -- ------ - ------- --- ----------<br>------------- ------ ------ ---- ---- feeling ----- -- ----<br>-------- ------- -- ---------- --- - --- ----- ----- ----<br>---- --- --- ----- --- ---- ---- ------- ----- ---- -------<br>--- --- -- ----- -- --- ---- -- --- ---- -- ------ ------<br>--- ----- -- ----,114188.69999998808,114187.5,113911.519,113924.69999998808,113928.079,114194.674,,14,feeling
screen,html.Screen,2_1_0_1_15,2022-02-02T13:45:43.704Z,,,,,,,,,,,,,,,,,53,,,,,,,,,,,,,,241.6259999970207,,response,,,,99,,,,,,,Space,keypress(Space),,,,,,,,---- -- ----- -- ------ - ------- --- ----------<br>------------- ------ ------ ---- ---- ------- close -- ----<br>-------- ------- -- ---------- --- - --- ----- ----- ----<br>---- --- --- ----- --- ---- ---- ------- ----- ---- -------<br>--- --- -- ----- -- --- ---- -- --- ---- -- ------ ------<br>--- ----- -- ----,114437.59999999404,114436.29999999702,114178.145,114189,114194.674,114444.651,,15,close
screen,html.Screen,2_1_0_1_16,2022-02-02T13:45:43.975Z,,,,,,,,,,,,,,,,,53,,,,,,,,,,,,,,262.9489999940415,,response,,,,99,,,,,,,Space,keypress(Space),,,,,,,,---- -- ----- -- ------ - ------- --- ----------<br>------------- ------ ------ ---- ---- ------- ----- to ----<br>-------- ------- -- ---------- --- - --- ----- ----- ----<br>---- --- --- ----- --- ---- ---- ------- ----- ---- -------<br>--- --- -- ----- -- --- ---- -- --- ---- -- ------ ------<br>--- ----- -- ----,114708.79999999702,114707.59999999404,114428.102,114437.79999999702,114444.651,114711.251,,16,to
screen,html.Screen,2_1_0_1_17,2022-02-02T13:45:44.295Z,,,,,,,,,,,,,,,,,53,,,,,,,,,,,,,,316.0489999970159,,response,,,,99,,,,,,,Space,keypress(Space),,,,,,,,---- -- ----- -- ------ - ------- --- ----------<br>------------- ------ ------ ---- ---- ------- ----- -- your<br>-------- ------- -- ---------- --- - --- ----- ----- ----<br>---- --- --- ----- --- ---- ---- ------- ----- ---- -------<br>--- --- -- ----- -- --- ---- -- --- ---- -- ------ ------<br>--- ----- -- ----,115028.79999999702,115027.29999999702,114694.651,114709,114711.251,115044.592,,17,your
screen,html.Screen,2_1_0_1_18,2022-02-02T13:45:44.523Z,,,,,,,,,,,,,,,,,53,,,,,,,,,,,,,,210.70799999701558,,response,,,,99,,,,,,,Space,keypress(Space),,,,,,,,---- -- ----- -- ------ - ------- --- ----------<br>------------- ------ ------ ---- ---- ------- ----- -- ----<br>romantic ------- -- ---------- --- - --- ----- ----- ----<br>---- --- --- ----- --- ---- ---- ------- ----- ---- -------<br>--- --- -- ----- -- --- ---- -- --- ---- -- ------ ------<br>--- ----- -- ----,115256.59999999404,115255.29999999702,115027.913,115029.09999999404,115044.592,115261.193,,18,romantic
screen,html.Screen,2_1_0_1_19,2022-02-02T13:45:44.749Z,,,,,,,,,,,,,,,,,53,,,,,,,,,,,,,,220.8070000000007,,response,,,,99,,,,,,,Space,keypress(Space),,,,,,,,---- -- ----- -- ------ - ------- --- ----------<br>------------- ------ ------ ---- ---- ------- ----- -- ----<br>-------- partner -- ---------- --- - --- ----- ----- ----<br>---- --- --- ----- --- ---- ---- ------- ----- ---- -------<br>--- --- -- ----- -- --- ---- -- --- ---- -- ------ ------<br>--- ----- -- ----,115483.19999998808,115482,115244.76,115256.89999999106,115261.193,115494.451,,19,partner
screen,html.Screen,2_1_0_1_20,2022-02-02T13:45:44.920Z,,,,,,,,,,,,,,,,,53,,,,,,,,,,,,,,158.1489999940386,,response,,,,99,,,,,,,Space,keypress(Space),,,,,,,,---- -- ----- -- ------ - ------- --- ----------<br>------------- ------ ------ ---- ---- ------- ----- -- ----<br>-------- ------- is ---------- --- - --- ----- ----- ----<br>---- --- --- ----- --- ---- ---- ------- ----- ---- -------<br>--- --- -- ----- -- --- ---- -- --- ---- -- ------ ------<br>--- ----- -- ----,115653.69999998808,115652.59999999404,115477.935,115483.39999999106,115494.451,115661.128,,20,is
screen,html.Screen,2_1_0_1_21,2022-02-02T13:45:45.139Z,,,,,,,,,,,,,,,,,53,,,,,,,,,,,,,,210.77199999106233,,response,,,,99,,,,,,,Space,keypress(Space),,,,,,,,---- -- ----- -- ------ - ------- --- ----------<br>------------- ------ ------ ---- ---- ------- ----- -- ----<br>-------- ------- -- paramount. --- - --- ----- ----- ----<br>---- --- --- ----- --- ---- ---- ------- ----- ---- -------<br>--- --- -- ----- -- --- ---- -- --- ---- -- ------ ------<br>--- ----- -- ----,115873.19999998808,115871.89999999106,115644.459,115653.89999999106,115661.128,115877.761,,21,paramount.
screen,html.Screen,2_1_0_1_22,2022-02-02T13:45:45.373Z,,,,,,,,,,,,,,,,,53,,,,,,,,,,,,,,227.2390000000014,,response,,,,99,,,,,,,Space,keypress(Space),,,,,,,,---- -- ----- -- ------ - ------- --- ----------<br>------------- ------ ------ ---- ---- ------- ----- -- ----<br>-------- ------- -- ---------- But - --- ----- ----- ----<br>---- --- --- ----- --- ---- ---- ------- ----- ---- -------<br>--- --- -- ----- -- --- ---- -- --- ---- -- ------ ------<br>--- ----- -- ----,116106.5,116105,115861.201,115873.39999999106,115877.761,116111.074,,22,But
screen,html.Screen,2_1_0_1_23,2022-02-02T13:45:45.593Z,,,,,,,,,,,,,,,,,53,,,,,,,,,,,,,,214.5259999940463,,response,,,,99,,,,,,,Space,keypress(Space),,,,,,,,---- -- ----- -- ------ - ------- --- ----------<br>------------- ------ ------ ---- ---- ------- ----- -- ----<br>-------- ------- -- ---------- --- a --- ----- ----- ----<br>---- --- --- ----- --- ---- ---- ------- ----- ---- -------<br>--- --- -- ----- -- --- ---- -- --- ---- -- ------ ------<br>--- ----- -- ----,116327.09999999404,116325.59999999404,116094.489,116106.69999998808,116111.074,116344.454,,23,a
screen,html.Screen,2_1_0_1_24,2022-02-02T13:45:46.486Z,,,,,,,,,,,,,,,,,53,,,,,,,,,,,,,,874.1459999940416,,response,,,,99,,,,,,,Space,keypress(Space),,,,,,,,---- -- ----- -- ------ - ------- --- ----------<br>------------- ------ ------ ---- ---- ------- ----- -- ----<br>-------- ------- -- ---------- --- - new ----- ----- ----<br>---- --- --- ----- --- ---- ---- ------- ----- ---- -------<br>--- --- -- ----- -- --- ---- -- --- ---- -- ------ ------<br>--- ----- -- ----,117220,117218.59999999404,116327.693,116327.29999999702,116344.454,117227.53,,24,new
screen,html.Screen,2_1_0_1_25,2022-02-02T13:45:46.885Z,,,,,,,,,,,,,,,,,53,,,,,,,,,,,,,,389.5699999940407,,response,,,,99,,,,,,,Space,keypress(Space),,,,,,,,---- -- ----- -- ------ - ------- --- ----------<br>------------- ------ ------ ---- ---- ------- ----- -- ----<br>-------- ------- -- ---------- --- - --- study ----- ----<br>---- --- --- ----- --- ---- ---- ------- ----- ---- -------<br>--- --- -- ----- -- --- ---- -- --- ---- -- ------ ------<br>--- ----- -- ----,117618.39999999106,117617.09999999404,117210.974,117220.29999999702,117227.53,117627.545,,25,study
screen,html.Screen,2_1_0_1_26,2022-02-02T13:45:47.310Z,,,,,,,,,,,,,,,,,53,,,,,,,,,,,,,,414.6549999880808,,response,,,,99,,,,,,,Space,keypress(Space),,,,,,,,---- -- ----- -- ------ - ------- --- ----------<br>------------- ------ ------ ---- ---- ------- ----- -- ----<br>-------- ------- -- ---------- --- - --- ----- finds ----<br>---- --- --- ----- --- ---- ---- ------- ----- ---- -------<br>--- --- -- ----- -- --- ---- -- --- ---- -- ------ ------<br>--- ----- -- ----,118043.59999999404,118042.19999998808,117610.916,117618.69999998808,117627.545,118060.824,,26,finds
screen,html.Screen,2_1_0_1_27,2022-02-02T13:45:47.556Z,,,,,,,,,,,,,,,,,53,,,,,,,,,,,,,,227.7759999940463,,response,,,,99,,,,,,,Space,keypress(Space),,,,,,,,---- -- ----- -- ------ - ------- --- ----------<br>------------- ------ ------ ---- ---- ------- ----- -- ----<br>-------- ------- -- ---------- --- - --- ----- ----- that<br>---- --- --- ----- --- ---- ---- ------- ----- ---- -------<br>--- --- -- ----- -- --- ---- -- --- ---- -- ------ ------<br>--- ----- -- ----,118289.89999999106,118288.59999999404,118044.055,118043.79999999702,118060.824,118294.048,,27,that
screen,html.Screen,2_1_0_1_28,2022-02-02T13:45:47.918Z,,,,,,,,,,,,,,,,,53,,,,,,,,,,,,,,356.5519999940443,,response,,,,99,,,,,,,Space,keypress(Space),,,,,,,,---- -- ----- -- ------ - ------- --- ----------<br>------------- ------ ------ ---- ---- ------- ----- -- ----<br>-------- ------- -- ---------- --- - --- ----- ----- ----<br>it's --- --- ----- --- ---- ---- ------- ----- ---- -------<br>--- --- -- ----- -- --- ---- -- --- ---- -- ------ ------<br>--- ----- -- ----,118651.89999999106,118650.59999999404,118277.465,118290.19999998808,118294.048,118660.855,,28,it's
screen,html.Screen,2_1_0_1_29,2022-02-02T13:45:48.192Z,,,,,,,,,,,,,,,,,53,,,,,,,,,,,,,,263.84499998808315,,response,,,,99,,,,,,,Space,keypress(Space),,,,,,,,---- -- ----- -- ------ - ------- --- ----------<br>------------- ------ ------ ---- ---- ------- ----- -- ----<br>-------- ------- -- ---------- --- - --- ----- ----- ----<br>---- not --- ----- --- ---- ---- ------- ----- ---- -------<br>--- --- -- ----- -- --- ---- -- --- ---- -- ------ ------<br>--- ----- -- ----,118926,118924.69999998808,118644.071,118652.19999998808,118660.855,118927.267,,29,not
screen,html.Screen,2_1_0_1_30,2022-02-02T13:45:48.441Z,,,,,,,,,,,,,,,,,53,,,,,,,,,,,,,,246.33299999403243,,response,,,,99,,,,,,,Space,keypress(Space),,,,,,,,---- -- ----- -- ------ - ------- --- ----------<br>------------- ------ ------ ---- ---- ------- ----- -- ----<br>-------- ------- -- ---------- --- - --- ----- ----- ----<br>---- --- how ----- --- ---- ---- ------- ----- ---- -------<br>--- --- -- ----- -- --- ---- -- --- ---- -- ------ ------<br>--- ----- -- ----,119175,119173.59999999404,118910.703,118926.29999999702,118927.267,119177.202,,30,how
screen,html.Screen,2_1_0_1_31,2022-02-02T13:45:48.689Z,,,,,,,,,,,,,,,,,53,,,,,,,,,,,,,,244.79799999999523,,response,,,,99,,,,,,,Space,keypress(Space),,,,,,,,---- -- ----- -- ------ - ------- --- ----------<br>------------- ------ ------ ---- ---- ------- ----- -- ----<br>-------- ------- -- ---------- --- - --- ----- ----- ----<br>---- --- --- close --- ---- ---- ------- ----- ---- -------<br>--- --- -- ----- -- --- ---- -- --- ---- -- ------ ------<br>--- ----- -- ----,119423.19999998808,119422,119160.653,119175.19999998808,119177.202,119427.109,,31,close
screen,html.Screen,2_1_0_1_32,2022-02-02T13:45:48.945Z,,,,,,,,,,,,,,,,,53,,,,,,,,,,,,,,249.79099999106256,,response,,,,99,,,,,,,Space,keypress(Space),,,,,,,,---- -- ----- -- ------ - ------- --- ----------<br>------------- ------ ------ ---- ---- ------- ----- -- ----<br>-------- ------- -- ---------- --- - --- ----- ----- ----<br>---- --- --- ----- you ---- ---- ------- ----- ---- -------<br>--- --- -- ----- -- --- ---- -- --- ---- -- ------ ------<br>--- ----- -- ----,119678.39999999106,119676.89999999106,119410.497,119423.59999999404,119427.109,119693.966,,32,you
screen,html.Screen,2_1_0_1_33,2022-02-02T13:45:49.197Z,,,,,,,,,,,,,,,,,53,,,,,,,,,,,,,,235.53399999999965,,response,,,,99,,,,,,,Space,keypress(Space),,,,,,,,---- -- ----- -- ------ - ------- --- ----------<br>------------- ------ ------ ---- ---- ------- ----- -- ----<br>-------- ------- -- ---------- --- - --- ----- ----- ----<br>---- --- --- ----- --- feel ---- ------- ----- ---- -------<br>--- --- -- ----- -- --- ---- -- --- ---- -- ------ ------<br>--- ----- -- ----,119930.89999999106,119929.5,119677.139,119678.69999998808,119693.966,119943.921,,33,feel
screen,html.Screen,2_1_0_1_34,2022-02-02T13:45:49.411Z,,,,,,,,,,,,,,,,,53,,,,,,,,,,,,,,198.77899998807698,,response,,,,99,,,,,,,Space,keypress(Space),,,,,,,,---- -- ----- -- ------ - ------- --- ----------<br>------------- ------ ------ ---- ---- ------- ----- -- ----<br>-------- ------- -- ---------- --- - --- ----- ----- ----<br>---- --- --- ----- --- ---- that ------- ----- ---- -------<br>--- --- -- ----- -- --- ---- -- --- ---- -- ------ ------<br>--- ----- -- ----,120144.29999999702,120142.69999998808,119927.195,119931.09999999404,119943.921,120160.598,,34,that
screen,html.Screen,2_1_0_1_35,2022-02-02T13:45:49.581Z,,,,,,,,,,,,,,,,,53,,,,,,,,,,,,,,151.0019999940414,,response,,,,99,,,,,,,Space,keypress(Space),,,,,,,,---- -- ----- -- ------ - ------- --- ----------<br>------------- ------ ------ ---- ---- ------- ----- -- ----<br>-------- ------- -- ---------- --- - --- ----- ----- ----<br>---- --- --- ----- --- ---- ---- matters ----- ---- -------<br>--- --- -- ----- -- --- ---- -- --- ---- -- ------ ------<br>--- ----- -- ----,120315.09999999404,120311.59999999404,120143.72,120144.59999999404,120160.598,120326.994,,35,matters
screen,html.Screen,2_1_0_1_36,2022-02-02T13:45:49.808Z,,,,,,,,,,,,,,,,,53,,,,,,,,,,,,,,213.3059999970137,,response,,,,99,,,,,,,Space,keypress(Space),,,,,,,,"---- -- ----- -- ------ - ------- --- ----------<br>------------- ------ ------ ---- ---- ------- ----- -- ----<br>-------- ------- -- ---------- --- - --- ----- ----- ----<br>---- --- --- ----- --- ---- ---- ------- most, ---- -------<br>--- --- -- ----- -- --- ---- -- --- ---- -- ------ ------<br>--- ----- -- ----",120541.59999999404,120540.29999999702,120310.37,120315.5,120326.994,120543.637,,36,"most,"
screen,html.Screen,2_1_0_1_37,2022-02-02T13:45:50.055Z,,,,,,,,,,,,,,,,,53,,,,,,,,,,,,,,243.36299999999756,,response,,,,99,,,,,,,Space,keypress(Space),,,,,,,,---- -- ----- -- ------ - ------- --- ----------<br>------------- ------ ------ ---- ---- ------- ----- -- ----<br>-------- ------- -- ---------- --- - --- ----- ----- ----<br>---- --- --- ----- --- ---- ---- ------- ----- it's -------<br>--- --- -- ----- -- --- ---- -- --- ---- -- ------ ------<br>--- ----- -- ----,120788.39999999106,120787,120527.095,120541.89999999106,120543.637,120793.614,,37,it's
screen,html.Screen,2_1_0_1_38,2022-02-02T13:45:50.582Z,,,,,,,,,,,,,,,,,53,,,,,,,,,,,,,,520.3859999999986,,response,,,,99,,,,,,,Space,keypress(Space),,,,,,,,---- -- ----- -- ------ - ------- --- ----------<br>------------- ------ ------ ---- ---- ------- ----- -- ----<br>-------- ------- -- ---------- --- - --- ----- ----- ----<br>---- --- --- ----- --- ---- ---- ------- ----- ---- whether<br>--- --- -- ----- -- --- ---- -- --- ---- -- ------ ------<br>--- ----- -- ----,121315.29999999702,121314,120777.065,120788.69999998808,120793.614,121326.992,,38,whether
screen,html.Screen,2_1_0_1_39,2022-02-02T13:45:50.871Z,,,,,,,,,,,,,,,,,53,,,,,,,,,,,,,,276.8079999970214,,response,,,,99,,,,,,,Space,keypress(Space),,,,,,,,---- -- ----- -- ------ - ------- --- ----------<br>------------- ------ ------ ---- ---- ------- ----- -- ----<br>-------- ------- -- ---------- --- - --- ----- ----- ----<br>---- --- --- ----- --- ---- ---- ------- ----- ---- -------<br>you --- -- ----- -- --- ---- -- --- ---- -- ------ ------<br>--- ----- -- ----,121605.19999998808,121603.79999999702,121310.312,121315.59999999404,121326.992,121610.158,,39,you
screen,html.Screen,2_1_0_1_40,2022-02-02T13:45:51.076Z,,,,,,,,,,,,,,,,,53,,,,,,,,,,,,,,198.54199998808326,,response,,,,99,,,,,,,Space,keypress(Space),,,,,,,,---- -- ----- -- ------ - ------- --- ----------<br>------------- ------ ------ ---- ---- ------- ----- -- ----<br>-------- ------- -- ---------- --- - --- ----- ----- ----<br>---- --- --- ----- --- ---- ---- ------- ----- ---- -------<br>--- are -- ----- -- --- ---- -- --- ---- -- ------ ------<br>--- ----- -- ----,121810.09999999404,121808.69999998808,121593.592,121605.39999999106,121610.158,121826.962,,40,are
screen,html.Screen,2_1_0_1_41,2022-02-02T13:45:51.309Z,,,,,,,,,,,,,,,,,53,,,,,,,,,,,,,,214.93799999105977,,response,,,,99,,,,,,,Space,keypress(Space),,,,,,,,---- -- ----- -- ------ - ------- --- ----------<br>------------- ------ ------ ---- ---- ------- ----- -- ----<br>-------- ------- -- ---------- --- - --- ----- ----- ----<br>---- --- --- ----- --- ---- ---- ------- ----- ---- -------<br>--- --- as ----- -- --- ---- -- --- ---- -- ------ ------<br>--- ----- -- ----,122043.5,122041.89999999106,121810.121,121810.5,121826.962,122060.268,,41,as
screen,html.Screen,2_1_0_1_42,2022-02-02T13:45:51.507Z,,,,,,,,,,,,,,,,,53,,,,,,,,,,,,,,179.6319999910629,,response,,,,99,,,,,,,Space,keypress(Space),,,,,,,,---- -- ----- -- ------ - ------- --- ----------<br>------------- ------ ------ ---- ---- ------- ----- -- ----<br>-------- ------- -- ---------- --- - --- ----- ----- ----<br>---- --- --- ----- --- ---- ---- ------- ----- ---- -------<br>--- --- -- close -- --- ---- -- --- ---- -- ------ ------<br>--- ----- -- ----,122241.19999998808,122239.89999999106,122043.407,122043.89999999106,122060.268,122243.396,,42,close
screen,html.Screen,2_1_0_1_43,2022-02-02T13:45:51.756Z,,,,,,,,,,,,,,,,,53,,,,,,,,,,,,,,245.8039999880857,,response,,,,99,,,,,,,Space,keypress(Space),,,,,,,,---- -- ----- -- ------ - ------- --- ----------<br>------------- ------ ------ ---- ---- ------- ----- -- ----<br>-------- ------- -- ---------- --- - --- ----- ----- ----<br>---- --- --- ----- --- ---- ---- ------- ----- ---- -------<br>--- --- -- ----- as --- ---- -- --- ---- -- ------ ------<br>--- ----- -- ----,122490.5,122489.19999998808,122226.819,122241.5,122243.396,122493.347,,43,as
screen,html.Screen,2_1_0_1_44,2022-02-02T13:45:51.985Z,,,,,,,,,,,,,,,,,53,,,,,,,,,,,,,,224.75299999404524,,response,,,,99,,,,,,,Space,keypress(Space),,,,,,,,---- -- ----- -- ------ - ------- --- ----------<br>------------- ------ ------ ---- ---- ------- ----- -- ----<br>-------- ------- -- ---------- --- - --- ----- ----- ----<br>---- --- --- ----- --- ---- ---- ------- ----- ---- -------<br>--- --- -- ----- -- you ---- -- --- ---- -- ------ ------<br>--- ----- -- ----,122719.39999999106,122718.09999999404,122476.779,122490.69999998808,122493.347,122726.632,,44,you
screen,html.Screen,2_1_0_1_45,2022-02-02T13:45:52.227Z,,,,,,,,,,,,,,,,,53,,,,,,,,,,,,,,233.06799998808128,,response,,,,99,,,,,,,Space,keypress(Space),,,,,,,,---- -- ----- -- ------ - ------- --- ----------<br>------------- ------ ------ ---- ---- ------- ----- -- ----<br>-------- ------- -- ---------- --- - --- ----- ----- ----<br>---- --- --- ----- --- ---- ---- ------- ----- ---- -------<br>--- --- -- ----- -- --- want -- --- ---- -- ------ ------<br>--- ----- -- ----,122961.29999999702,122959.69999998808,122710.129,122719.69999998808,122726.632,122976.771,,45,want
screen,html.Screen,2_1_0_1_46,2022-02-02T13:45:52.476Z,,,,,,,,,,,,,,,,,53,,,,,,,,,,,,,,231.9289999880857,,response,,,,99,,,,,,,Space,keypress(Space),,,,,,,,---- -- ----- -- ------ - ------- --- ----------<br>------------- ------ ------ ---- ---- ------- ----- -- ----<br>-------- ------- -- ---------- --- - --- ----- ----- ----<br>---- --- --- ----- --- ---- ---- ------- ----- ---- -------<br>--- --- -- ----- -- --- ---- to --- ---- -- ------ ------<br>--- ----- -- ----,123210.09999999404,123208.69999998808,122959.909,122961.59999999404,122976.771,123226.655,,46,to
screen,html.Screen,2_1_0_1_47,2022-02-02T13:45:52.690Z,,,,,,,,,,,,,,,,,53,,,,,,,,,,,,,,196.74499999106047,,response,,,,99,,,,,,,Space,keypress(Space),,,,,,,,"---- -- ----- -- ------ - ------- --- ----------<br>------------- ------ ------ ---- ---- ------- ----- -- ----<br>-------- ------- -- ---------- --- - --- ----- ----- ----<br>---- --- --- ----- --- ---- ---- ------- ----- ---- -------<br>--- --- -- ----- -- --- ---- -- be, ---- -- ------ ------<br>--- ----- -- ----",123424.79999999702,123423.39999999106,123209.866,123210.39999999106,123226.655,123426.482,,47,"be,"
screen,html.Screen,2_1_0_1_48,2022-02-02T13:45:52.930Z,,,,,,,,,,,,,,,,,53,,,,,,,,,,,,,,236.4179999910557,,response,,,,99,,,,,,,Space,keypress(Space),,,,,,,,---- -- ----- -- ------ - ------- --- ----------<br>------------- ------ ------ ---- ---- ------- ----- -- ----<br>-------- ------- -- ---------- --- - --- ----- ----- ----<br>---- --- --- ----- --- ---- ---- ------- ----- ---- -------<br>--- --- -- ----- -- --- ---- -- --- even -- ------ ------<br>--- ----- -- ----,123664.29999999702,123662.89999999106,123409.971,123425,123426.482,123676.508,,48,even
screen,html.Screen,2_1_0_1_49,2022-02-02T13:45:53.195Z,,,,,,,,,,,,,,,,,53,,,,,,,,,,,,,,251.79199999701814,,response,,,,99,,,,,,,Space,keypress(Space),,,,,,,,---- -- ----- -- ------ - ------- --- ----------<br>------------- ------ ------ ---- ---- ------- ----- -- ----<br>-------- ------- -- ---------- --- - --- ----- ----- ----<br>---- --- --- ----- --- ---- ---- ------- ----- ---- -------<br>--- --- -- ----- -- --- ---- -- --- ---- if ------ ------<br>--- ----- -- ----,123929.59999999404,123928.29999999702,123659.93,123664.5,123676.508,123943.254,,49,if
screen,html.Screen,2_1_0_1_50,2022-02-02T13:45:53.429Z,,,,,,,,,,,,,,,,,53,,,,,,,,,,,,,,218.94599998807826,,response,,,,99,,,,,,,Space,keypress(Space),,,,,,,,---- -- ----- -- ------ - ------- --- ----------<br>------------- ------ ------ ---- ---- ------- ----- -- ----<br>-------- ------- -- ---------- --- - --- ----- ----- ----<br>---- --- --- ----- --- ---- ---- ------- ----- ---- -------<br>--- --- -- ----- -- --- ---- -- --- ---- -- that's ------<br>--- ----- -- ----,124163.59999999404,124162.19999998808,123926.505,123929.89999999106,123943.254,124176.532,,50,that's
screen,html.Screen,2_1_0_1_51,2022-02-02T13:45:53.870Z,,,,,,,,,,,,,,,,,53,,,,,,,,,,,,,,426.4679999999935,,response,,,,99,,,,,,,Space,keypress(Space),,,,,,,,---- -- ----- -- ------ - ------- --- ----------<br>------------- ------ ------ ---- ---- ------- ----- -- ----<br>-------- ------- -- ---------- --- - --- ----- ----- ----<br>---- --- --- ----- --- ---- ---- ------- ----- ---- -------<br>--- --- -- ----- -- --- ---- -- --- ---- -- ------ really<br>--- ----- -- ----,124604.29999999702,124603,124159.851,124163.89999999106,124176.532,124609.637,,51,really
screen,html.Screen,2_1_0_1_52,2022-02-02T13:45:54.239Z,,,,,,,,,,,,,,,,,53,,,,,,,,,,,,,,362.5629999880766,,response,,,,99,,,,,,,Space,keypress(Space),,,,,,,,---- -- ----- -- ------ - ------- --- ----------<br>------------- ------ ------ ---- ---- ------- ----- -- ----<br>-------- ------- -- ---------- --- - --- ----- ----- ----<br>---- --- --- ----- --- ---- ---- ------- ----- ---- -------<br>--- --- -- ----- -- --- ---- -- --- ---- -- ------ ------<br>not ----- -- ----,124973.59999999404,124972.19999998808,124593.124,124604.59999999404,124609.637,124976.305,,52,not
screen,html.Screen,2_1_0_1_53,2022-02-02T13:45:54.654Z,,,,,,,,,,,,,,,,,53,,,,,,,,,,,,,,410.89499998808606,,response,,,,99,,,,,,,Space,keypress(Space),,,,,,,,---- -- ----- -- ------ - ------- --- ----------<br>------------- ------ ------ ---- ---- ------- ----- -- ----<br>-------- ------- -- ---------- --- - --- ----- ----- ----<br>---- --- --- ----- --- ---- ---- ------- ----- ---- -------<br>--- --- -- ----- -- --- ---- -- --- ---- -- ------ ------<br>--- close -- ----,125388.5,125387.19999998808,124959.719,124973.89999999106,124976.305,125392.862,,53,close
screen,html.Screen,2_1_0_1_54,2022-02-02T13:45:54.951Z,,,,,,,,,,,,,,,,,53,,,,,,,,,,,,,,290.83799998808536,,response,,,,99,,,,,,,Space,keypress(Space),,,,,,,,---- -- ----- -- ------ - ------- --- ----------<br>------------- ------ ------ ---- ---- ------- ----- -- ----<br>-------- ------- -- ---------- --- - --- ----- ----- ----<br>---- --- --- ----- --- ---- ---- ------- ----- ---- -------<br>--- --- -- ----- -- --- ---- -- --- ---- -- ------ ------<br>--- ----- at ----,125685.09999999404,125683.69999998808,125376.299,125388.79999999702,125392.862,125692.785,,54,at
screen,html.Screen,2_1_0_1_55,2022-02-02T13:45:55.141Z,,,,,,,,,,,,,,,,,53,,,,,,,,,,,,,,181.1149999910558,,response,,,,99,,,,,,,Space,keypress(Space),,,,,,,,---- -- ----- -- ------ - ------- --- ----------<br>------------- ------ ------ ---- ---- ------- ----- -- ----<br>-------- ------- -- ---------- --- - --- ----- ----- ----<br>---- --- --- ----- --- ---- ---- ------- ----- ---- -------<br>--- --- -- ----- -- --- ---- -- --- ---- -- ------ ------<br>--- ----- -- all.,125875.29999999702,125873.89999999106,125676.218,125685.5,125692.785,125892.781,,55,all.
Item 99,flow.Loop,2_1_0_1,2022-02-02T13:45:55.142Z,,,,,,,,,,,,,,,,,,,,,,,,,,,,,,,17911.58599999106,,completion,,,,,B,,,,,,,,,,,silence,,,,,125876,125873.89999999106,107929.155,107930.5,107962.314,125892.781,,,
Question 1,html.Screen,2_1_0_2,2022-02-02T13:46:00.581Z,,,,,,,,,,,,,,,,,,,,,,,,,,,,false,FALSE,,5421.518999997017,,response,,,,99,B,,,,,,TRUE,click #choice-1,,,,silence,,,,,131315.09999999404,131314.29999999702,125876.106,125876.29999999702,125892.781,131325.154,,,
Question 2,html.Screen,2_1_0_3,2022-02-02T13:46:04.221Z,,,,,,,,,,,,,,,,,,,,,,,,,,,,true,TRUE,,3629.3459999999905,,response,,,,99,B,,,,,,TRUE,click #choice-1,,,,silence,,,,,134955.29999999702,134954.5,131308.485,131315.29999999702,131325.154,134957.911,,,
Item 99,flow.Sequence,2_1_0,2022-02-02T13:46:04.221Z,,,,,,,,,,,,,,,,,,,,,,,,,,,,,,,37007.25199999999,,completion,,,,,,,,,,,,,,,,,,,,,134955.39999999106,134954.5,97930.631,97932.5,97947.248,134957.911,,,
Holding screen,html.Screen,2_1_1_0,2022-02-02T13:46:14.207Z,,,,,,,,,,,,,,,,,,,,,,,,,,,,,,,9998.402000000002,,timeout,,,,,,,,,,,,,,,,,,,,,144941,144939.88,134941.399,134955.59999999404,134957.911,144956.313,,,
screen,html.Screen,2_1_1_1_0,2022-02-02T13:46:15.029Z,,,,,,,,,,,,,,,,,54,,,,,,,,,,,,,,805.7869999940449,,response,,,,100,,,,,,,Space,keypress(Space),,,,,,,,At --- ---- --- ------ ----- ------- ---- -- --- ------- --<br>------- ---------- ------ -- ----- -- ----- -- ---- ------<br>--- ----- --- --- ------ -------- ----- --- ------ ----- --<br>----- ----- ---------- --- --- ------ ------ ---- -- ------<br>------- --- ------ ----- --- ---- ------- -- ---- --- --<br>------- ------,145763.29999999702,145762.09999999404,144939.88,144941.29999999702,144956.313,145772.887,,0,At
screen,html.Screen,2_1_1_1_1,2022-02-02T13:46:15.363Z,,,,,,,,,,,,,,,,,54,,,,,,,,,,,,,,322.9129999970319,,response,,,,100,,,,,,,Space,keypress(Space),,,,,,,,-- the ---- --- ------ ----- ------- ---- -- --- ------- --<br>------- ---------- ------ -- ----- -- ----- -- ---- ------<br>--- ----- --- --- ------ -------- ----- --- ------ ----- --<br>----- ----- ---------- --- --- ------ ------ ---- -- ------<br>------- --- ------ ----- --- ---- ------- -- ---- --- --<br>------- ------,146096.89999999106,146095.79999999702,145756.263,145763.5,145772.887,146106.196,,1,the
screen,html.Screen,2_1_1_1_2,2022-02-02T13:46:15.764Z,,,,,,,,,,,,,,,,,54,,,,,,,,,,,,,,390.90399999404326,,response,,,,100,,,,,,,Space,keypress(Space),,,,,,,,-- --- time --- ------ ----- ------- ---- -- --- ------- --<br>------- ---------- ------ -- ----- -- ----- -- ---- ------<br>--- ----- --- --- ------ -------- ----- --- ------ ----- --<br>----- ----- ---------- --- --- ------ ------ ---- -- ------<br>------- --- ------ ----- --- ---- ------- -- ---- --- --<br>------- ------,146498.19999998808,146497.09999999404,146089.601,146097.19999998808,146106.196,146506.152,,2,time
screen,html.Screen,2_1_1_1_3,2022-02-02T13:46:15.995Z,,,,,,,,,,,,,,,,,54,,,,,,,,,,,,,,222.24799999105744,,response,,,,100,,,,,,,Space,keypress(Space),,,,,,,,-- --- ---- the ------ ----- ------- ---- -- --- ------- --<br>------- ---------- ------ -- ----- -- ----- -- ---- ------<br>--- ----- --- --- ------ -------- ----- --- ------ ----- --<br>----- ----- ---------- --- --- ------ ------ ---- -- ------<br>------- --- ------ ----- --- ---- ------- -- ---- --- --<br>------- ------,146729.5,146728.39999999106,146489.526,146498.5,146506.152,146739.372,,3,the
screen,html.Screen,2_1_1_1_4,2022-02-02T13:46:16.225Z,,,,,,,,,,,,,,,,,54,,,,,,,,,,,,,,219.12799999999697,,response,,,,100,,,,,,,Space,keypress(Space),,,,,,,,-- --- ---- --- French ----- ------- ---- -- --- ------- --<br>------- ---------- ------ -- ----- -- ----- -- ---- ------<br>--- ----- --- --- ------ -------- ----- --- ------ ----- --<br>----- ----- ---------- --- --- ------ ------ ---- -- ------<br>------- --- ------ ----- --- ---- ------- -- ---- --- --<br>------- ------,146959.59999999404,146958.5,146722.886,146729.89999999106,146739.372,146972.806,,4,French
screen,html.Screen,2_1_1_1_5,2022-02-02T13:46:16.622Z,,,,,,,,,,,,,,,,,54,,,,,,,,,,,,,,381.6939999999886,,response,,,,100,,,,,,,Space,keypress(Space),,,,,,,,-- --- ---- --- ------ crown ------- ---- -- --- ------- --<br>------- ---------- ------ -- ----- -- ----- -- ---- ------<br>--- ----- --- --- ------ -------- ----- --- ------ ----- --<br>----- ----- ---------- --- --- ------ ------ ---- -- ------<br>------- --- ------ ----- --- ---- ------- -- ---- --- --<br>------- ------,147355.89999999106,147354.5,146956.065,146959.79999999702,146972.806,147372.611,,5,crown
screen,html.Screen,2_1_1_1_6,2022-02-02T13:46:17.002Z,,,,,,,,,,,,,,,,,54,,,,,,,,,,,,,,362.4889999940351,,response,,,,100,,,,,,,Space,keypress(Space),,,,,,,,-- --- ---- --- ------ ----- secured ---- -- --- ------- --<br>------- ---------- ------ -- ----- -- ----- -- ---- ------<br>--- ----- --- --- ------ -------- ----- --- ------ ----- --<br>----- ----- ---------- --- --- ------ ------ ---- -- ------<br>------- --- ------ ----- --- ---- ------- -- ---- --- --<br>------- ------,147736.19999998808,147735.09999999404,147355.937,147356.29999999702,147372.611,147739.221,,6,secured
screen,html.Screen,2_1_1_1_7,2022-02-02T13:46:17.407Z,,,,,,,,,,,,,,,,,54,,,,,,,,,,,,,,401.17899999106885,,response,,,,100,,,,,,,Space,keypress(Space),,,,,,,,-- --- ---- --- ------ ----- ------- much -- --- ------- --<br>------- ---------- ------ -- ----- -- ----- -- ---- ------<br>--- ----- --- --- ------ -------- ----- --- ------ ----- --<br>----- ----- ---------- --- --- ------ ------ ---- -- ------<br>------- --- ------ ----- --- ---- ------- -- ---- --- --<br>------- ------,148141.59999999404,148140.39999999106,147722.683,147736.5,147739.221,148155.843,,7,much
screen,html.Screen,2_1_1_1_8,2022-02-02T13:46:17.750Z,,,,,,,,,,,,,,,,,54,,,,,,,,,,,,,,326.8569999880856,,response,,,,100,,,,,,,Space,keypress(Space),,,,,,,,-- --- ---- --- ------ ----- ------- ---- of --- ------- --<br>------- ---------- ------ -- ----- -- ----- -- ---- ------<br>--- ----- --- --- ------ -------- ----- --- ------ ----- --<br>----- ----- ---------- --- --- ------ ------ ---- -- ------<br>------- --- ------ ----- --- ---- ------- -- ---- --- --<br>------- ------,148484.5,148482.69999998808,148139.132,148141.79999999702,148155.843,148489.074,,8,of
screen,html.Screen,2_1_1_1_9,2022-02-02T13:46:18.026Z,,,,,,,,,,,,,,,,,54,,,,,,,,,,,,,,270.1259999880858,,response,,,,100,,,,,,,Space,keypress(Space),,,,,,,,-- --- ---- --- ------ ----- ------- ---- -- its ------- --<br>------- ---------- ------ -- ----- -- ----- -- ---- ------<br>--- ----- --- --- ------ -------- ----- --- ------ ----- --<br>----- ----- ---------- --- --- ------ ------ ---- -- ------<br>------- --- ------ ----- --- ---- ------- -- ---- --- --<br>------- ------,148760.29999999702,148759.19999998808,148472.545,148484.79999999702,148489.074,148772.514,,9,its
screen,html.Screen,2_1_1_1_10,2022-02-02T13:46:18.247Z,,,,,,,,,,,,,,,,,54,,,,,,,,,,,,,,207.88599999106373,,response,,,,100,,,,,,,Space,keypress(Space),,,,,,,,-- --- ---- --- ------ ----- ------- ---- -- --- revenue --<br>------- ---------- ------ -- ----- -- ----- -- ---- ------<br>--- ----- --- --- ------ -------- ----- --- ------ ----- --<br>----- ----- ---------- --- --- ------ ------ ---- -- ------<br>------- --- ------ ----- --- ---- ------- -- ---- --- --<br>------- ------,148981.59999999404,148980.39999999106,148755.734,148760.5,148772.514,148989.009,,10,revenue
screen,html.Screen,2_1_1_1_11,2022-02-02T13:46:18.570Z,,,,,,,,,,,,,,,,,54,,,,,,,,,,,,,,314.0909999940486,,response,,,,100,,,,,,,Space,keypress(Space),,,,,,,,-- --- ---- --- ------ ----- ------- ---- -- --- ------- by<br>------- ---------- ------ -- ----- -- ----- -- ---- ------<br>--- ----- --- --- ------ -------- ----- --- ------ ----- --<br>----- ----- ---------- --- --- ------ ------ ---- -- ------<br>------- --- ------ ----- --- ---- ------- -- ---- --- --<br>------- ------,149304.29999999702,149303.09999999404,148972.462,148981.89999999106,148989.009,149305.62,,11,by
screen,html.Screen,2_1_1_1_12,2022-02-02T13:46:18.809Z,,,,,,,,,,,,,,,,,54,,,,,,,,,,,,,,236.67999999702442,,response,,,,100,,,,,,,Space,keypress(Space),,,,,,,,-- --- ---- --- ------ ----- ------- ---- -- --- ------- --<br>issuing ---------- ------ -- ----- -- ----- -- ---- ------<br>--- ----- --- --- ------ -------- ----- --- ------ ----- --<br>----- ----- ---------- --- --- ------ ------ ---- -- ------<br>------- --- ------ ----- --- ---- ------- -- ---- --- --<br>------- ------,149543.5,149542.29999999702,149289.079,149304.59999999404,149305.62,149555.626,,12,issuing
screen,html.Screen,2_1_1_1_13,2022-02-02T13:46:19.103Z,,,,,,,,,,,,,,,,,54,,,,,,,,,,,,,,280.8740000000107,,response,,,,100,,,,,,,Space,keypress(Space),,,,,,,,-- --- ---- --- ------ ----- ------- ---- -- --- ------- --<br>------- government ------ -- ----- -- ----- -- ---- ------<br>--- ----- --- --- ------ -------- ----- --- ------ ----- --<br>----- ----- ---------- --- --- ------ ------ ---- -- ------<br>------- --- ------ ----- --- ---- ------- -- ---- --- --<br>------- ------,149837.59999999404,149836.5,149539.037,149543.79999999702,149555.626,149838.874,,13,government
screen,html.Screen,2_1_1_1_14,2022-02-02T13:46:19.778Z,,,,,,,,,,,,,,,,,54,,,,,,,,,,,,,,672.3259999880684,,response,,,,100,,,,,,,Space,keypress(Space),,,,,,,,-- --- ---- --- ------ ----- ------- ---- -- --- ------- --<br>------- ---------- bonds. -- ----- -- ----- -- ---- ------<br>--- ----- --- --- ------ -------- ----- --- ------ ----- --<br>----- ----- ---------- --- --- ------ ------ ---- -- ------<br>------- --- ------ ----- --- ---- ------- -- ---- --- --<br>------- ------,150512.29999999702,150511.19999998808,149822.34,149837.79999999702,149838.874,150522.067,,14,bonds.
screen,html.Screen,2_1_1_1_15,2022-02-02T13:46:20.607Z,,,,,,,,,,,,,,,,,54,,,,,,,,,,,,,,818.2329999970098,,response,,,,100,,,,,,,Space,keypress(Space),,,,,,,,-- --- ---- --- ------ ----- ------- ---- -- --- ------- --<br>------- ---------- ------ In ----- -- ----- -- ---- ------<br>--- ----- --- --- ------ -------- ----- --- ------ ----- --<br>----- ----- ---------- --- --- ------ ------ ---- -- ------<br>------- --- ------ ----- --- ---- ------- -- ---- --- --<br>------- ------,151341.5,151340.29999999702,150505.516,150512.5,150522.067,151355.364,,15,In
screen,html.Screen,2_1_1_1_16,2022-02-02T13:46:21.042Z,,,,,,,,,,,,,,,,,54,,,,,,,,,,,,,,419.93599999701837,,response,,,,100,,,,,,,Space,keypress(Space),,,,,,,,"-- --- ---- --- ------ ----- ------- ---- -- --- ------- --<br>------- ---------- ------ -- 1727, -- ----- -- ---- ------<br>--- ----- --- --- ------ -------- ----- --- ------ ----- --<br>----- ----- ---------- --- --- ------ ------ ---- -- ------<br>------- --- ------ ----- --- ---- ------- -- ---- --- --<br>------- ------",151776.59999999404,151775.29999999702,151338.684,151341.69999998808,151355.364,151788.637,,16,"1727,"
screen,html.Screen,2_1_1_1_17,2022-02-02T13:46:22.072Z,,,,,,,,,,,,,,,,,54,,,,,,,,,,,,,,1015.9629999940516,,response,,,,100,,,,,,,Space,keypress(Space),,,,,,,,-- --- ---- --- ------ ----- ------- ---- -- --- ------- --<br>------- ---------- ------ -- ----- in ----- -- ---- ------<br>--- ----- --- --- ------ -------- ----- --- ------ ----- --<br>----- ----- ---------- --- --- ------ ------ ---- -- ------<br>------- --- ------ ----- --- ---- ------- -- ---- --- --<br>------- ------,152806.09999999404,152804.59999999404,151771.888,151776.89999999106,151788.637,152821.887,,17,in
screen,html.Screen,2_1_1_1_18,2022-02-02T13:46:22.463Z,,,,,,,,,,,,,,,,,54,,,,,,,,,,,,,,374.8129999880912,,response,,,,100,,,,,,,Space,keypress(Space),,,,,,,,-- --- ---- --- ------ ----- ------- ---- -- --- ------- --<br>------- ---------- ------ -- ----- -- order -- ---- ------<br>--- ----- --- --- ------ -------- ----- --- ------ ----- --<br>----- ----- ---------- --- --- ------ ------ ---- -- ------<br>------- --- ------ ----- --- ---- ------- -- ---- --- --<br>------- ------,153197.79999999702,153196.69999998808,152805.066,152806.29999999702,152821.887,153204.979,,18,order
screen,html.Screen,2_1_1_1_19,2022-02-02T13:46:22.711Z,,,,,,,,,,,,,,,,,54,,,,,,,,,,,,,,239.62099999404745,,response,,,,100,,,,,,,Space,keypress(Space),,,,,,,,-- --- ---- --- ------ ----- ------- ---- -- --- ------- --<br>------- ---------- ------ -- ----- -- ----- to ---- ------<br>--- ----- --- --- ------ -------- ----- --- ------ ----- --<br>----- ----- ---------- --- --- ------ ------ ---- -- ------<br>------- --- ------ ----- --- ---- ------- -- ---- --- --<br>------- ------,153445.89999999106,153444.59999999404,153188.441,153198,153204.979,153454.919,,19,to
screen,html.Screen,2_1_1_1_20,2022-02-02T13:46:22.924Z,,,,,,,,,,,,,,,,,54,,,,,,,,,,,,,,202.38099999702536,,response,,,,100,,,,,,,Space,keypress(Space),,,,,,,,-- --- ---- --- ------ ----- ------- ---- -- --- ------- --<br>------- ---------- ------ -- ----- -- ----- -- save ------<br>--- ----- --- --- ------ -------- ----- --- ------ ----- --<br>----- ----- ---------- --- --- ------ ------ ---- -- ------<br>------- --- ------ ----- --- ---- ------- -- ---- --- --<br>------- ------,153658.59999999404,153657.29999999702,153438.399,153446.09999999404,153454.919,153671.749,,20,save
screen,html.Screen,2_1_1_1_21,2022-02-02T13:46:23.269Z,,,,,,,,,,,,,,,,,54,,,,,,,,,,,,,,329.95099998806836,,response,,,,100,,,,,,,Space,keypress(Space),,,,,,,,"-- --- ---- --- ------ ----- ------- ---- -- --- ------- --<br>------- ---------- ------ -- ----- -- ----- -- ---- money,<br>--- ----- --- --- ------ -------- ----- --- ------ ----- --<br>----- ----- ---------- --- --- ------ ------ ---- -- ------<br>------- --- ------ ----- --- ---- ------- -- ---- --- --<br>------- ------",154002.89999999106,154001.69999998808,153655.047,153658.69999998808,153671.749,154004.846,,21,"money,"
screen,html.Screen,2_1_1_1_22,2022-02-02T13:46:23.693Z,,,,,,,,,,,,,,,,,54,,,,,,,,,,,,,,421.4539999970293,,response,,,,100,,,,,,,Space,keypress(Space),,,,,,,,-- --- ---- --- ------ ----- ------- ---- -- --- ------- --<br>------- ---------- ------ -- ----- -- ----- -- ---- ------<br>the ----- --- --- ------ -------- ----- --- ------ ----- --<br>----- ----- ---------- --- --- ------ ------ ---- -- ------<br>------- --- ------ ----- --- ---- ------- -- ---- --- --<br>------- ------,154427.59999999404,154426.29999999702,153988.207,154003.19999998808,154004.846,154438.224,,22,the
screen,html.Screen,2_1_1_1_23,2022-02-02T13:46:24.316Z,,,,,,,,,,,,,,,,,54,,,,,,,,,,,,,,610.5759999970323,,response,,,,100,,,,,,,Space,keypress(Space),,,,,,,,-- --- ---- --- ------ ----- ------- ---- -- --- ------- --<br>------- ---------- ------ -- ----- -- ----- -- ---- ------<br>--- state --- --- ------ -------- ----- --- ------ ----- --<br>----- ----- ---------- --- --- ------ ------ ---- -- ------<br>------- --- ------ ----- --- ---- ------- -- ---- --- --<br>------- ------,155050.09999999404,155048.79999999702,154421.562,154428,154438.224,155054.66,,23,state
screen,html.Screen,2_1_1_1_24,2022-02-02T13:46:24.796Z,,,,,,,,,,,,,,,,,54,,,,,,,,,,,,,,473.43999999403604,,response,,,,100,,,,,,,Space,keypress(Space),,,,,,,,-- --- ---- --- ------ ----- ------- ---- -- --- ------- --<br>------- ---------- ------ -- ----- -- ----- -- ---- ------<br>--- ----- cut --- ------ -------- ----- --- ------ ----- --<br>----- ----- ---------- --- --- ------ ------ ---- -- ------<br>------- --- ------ ----- --- ---- ------- -- ---- --- --<br>------- ------,155530,155528.09999999404,155038.141,155050.39999999106,155054.66,155537.928,,24,cut
screen,html.Screen,2_1_1_1_25,2022-02-02T13:46:25.027Z,,,,,,,,,,,,,,,,,54,,,,,,,,,,,,,,221.87199999700533,,response,,,,100,,,,,,,Space,keypress(Space),,,,,,,,-- --- ---- --- ------ ----- ------- ---- -- --- ------- --<br>------- ---------- ------ -- ----- -- ----- -- ---- ------<br>--- ----- --- the ------ -------- ----- --- ------ ----- --<br>----- ----- ---------- --- --- ------ ------ ---- -- ------<br>------- --- ------ ----- --- ---- ------- -- ---- --- --<br>------- ------,155761.09999999404,155759.79999999702,155521.395,155530.29999999702,155537.928,155771.256,,25,the
screen,html.Screen,2_1_1_1_26,2022-02-02T13:46:25.345Z,,,,,,,,,,,,,,,,,54,,,,,,,,,,,,,,306.64399999106536,,response,,,,100,,,,,,,Space,keypress(Space),,,,,,,,-- --- ---- --- ------ ----- ------- ---- -- --- ------- --<br>------- ---------- ------ -- ----- -- ----- -- ---- ------<br>--- ----- --- --- bonds' -------- ----- --- ------ ----- --<br>----- ----- ---------- --- --- ------ ------ ---- -- ------<br>------- --- ------ ----- --- ---- ------- -- ---- --- --<br>------- ------,156079.29999999702,156077.89999999106,155754.721,155761.29999999702,155771.256,156087.856,,26,bonds'
screen,html.Screen,2_1_1_1_27,2022-02-02T13:46:25.683Z,,,,,,,,,,,,,,,,,54,,,,,,,,,,,,,,328.94399999702,,response,,,,100,,,,,,,Space,keypress(Space),,,,,,,,-- --- ---- --- ------ ----- ------- ---- -- --- ------- --<br>------- ---------- ------ -- ----- -- ----- -- ---- ------<br>--- ----- --- --- ------ interest ----- --- ------ ----- --<br>----- ----- ---------- --- --- ------ ------ ---- -- ------<br>------- --- ------ ----- --- ---- ------- -- ---- --- --<br>------- ------,156417.59999999404,156416.79999999702,156071.246,156079.59999999404,156087.856,156421.042,,27,interest
screen,html.Screen,2_1_1_1_28,2022-02-02T13:46:26.091Z,,,,,,,,,,,,,,,,,54,,,,,,,,,,,,,,403.3579999910726,,response,,,,100,,,,,,,Space,keypress(Space),,,,,,,,-- --- ---- --- ------ ----- ------- ---- -- --- ------- --<br>------- ---------- ------ -- ----- -- ----- -- ---- ------<br>--- ----- --- --- ------ -------- rate. --- ------ ----- --<br>----- ----- ---------- --- --- ------ ------ ---- -- ------<br>------- --- ------ ----- --- ---- ------- -- ---- --- --<br>------- ------,156825.09999999404,156824.39999999106,156404.371,156417.59999999404,156421.042,156837.651,,28,rate.
screen,html.Screen,2_1_1_1_29,2022-02-02T13:46:27.081Z,,,,,,,,,,,,,,,,,54,,,,,,,,,,,,,,976.7489999910467,,response,,,,100,,,,,,,Space,keypress(Space),,,,,,,,-- --- ---- --- ------ ----- ------- ---- -- --- ------- --<br>------- ---------- ------ -- ----- -- ----- -- ---- ------<br>--- ----- --- --- ------ -------- ----- The ------ ----- --<br>----- ----- ---------- --- --- ------ ------ ---- -- ------<br>------- --- ------ ----- --- ---- ------- -- ---- --- --<br>------- ------,157815.79999999702,157814.39999999106,156820.951,156825.09999999404,156837.651,157820.927,,29,The
screen,html.Screen,2_1_1_1_30,2022-02-02T13:46:27.553Z,,,,,,,,,,,,,,,,,54,,,,,,,,,,,,,,465.07300000000396,,response,,,,100,,,,,,,Space,keypress(Space),,,,,,,,-- --- ---- --- ------ ----- ------- ---- -- --- ------- --<br>------- ---------- ------ -- ----- -- ----- -- ---- ------<br>--- ----- --- --- ------ -------- ----- --- market ----- --<br>----- ----- ---------- --- --- ------ ------ ---- -- ------<br>------- --- ------ ----- --- ---- ------- -- ---- --- --<br>------- ------,158287.29999999702,158286,157804.288,157816,157820.927,158304.351,,30,market
screen,html.Screen,2_1_1_1_31,2022-02-02T13:46:27.810Z,,,,,,,,,,,,,,,,,54,,,,,,,,,,,,,,239.1490000000049,,response,,,,100,,,,,,,Space,keypress(Space),,,,,,,,-- --- ---- --- ------ ----- ------- ---- -- --- ------- --<br>------- ---------- ------ -- ----- -- ----- -- ---- ------<br>--- ----- --- --- ------ -------- ----- --- ------ value --<br>----- ----- ---------- --- --- ------ ------ ---- -- ------<br>------- --- ------ ----- --- ---- ------- -- ---- --- --<br>------- ------,158544.79999999702,158543.5,158287.509,158287.59999999404,158304.351,158554.092,,31,value
screen,html.Screen,2_1_1_1_32,2022-02-02T13:46:28.167Z,,,,,,,,,,,,,,,,,54,,,,,,,,,,,,,,345.8079999910551,,response,,,,100,,,,,,,Space,keypress(Space),,,,,,,,-- --- ---- --- ------ ----- ------- ---- -- --- ------- --<br>------- ---------- ------ -- ----- -- ----- -- ---- ------<br>--- ----- --- --- ------ -------- ----- --- ------ ----- of<br>----- ----- ---------- --- --- ------ ------ ---- -- ------<br>------- --- ------ ----- --- ---- ------- -- ---- --- --<br>------- ------,158901.29999999702,158899.89999999106,158537.57,158545,158554.092,158904.061,,32,of
screen,html.Screen,2_1_1_1_33,2022-02-02T13:46:28.528Z,,,,,,,,,,,,,,,,,54,,,,,,,,,,,,,,356.5389999940526,,response,,,,100,,,,,,,Space,keypress(Space),,,,,,,,-- --- ---- --- ------ ----- ------- ---- -- --- ------- --<br>------- ---------- ------ -- ----- -- ----- -- ---- ------<br>--- ----- --- --- ------ -------- ----- --- ------ ----- --<br>these ----- ---------- --- --- ------ ------ ---- -- ------<br>------- --- ------ ----- --- ---- ------- -- ---- --- --<br>------- ------,159262,159260.59999999404,158887.507,158901.5,158904.061,159270.644,,33,these
screen,html.Screen,2_1_1_1_34,2022-02-02T13:46:28.831Z,,,,,,,,,,,,,,,,,54,,,,,,,,,,,,,,293.65599999701953,,response,,,,100,,,,,,,Space,keypress(Space),,,,,,,,-- --- ---- --- ------ ----- ------- ---- -- --- ------- --<br>------- ---------- ------ -- ----- -- ----- -- ---- ------<br>--- ----- --- --- ------ -------- ----- --- ------ ----- --<br>----- bonds ---------- --- --- ------ ------ ---- -- ------<br>------- --- ------ ----- --- ---- ------- -- ---- --- --<br>------- ------,159565.69999998808,159564.29999999702,159254.174,159262.19999998808,159270.644,159587.468,,34,bonds
screen,html.Screen,2_1_1_1_35,2022-02-02T13:46:29.516Z,,,,,,,,,,,,,,,,,54,,,,,,,,,,,,,,661.5320000000065,,response,,,,100,,,,,,,Space,keypress(Space),,,,,,,,"-- --- ---- --- ------ ----- ------- ---- -- --- ------- --<br>------- ---------- ------ -- ----- -- ----- -- ---- ------<br>--- ----- --- --- ------ -------- ----- --- ------ ----- --<br>----- ----- plummeted, --- --- ------ ------ ---- -- ------<br>------- --- ------ ----- --- ---- ------- -- ---- --- --<br>------- ------",160250.29999999702,160249,159554.074,159565.89999999106,159587.468,160253.854,,35,"plummeted,"
screen,html.Screen,2_1_1_1_36,2022-02-02T13:46:29.912Z,,,,,,,,,,,,,,,,,54,,,,,,,,,,,,,,391.24599999404745,,response,,,,100,,,,,,,Space,keypress(Space),,,,,,,,-- --- ---- --- ------ ----- ------- ---- -- --- ------- --<br>------- ---------- ------ -- ----- -- ----- -- ---- ------<br>--- ----- --- --- ------ -------- ----- --- ------ ----- --<br>----- ----- ---------- and --- ------ ------ ---- -- ------<br>------- --- ------ ----- --- ---- ------- -- ---- --- --<br>------- ------,160646.5,160645.09999999404,160237.29,160250.59999999404,160253.854,160653.751,,36,and
screen,html.Screen,2_1_1_1_37,2022-02-02T13:46:30.213Z,,,,,,,,,,,,,,,,,54,,,,,,,,,,,,,,292.14899999107,,response,,,,100,,,,,,,Space,keypress(Space),,,,,,,,-- --- ---- --- ------ ----- ------- ---- -- --- ------- --<br>------- ---------- ------ -- ----- -- ----- -- ---- ------<br>--- ----- --- --- ------ -------- ----- --- ------ ----- --<br>----- ----- ---------- --- the ------ ------ ---- -- ------<br>------- --- ------ ----- --- ---- ------- -- ---- --- --<br>------- ------,160947.29999999702,160945.89999999106,160637.234,160646.69999998808,160653.751,160953.735,,37,the
screen,html.Screen,2_1_1_1_38,2022-02-02T13:46:30.623Z,,,,,,,,,,,,,,,,,54,,,,,,,,,,,,,,402.06499999703374,,response,,,,100,,,,,,,Space,keypress(Space),,,,,,,,-- --- ---- --- ------ ----- ------- ---- -- --- ------- --<br>------- ---------- ------ -- ----- -- ----- -- ---- ------<br>--- ----- --- --- ------ -------- ----- --- ------ ----- --<br>----- ----- ---------- --- --- market ------ ---- -- ------<br>------- --- ------ ----- --- ---- ------- -- ---- --- --<br>------- ------,161357.19999998808,161355.79999999702,160937.131,160947.59999999404,160953.735,161370.453,,38,market
screen,html.Screen,2_1_1_1_39,2022-02-02T13:46:31.031Z,,,,,,,,,,,,,,,,,54,,,,,,,,,,,,,,393.9469999910507,,response,,,,100,,,,,,,Space,keypress(Space),,,,,,,,-- --- ---- --- ------ ----- ------- ---- -- --- ------- --<br>------- ---------- ------ -- ----- -- ----- -- ---- ------<br>--- ----- --- --- ------ -------- ----- --- ------ ----- --<br>----- ----- ---------- --- --- ------ became ---- -- ------<br>------- --- ------ ----- --- ---- ------- -- ---- --- --<br>------- ------,161765.79999999702,161764.39999999106,161353.727,161357.39999999106,161370.453,161770.247,,39,became
screen,html.Screen,2_1_1_1_40,2022-02-02T13:46:31.385Z,,,,,,,,,,,,,,,,,54,,,,,,,,,,,,,,347.45299998807604,,response,,,,100,,,,,,,Space,keypress(Space),,,,,,,,-- --- ---- --- ------ ----- ------- ---- -- --- ------- --<br>------- ---------- ------ -- ----- -- ----- -- ---- ------<br>--- ----- --- --- ------ -------- ----- --- ------ ----- --<br>----- ----- ---------- --- --- ------ ------ wary -- ------<br>------- --- ------ ----- --- ---- ------- -- ---- --- --<br>------- ------,162119,162117.69999998808,161753.762,161766.09999999404,161770.247,162120.192,,40,wary
screen,html.Screen,2_1_1_1_41,2022-02-02T13:46:31.693Z,,,,,,,,,,,,,,,,,54,,,,,,,,,,,,,,305.80799999999,,response,,,,100,,,,,,,Space,keypress(Space),,,,,,,,-- --- ---- --- ------ ----- ------- ---- -- --- ------- --<br>------- ---------- ------ -- ----- -- ----- -- ---- ------<br>--- ----- --- --- ------ -------- ----- --- ------ ----- --<br>----- ----- ---------- --- --- ------ ------ ---- of ------<br>------- --- ------ ----- --- ---- ------- -- ---- --- --<br>------- ------,162427.39999999106,162426,162103.724,162119.29999999702,162120.192,162436.801,,41,of
screen,html.Screen,2_1_1_1_42,2022-02-02T13:46:32.066Z,,,,,,,,,,,,,,,,,54,,,,,,,,,,,,,,362.59899999105255,,response,,,,100,,,,,,,Space,keypress(Space),,,,,,,,-- --- ---- --- ------ ----- ------- ---- -- --- ------- --<br>------- ---------- ------ -- ----- -- ----- -- ---- ------<br>--- ----- --- --- ------ -------- ----- --- ------ ----- --<br>----- ----- ---------- --- --- ------ ------ ---- -- French<br>------- --- ------ ----- --- ---- ------- -- ---- --- --<br>------- ------,162800.69999998808,162799.39999999106,162420.276,162427.69999998808,162436.801,162803.423,,42,French
screen,html.Screen,2_1_1_1_43,2022-02-02T13:46:32.415Z,,,,,,,,,,,,,,,,,54,,,,,,,,,,,,,,344.17699999402976,,response,,,,100,,,,,,,Space,keypress(Space),,,,,,,,-- --- ---- --- ------ ----- ------- ---- -- --- ------- --<br>------- ---------- ------ -- ----- -- ----- -- ---- ------<br>--- ----- --- --- ------ -------- ----- --- ------ ----- --<br>----- ----- ---------- --- --- ------ ------ ---- -- ------<br>credit. --- ------ ----- --- ---- ------- -- ---- --- --<br>------- ------,163148.89999999106,163147.59999999404,162786.871,162800.89999999106,162803.423,163153.397,,43,credit.
screen,html.Screen,2_1_1_1_44,2022-02-02T13:46:33.085Z,,,,,,,,,,,,,,,,,54,,,,,,,,,,,,,,664.3029999880819,,response,,,,100,,,,,,,Space,keypress(Space),,,,,,,,-- --- ---- --- ------ ----- ------- ---- -- --- ------- --<br>------- ---------- ------ -- ----- -- ----- -- ---- ------<br>--- ----- --- --- ------ -------- ----- --- ------ ----- --<br>----- ----- ---------- --- --- ------ ------ ---- -- ------<br>------- The ------ ----- --- ---- ------- -- ---- --- --<br>------- ------,163819,163817.69999998808,163136.786,163149.29999999702,163153.397,163836.655,,44,The
screen,html.Screen,2_1_1_1_45,2022-02-02T13:46:33.718Z,,,,,,,,,,,,,,,,,54,,,,,,,,,,,,,,614.5449999880802,,response,,,,100,,,,,,,Space,keypress(Space),,,,,,,,-- --- ---- --- ------ ----- ------- ---- -- --- ------- --<br>------- ---------- ------ -- ----- -- ----- -- ---- ------<br>--- ----- --- --- ------ -------- ----- --- ------ ----- --<br>----- ----- ---------- --- --- ------ ------ ---- -- ------<br>------- --- French ----- --- ---- ------- -- ---- --- --<br>------- ------,164452.79999999702,164451.19999998808,163819.932,163819.29999999702,163836.655,164469.827,,45,French
screen,html.Screen,2_1_1_1_46,2022-02-02T13:46:34.085Z,,,,,,,,,,,,,,,,,54,,,,,,,,,,,,,,348.0729999910691,,response,,,,100,,,,,,,Space,keypress(Space),,,,,,,,-- --- ---- --- ------ ----- ------- ---- -- --- ------- --<br>------- ---------- ------ -- ----- -- ----- -- ---- ------<br>--- ----- --- --- ------ -------- ----- --- ------ ----- --<br>----- ----- ---------- --- --- ------ ------ ---- -- ------<br>------- --- ------ state --- ---- ------- -- ---- --- --<br>------- ------,164819.09999999404,164817.89999999106,164453.169,164453.09999999404,164469.827,164836.61,,46,state
screen,html.Screen,2_1_1_1_47,2022-02-02T13:46:34.556Z,,,,,,,,,,,,,,,,,54,,,,,,,,,,,,,,450.4899999940535,,response,,,,100,,,,,,,Space,keypress(Space),,,,,,,,-- --- ---- --- ------ ----- ------- ---- -- --- ------- --<br>------- ---------- ------ -- ----- -- ----- -- ---- ------<br>--- ----- --- --- ------ -------- ----- --- ------ ----- --<br>----- ----- ---------- --- --- ------ ------ ---- -- ------<br>------- --- ------ ----- was ---- ------- -- ---- --- --<br>------- ------,165290,165287.09999999404,164819.791,164819.5,164836.61,165303.193,,47,was
screen,html.Screen,2_1_1_1_48,2022-02-02T13:46:34.911Z,,,,,,,,,,,,,,,,,54,,,,,,,,,,,,,,340.8070000000007,,response,,,,100,,,,,,,Space,keypress(Space),,,,,,,,-- --- ---- --- ------ ----- ------- ---- -- --- ------- --<br>------- ---------- ------ -- ----- -- ----- -- ---- ------<br>--- ----- --- --- ------ -------- ----- --- ------ ----- --<br>----- ----- ---------- --- --- ------ ------ ---- -- ------<br>------- --- ------ ----- --- left ------- -- ---- --- --<br>------- ------,165645.39999999106,165644,165286.325,165290.29999999702,165303.193,165653.167,,48,left
screen,html.Screen,2_1_1_1_49,2022-02-02T13:46:35.212Z,,,,,,,,,,,,,,,,,54,,,,,,,,,,,,,,291.4329999940528,,response,,,,100,,,,,,,Space,keypress(Space),,,,,,,,-- --- ---- --- ------ ----- ------- ---- -- --- ------- --<br>------- ---------- ------ -- ----- -- ----- -- ---- ------<br>--- ----- --- --- ------ -------- ----- --- ------ ----- --<br>----- ----- ---------- --- --- ------ ------ ---- -- ------<br>------- --- ------ ----- --- ---- without -- ---- --- --<br>------- ------,165946.09999999404,165944.59999999404,165636.374,165645.59999999404,165653.167,165953.039,,49,without
screen,html.Screen,2_1_1_1_50,2022-02-02T13:46:35.531Z,,,,,,,,,,,,,,,,,54,,,,,,,,,,,,,,311.1609999880893,,response,,,,100,,,,,,,Space,keypress(Space),,,,,,,,-- --- ---- --- ------ ----- ------- ---- -- --- ------- --<br>------- ---------- ------ -- ----- -- ----- -- ---- ------<br>--- ----- --- --- ------ -------- ----- --- ------ ----- --<br>----- ----- ---------- --- --- ------ ------ ---- -- ------<br>------- --- ------ ----- --- ---- ------- an ---- --- --<br>------- ------,166265.59999999404,166264.19999998808,165936.31,165946.29999999702,165953.039,166269.524,,50,an
screen,html.Screen,2_1_1_1_51,2022-02-02T13:46:35.802Z,,,,,,,,,,,,,,,,,54,,,,,,,,,,,,,,265.4759999999951,,response,,,,100,,,,,,,Space,keypress(Space),,,,,,,,-- --- ---- --- ------ ----- ------- ---- -- --- ------- --<br>------- ---------- ------ -- ----- -- ----- -- ---- ------<br>--- ----- --- --- ------ -------- ----- --- ------ ----- --<br>----- ----- ---------- --- --- ------ ------ ---- -- ------<br>------- --- ------ ----- --- ---- ------- -- easy --- --<br>------- ------,166536.5,166535,166253.037,166265.89999999106,166269.524,166552.977,,51,easy
screen,html.Screen,2_1_1_1_52,2022-02-02T13:46:36.056Z,,,,,,,,,,,,,,,,,54,,,,,,,,,,,,,,235.72299998806557,,response,,,,100,,,,,,,Space,keypress(Space),,,,,,,,-- --- ---- --- ------ ----- ------- ---- -- --- ------- --<br>------- ---------- ------ -- ----- -- ----- -- ---- ------<br>--- ----- --- --- ------ -------- ----- --- ------ ----- --<br>----- ----- ---------- --- --- ------ ------ ---- -- ------<br>------- --- ------ ----- --- ---- ------- -- ---- way --<br>------- ------,166790.09999999404,166788.69999998808,166536.149,166536.79999999702,166552.977,166802.947,,52,way
screen,html.Screen,2_1_1_1_53,2022-02-02T13:46:36.308Z,,,,,,,,,,,,,,,,,54,,,,,,,,,,,,,,237.65299999405397,,response,,,,100,,,,,,,Space,keypress(Space),,,,,,,,-- --- ---- --- ------ ----- ------- ---- -- --- ------- --<br>------- ---------- ------ -- ----- -- ----- -- ---- ------<br>--- ----- --- --- ------ -------- ----- --- ------ ----- --<br>----- ----- ---------- --- --- ------ ------ ---- -- ------<br>------- --- ------ ----- --- ---- ------- -- ---- --- of<br>------- ------,167041.89999999106,167040.59999999404,166786.172,166790.29999999702,166802.947,167052.763,,53,of
screen,html.Screen,2_1_1_1_54,2022-02-02T13:46:36.564Z,,,,,,,,,,,,,,,,,54,,,,,,,,,,,,,,243.93699998807278,,response,,,,100,,,,,,,Space,keypress(Space),,,,,,,,-- --- ---- --- ------ ----- ------- ---- -- --- ------- --<br>------- ---------- ------ -- ----- -- ----- -- ---- ------<br>--- ----- --- --- ------ -------- ----- --- ------ ----- --<br>----- ----- ---------- --- --- ------ ------ ---- -- ------<br>------- --- ------ ----- --- ---- ------- -- ---- --- --<br>raising ------,167298,167296.69999998808,167036.084,167042.19999998808,167052.763,167302.689,,54,raising
screen,html.Screen,2_1_1_1_55,2022-02-02T13:46:36.955Z,,,,,,,,,,,,,,,,,54,,,,,,,,,,,,,,385.51099998806603,,response,,,,100,,,,,,,Space,keypress(Space),,,,,,,,-- --- ---- --- ------ ----- ------- ---- -- --- ------- --<br>------- ---------- ------ -- ----- -- ----- -- ---- ------<br>--- ----- --- --- ------ -------- ----- --- ------ ----- --<br>----- ----- ---------- --- --- ------ ------ ---- -- ------<br>------- --- ------ ----- --- ---- ------- -- ---- --- --<br>------- money.,167689.5,167688.19999998808,167286.107,167298.19999998808,167302.689,167702.669,,55,money.
Item 100,flow.Loop,2_1_1_1,2022-02-02T13:46:36.956Z,,,,,,,,,,,,,,,,,,,,,,,,,,,,,,,22731.886999988084,,completion,,,,,B,,,,,,,,,,,silence,,,,,167690,167688.19999998808,144939.88,144941.29999999702,144956.313,167702.669,,,
Question 1,html.Screen,2_1_1_2,2022-02-02T13:46:39.457Z,,,,,,,,,,,,,,,,,,,,,,,,,,,,true,TRUE,,2488.430999994045,,response,,,,100,B,,,,,,TRUE,click #choice-1,,,,silence,,,,,170191.79999999702,170191.09999999404,167686.043,167690.19999998808,167702.669,170202.175,,,
Question 2,html.Screen,2_1_1_3,2022-02-02T13:46:41.756Z,,,,,,,,,,,,,,,,,,,,,,,,,,,,true,FALSE,,2287.0249999880907,,response,,,,100,B,,,,,,FALSE,click #choice-2,,,,silence,,,,,172489.89999999106,172489.19999998808,170185.527,170192,170202.175,172501.851,,,
Item 100,flow.Sequence,2_1_1,2022-02-02T13:46:41.756Z,,,,,,,,,,,,,,,,,,,,,,,,,,,,,,,37531.288999988086,,completion,,,,,,,,,,,,,,,,,,,,,172490.09999999404,172489.19999998808,134941.399,134955.59999999404,134957.911,172501.851,,,
End of Practice,html.Page,2_1_2,2022-02-02T13:46:45.568Z,,,,,,,,,,,,,,,,,,,,,,,,,,,,,,,3799.7489999940444,,form submission,,,,,,,,,,,,,,,,,,,,,176302,176301.59999999404,172485.164,172490.19999998808,172501.851,176301.163,,,
Practice,flow.Sequence,2_1,2022-02-02T13:46:45.568Z,,,,,,,,,,,,,,,,,,,,,,,,,,,,,,,78354.35199999403,,completion,,,,,,,,,,,,,,,,,,,,,176302.19999998808,176301.59999999404,97930.631,97932.39999999106,97947.248,176301.163,,,
Trap_instruction,html.Page,2_2_0,2022-02-02T13:46:48.299Z,,,,,,,,,,,,,,,,,,,,,,,,,,,,,,,2731.5369999880786,,form submission,,,,,,,,,,,,,,,,,,,,,179032.89999999106,179032.69999998808,176284.602,176302.29999999702,176301.163,179050.851,,,
trap_trial,html.Screen,2_2_1,2022-02-02T13:46:52.330Z,,,,,,,,,,,,,,,,,,,,,,,,,,,,true,1,,4012.7489999940444,,response,,,,,,,,,,,1,click #choice-1,,,,,,,,,183064.39999999106,183063.59999999404,179017.557,179033.09999999404,179050.851,183066.735,,,
end of trap trial,html.Page,2_2_2,2022-02-02T13:46:53.782Z,,,,,,,,,,,,,,,,,,,,,,,,,,,,,,,1448.765000000014,,form submission,,,,,,,,,,,,,,,,,,,,,184515.69999998808,184515.5,183050.108,183064.5,183066.735,184533.172,,,
Trap 1,flow.Sequence,2_2,2022-02-02T13:46:53.782Z,,,,,,,,,,,,,,,,,,,,,,,,,,,,,,,8214.337,,completion,,,,,,,,,,,,,,,,,,,,,184515.89999999106,184515.5,176284.602,176302.29999999702,176301.163,184533.172,,,
Standby,html.Page,2_3_0,2022-02-02T13:47:01.783Z,,,,,,,,,,,,,,,,,,,,,,,,,,,,,,,7998.752999999997,,timeout,,,,,,,,,,,,,,,,,,,,,192516.59999999404,192515.348,184516.492,184516,184533.172,192531.925,,,
Holding screen,html.Screen,2_3_1_0_0,2022-02-02T13:47:08.781Z,,,,,,,,,,,,,,,,,,,,,,,,,,,,,,,6998.859000000026,,timeout,,,,,,,,,,,,,,,,,,,,,199515.29999999702,199514.211,192515.348,192517.09999999404,192531.925,199530.784,,,
screen,html.Screen,2_3_1_0_1_0,2022-02-02T13:47:09.613Z,,,,,,,,,,,,,,,,,51,,,,,,,,,,,,,,814.4159999880649,,response,,,,13,B,,,,,,Space,keypress(Space),,,,lyrical,,,,American -------- --- --- ---- --- --- ------ -- --------<br>---- --------- --- ------- ------------ ---------- ---------<br>--- ---------- ------- ---------- ------- -- -------- ----<br>---- --- ------ ----- ------ -- ---- --- ----- -- - -------<br>-------- -- --- --- -- ----- ----------- ----- -----------<br>---- --- ---------- --- ---- --- -- ----------,200346.69999998808,200345.19999998808,199514.211,199515.69999998808,199530.784,200347.296,,0,American
screen,html.Screen,2_3_1_0_1_1,2022-02-02T13:47:10.233Z,,,,,,,,,,,,,,,,,51,,,,,,,,,,,,,,618.403999988077,,response,,,,13,B,,,,,,Space,keypress(Space),,,,lyrical,,,,-------- industry --- --- ---- --- --- ------ -- --------<br>---- --------- --- ------- ------------ ---------- ---------<br>--- ---------- ------- ---------- ------- -- -------- ----<br>---- --- ------ ----- ------ -- ---- --- ----- -- - -------<br>-------- -- --- --- -- ----- ----------- ----- -----------<br>---- --- ---------- --- ---- --- -- ----------,200966.79999999702,200965.69999998808,200330.726,200347,200347.296,200980.772,,1,industry
screen,html.Screen,2_3_1_0_1_2,2022-02-02T13:47:10.681Z,,,,,,,,,,,,,,,,,51,,,,,,,,,,,,,,432.7280000000028,,response,,,,13,B,,,,,,Space,keypress(Space),,,,lyrical,,,,-------- -------- may --- ---- --- --- ------ -- --------<br>---- --------- --- ------- ------------ ---------- ---------<br>--- ---------- ------- ---------- ------- -- -------- ----<br>---- --- ------ ----- ------ -- ---- --- ----- -- - -------<br>-------- -- --- --- -- ----- ----------- ----- -----------<br>---- --- ---------- --- ---- --- -- ----------,201414.69999998808,201413.5,200963.991,200967.09999999404,200980.772,201430.683,,2,may
screen,html.Screen,2_3_1_0_1_3,2022-02-02T13:47:11.007Z,,,,,,,,,,,,,,,,,51,,,,,,,,,,,,,,309.2169999910693,,response,,,,13,B,,,,,,Space,keypress(Space),,,,lyrical,,,,-------- -------- --- not ---- --- --- ------ -- --------<br>---- --------- --- ------- ------------ ---------- ---------<br>--- ---------- ------- ---------- ------- -- -------- ----<br>---- --- ------ ----- ------ -- ---- --- ----- -- - -------<br>-------- -- --- --- -- ----- ----------- ----- -----------<br>---- --- ---------- --- ---- --- -- ----------,201741.29999999702,201739.89999999106,201413.764,201415.09999999404,201430.683,201747.083,,3,not
screen,html.Screen,2_3_1_0_1_4,2022-02-02T13:47:11.290Z,,,,,,,,,,,,,,,,,51,,,,,,,,,,,,,,275.31699999104603,,response,,,,13,B,,,,,,Space,keypress(Space),,,,lyrical,,,,-------- -------- --- --- know --- --- ------ -- --------<br>---- --------- --- ------- ------------ ---------- ---------<br>--- ---------- ------- ---------- ------- -- -------- ----<br>---- --- ------ ----- ------ -- ---- --- ----- -- - -------<br>-------- -- --- --- -- ----- ----------- ----- -----------<br>---- --- ---------- --- ---- --- -- ----------,202023.79999999702,202022.39999999106,201730.517,201741.59999999404,201747.083,202030.349,,4,know
screen,html.Screen,2_3_1_0_1_5,2022-02-02T13:47:11.538Z,,,,,,,,,,,,,,,,,51,,,,,,,,,,,,,,240.2509999940521,,response,,,,13,B,,,,,,Space,keypress(Space),,,,lyrical,,,,"-------- -------- --- --- ---- it, --- ------ -- --------<br>---- --------- --- ------- ------------ ---------- ---------<br>--- ---------- ------- ---------- ------- -- -------- ----<br>---- --- ------ ----- ------ -- ---- --- ----- -- - -------<br>-------- -- --- --- -- ----- ----------- ----- -----------<br>---- --- ---------- --- ---- --- -- ----------",202272.19999998808,202270.59999999404,202013.784,202024.09999999404,202030.349,202280.56,,5,"it,"
screen,html.Screen,2_3_1_0_1_6,2022-02-02T13:47:11.775Z,,,,,,,,,,,,,,,,,51,,,,,,,,,,,,,,227.2399999970221,,response,,,,13,B,,,,,,Space,keypress(Space),,,,lyrical,,,,-------- -------- --- --- ---- --- but ------ -- --------<br>---- --------- --- ------- ------------ ---------- ---------<br>--- ---------- ------- ---------- ------- -- -------- ----<br>---- --- ------ ----- ------ -- ---- --- ----- -- - -------<br>-------- -- --- --- -- ----- ----------- ----- -----------<br>---- --- ---------- --- ---- --- -- ----------,202509,202507.79999999702,202263.699,202272.39999999106,202280.56,202513.625,,6,but
screen,html.Screen,2_3_1_0_1_7,2022-02-02T13:47:12.021Z,,,,,,,,,,,,,,,,,51,,,,,,,,,,,,,,239.97499999403954,,response,,,,13,B,,,,,,Space,keypress(Space),,,,lyrical,,,,-------- -------- --- --- ---- --- --- debate -- --------<br>---- --------- --- ------- ------------ ---------- ---------<br>--- ---------- ------- ---------- ------- -- -------- ----<br>---- --- ------ ----- ------ -- ---- --- ----- -- - -------<br>-------- -- --- --- -- ----- ----------- ----- -----------<br>---- --- ---------- --- ---- --- -- ----------,202755.19999998808,202753.59999999404,202497.058,202509.19999998808,202513.625,202763.592,,7,debate
screen,html.Screen,2_3_1_0_1_8,2022-02-02T13:47:12.377Z,,,,,,,,,,,,,,,,,51,,,,,,,,,,,,,,346.1079999880749,,response,,,,13,B,,,,,,Space,keypress(Space),,,,lyrical,,,,-------- -------- --- --- ---- --- --- ------ in --------<br>---- --------- --- ------- ------------ ---------- ---------<br>--- ---------- ------- ---------- ------- -- -------- ----<br>---- --- ------ ----- ------ -- ---- --- ----- -- - -------<br>-------- -- --- --- -- ----- ----------- ----- -----------<br>---- --- ---------- --- ---- --- -- ----------,203111,203109.69999998808,202746.895,202755.59999999404,202763.592,203113.528,,8,in
screen,html.Screen,2_3_1_0_1_9,2022-02-02T13:47:12.809Z,,,,,,,,,,,,,,,,,51,,,,,,,,,,,,,,427.47200000000885,,response,,,,13,B,,,,,,Space,keypress(Space),,,,lyrical,,,,-------- -------- --- --- ---- --- --- ------ -- Congress<br>---- --------- --- ------- ------------ ---------- ---------<br>--- ---------- ------- ---------- ------- -- -------- ----<br>---- --- ------ ----- ------ -- ---- --- ----- -- - -------<br>-------- -- --- --- -- ----- ----------- ----- -----------<br>---- --- ---------- --- ---- --- -- ----------,203542.5,203541,203096.96,203111.19999998808,203113.528,203546.771,,9,Congress
screen,html.Screen,2_3_1_0_1_10,2022-02-02T13:47:13.157Z,,,,,,,,,,,,,,,,,51,,,,,,,,,,,,,,342.92899998807115,,response,,,,13,B,,,,,,Space,keypress(Space),,,,lyrical,,,,-------- -------- --- --- ---- --- --- ------ -- --------<br>over --------- --- ------- ------------ ---------- ---------<br>--- ---------- ------- ---------- ------- -- -------- ----<br>---- --- ------ ----- ------ -- ---- --- ----- -- - -------<br>-------- -- --- --- -- ----- ----------- ----- -----------<br>---- --- ---------- --- ---- --- -- ----------,203891,203889.69999998808,203530.224,203542.79999999702,203546.771,203896.728,,10,over
screen,html.Screen,2_3_1_0_1_11,2022-02-02T13:47:13.669Z,,,,,,,,,,,,,,,,,51,,,,,,,,,,,,,,504.071999997017,,response,,,,13,B,,,,,,Space,keypress(Space),,,,lyrical,,,,-------- -------- --- --- ---- --- --- ------ -- --------<br>---- reforming --- ------- ------------ ---------- ---------<br>--- ---------- ------- ---------- ------- -- -------- ----<br>---- --- ------ ----- ------ -- ---- --- ----- -- - -------<br>-------- -- --- --- -- ----- ----------- ----- -----------<br>---- --- ---------- --- ---- --- -- ----------,204402.39999999106,204400.79999999702,203880.103,203891.29999999702,203896.728,204413.516,,11,reforming
screen,html.Screen,2_3_1_0_1_12,2022-02-02T13:47:13.968Z,,,,,,,,,,,,,,,,,51,,,,,,,,,,,,,,287.2839999970165,,response,,,,13,B,,,,,,Space,keypress(Space),,,,lyrical,,,,-------- -------- --- --- ---- --- --- ------ -- --------<br>---- --------- the ------- ------------ ---------- ---------<br>--- ---------- ------- ---------- ------- -- -------- ----<br>---- --- ------ ----- ------ -- ---- --- ----- -- - -------<br>-------- -- --- --- -- ----- ----------- ----- -----------<br>---- --- ---------- --- ---- --- -- ----------,204702.39999999106,204700.79999999702,204396.763,204402.59999999404,204413.516,204713.346,,12,the
screen,html.Screen,2_3_1_0_1_13,2022-02-02T13:47:14.254Z,,,,,,,,,,,,,,,,,51,,,,,,,,,,,,,,273.55399999106885,,response,,,,13,B,,,,,,Space,keypress(Space),,,,lyrical,,,,-------- -------- --- --- ---- --- --- ------ -- --------<br>---- --------- --- federal ------------ ---------- ---------<br>--- ---------- ------- ---------- ------- -- -------- ----<br>---- --- ------ ----- ------ -- ---- --- ----- -- - -------<br>-------- -- --- --- -- ----- ----------- ----- -----------<br>---- --- ---------- --- ---- --- -- ----------,204988.09999999404,204986.89999999106,204696.699,204702.69999998808,204713.346,204996.541,,13,federal
screen,html.Screen,2_3_1_0_1_14,2022-02-02T13:47:14.896Z,,,,,,,,,,,,,,,,,51,,,,,,,,,,,,,,631.9590000000026,,response,,,,13,B,,,,,,Space,keypress(Space),,,,lyrical,,,,-------- -------- --- --- ---- --- --- ------ -- --------<br>---- --------- --- ------- government's ---------- ---------<br>--- ---------- ------- ---------- ------- -- -------- ----<br>---- --- ------ ----- ------ -- ---- --- ----- -- - -------<br>-------- -- --- --- -- ----- ----------- ----- -----------<br>---- --- ---------- --- ---- --- -- ----------,205629.69999998808,205628.5,204979.989,204988.29999999702,204996.541,205646.492,,14,government's
screen,html.Screen,2_3_1_0_1_15,2022-02-02T13:47:15.357Z,,,,,,,,,,,,,,,,,51,,,,,,,,,,,,,,443.60799999404117,,response,,,,13,B,,,,,,Space,keypress(Space),,,,lyrical,,,,-------- -------- --- --- ---- --- --- ------ -- --------<br>---- --------- --- ------- ------------ regulatory ---------<br>--- ---------- ------- ---------- ------- -- -------- ----<br>---- --- ------ ----- ------ -- ---- --- ----- -- - -------<br>-------- -- --- --- -- ----- ----------- ----- -----------<br>---- --- ---------- --- ---- --- -- ----------,206091.29999999702,206090.09999999404,205629.769,205630.09999999404,205646.492,206096.35,,15,regulatory
screen,html.Screen,2_3_1_0_1_16,2022-02-02T13:47:15.819Z,,,,,,,,,,,,,,,,,51,,,,,,,,,,,,,,455.7499999940337,,response,,,,13,B,,,,,,Space,keypress(Space),,,,lyrical,,,,-------- -------- --- --- ---- --- --- ------ -- --------<br>---- --------- --- ------- ------------ ---------- apparatus<br>--- ---------- ------- ---------- ------- -- -------- ----<br>---- --- ------ ----- ------ -- ---- --- ----- -- - -------<br>-------- -- --- --- -- ----- ----------- ----- -----------<br>---- --- ---------- --- ---- --- -- ----------,206553.19999998808,206552.09999999404,206079.809,206091.59999999404,206096.35,206562.959,,16,apparatus
screen,html.Screen,2_3_1_0_1_17,2022-02-02T13:47:16.240Z,,,,,,,,,,,,,,,,,51,,,,,,,,,,,,,,409.640999994037,,response,,,,13,B,,,,,,Space,keypress(Space),,,,lyrical,,,,-------- -------- --- --- ---- --- --- ------ -- --------<br>---- --------- --- ------- ------------ ---------- ---------<br>may ---------- ------- ---------- ------- -- -------- ----<br>---- --- ------ ----- ------ -- ---- --- ----- -- - -------<br>-------- -- --- --- -- ----- ----------- ----- -----------<br>---- --- ---------- --- ---- --- -- ----------,206973.69999998808,206972.59999999404,206546.396,206553.5,206562.959,206979.549,,17,may
screen,html.Screen,2_3_1_0_1_18,2022-02-02T13:47:16.510Z,,,,,,,,,,,,,,,,,51,,,,,,,,,,,,,,262.65099998808,,response,,,,13,B,,,,,,Space,keypress(Space),,,,lyrical,,,,-------- -------- --- --- ---- --- --- ------ -- --------<br>---- --------- --- ------- ------------ ---------- ---------<br>--- profoundly ------- ---------- ------- -- -------- ----<br>---- --- ------ ----- ------ -- ---- --- ----- -- - -------<br>-------- -- --- --- -- ----- ----------- ----- -----------<br>---- --- ---------- --- ---- --- -- ----------,207243.59999999404,207242.19999998808,206962.92,206974,206979.549,207246.171,,18,profoundly
screen,html.Screen,2_3_1_0_1_19,2022-02-02T13:47:16.861Z,,,,,,,,,,,,,,,,,51,,,,,,,,,,,,,,347.3289999999979,,response,,,,13,B,,,,,,Space,keypress(Space),,,,lyrical,,,,-------- -------- --- --- ---- --- --- ------ -- --------<br>---- --------- --- ------- ------------ ---------- ---------<br>--- ---------- improve ---------- ------- -- -------- ----<br>---- --- ------ ----- ------ -- ---- --- ----- -- - -------<br>-------- -- --- --- -- ----- ----------- ----- -----------<br>---- --- ---------- --- ---- --- -- ----------,207594.5,207593.5,207229.623,207243.79999999702,207246.171,207596.107,,19,improve
screen,html.Screen,2_3_1_0_1_20,2022-02-02T13:47:17.144Z,,,,,,,,,,,,,,,,,51,,,,,,,,,,,,,,280.39300000001094,,response,,,,13,B,,,,,,Space,keypress(Space),,,,lyrical,,,,-------- -------- --- --- ---- --- --- ------ -- --------<br>---- --------- --- ------- ------------ ---------- ---------<br>--- ---------- ------- companies' ------- -- -------- ----<br>---- --- ------ ----- ------ -- ---- --- ----- -- - -------<br>-------- -- --- --- -- ----- ----------- ----- -----------<br>---- --- ---------- --- ---- --- -- ----------,207877.69999998808,207876.5,207579.653,207594.79999999702,207596.107,207879.386,,20,companies'
screen,html.Screen,2_3_1_0_1_21,2022-02-02T13:47:17.440Z,,,,,,,,,,,,,,,,,51,,,,,,,,,,,,,,293.21399999404093,,response,,,,13,B,,,,,,Space,keypress(Space),,,,lyrical,,,,-------- -------- --- --- ---- --- --- ------ -- --------<br>---- --------- --- ------- ------------ ---------- ---------<br>--- ---------- ------- ---------- ability -- -------- ----<br>---- --- ------ ----- ------ -- ---- --- ----- -- - -------<br>-------- -- --- --- -- ----- ----------- ----- -----------<br>---- --- ---------- --- ---- --- -- ----------,208173.89999999106,208172.59999999404,207862.787,207878,207879.386,208179.337,,21,ability
screen,html.Screen,2_3_1_0_1_22,2022-02-02T13:47:17.748Z,,,,,,,,,,,,,,,,,51,,,,,,,,,,,,,,301.16300000000047,,response,,,,13,B,,,,,,Space,keypress(Space),,,,lyrical,,,,-------- -------- --- --- ---- --- --- ------ -- --------<br>---- --------- --- ------- ------------ ---------- ---------<br>--- ---------- ------- ---------- ------- to -------- ----<br>---- --- ------ ----- ------ -- ---- --- ----- -- - -------<br>-------- -- --- --- -- ----- ----------- ----- -----------<br>---- --- ---------- --- ---- --- -- ----------,208481.79999999702,208480.5,208162.756,208174.09999999404,208179.337,208496.161,,22,to
screen,html.Screen,2_3_1_0_1_23,2022-02-02T13:47:18.025Z,,,,,,,,,,,,,,,,,51,,,,,,,,,,,,,,261.138999997027,,response,,,,13,B,,,,,,Space,keypress(Space),,,,lyrical,,,,-------- -------- --- --- ---- --- --- ------ -- --------<br>---- --------- --- ------- ------------ ---------- ---------<br>--- ---------- ------- ---------- ------- -- survive. ----<br>---- --- ------ ----- ------ -- ---- --- ----- -- - -------<br>-------- -- --- --- -- ----- ----------- ----- -----------<br>---- --- ---------- --- ---- --- -- ----------,208758.79999999702,208757.29999999702,208479.338,208482.09999999404,208496.161,208762.602,,23,survive.
screen,html.Screen,2_3_1_0_1_24,2022-02-02T13:47:18.444Z,,,,,,,,,,,,,,,,,51,,,,,,,,,,,,,,413.7979999910458,,response,,,,13,B,,,,,,Space,keypress(Space),,,,lyrical,,,,-------- -------- --- --- ---- --- --- ------ -- --------<br>---- --------- --- ------- ------------ ---------- ---------<br>--- ---------- ------- ---------- ------- -- -------- This<br>---- --- ------ ----- ------ -- ---- --- ----- -- - -------<br>-------- -- --- --- -- ----- ----------- ----- -----------<br>---- --- ---------- --- ---- --- -- ----------,209177.79999999702,209176.39999999106,208746.04,208759,208762.602,209179.186,,24,This
screen,html.Screen,2_3_1_0_1_25,2022-02-02T13:47:18.810Z,,,,,,,,,,,,,,,,,51,,,,,,,,,,,,,,363.21399999107234,,response,,,,13,B,,,,,,Space,keypress(Space),,,,lyrical,,,,-------- -------- --- --- ---- --- --- ------ -- --------<br>---- --------- --- ------- ------------ ---------- ---------<br>--- ---------- ------- ---------- ------- -- -------- ----<br>week --- ------ ----- ------ -- ---- --- ----- -- - -------<br>-------- -- --- --- -- ----- ----------- ----- -----------<br>---- --- ---------- --- ---- --- -- ----------,209543.79999999702,209542.39999999106,209162.535,209178,209179.186,209545.789,,25,week
screen,html.Screen,2_3_1_0_1_26,2022-02-02T13:47:19.087Z,,,,,,,,,,,,,,,,,51,,,,,,,,,,,,,,274.21100000001024,,response,,,,13,B,,,,,,Space,keypress(Space),,,,lyrical,,,,-------- -------- --- --- ---- --- --- ------ -- --------<br>---- --------- --- ------- ------------ ---------- ---------<br>--- ---------- ------- ---------- ------- -- -------- ----<br>---- the ------ ----- ------ -- ---- --- ----- -- - -------<br>-------- -- --- --- -- ----- ----------- ----- -----------<br>---- --- ---------- --- ---- --- -- ----------,209821.39999999106,209820,209529.25,209544,209545.789,209829.101,,26,the
screen,html.Screen,2_3_1_0_1_27,2022-02-02T13:47:19.394Z,,,,,,,,,,,,,,,,,51,,,,,,,,,,,,,,297.19899999702466,,response,,,,13,B,,,,,,Space,keypress(Space),,,,lyrical,,,,-------- -------- --- --- ---- --- --- ------ -- --------<br>---- --------- --- ------- ------------ ---------- ---------<br>--- ---------- ------- ---------- ------- -- -------- ----<br>---- --- Senate ----- ------ -- ---- --- ----- -- - -------<br>-------- -- --- --- -- ----- ----------- ----- -----------<br>---- --- ---------- --- ---- --- -- ----------,210127.59999999404,210126.29999999702,209812.437,209821.69999998808,209829.101,210129.038,,27,Senate
screen,html.Screen,2_3_1_0_1_28,2022-02-02T13:47:19.692Z,,,,,,,,,,,,,,,,,51,,,,,,,,,,,,,,295.6619999880786,,response,,,,13,B,,,,,,Space,keypress(Space),,,,lyrical,,,,-------- -------- --- --- ---- --- --- ------ -- --------<br>---- --------- --- ------- ------------ ---------- ---------<br>--- ---------- ------- ---------- ------- -- -------- ----<br>---- --- ------ seems ------ -- ---- --- ----- -- - -------<br>-------- -- --- --- -- ----- ----------- ----- -----------<br>---- --- ---------- --- ---- --- -- ----------,210426.19999998808,210424.69999998808,210112.357,210127.79999999702,210129.038,210428.987,,28,seems
screen,html.Screen,2_3_1_0_1_29,2022-02-02T13:47:19.963Z,,,,,,,,,,,,,,,,,51,,,,,,,,,,,,,,266.0130000000063,,response,,,,13,B,,,,,,Space,keypress(Space),,,,lyrical,,,,-------- -------- --- --- ---- --- --- ------ -- --------<br>---- --------- --- ------- ------------ ---------- ---------<br>--- ---------- ------- ---------- ------- -- -------- ----<br>---- --- ------ ----- poised -- ---- --- ----- -- - -------<br>-------- -- --- --- -- ----- ----------- ----- -----------<br>---- --- ---------- --- ---- --- -- ----------,210696.5,210695,210412.326,210426.39999999106,210428.987,210712.353,,29,poised
screen,html.Screen,2_3_1_0_1_30,2022-02-02T13:47:20.247Z,,,,,,,,,,,,,,,,,51,,,,,,,,,,,,,,266.8469999880763,,response,,,,13,B,,,,,,Space,keypress(Space),,,,lyrical,,,,-------- -------- --- --- ---- --- --- ------ -- --------<br>---- --------- --- ------- ------------ ---------- ---------<br>--- ---------- ------- ---------- ------- -- -------- ----<br>---- --- ------ ----- ------ to ---- --- ----- -- - -------<br>-------- -- --- --- -- ----- ----------- ----- -----------<br>---- --- ---------- --- ---- --- -- ----------,210980.79999999702,210979.19999998808,210695.6,210696.69999998808,210712.353,210995.662,,30,to
screen,html.Screen,2_3_1_0_1_31,2022-02-02T13:47:20.523Z,,,,,,,,,,,,,,,,,51,,,,,,,,,,,,,,259.93799999402836,,response,,,,13,B,,,,,,Space,keypress(Space),,,,lyrical,,,,-------- -------- --- --- ---- --- --- ------ -- --------<br>---- --------- --- ------- ------------ ---------- ---------<br>--- ---------- ------- ---------- ------- -- -------- ----<br>---- --- ------ ----- ------ -- join --- ----- -- - -------<br>-------- -- --- --- -- ----- ----------- ----- -----------<br>---- --- ---------- --- ---- --- -- ----------,211256.89999999106,211255.59999999404,210978.912,210981.19999998808,210995.662,211262.171,,31,join
screen,html.Screen,2_3_1_0_1_32,2022-02-02T13:47:20.787Z,,,,,,,,,,,,,,,,,51,,,,,,,,,,,,,,257.92899999403744,,response,,,,13,B,,,,,,Space,keypress(Space),,,,lyrical,,,,-------- -------- --- --- ---- --- --- ------ -- --------<br>---- --------- --- ------- ------------ ---------- ---------<br>--- ---------- ------- ---------- ------- -- -------- ----<br>---- --- ------ ----- ------ -- ---- the ----- -- - -------<br>-------- -- --- --- -- ----- ----------- ----- -----------<br>---- --- ---------- --- ---- --- -- ----------,211521.39999999106,211520.09999999404,211245.585,211257.19999998808,211262.171,211528.821,,32,the
screen,html.Screen,2_3_1_0_1_33,2022-02-02T13:47:21.045Z,,,,,,,,,,,,,,,,,51,,,,,,,,,,,,,,248.77899999404326,,response,,,,13,B,,,,,,Space,keypress(Space),,,,lyrical,,,,-------- -------- --- --- ---- --- --- ------ -- --------<br>---- --------- --- ------- ------------ ---------- ---------<br>--- ---------- ------- ---------- ------- -- -------- ----<br>---- --- ------ ----- ------ -- ---- --- House -- - -------<br>-------- -- --- --- -- ----- ----------- ----- -----------<br>---- --- ---------- --- ---- --- -- ----------,211779.19999998808,211777.59999999404,211512.16,211521.59999999404,211528.821,211795.62,,33,House
screen,html.Screen,2_3_1_0_1_34,2022-02-02T13:47:21.297Z,,,,,,,,,,,,,,,,,51,,,,,,,,,,,,,,234.07999998808373,,response,,,,13,B,,,,,,Space,keypress(Space),,,,lyrical,,,,-------- -------- --- --- ---- --- --- ------ -- --------<br>---- --------- --- ------- ------------ ---------- ---------<br>--- ---------- ------- ---------- ------- -- -------- ----<br>---- --- ------ ----- ------ -- ---- --- ----- in - -------<br>-------- -- --- --- -- ----- ----------- ----- -----------<br>---- --- ---------- --- ---- --- -- ----------,212031.09999999404,212029.69999998808,211778.769,211779.59999999404,211795.62,212045.62,,34,in
screen,html.Screen,2_3_1_0_1_35,2022-02-02T13:47:21.533Z,,,,,,,,,,,,,,,,,51,,,,,,,,,,,,,,220.17999999702442,,response,,,,13,B,,,,,,Space,keypress(Space),,,,lyrical,,,,-------- -------- --- --- ---- --- --- ------ -- --------<br>---- --------- --- ------- ------------ ---------- ---------<br>--- ---------- ------- ---------- ------- -- -------- ----<br>---- --- ------ ----- ------ -- ---- --- ----- -- a -------<br>-------- -- --- --- -- ----- ----------- ----- -----------<br>---- --- ---------- --- ---- --- -- ----------,212267.29999999702,212265.79999999702,212028.727,212031.39999999106,212045.62,212278.887,,35,a
screen,html.Screen,2_3_1_0_1_36,2022-02-02T13:47:21.782Z,,,,,,,,,,,,,,,,,51,,,,,,,,,,,,,,235.21299999405164,,response,,,,13,B,,,,,,Space,keypress(Space),,,,lyrical,,,,-------- -------- --- --- ---- --- --- ------ -- --------<br>---- --------- --- ------- ------------ ---------- ---------<br>--- ---------- ------- ---------- ------- -- -------- ----<br>---- --- ------ ----- ------ -- ---- --- ----- -- - massive<br>-------- -- --- --- -- ----- ----------- ----- -----------<br>---- --- ---------- --- ---- --- -- ----------,212515.89999999106,212514.09999999404,212262,212267.59999999404,212278.887,212528.663,,36,massive
screen,html.Screen,2_3_1_0_1_37,2022-02-02T13:47:22.089Z,,,,,,,,,,,,,,,,,51,,,,,,,,,,,,,,292.93699999403907,,response,,,,13,B,,,,,,Space,keypress(Space),,,,lyrical,,,,-------- -------- --- --- ---- --- --- ------ -- --------<br>---- --------- --- ------- ------------ ---------- ---------<br>--- ---------- ------- ---------- ------- -- -------- ----<br>---- --- ------ ----- ------ -- ---- --- ----- -- - -------<br>overhaul -- --- --- -- ----- ----------- ----- -----------<br>---- --- ---------- --- ---- --- -- ----------,212823.09999999404,212821.59999999404,212511.968,212516.09999999404,212528.663,212828.606,,37,overhaul
screen,html.Screen,2_3_1_0_1_38,2022-02-02T13:47:22.390Z,,,,,,,,,,,,,,,,,51,,,,,,,,,,,,,,293.0939999880793,,response,,,,13,B,,,,,,Space,keypress(Space),,,,lyrical,,,,-------- -------- --- --- ---- --- --- ------ -- --------<br>---- --------- --- ------- ------------ ---------- ---------<br>--- ---------- ------- ---------- ------- -- -------- ----<br>---- --- ------ ----- ------ -- ---- --- ----- -- - -------<br>-------- of --- --- -- ----- ----------- ----- -----------<br>---- --- ---------- --- ---- --- -- ----------,213123.59999999404,213121.69999998808,212811.911,212823.39999999106,212828.606,213128.547,,38,of
