sender,sender_type,sender_id,timestamp,meta,,Blues,Classical,Country,Dance,Electronic,Folk,Gospel,Hip-Hop,Jazz,Latin,Musical/Film,New-age,Pop,Prolific_id,Provo_ID,R&B,Rap,Reggae,Religious,Rock,Soul,Swing,Traditional,age,artist_name,correct,correctResponse,distraction,duration,education,ended_on,familiarity,gender,headphone_check_performance,item,list,music_frequency,offensiveness,pleasantness,position_correct,preference,response,response_action,snippet_file,song_name,song_rating,sound,stimulus_1,stimulus_2,stimulus_3,text,time_commit,time_end,time_render,time_run,time_show,time_switch,url,word,word_ID
Prolific ID,html.Form,0,2022-02-02T16:06:44.331Z,"{""labjs_version"":""20.2.2"",""labjs_build"":{""flavor"":""production"",""commit"":""a25486e0c714a0ae2ce03ff94b7bb6896854dcfa""},""location"":""https://run.pavlovia.org/mvasilev/prolific2_music_d/"",""userAgent"":""Mozilla/5.0 (Windows NT 10.0; Win64; x64) AppleWebKit/537.36 (KHTML, like Gecko) Chrome/97.0.4692.71 Safari/537.36"",""platform"":""Win32"",""language"":""en-GB"",""locale"":""en-GB"",""timeZone"":""Europe/London"",""timezoneOffset"":0,""screen_width"":1366,""screen_height"":768,""scroll_width"":1366,""scroll_height"":577,""window_innerWidth"":1366,""window_innerHeight"":625,""devicePixelRatio"":1}",,,,,,,,,,,,,,,5d173bb57a5f6d001a64b4e5,,,,,,,,,,,,,,,4588.428000143051,,form submission,,,,,,,,,,,,,,,,,,,,,17286,17285.60000014305,12665.078,12669.900000095367,12697.172,17428.517,{},,
Introduction,html.Screen,1_0,2022-02-02T16:06:51.009Z,,,,,,,,,,,,,,,,,,,,,,,,,,,,,,,6532.883000095368,,response,,,,,,,,,,,continue,click button,,,,,,,,,23963.900000095367,23961.400000095367,17245.298,17286.400000095367,17428.517,23975.822,,,
Volume calibration,html.Screen,1_1,2022-02-02T16:07:58.684Z,,,,,,,,,,,,,,,,,,,,,,,,,,,,,,,67659.07800009537,,response,,,,,,,,,,,continue,click button,,,,,,,,,91638.20000004768,91634.90000009537,23959.203,23964,23975.822,91647.414,,,
Task instructions,html.Screen,1_2,2022-02-02T16:08:12.560Z,,,,,,,,,,,,,,,,,,,,,,,,,,,,,,,13865.986000095363,,response,,,,,,,,,,,continue,click button,,,,,,,,,105514.29999995232,105513.40000009537,91630.636,91638.40000009537,91647.414,105524.887,,,
Sounds,html.Screen,1_3_0_0,2022-02-02T16:08:16.805Z,,,,,,,,,,,,,,,,,,,,,,,,,,,,,,,4248.123999999996,,timeout,,,,,,,,,3,,,,,,,,I,O,S,,109759,109756.461,105508.28,105514.5,105524.887,109773.011,,,
Judgement,html.Screen,1_3_0_1,2022-02-02T16:08:18.788Z,,,,,,,,,,,,,,,,,,,,,,,,,,,,true,3,,1968.4890000000014,,response,,,,,,,,,3,,3,click #choice-3,,,,,I,O,S,,111742.29999995232,111741.5,109756.461,109759.20000004768,109773.011,111788.918,,,
Trial,flow.Sequence,1_3_0,2022-02-02T16:08:18.788Z,,,,,,,,,,,,,,,,,,,,,,,,,,,,,,,6216.612999999998,,completion,,,,,,,,,3,,,,,,,,I,O,S,,111742.70000004768,111741.5,105508.28,105514.5,105524.887,111788.918,,,
Sounds,html.Screen,1_3_1_0,2022-02-02T16:08:23.067Z,,,,,,,,,,,,,,,,,,,,,,,,,,,,,,,4248.21699999999,,timeout,,,,,,,,,2,,,,,,,,O,S,I,,116021.60000014305,116020.424,111738.986,111743.10000014305,111788.918,116037.135,,,
Judgement,html.Screen,1_3_1_1,2022-02-02T16:08:23.802Z,,,,,,,,,,,,,,,,,,,,,,,,,,,,true,2,,718.2650000953727,,response,,,,,,,,,2,,2,click #choice-2,,,,,O,S,I,,116756.5,116755.40000009537,116020.424,116021.79999995232,116037.135,116770.168,,,
Trial,flow.Sequence,1_3_1,2022-02-02T16:08:23.802Z,,,,,,,,,,,,,,,,,,,,,,,,,,,,,,,4966.482000095362,,completion,,,,,,,,,2,,,,,,,,O,S,I,,116756.79999995232,116755.40000009537,111738.986,111742.79999995232,111788.918,116770.168,,,
Sounds,html.Screen,1_3_2_0,2022-02-02T16:08:28.048Z,,,,,,,,,,,,,,,,,,,,,,,,,,,,,,,4248.239999999991,,timeout,,,,,,,,,2,,,,,,,,I,S,O,,121002.60000014305,121001.697,116753.552,116757,116770.168,121018.408,,,
Judgement,html.Screen,1_3_2_1,2022-02-02T16:08:28.581Z,,,,,,,,,,,,,,,,,,,,,,,,,,,,true,2,,516.0920000000042,,response,,,,,,,,,2,,2,click #choice-2,,,,,I,S,O,,121535.79999995232,121534.5,121001.697,121003.29999995232,121018.408,121568.078,,,
Trial,flow.Sequence,1_3_2,2022-02-02T16:08:28.582Z,,,,,,,,,,,,,,,,,,,,,,,,,,,,,,,4764.331999999995,,completion,,,,,,,,,2,,,,,,,,I,S,O,,121536.20000004768,121534.5,116753.552,116756.90000009537,116770.168,121568.078,,,
Sounds,html.Screen,1_3_3_0,2022-02-02T16:08:32.846Z,,,,,,,,,,,,,,,,,,,,,,,,,,,,,,,4248.273000000001,,timeout,,,,,,,,,1,,,,,,,,S,I,O,,125800.90000009537,125799.682,121566.987,121536.40000009537,121568.078,125816.351,,,
Judgement,html.Screen,1_3_3_1,2022-02-02T16:08:33.633Z,,,,,,,,,,,,,,,,,,,,,,,,,,,,true,1,,770.5490000953723,,response,,,,,,,,,1,,1,click #choice-1,,,,,S,I,O,,126587.70000004768,126586.90000009537,125799.682,125801.20000004768,125816.351,126599.365,,,
Trial,flow.Sequence,1_3_3,2022-02-02T16:08:33.633Z,,,,,,,,,,,,,,,,,,,,,,,,,,,,,,,5018.822000095373,,completion,,,,,,,,,1,,,,,,,,S,I,O,,126587.90000009537,126586.90000009537,121566.987,121536.40000009537,121568.078,126599.365,,,
Sounds,html.Screen,1_3_4_0,2022-02-02T16:08:37.877Z,,,,,,,,,,,,,,,,,,,,,,,,,,,,,,,4248.148000000001,,timeout,,,,,,,,,3,,,,,,,,O,I,S,,130832,130830.861,126582.699,126588,126599.365,130847.513,,,
Judgement,html.Screen,1_3_4_1,2022-02-02T16:08:38.804Z,,,,,,,,,,,,,,,,,,,,,,,,,,,,true,3,,910.28699995231,,response,,,,,,,,,3,,3,click #choice-3,,,,,O,I,S,,131758.60000014305,131757.79999995232,130830.861,130832.10000014305,130847.513,131763.817,,,
Trial,flow.Sequence,1_3_4,2022-02-02T16:08:38.804Z,,,,,,,,,,,,,,,,,,,,,,,,,,,,,,,5158.434999952311,,completion,,,,,,,,,3,,,,,,,,O,I,S,,131758.79999995232,131757.79999995232,126582.699,126587.90000009537,126599.365,131763.817,,,
Sounds,html.Screen,1_3_5_0,2022-02-02T16:08:43.042Z,,,,,,,,,,,,,,,,,,,,,,,,,,,,,,,4248.190000000002,,timeout,,,,,,,,,1,,,,,,,,S,O,I,,135996.79999995232,135995.466,131747.216,131758.90000009537,131763.817,136012.007,,,
Judgement,html.Screen,1_3_5_1,2022-02-02T16:08:43.798Z,,,,,,,,,,,,,,,,,,,,,,,,,,,,true,1,,739.6930000476714,,response,,,,,,,,,1,,1,click #choice-1,,,,,S,O,I,,136752.79999995232,136751.70000004768,135995.466,135996.90000009537,136012.007,136761.695,,,
Trial,flow.Sequence,1_3_5,2022-02-02T16:08:43.798Z,,,,,,,,,,,,,,,,,,,,,,,,,,,,,,,4987.883000047674,,completion,,,,,,,,,1,,,,,,,,S,O,I,,136753,136751.70000004768,131747.216,131758.90000009537,131763.817,136761.695,,,
Task,flow.Loop,1_3,2022-02-02T16:08:43.803Z,,,,,,,,,,,,,,,,,,,,,,,,,,,,,,,31226.81300004768,,completion,,,1,,,,,,,,,,,,,,,,,,136757.79999995232,136751.70000004768,105508.28,105514.29999995232,105524.887,136761.695,,,
Trap,html.Screen,1_4,2022-02-02T16:08:43.805Z,,,,,,,,,,,,,,,,,,,,,,,,,,,,,,,NaN,,skipped,,,,,,,,,,,,,,,,,,,,,136759.20000004768,136751.70000004768,,136759,,136761.695,,,
Thanks,html.Screen,1_5,2022-02-02T16:08:49.567Z,,,,,,,,,,,,,,,,,,,,,,,,,,,,,,,5758.804999999993,,response,,,,,,,,,,,continue,click button,,,,,,,,,142521.40000009537,142520.5,136745.114,136759.29999995232,136761.695,147973.609,,,
Headphone screening,flow.Sequence,1,2022-02-02T16:08:49.567Z,,,,,,,,,,,,,,,,,,,,,,,,,,,,,,,125091.98300000001,,completion,,,,,,,,,,,,,,,,,,,,,142521.5,142520.5,17245.298,17286.299999952316,17428.517,147973.609,,,
Instructions,html.Page,2_0,2022-02-02T16:09:29.539Z,,,,,,,,,,,,,,,,,,,,,,,,,,,,,,,34519.491000143054,,form submission,,,,,,,,,,,,,,,,,,,,,182493.79999995232,182493.10000014305,147840.38,147983.10000014305,147973.609,182509.058,,,
Holding screen,html.Screen,2_1_0_0,2022-02-02T16:09:39.534Z,,,,,,,,,,,,,,,,,,,,,,,,,,,,,,,10095.796000000002,,timeout,,,,,,,,,,,,,,,,,,,,,192488.90000009537,192488.329,182492.422,182494,182509.058,192604.854,,,
screen,html.Screen,2_1_0_1_0,2022-02-02T16:09:40.424Z,,,,,,,,,,,,,,,,,53,,,,,,,,,,,,,,771.5460000953753,,response,,,,99,,,,,,,Space,keypress(Space),,,,,,,,When -- ----- -- ------ - ------- --- ----------<br>------------- ------ ------ ---- ---- ------- ----- -- ----<br>-------- ------- -- ---------- --- - --- ----- ----- ----<br>---- --- --- ----- --- ---- ---- ------- ----- ---- -------<br>--- --- -- ----- -- --- ---- -- --- ---- -- ------ ------<br>--- ----- -- ----,193378.70000004768,193376.40000009537,192488.329,192489.20000004768,192604.854,193388.003,,0,When
screen,html.Screen,2_1_0_1_1,2022-02-02T16:09:41.026Z,,,,,,,,,,,,,,,,,53,,,,,,,,,,,,,,592.3970000953705,,response,,,,99,,,,,,,Space,keypress(Space),,,,,,,,---- it ----- -- ------ - ------- --- ----------<br>------------- ------ ------ ---- ---- ------- ----- -- ----<br>-------- ------- -- ---------- --- - --- ----- ----- ----<br>---- --- --- ----- --- ---- ---- ------- ----- ---- -------<br>--- --- -- ----- -- --- ---- -- --- ---- -- ------ ------<br>--- ----- -- ----,193981,193980.40000009537,193371.449,193378.90000009537,193388.003,193987.601,,1,it
screen,html.Screen,2_1_0_1_2,2022-02-02T16:09:41.490Z,,,,,,,,,,,,,,,,,53,,,,,,,,,,,,,,456.6989999523212,,response,,,,99,,,,,,,Space,keypress(Space),,,,,,,,---- -- comes -- ------ - ------- --- ----------<br>------------- ------ ------ ---- ---- ------- ----- -- ----<br>-------- ------- -- ---------- --- - --- ----- ----- ----<br>---- --- --- ----- --- ---- ---- ------- ----- ---- -------<br>--- --- -- ----- -- --- ---- -- --- ---- -- ------ ------<br>--- ----- -- ----,194444.90000009537,194444.29999995232,193971.129,193981.10000014305,193987.601,194454.215,,2,comes
screen,html.Screen,2_1_0_1_3,2022-02-02T16:09:41.940Z,,,,,,,,,,,,,,,,,53,,,,,,,,,,,,,,440.7850000000035,,response,,,,99,,,,,,,Space,keypress(Space),,,,,,,,---- -- ----- to ------ - ------- --- ----------<br>------------- ------ ------ ---- ---- ------- ----- -- ----<br>-------- ------- -- ---------- --- - --- ----- ----- ----<br>---- --- --- ----- --- ---- ---- ------- ----- ---- -------<br>--- --- -- ----- -- --- ---- -- --- ---- -- ------ ------<br>--- ----- -- ----,194895.5,194895,194437.585,194445,194454.215,194904.021,,3,to
screen,html.Screen,2_1_0_1_4,2022-02-02T16:09:42.360Z,,,,,,,,,,,,,,,,,53,,,,,,,,,,,,,,409.8790000953595,,response,,,,99,,,,,,,Space,keypress(Space),,,,,,,,---- -- ----- -- having - ------- --- ----------<br>------------- ------ ------ ---- ---- ------- ----- -- ----<br>-------- ------- -- ---------- --- - --- ----- ----- ----<br>---- --- --- ----- --- ---- ---- ------- ----- ---- -------<br>--- --- -- ----- -- --- ---- -- --- ---- -- ------ ------<br>--- ----- -- ----,195314.60000014305,195313.90000009537,194887.394,194895.60000014305,194904.021,195320.418,,4,having
screen,html.Screen,2_1_0_1_5,2022-02-02T16:09:42.874Z,,,,,,,,,,,,,,,,,53,,,,,,,,,,,,,,508.0819999999949,,response,,,,99,,,,,,,Space,keypress(Space),,,,,,,,---- -- ----- -- ------ a ------- --- ----------<br>------------- ------ ------ ---- ---- ------- ----- -- ----<br>-------- ------- -- ---------- --- - --- ----- ----- ----<br>---- --- --- ----- --- ---- ---- ------- ----- ---- -------<br>--- --- -- ----- -- --- ---- -- --- ---- -- ------ ------<br>--- ----- -- ----,195829.10000014305,195828.5,195303.89,195314.60000014305,195320.418,195836.971,,5,a
screen,html.Screen,2_1_0_1_6,2022-02-02T16:09:43.424Z,,,,,,,,,,,,,,,,,53,,,,,,,,,,,,,,540.929000095377,,response,,,,99,,,,,,,Space,keypress(Space),,,,,,,,---- -- ----- -- ------ - lasting --- ----------<br>------------- ------ ------ ---- ---- ------- ----- -- ----<br>-------- ------- -- ---------- --- - --- ----- ----- ----<br>---- --- --- ----- --- ---- ---- ------- ----- ---- -------<br>--- --- -- ----- -- --- ---- -- --- ---- -- ------ ------<br>--- ----- -- ----,196379.29999995232,196377.90000009537,195820.332,195829.20000004768,195836.971,196386.738,,6,lasting
screen,html.Screen,2_1_0_1_7,2022-02-02T16:09:43.907Z,,,,,,,,,,,,,,,,,53,,,,,,,,,,,,,,475.0619999523042,,response,,,,99,,,,,,,Space,keypress(Space),,,,,,,,---- -- ----- -- ------ - ------- and ----------<br>------------- ------ ------ ---- ---- ------- ----- -- ----<br>-------- ------- -- ---------- --- - --- ----- ----- ----<br>---- --- --- ----- --- ---- ---- ------- ----- ---- -------<br>--- --- -- ----- -- --- ---- -- --- ---- -- ------ ------<br>--- ----- -- ----,196862.5,196861.79999995232,196370.125,196379.40000009537,196386.738,196869.788,,7,and
screen,html.Screen,2_1_0_1_8,2022-02-02T16:09:44.463Z,,,,,,,,,,,,,,,,,53,,,,,,,,,,,,,,547.2119999999995,,response,,,,99,,,,,,,Space,keypress(Space),,,,,,,,---- -- ----- -- ------ - ------- --- fulfilling<br>------------- ------ ------ ---- ---- ------- ----- -- ----<br>-------- ------- -- ---------- --- - --- ----- ----- ----<br>---- --- --- ----- --- ---- ---- ------- ----- ---- -------<br>--- --- -- ----- -- --- ---- -- --- ---- -- ------ ------<br>--- ----- -- ----,197417.70000004768,197417,196853.253,196862.70000004768,196869.788,197419.532,,8,fulfilling
screen,html.Screen,2_1_0_1_9,2022-02-02T16:09:45.236Z,,,,,,,,,,,,,,,,,53,,,,,,,,,,,,,,771.1680000476772,,response,,,,99,,,,,,,Space,keypress(Space),,,,,,,,"---- -- ----- -- ------ - ------- --- ----------<br>relationship, ------ ------ ---- ---- ------- ----- -- ----<br>-------- ------- -- ---------- --- - --- ----- ----- ----<br>---- --- --- ----- --- ---- ---- ------- ----- ---- -------<br>--- --- -- ----- -- --- ---- -- --- ---- -- ------ ------<br>--- ----- -- ----",198191.40000009537,198190.70000004768,197403.016,197417.79999995232,197419.532,198202.653,,9,"relationship,"
screen,html.Screen,2_1_0_1_10,2022-02-02T16:09:45.740Z,,,,,,,,,,,,,,,,,53,,,,,,,,,,,,,,491.44700014306,,response,,,,99,,,,,,,Space,keypress(Space),,,,,,,,---- -- ----- -- ------ - ------- --- ----------<br>------------- common ------ ---- ---- ------- ----- -- ----<br>-------- ------- -- ---------- --- - --- ----- ----- ----<br>---- --- --- ----- --- ---- ---- ------- ----- ---- -------<br>--- --- -- ----- -- --- ---- -- --- ---- -- ------ ------<br>--- ----- -- ----,198695,198694.10000014305,198186.076,198191.60000014305,198202.653,198702.387,,10,common
screen,html.Screen,2_1_0_1_11,2022-02-02T16:09:46.177Z,,,,,,,,,,,,,,,,,53,,,,,,,,,,,,,,428.6130000000121,,response,,,,99,,,,,,,Space,keypress(Space),,,,,,,,---- -- ----- -- ------ - ------- --- ----------<br>------------- ------ wisdom ---- ---- ------- ----- -- ----<br>-------- ------- -- ---------- --- - --- ----- ----- ----<br>---- --- --- ----- --- ---- ---- ------- ----- ---- -------<br>--- --- -- ----- -- --- ---- -- --- ---- -- ------ ------<br>--- ----- -- ----,199131.70000004768,199131,198685.831,198695.10000014305,198702.387,199135.489,,11,wisdom
screen,html.Screen,2_1_0_1_12,2022-02-02T16:09:46.973Z,,,,,,,,,,,,,,,,,53,,,,,,,,,,,,,,792.1110001430498,,response,,,,99,,,,,,,Space,keypress(Space),,,,,,,,---- -- ----- -- ------ - ------- --- ----------<br>------------- ------ ------ says ---- ------- ----- -- ----<br>-------- ------- -- ---------- --- - --- ----- ----- ----<br>---- --- --- ----- --- ---- ---- ------- ----- ---- -------<br>--- --- -- ----- -- --- ---- -- --- ---- -- ------ ------<br>--- ----- -- ----,199928.10000014305,199927.60000014305,199118.974,199131.79999995232,199135.489,199935.275,,12,says
screen,html.Screen,2_1_0_1_13,2022-02-02T16:09:47.414Z,,,,,,,,,,,,,,,,,53,,,,,,,,,,,,,,432.7250000000058,,response,,,,99,,,,,,,Space,keypress(Space),,,,,,,,---- -- ----- -- ------ - ------- --- ----------<br>------------- ------ ------ ---- that ------- ----- -- ----<br>-------- ------- -- ---------- --- - --- ----- ----- ----<br>---- --- --- ----- --- ---- ---- ------- ----- ---- -------<br>--- --- -- ----- -- --- ---- -- --- ---- -- ------ ------<br>--- ----- -- ----,200368.70000004768,200368,199918.679,199928.29999995232,199935.275,200385.026,,13,that
screen,html.Screen,2_1_0_1_14,2022-02-02T16:09:47.950Z,,,,,,,,,,,,,,,,,53,,,,,,,,,,,,,,519.3740000953549,,response,,,,99,,,,,,,Space,keypress(Space),,,,,,,,---- -- ----- -- ------ - ------- --- ----------<br>------------- ------ ------ ---- ---- feeling ----- -- ----<br>-------- ------- -- ---------- --- - --- ----- ----- ----<br>---- --- --- ----- --- ---- ---- ------- ----- ---- -------<br>--- --- -- ----- -- --- ---- -- --- ---- -- ------ ------<br>--- ----- -- ----,200905.10000014305,200904.40000009537,200368.461,200368.79999995232,200385.026,200918.202,,14,feeling
screen,html.Screen,2_1_0_1_15,2022-02-02T16:09:48.451Z,,,,,,,,,,,,,,,,,53,,,,,,,,,,,,,,486.7980000000098,,response,,,,99,,,,,,,Space,keypress(Space),,,,,,,,---- -- ----- -- ------ - ------- --- ----------<br>------------- ------ ------ ---- ---- ------- close -- ----<br>-------- ------- -- ---------- --- - --- ----- ----- ----<br>---- --- --- ----- --- ---- ---- ------- ----- ---- -------<br>--- --- -- ----- -- --- ---- -- --- ---- -- ------ ------<br>--- ----- -- ----,201405.60000014305,201405,200901.586,200905.29999995232,200918.202,201417.903,,15,close
screen,html.Screen,2_1_0_1_16,2022-02-02T16:09:48.823Z,,,,,,,,,,,,,,,,,53,,,,,,,,,,,,,,359.4970000953763,,response,,,,99,,,,,,,Space,keypress(Space),,,,,,,,---- -- ----- -- ------ - ------- --- ----------<br>------------- ------ ------ ---- ---- ------- ----- to ----<br>-------- ------- -- ---------- --- - --- ----- ----- ----<br>---- --- --- ----- --- ---- ---- ------- ----- ---- -------<br>--- --- -- ----- -- --- ---- -- --- ---- -- ------ ------<br>--- ----- -- ----,201778.10000014305,201777.40000009537,201401.382,201405.79999995232,201417.903,201784.501,,16,to
screen,html.Screen,2_1_0_1_17,2022-02-02T16:09:49.231Z,,,,,,,,,,,,,,,,,53,,,,,,,,,,,,,,400.59900014306186,,response,,,,99,,,,,,,Space,keypress(Space),,,,,,,,---- -- ----- -- ------ - ------- --- ----------<br>------------- ------ ------ ---- ---- ------- ----- -- your<br>-------- ------- -- ---------- --- - --- ----- ----- ----<br>---- --- --- ----- --- ---- ---- ------- ----- ---- -------<br>--- --- -- ----- -- --- ---- -- --- ---- -- ------ ------<br>--- ----- -- ----,202185.70000004768,202185.10000014305,201767.873,201778.20000004768,201784.501,202201.007,,17,your
screen,html.Screen,2_1_0_1_18,2022-02-02T16:09:49.765Z,,,,,,,,,,,,,,,,,53,,,,,,,,,,,,,,518.3930000953551,,response,,,,99,,,,,,,Space,keypress(Space),,,,,,,,---- -- ----- -- ------ - ------- --- ----------<br>------------- ------ ------ ---- ---- ------- ----- -- ----<br>romantic ------- -- ---------- --- - --- ----- ----- ----<br>---- --- --- ----- --- ---- ---- ------- ----- ---- -------<br>--- --- -- ----- -- --- ---- -- --- ---- -- ------ ------<br>--- ----- -- ----,202720,202719.40000009537,202184.394,202185.79999995232,202201.007,202734.119,,18,romantic
screen,html.Screen,2_1_0_1_19,2022-02-02T16:09:50.565Z,,,,,,,,,,,,,,,,,53,,,,,,,,,,,,,,785.1809999523102,,response,,,,99,,,,,,,Space,keypress(Space),,,,,,,,---- -- ----- -- ------ - ------- --- ----------<br>------------- ------ ------ ---- ---- ------- ----- -- ----<br>-------- partner -- ---------- --- - --- ----- ----- ----<br>---- --- --- ----- --- ---- ---- ------- ----- ---- -------<br>--- --- -- ----- -- --- ---- -- --- ---- -- ------ ------<br>--- ----- -- ----,203519.90000009537,203519.29999995232,202717.491,202720.20000004768,202734.119,203533.698,,19,partner
screen,html.Screen,2_1_0_1_20,2022-02-02T16:09:51.324Z,,,,,,,,,,,,,,,,,53,,,,,,,,,,,,,,744.2020000953635,,response,,,,99,,,,,,,Space,keypress(Space),,,,,,,,---- -- ----- -- ------ - ------- --- ----------<br>------------- ------ ------ ---- ---- ------- ----- -- ----<br>-------- ------- is ---------- --- - --- ----- ----- ----<br>---- --- --- ----- --- ---- ---- ------- ----- ---- -------<br>--- --- -- ----- -- --- ---- -- --- ---- -- ------ ------<br>--- ----- -- ----,204278.60000014305,204277.90000009537,203517.152,203520.10000014305,203533.698,204283.359,,20,is
screen,html.Screen,2_1_0_1_21,2022-02-02T16:09:52.451Z,,,,,,,,,,,,,,,,,53,,,,,,,,,,,,,,1121.6410000000033,,response,,,,99,,,,,,,Space,keypress(Space),,,,,,,,---- -- ----- -- ------ - ------- --- ----------<br>------------- ------ ------ ---- ---- ------- ----- -- ----<br>-------- ------- -- paramount. --- - --- ----- ----- ----<br>---- --- --- ----- --- ---- ---- ------- ----- ---- -------<br>--- --- -- ----- -- --- ---- -- --- ---- -- ------ ------<br>--- ----- -- ----,205405.60000014305,205405,204266.907,204278.79999995232,204283.359,205416.354,,21,paramount.
screen,html.Screen,2_1_0_1_22,2022-02-02T16:09:52.939Z,,,,,,,,,,,,,,,,,53,,,,,,,,,,,,,,477.34600004769163,,response,,,,99,,,,,,,Space,keypress(Space),,,,,,,,---- -- ----- -- ------ - ------- --- ----------<br>------------- ------ ------ ---- ---- ------- ----- -- ----<br>-------- ------- -- ---------- But - --- ----- ----- ----<br>---- --- --- ----- --- ---- ---- ------- ----- ---- -------<br>--- --- -- ----- -- --- ---- -- --- ---- -- ------ ------<br>--- ----- -- ----,205894.40000009537,205893.70000004768,205399.676,205405.70000004768,205416.354,205899.49,,22,But
screen,html.Screen,2_1_0_1_23,2022-02-02T16:09:53.141Z,,,,,,,,,,,,,,,,,53,,,,,,,,,,,,,,196.0100000000093,,response,,,,99,,,,,,,Space,keypress(Space),,,,,,,,---- -- ----- -- ------ - ------- --- ----------<br>------------- ------ ------ ---- ---- ------- ----- -- ----<br>-------- ------- -- ---------- --- a --- ----- ----- ----<br>---- --- --- ----- --- ---- ---- ------- ----- ---- -------<br>--- --- -- ----- -- --- ---- -- --- ---- -- ------ ------<br>--- ----- -- ----,206096.10000014305,206095.5,205882.845,205894.5,205899.49,206099.269,,23,a
screen,html.Screen,2_1_0_1_24,2022-02-02T16:09:53.560Z,,,,,,,,,,,,,,,,,53,,,,,,,,,,,,,,415.03099995231605,,response,,,,99,,,,,,,Space,keypress(Space),,,,,,,,---- -- ----- -- ------ - ------- --- ----------<br>------------- ------ ------ ---- ---- ------- ----- -- ----<br>-------- ------- -- ---------- --- - new ----- ----- ----<br>---- --- --- ----- --- ---- ---- ------- ----- ---- -------<br>--- --- -- ----- -- --- ---- -- --- ---- -- ------ ------<br>--- ----- -- ----,206514.79999995232,206514.29999995232,206082.639,206096.20000004768,206099.269,206544.303,,24,new
screen,html.Screen,2_1_0_1_25,2022-02-02T16:09:53.776Z,,,,,,,,,,,,,,,,,53,,,,,,,,,,,,,,186.19699999998556,,response,,,,99,,,,,,,Space,keypress(Space),,,,,,,,---- -- ----- -- ------ - ------- --- ----------<br>------------- ------ ------ ---- ---- ------- ----- -- ----<br>-------- ------- -- ---------- --- - --- study ----- ----<br>---- --- --- ----- --- ---- ---- ------- ----- ---- -------<br>--- --- -- ----- -- --- ---- -- --- ---- -- ------ ------<br>--- ----- -- ----,206731.10000014305,206730.5,206499.284,206515,206544.303,206761.202,,25,study
screen,html.Screen,2_1_0_1_26,2022-02-02T16:09:54.300Z,,,,,,,,,,,,,,,,,53,,,,,,,,,,,,,,493.59799995232606,,response,,,,99,,,,,,,Space,keypress(Space),,,,,,,,---- -- ----- -- ------ - ------- --- ----------<br>------------- ------ ------ ---- ---- ------- ----- -- ----<br>-------- ------- -- ---------- --- - --- ----- finds ----<br>---- --- --- ----- --- ---- ---- ------- ----- ---- -------<br>--- --- -- ----- -- --- ---- -- --- ---- -- ------ ------<br>--- ----- -- ----,207255.40000009537,207254.79999995232,206715.857,206731.20000004768,206761.202,207265.434,,26,finds
screen,html.Screen,2_1_0_1_27,2022-02-02T16:09:54.508Z,,,,,,,,,,,,,,,,,53,,,,,,,,,,,,,,196.3659999523079,,response,,,,99,,,,,,,Space,keypress(Space),,,,,,,,---- -- ----- -- ------ - ------- --- ----------<br>------------- ------ ------ ---- ---- ------- ----- -- ----<br>-------- ------- -- ---------- --- - --- ----- ----- that<br>---- --- --- ----- --- ---- ---- ------- ----- ---- -------<br>--- --- -- ----- -- --- ---- -- --- ---- -- ------ ------<br>--- ----- -- ----,207462.70000004768,207461.79999995232,207248.972,207255.5,207265.434,207465.348,,27,that
screen,html.Screen,2_1_0_1_28,2022-02-02T16:09:54.999Z,,,,,,,,,,,,,,,,,53,,,,,,,,,,,,,,487.65200000000186,,response,,,,99,,,,,,,Space,keypress(Space),,,,,,,,---- -- ----- -- ------ - ------- --- ----------<br>------------- ------ ------ ---- ---- ------- ----- -- ----<br>-------- ------- -- ---------- --- - --- ----- ----- ----<br>it's --- --- ----- --- ---- ---- ------- ----- ---- -------<br>--- --- -- ----- -- --- ---- -- --- ---- -- ------ ------<br>--- ----- -- ----,207953.60000014305,207953,207448.832,207462.79999995232,207465.348,207965.398,,28,it's
screen,html.Screen,2_1_0_1_29,2022-02-02T16:09:55.345Z,,,,,,,,,,,,,,,,,53,,,,,,,,,,,,,,333.9019999523298,,response,,,,99,,,,,,,Space,keypress(Space),,,,,,,,---- -- ----- -- ------ - ------- --- ----------<br>------------- ------ ------ ---- ---- ------- ----- -- ----<br>-------- ------- -- ---------- --- - --- ----- ----- ----<br>---- not --- ----- --- ---- ---- ------- ----- ---- -------<br>--- --- -- ----- -- --- ---- -- --- ---- -- ------ ------<br>--- ----- -- ----,208299.90000009537,208299.29999995232,207948.655,207953.79999995232,207965.398,208315.136,,29,not
screen,html.Screen,2_1_0_1_30,2022-02-02T16:09:55.584Z,,,,,,,,,,,,,,,,,53,,,,,,,,,,,,,,223.26400009536883,,response,,,,99,,,,,,,Space,keypress(Space),,,,,,,,---- -- ----- -- ------ - ------- --- ----------<br>------------- ------ ------ ---- ---- ------- ----- -- ----<br>-------- ------- -- ---------- --- - --- ----- ----- ----<br>---- --- how ----- --- ---- ---- ------- ----- ---- -------<br>--- --- -- ----- -- --- ---- -- --- ---- -- ------ ------<br>--- ----- -- ----,208539,208538.40000009537,208298.491,208300.10000014305,208315.136,208548.388,,30,how
screen,html.Screen,2_1_0_1_31,2022-02-02T16:09:56.043Z,,,,,,,,,,,,,,,,,53,,,,,,,,,,,,,,449.01200009536115,,response,,,,99,,,,,,,Space,keypress(Space),,,,,,,,---- -- ----- -- ------ - ------- --- ----------<br>------------- ------ ------ ---- ---- ------- ----- -- ----<br>-------- ------- -- ---------- --- - --- ----- ----- ----<br>---- --- --- close --- ---- ---- ------- ----- ---- -------<br>--- --- -- ----- -- --- ---- -- --- ---- -- ------ ------<br>--- ----- -- ----,208998,208997.40000009537,208531.733,208539,208548.388,209014.812,,31,close
screen,html.Screen,2_1_0_1_32,2022-02-02T16:09:56.280Z,,,,,,,,,,,,,,,,,53,,,,,,,,,,,,,,219.18799999999464,,response,,,,99,,,,,,,Space,keypress(Space),,,,,,,,---- -- ----- -- ------ - ------- --- ----------<br>------------- ------ ------ ---- ---- ------- ----- -- ----<br>-------- ------- -- ---------- --- - --- ----- ----- ----<br>---- --- --- ----- you ---- ---- ------- ----- ---- -------<br>--- --- -- ----- -- --- ---- -- --- ---- -- ------ ------<br>--- ----- -- ----,209234.60000014305,209234,208998.22,208998.20000004768,209014.812,209248.097,,32,you
screen,html.Screen,2_1_0_1_33,2022-02-02T16:09:56.521Z,,,,,,,,,,,,,,,,,53,,,,,,,,,,,,,,227.60300004767487,,response,,,,99,,,,,,,Space,keypress(Space),,,,,,,,---- -- ----- -- ------ - ------- --- ----------<br>------------- ------ ------ ---- ---- ------- ----- -- ----<br>-------- ------- -- ---------- --- - --- ----- ----- ----<br>---- --- --- ----- --- feel ---- ------- ----- ---- -------<br>--- --- -- ----- -- --- ---- -- --- ---- -- ------ ------<br>--- ----- -- ----,209476.20000004768,209475.70000004768,209231.423,209234.70000004768,209248.097,209481.19,,33,feel
screen,html.Screen,2_1_0_1_34,2022-02-02T16:09:56.839Z,,,,,,,,,,,,,,,,,53,,,,,,,,,,,,,,312.60999995231396,,response,,,,99,,,,,,,Space,keypress(Space),,,,,,,,---- -- ----- -- ------ - ------- --- ----------<br>------------- ------ ------ ---- ---- ------- ----- -- ----<br>-------- ------- -- ---------- --- - --- ----- ----- ----<br>---- --- --- ----- --- ---- that ------- ----- ---- -------<br>--- --- -- ----- -- --- ---- -- --- ---- -- ------ ------<br>--- ----- -- ----,209794.40000009537,209793.79999995232,209464.669,209476.40000009537,209481.19,209797.741,,34,that
screen,html.Screen,2_1_0_1_35,2022-02-02T16:09:57.247Z,,,,,,,,,,,,,,,,,53,,,,,,,,,,,,,,403.45900004767464,,response,,,,99,,,,,,,Space,keypress(Space),,,,,,,,---- -- ----- -- ------ - ------- --- ----------<br>------------- ------ ------ ---- ---- ------- ----- -- ----<br>-------- ------- -- ---------- --- - --- ----- ----- ----<br>---- --- --- ----- --- ---- ---- matters ----- ---- -------<br>--- --- -- ----- -- --- ---- -- --- ---- -- ------ ------<br>--- ----- -- ----,210201.79999995232,210201.20000004768,209781.256,209794.5,209797.741,210214.352,,35,matters
screen,html.Screen,2_1_0_1_36,2022-02-02T16:09:58.195Z,,,,,,,,,,,,,,,,,53,,,,,,,,,,,,,,934.7480001430376,,response,,,,99,,,,,,,Space,keypress(Space),,,,,,,,"---- -- ----- -- ------ - ------- --- ----------<br>------------- ------ ------ ---- ---- ------- ----- -- ----<br>-------- ------- -- ---------- --- - --- ----- ----- ----<br>---- --- --- ----- --- ---- ---- ------- most, ---- -------<br>--- --- -- ----- -- --- ---- -- --- ---- -- ------ ------<br>--- ----- -- ----",211149.79999995232,211149.10000014305,210197.692,210202,210214.352,211163.919,,36,"most,"
screen,html.Screen,2_1_0_1_37,2022-02-02T16:09:58.606Z,,,,,,,,,,,,,,,,,53,,,,,,,,,,,,,,396.481000095373,,response,,,,99,,,,,,,Space,keypress(Space),,,,,,,,---- -- ----- -- ------ - ------- --- ----------<br>------------- ------ ------ ---- ---- ------- ----- -- ----<br>-------- ------- -- ---------- --- - --- ----- ----- ----<br>---- --- --- ----- --- ---- ---- ------- ----- it's -------<br>--- --- -- ----- -- --- ---- -- --- ---- -- ------ ------<br>--- ----- -- ----,211560.90000009537,211560.40000009537,211147.399,211149.90000009537,211163.919,211563.661,,37,it's
screen,html.Screen,2_1_0_1_38,2022-02-02T16:09:59.233Z,,,,,,,,,,,,,,,,,53,,,,,,,,,,,,,,623.7390000953746,,response,,,,99,,,,,,,Space,keypress(Space),,,,,,,,---- -- ----- -- ------ - ------- --- ----------<br>------------- ------ ------ ---- ---- ------- ----- -- ----<br>-------- ------- -- ---------- --- - --- ----- ----- ----<br>---- --- --- ----- --- ---- ---- ------- ----- ---- whether<br>--- --- -- ----- -- --- ---- -- --- ---- -- ------ ------<br>--- ----- -- ----,212188.29999995232,212187.40000009537,211547.16,211561.10000014305,211563.661,212196.814,,38,whether
screen,html.Screen,2_1_0_1_39,2022-02-02T16:09:59.703Z,,,,,,,,,,,,,,,,,53,,,,,,,,,,,,,,460.2860001430381,,response,,,,99,,,,,,,Space,keypress(Space),,,,,,,,---- -- ----- -- ------ - ------- --- ----------<br>------------- ------ ------ ---- ---- ------- ----- -- ----<br>-------- ------- -- ---------- --- - --- ----- ----- ----<br>---- --- --- ----- --- ---- ---- ------- ----- ---- -------<br>you --- -- ----- -- --- ---- -- --- ---- -- ------ ------<br>--- ----- -- ----,212657.70000004768,212657.10000014305,212180.222,212188.40000009537,212196.814,212663.218,,39,you
screen,html.Screen,2_1_0_1_40,2022-02-02T16:10:00.106Z,,,,,,,,,,,,,,,,,53,,,,,,,,,,,,,,397.48200004769024,,response,,,,99,,,,,,,Space,keypress(Space),,,,,,,,---- -- ----- -- ------ - ------- --- ----------<br>------------- ------ ------ ---- ---- ------- ----- -- ----<br>-------- ------- -- ---------- --- - --- ----- ----- ----<br>---- --- --- ----- --- ---- ---- ------- ----- ---- -------<br>--- are -- ----- -- --- ---- -- --- ---- -- ------ ------<br>--- ----- -- ----,213061.29999995232,213060.70000004768,212646.747,212657.79999995232,212663.218,213094.085,,40,are
screen,html.Screen,2_1_0_1_41,2022-02-02T16:10:00.557Z,,,,,,,,,,,,,,,,,53,,,,,,,,,,,,,,417.21499995232443,,response,,,,99,,,,,,,Space,keypress(Space),,,,,,,,---- -- ----- -- ------ - ------- --- ----------<br>------------- ------ ------ ---- ---- ------- ----- -- ----<br>-------- ------- -- ---------- --- - --- ----- ----- ----<br>---- --- --- ----- --- ---- ---- ------- ----- ---- -------<br>--- --- as ----- -- --- ---- -- --- ---- -- ------ ------<br>--- ----- -- ----,213512.10000014305,213511.29999995232,213046.529,213062.29999995232,213094.085,213529.607,,41,as
screen,html.Screen,2_1_0_1_42,2022-02-02T16:10:00.955Z,,,,,,,,,,,,,,,,,53,,,,,,,,,,,,,,380.2930000953784,,response,,,,99,,,,,,,Space,keypress(Space),,,,,,,,---- -- ----- -- ------ - ------- --- ----------<br>------------- ------ ------ ---- ---- ------- ----- -- ----<br>-------- ------- -- ---------- --- - --- ----- ----- ----<br>---- --- --- ----- --- ---- ---- ------- ----- ---- -------<br>--- --- -- close -- --- ---- -- --- ---- -- ------ ------<br>--- ----- -- ----,213910.5,213909.90000009537,213496.379,213512.29999995232,213529.607,213912.681,,42,close
screen,html.Screen,2_1_0_1_43,2022-02-02T16:10:01.353Z,,,,,,,,,,,,,,,,,53,,,,,,,,,,,,,,394.3189999999886,,response,,,,99,,,,,,,Space,keypress(Space),,,,,,,,---- -- ----- -- ------ - ------- --- ----------<br>------------- ------ ------ ---- ---- ------- ----- -- ----<br>-------- ------- -- ---------- --- - --- ----- ----- ----<br>---- --- --- ----- --- ---- ---- ------- ----- ---- -------<br>--- --- -- ----- as --- ---- -- --- ---- -- ------ ------<br>--- ----- -- ----,214307.60000014305,214307,213896.157,213910.60000014305,213912.681,214312.516,,43,as
screen,html.Screen,2_1_0_1_44,2022-02-02T16:10:01.712Z,,,,,,,,,,,,,,,,,53,,,,,,,,,,,,,,353.68400004768046,,response,,,,99,,,,,,,Space,keypress(Space),,,,,,,,---- -- ----- -- ------ - ------- --- ----------<br>------------- ------ ------ ---- ---- ------- ----- -- ----<br>-------- ------- -- ---------- --- - --- ----- ----- ----<br>---- --- --- ----- --- ---- ---- ------- ----- ---- -------<br>--- --- -- ----- -- you ---- -- --- ---- -- ------ ------<br>--- ----- -- ----,214666.79999995232,214666.20000004768,214296.029,214307.79999995232,214312.516,214679.121,,44,you
screen,html.Screen,2_1_0_1_45,2022-02-02T16:10:02.126Z,,,,,,,,,,,,,,,,,53,,,,,,,,,,,,,,401.57900004767,,response,,,,99,,,,,,,Space,keypress(Space),,,,,,,,---- -- ----- -- ------ - ------- --- ----------<br>------------- ------ ------ ---- ---- ------- ----- -- ----<br>-------- ------- -- ---------- --- - --- ----- ----- ----<br>---- --- --- ----- --- ---- ---- ------- ----- ---- -------<br>--- --- -- ----- -- --- want -- --- ---- -- ------ ------<br>--- ----- -- ----,215081.29999995232,215080.70000004768,214662.525,214666.90000009537,214679.121,215095.539,,45,want
screen,html.Screen,2_1_0_1_46,2022-02-02T16:10:02.515Z,,,,,,,,,,,,,,,,,53,,,,,,,,,,,,,,374.0610001430614,,response,,,,99,,,,,,,Space,keypress(Space),,,,,,,,---- -- ----- -- ------ - ------- --- ----------<br>------------- ------ ------ ---- ---- ------- ----- -- ----<br>-------- ------- -- ---------- --- - --- ----- ----- ----<br>---- --- --- ----- --- ---- ---- ------- ----- ---- -------<br>--- --- -- ----- -- --- ---- to --- ---- -- ------ ------<br>--- ----- -- ----,215470.10000014305,215469.60000014305,215079.013,215081.40000009537,215095.539,215478.778,,46,to
screen,html.Screen,2_1_0_1_47,2022-02-02T16:10:02.885Z,,,,,,,,,,,,,,,,,53,,,,,,,,,,,,,,360.92200004769256,,response,,,,99,,,,,,,Space,keypress(Space),,,,,,,,"---- -- ----- -- ------ - ------- --- ----------<br>------------- ------ ------ ---- ---- ------- ----- -- ----<br>-------- ------- -- ---------- --- - --- ----- ----- ----<br>---- --- --- ----- --- ---- ---- ------- ----- ---- -------<br>--- --- -- ----- -- --- ---- -- be, ---- -- ------ ------<br>--- ----- -- ----",215840.29999995232,215839.70000004768,215462.205,215470.29999995232,215478.778,215845.218,,47,"be,"
screen,html.Screen,2_1_0_1_48,2022-02-02T16:10:03.383Z,,,,,,,,,,,,,,,,,53,,,,,,,,,,,,,,491.88200014305767,,response,,,,99,,,,,,,Space,keypress(Space),,,,,,,,---- -- ----- -- ------ - ------- --- ----------<br>------------- ------ ------ ---- ---- ------- ----- -- ----<br>-------- ------- -- ---------- --- - --- ----- ----- ----<br>---- --- --- ----- --- ---- ---- ------- ----- ---- -------<br>--- --- -- ----- -- --- ---- -- --- even -- ------ ------<br>--- ----- -- ----,216337.79999995232,216337.10000014305,215828.74,215840.40000009537,215845.218,216345.156,,48,even
screen,html.Screen,2_1_0_1_49,2022-02-02T16:10:03.609Z,,,,,,,,,,,,,,,,,53,,,,,,,,,,,,,,218.7440000953793,,response,,,,99,,,,,,,Space,keypress(Space),,,,,,,,---- -- ----- -- ------ - ------- --- ----------<br>------------- ------ ------ ---- ---- ------- ----- -- ----<br>-------- ------- -- ---------- --- - --- ----- ----- ----<br>---- --- --- ----- --- ---- ---- ------- ----- ---- -------<br>--- --- -- ----- -- --- ---- -- --- ---- if ------ ------<br>--- ----- -- ----,216564.5,216563.90000009537,216328.557,216337.90000009537,216345.156,216578.311,,49,if
screen,html.Screen,2_1_0_1_50,2022-02-02T16:10:04.048Z,,,,,,,,,,,,,,,,,53,,,,,,,,,,,,,,423.4889999523293,,response,,,,99,,,,,,,Space,keypress(Space),,,,,,,,---- -- ----- -- ------ - ------- --- ----------<br>------------- ------ ------ ---- ---- ------- ----- -- ----<br>-------- ------- -- ---------- --- - --- ----- ----- ----<br>---- --- --- ----- --- ---- ---- ------- ----- ---- -------<br>--- --- -- ----- -- --- ---- -- --- ---- -- that's ------<br>--- ----- -- ----,217002.5,217001.79999995232,216561.723,216564.60000014305,216578.311,217011.54,,50,that's
screen,html.Screen,2_1_0_1_51,2022-02-02T16:10:04.497Z,,,,,,,,,,,,,,,,,53,,,,,,,,,,,,,,439.95999999999185,,response,,,,99,,,,,,,Space,keypress(Space),,,,,,,,---- -- ----- -- ------ - ------- --- ----------<br>------------- ------ ------ ---- ---- ------- ----- -- ----<br>-------- ------- -- ---------- --- - --- ----- ----- ----<br>---- --- --- ----- --- ---- ---- ------- ----- ---- -------<br>--- --- -- ----- -- --- ---- -- --- ---- -- ------ really<br>--- ----- -- ----,217452.20000004768,217451.5,216994.896,217002.60000014305,217011.54,217461.284,,51,really
screen,html.Screen,2_1_0_1_52,2022-02-02T16:10:04.983Z,,,,,,,,,,,,,,,,,53,,,,,,,,,,,,,,476.31600014303694,,response,,,,99,,,,,,,Space,keypress(Space),,,,,,,,---- -- ----- -- ------ - ------- --- ----------<br>------------- ------ ------ ---- ---- ------- ----- -- ----<br>-------- ------- -- ---------- --- - --- ----- ----- ----<br>---- --- --- ----- --- ---- ---- ------- ----- ---- -------<br>--- --- -- ----- -- --- ---- -- --- ---- -- ------ ------<br>not ----- -- ----,217938.20000004768,217937.60000014305,217444.715,217452.40000009537,217461.284,217944.391,,52,not
screen,html.Screen,2_1_0_1_53,2022-02-02T16:10:05.402Z,,,,,,,,,,,,,,,,,53,,,,,,,,,,,,,,411.7090001430479,,response,,,,99,,,,,,,Space,keypress(Space),,,,,,,,---- -- ----- -- ------ - ------- --- ----------<br>------------- ------ ------ ---- ---- ------- ----- -- ----<br>-------- ------- -- ---------- --- - --- ----- ----- ----<br>---- --- --- ----- --- ---- ---- ------- ----- ---- -------<br>--- --- -- ----- -- --- ---- -- --- ---- -- ------ ------<br>--- close -- ----,218356.79999995232,218356.10000014305,217927.847,217938.40000009537,217944.391,218360.999,,53,close
screen,html.Screen,2_1_0_1_54,2022-02-02T16:10:05.802Z,,,,,,,,,,,,,,,,,53,,,,,,,,,,,,,,395.201000047673,,response,,,,99,,,,,,,Space,keypress(Space),,,,,,,,---- -- ----- -- ------ - ------- --- ----------<br>------------- ------ ------ ---- ---- ------- ----- -- ----<br>-------- ------- -- ---------- --- - --- ----- ----- ----<br>---- --- --- ----- --- ---- ---- ------- ----- ---- -------<br>--- --- -- ----- -- --- ---- -- --- ---- -- ------ ------<br>--- ----- at ----,218756.79999995232,218756.20000004768,218344.345,218356.90000009537,218360.999,218760.794,,54,at
screen,html.Screen,2_1_0_1_55,2022-02-02T16:10:06.228Z,,,,,,,,,,,,,,,,,53,,,,,,,,,,,,,,422.0059999523219,,response,,,,99,,,,,,,Space,keypress(Space),,,,,,,,---- -- ----- -- ------ - ------- --- ----------<br>------------- ------ ------ ---- ---- ------- ----- -- ----<br>-------- ------- -- ---------- --- - --- ----- ----- ----<br>---- --- --- ----- --- ---- ---- ------- ----- ---- -------<br>--- --- -- ----- -- --- ---- -- --- ---- -- ------ ------<br>--- ----- -- all.,219183.40000009537,219182.79999995232,218744.187,218757,218760.794,219193.818,,55,all.
Item 99,flow.Loop,2_1_0_1,2022-02-02T16:10:06.229Z,,,,,,,,,,,,,,,,,,,,,,,,,,,,,,,26577.945999952324,,completion,,,,,D,,,,,,,,,,,silence,,,,,219183.79999995232,219182.79999995232,192488.329,192489.10000014305,192604.854,219193.818,,,
Question 1,html.Screen,2_1_0_2,2022-02-02T16:10:17.359Z,,,,,,,,,,,,,,,,,,,,,,,,,,,,true,FALSE,,11119.082000095368,,response,,,,99,D,,,,,,FALSE,click #choice-2,,,,silence,,,,,230313.70000004768,230312.90000009537,219177.319,219183.79999995232,219193.818,230322.594,,,
Question 2,html.Screen,2_1_0_3,2022-02-02T16:10:24.247Z,,,,,,,,,,,,,,,,,,,,,,,,,,,,true,TRUE,,6878.306000095356,,response,,,,99,D,,,,,,TRUE,click #choice-1,,,,silence,,,,,237201.79999995232,237200.90000009537,230306.004,230313.79999995232,230322.594,237203.042,,,
Item 99,flow.Sequence,2_1_0,2022-02-02T16:10:24.247Z,,,,,,,,,,,,,,,,,,,,,,,,,,,,,,,54691.84200009538,,completion,,,,,,,,,,,,,,,,,,,,,237202,237200.90000009537,182492.422,182494,182509.058,237203.042,,,
Holding screen,html.Screen,2_1_1_0,2022-02-02T16:10:34.228Z,,,,,,,,,,,,,,,,,,,,,,,,,,,,,,,9995.98000000001,,timeout,,,,,,,,,,,,,,,,,,,,,247182.79999995232,247182.248,237186.485,237202.10000014305,237203.042,247199.022,,,
screen,html.Screen,2_1_1_1_0,2022-02-02T16:10:35.533Z,,,,,,,,,,,,,,,,,54,,,,,,,,,,,,,,1287.4780000000028,,response,,,,100,,,,,,,Space,keypress(Space),,,,,,,,At --- ---- --- ------ ----- ------- ---- -- --- ------- --<br>------- ---------- ------ -- ----- -- ----- -- ---- ------<br>--- ----- --- --- ------ -------- ----- --- ------ ----- --<br>----- ----- ---------- --- --- ------ ------ ---- -- ------<br>------- --- ------ ----- --- ---- ------- -- ---- --- --<br>------- ------,248487.29999995232,248486.5,247182.248,247183,247199.022,248498.411,,0,At
screen,html.Screen,2_1_1_1_1,2022-02-02T16:10:35.998Z,,,,,,,,,,,,,,,,,54,,,,,,,,,,,,,,453.98900009537465,,response,,,,100,,,,,,,Space,keypress(Space),,,,,,,,-- the ---- --- ------ ----- ------- ---- -- --- ------- --<br>------- ---------- ------ -- ----- -- ----- -- ---- ------<br>--- ----- --- --- ------ -------- ----- --- ------ ----- --<br>----- ----- ---------- --- --- ------ ------ ---- -- ------<br>------- --- ------ ----- --- ---- ------- -- ---- --- --<br>------- ------,248953,248952.40000009537,248481.964,248487.40000009537,248498.411,248964.949,,1,the
screen,html.Screen,2_1_1_1_2,2022-02-02T16:10:36.693Z,,,,,,,,,,,,,,,,,54,,,,,,,,,,,,,,682.350999952323,,response,,,,100,,,,,,,Space,keypress(Space),,,,,,,,-- --- time --- ------ ----- ------- ---- -- --- ------- --<br>------- ---------- ------ -- ----- -- ----- -- ---- ------<br>--- ----- --- --- ------ -------- ----- --- ------ ----- --<br>----- ----- ---------- --- --- ------ ------ ---- -- ------<br>------- --- ------ ----- --- ---- ------- -- ---- --- --<br>------- ------,249647.90000009537,249647.29999995232,248948.345,248953.10000014305,248964.949,249664.67,,2,time
screen,html.Screen,2_1_1_1_3,2022-02-02T16:10:37.346Z,,,,,,,,,,,,,,,,,54,,,,,,,,,,,,,,635.0300000476709,,response,,,,100,,,,,,,Space,keypress(Space),,,,,,,,-- --- ---- the ------ ----- ------- ---- -- --- ------- --<br>------- ---------- ------ -- ----- -- ----- -- ---- ------<br>--- ----- --- --- ------ -------- ----- --- ------ ----- --<br>----- ----- ---------- --- --- ------ ------ ---- -- ------<br>------- --- ------ ----- --- ---- ------- -- ---- --- --<br>------- ------,250300.20000004768,250299.70000004768,249648.086,249648,249664.67,250314.412,,3,the
screen,html.Screen,2_1_1_1_4,2022-02-02T16:10:37.866Z,,,,,,,,,,,,,,,,,54,,,,,,,,,,,,,,505.0879999999888,,response,,,,100,,,,,,,Space,keypress(Space),,,,,,,,-- --- ---- --- French ----- ------- ---- -- --- ------- --<br>------- ---------- ------ -- ----- -- ----- -- ---- ------<br>--- ----- --- --- ------ -------- ----- --- ------ ----- --<br>----- ----- ---------- --- --- ------ ------ ---- -- ------<br>------- --- ------ ----- --- ---- ------- -- ---- --- --<br>------- ------,250820.10000014305,250819.5,250297.735,250300.29999995232,250314.412,250830.853,,4,French
screen,html.Screen,2_1_1_1_5,2022-02-02T16:10:38.311Z,,,,,,,,,,,,,,,,,54,,,,,,,,,,,,,,433.74700014304835,,response,,,,100,,,,,,,Space,keypress(Space),,,,,,,,-- --- ---- --- ------ crown ------- ---- -- --- ------- --<br>------- ---------- ------ -- ----- -- ----- -- ---- ------<br>--- ----- --- --- ------ -------- ----- --- ------ ----- --<br>----- ----- ---------- --- --- ------ ------ ---- -- ------<br>------- --- ------ ----- --- ---- ------- -- ---- --- --<br>------- ------,251265.29999995232,251264.60000014305,250814.237,250820.29999995232,250830.853,251280.782,,5,crown
screen,html.Screen,2_1_1_1_6,2022-02-02T16:10:38.986Z,,,,,,,,,,,,,,,,,54,,,,,,,,,,,,,,658.9180000476772,,response,,,,100,,,,,,,Space,keypress(Space),,,,,,,,-- --- ---- --- ------ ----- secured ---- -- --- ------- --<br>------- ---------- ------ -- ----- -- ----- -- ---- ------<br>--- ----- --- --- ------ -------- ----- --- ------ ----- --<br>----- ----- ---------- --- --- ------ ------ ---- -- ------<br>------- --- ------ ----- --- ---- ------- -- ---- --- --<br>------- ------,251940.20000004768,251939.70000004768,251264.035,251265.40000009537,251280.782,251947.008,,6,secured
screen,html.Screen,2_1_1_1_7,2022-02-02T16:10:39.485Z,,,,,,,,,,,,,,,,,54,,,,,,,,,,,,,,492.0920001430495,,response,,,,100,,,,,,,Space,keypress(Space),,,,,,,,-- --- ---- --- ------ ----- ------- much -- --- ------- --<br>------- ---------- ------ -- ----- -- ----- -- ---- ------<br>--- ----- --- --- ------ -------- ----- --- ------ ----- --<br>----- ----- ---------- --- --- ------ ------ ---- -- ------<br>------- --- ------ ----- --- ---- ------- -- ---- --- --<br>------- ------,252439.70000004768,252439.10000014305,251930.457,251940.29999995232,251947.008,252446.846,,7,much
screen,html.Screen,2_1_1_1_8,2022-02-02T16:10:39.893Z,,,,,,,,,,,,,,,,,54,,,,,,,,,,,,,,399.554000095377,,response,,,,100,,,,,,,Space,keypress(Space),,,,,,,,-- --- ---- --- ------ ----- ------- ---- of --- ------- --<br>------- ---------- ------ -- ----- -- ----- -- ---- ------<br>--- ----- --- --- ------ -------- ----- --- ------ ----- --<br>----- ----- ---------- --- --- ------ ------ ---- -- ------<br>------- --- ------ ----- --- ---- ------- -- ---- --- --<br>------- ------,252847.20000004768,252846.40000009537,252430.232,252439.79999995232,252446.846,252863.343,,8,of
screen,html.Screen,2_1_1_1_9,2022-02-02T16:10:40.153Z,,,,,,,,,,,,,,,,,54,,,,,,,,,,,,,,243.25700014305767,,response,,,,100,,,,,,,Space,keypress(Space),,,,,,,,-- --- ---- --- ------ ----- ------- ---- -- its ------- --<br>------- ---------- ------ -- ----- -- ----- -- ---- ------<br>--- ----- --- --- ------ -------- ----- --- ------ ----- --<br>----- ----- ---------- --- --- ------ ------ ---- -- ------<br>------- --- ------ ----- --- ---- ------- -- ---- --- --<br>------- ------,253107.10000014305,253106.60000014305,252846.711,252847.29999995232,252863.343,253113.164,,9,its
screen,html.Screen,2_1_1_1_10,2022-02-02T16:10:40.374Z,,,,,,,,,,,,,,,,,54,,,,,,,,,,,,,,215.13599995232653,,response,,,,100,,,,,,,Space,keypress(Space),,,,,,,,-- --- ---- --- ------ ----- ------- ---- -- --- revenue --<br>------- ---------- ------ -- ----- -- ----- -- ---- ------<br>--- ----- --- --- ------ -------- ----- --- ------ ----- --<br>----- ----- ---------- --- --- ------ ------ ---- -- ------<br>------- --- ------ ----- --- ---- ------- -- ---- --- --<br>------- ------,253329,253328.29999995232,253096.583,253107.29999995232,253113.164,253357.116,,10,revenue
screen,html.Screen,2_1_1_1_11,2022-02-02T16:10:41.021Z,,,,,,,,,,,,,,,,,54,,,,,,,,,,,,,,617.8839999999909,,response,,,,100,,,,,,,Space,keypress(Space),,,,,,,,-- --- ---- --- ------ ----- ------- ---- -- --- ------- by<br>------- ---------- ------ -- ----- -- ----- -- ---- ------<br>--- ----- --- --- ------ -------- ----- --- ------ ----- --<br>----- ----- ---------- --- --- ------ ------ ---- -- ------<br>------- --- ------ ----- --- ---- ------- -- ---- --- --<br>------- ------,253975.60000014305,253975,253313.157,253329.10000014305,253357.116,253979.521,,11,by
screen,html.Screen,2_1_1_1_12,2022-02-02T16:10:41.624Z,,,,,,,,,,,,,,,,,54,,,,,,,,,,,,,,598.5790001430432,,response,,,,100,,,,,,,Space,keypress(Space),,,,,,,,-- --- ---- --- ------ ----- ------- ---- -- --- ------- --<br>issuing ---------- ------ -- ----- -- ----- -- ---- ------<br>--- ----- --- --- ------ -------- ----- --- ------ ----- --<br>----- ----- ---------- --- --- ------ ------ ---- -- ------<br>------- --- ------ ----- --- ---- ------- -- ---- --- --<br>------- ------,254578.70000004768,254578.10000014305,253962.993,253975.79999995232,253979.521,254598.085,,12,issuing
screen,html.Screen,2_1_1_1_13,2022-02-02T16:10:42.183Z,,,,,,,,,,,,,,,,,54,,,,,,,,,,,,,,538.7149999523244,,response,,,,100,,,,,,,Space,keypress(Space),,,,,,,,-- --- ---- --- ------ ----- ------- ---- -- --- ------- --<br>------- government ------ -- ----- -- ----- -- ---- ------<br>--- ----- --- --- ------ -------- ----- --- ------ ----- --<br>----- ----- ---------- --- --- ------ ------ ---- -- ------<br>------- --- ------ ----- --- ---- ------- -- ---- --- --<br>------- ------,255137.40000009537,255136.79999995232,254562.667,254578.79999995232,254598.085,255145.747,,13,government
screen,html.Screen,2_1_1_1_14,2022-02-02T16:10:42.594Z,,,,,,,,,,,,,,,,,54,,,,,,,,,,,,,,401.8530001430481,,response,,,,100,,,,,,,Space,keypress(Space),,,,,,,,-- --- ---- --- ------ ----- ------- ---- -- --- ------- --<br>------- ---------- bonds. -- ----- -- ----- -- ---- ------<br>--- ----- --- --- ------ -------- ----- --- ------ ----- --<br>----- ----- ---------- --- --- ------ ------ ---- -- ------<br>------- --- ------ ----- --- ---- ------- -- ---- --- --<br>------- ------,255548.20000004768,255547.60000014305,255129.018,255137.60000014305,255145.747,255562.104,,14,bonds.
screen,html.Screen,2_1_1_1_15,2022-02-02T16:10:45.871Z,,,,,,,,,,,,,,,,,54,,,,,,,,,,,,,,3262.5960000476916,,response,,,,100,,,,,,,Space,keypress(Space),,,,,,,,-- --- ---- --- ------ ----- ------- ---- -- --- ------- --<br>------- ---------- ------ In ----- -- ----- -- ---- ------<br>--- ----- --- --- ------ -------- ----- --- ------ ----- --<br>----- ----- ---------- --- --- ------ ------ ---- -- ------<br>------- --- ------ ----- --- ---- ------- -- ---- --- --<br>------- ------,258825.40000009537,258824.70000004768,255545.6,255548.40000009537,255562.104,258827.419,,15,In
screen,html.Screen,2_1_1_1_16,2022-02-02T16:10:47.053Z,,,,,,,,,,,,,,,,,54,,,,,,,,,,,,,,1179.3809999523219,,response,,,,100,,,,,,,Space,keypress(Space),,,,,,,,"-- --- ---- --- ------ ----- ------- ---- -- --- ------- --<br>------- ---------- ------ -- 1727, -- ----- -- ---- ------<br>--- ----- --- --- ------ -------- ----- --- ------ ----- --<br>----- ----- ---------- --- --- ------ ------ ---- -- ------<br>------- --- ------ ----- --- ---- ------- -- ---- --- --<br>------- ------",260007.29999995232,260006.79999995232,258811.293,258825.5,258827.419,260010.301,,16,"1727,"
screen,html.Screen,2_1_1_1_17,2022-02-02T16:10:47.478Z,,,,,,,,,,,,,,,,,54,,,,,,,,,,,,,,421.99899995230953,,response,,,,100,,,,,,,Space,keypress(Space),,,,,,,,-- --- ---- --- ------ ----- ------- ---- -- --- ------- --<br>------- ---------- ------ -- ----- in ----- -- ---- ------<br>--- ----- --- --- ------ -------- ----- --- ------ ----- --<br>----- ----- ---------- --- --- ------ ------ ---- -- ------<br>------- --- ------ ----- --- ---- ------- -- ---- --- --<br>------- ------,260432.90000009537,260432.29999995232,259993.834,260007.40000009537,260010.301,260443.545,,17,in
screen,html.Screen,2_1_1_1_18,2022-02-02T16:10:47.929Z,,,,,,,,,,,,,,,,,54,,,,,,,,,,,,,,439.55500014303834,,response,,,,100,,,,,,,Space,keypress(Space),,,,,,,,-- --- ---- --- ------ ----- ------- ---- -- --- ------- --<br>------- ---------- ------ -- ----- -- order -- ---- ------<br>--- ----- --- --- ------ -------- ----- --- ------ ----- --<br>----- ----- ---------- --- --- ------ ------ ---- -- ------<br>------- --- ------ ----- --- ---- ------- -- ---- --- --<br>------- ------,260883.79999995232,260883.10000014305,260426.9,260433.10000014305,260443.545,260893.351,,18,order
screen,html.Screen,2_1_1_1_19,2022-02-02T16:10:48.302Z,,,,,,,,,,,,,,,,,54,,,,,,,,,,,,,,362.74900014305604,,response,,,,100,,,,,,,Space,keypress(Space),,,,,,,,-- --- ---- --- ------ ----- ------- ---- -- --- ------- --<br>------- ---------- ------ -- ----- -- ----- to ---- ------<br>--- ----- --- --- ------ -------- ----- --- ------ ----- --<br>----- ----- ---------- --- --- ------ ------ ---- -- ------<br>------- --- ------ ----- --- ---- ------- -- ---- --- --<br>------- ------,261256.70000004768,261256.10000014305,260876.673,260884,260893.351,261259.783,,19,to
screen,html.Screen,2_1_1_1_20,2022-02-02T16:10:48.801Z,,,,,,,,,,,,,,,,,54,,,,,,,,,,,,,,494.9170000476879,,response,,,,100,,,,,,,Space,keypress(Space),,,,,,,,-- --- ---- --- ------ ----- ------- ---- -- --- ------- --<br>------- ---------- ------ -- ----- -- ----- -- save ------<br>--- ----- --- --- ------ -------- ----- --- ------ ----- --<br>----- ----- ---------- --- --- ------ ------ ---- -- ------<br>------- --- ------ ----- --- ---- ------- -- ---- --- --<br>------- ------,261755.29999995232,261754.70000004768,261243.116,261256.79999995232,261259.783,261759.533,,20,save
screen,html.Screen,2_1_1_1_21,2022-02-02T16:10:49.292Z,,,,,,,,,,,,,,,,,54,,,,,,,,,,,,,,486.3670000953716,,response,,,,100,,,,,,,Space,keypress(Space),,,,,,,,"-- --- ---- --- ------ ----- ------- ---- -- --- ------- --<br>------- ---------- ------ -- ----- -- ----- -- ---- money,<br>--- ----- --- --- ------ -------- ----- --- ------ ----- --<br>----- ----- ---------- --- --- ------ ------ ---- -- ------<br>------- --- ------ ----- --- ---- ------- -- ---- --- --<br>------- ------",262246.40000009537,262245.90000009537,261743.022,261755.5,261759.533,262259.395,,21,"money,"
screen,html.Screen,2_1_1_1_22,2022-02-02T16:10:49.831Z,,,,,,,,,,,,,,,,,54,,,,,,,,,,,,,,525.4049999522977,,response,,,,100,,,,,,,Space,keypress(Space),,,,,,,,-- --- ---- --- ------ ----- ------- ---- -- --- ------- --<br>------- ---------- ------ -- ----- -- ----- -- ---- ------<br>the ----- --- --- ------ -------- ----- --- ------ ----- --<br>----- ----- ---------- --- --- ------ ------ ---- -- ------<br>------- --- ------ ----- --- ---- ------- -- ---- --- --<br>------- ------,262785.40000009537,262784.7999999523,262242.801,262246.5,262259.395,262792.546,,22,the
screen,html.Screen,2_1_1_1_23,2022-02-02T16:10:50.048Z,,,,,,,,,,,,,,,,,54,,,,,,,,,,,,,,209.2539999523433,,response,,,,100,,,,,,,Space,keypress(Space),,,,,,,,-- --- ---- --- ------ ----- ------- ---- -- --- ------- --<br>------- ---------- ------ -- ----- -- ----- -- ---- ------<br>--- state --- --- ------ -------- ----- --- ------ ----- --<br>----- ----- ---------- --- --- ------ ------ ---- -- ------<br>------- --- ------ ----- --- ---- ------- -- ---- --- --<br>------- ------,263002.40000009537,263001.7999999523,262775.911,262785.60000014305,262792.546,263009.144,,23,state
screen,html.Screen,2_1_1_1_24,2022-02-02T16:10:50.567Z,,,,,,,,,,,,,,,,,54,,,,,,,,,,,,,,512.1559999523452,,response,,,,100,,,,,,,Space,keypress(Space),,,,,,,,-- --- ---- --- ------ ----- ------- ---- -- --- ------- --<br>------- ---------- ------ -- ----- -- ----- -- ---- ------<br>--- ----- cut --- ------ -------- ----- --- ------ ----- --<br>----- ----- ---------- --- --- ------ ------ ---- -- ------<br>------- --- ------ ----- --- ---- ------- -- ---- --- --<br>------- ------,263521.90000009537,263521.2999999523,262992.484,263002.5,263009.144,263525.693,,24,cut
screen,html.Screen,2_1_1_1_25,2022-02-02T16:10:50.808Z,,,,,,,,,,,,,,,,,54,,,,,,,,,,,,,,236.5070000476553,,response,,,,100,,,,,,,Space,keypress(Space),,,,,,,,-- --- ---- --- ------ ----- ------- ---- -- --- ------- --<br>------- ---------- ------ -- ----- -- ----- -- ---- ------<br>--- ----- --- the ------ -------- ----- --- ------ ----- --<br>----- ----- ---------- --- --- ------ ------ ---- -- ------<br>------- --- ------ ----- --- ---- ------- -- ---- --- --<br>------- ------,263762.7999999523,263762.2000000477,263508.966,263522,263525.693,263775.491,,25,the
screen,html.Screen,2_1_1_1_26,2022-02-02T16:10:51.048Z,,,,,,,,,,,,,,,,,54,,,,,,,,,,,,,,226.60900014307117,,response,,,,100,,,,,,,Space,keypress(Space),,,,,,,,-- --- ---- --- ------ ----- ------- ---- -- --- ------- --<br>------- ---------- ------ -- ----- -- ----- -- ---- ------<br>--- ----- --- --- bonds' -------- ----- --- ------ ----- --<br>----- ----- ---------- --- --- ------ ------ ---- -- ------<br>------- --- ------ ----- --- ---- ------- -- ---- --- --<br>------- ------,264003,264002.10000014305,263758.853,263763,263775.491,264008.666,,26,bonds'
screen,html.Screen,2_1_1_1_27,2022-02-02T16:10:51.489Z,,,,,,,,,,,,,,,,,54,,,,,,,,,,,,,,434.13399995228974,,response,,,,100,,,,,,,Space,keypress(Space),,,,,,,,-- --- ---- --- ------ ----- ------- ---- -- --- ------- --<br>------- ---------- ------ -- ----- -- ----- -- ---- ------<br>--- ----- --- --- ------ interest ----- --- ------ ----- --<br>----- ----- ---------- --- --- ------ ------ ---- -- ------<br>------- --- ------ ----- --- ---- ------- -- ---- --- --<br>------- ------,264443.60000014305,264442.7999999523,263992.101,264003.2000000477,264008.666,264458.563,,27,interest
screen,html.Screen,2_1_1_1_28,2022-02-02T16:10:51.965Z,,,,,,,,,,,,,,,,,54,,,,,,,,,,,,,,460.5370001430274,,response,,,,100,,,,,,,Space,keypress(Space),,,,,,,,-- --- ---- --- ------ ----- ------- ---- -- --- ------- --<br>------- ---------- ------ -- ----- -- ----- -- ---- ------<br>--- ----- --- --- ------ -------- rate. --- ------ ----- --<br>----- ----- ---------- --- --- ------ ------ ---- -- ------<br>------- --- ------ ----- --- ---- ------- -- ---- --- --<br>------- ------,264919.60000014305,264919.10000014305,264441.935,264443.7000000477,264458.563,264924.887,,28,rate.
screen,html.Screen,2_1_1_1_29,2022-02-02T16:10:52.826Z,,,,,,,,,,,,,,,,,54,,,,,,,,,,,,,,854.8130000476958,,response,,,,100,,,,,,,Space,keypress(Space),,,,,,,,-- --- ---- --- ------ ----- ------- ---- -- --- ------- --<br>------- ---------- ------ -- ----- -- ----- -- ---- ------<br>--- ----- --- --- ------ -------- ----- The ------ ----- --<br>----- ----- ---------- --- --- ------ ------ ---- -- ------<br>------- --- ------ ----- --- ---- ------- -- ---- --- --<br>------- ------,265780.40000009537,265779.7000000477,264908.265,264919.7999999523,264924.887,265791.331,,29,The
screen,html.Screen,2_1_1_1_30,2022-02-02T16:10:53.438Z,,,,,,,,,,,,,,,,,54,,,,,,,,,,,,,,600.8690000476781,,response,,,,100,,,,,,,Space,keypress(Space),,,,,,,,-- --- ---- --- ------ ----- ------- ---- -- --- ------- --<br>------- ---------- ------ -- ----- -- ----- -- ---- ------<br>--- ----- --- --- ------ -------- ----- --- market ----- --<br>----- ----- ---------- --- --- ------ ------ ---- -- ------<br>------- --- ------ ----- --- ---- ------- -- ---- --- --<br>------- ------,266392.7999999523,266392.2000000477,265774.798,265780.5,265791.331,266407.689,,30,market
screen,html.Screen,2_1_1_1_31,2022-02-02T16:10:54.190Z,,,,,,,,,,,,,,,,,54,,,,,,,,,,,,,,736.4110001430381,,response,,,,100,,,,,,,Space,keypress(Space),,,,,,,,-- --- ---- --- ------ ----- ------- ---- -- --- ------- --<br>------- ---------- ------ -- ----- -- ----- -- ---- ------<br>--- ----- --- --- ------ -------- ----- --- ------ value --<br>----- ----- ---------- --- --- ------ ------ ---- -- ------<br>------- --- ------ ----- --- ---- ------- -- ---- --- --<br>------- ------,267144.7000000477,267144.10000014305,266391.127,266392.7999999523,266407.689,267157.432,,31,value
screen,html.Screen,2_1_1_1_32,2022-02-02T16:10:54.677Z,,,,,,,,,,,,,,,,,54,,,,,,,,,,,,,,473.3679999523447,,response,,,,100,,,,,,,Space,keypress(Space),,,,,,,,-- --- ---- --- ------ ----- ------- ---- -- --- ------- --<br>------- ---------- ------ -- ----- -- ----- -- ---- ------<br>--- ----- --- --- ------ -------- ----- --- ------ ----- of<br>----- ----- ---------- --- --- ------ ------ ---- -- ------<br>------- --- ------ ----- --- ---- ------- -- ---- --- --<br>------- ------,267631.40000009537,267630.7999999523,267140.835,267144.90000009537,267157.432,267640.572,,32,of
screen,html.Screen,2_1_1_1_33,2022-02-02T16:10:55.130Z,,,,,,,,,,,,,,,,,54,,,,,,,,,,,,,,443.0280001430656,,response,,,,100,,,,,,,Space,keypress(Space),,,,,,,,-- --- ---- --- ------ ----- ------- ---- -- --- ------- --<br>------- ---------- ------ -- ----- -- ----- -- ---- ------<br>--- ----- --- --- ------ -------- ----- --- ------ ----- --<br>these ----- ---------- --- --- ------ ------ ---- -- ------<br>------- --- ------ ----- --- ---- ------- -- ---- --- --<br>------- ------,268084.2000000477,268083.60000014305,267623.938,267631.5,267640.572,268090.341,,33,these
screen,html.Screen,2_1_1_1_34,2022-02-02T16:10:55.366Z,,,,,,,,,,,,,,,,,54,,,,,,,,,,,,,,229.55900009535253,,response,,,,100,,,,,,,Space,keypress(Space),,,,,,,,-- --- ---- --- ------ ----- ------- ---- -- --- ------- --<br>------- ---------- ------ -- ----- -- ----- -- ---- ------<br>--- ----- --- --- ------ -------- ----- --- ------ ----- --<br>----- bonds ---------- --- --- ------ ------ ---- -- ------<br>------- --- ------ ----- --- ---- ------- -- ---- --- --<br>------- ------,268320.5,268319.90000009537,268073.737,268084.2999999523,268090.341,268323.487,,34,bonds
screen,html.Screen,2_1_1_1_35,2022-02-02T16:10:56.246Z,,,,,,,,,,,,,,,,,54,,,,,,,,,,,,,,875.9130000953446,,response,,,,100,,,,,,,Space,keypress(Space),,,,,,,,"-- --- ---- --- ------ ----- ------- ---- -- --- ------- --<br>------- ---------- ------ -- ----- -- ----- -- ---- ------<br>--- ----- --- --- ------ -------- ----- --- ------ ----- --<br>----- ----- plummeted, --- --- ------ ------ ---- -- ------<br>------- --- ------ ----- --- ---- ------- -- ---- --- --<br>------- ------",269200.10000014305,269199.40000009537,268306.955,268320.60000014305,268323.487,269206.558,,35,"plummeted,"
screen,html.Screen,2_1_1_1_36,2022-02-02T16:10:56.732Z,,,,,,,,,,,,,,,,,54,,,,,,,,,,,,,,479.1420000476646,,response,,,,100,,,,,,,Space,keypress(Space),,,,,,,,-- --- ---- --- ------ ----- ------- ---- -- --- ------- --<br>------- ---------- ------ -- ----- -- ----- -- ---- ------<br>--- ----- --- --- ------ -------- ----- --- ------ ----- --<br>----- ----- ---------- and --- ------ ------ ---- -- ------<br>------- --- ------ ----- --- ---- ------- -- ---- --- --<br>------- ------,269686.2000000477,269685.7000000477,269190.043,269200.2999999523,269206.558,269689.607,,36,and
screen,html.Screen,2_1_1_1_37,2022-02-02T16:10:57.145Z,,,,,,,,,,,,,,,,,54,,,,,,,,,,,,,,408.89299999998184,,response,,,,100,,,,,,,Space,keypress(Space),,,,,,,,-- --- ---- --- ------ ----- ------- ---- -- --- ------- --<br>------- ---------- ------ -- ----- -- ----- -- ---- ------<br>--- ----- --- --- ------ -------- ----- --- ------ ----- --<br>----- ----- ---------- --- the ------ ------ ---- -- ------<br>------- --- ------ ----- --- ---- ------- -- ---- --- --<br>------- ------,270099.10000014305,270098.5,269673.083,269686.40000009537,269689.607,270106.199,,37,the
screen,html.Screen,2_1_1_1_38,2022-02-02T16:10:57.561Z,,,,,,,,,,,,,,,,,54,,,,,,,,,,,,,,408.60099995229393,,response,,,,100,,,,,,,Space,keypress(Space),,,,,,,,-- --- ---- --- ------ ----- ------- ---- -- --- ------- --<br>------- ---------- ------ -- ----- -- ----- -- ---- ------<br>--- ----- --- --- ------ -------- ----- --- ------ ----- --<br>----- ----- ---------- --- --- market ------ ---- -- ------<br>------- --- ------ ----- --- ---- ------- -- ---- --- --<br>------- ------,270515.40000009537,270514.7999999523,270089.547,270099.2000000477,270106.199,270522.688,,38,market
screen,html.Screen,2_1_1_1_39,2022-02-02T16:10:57.984Z,,,,,,,,,,,,,,,,,54,,,,,,,,,,,,,,415.11199995229254,,response,,,,100,,,,,,,Space,keypress(Space),,,,,,,,-- --- ---- --- ------ ----- ------- ---- -- --- ------- --<br>------- ---------- ------ -- ----- -- ----- -- ---- ------<br>--- ----- --- --- ------ -------- ----- --- ------ ----- --<br>----- ----- ---------- --- --- ------ became ---- -- ------<br>------- --- ------ ----- --- ---- ------- -- ---- --- --<br>------- ------,270938.40000009537,270937.7999999523,270506.062,270515.5,270522.688,270967.447,,39,became
screen,html.Screen,2_1_1_1_40,2022-02-02T16:10:58.405Z,,,,,,,,,,,,,,,,,54,,,,,,,,,,,,,,391.25300004769815,,response,,,,100,,,,,,,Space,keypress(Space),,,,,,,,-- --- ---- --- ------ ----- ------- ---- -- --- ------- --<br>------- ---------- ------ -- ----- -- ----- -- ---- ------<br>--- ----- --- --- ------ -------- ----- --- ------ ----- --<br>----- ----- ---------- --- --- ------ ------ wary -- ------<br>------- --- ------ ----- --- ---- ------- -- ---- --- --<br>------- ------,271359.2999999523,271358.7000000477,270922.552,270938.5,270967.447,271372.219,,40,wary
screen,html.Screen,2_1_1_1_41,2022-02-02T16:10:58.843Z,,,,,,,,,,,,,,,,,54,,,,,,,,,,,,,,424.98100004770095,,response,,,,100,,,,,,,Space,keypress(Space),,,,,,,,-- --- ---- --- ------ ----- ------- ---- -- --- ------- --<br>------- ---------- ------ -- ----- -- ----- -- ---- ------<br>--- ----- --- --- ------ -------- ----- --- ------ ----- --<br>----- ----- ---------- --- --- ------ ------ ---- of ------<br>------- --- ------ ----- --- ---- ------- -- ---- --- --<br>------- ------,271797.7999999523,271797.2000000477,271355.761,271359.40000009537,271372.219,271805.51,,41,of
screen,html.Screen,2_1_1_1_42,2022-02-02T16:10:59.345Z,,,,,,,,,,,,,,,,,54,,,,,,,,,,,,,,493.6900000476744,,response,,,,100,,,,,,,Space,keypress(Space),,,,,,,,-- --- ---- --- ------ ----- ------- ---- -- --- ------- --<br>------- ---------- ------ -- ----- -- ----- -- ---- ------<br>--- ----- --- --- ------ -------- ----- --- ------ ----- --<br>----- ----- ---------- --- --- ------ ------ ---- -- French<br>------- --- ------ ----- --- ---- ------- -- ---- --- --<br>------- ------,272299.7999999523,272299.2000000477,271788.867,271797.90000009537,271805.51,272305.152,,42,French
screen,html.Screen,2_1_1_1_43,2022-02-02T16:10:59.791Z,,,,,,,,,,,,,,,,,54,,,,,,,,,,,,,,439.6479999523144,,response,,,,100,,,,,,,Space,keypress(Space),,,,,,,,-- --- ---- --- ------ ----- ------- ---- -- --- ------- --<br>------- ---------- ------ -- ----- -- ----- -- ---- ------<br>--- ----- --- --- ------ -------- ----- --- ------ ----- --<br>----- ----- ---------- --- --- ------ ------ ---- -- ------<br>credit. --- ------ ----- --- ---- ------- -- ---- --- --<br>------- ------,272745.40000009537,272744.7999999523,272288.657,272300,272305.152,272755.135,,43,credit.
screen,html.Screen,2_1_1_1_44,2022-02-02T16:11:00.451Z,,,,,,,,,,,,,,,,,54,,,,,,,,,,,,,,649.8649999999907,,response,,,,100,,,,,,,Space,keypress(Space),,,,,,,,-- --- ---- --- ------ ----- ------- ---- -- --- ------- --<br>------- ---------- ------ -- ----- -- ----- -- ---- ------<br>--- ----- --- --- ------ -------- ----- --- ------ ----- --<br>----- ----- ---------- --- --- ------ ------ ---- -- ------<br>------- The ------ ----- --- ---- ------- -- ---- --- --<br>------- ------,273405.7000000477,273405,272738.545,272745.5,272755.135,273421.505,,44,The
screen,html.Screen,2_1_1_1_45,2022-02-02T16:11:00.947Z,,,,,,,,,,,,,,,,,54,,,,,,,,,,,,,,479.49499999999534,,response,,,,100,,,,,,,Space,keypress(Space),,,,,,,,-- --- ---- --- ------ ----- ------- ---- -- --- ------- --<br>------- ---------- ------ -- ----- -- ----- -- ---- ------<br>--- ----- --- --- ------ -------- ----- --- ------ ----- --<br>----- ----- ---------- --- --- ------ ------ ---- -- ------<br>------- --- French ----- --- ---- ------- -- ---- --- --<br>------- ------,273901.60000014305,273901,273404.883,273405.7999999523,273421.505,273904.503,,45,French
screen,html.Screen,2_1_1_1_46,2022-02-02T16:11:01.383Z,,,,,,,,,,,,,,,,,54,,,,,,,,,,,,,,432.39700009534135,,response,,,,100,,,,,,,Space,keypress(Space),,,,,,,,-- --- ---- --- ------ ----- ------- ---- -- --- ------- --<br>------- ---------- ------ -- ----- -- ----- -- ---- ------<br>--- ----- --- --- ------ -------- ----- --- ------ ----- --<br>----- ----- ---------- --- --- ------ ------ ---- -- ------<br>------- --- ------ state --- ---- ------- -- ---- --- --<br>------- ------,274337.5,274336.90000009537,273887.99,273901.7000000477,273904.503,274354.428,,46,state
screen,html.Screen,2_1_1_1_47,2022-02-02T16:11:01.810Z,,,,,,,,,,,,,,,,,54,,,,,,,,,,,,,,409.1720001430367,,response,,,,100,,,,,,,Space,keypress(Space),,,,,,,,-- --- ---- --- ------ ----- ------- ---- -- --- ------- --<br>------- ---------- ------ -- ----- -- ----- -- ---- ------<br>--- ----- --- --- ------ -------- ----- --- ------ ----- --<br>----- ----- ---------- --- --- ------ ------ ---- -- ------<br>------- --- ------ ----- was ---- ------- -- ---- --- --<br>------- ------,274764.2000000477,274763.60000014305,274337.855,274337.7000000477,274354.428,274770.948,,47,was
screen,html.Screen,2_1_1_1_48,2022-02-02T16:11:02.435Z,,,,,,,,,,,,,,,,,54,,,,,,,,,,,,,,618.3519999523414,,response,,,,100,,,,,,,Space,keypress(Space),,,,,,,,-- --- ---- --- ------ ----- ------- ---- -- --- ------- --<br>------- ---------- ------ -- ----- -- ----- -- ---- ------<br>--- ----- --- --- ------ -------- ----- --- ------ ----- --<br>----- ----- ---------- --- --- ------ ------ ---- -- ------<br>------- --- ------ ----- --- left ------- -- ---- --- --<br>------- ------,275389.90000009537,275389.2999999523,274754.302,274764.2999999523,274770.948,275403.961,,48,left
screen,html.Screen,2_1_1_1_49,2022-02-02T16:11:02.881Z,,,,,,,,,,,,,,,,,54,,,,,,,,,,,,,,431.03899999998976,,response,,,,100,,,,,,,Space,keypress(Space),,,,,,,,-- --- ---- --- ------ ----- ------- ---- -- --- ------- --<br>------- ---------- ------ -- ----- -- ----- -- ---- ------<br>--- ----- --- --- ------ -------- ----- --- ------ ----- --<br>----- ----- ---------- --- --- ------ ------ ---- -- ------<br>------- --- ------ ----- --- ---- without -- ---- --- --<br>------- ------,275835.60000014305,275835,275387.399,275390.10000014305,275403.961,275837.039,,49,without
screen,html.Screen,2_1_1_1_50,2022-02-02T16:11:03.231Z,,,,,,,,,,,,,,,,,54,,,,,,,,,,,,,,348.26099995232653,,response,,,,100,,,,,,,Space,keypress(Space),,,,,,,,-- --- ---- --- ------ ----- ------- ---- -- --- ------- --<br>------- ---------- ------ -- ----- -- ----- -- ---- ------<br>--- ----- --- --- ------ -------- ----- --- ------ ----- --<br>----- ----- ---------- --- --- ------ ------ ---- -- ------<br>------- --- ------ ----- --- ---- ------- an ---- --- --<br>------- ------,276185.90000009537,276185.2999999523,275820.516,275835.7000000477,275837.039,276211.602,,50,an
screen,html.Screen,2_1_1_1_51,2022-02-02T16:11:03.610Z,,,,,,,,,,,,,,,,,54,,,,,,,,,,,,,,352.0980000476702,,response,,,,100,,,,,,,Space,keypress(Space),,,,,,,,-- --- ---- --- ------ ----- ------- ---- -- --- ------- --<br>------- ---------- ------ -- ----- -- ----- -- ---- ------<br>--- ----- --- --- ------ -------- ----- --- ------ ----- --<br>----- ----- ---------- --- --- ------ ------ ---- -- ------<br>------- --- ------ ----- --- ---- ------- -- easy --- --<br>------- ------,276564.2999999523,276563.7000000477,276170.373,276186,276211.602,276570.131,,51,easy
screen,html.Screen,2_1_1_1_52,2022-02-02T16:11:03.939Z,,,,,,,,,,,,,,,,,54,,,,,,,,,,,,,,322.56900004768977,,response,,,,100,,,,,,,Space,keypress(Space),,,,,,,,-- --- ---- --- ------ ----- ------- ---- -- --- ------- --<br>------- ---------- ------ -- ----- -- ----- -- ---- ------<br>--- ----- --- --- ------ -------- ----- --- ------ ----- --<br>----- ----- ---------- --- --- ------ ------ ---- -- ------<br>------- --- ------ ----- --- ---- ------- -- ---- way --<br>------- ------,276893.2999999523,276892.7000000477,276553.516,276564.40000009537,276570.131,276903.386,,52,way
screen,html.Screen,2_1_1_1_53,2022-02-02T16:11:04.279Z,,,,,,,,,,,,,,,,,54,,,,,,,,,,,,,,329.9139999523177,,response,,,,100,,,,,,,Space,keypress(Space),,,,,,,,-- --- ---- --- ------ ----- ------- ---- -- --- ------- --<br>------- ---------- ------ -- ----- -- ----- -- ---- ------<br>--- ----- --- --- ------ -------- ----- --- ------ ----- --<br>----- ----- ---------- --- --- ------ ------ ---- -- ------<br>------- --- ------ ----- --- ---- ------- -- ---- --- of<br>------- ------,277234,277233.2999999523,276886.728,276893.5,276903.386,277236.435,,53,of
screen,html.Screen,2_1_1_1_54,2022-02-02T16:11:04.680Z,,,,,,,,,,,,,,,,,54,,,,,,,,,,,,,,397.26500004768604,,response,,,,100,,,,,,,Space,keypress(Space),,,,,,,,-- --- ---- --- ------ ----- ------- ---- -- --- ------- --<br>------- ---------- ------ -- ----- -- ----- -- ---- ------<br>--- ----- --- --- ------ -------- ----- --- ------ ----- --<br>----- ----- ---------- --- --- ------ ------ ---- -- ------<br>------- --- ------ ----- --- ---- ------- -- ---- --- --<br>raising ------,277634.2999999523,277633.7000000477,277219.934,277234.10000014305,277236.435,277636.286,,54,raising
screen,html.Screen,2_1_1_1_55,2022-02-02T16:11:05.087Z,,,,,,,,,,,,,,,,,54,,,,,,,,,,,,,,404.91400004766183,,response,,,,100,,,,,,,Space,keypress(Space),,,,,,,,-- --- ---- --- ------ ----- ------- ---- -- --- ------- --<br>------- ---------- ------ -- ----- -- ----- -- ---- ------<br>--- ----- --- --- ------ -------- ----- --- ------ ----- --<br>----- ----- ---------- --- --- ------ ------ ---- -- ------<br>------- --- ------ ----- --- ---- ------- -- ---- --- --<br>------- money.,278041.7999999523,278041.2000000477,277619.744,277634.40000009537,277636.286,278052.878,,55,money.
Item 100,flow.Loop,2_1_1_1,2022-02-02T16:11:05.088Z,,,,,,,,,,,,,,,,,,,,,,,,,,,,,,,30842.178000047687,,completion,,,,,D,,,,,,,,,,,silence,,,,,278042.10000014305,278041.2000000477,247182.248,247183,247199.022,278052.878,,,
Question 1,html.Screen,2_1_1_2,2022-02-02T16:11:09.920Z,,,,,,,,,,,,,,,,,,,,,,,,,,,,true,TRUE,,4820.92199995229,,response,,,,100,D,,,,,,TRUE,click #choice-1,,,,silence,,,,,282874.7000000477,282873.7999999523,278036.272,278042.2000000477,278052.878,282884.181,,,
Question 2,html.Screen,2_1_1_3,2022-02-02T16:11:12.295Z,,,,,,,,,,,,,,,,,,,,,,,,,,,,true,FALSE,,2364.219000095385,,response,,,,100,D,,,,,,FALSE,click #choice-2,,,,silence,,,,,285249.2000000477,285248.40000009537,282867.566,282874.90000009537,282884.181,285275.87,,,
Item 100,flow.Sequence,2_1_1,2022-02-02T16:11:12.295Z,,,,,,,,,,,,,,,,,,,,,,,,,,,,,,,48045.35800009538,,completion,,,,,,,,,,,,,,,,,,,,,285249.40000009537,285248.40000009537,237186.485,237202,237203.042,285275.87,,,
End of Practice,html.Page,2_1_2,2022-02-02T16:11:15.827Z,,,,,,,,,,,,,,,,,,,,,,,,,,,,,,,3505.3300000476884,,form submission,,,,,,,,,,,,,,,,,,,,,288781.2999999523,288781.2000000477,285233.226,285249.5,285275.87,288798.444,,,
Practice,flow.Sequence,2_1,2022-02-02T16:11:15.827Z,,,,,,,,,,,,,,,,,,,,,,,,,,,,,,,106272.1420000477,,completion,,,,,,,,,,,,,,,,,,,,,288781.5,288781.2000000477,182492.422,182493.90000009537,182509.058,288798.444,,,
Trap_instruction,html.Page,2_2_0,2022-02-02T16:11:20.300Z,,,,,,,,,,,,,,,,,,,,,,,,,,,,,,,4456.156000143033,,form submission,,,,,,,,,,,,,,,,,,,,,293254.90000009537,293254.60000014305,288781.699,288781.60000014305,288798.444,293396.453,,,
trap_trial,html.Screen,2_2_1,2022-02-02T16:11:23.214Z,,,,,,,,,,,,,,,,,,,,,,,,,,,,true,1,,2770.846999952337,,response,,,,,,,,,,,1,click #choice-1,,,,,,,,,296168.2000000477,296167.2999999523,293246.614,293255,293396.453,296178.614,,,
end of trap trial,html.Page,2_2_2,2022-02-02T16:11:25.186Z,,,,,,,,,,,,,,,,,,,,,,,,,,,,,,,1961.3859999999986,,form submission,,,,,,,,,,,,,,,,,,,,,298140.2000000477,298140,296162.049,296168.40000009537,296178.614,298144.443,,,
Trap 1,flow.Sequence,2_2,2022-02-02T16:11:25.186Z,,,,,,,,,,,,,,,,,,,,,,,,,,,,,,,9341.555999999982,,completion,,,,,,,,,,,,,,,,,,,,,298140.40000009537,298140,288781.699,288781.60000014305,288798.444,298144.443,,,
Standby,html.Page,2_3_0,2022-02-02T16:11:33.170Z,,,,,,,,,,,,,,,,,,,,,,,,,,,,,,,7996.713999999978,,timeout,,,,,,,,,,,,,,,,,,,,,306125.10000014305,306124.443,298127.825,298140.5,298144.443,306141.157,,,
Holding screen,html.Screen,2_3_1_0_0,2022-02-02T16:11:40.167Z,,,,,,,,,,,,,,,,,,,,,,,,,,,,,,,6997.1389999999665,,timeout,,,,,,,,,,,,,,,,,,,,,313122.2000000477,313121.602,306124.443,306125.2999999523,306141.157,313138.296,,,
screen,html.Screen,2_3_1_0_1_0,2022-02-02T16:11:41.549Z,,,,,,,,,,,,,,,,,15,,,,,,,,,,,,,,1364.9040000477107,,response,,,,7,D,,,,,,Space,keypress(Space),,,,silence,,,,Greg --------- ---------- - --- ------- -- --- ------------<br>----- -- -------- ------- ---- ------ - -------- ---- -----<br>--- ------- ---- -- --- -------- --- - ----- ------ ---- --<br>-------- --- -------- -------- --- -------- ---- -- ----- -<br>-------- ---- --- ---------- --------- -- ------- ------ -<br>--------- ----- -----,314503.90000009537,314503.2000000477,313121.602,313122.40000009537,313138.296,314528.235,,0,Greg
screen,html.Screen,2_3_1_0_1_1,2022-02-02T16:11:42.185Z,,,,,,,,,,,,,,,,,15,,,,,,,,,,,,,,611.5649999523303,,response,,,,7,D,,,,,,Space,keypress(Space),,,,silence,,,,"---- Anderson, ---------- - --- ------- -- --- ------------<br>----- -- -------- ------- ---- ------ - -------- ---- -----<br>--- ------- ---- -- --- -------- --- - ----- ------ ---- --<br>-------- --- -------- -------- --- -------- ---- -- ----- -<br>-------- ---- --- ---------- --------- -- ------- ------ -<br>--------- ----- -----",315140.40000009537,315139.7999999523,314487.828,314504,314528.235,315154.123,,1,"Anderson,"
screen,html.Screen,2_3_1_0_1_2,2022-02-02T16:11:42.862Z,,,,,,,,,,,,,,,,,15,,,,,,,,,,,,,,662.5770000476623,,response,,,,7,D,,,,,,Space,keypress(Space),,,,silence,,,,---- --------- considered - --- ------- -- --- ------------<br>----- -- -------- ------- ---- ------ - -------- ---- -----<br>--- ------- ---- -- --- -------- --- - ----- ------ ---- --<br>-------- --- -------- -------- --- -------- ---- -- ----- -<br>-------- ---- --- ---------- --------- -- ------- ------ -<br>--------- ----- -----,315817.40000009537,315816.7000000477,315137.559,315140.5,315154.123,315820.387,,2,considered
screen,html.Screen,2_3_1_0_1_3,2022-02-02T16:11:43.372Z,,,,,,,,,,,,,,,,,15,,,,,,,,,,,,,,505.71300014306325,,response,,,,7,D,,,,,,Space,keypress(Space),,,,silence,,,,---- --------- ---------- a --- ------- -- --- ------------<br>----- -- -------- ------- ---- ------ - -------- ---- -----<br>--- ------- ---- -- --- -------- --- - ----- ------ ---- --<br>-------- --- -------- -------- --- -------- ---- -- ----- -<br>-------- ---- --- ---------- --------- -- ------- ------ -<br>--------- ----- -----,316326.7000000477,316326.10000014305,315803.878,315817.5,315820.387,316336.914,,3,a
screen,html.Screen,2_3_1_0_1_4,2022-02-02T16:11:43.767Z,,,,,,,,,,,,,,,,,15,,,,,,,,,,,,,,384.78600004769396,,response,,,,7,D,,,,,,Space,keypress(Space),,,,silence,,,,---- --------- ---------- - key ------- -- --- ------------<br>----- -- -------- ------- ---- ------ - -------- ---- -----<br>--- ------- ---- -- --- -------- --- - ----- ------ ---- --<br>-------- --- -------- -------- --- -------- ---- -- ----- -<br>-------- ---- --- ---------- --------- -- ------- ------ -<br>--------- ----- -----,316722.2999999523,316721.7000000477,316320.244,316326.7999999523,316336.914,316736.793,,4,key
screen,html.Screen,2_3_1_0_1_5,2022-02-02T16:11:44.185Z,,,,,,,,,,,,,,,,,15,,,,,,,,,,,,,,402.7069999999949,,response,,,,7,D,,,,,,Space,keypress(Space),,,,silence,,,,---- --------- ---------- - --- witness -- --- ------------<br>----- -- -------- ------- ---- ------ - -------- ---- -----<br>--- ------- ---- -- --- -------- --- - ----- ------ ---- --<br>-------- --- -------- -------- --- -------- ---- -- ----- -<br>-------- ---- --- ---------- --------- -- ------- ------ -<br>--------- ----- -----,317140.10000014305,317139.5,316720.212,316722.40000009537,316736.793,317153.184,,5,witness
screen,html.Screen,2_3_1_0_1_6,2022-02-02T16:11:44.571Z,,,,,,,,,,,,,,,,,15,,,,,,,,,,,,,,371.91600014304277,,response,,,,7,D,,,,,,Space,keypress(Space),,,,silence,,,,---- --------- ---------- - --- ------- by --- ------------<br>----- -- -------- ------- ---- ------ - -------- ---- -----<br>--- ------- ---- -- --- -------- --- - ----- ------ ---- --<br>-------- --- -------- -------- --- -------- ---- -- ----- -<br>-------- ---- --- ---------- --------- -- ------- ------ -<br>--------- ----- -----,317525.7000000477,317525.10000014305,317136.66,317140.2000000477,317153.184,317536.482,,6,by
screen,html.Screen,2_3_1_0_1_7,2022-02-02T16:11:44.931Z,,,,,,,,,,,,,,,,,15,,,,,,,,,,,,,,348.8179999522981,,response,,,,7,D,,,,,,Space,keypress(Space),,,,silence,,,,---- --------- ---------- - --- ------- -- the ------------<br>----- -- -------- ------- ---- ------ - -------- ---- -----<br>--- ------- ---- -- --- -------- --- - ----- ------ ---- --<br>-------- --- -------- -------- --- -------- ---- -- ----- -<br>-------- ---- --- ---------- --------- -- ------- ------ -<br>--------- ----- -----,317885.7999999523,317885.2999999523,317519.83,317525.7999999523,317536.482,317919.642,,7,the
screen,html.Screen,2_3_1_0_1_8,2022-02-02T16:11:45.716Z,,,,,,,,,,,,,,,,,15,,,,,,,,,,,,,,750.7580000953749,,response,,,,7,D,,,,,,Space,keypress(Space),,,,silence,,,,"---- --------- ---------- - --- ------- -- --- prosecution,<br>----- -- -------- ------- ---- ------ - -------- ---- -----<br>--- ------- ---- -- --- -------- --- - ----- ------ ---- --<br>-------- --- -------- -------- --- -------- ---- -- ----- -<br>-------- ---- --- ---------- --------- -- ------- ------ -<br>--------- ----- -----",318671,318670.40000009537,317902.961,317885.90000009537,317919.642,318686.008,,8,"prosecution,"
screen,html.Screen,2_3_1_0_1_9,2022-02-02T16:11:46.421Z,,,,,,,,,,,,,,,,,15,,,,,,,,,,,,,,689.2919999523438,,response,,,,7,D,,,,,,Space,keypress(Space),,,,silence,,,,---- --------- ---------- - --- ------- -- --- ------------<br>vowed -- -------- ------- ---- ------ - -------- ---- -----<br>--- ------- ---- -- --- -------- --- - ----- ------ ---- --<br>-------- --- -------- -------- --- -------- ---- -- ----- -<br>-------- ---- --- ---------- --------- -- ------- ------ -<br>--------- ----- -----,319376,319375.2999999523,318669.392,318671.2000000477,318686.008,319385.695,,9,vowed
screen,html.Screen,2_3_1_0_1_10,2022-02-02T16:11:46.837Z,,,,,,,,,,,,,,,,,15,,,,,,,,,,,,,,405.304999999993,,response,,,,7,D,,,,,,Space,keypress(Space),,,,silence,,,,---- --------- ---------- - --- ------- -- --- ------------<br>----- he -------- ------- ---- ------ - -------- ---- -----<br>--- ------- ---- -- --- -------- --- - ----- ------ ---- --<br>-------- --- -------- -------- --- -------- ---- -- ----- -<br>-------- ---- --- ---------- --------- -- ------- ------ -<br>--------- ----- -----,319791.7000000477,319791,319369.099,319376.10000014305,319385.695,319802.147,,10,he
screen,html.Screen,2_3_1_0_1_11,2022-02-02T16:11:48.025Z,,,,,,,,,,,,,,,,,15,,,,,,,,,,,,,,1177.3530000000028,,response,,,,7,D,,,,,,Space,keypress(Space),,,,silence,,,,---- --------- ---------- - --- ------- -- --- ------------<br>----- -- wouldn't ------- ---- ------ - -------- ---- -----<br>--- ------- ---- -- --- -------- --- - ----- ------ ---- --<br>-------- --- -------- -------- --- -------- ---- -- ----- -<br>-------- ---- --- ---------- --------- -- ------- ------ -<br>--------- ----- -----,320980.2000000477,320979.5,319785.458,319791.90000009537,319802.147,320984.901,,11,wouldn't
screen,html.Screen,2_3_1_0_1_12,2022-02-02T16:11:48.552Z,,,,,,,,,,,,,,,,,15,,,,,,,,,,,,,,521.0989999999874,,response,,,,7,D,,,,,,Space,keypress(Space),,,,silence,,,,---- --------- ---------- - --- ------- -- --- ------------<br>----- -- -------- testify ---- ------ - -------- ---- -----<br>--- ------- ---- -- --- -------- --- - ----- ------ ---- --<br>-------- --- -------- -------- --- -------- ---- -- ----- -<br>-------- ---- --- ---------- --------- -- ------- ------ -<br>--------- ----- -----,321506.7000000477,321506,320968.503,320980.2999999523,320984.901,321518.163,,12,testify
screen,html.Screen,2_3_1_0_1_13,2022-02-02T16:11:48.938Z,,,,,,,,,,,,,,,,,15,,,,,,,,,,,,,,373.83699999999953,,response,,,,7,D,,,,,,Space,keypress(Space),,,,silence,,,,---- --------- ---------- - --- ------- -- --- ------------<br>----- -- -------- ------- when ------ - -------- ---- -----<br>--- ------- ---- -- --- -------- --- - ----- ------ ---- --<br>-------- --- -------- -------- --- -------- ---- -- ----- -<br>-------- ---- --- ---------- --------- -- ------- ------ -<br>--------- ----- -----,321892.7000000477,321892,321501.533,321506.7999999523,321518.163,321901.326,,13,when
screen,html.Screen,2_3_1_0_1_14,2022-02-02T16:11:49.494Z,,,,,,,,,,,,,,,,,15,,,,,,,,,,,,,,546.7740001430502,,response,,,,7,D,,,,,,Space,keypress(Space),,,,silence,,,,---- --------- ---------- - --- ------- -- --- ------------<br>----- -- -------- ------- ---- served - -------- ---- -----<br>--- ------- ---- -- --- -------- --- - ----- ------ ---- --<br>-------- --- -------- -------- --- -------- ---- -- ----- -<br>-------- ---- --- ---------- --------- -- ------- ------ -<br>--------- ----- -----,322448.7000000477,322448.10000014305,321884.701,321892.7999999523,321901.326,322450.964,,14,served
screen,html.Screen,2_3_1_0_1_15,2022-02-02T16:11:49.907Z,,,,,,,,,,,,,,,,,15,,,,,,,,,,,,,,410.5360000000219,,response,,,,7,D,,,,,,Space,keypress(Space),,,,silence,,,,---- --------- ---------- - --- ------- -- --- ------------<br>----- -- -------- ------- ---- ------ a -------- ---- -----<br>--- ------- ---- -- --- -------- --- - ----- ------ ---- --<br>-------- --- -------- -------- --- -------- ---- -- ----- -<br>-------- ---- --- ---------- --------- -- ------- ------ -<br>--------- ----- -----,322862.10000014305,322861.5,322434.391,322449.10000014305,322450.964,322867.467,,15,a
screen,html.Screen,2_3_1_0_1_16,2022-02-02T16:11:50.796Z,,,,,,,,,,,,,,,,,15,,,,,,,,,,,,,,882.5329999999958,,response,,,,7,D,,,,,,Space,keypress(Space),,,,silence,,,,---- --------- ---------- - --- ------- -- --- ------------<br>----- -- -------- ------- ---- ------ - subpoena ---- -----<br>--- ------- ---- -- --- -------- --- - ----- ------ ---- --<br>-------- --- -------- -------- --- -------- ---- -- ----- -<br>-------- ---- --- ---------- --------- -- ------- ------ -<br>--------- ----- -----,323750.60000014305,323750,322850.95,322862.2999999523,322867.467,323767.213,,16,subpoena
screen,html.Screen,2_3_1_0_1_17,2022-02-02T16:11:51.271Z,,,,,,,,,,,,,,,,,15,,,,,,,,,,,,,,458.4870000476949,,response,,,,7,D,,,,,,Space,keypress(Space),,,,silence,,,,---- --------- ---------- - --- ------- -- --- ------------<br>----- -- -------- ------- ---- ------ - -------- last -----<br>--- ------- ---- -- --- -------- --- - ----- ------ ---- --<br>-------- --- -------- -------- --- -------- ---- -- ----- -<br>-------- ---- --- ---------- --------- -- ------- ------ -<br>--------- ----- -----,324226.2999999523,324225.7000000477,323750.645,323750.7999999523,323767.213,324233.654,,17,last
screen,html.Screen,2_3_1_0_1_18,2022-02-02T16:11:52.468Z,,,,,,,,,,,,,,,,,15,,,,,,,,,,,,,,1188.746000095387,,response,,,,7,D,,,,,,Space,keypress(Space),,,,silence,,,,---- --------- ---------- - --- ------- -- --- ------------<br>----- -- -------- ------- ---- ------ - -------- ---- week.<br>--- ------- ---- -- --- -------- --- - ----- ------ ---- --<br>-------- --- -------- -------- --- -------- ---- -- ----- -<br>-------- ---- --- ---------- --------- -- ------- ------ -<br>--------- ----- -----,325422.90000009537,325422.40000009537,324217.112,324226.40000009537,324233.654,325433.055,,18,week.
screen,html.Screen,2_3_1_0_1_19,2022-02-02T16:11:52.885Z,,,,,,,,,,,,,,,,,15,,,,,,,,,,,,,,406.6450000476907,,response,,,,7,D,,,,,,Space,keypress(Space),,,,silence,,,,---- --------- ---------- - --- ------- -- --- ------------<br>----- -- -------- ------- ---- ------ - -------- ---- -----<br>His ------- ---- -- --- -------- --- - ----- ------ ---- --<br>-------- --- -------- -------- --- -------- ---- -- ----- -<br>-------- ---- --- ---------- --------- -- ------- ------ -<br>--------- ----- -----,325840.2999999523,325839.7000000477,325416.573,325423.10000014305,325433.055,325849.553,,19,His
screen,html.Screen,2_3_1_0_1_20,2022-02-02T16:11:53.102Z,,,,,,,,,,,,,,,,,15,,,,,,,,,,,,,,207.0470001430367,,response,,,,7,D,,,,,,Space,keypress(Space),,,,silence,,,,---- --------- ---------- - --- ------- -- --- ------------<br>----- -- -------- ------- ---- ------ - -------- ---- -----<br>--- lawyers ---- -- --- -------- --- - ----- ------ ---- --<br>-------- --- -------- -------- --- -------- ---- -- ----- -<br>-------- ---- --- ---------- --------- -- ------- ------ -<br>--------- ----- -----,326057.2999999523,326056.60000014305,325833.095,325840.40000009537,325849.553,326066.268,,20,lawyers
screen,html.Screen,2_3_1_0_1_21,2022-02-02T16:11:53.616Z,,,,,,,,,,,,,,,,,15,,,,,,,,,,,,,,503.9320000477019,,response,,,,7,D,,,,,,Space,keypress(Space),,,,silence,,,,---- --------- ---------- - --- ------- -- --- ------------<br>----- -- -------- ------- ---- ------ - -------- ---- -----<br>--- ------- said -- --- -------- --- - ----- ------ ---- --<br>-------- --- -------- -------- --- -------- ---- -- ----- -<br>-------- ---- --- ---------- --------- -- ------- ------ -<br>--------- ----- -----,326570.7000000477,326570.2000000477,326049.501,326057.5,326066.268,326582.696,,21,said
screen,html.Screen,2_3_1_0_1_22,2022-02-02T16:11:53.986Z,,,,,,,,,,,,,,,,,15,,,,,,,,,,,,,,357.60399995232,,response,,,,7,D,,,,,,Space,keypress(Space),,,,silence,,,,---- --------- ---------- - --- ------- -- --- ------------<br>----- -- -------- ------- ---- ------ - -------- ---- -----<br>--- ------- ---- he --- -------- --- - ----- ------ ---- --<br>-------- --- -------- -------- --- -------- ---- -- ----- -<br>-------- ---- --- ---------- --------- -- ------- ------ -<br>--------- ----- -----,326940.90000009537,326940.2999999523,326566.099,326570.7999999523,326582.696,326949.234,,22,he
screen,html.Screen,2_3_1_0_1_23,2022-02-02T16:11:54.355Z,,,,,,,,,,,,,,,,,15,,,,,,,,,,,,,,360.56599995231954,,response,,,,7,D,,,,,,Space,keypress(Space),,,,silence,,,,---- --------- ---------- - --- ------- -- --- ------------<br>----- -- -------- ------- ---- ------ - -------- ---- -----<br>--- ------- ---- -- was -------- --- - ----- ------ ---- --<br>-------- --- -------- -------- --- -------- ---- -- ----- -<br>-------- ---- --- ---------- --------- -- ------- ------ -<br>--------- ----- -----,327310.40000009537,327309.7999999523,326932.595,326941,326949.234,327315.607,,23,was
screen,html.Screen,2_3_1_0_1_24,2022-02-02T16:11:54.866Z,,,,,,,,,,,,,,,,,15,,,,,,,,,,,,,,504.89299999998184,,response,,,,7,D,,,,,,Space,keypress(Space),,,,silence,,,,---- --------- ---------- - --- ------- -- --- ------------<br>----- -- -------- ------- ---- ------ - -------- ---- -----<br>--- ------- ---- -- --- prepared --- - ----- ------ ---- --<br>-------- --- -------- -------- --- -------- ---- -- ----- -<br>-------- ---- --- ---------- --------- -- ------- ------ -<br>--------- ----- -----,327821.10000014305,327820.5,327299.082,327310.5,327315.607,327832.166,,24,prepared
screen,html.Screen,2_3_1_0_1_25,2022-02-02T16:11:55.219Z,,,,,,,,,,,,,,,,,15,,,,,,,,,,,,,,341.4340001430246,,response,,,,7,D,,,,,,Space,keypress(Space),,,,silence,,,,---- --------- ---------- - --- ------- -- --- ------------<br>----- -- -------- ------- ---- ------ - -------- ---- -----<br>--- ------- ---- -- --- -------- for - ----- ------ ---- --<br>-------- --- -------- -------- --- -------- ---- -- ----- -<br>-------- ---- --- ---------- --------- -- ------- ------ -<br>--------- ----- -----,328174.2999999523,328173.60000014305,327815.568,327821.2999999523,327832.166,328181.942,,25,for
screen,html.Screen,2_3_1_0_1_26,2022-02-02T16:11:55.542Z,,,,,,,,,,,,,,,,,15,,,,,,,,,,,,,,314.0580000000191,,response,,,,7,D,,,,,,Space,keypress(Space),,,,silence,,,,---- --------- ---------- - --- ------- -- --- ------------<br>----- -- -------- ------- ---- ------ - -------- ---- -----<br>--- ------- ---- -- --- -------- --- a ----- ------ ---- --<br>-------- --- -------- -------- --- -------- ---- -- ----- -<br>-------- ---- --- ---------- --------- -- ------- ------ -<br>--------- ----- -----,328496.7000000477,328496,328165.411,328174.2999999523,328181.942,328498.456,,26,a
screen,html.Screen,2_3_1_0_1_27,2022-02-02T16:11:55.936Z,,,,,,,,,,,,,,,,,15,,,,,,,,,,,,,,392.2440000476781,,response,,,,7,D,,,,,,Space,keypress(Space),,,,silence,,,,---- --------- ---------- - --- ------- -- --- ------------<br>----- -- -------- ------- ---- ------ - -------- ---- -----<br>--- ------- ---- -- --- -------- --- - third ------ ---- --<br>-------- --- -------- -------- --- -------- ---- -- ----- -<br>-------- ---- --- ---------- --------- -- ------- ------ -<br>--------- ----- -----,328891.40000009537,328890.7000000477,328481.933,328496.7999999523,328498.456,328898.44,,27,third
screen,html.Screen,2_3_1_0_1_28,2022-02-02T16:11:56.470Z,,,,,,,,,,,,,,,,,15,,,,,,,,,,,,,,526.1600001430488,,response,,,,7,D,,,,,,Space,keypress(Space),,,,silence,,,,---- --------- ---------- - --- ------- -- --- ------------<br>----- -- -------- ------- ---- ------ - -------- ---- -----<br>--- ------- ---- -- --- -------- --- - ----- prison ---- --<br>-------- --- -------- -------- --- -------- ---- -- ----- -<br>-------- ---- --- ---------- --------- -- ------- ------ -<br>--------- ----- -----,329425.2000000477,329424.60000014305,328881.784,328891.40000009537,328898.44,329431.502,,28,prison
screen,html.Screen,2_3_1_0_1_29,2022-02-02T16:11:56.959Z,,,,,,,,,,,,,,,,,15,,,,,,,,,,,,,,482.19800004770514,,response,,,,7,D,,,,,,Space,keypress(Space),,,,silence,,,,---- --------- ---------- - --- ------- -- --- ------------<br>----- -- -------- ------- ---- ------ - -------- ---- -----<br>--- ------- ---- -- --- -------- --- - ----- ------ stay --<br>-------- --- -------- -------- --- -------- ---- -- ----- -<br>-------- ---- --- ---------- --------- -- ------- ------ -<br>--------- ----- -----,329914.2999999523,329913.7000000477,329414.929,329425.2000000477,329431.502,329947.869,,29,stay
screen,html.Screen,2_3_1_0_1_30,2022-02-02T16:11:57.443Z,,,,,,,,,,,,,,,,,15,,,,,,,,,,,,,,449.2310001430451,,response,,,,7,D,,,,,,Space,keypress(Space),,,,silence,,,,---- --------- ---------- - --- ------- -- --- ------------<br>----- -- -------- ------- ---- ------ - -------- ---- -----<br>--- ------- ---- -- --- -------- --- - ----- ------ ---- to<br>-------- --- -------- -------- --- -------- ---- -- ----- -<br>-------- ---- --- ---------- --------- -- ------- ------ -<br>--------- ----- -----,330397.7000000477,330397.10000014305,329931.321,329914.40000009537,329947.869,330414.448,,30,to
screen,html.Screen,2_3_1_0_1_31,2022-02-02T16:11:57.961Z,,,,,,,,,,,,,,,,,15,,,,,,,,,,,,,,501.35199995234143,,response,,,,7,D,,,,,,Space,keypress(Space),,,,silence,,,,---- --------- ---------- - --- ------- -- --- ------------<br>----- -- -------- ------- ---- ------ - -------- ---- -----<br>--- ------- ---- -- --- -------- --- - ----- ------ ---- --<br>maintain --- -------- -------- --- -------- ---- -- ----- -<br>-------- ---- --- ---------- --------- -- ------- ------ -<br>--------- ----- -----,330916.5,330915.7999999523,330397.836,330397.7999999523,330414.448,330930.925,,31,maintain
screen,html.Screen,2_3_1_0_1_32,2022-02-02T16:11:58.319Z,,,,,,,,,,,,,,,,,15,,,,,,,,,,,,,,342.4750000953791,,response,,,,7,D,,,,,,Space,keypress(Space),,,,silence,,,,---- --------- ---------- - --- ------- -- --- ------------<br>----- -- -------- ------- ---- ------ - -------- ---- -----<br>--- ------- ---- -- --- -------- --- - ----- ------ ---- --<br>-------- his -------- -------- --- -------- ---- -- ----- -<br>-------- ---- --- ---------- --------- -- ------- ------ -<br>--------- ----- -----,331273.90000009537,331273.40000009537,330914.302,330916.60000014305,330930.925,331280.698,,32,his
screen,html.Screen,2_3_1_0_1_33,2022-02-02T16:11:58.825Z,,,,,,,,,,,,,,,,,15,,,,,,,,,,,,,,499.00200004770886,,response,,,,7,D,,,,,,Space,keypress(Space),,,,silence,,,,---- --------- ---------- - --- ------- -- --- ------------<br>----- -- -------- ------- ---- ------ - -------- ---- -----<br>--- ------- ---- -- --- -------- --- - ----- ------ ---- --<br>-------- --- silence. -------- --- -------- ---- -- ----- -<br>-------- ---- --- ---------- --------- -- ------- ------ -<br>--------- ----- -----,331780.2999999523,331779.7000000477,331264.138,331274.10000014305,331280.698,331797.234,,33,silence.
screen,html.Screen,2_3_1_0_1_34,2022-02-02T16:11:59.976Z,,,,,,,,,,,,,,,,,15,,,,,,,,,,,,,,1133.466000047687,,response,,,,7,D,,,,,,Space,keypress(Space),,,,silence,,,,---- --------- ---------- - --- ------- -- --- ------------<br>----- -- -------- ------- ---- ------ - -------- ---- -----<br>--- ------- ---- -- --- -------- --- - ----- ------ ---- --<br>-------- --- -------- Anderson --- -------- ---- -- ----- -<br>-------- ---- --- ---------- --------- -- ------- ------ -<br>--------- ----- -----,332931.5,332930.7000000477,331780.6,331780.2999999523,331797.234,332946.765,,34,Anderson
screen,html.Screen,2_3_1_0_1_35,2022-02-02T16:12:00.400Z,,,,,,,,,,,,,,,,,15,,,,,,,,,,,,,,407.43500004766975,,response,,,,7,D,,,,,,Space,keypress(Space),,,,silence,,,,---- --------- ---------- - --- ------- -- --- ------------<br>----- -- -------- ------- ---- ------ - -------- ---- -----<br>--- ------- ---- -- --- -------- --- - ----- ------ ---- --<br>-------- --- -------- -------- was -------- ---- -- ----- -<br>-------- ---- --- ---------- --------- -- ------- ------ -<br>--------- ----- -----,333354.7999999523,333354.2000000477,332930.21,332931.7000000477,332946.765,333363.245,,35,was
screen,html.Screen,2_3_1_0_1_36,2022-02-02T16:12:00.976Z,,,,,,,,,,,,,,,,,15,,,,,,,,,,,,,,567.4550000476884,,response,,,,7,D,,,,,,Space,keypress(Space),,,,silence,,,,---- --------- ---------- - --- ------- -- --- ------------<br>----- -- -------- ------- ---- ------ - -------- ---- -----<br>--- ------- ---- -- --- -------- --- - ----- ------ ---- --<br>-------- --- -------- -------- --- released ---- -- ----- -<br>-------- ---- --- ---------- --------- -- ------- ------ -<br>--------- ----- -----,333931.2999999523,333930.7000000477,333346.503,333355,333363.245,333946.348,,36,released
screen,html.Screen,2_3_1_0_1_37,2022-02-02T16:12:01.451Z,,,,,,,,,,,,,,,,,15,,,,,,,,,,,,,,459.45199995231815,,response,,,,7,D,,,,,,Space,keypress(Space),,,,silence,,,,---- --------- ---------- - --- ------- -- --- ------------<br>----- -- -------- ------- ---- ------ - -------- ---- -----<br>--- ------- ---- -- --- -------- --- - ----- ------ ---- --<br>-------- --- -------- -------- --- -------- July -- ----- -<br>-------- ---- --- ---------- --------- -- ------- ------ -<br>--------- ----- -----,334406.40000009537,334405.7999999523,333929.724,333931.40000009537,333946.348,334412.804,,37,July
screen,html.Screen,2_3_1_0_1_38,2022-02-02T16:12:01.834Z,,,,,,,,,,,,,,,,,15,,,,,,,,,,,,,,375.6959999999963,,response,,,,7,D,,,,,,Space,keypress(Space),,,,silence,,,,---- --------- ---------- - --- ------- -- --- ------------<br>----- -- -------- ------- ---- ------ - -------- ---- -----<br>--- ------- ---- -- --- -------- --- - ----- ------ ---- --<br>-------- --- -------- -------- --- -------- ---- 20 ----- -<br>-------- ---- --- ---------- --------- -- ------- ------ -<br>--------- ----- -----,334789.2000000477,334788.5,334396.182,334406.60000014305,334412.804,334795.982,,38,20
screen,html.Screen,2_3_1_0_1_39,2022-02-02T16:12:02.837Z,,,,,,,,,,,,,,,,,15,,,,,,,,,,,,,,996.0179999999818,,response,,,,7,D,,,,,,Space,keypress(Space),,,,silence,,,,---- --------- ---------- - --- ------- -- --- ------------<br>----- -- -------- ------- ---- ------ - -------- ---- -----<br>--- ------- ---- -- --- -------- --- - ----- ------ ---- --<br>-------- --- -------- -------- --- -------- ---- -- after -<br>-------- ---- --- ---------- --------- -- ------- ------ -<br>--------- ----- -----,335792.60000014305,335792,334779.349,334789.2999999523,334795.982,335795.438,,39,after
screen,html.Screen,2_3_1_0_1_40,2022-02-02T16:12:03.776Z,,,,,,,,,,,,,,,,,15,,,,,,,,,,,,,,935.0619999999763,,response,,,,7,D,,,,,,Space,keypress(Space),,,,silence,,,,---- --------- ---------- - --- ------- -- --- ------------<br>----- -- -------- ------- ---- ------ - -------- ---- -----<br>--- ------- ---- -- --- -------- --- - ----- ------ ---- --<br>-------- --- -------- -------- --- -------- ---- -- ----- a<br>-------- ---- --- ---------- --------- -- ------- ------ -<br>--------- ----- -----,336731.10000014305,336730.5,335778.952,335792.7000000477,335795.438,336745.089,,40,a
