sender,sender_type,sender_id,timestamp,meta,,Blues,Classical,Country,Dance,Electronic,Folk,Gospel,Hip-Hop,Jazz,Latin,Musical/Film,New-age,Pop,Prolific_id,Provo_ID,R&B,Rap,Reggae,Religious,Rock,Soul,Swing,Traditional,age,artist_name,correct,correctResponse,distraction,duration,education,ended_on,familiarity,gender,headphone_check_performance,item,list,music_frequency,offensiveness,pleasantness,position_correct,preference,response,response_action,snippet_file,song_name,song_rating,sound,stimulus_1,stimulus_2,stimulus_3,text,time_commit,time_end,time_render,time_run,time_show,time_switch,url,word,word_ID
Prolific ID,html.Form,0,2022-02-03T13:08:34.021Z,"{""labjs_version"":""20.2.2"",""labjs_build"":{""flavor"":""production"",""commit"":""a25486e0c714a0ae2ce03ff94b7bb6896854dcfa""},""location"":""https://run.pavlovia.org/mvasilev/prolific2_music_f/"",""userAgent"":""Mozilla/5.0 (Macintosh; Intel Mac OS X 10_15_7) AppleWebKit/537.36 (KHTML, like Gecko) Chrome/97.0.4692.71 Safari/537.36"",""platform"":""MacIntel"",""language"":""en-GB"",""locale"":""en-GB"",""timeZone"":""Europe/London"",""timezoneOffset"":0,""screen_width"":1440,""screen_height"":900,""scroll_width"":1240,""scroll_height"":716,""window_innerWidth"":1240,""window_innerHeight"":764,""devicePixelRatio"":2}",,,,,,,,,,,,,,,60d5a84159678ab56cdd228a,,,,,,,,,,,,,,,6221.974999952316,,form submission,,,,,,,,,,,,,,,,,,,,,20999.100000023842,20998.299999952316,14742.993,14741.100000023842,14776.325,21001.868,{},,
Introduction,html.Screen,1_0,2022-02-03T13:08:45.215Z,,,,,,,,,,,,,,,,,,,,,,,,,,,,,,,11183.232000023843,,response,,,,,,,,,,,continue,click button,,,,,,,,,32192.899999976158,32185.100000023842,20985.202,21000.200000047684,21001.868,32201.42,,,
Volume calibration,html.Screen,1_1,2022-02-03T13:09:06.627Z,,,,,,,,,,,,,,,,,,,,,,,,,,,,,,,21392.379999952318,,response,,,,,,,,,,,continue,click button,,,,,,,,,53604.299999952316,53593.799999952316,32184.754,32193.100000023842,32201.42,53610.107,,,
Task instructions,html.Screen,1_2,2022-02-03T13:09:18.777Z,,,,,,,,,,,,,,,,,,,,,,,,,,,,,,,12140.09300004768,,response,,,,,,,,,,,continue,click button,,,,,,,,,65753.89999997616,65750.20000004768,53593.441,53604.60000002384,53610.107,65759.621,,,
Sounds,html.Screen,1_3_0_0,2022-02-03T13:09:23.026Z,,,,,,,,,,,,,,,,,,,,,,,,,,,,,,,4254.482000000004,,timeout,,,,,,,,,3,,,,,,,,O,I,S,,70002.79999995232,69997.437,65742.955,65754.29999995232,65759.621,70014.103,,,
Judgement,html.Screen,1_3_0_1,2022-02-03T13:09:24.280Z,,,,,,,,,,,,,,,,,,,,,,,,,,,,true,3,,1237.7969999761553,,response,,,,,,,,,3,,3,click #choice-3,,,,,O,I,S,,71256.20000004768,71251.89999997616,69997.437,70003.10000002384,70014.103,71264.053,,,
Trial,flow.Sequence,1_3_0,2022-02-03T13:09:24.280Z,,,,,,,,,,,,,,,,,,,,,,,,,,,,,,,5492.278999976159,,completion,,,,,,,,,3,,,,,,,,O,I,S,,71256.60000002384,71251.89999997616,65742.955,65754.20000004768,65759.621,71264.053,,,
Sounds,html.Screen,1_3_1_0,2022-02-03T13:09:28.522Z,,,,,,,,,,,,,,,,,,,,,,,,,,,,,,,4249.830000000002,,timeout,,,,,,,,,3,,,,,,,,I,O,S,,75498.60000002384,75497.217,71247.387,71257,71264.053,75513.883,,,
Judgement,html.Screen,1_3_1_1,2022-02-03T13:09:29.041Z,,,,,,,,,,,,,,,,,,,,,,,,,,,,true,3,,501.11699999999837,,response,,,,,,,,,3,,3,click #choice-3,,,,,I,O,S,,76017.5,76015,75497.217,75498.79999995232,75513.883,76030.529,,,
Trial,flow.Sequence,1_3_1,2022-02-03T13:09:29.041Z,,,,,,,,,,,,,,,,,,,,,,,,,,,,,,,4750.947,,completion,,,,,,,,,3,,,,,,,,I,O,S,,76017.70000004768,76015,71247.387,71256.79999995232,71264.053,76030.529,,,
Sounds,html.Screen,1_3_2_0,2022-02-03T13:09:33.290Z,,,,,,,,,,,,,,,,,,,,,,,,,,,,,,,4249.830000000002,,timeout,,,,,,,,,1,,,,,,,,S,I,O,,80266.29999995232,80263.693,76013.863,76017.79999995232,76030.529,80280.359,,,
Judgement,html.Screen,1_3_2_1,2022-02-03T13:09:35.456Z,,,,,,,,,,,,,,,,,,,,,,,,,,,,true,1,,2147.4409999523195,,response,,,,,,,,,1,,1,click #choice-1,,,,,S,I,O,,82432.10000002384,82427.79999995232,80263.693,80266.39999997616,80280.359,82442.725,,,
Trial,flow.Sequence,1_3_2,2022-02-03T13:09:35.456Z,,,,,,,,,,,,,,,,,,,,,,,,,,,,,,,6397.270999952321,,completion,,,,,,,,,1,,,,,,,,S,I,O,,82432.39999997616,82427.79999995232,76013.863,76017.70000004768,76030.529,82442.725,,,
Sounds,html.Screen,1_3_3_0,2022-02-03T13:09:39.701Z,,,,,,,,,,,,,,,,,,,,,,,,,,,,,,,4249.829999999987,,timeout,,,,,,,,,1,,,,,,,,S,O,I,,86677.39999997616,86675.889,82426.059,82432.79999995232,82442.725,86692.555,,,
Judgement,html.Screen,1_3_3_1,2022-02-03T13:09:40.221Z,,,,,,,,,,,,,,,,,,,,,,,,,,,,true,1,,500.1450000476907,,response,,,,,,,,,1,,1,click #choice-1,,,,,S,O,I,,87197.29999995232,87192.70000004768,86675.889,86677.60000002384,86692.555,87209.201,,,
Trial,flow.Sequence,1_3_3,2022-02-03T13:09:40.221Z,,,,,,,,,,,,,,,,,,,,,,,,,,,,,,,4749.975000047678,,completion,,,,,,,,,1,,,,,,,,S,O,I,,87197.60000002384,87192.70000004768,82426.059,82432.60000002384,82442.725,87209.201,,,
Sounds,html.Screen,1_3_4_0,2022-02-03T13:09:44.473Z,,,,,,,,,,,,,,,,,,,,,,,,,,,,,,,4253.903999999995,,timeout,,,,,,,,,2,,,,,,,,O,S,I,,91448.60000002384,91446.439,87192.535,87197.79999995232,87209.201,91463.105,,,
Judgement,html.Screen,1_3_4_1,2022-02-03T13:09:45.039Z,,,,,,,,,,,,,,,,,,,,,,,,,,,,true,2,,548.2949999761622,,response,,,,,,,,,2,,2,click #choice-2,,,,,O,S,I,,92015.29999995232,92011.39999997616,91446.439,91448.79999995232,91463.105,92029.749,,,
Trial,flow.Sequence,1_3_4,2022-02-03T13:09:45.039Z,,,,,,,,,,,,,,,,,,,,,,,,,,,,,,,4802.198999976157,,completion,,,,,,,,,2,,,,,,,,O,S,I,,92015.5,92011.39999997616,87192.535,87197.79999995232,87209.201,92029.749,,,
Sounds,html.Screen,1_3_5_0,2022-02-03T13:09:49.289Z,,,,,,,,,,,,,,,,,,,,,,,,,,,,,,,4249.830000000002,,timeout,,,,,,,,,2,,,,,,,,I,S,O,,96265,96262.913,92013.083,92015.70000004768,92029.749,96279.579,,,
Judgement,html.Screen,1_3_5_1,2022-02-03T13:09:49.738Z,,,,,,,,,,,,,,,,,,,,,,,,,,,,true,2,,430.1210000476858,,response,,,,,,,,,2,,2,click #choice-2,,,,,I,S,O,,96713.89999997616,96709.70000004768,96262.913,96265.29999995232,96279.579,96729.561,,,
Trial,flow.Sequence,1_3_5,2022-02-03T13:09:49.738Z,,,,,,,,,,,,,,,,,,,,,,,,,,,,,,,4679.951000047688,,completion,,,,,,,,,2,,,,,,,,I,S,O,,96714.10000002384,96709.70000004768,92013.083,92015.70000004768,92029.749,96729.561,,,
Task,flow.Loop,1_3,2022-02-03T13:09:49.747Z,,,,,,,,,,,,,,,,,,,,,,,,,,,,,,,30950.079000047685,,completion,,,1,,,,,,,,,,,,,,,,,,96723.20000004768,96709.70000004768,65742.955,65754.20000004768,65759.621,96729.561,,,
Trap,html.Screen,1_4,2022-02-03T13:09:49.749Z,,,,,,,,,,,,,,,,,,,,,,,,,,,,,,,NaN,,skipped,,,,,,,,,,,,,,,,,,,,,96724.70000004768,96709.70000004768,,96724.39999997616,,96729.561,,,
Thanks,html.Screen,1_5,2022-02-03T13:09:53.908Z,,,,,,,,,,,,,,,,,,,,,,,,,,,,,,,4150.838999976157,,response,,,,,,,,,,,continue,click button,,,,,,,,,100883.89999997616,100880.39999997616,96712.895,96724.89999997616,96729.561,105717.726,,,
Headphone screening,flow.Sequence,1,2022-02-03T13:09:53.909Z,,,,,,,,,,,,,,,,,,,,,,,,,,,,,,,79878.53199997616,,completion,,,,,,,,,,,,,,,,,,,,,100884.39999997616,100880.39999997616,20985.202,21000.100000023842,21001.868,105717.726,,,
Instructions,html.Page,2_0,2022-02-03T13:10:00.299Z,,,,,,,,,,,,,,,,,,,,,,,,,,,,,,,1556.8740000238467,,form submission,,,,,,,,,,,,,,,,,,,,,107275,107274.60000002384,105701.06,105719.10000002384,105717.726,107284.33,,,
Holding screen,html.Screen,2_1_0_0,2022-02-03T13:10:10.303Z,,,,,,,,,,,,,,,,,,,,,,,,,,,,,,,10040.153999999995,,timeout,,,,,,,,,,,,,,,,,,,,,117278.10000002384,117274.486,107250.998,107275.29999995232,107284.33,117324.484,,,
screen,html.Screen,2_1_0_1_0,2022-02-03T13:10:11.716Z,,,,,,,,,,,,,,,,,53,,,,,,,,,,,,,,1354.9159999761614,,response,,,,99,,,,,,,Space,keypress(Space),,,,,,,,When -- ----- -- ------ - ------- --- ----------<br>------------- ------ ------ ---- ---- ------- ----- -- ----<br>-------- ------- -- ---------- --- - --- ----- ----- ----<br>---- --- --- ----- --- ---- ---- ------- ----- ---- -------<br>--- --- -- ----- -- --- ---- -- --- ---- -- ------ ------<br>--- ----- -- ----,118690.79999995232,118679.39999997616,117274.486,117278.39999997616,117324.484,118707.762,,0,When
screen,html.Screen,2_1_0_1_1,2022-02-03T13:10:13.337Z,,,,,,,,,,,,,,,,,53,,,,,,,,,,,,,,1594.6379999761557,,response,,,,99,,,,,,,Space,keypress(Space),,,,,,,,---- it ----- -- ------ - ------- --- ----------<br>------------- ------ ------ ---- ---- ------- ----- -- ----<br>-------- ------- -- ---------- --- - --- ----- ----- ----<br>---- --- --- ----- --- ---- ---- ------- ----- ---- -------<br>--- --- -- ----- -- --- ---- -- --- ---- -- ------ ------<br>--- ----- -- ----,120312.20000004768,120302.39999997616,118691.096,118691,118707.762,120319.023,,1,it
screen,html.Screen,2_1_0_1_2,2022-02-03T13:10:14.095Z,,,,,,,,,,,,,,,,,53,,,,,,,,,,,,,,742.0770000238408,,response,,,,99,,,,,,,Space,keypress(Space),,,,,,,,---- -- comes -- ------ - ------- --- ----------<br>------------- ------ ------ ---- ---- ------- ----- -- ----<br>-------- ------- -- ---------- --- - --- ----- ----- ----<br>---- --- --- ----- --- ---- ---- ------- ----- ---- -------<br>--- --- -- ----- -- --- ---- -- --- ---- -- ------ ------<br>--- ----- -- ----,121069.89999997616,121061.10000002384,120302.357,120312.29999995232,120319.023,121085.659,,2,comes
screen,html.Screen,2_1_0_1_3,2022-02-03T13:10:14.817Z,,,,,,,,,,,,,,,,,53,,,,,,,,,,,,,,697.3410000000003,,response,,,,99,,,,,,,Space,keypress(Space),,,,,,,,---- -- ----- to ------ - ------- --- ----------<br>------------- ------ ------ ---- ---- ------- ----- -- ----<br>-------- ------- -- ---------- --- - --- ----- ----- ----<br>---- --- --- ----- --- ---- ---- ------- ----- ---- -------<br>--- --- -- ----- -- --- ---- -- --- ---- -- ------ ------<br>--- ----- -- ----,121792.39999997616,121783,121068.993,121070.10000002384,121085.659,121802.297,,3,to
screen,html.Screen,2_1_0_1_4,2022-02-03T13:10:15.703Z,,,,,,,,,,,,,,,,,53,,,,,,,,,,,,,,866.8030000238359,,response,,,,99,,,,,,,Space,keypress(Space),,,,,,,,---- -- ----- -- having - ------- --- ----------<br>------------- ------ ------ ---- ---- ------- ----- -- ----<br>-------- ------- -- ---------- --- - --- ----- ----- ----<br>---- --- --- ----- --- ---- ---- ------- ----- ---- -------<br>--- --- -- ----- -- --- ---- -- --- ---- -- ------ ------<br>--- ----- -- ----,122677.79999995232,122669.10000002384,121785.631,121792.5,121802.297,122685.595,,4,having
screen,html.Screen,2_1_0_1_5,2022-02-03T13:10:16.253Z,,,,,,,,,,,,,,,,,53,,,,,,,,,,,,,,533.5050000238407,,response,,,,99,,,,,,,Space,keypress(Space),,,,,,,,---- -- ----- -- ------ a ------- --- ----------<br>------------- ------ ------ ---- ---- ------- ----- -- ----<br>-------- ------- -- ---------- --- - --- ----- ----- ----<br>---- --- --- ----- --- ---- ---- ------- ----- ---- -------<br>--- --- -- ----- -- --- ---- -- --- ---- -- ------ ------<br>--- ----- -- ----,123228.60000002384,123219.10000002384,122668.929,122677.89999997616,122685.595,123235.573,,5,a
screen,html.Screen,2_1_0_1_6,2022-02-03T13:10:18.086Z,,,,,,,,,,,,,,,,,53,,,,,,,,,,,,,,1814.3269999761542,,response,,,,99,,,,,,,Space,keypress(Space),,,,,,,,---- -- ----- -- ------ - lasting --- ----------<br>------------- ------ ------ ---- ---- ------- ----- -- ----<br>-------- ------- -- ---------- --- - --- ----- ----- ----<br>---- --- --- ----- --- ---- ---- ------- ----- ---- -------<br>--- --- -- ----- -- --- ---- -- --- ---- -- ------ ------<br>--- ----- -- ----,125061.60000002384,125049.89999997616,123218.907,123229.29999995232,123235.573,125068.833,,6,lasting
screen,html.Screen,2_1_0_1_7,2022-02-03T13:10:18.688Z,,,,,,,,,,,,,,,,,53,,,,,,,,,,,,,,589.0669999761594,,response,,,,99,,,,,,,Space,keypress(Space),,,,,,,,---- -- ----- -- ------ - ------- and ----------<br>------------- ------ ------ ---- ---- ------- ----- -- ----<br>-------- ------- -- ---------- --- - --- ----- ----- ----<br>---- --- --- ----- --- ---- ---- ------- ----- ---- -------<br>--- --- -- ----- -- --- ---- -- --- ---- -- ------ ------<br>--- ----- -- ----,125663.29999995232,125657.89999997616,125052.167,125061.70000004768,125068.833,125668.809,,7,and
screen,html.Screen,2_1_0_1_8,2022-02-03T13:10:19.419Z,,,,,,,,,,,,,,,,,53,,,,,,,,,,,,,,711.3910000476899,,response,,,,99,,,,,,,Space,keypress(Space),,,,,,,,---- -- ----- -- ------ - ------- --- fulfilling<br>------------- ------ ------ ---- ---- ------- ----- -- ----<br>-------- ------- -- ---------- --- - --- ----- ----- ----<br>---- --- --- ----- --- ---- ---- ------- ----- ---- -------<br>--- --- -- ----- -- --- ---- -- --- ---- -- ------ ------<br>--- ----- -- ----,126394.29999995232,126380.20000004768,125652.143,125663.5,125668.809,126402.113,,8,fulfilling
screen,html.Screen,2_1_0_1_9,2022-02-03T13:10:20.804Z,,,,,,,,,,,,,,,,,53,,,,,,,,,,,,,,1367.8870000000024,,response,,,,99,,,,,,,Space,keypress(Space),,,,,,,,"---- -- ----- -- ------ - ------- --- ----------<br>relationship, ------ ------ ---- ---- ------- ----- -- ----<br>-------- ------- -- ---------- --- - --- ----- ----- ----<br>---- --- --- ----- --- ---- ---- ------- ----- ---- -------<br>--- --- -- ----- -- --- ---- -- --- ---- -- ------ ------<br>--- ----- -- ----",127778.79999995232,127770,126385.447,126394.5,126402.113,127785.391,,9,"relationship,"
screen,html.Screen,2_1_0_1_10,2022-02-03T13:10:21.805Z,,,,,,,,,,,,,,,,,53,,,,,,,,,,,,,,985.6089999999967,,response,,,,99,,,,,,,Space,keypress(Space),,,,,,,,---- -- ----- -- ------ - ------- --- ----------<br>------------- common ------ ---- ---- ------- ----- -- ----<br>-------- ------- -- ---------- --- - --- ----- ----- ----<br>---- --- --- ----- --- ---- ---- ------- ----- ---- -------<br>--- --- -- ----- -- --- ---- -- --- ---- -- ------ ------<br>--- ----- -- ----,128779.70000004768,128771,127768.725,127778.89999997616,127785.391,128785.351,,10,common
screen,html.Screen,2_1_0_1_11,2022-02-03T13:10:22.396Z,,,,,,,,,,,,,,,,,53,,,,,,,,,,,,,,576.6490000000049,,response,,,,99,,,,,,,Space,keypress(Space),,,,,,,,---- -- ----- -- ------ - ------- --- ----------<br>------------- ------ wisdom ---- ---- ------- ----- -- ----<br>-------- ------- -- ---------- --- - --- ----- ----- ----<br>---- --- --- ----- --- ---- ---- ------- ----- ---- -------<br>--- --- -- ----- -- --- ---- -- --- ---- -- ------ ------<br>--- ----- -- ----,129371.10000002384,129362,128768.685,128780,128785.351,129388.846,,11,wisdom
screen,html.Screen,2_1_0_1_12,2022-02-03T13:10:22.864Z,,,,,,,,,,,,,,,,,53,,,,,,,,,,,,,,441.05399997615314,,response,,,,99,,,,,,,Space,keypress(Space),,,,,,,,---- -- ----- -- ------ - ------- --- ----------<br>------------- ------ ------ says ---- ------- ----- -- ----<br>-------- ------- -- ---------- --- - --- ----- ----- ----<br>---- --- --- ----- --- ---- ---- ------- ----- ---- -------<br>--- --- -- ----- -- --- ---- -- --- ---- -- ------ ------<br>--- ----- -- ----,129838.79999995232,129829.89999997616,129372.18,129371.20000004768,129388.846,129855.494,,12,says
screen,html.Screen,2_1_0_1_13,2022-02-03T13:10:23.280Z,,,,,,,,,,,,,,,,,53,,,,,,,,,,,,,,391.4059999761521,,response,,,,99,,,,,,,Space,keypress(Space),,,,,,,,---- -- ----- -- ------ - ------- --- ----------<br>------------- ------ ------ ---- that ------- ----- -- ----<br>-------- ------- -- ---------- --- - --- ----- ----- ----<br>---- --- --- ----- --- ---- ---- ------- ----- ---- -------<br>--- --- -- ----- -- --- ---- -- --- ---- -- ------ ------<br>--- ----- -- ----,130255.39999997616,130246.89999997616,129838.828,129839.10000002384,129855.494,130272.144,,13,that
screen,html.Screen,2_1_0_1_14,2022-02-03T13:10:23.771Z,,,,,,,,,,,,,,,,,53,,,,,,,,,,,,,,465.65599995231605,,response,,,,99,,,,,,,Space,keypress(Space),,,,,,,,---- -- ----- -- ------ - ------- --- ----------<br>------------- ------ ------ ---- ---- feeling ----- -- ----<br>-------- ------- -- ---------- --- - --- ----- ----- ----<br>---- --- --- ----- --- ---- ---- ------- ----- ---- -------<br>--- --- -- ----- -- --- ---- -- --- ---- -- ------ ------<br>--- ----- -- ----,130746.29999995232,130737.79999995232,130255.478,130255.60000002384,130272.144,130755.458,,14,feeling
screen,html.Screen,2_1_0_1_15,2022-02-03T13:10:24.233Z,,,,,,,,,,,,,,,,,53,,,,,,,,,,,,,,443.4419999761594,,response,,,,99,,,,,,,Space,keypress(Space),,,,,,,,---- -- ----- -- ------ - ------- --- ----------<br>------------- ------ ------ ---- ---- ------- close -- ----<br>-------- ------- -- ---------- --- - --- ----- ----- ----<br>---- --- --- ----- --- ---- ---- ------- ----- ---- -------<br>--- --- -- ----- -- --- ---- -- --- ---- -- ------ ------<br>--- ----- -- ----,131207.79999995232,131198.89999997616,130738.792,130746.5,130755.458,131222.106,,15,close
screen,html.Screen,2_1_0_1_16,2022-02-03T13:10:24.637Z,,,,,,,,,,,,,,,,,53,,,,,,,,,,,,,,381.59400004768395,,response,,,,99,,,,,,,Space,keypress(Space),,,,,,,,---- -- ----- -- ------ - ------- --- ----------<br>------------- ------ ------ ---- ---- ------- ----- to ----<br>-------- ------- -- ---------- --- - --- ----- ----- ----<br>---- --- --- ----- --- ---- ---- ------- ----- ---- -------<br>--- --- -- ----- -- --- ---- -- --- ---- -- ------ ------<br>--- ----- -- ----,131611.39999997616,131603.70000004768,131205.44,131207.89999997616,131222.106,131622.09,,16,to
screen,html.Screen,2_1_0_1_17,2022-02-03T13:10:25.141Z,,,,,,,,,,,,,,,,,53,,,,,,,,,,,,,,484.6100000476872,,response,,,,99,,,,,,,Space,keypress(Space),,,,,,,,---- -- ----- -- ------ - ------- --- ----------<br>------------- ------ ------ ---- ---- ------- ----- -- your<br>-------- ------- -- ---------- --- - --- ----- ----- ----<br>---- --- --- ----- --- ---- ---- ------- ----- ---- -------<br>--- --- -- ----- -- --- ---- -- --- ---- -- ------ ------<br>--- ----- -- ----,132116.10000002384,132106.70000004768,131605.424,131611.60000002384,131622.09,132122.07,,17,your
screen,html.Screen,2_1_0_1_18,2022-02-03T13:10:25.757Z,,,,,,,,,,,,,,,,,53,,,,,,,,,,,,,,600.7299999523093,,response,,,,99,,,,,,,Space,keypress(Space),,,,,,,,---- -- ----- -- ------ - ------- --- ----------<br>------------- ------ ------ ---- ---- ------- ----- -- ----<br>romantic ------- -- ---------- --- - --- ----- ----- ----<br>---- --- --- ----- --- ---- ---- ------- ----- ---- -------<br>--- --- -- ----- -- --- ---- -- --- ---- -- ------ ------<br>--- ----- -- ----,132731.70000004768,132722.79999995232,132105.404,132116.20000004768,132122.07,132738.712,,18,romantic
screen,html.Screen,2_1_0_1_19,2022-02-03T13:10:26.277Z,,,,,,,,,,,,,,,,,53,,,,,,,,,,,,,,503.08799995231675,,response,,,,99,,,,,,,Space,keypress(Space),,,,,,,,---- -- ----- -- ------ - ------- --- ----------<br>------------- ------ ------ ---- ---- ------- ----- -- ----<br>-------- partner -- ---------- --- - --- ----- ----- ----<br>---- --- --- ----- --- ---- ---- ------- ----- ---- -------<br>--- --- -- ----- -- --- ---- -- --- ---- -- ------ ------<br>--- ----- -- ----,133252,133241.79999995232,132722.046,132731.79999995232,132738.712,133272.024,,19,partner
screen,html.Screen,2_1_0_1_20,2022-02-03T13:10:26.628Z,,,,,,,,,,,,,,,,,53,,,,,,,,,,,,,,322.6760000476788,,response,,,,99,,,,,,,Space,keypress(Space),,,,,,,,---- -- ----- -- ------ - ------- --- ----------<br>------------- ------ ------ ---- ---- ------- ----- -- ----<br>-------- ------- is ---------- --- - --- ----- ----- ----<br>---- --- --- ----- --- ---- ---- ------- ----- ---- -------<br>--- --- -- ----- -- --- ---- -- --- ---- -- ------ ------<br>--- ----- -- ----,133603.20000004768,133594.70000004768,133255.358,133252.10000002384,133272.024,133622.01,,20,is
screen,html.Screen,2_1_0_1_21,2022-02-03T13:10:27.143Z,,,,,,,,,,,,,,,,,53,,,,,,,,,,,,,,486.78999995230697,,response,,,,99,,,,,,,Space,keypress(Space),,,,,,,,---- -- ----- -- ------ - ------- --- ----------<br>------------- ------ ------ ---- ---- ------- ----- -- ----<br>-------- ------- -- paramount. --- - --- ----- ----- ----<br>---- --- --- ----- --- ---- ---- ------- ----- ---- -------<br>--- --- -- ----- -- --- ---- -- --- ---- -- ------ ------<br>--- ----- -- ----,134117.79999995232,134108.79999995232,133605.344,133603.29999995232,133622.01,134121.99,,21,paramount.
screen,html.Screen,2_1_0_1_22,2022-02-03T13:10:27.867Z,,,,,,,,,,,,,,,,,53,,,,,,,,,,,,,,710.8099999523256,,response,,,,99,,,,,,,Space,keypress(Space),,,,,,,,---- -- ----- -- ------ - ------- --- ----------<br>------------- ------ ------ ---- ---- ------- ----- -- ----<br>-------- ------- -- ---------- But - --- ----- ----- ----<br>---- --- --- ----- --- ---- ---- ------- ----- ---- -------<br>--- --- -- ----- -- --- ---- -- --- ---- -- ------ ------<br>--- ----- -- ----,134842.10000002384,134832.79999995232,134105.324,134117.89999997616,134121.99,134855.294,,22,But
screen,html.Screen,2_1_0_1_23,2022-02-03T13:10:28.311Z,,,,,,,,,,,,,,,,,53,,,,,,,,,,,,,,420.5059999523219,,response,,,,99,,,,,,,Space,keypress(Space),,,,,,,,---- -- ----- -- ------ - ------- --- ----------<br>------------- ------ ------ ---- ---- ------- ----- -- ----<br>-------- ------- -- ---------- --- a --- ----- ----- ----<br>---- --- --- ----- --- ---- ---- ------- ----- ---- -------<br>--- --- -- ----- -- --- ---- -- --- ---- -- ------ ------<br>--- ----- -- ----,135285.5,135275.79999995232,134838.628,134842.20000004768,134855.294,135288.61,,23,a
screen,html.Screen,2_1_0_1_24,2022-02-03T13:10:28.766Z,,,,,,,,,,,,,,,,,53,,,,,,,,,,,,,,444.18999995233025,,response,,,,99,,,,,,,Space,keypress(Space),,,,,,,,---- -- ----- -- ------ - ------- --- ----------<br>------------- ------ ------ ---- ---- ------- ----- -- ----<br>-------- ------- -- ---------- --- - new ----- ----- ----<br>---- --- --- ----- --- ---- ---- ------- ----- ---- -------<br>--- --- -- ----- -- --- ---- -- --- ---- -- ------ ------<br>--- ----- -- ----,135741,135732.79999995232,135271.944,135285.60000002384,135288.61,135755.258,,24,new
screen,html.Screen,2_1_0_1_25,2022-02-03T13:10:29.149Z,,,,,,,,,,,,,,,,,53,,,,,,,,,,,,,,359.54199995231465,,response,,,,99,,,,,,,Space,keypress(Space),,,,,,,,---- -- ----- -- ------ - ------- --- ----------<br>------------- ------ ------ ---- ---- ------- ----- -- ----<br>-------- ------- -- ---------- --- - --- study ----- ----<br>---- --- --- ----- --- ---- ---- ------- ----- ---- -------<br>--- --- -- ----- -- --- ---- -- --- ---- -- ------ ------<br>--- ----- -- ----,136124.20000004768,136114.79999995232,135738.592,135741.10000002384,135755.258,136138.576,,25,study
screen,html.Screen,2_1_0_1_26,2022-02-03T13:10:29.567Z,,,,,,,,,,,,,,,,,53,,,,,,,,,,,,,,394.1240000476828,,response,,,,99,,,,,,,Space,keypress(Space),,,,,,,,---- -- ----- -- ------ - ------- --- ----------<br>------------- ------ ------ ---- ---- ------- ----- -- ----<br>-------- ------- -- ---------- --- - --- ----- finds ----<br>---- --- --- ----- --- ---- ---- ------- ----- ---- -------<br>--- --- -- ----- -- --- ---- -- --- ---- -- ------ ------<br>--- ----- -- ----,136541.60000002384,136532.70000004768,136121.91,136124.5,136138.576,136555.226,,26,finds
screen,html.Screen,2_1_0_1_27,2022-02-03T13:10:29.934Z,,,,,,,,,,,,,,,,,53,,,,,,,,,,,,,,345.4740000476886,,response,,,,99,,,,,,,Space,keypress(Space),,,,,,,,---- -- ----- -- ------ - ------- --- ----------<br>------------- ------ ------ ---- ---- ------- ----- -- ----<br>-------- ------- -- ---------- --- - --- ----- ----- that<br>---- --- --- ----- --- ---- ---- ------- ----- ---- -------<br>--- --- -- ----- -- --- ---- -- --- ---- -- ------ ------<br>--- ----- -- ----,136909.20000004768,136900.70000004768,136538.56,136541.70000004768,136555.226,136921.878,,27,that
screen,html.Screen,2_1_0_1_28,2022-02-03T13:10:30.874Z,,,,,,,,,,,,,,,,,53,,,,,,,,,,,,,,917.9219999523193,,response,,,,99,,,,,,,Space,keypress(Space),,,,,,,,---- -- ----- -- ------ - ------- --- ----------<br>------------- ------ ------ ---- ---- ------- ----- -- ----<br>-------- ------- -- ---------- --- - --- ----- ----- ----<br>it's --- --- ----- --- ---- ---- ------- ----- ---- -------<br>--- --- -- ----- -- --- ---- -- --- ---- -- ------ ------<br>--- ----- -- ----,137848.89999997616,137839.79999995232,136905.212,136909.39999997616,136921.878,137855.174,,28,it's
screen,html.Screen,2_1_0_1_29,2022-02-03T13:10:31.383Z,,,,,,,,,,,,,,,,,53,,,,,,,,,,,,,,493.4260000238428,,response,,,,99,,,,,,,Space,keypress(Space),,,,,,,,---- -- ----- -- ------ - ------- --- ----------<br>------------- ------ ------ ---- ---- ------- ----- -- ----<br>-------- ------- -- ---------- --- - --- ----- ----- ----<br>---- not --- ----- --- ---- ---- ------- ----- ---- -------<br>--- --- -- ----- -- --- ---- -- --- ---- -- ------ ------<br>--- ----- -- ----,138357.60000002384,138348.60000002384,137838.508,137849,137855.174,138371.82,,29,not
screen,html.Screen,2_1_0_1_30,2022-02-03T13:10:31.779Z,,,,,,,,,,,,,,,,,53,,,,,,,,,,,,,,372.88000004767673,,response,,,,99,,,,,,,Space,keypress(Space),,,,,,,,---- -- ----- -- ------ - ------- --- ----------<br>------------- ------ ------ ---- ---- ------- ----- -- ----<br>-------- ------- -- ---------- --- - --- ----- ----- ----<br>---- --- how ----- --- ---- ---- ------- ----- ---- -------<br>--- --- -- ----- -- --- ---- -- --- ---- -- ------ ------<br>--- ----- -- ----,138753.39999997616,138744.70000004768,138355.154,138357.79999995232,138371.82,138759.175,,30,how
screen,html.Screen,2_1_0_1_31,2022-02-03T13:10:32.210Z,,,,,,,,,,,,,,,,,53,,,,,,,,,,,,,,420.2249999761698,,response,,,,99,,,,,,,Space,keypress(Space),,,,,,,,---- -- ----- -- ------ - ------- --- ----------<br>------------- ------ ------ ---- ---- ------- ----- -- ----<br>-------- ------- -- ---------- --- - --- ----- ----- ----<br>---- --- --- close --- ---- ---- ------- ----- ---- -------<br>--- --- -- ----- -- --- ---- -- --- ---- -- ------ ------<br>--- ----- -- ----,139185.10000002384,139179.39999997616,138742.509,138753.5,138759.175,139192.491,,31,close
screen,html.Screen,2_1_0_1_32,2022-02-03T13:10:32.612Z,,,,,,,,,,,,,,,,,53,,,,,,,,,,,,,,386.20900004767464,,response,,,,99,,,,,,,Space,keypress(Space),,,,,,,,---- -- ----- -- ------ - ------- --- ----------<br>------------- ------ ------ ---- ---- ------- ----- -- ----<br>-------- ------- -- ---------- --- - --- ----- ----- ----<br>---- --- --- ----- you ---- ---- ------- ----- ---- -------<br>--- --- -- ----- -- --- ---- -- --- ---- -- ------ ------<br>--- ----- -- ----,139587.10000002384,139578.70000004768,139175.825,139185.10000002384,139192.491,139592.475,,32,you
screen,html.Screen,2_1_0_1_33,2022-02-03T13:10:32.838Z,,,,,,,,,,,,,,,,,53,,,,,,,,,,,,,,212.2250000476779,,response,,,,99,,,,,,,Space,keypress(Space),,,,,,,,---- -- ----- -- ------ - ------- --- ----------<br>------------- ------ ------ ---- ---- ------- ----- -- ----<br>-------- ------- -- ---------- --- - --- ----- ----- ----<br>---- --- --- ----- --- feel ---- ------- ----- ---- -------<br>--- --- -- ----- -- --- ---- -- --- ---- -- ------ ------<br>--- ----- -- ----,139813.10000002384,139804.70000004768,139575.809,139587.20000004768,139592.475,139825.799,,33,feel
screen,html.Screen,2_1_0_1_34,2022-02-03T13:10:33.243Z,,,,,,,,,,,,,,,,,53,,,,,,,,,,,,,,382.8010000238428,,response,,,,99,,,,,,,Space,keypress(Space),,,,,,,,---- -- ----- -- ------ - ------- --- ----------<br>------------- ------ ------ ---- ---- ------- ----- -- ----<br>-------- ------- -- ---------- --- - --- ----- ----- ----<br>---- --- --- ----- --- ---- that ------- ----- ---- -------<br>--- --- -- ----- -- --- ---- -- --- ---- -- ------ ------<br>--- ----- -- ----,140217.29999995232,140208.60000002384,139809.133,139813.29999995232,139825.799,140225.783,,34,that
screen,html.Screen,2_1_0_1_35,2022-02-03T13:10:33.722Z,,,,,,,,,,,,,,,,,53,,,,,,,,,,,,,,461.9170000476879,,response,,,,99,,,,,,,Space,keypress(Space),,,,,,,,---- -- ----- -- ------ - ------- --- ----------<br>------------- ------ ------ ---- ---- ------- ----- -- ----<br>-------- ------- -- ---------- --- - --- ----- ----- ----<br>---- --- --- ----- --- ---- ---- matters ----- ---- -------<br>--- --- -- ----- -- --- ---- -- --- ---- -- ------ ------<br>--- ----- -- ----,140696.89999997616,140687.70000004768,140209.117,140217.5,140225.783,140709.097,,35,matters
screen,html.Screen,2_1_0_1_36,2022-02-03T13:10:34.055Z,,,,,,,,,,,,,,,,,53,,,,,,,,,,,,,,312.503000023833,,response,,,,99,,,,,,,Space,keypress(Space),,,,,,,,"---- -- ----- -- ------ - ------- --- ----------<br>------------- ------ ------ ---- ---- ------- ----- -- ----<br>-------- ------- -- ---------- --- - --- ----- ----- ----<br>---- --- --- ----- --- ---- ---- ------- most, ---- -------<br>--- --- -- ----- -- --- ---- -- --- ---- -- ------ ------<br>--- ----- -- ----",141030.10000002384,141021.60000002384,140692.431,140697.20000004768,140709.097,141042.417,,36,"most,"
screen,html.Screen,2_1_0_1_37,2022-02-03T13:10:34.499Z,,,,,,,,,,,,,,,,,53,,,,,,,,,,,,,,422.18300002385513,,response,,,,99,,,,,,,Space,keypress(Space),,,,,,,,---- -- ----- -- ------ - ------- --- ----------<br>------------- ------ ------ ---- ---- ------- ----- -- ----<br>-------- ------- -- ---------- --- - --- ----- ----- ----<br>---- --- --- ----- --- ---- ---- ------- ----- it's -------<br>--- --- -- ----- -- --- ---- -- --- ---- -- ------ ------<br>--- ----- -- ----,141473.5,141464.60000002384,141025.751,141030.20000004768,141042.417,141492.399,,37,it's
screen,html.Screen,2_1_0_1_38,2022-02-03T13:10:34.751Z,,,,,,,,,,,,,,,,,53,,,,,,,,,,,,,,225.00099997615325,,response,,,,99,,,,,,,Space,keypress(Space),,,,,,,,---- -- ----- -- ------ - ------- --- ----------<br>------------- ------ ------ ---- ---- ------- ----- -- ----<br>-------- ------- -- ---------- --- - --- ----- ----- ----<br>---- --- --- ----- --- ---- ---- ------- ----- ---- whether<br>--- --- -- ----- -- --- ---- -- --- ---- -- ------ ------<br>--- ----- -- ----,141725.89999997616,141717.39999997616,141475.733,141473.70000004768,141492.399,141742.389,,38,whether
screen,html.Screen,2_1_0_1_39,2022-02-03T13:10:36.544Z,,,,,,,,,,,,,,,,,53,,,,,,,,,,,,,,1765.2110000238463,,response,,,,99,,,,,,,Space,keypress(Space),,,,,,,,---- -- ----- -- ------ - ------- --- ----------<br>------------- ------ ------ ---- ---- ------- ----- -- ----<br>-------- ------- -- ---------- --- - --- ----- ----- ----<br>---- --- --- ----- --- ---- ---- ------- ----- ---- -------<br>you --- -- ----- -- --- ---- -- --- ---- -- ------ ------<br>--- ----- -- ----,143518.5,143507.60000002384,141725.723,141726.10000002384,141742.389,143525.651,,39,you
screen,html.Screen,2_1_0_1_40,2022-02-03T13:10:37.129Z,,,,,,,,,,,,,,,,,53,,,,,,,,,,,,,,569.0490000476711,,response,,,,99,,,,,,,Space,keypress(Space),,,,,,,,---- -- ----- -- ------ - ------- --- ----------<br>------------- ------ ------ ---- ---- ------- ----- -- ----<br>-------- ------- -- ---------- --- - --- ----- ----- ----<br>---- --- --- ----- --- ---- ---- ------- ----- ---- -------<br>--- are -- ----- -- --- ---- -- --- ---- -- ------ ------<br>--- ----- -- ----,144103.29999995232,144094.70000004768,143508.985,143518.70000004768,143525.651,144108.961,,40,are
screen,html.Screen,2_1_0_1_41,2022-02-03T13:10:37.696Z,,,,,,,,,,,,,,,,,53,,,,,,,,,,,,,,552.5389999999898,,response,,,,99,,,,,,,Space,keypress(Space),,,,,,,,---- -- ----- -- ------ - ------- --- ----------<br>------------- ------ ------ ---- ---- ------- ----- -- ----<br>-------- ------- -- ---------- --- - --- ----- ----- ----<br>---- --- --- ----- --- ---- ---- ------- ----- ---- -------<br>--- --- as ----- -- --- ---- -- --- ---- -- ------ ------<br>--- ----- -- ----,144670,144661.5,144092.295,144103.39999997616,144108.961,144675.605,,41,as
screen,html.Screen,2_1_0_1_42,2022-02-03T13:10:38.638Z,,,,,,,,,,,,,,,,,53,,,,,,,,,,,,,,926.8949999999895,,response,,,,99,,,,,,,Space,keypress(Space),,,,,,,,---- -- ----- -- ------ - ------- --- ----------<br>------------- ------ ------ ---- ---- ------- ----- -- ----<br>-------- ------- -- ---------- --- - --- ----- ----- ----<br>---- --- --- ----- --- ---- ---- ------- ----- ---- -------<br>--- --- -- close -- --- ---- -- --- ---- -- ------ ------<br>--- ----- -- ----,145612.39999997616,145602.5,144658.939,144670.10000002384,144675.605,145625.567,,42,close
screen,html.Screen,2_1_0_1_43,2022-02-03T13:10:38.937Z,,,,,,,,,,,,,,,,,53,,,,,,,,,,,,,,276.93299999999,,response,,,,99,,,,,,,Space,keypress(Space),,,,,,,,---- -- ----- -- ------ - ------- --- ----------<br>------------- ------ ------ ---- ---- ------- ----- -- ----<br>-------- ------- -- ---------- --- - --- ----- ----- ----<br>---- --- --- ----- --- ---- ---- ------- ----- ---- -------<br>--- --- -- ----- as --- ---- -- --- ---- -- ------ ------<br>--- ----- -- ----,145911.20000004768,145902.5,145608.901,145612.60000002384,145625.567,145925.555,,43,as
screen,html.Screen,2_1_0_1_44,2022-02-03T13:10:39.255Z,,,,,,,,,,,,,,,,,53,,,,,,,,,,,,,,295.74499995232327,,response,,,,99,,,,,,,Space,keypress(Space),,,,,,,,---- -- ----- -- ------ - ------- --- ----------<br>------------- ------ ------ ---- ---- ------- ----- -- ----<br>-------- ------- -- ---------- --- - --- ----- ----- ----<br>---- --- --- ----- --- ---- ---- ------- ----- ---- -------<br>--- --- -- ----- -- you ---- -- --- ---- -- ------ ------<br>--- ----- -- ----,146229.70000004768,146221.29999995232,145908.889,145911.39999997616,145925.555,146242.209,,44,you
screen,html.Screen,2_1_0_1_45,2022-02-03T13:10:39.617Z,,,,,,,,,,,,,,,,,53,,,,,,,,,,,,,,340.3910000238393,,response,,,,99,,,,,,,Space,keypress(Space),,,,,,,,---- -- ----- -- ------ - ------- --- ----------<br>------------- ------ ------ ---- ---- ------- ----- -- ----<br>-------- ------- -- ---------- --- - --- ----- ----- ----<br>---- --- --- ----- --- ---- ---- ------- ----- ---- -------<br>--- --- -- ----- -- --- want -- --- ---- -- ------ ------<br>--- ----- -- ----,146591.60000002384,146582.60000002384,146225.543,146229.89999997616,146242.209,146608.861,,45,want
screen,html.Screen,2_1_0_1_46,2022-02-03T13:10:40.003Z,,,,,,,,,,,,,,,,,53,,,,,,,,,,,,,,360.5389999761537,,response,,,,99,,,,,,,Space,keypress(Space),,,,,,,,---- -- ----- -- ------ - ------- --- ----------<br>------------- ------ ------ ---- ---- ------- ----- -- ----<br>-------- ------- -- ---------- --- - --- ----- ----- ----<br>---- --- --- ----- --- ---- ---- ------- ----- ---- -------<br>--- --- -- ----- -- --- ---- to --- ---- -- ------ ------<br>--- ----- -- ----,146978,146969.39999997616,146592.195,146591.89999997616,146608.861,146992.179,,46,to
screen,html.Screen,2_1_0_1_47,2022-02-03T13:10:40.339Z,,,,,,,,,,,,,,,,,53,,,,,,,,,,,,,,312.2209999761544,,response,,,,99,,,,,,,Space,keypress(Space),,,,,,,,"---- -- ----- -- ------ - ------- --- ----------<br>------------- ------ ------ ---- ---- ------- ----- -- ----<br>-------- ------- -- ---------- --- - --- ----- ----- ----<br>---- --- --- ----- --- ---- ---- ------- ----- ---- -------<br>--- --- -- ----- -- --- ---- -- be, ---- -- ------ ------<br>--- ----- -- ----",147313.20000004768,147304.39999997616,146975.513,146978.10000002384,146992.179,147325.499,,47,"be,"
screen,html.Screen,2_1_0_1_48,2022-02-03T13:10:41.025Z,,,,,,,,,,,,,,,,,53,,,,,,,,,,,,,,669.8009999523056,,response,,,,99,,,,,,,Space,keypress(Space),,,,,,,,---- -- ----- -- ------ - ------- --- ----------<br>------------- ------ ------ ---- ---- ------- ----- -- ----<br>-------- ------- -- ---------- --- - --- ----- ----- ----<br>---- --- --- ----- --- ---- ---- ------- ----- ---- -------<br>--- --- -- ----- -- --- ---- -- --- even -- ------ ------<br>--- ----- -- ----,147999.89999997616,147995.29999995232,147308.833,147313.29999995232,147325.499,148008.805,,48,even
screen,html.Screen,2_1_0_1_49,2022-02-03T13:10:41.391Z,,,,,,,,,,,,,,,,,53,,,,,,,,,,,,,,346.49499995232327,,response,,,,99,,,,,,,Space,keypress(Space),,,,,,,,---- -- ----- -- ------ - ------- --- ----------<br>------------- ------ ------ ---- ---- ------- ----- -- ----<br>-------- ------- -- ---------- --- - --- ----- ----- ----<br>---- --- --- ----- --- ---- ---- ------- ----- ---- -------<br>--- --- -- ----- -- --- ---- -- --- ---- if ------ ------<br>--- ----- -- ----,148365.29999995232,148355.29999995232,147992.139,147999.89999997616,148008.805,148375.457,,49,if
screen,html.Screen,2_1_0_1_50,2022-02-03T13:10:41.732Z,,,,,,,,,,,,,,,,,53,,,,,,,,,,,,,,322.8429999523214,,response,,,,99,,,,,,,Space,keypress(Space),,,,,,,,---- -- ----- -- ------ - ------- --- ----------<br>------------- ------ ------ ---- ---- ------- ----- -- ----<br>-------- ------- -- ---------- --- - --- ----- ----- ----<br>---- --- --- ----- --- ---- ---- ------- ----- ---- -------<br>--- --- -- ----- -- --- ---- -- --- ---- -- that's ------<br>--- ----- -- ----,148706.5,148698.29999995232,148358.791,148365.39999997616,148375.457,148717.853,,50,that's
screen,html.Screen,2_1_0_1_51,2022-02-03T13:10:42.328Z,,,,,,,,,,,,,,,,,53,,,,,,,,,,,,,,578.3470000476809,,response,,,,99,,,,,,,Space,keypress(Space),,,,,,,,---- -- ----- -- ------ - ------- --- ----------<br>------------- ------ ------ ---- ---- ------- ----- -- ----<br>-------- ------- -- ---------- --- - --- ----- ----- ----<br>---- --- --- ----- --- ---- ---- ------- ----- ---- -------<br>--- --- -- ----- -- --- ---- -- --- ---- -- ------ really<br>--- ----- -- ----,149302.39999997616,149296.20000004768,148701.187,148706.60000002384,148717.853,149317.829,,51,really
screen,html.Screen,2_1_0_1_52,2022-02-03T13:10:42.741Z,,,,,,,,,,,,,,,,,53,,,,,,,,,,,,,,387.57099997616024,,response,,,,99,,,,,,,Space,keypress(Space),,,,,,,,---- -- ----- -- ------ - ------- --- ----------<br>------------- ------ ------ ---- ---- ------- ----- -- ----<br>-------- ------- -- ---------- --- - --- ----- ----- ----<br>---- --- --- ----- --- ---- ---- ------- ----- ---- -------<br>--- --- -- ----- -- --- ---- -- --- ---- -- ------ ------<br>not ----- -- ----,149715.60000002384,149705.39999997616,149301.163,149302.5,149317.829,149734.479,,52,not
screen,html.Screen,2_1_0_1_53,2022-02-03T13:10:43.144Z,,,,,,,,,,,,,,,,,53,,,,,,,,,,,,,,375.8209999523242,,response,,,,99,,,,,,,Space,keypress(Space),,,,,,,,---- -- ----- -- ------ - ------- --- ----------<br>------------- ------ ------ ---- ---- ------- ----- -- ----<br>-------- ------- -- ---------- --- - --- ----- ----- ----<br>---- --- --- ----- --- ---- ---- ------- ----- ---- -------<br>--- --- -- ----- -- --- ---- -- --- ---- -- ------ ------<br>--- close -- ----,150118.39999997616,150110.29999995232,149717.813,149715.70000004768,149734.479,150134.463,,53,close
screen,html.Screen,2_1_0_1_54,2022-02-03T13:10:43.639Z,,,,,,,,,,,,,,,,,53,,,,,,,,,,,,,,469.83699995232746,,response,,,,99,,,,,,,Space,keypress(Space),,,,,,,,---- -- ----- -- ------ - ------- --- ----------<br>------------- ------ ------ ---- ---- ------- ----- -- ----<br>-------- ------- -- ---------- --- - --- ----- ----- ----<br>---- --- --- ----- --- ---- ---- ------- ----- ---- -------<br>--- --- -- ----- -- --- ---- -- --- ---- -- ------ ------<br>--- ----- at ----,150613.20000004768,150604.29999995232,150117.797,150118.60000002384,150134.463,150617.777,,54,at
screen,html.Screen,2_1_0_1_55,2022-02-03T13:10:44.040Z,,,,,,,,,,,,,,,,,53,,,,,,,,,,,,,,386.5229999523144,,response,,,,99,,,,,,,Space,keypress(Space),,,,,,,,---- -- ----- -- ------ - ------- --- ----------<br>------------- ------ ------ ---- ---- ------- ----- -- ----<br>-------- ------- -- ---------- --- - --- ----- ----- ----<br>---- --- --- ----- --- ---- ---- ------- ----- ---- -------<br>--- --- -- ----- -- --- ---- -- --- ---- -- ------ ------<br>--- ----- -- all.,151013.89999997616,151004.29999995232,150601.111,150613.39999997616,150617.777,151017.761,,55,all.
Item 99,flow.Loop,2_1_0_1,2022-02-03T13:10:44.040Z,,,,,,,,,,,,,,,,,,,,,,,,,,,,,,,33679.81599995232,,completion,,,,,F,,,,,,,,,,,silence,,,,,151014.20000004768,151004.29999995232,117274.486,117278.29999995232,117324.484,151017.761,,,
Question 1,html.Screen,2_1_0_2,2022-02-03T13:10:52.806Z,,,,,,,,,,,,,,,,,,,,,,,,,,,,true,FALSE,,8758.839000023843,,response,,,,99,F,,,,,,FALSE,click #choice-2,,,,silence,,,,,159780.39999997616,159776.60000002384,151001.095,151014.39999997616,151017.761,159793.738,,,
Question 2,html.Screen,2_1_0_3,2022-02-03T13:10:57.301Z,,,,,,,,,,,,,,,,,,,,,,,,,,,,true,TRUE,,4477.061999952304,,response,,,,99,F,,,,,,TRUE,click #choice-1,,,,silence,,,,,164274.70000004768,164270.79999995232,159777.072,159780.60000002384,159793.738,164276.892,,,
Item 99,flow.Sequence,2_1_0,2022-02-03T13:10:57.301Z,,,,,,,,,,,,,,,,,,,,,,,,,,,,,,,56986.469999952315,,completion,,,,,,,,,,,,,,,,,,,,,164275,164270.79999995232,107250.998,107275.29999995232,107284.33,164276.892,,,
Holding screen,html.Screen,2_1_1_0,2022-02-03T13:11:07.285Z,,,,,,,,,,,,,,,,,,,,,,,,,,,,,,,9997.023000000016,,timeout,,,,,,,,,,,,,,,,,,,,,174259.20000004768,174257.249,164260.226,164275.20000004768,164276.892,174273.915,,,
screen,html.Screen,2_1_1_1_0,2022-02-03T13:11:08.512Z,,,,,,,,,,,,,,,,,54,,,,,,,,,,,,,,1203.6850000238337,,response,,,,100,,,,,,,Space,keypress(Space),,,,,,,,At --- ---- --- ------ ----- ------- ---- -- --- ------- --<br>------- ---------- ------ -- ----- -- ----- -- ---- ------<br>--- ----- --- --- ------ -------- ----- --- ------ ----- --<br>----- ----- ---------- --- --- ------ ------ ---- -- ------<br>------- --- ------ ----- --- ---- ------- -- ---- --- --<br>------- ------,175485.79999995232,175477.60000002384,174257.249,174259.39999997616,174273.915,175490.533,,0,At
screen,html.Screen,2_1_1_1_1,2022-02-03T13:11:08.991Z,,,,,,,,,,,,,,,,,54,,,,,,,,,,,,,,466.1670000476879,,response,,,,100,,,,,,,Space,keypress(Space),,,,,,,,-- the ---- --- ------ ----- ------- ---- -- --- ------- --<br>------- ---------- ------ -- ----- -- ----- -- ---- ------<br>--- ----- --- --- ------ -------- ----- --- ------ ----- --<br>----- ----- ---------- --- --- ------ ------ ---- -- ------<br>------- --- ------ ----- --- ---- ------- -- ---- --- --<br>------- ------,175965.10000002384,175956.70000004768,175473.867,175485.89999997616,175490.533,175973.847,,1,the
screen,html.Screen,2_1_1_1_2,2022-02-03T13:11:09.398Z,,,,,,,,,,,,,,,,,54,,,,,,,,,,,,,,388.85300004767487,,response,,,,100,,,,,,,Space,keypress(Space),,,,,,,,-- --- time --- ------ ----- ------- ---- -- --- ------- --<br>------- ---------- ------ -- ----- -- ----- -- ---- ------<br>--- ----- --- --- ------ -------- ----- --- ------ ----- --<br>----- ----- ---------- --- --- ------ ------ ---- -- ------<br>------- --- ------ ----- --- ---- ------- -- ---- --- --<br>------- ------,176371.20000004768,176362.70000004768,175957.181,175965.20000004768,175973.847,176373.831,,2,time
screen,html.Screen,2_1_1_1_3,2022-02-03T13:11:10.518Z,,,,,,,,,,,,,,,,,54,,,,,,,,,,,,,,1108.9689999523107,,response,,,,100,,,,,,,Space,keypress(Space),,,,,,,,-- --- ---- the ------ ----- ------- ---- -- --- ------- --<br>------- ---------- ------ -- ----- -- ----- -- ---- ------<br>--- ----- --- --- ------ -------- ----- --- ------ ----- --<br>----- ----- ---------- --- --- ------ ------ ---- -- ------<br>------- --- ------ ----- --- ---- ------- -- ---- --- --<br>------- ------,177491.39999997616,177482.79999995232,176357.165,176371.29999995232,176373.831,177507.119,,3,the
screen,html.Screen,2_1_1_1_4,2022-02-03T13:11:10.954Z,,,,,,,,,,,,,,,,,54,,,,,,,,,,,,,,411.4810000238358,,response,,,,100,,,,,,,Space,keypress(Space),,,,,,,,-- --- ---- --- French ----- ------- ---- -- --- ------- --<br>------- ---------- ------ -- ----- -- ----- -- ---- ------<br>--- ----- --- --- ------ -------- ----- --- ------ ----- --<br>----- ----- ---------- --- --- ------ ------ ---- -- ------<br>------- --- ------ ----- --- ---- ------- -- ---- --- --<br>------- ------,177927.20000004768,177918.60000002384,177490.453,177491.5,177507.119,177940.435,,4,French
screen,html.Screen,2_1_1_1_5,2022-02-03T13:11:11.307Z,,,,,,,,,,,,,,,,,54,,,,,,,,,,,,,,331.96499997616047,,response,,,,100,,,,,,,Space,keypress(Space),,,,,,,,-- --- ---- --- ------ crown ------- ---- -- --- ------- --<br>------- ---------- ------ -- ----- -- ----- -- ---- ------<br>--- ----- --- --- ------ -------- ----- --- ------ ----- --<br>----- ----- ---------- --- --- ------ ------ ---- -- ------<br>------- --- ------ ----- --- ---- ------- -- ---- --- --<br>------- ------,178280.5,178272.39999997616,177923.769,177927.39999997616,177940.435,178290.421,,5,crown
screen,html.Screen,2_1_1_1_6,2022-02-03T13:11:11.858Z,,,,,,,,,,,,,,,,,54,,,,,,,,,,,,,,532.978999976156,,response,,,,100,,,,,,,Space,keypress(Space),,,,,,,,-- --- ---- --- ------ ----- secured ---- -- --- ------- --<br>------- ---------- ------ -- ----- -- ----- -- ---- ------<br>--- ----- --- --- ------ -------- ----- --- ------ ----- --<br>----- ----- ---------- --- --- ------ ------ ---- -- ------<br>------- --- ------ ----- --- ---- ------- -- ---- --- --<br>------- ------,178832,178823.39999997616,178273.755,178280.79999995232,178290.421,178840.399,,6,secured
screen,html.Screen,2_1_1_1_7,2022-02-03T13:11:12.448Z,,,,,,,,,,,,,,,,,54,,,,,,,,,,,,,,572.1009999999951,,response,,,,100,,,,,,,Space,keypress(Space),,,,,,,,-- --- ---- --- ------ ----- ------- much -- --- ------- --<br>------- ---------- ------ -- ----- -- ----- -- ---- ------<br>--- ----- --- --- ------ -------- ----- --- ------ ----- --<br>----- ----- ---------- --- --- ------ ------ ---- -- ------<br>------- --- ------ ----- --- ---- ------- -- ---- --- --<br>------- ------,179421.20000004768,179412.5,178823.733,178832.10000002384,178840.399,179440.375,,7,much
screen,html.Screen,2_1_1_1_8,2022-02-03T13:11:12.846Z,,,,,,,,,,,,,,,,,54,,,,,,,,,,,,,,370.22500002384186,,response,,,,100,,,,,,,Space,keypress(Space),,,,,,,,-- --- ---- --- ------ ----- ------- ---- of --- ------- --<br>------- ---------- ------ -- ----- -- ----- -- ---- ------<br>--- ----- --- --- ------ -------- ----- --- ------ ----- --<br>----- ----- ---------- --- --- ------ ------ ---- -- ------<br>------- --- ------ ----- --- ---- ------- -- ---- --- --<br>------- ------,179819.39999997616,179810.60000002384,179423.709,179421.29999995232,179440.375,179823.73,,8,of
screen,html.Screen,2_1_1_1_9,2022-02-03T13:11:13.052Z,,,,,,,,,,,,,,,,,54,,,,,,,,,,,,,,192.76999999998952,,response,,,,100,,,,,,,Space,keypress(Space),,,,,,,,-- --- ---- --- ------ ----- ------- ---- -- its ------- --<br>------- ---------- ------ -- ----- -- ----- -- ---- ------<br>--- ----- --- --- ------ -------- ----- --- ------ ----- --<br>----- ----- ---------- --- --- ------ ------ ---- -- ------<br>------- --- ------ ----- --- ---- ------- -- ---- --- --<br>------- ------,180025,180016.5,179807.064,179819.5,179823.73,180040.388,,9,its
screen,html.Screen,2_1_1_1_10,2022-02-03T13:11:13.724Z,,,,,,,,,,,,,,,,,54,,,,,,,,,,,,,,648.3120000476774,,response,,,,100,,,,,,,Space,keypress(Space),,,,,,,,-- --- ---- --- ------ ----- ------- ---- -- --- revenue --<br>------- ---------- ------ -- ----- -- ----- -- ---- ------<br>--- ----- --- --- ------ -------- ----- --- ------ ----- --<br>----- ----- ---------- --- --- ------ ------ ---- -- ------<br>------- --- ------ ----- --- ---- ------- -- ---- --- --<br>------- ------,180697.39999997616,180688.70000004768,180023.722,180025.20000004768,180040.388,180707.028,,10,revenue
screen,html.Screen,2_1_1_1_11,2022-02-03T13:11:14.130Z,,,,,,,,,,,,,,,,,54,,,,,,,,,,,,,,387.47200000000885,,response,,,,100,,,,,,,Space,keypress(Space),,,,,,,,-- --- ---- --- ------ ----- ------- ---- -- --- ------- by<br>------- ---------- ------ -- ----- -- ----- -- ---- ------<br>--- ----- --- --- ------ -------- ----- --- ------ ----- --<br>----- ----- ---------- --- --- ------ ------ ---- -- ------<br>------- --- ------ ----- --- ---- ------- -- ---- --- --<br>------- ------,181103.29999995232,181094.5,180690.362,180697.60000002384,180707.028,181107.012,,11,by
screen,html.Screen,2_1_1_1_12,2022-02-03T13:11:14.557Z,,,,,,,,,,,,,,,,,54,,,,,,,,,,,,,,418.1880000476958,,response,,,,100,,,,,,,Space,keypress(Space),,,,,,,,-- --- ---- --- ------ ----- ------- ---- -- --- ------- --<br>issuing ---------- ------ -- ----- -- ----- -- ---- ------<br>--- ----- --- --- ------ -------- ----- --- ------ ----- --<br>----- ----- ---------- --- --- ------ ------ ---- -- ------<br>------- --- ------ ----- --- ---- ------- -- ---- --- --<br>------- ------,181530.79999995232,181525.20000004768,181090.346,181103.39999997616,181107.012,181540.328,,12,issuing
screen,html.Screen,2_1_1_1_13,2022-02-03T13:11:14.923Z,,,,,,,,,,,,,,,,,54,,,,,,,,,,,,,,347.97199995230767,,response,,,,100,,,,,,,Space,keypress(Space),,,,,,,,-- --- ---- --- ------ ----- ------- ---- -- --- ------- --<br>------- government ------ -- ----- -- ----- -- ---- ------<br>--- ----- --- --- ------ -------- ----- --- ------ ----- --<br>----- ----- ---------- --- --- ------ ------ ---- -- ------<br>------- --- ------ ----- --- ---- ------- -- ---- --- --<br>------- ------,181896.39999997616,181888.29999995232,181523.662,181530.79999995232,181540.328,181906.98,,13,government
screen,html.Screen,2_1_1_1_14,2022-02-03T13:11:15.283Z,,,,,,,,,,,,,,,,,54,,,,,,,,,,,,,,340.3199999523058,,response,,,,100,,,,,,,Space,keypress(Space),,,,,,,,-- --- ---- --- ------ ----- ------- ---- -- --- ------- --<br>------- ---------- bonds. -- ----- -- ----- -- ---- ------<br>--- ----- --- --- ------ -------- ----- --- ------ ----- --<br>----- ----- ---------- --- --- ------ ------ ---- -- ------<br>------- --- ------ ----- --- ---- ------- -- ---- --- --<br>------- ------,182256.20000004768,182247.29999995232,181890.314,181896.60000002384,181906.98,182273.632,,14,bonds.
screen,html.Screen,2_1_1_1_15,2022-02-03T13:11:16.394Z,,,,,,,,,,,,,,,,,54,,,,,,,,,,,,,,1084.667999952304,,response,,,,100,,,,,,,Space,keypress(Space),,,,,,,,-- --- ---- --- ------ ----- ------- ---- -- --- ------- --<br>------- ---------- ------ In ----- -- ----- -- ---- ------<br>--- ----- --- --- ------ -------- ----- --- ------ ----- --<br>----- ----- ---------- --- --- ------ ------ ---- -- ------<br>------- --- ------ ----- --- ---- ------- -- ---- --- --<br>------- ------,183367.10000002384,183358.29999995232,182256.966,182256.20000004768,182273.632,183373.588,,15,In
screen,html.Screen,2_1_1_1_16,2022-02-03T13:11:17.098Z,,,,,,,,,,,,,,,,,54,,,,,,,,,,,,,,688.9120000000112,,response,,,,100,,,,,,,Space,keypress(Space),,,,,,,,"-- --- ---- --- ------ ----- ------- ---- -- --- ------- --<br>------- ---------- ------ -- 1727, -- ----- -- ---- ------<br>--- ----- --- --- ------ -------- ----- --- ------ ----- --<br>----- ----- ---------- --- --- ------ ------ ---- -- ------<br>------- --- ------ ----- --- ---- ------- -- ---- --- --<br>------- ------",184071.10000002384,184062.5,183356.922,183367.29999995232,183373.588,184073.56,,16,"1727,"
screen,html.Screen,2_1_1_1_17,2022-02-03T13:11:19.101Z,,,,,,,,,,,,,,,,,54,,,,,,,,,,,,,,1995.640000047686,,response,,,,100,,,,,,,Space,keypress(Space),,,,,,,,-- --- ---- --- ------ ----- ------- ---- -- --- ------- --<br>------- ---------- ------ -- ----- in ----- -- ---- ------<br>--- ----- --- --- ------ -------- ----- --- ------ ----- --<br>----- ----- ---------- --- --- ------ ------ ---- -- ------<br>------- --- ------ ----- --- ---- ------- -- ---- --- --<br>------- ------,186078.60000002384,186069.20000004768,184056.894,184071.20000004768,184073.56,186090.146,,17,in
screen,html.Screen,2_1_1_1_18,2022-02-03T13:11:19.632Z,,,,,,,,,,,,,,,,,54,,,,,,,,,,,,,,512.1539999523084,,response,,,,100,,,,,,,Space,keypress(Space),,,,,,,,-- --- ---- --- ------ ----- ------- ---- -- --- ------- --<br>------- ---------- ------ -- ----- -- order -- ---- ------<br>--- ----- --- --- ------ -------- ----- --- ------ ----- --<br>----- ----- ---------- --- --- ------ ------ ---- -- ------<br>------- --- ------ ----- --- ---- ------- -- ---- --- --<br>------- ------,186610.60000002384,186602.29999995232,186073.48,186078.70000004768,186090.146,186623.458,,18,order
screen,html.Screen,2_1_1_1_19,2022-02-03T13:11:19.877Z,,,,,,,,,,,,,,,,,54,,,,,,,,,,,,,,224.6420000238286,,response,,,,100,,,,,,,Space,keypress(Space),,,,,,,,-- --- ---- --- ------ ----- ------- ---- -- --- ------- --<br>------- ---------- ------ -- ----- -- ----- to ---- ------<br>--- ----- --- --- ------ -------- ----- --- ------ ----- --<br>----- ----- ---------- --- --- ------ ------ ---- -- ------<br>------- --- ------ ----- --- ---- ------- -- ---- --- --<br>------- ------,186856.39999997616,186848.10000002384,186606.792,186610.60000002384,186623.458,186873.448,,19,to
screen,html.Screen,2_1_1_1_20,2022-02-03T13:11:21.703Z,,,,,,,,,,,,,,,,,54,,,,,,,,,,,,,,1801.7520000476798,,response,,,,100,,,,,,,Space,keypress(Space),,,,,,,,-- --- ---- --- ------ ----- ------- ---- -- --- ------- --<br>------- ---------- ------ -- ----- -- ----- -- save ------<br>--- ----- --- --- ------ -------- ----- --- ------ ----- --<br>----- ----- ---------- --- --- ------ ------ ---- -- ------<br>------- --- ------ ----- --- ---- ------- -- ---- --- --<br>------- ------,188685.5,188675.20000004768,186856.782,186856.5,186873.448,188690.042,,20,save
screen,html.Screen,2_1_1_1_21,2022-02-03T13:11:22.035Z,,,,,,,,,,,,,,,,,54,,,,,,,,,,,,,,320.25799995232956,,response,,,,100,,,,,,,Space,keypress(Space),,,,,,,,"-- --- ---- --- ------ ----- ------- ---- -- --- ------- --<br>------- ---------- ------ -- ----- -- ----- -- ---- money,<br>--- ----- --- --- ------ -------- ----- --- ------ ----- --<br>----- ----- ---------- --- --- ------ ------ ---- -- ------<br>------- --- ------ ----- --- ---- ------- -- ---- --- --<br>------- ------",189018.79999995232,189010.29999995232,188673.376,188685.60000002384,188690.042,189023.362,,21,"money,"
screen,html.Screen,2_1_1_1_22,2022-02-03T13:11:22.989Z,,,,,,,,,,,,,,,,,54,,,,,,,,,,,,,,941.83800004769,,response,,,,100,,,,,,,Space,keypress(Space),,,,,,,,-- --- ---- --- ------ ----- ------- ---- -- --- ------- --<br>------- ---------- ------ -- ----- -- ----- -- ---- ------<br>the ----- --- --- ------ -------- ----- --- ------ ----- --<br>----- ----- ---------- --- --- ------ ------ ---- -- ------<br>------- --- ------ ----- --- ---- ------- -- ---- --- --<br>------- ------,189973.79999995232,189965.20000004768,189006.696,189018.89999997616,189023.362,189989.99,,22,the
screen,html.Screen,2_1_1_1_23,2022-02-03T13:11:23.737Z,,,,,,,,,,,,,,,,,54,,,,,,,,,,,,,,725.1100000238512,,response,,,,100,,,,,,,Space,keypress(Space),,,,,,,,-- --- ---- --- ------ ----- ------- ---- -- --- ------- --<br>------- ---------- ------ -- ----- -- ----- -- ---- ------<br>--- state --- --- ------ -------- ----- --- ------ ----- --<br>----- ----- ---------- --- --- ------ ------ ---- -- ------<br>------- --- ------ ----- --- ---- ------- -- ---- --- --<br>------- ------,190723.79999995232,190715.10000002384,189973.324,189973.79999995232,189989.99,190739.127,,23,state
screen,html.Screen,2_1_1_1_24,2022-02-03T13:11:24.269Z,,,,,,,,,,,,,,,,,54,,,,,,,,,,,,,,507.07300004767603,,response,,,,100,,,,,,,Space,keypress(Space),,,,,,,,-- --- ---- --- ------ ----- ------- ---- -- --- ------- --<br>------- ---------- ------ -- ----- -- ----- -- ---- ------<br>--- ----- cut --- ------ -------- ----- --- ------ ----- --<br>----- ----- ---------- --- --- ------ ------ ---- -- ------<br>------- --- ------ ----- --- ---- ------- -- ---- --- --<br>------- ------,191256.5,191246.20000004768,190722.461,190723.89999997616,190739.127,191272.439,,24,cut
screen,html.Screen,2_1_1_1_25,2022-02-03T13:11:25.356Z,,,,,,,,,,,,,,,,,54,,,,,,,,,,,,,,1063.6610000238288,,response,,,,100,,,,,,,Space,keypress(Space),,,,,,,,-- --- ---- --- ------ ----- ------- ---- -- --- ------- --<br>------- ---------- ------ -- ----- -- ----- -- ---- ------<br>--- ----- --- the ------ -------- ----- --- ------ ----- --<br>----- ----- ---------- --- --- ------ ------ ---- -- ------<br>------- --- ------ ----- --- ---- ------- -- ---- --- --<br>------- ------,192344.79999995232,192336.10000002384,191255.773,191256.60000002384,191272.439,192355.729,,25,the
screen,html.Screen,2_1_1_1_26,2022-02-03T13:11:25.854Z,,,,,,,,,,,,,,,,,54,,,,,,,,,,,,,,479.47100004769163,,response,,,,100,,,,,,,Space,keypress(Space),,,,,,,,-- --- ---- --- ------ ----- ------- ---- -- --- ------- --<br>------- ---------- ------ -- ----- -- ----- -- ---- ------<br>--- ----- --- --- bonds' -------- ----- --- ------ ----- --<br>----- ----- ---------- --- --- ------ ------ ---- -- ------<br>------- --- ------ ----- --- ---- ------- -- ---- --- --<br>------- ------,192844.20000004768,192835.20000004768,192339.063,192345,192355.729,192855.709,,26,bonds'
screen,html.Screen,2_1_1_1_27,2022-02-03T13:11:26.469Z,,,,,,,,,,,,,,,,,54,,,,,,,,,,,,,,595.3910000238393,,response,,,,100,,,,,,,Space,keypress(Space),,,,,,,,-- --- ---- --- ------ ----- ------- ---- -- --- ------- --<br>------- ---------- ------ -- ----- -- ----- -- ---- ------<br>--- ----- --- --- ------ interest ----- --- ------ ----- --<br>----- ----- ---------- --- --- ------ ------ ---- -- ------<br>------- --- ------ ----- --- ---- ------- -- ---- --- --<br>------- ------,193460.10000002384,193451.10000002384,192839.043,192844.39999997616,192855.709,193472.351,,27,interest
screen,html.Screen,2_1_1_1_28,2022-02-03T13:11:26.927Z,,,,,,,,,,,,,,,,,54,,,,,,,,,,,,,,437.74900002384675,,response,,,,100,,,,,,,Space,keypress(Space),,,,,,,,-- --- ---- --- ------ ----- ------- ---- -- --- ------- --<br>------- ---------- ------ -- ----- -- ----- -- ---- ------<br>--- ----- --- --- ------ -------- rate. --- ------ ----- --<br>----- ----- ---------- --- --- ------ ------ ---- -- ------<br>------- --- ------ ----- --- ---- ------- -- ---- --- --<br>------- ------,193918.39999997616,193910.10000002384,193455.685,193460.29999995232,193472.351,193922.333,,28,rate.
screen,html.Screen,2_1_1_1_29,2022-02-03T13:11:30.124Z,,,,,,,,,,,,,,,,,54,,,,,,,,,,,,,,3185.966999952303,,response,,,,100,,,,,,,Space,keypress(Space),,,,,,,,-- --- ---- --- ------ ----- ------- ---- -- --- ------- --<br>------- ---------- ------ -- ----- -- ----- -- ---- ------<br>--- ----- --- --- ------ -------- ----- The ------ ----- --<br>----- ----- ---------- --- --- ------ ------ ---- -- ------<br>------- --- ------ ----- --- ---- ------- -- ---- --- --<br>------- ------,197119.39999997616,197108.29999995232,193905.667,193918.60000002384,193922.333,197138.871,,29,The
screen,html.Screen,2_1_1_1_30,2022-02-03T13:11:30.714Z,,,,,,,,,,,,,,,,,54,,,,,,,,,,,,,,562.1289999999863,,response,,,,100,,,,,,,Space,keypress(Space),,,,,,,,-- --- ---- --- ------ ----- ------- ---- -- --- ------- --<br>------- ---------- ------ -- ----- -- ----- -- ---- ------<br>--- ----- --- --- ------ -------- ----- --- market ----- --<br>----- ----- ---------- --- --- ------ ------ ---- -- ------<br>------- --- ------ ----- --- ---- ------- -- ---- --- --<br>------- ------,197709.70000004768,197701,197122.205,197119.5,197138.871,197722.181,,30,market
screen,html.Screen,2_1_1_1_31,2022-02-03T13:11:31.140Z,,,,,,,,,,,,,,,,,54,,,,,,,,,,,,,,405.91900002383045,,response,,,,100,,,,,,,Space,keypress(Space),,,,,,,,-- --- ---- --- ------ ----- ------- ---- -- --- ------- --<br>------- ---------- ------ -- ----- -- ----- -- ---- ------<br>--- ----- --- --- ------ -------- ----- --- ------ value --<br>----- ----- ---------- --- --- ------ ------ ---- -- ------<br>------- --- ------ ----- --- ---- ------- -- ---- --- --<br>------- ------,198136.60000002384,198128.10000002384,197705.515,197709.89999997616,197722.181,198155.497,,31,value
screen,html.Screen,2_1_1_1_32,2022-02-03T13:11:31.558Z,,,,,,,,,,,,,,,,,54,,,,,,,,,,,,,,390.30299995231326,,response,,,,100,,,,,,,Space,keypress(Space),,,,,,,,-- --- ---- --- ------ ----- ------- ---- -- --- ------- --<br>------- ---------- ------ -- ----- -- ----- -- ---- ------<br>--- ----- --- --- ------ -------- ----- --- ------ ----- of<br>----- ----- ---------- --- --- ------ ------ ---- -- ------<br>------- --- ------ ----- --- ---- ------- -- ---- --- --<br>------- ------,198554.70000004768,198545.79999995232,198138.831,198136.70000004768,198155.497,198572.147,,32,of
screen,html.Screen,2_1_1_1_33,2022-02-03T13:11:32.062Z,,,,,,,,,,,,,,,,,54,,,,,,,,,,,,,,478.75299997616094,,response,,,,100,,,,,,,Space,keypress(Space),,,,,,,,-- --- ---- --- ------ ----- ------- ---- -- --- ------- --<br>------- ---------- ------ -- ----- -- ----- -- ---- ------<br>--- ----- --- --- ------ -------- ----- --- ------ ----- --<br>these ----- ---------- --- --- ------ ------ ---- -- ------<br>------- --- ------ ----- --- ---- ------- -- ---- --- --<br>------- ------,199059.39999997616,199050.89999997616,198555.481,198554.79999995232,198572.147,199072.127,,33,these
screen,html.Screen,2_1_1_1_34,2022-02-03T13:11:32.508Z,,,,,,,,,,,,,,,,,54,,,,,,,,,,,,,,425.6729999523086,,response,,,,100,,,,,,,Space,keypress(Space),,,,,,,,-- --- ---- --- ------ ----- ------- ---- -- --- ------- --<br>------- ---------- ------ -- ----- -- ----- -- ---- ------<br>--- ----- --- --- ------ -------- ----- --- ------ ----- --<br>----- bonds ---------- --- --- ------ ------ ---- -- ------<br>------- --- ------ ----- --- ---- ------- -- ---- --- --<br>------- ------,199505.60000002384,199497.79999995232,199055.461,199059.5,199072.127,199522.109,,34,bonds
screen,html.Screen,2_1_1_1_35,2022-02-03T13:11:33.053Z,,,,,,,,,,,,,,,,,54,,,,,,,,,,,,,,520.7909999761614,,response,,,,100,,,,,,,Space,keypress(Space),,,,,,,,"-- --- ---- --- ------ ----- ------- ---- -- --- ------- --<br>------- ---------- ------ -- ----- -- ----- -- ---- ------<br>--- ----- --- --- ------ -------- ----- --- ------ ----- --<br>----- ----- plummeted, --- --- ------ ------ ---- -- ------<br>------- --- ------ ----- --- ---- ------- -- ---- --- --<br>------- ------",200051.5,200042.89999997616,199505.443,199505.79999995232,199522.109,200064.214,,35,"plummeted,"
screen,html.Screen,2_1_1_1_36,2022-02-03T13:11:33.648Z,,,,,,,,,,,,,,,,,54,,,,,,,,,,,,,,574.7859999999928,,response,,,,100,,,,,,,Space,keypress(Space),,,,,,,,-- --- ---- --- ------ ----- ------- ---- -- --- ------- --<br>------- ---------- ------ -- ----- -- ----- -- ---- ------<br>--- ----- --- --- ------ -------- ----- --- ------ ----- --<br>----- ----- ---------- and --- ------ ------ ---- -- ------<br>------- --- ------ ----- --- ---- ------- -- ---- --- --<br>------- ------,200647.39999997616,200639,200047.548,200051.70000004768,200064.214,200664.19,,36,and
screen,html.Screen,2_1_1_1_37,2022-02-03T13:11:34.052Z,,,,,,,,,,,,,,,,,54,,,,,,,,,,,,,,378.8099999999977,,response,,,,100,,,,,,,Space,keypress(Space),,,,,,,,-- --- ---- --- ------ ----- ------- ---- -- --- ------- --<br>------- ---------- ------ -- ----- -- ----- -- ---- ------<br>--- ----- --- --- ------ -------- ----- --- ------ ----- --<br>----- ----- ---------- --- the ------ ------ ---- -- ------<br>------- --- ------ ----- --- ---- ------- -- ---- --- --<br>------- ------,201051.29999995232,201043,200647.524,200647.39999997616,200664.19,201064.174,,37,the
screen,html.Screen,2_1_1_1_38,2022-02-03T13:11:34.415Z,,,,,,,,,,,,,,,,,54,,,,,,,,,,,,,,340.7259999761591,,response,,,,100,,,,,,,Space,keypress(Space),,,,,,,,-- --- ---- --- ------ ----- ------- ---- -- --- ------- --<br>------- ---------- ------ -- ----- -- ----- -- ---- ------<br>--- ----- --- --- ------ -------- ----- --- ------ ----- --<br>----- ----- ---------- --- --- market ------ ---- -- ------<br>------- --- ------ ----- --- ---- ------- -- ---- --- --<br>------- ------,201414.79999995232,201404.89999997616,201047.508,201051.39999997616,201064.174,201430.826,,38,market
screen,html.Screen,2_1_1_1_39,2022-02-03T13:11:35.022Z,,,,,,,,,,,,,,,,,54,,,,,,,,,,,,,,582.0739999761572,,response,,,,100,,,,,,,Space,keypress(Space),,,,,,,,-- --- ---- --- ------ ----- ------- ---- -- --- ------- --<br>------- ---------- ------ -- ----- -- ----- -- ---- ------<br>--- ----- --- --- ------ -------- ----- --- ------ ----- --<br>----- ----- ---------- --- --- ------ became ---- -- ------<br>------- --- ------ ----- --- ---- ------- -- ---- --- --<br>------- ------,202022,202012.89999997616,201414.16,201415,201430.826,202030.802,,39,became
screen,html.Screen,2_1_1_1_40,2022-02-03T13:11:35.753Z,,,,,,,,,,,,,,,,,54,,,,,,,,,,,,,,714.0979999761621,,response,,,,100,,,,,,,Space,keypress(Space),,,,,,,,-- --- ---- --- ------ ----- ------- ---- -- --- ------- --<br>------- ---------- ------ -- ----- -- ----- -- ---- ------<br>--- ----- --- --- ------ -------- ----- --- ------ ----- --<br>----- ----- ---------- --- --- ------ ------ wary -- ------<br>------- --- ------ ----- --- ---- ------- -- ---- --- --<br>------- ------,202753.70000004768,202744.89999997616,202014.136,202022.10000002384,202030.802,202764.106,,40,wary
screen,html.Screen,2_1_1_1_41,2022-02-03T13:11:36.028Z,,,,,,,,,,,,,,,,,54,,,,,,,,,,,,,,256.59400004768395,,response,,,,100,,,,,,,Space,keypress(Space),,,,,,,,-- --- ---- --- ------ ----- ------- ---- -- --- ------- --<br>------- ---------- ------ -- ----- -- ----- -- ---- ------<br>--- ----- --- --- ------ -------- ----- --- ------ ----- --<br>----- ----- ---------- --- --- ------ ------ ---- of ------<br>------- --- ------ ----- --- ---- ------- -- ---- --- --<br>------- ------,203029.29999995232,203020.70000004768,202747.44,202753.79999995232,202764.106,203047.428,,41,of
screen,html.Screen,2_1_1_1_42,2022-02-03T13:11:36.595Z,,,,,,,,,,,,,,,,,54,,,,,,,,,,,,,,540.3719999523018,,response,,,,100,,,,,,,Space,keypress(Space),,,,,,,,-- --- ---- --- ------ ----- ------- ---- -- --- ------- --<br>------- ---------- ------ -- ----- -- ----- -- ---- ------<br>--- ----- --- --- ------ -------- ----- --- ------ ----- --<br>----- ----- ---------- --- --- ------ ------ ---- -- French<br>------- --- ------ ----- --- ---- ------- -- ---- --- --<br>------- ------,203596.60000002384,203587.79999995232,203030.762,203029.5,203047.428,203614.072,,42,French
screen,html.Screen,2_1_1_1_43,2022-02-03T13:11:37.049Z,,,,,,,,,,,,,,,,,54,,,,,,,,,,,,,,427.92800000001444,,response,,,,100,,,,,,,Space,keypress(Space),,,,,,,,-- --- ---- --- ------ ----- ------- ---- -- --- ------- --<br>------- ---------- ------ -- ----- -- ----- -- ---- ------<br>--- ----- --- --- ------ -------- ----- --- ------ ----- --<br>----- ----- ---------- --- --- ------ ------ ---- -- ------<br>credit. --- ------ ----- --- ---- ------- -- ---- --- --<br>------- ------,204050.60000002384,204042,203597.406,203596.79999995232,203614.072,204064.054,,43,credit.
screen,html.Screen,2_1_1_1_44,2022-02-03T13:11:37.502Z,,,,,,,,,,,,,,,,,54,,,,,,,,,,,,,,431.8459999761544,,response,,,,100,,,,,,,Space,keypress(Space),,,,,,,,-- --- ---- --- ------ ----- ------- ---- -- --- ------- --<br>------- ---------- ------ -- ----- -- ----- -- ---- ------<br>--- ----- --- --- ------ -------- ----- --- ------ ----- --<br>----- ----- ---------- --- --- ------ ------ ---- -- ------<br>------- The ------ ----- --- ---- ------- -- ---- --- --<br>------- ------,204504.5,204495.89999997616,204047.388,204050.70000004768,204064.054,204514.036,,44,The
screen,html.Screen,2_1_1_1_45,2022-02-03T13:11:37.709Z,,,,,,,,,,,,,,,,,54,,,,,,,,,,,,,,187.7639999523235,,response,,,,100,,,,,,,Space,keypress(Space),,,,,,,,-- --- ---- --- ------ ----- ------- ---- -- --- ------- --<br>------- ---------- ------ -- ----- -- ----- -- ---- ------<br>--- ----- --- --- ------ -------- ----- --- ------ ----- --<br>----- ----- ---------- --- --- ------ ------ ---- -- ------<br>------- --- French ----- --- ---- ------- -- ---- --- --<br>------- ------,204710.79999995232,204701.79999995232,204497.37,204504.60000002384,204514.036,204730.694,,45,French
screen,html.Screen,2_1_1_1_46,2022-02-03T13:11:38.160Z,,,,,,,,,,,,,,,,,54,,,,,,,,,,,,,,422.20599997616955,,response,,,,100,,,,,,,Space,keypress(Space),,,,,,,,-- --- ---- --- ------ ----- ------- ---- -- --- ------- --<br>------- ---------- ------ -- ----- -- ----- -- ---- ------<br>--- ----- --- --- ------ -------- ----- --- ------ ----- --<br>----- ----- ---------- --- --- ------ ------ ---- -- ------<br>------- --- ------ state --- ---- ------- -- ---- --- --<br>------- ------,205162.29999995232,205152.89999997616,204714.028,204711,204730.694,205180.676,,46,state
screen,html.Screen,2_1_1_1_47,2022-02-03T13:11:38.353Z,,,,,,,,,,,,,,,,,54,,,,,,,,,,,,,,168.02400004767696,,response,,,,100,,,,,,,Space,keypress(Space),,,,,,,,-- --- ---- --- ------ ----- ------- ---- -- --- ------- --<br>------- ---------- ------ -- ----- -- ----- -- ---- ------<br>--- ----- --- --- ------ -------- ----- --- ------ ----- --<br>----- ----- ---------- --- --- ------ ------ ---- -- ------<br>------- --- ------ ----- was ---- ------- -- ---- --- --<br>------- ------,205356,205348.70000004768,205164.01,205162.70000004768,205180.676,205364.002,,47,was
screen,html.Screen,2_1_1_1_48,2022-02-03T13:11:38.795Z,,,,,,,,,,,,,,,,,54,,,,,,,,,,,,,,424.7979999523086,,response,,,,100,,,,,,,Space,keypress(Space),,,,,,,,-- --- ---- --- ------ ----- ------- ---- -- --- ------- --<br>------- ---------- ------ -- ----- -- ----- -- ---- ------<br>--- ----- --- --- ------ -------- ----- --- ------ ----- --<br>----- ----- ---------- --- --- ------ ------ ---- -- ------<br>------- --- ------ ----- --- left ------- -- ---- --- --<br>------- ------,205797.60000002384,205788.79999995232,205347.336,205356.10000002384,205364.002,205813.984,,48,left
screen,html.Screen,2_1_1_1_49,2022-02-03T13:11:39.232Z,,,,,,,,,,,,,,,,,54,,,,,,,,,,,,,,414.6160000238451,,response,,,,100,,,,,,,Space,keypress(Space),,,,,,,,-- --- ---- --- ------ ----- ------- ---- -- --- ------- --<br>------- ---------- ------ -- ----- -- ----- -- ---- ------<br>--- ----- --- --- ------ -------- ----- --- ------ ----- --<br>----- ----- ---------- --- --- ------ ------ ---- -- ------<br>------- --- ------ ----- --- ---- without -- ---- --- --<br>------- ------,206234.89999997616,206228.60000002384,205797.318,205797.79999995232,205813.984,206247.3,,49,without
screen,html.Screen,2_1_1_1_50,2022-02-03T13:11:39.477Z,,,,,,,,,,,,,,,,,54,,,,,,,,,,,,,,225.3000000238535,,response,,,,100,,,,,,,Space,keypress(Space),,,,,,,,-- --- ---- --- ------ ----- ------- ---- -- --- ------- --<br>------- ---------- ------ -- ----- -- ----- -- ---- ------<br>--- ----- --- --- ------ -------- ----- --- ------ ----- --<br>----- ----- ---------- --- --- ------ ------ ---- -- ------<br>------- --- ------ ----- --- ---- ------- an ---- --- --<br>------- ------,206479.89999997616,206472.60000002384,206230.634,206235,206247.3,206497.29,,50,an
screen,html.Screen,2_1_1_1_51,2022-02-03T13:11:39.856Z,,,,,,,,,,,,,,,,,54,,,,,,,,,,,,,,353.50999995230814,,response,,,,100,,,,,,,Space,keypress(Space),,,,,,,,-- --- ---- --- ------ ----- ------- ---- -- --- ------- --<br>------- ---------- ------ -- ----- -- ----- -- ---- ------<br>--- ----- --- --- ------ -------- ----- --- ------ ----- --<br>----- ----- ---------- --- --- ------ ------ ---- -- ------<br>------- --- ------ ----- --- ---- ------- -- easy --- --<br>------- ------,206859.70000004768,206850.79999995232,206480.624,206480.10000002384,206497.29,206863.942,,51,easy
screen,html.Screen,2_1_1_1_52,2022-02-03T13:11:40.285Z,,,,,,,,,,,,,,,,,54,,,,,,,,,,,,,,414.8579999523063,,response,,,,100,,,,,,,Space,keypress(Space),,,,,,,,-- --- ---- --- ------ ----- ------- ---- -- --- ------- --<br>------- ---------- ------ -- ----- -- ----- -- ---- ------<br>--- ----- --- --- ------ -------- ----- --- ------ ----- --<br>----- ----- ---------- --- --- ------ ------ ---- -- ------<br>------- --- ------ ----- --- ---- ------- -- ---- way --<br>------- ------,207288.79999995232,207278.79999995232,206847.276,206859.89999997616,206863.942,207297.258,,52,way
screen,html.Screen,2_1_1_1_53,2022-02-03T13:11:40.767Z,,,,,,,,,,,,,,,,,54,,,,,,,,,,,,,,464.4420000476821,,response,,,,100,,,,,,,Space,keypress(Space),,,,,,,,-- --- ---- --- ------ ----- ------- ---- -- --- ------- --<br>------- ---------- ------ -- ----- -- ----- -- ---- ------<br>--- ----- --- --- ------ -------- ----- --- ------ ----- --<br>----- ----- ---------- --- --- ------ ------ ---- -- ------<br>------- --- ------ ----- --- ---- ------- -- ---- --- of<br>------- ------,207770.60000002384,207761.70000004768,207280.592,207289,207297.258,207780.572,,53,of
screen,html.Screen,2_1_1_1_54,2022-02-03T13:11:41.078Z,,,,,,,,,,,,,,,,,54,,,,,,,,,,,,,,293.2279999523307,,response,,,,100,,,,,,,Space,keypress(Space),,,,,,,,-- --- ---- --- ------ ----- ------- ---- -- --- ------- --<br>------- ---------- ------ -- ----- -- ----- -- ---- ------<br>--- ----- --- --- ------ -------- ----- --- ------ ----- --<br>----- ----- ---------- --- --- ------ ------ ---- -- ------<br>------- --- ------ ----- --- ---- ------- -- ---- --- --<br>raising ------,208082.29999995232,208073.79999995232,207763.906,207770.79999995232,207780.572,208097.226,,54,raising
screen,html.Screen,2_1_1_1_55,2022-02-03T13:11:41.474Z,,,,,,,,,,,,,,,,,54,,,,,,,,,,,,,,373.37400002384675,,response,,,,100,,,,,,,Space,keypress(Space),,,,,,,,-- --- ---- --- ------ ----- ------- ---- -- --- ------- --<br>------- ---------- ------ -- ----- -- ----- -- ---- ------<br>--- ----- --- --- ------ -------- ----- --- ------ ----- --<br>----- ----- ---------- --- --- ------ ------ ---- -- ------<br>------- --- ------ ----- --- ---- ------- -- ---- --- --<br>------- money.,208478.79999995232,208470.60000002384,208080.56,208082.39999997616,208097.226,208497.21,,55,money.
Item 100,flow.Loop,2_1_1_1,2022-02-03T13:11:41.475Z,,,,,,,,,,,,,,,,,,,,,,,,,,,,,,,34196.685000023834,,completion,,,,,F,,,,,,,,,,,silence,,,,,208479,208470.60000002384,174257.249,174259.29999995232,174273.915,208497.21,,,
Question 1,html.Screen,2_1_1_2,2022-02-03T13:11:49.516Z,,,,,,,,,,,,,,,,,,,,,,,,,,,,false,TRUE,,8022.89000002385,,response,,,,100,F,,,,,,FALSE,click #choice-2,,,,silence,,,,,216523.29999995232,216520.10000002384,208480.544,208479.10000002384,208497.21,216550.28,,,
Question 2,html.Screen,2_1_1_3,2022-02-03T13:11:51.528Z,,,,,,,,,,,,,,,,,,,,,,,,,,,,true,FALSE,,1981.4200000476849,,response,,,,100,F,,,,,,FALSE,click #choice-2,,,,silence,,,,,218536.10000002384,218531.70000004768,216533.614,216523.5,216550.28,218550.2,,,
Item 100,flow.Sequence,2_1_1,2022-02-03T13:11:51.528Z,,,,,,,,,,,,,,,,,,,,,,,,,,,,,,,54254.80800004769,,completion,,,,,,,,,,,,,,,,,,,,,218536.39999997616,218531.70000004768,164260.226,164275.10000002384,164276.892,218550.2,,,
End of Practice,html.Page,2_1_2,2022-02-03T13:11:55.049Z,,,,,,,,,,,,,,,,,,,,,,,,,,,,,,,3507.40000002383,,form submission,,,,,,,,,,,,,,,,,,,,,222058,222057.60000002384,218533.534,218536.5,218550.2,222066.133,,,
Practice,flow.Sequence,2_1,2022-02-03T13:11:55.049Z,,,,,,,,,,,,,,,,,,,,,,,,,,,,,,,114773.27000002384,,completion,,,,,,,,,,,,,,,,,,,,,222058.29999995232,222057.60000002384,107250.998,107275.20000004768,107284.33,222066.133,,,
Trap_instruction,html.Page,2_2_0,2022-02-03T13:11:59.225Z,,,,,,,,,,,,,,,,,,,,,,,,,,,,,,,4168.666999952315,,form submission,,,,,,,,,,,,,,,,,,,,,226235.20000004768,226234.79999995232,222049.467,222058.5,222066.133,226249.299,,,
trap_trial,html.Screen,2_2_1,2022-02-03T13:12:02.991Z,,,,,,,,,,,,,,,,,,,,,,,,,,,,true,1,,3748.301000023843,,response,,,,,,,,,,,1,click #choice-1,,,,,,,,,230001.60000002384,229997.60000002384,226232.633,226235.29999995232,226249.299,230015.815,,,
end of trap trial,html.Page,2_2_2,2022-02-03T13:12:04.577Z,,,,,,,,,,,,,,,,,,,,,,,,,,,,,,,1571.0849999761558,,form submission,,,,,,,,,,,,,,,,,,,,,231587.29999995232,231586.89999997616,229999.149,230001.79999995232,230015.815,231599.085,,,
Trap 1,flow.Sequence,2_2,2022-02-03T13:12:04.577Z,,,,,,,,,,,,,,,,,,,,,,,,,,,,,,,9520.766999976157,,completion,,,,,,,,,,,,,,,,,,,,,231587.39999997616,231586.89999997616,222049.467,222058.39999997616,222066.133,231599.085,,,
Standby,html.Page,2_3_0,2022-02-03T13:12:12.573Z,,,,,,,,,,,,,,,,,,,,,,,,,,,,,,,7999.680000000022,,timeout,,,,,,,,,,,,,,,,,,,,,239584.10000002384,239582.099,231582.419,231587.60000002384,231599.085,239598.765,,,
Holding screen,html.Screen,2_3_1_0_0,2022-02-03T13:12:19.574Z,,,,,,,,,,,,,,,,,,,,,,,,,,,,,,,7001.22099999999,,timeout,,,,,,,,,,,,,,,,,,,,,246585.20000004768,246583.32,239582.099,239584.39999997616,239598.765,246599.986,,,
screen,html.Screen,2_3_1_0_1_0,2022-02-03T13:12:20.681Z,,,,,,,,,,,,,,,,,48,,,,,,,,,,,,,,1081.0139999999956,,response,,,,10,F,,,,,,Space,keypress(Space),,,,instrumental,,,,As -- --- ------ ------- --------- ----------- --------<br>--------- -------- --- ------- -- ------- ---- -- ------<br>-- --- -------- -------- ---------- ---- ---- ---- ------<br>-- --------- -- ---- -- --- -- --- ------- -- - -----<br>---------- -- -- -- ---- ----- -- ------ -- --- ------<br>-------,247692.10000002384,247681,246583.32,246585.60000002384,246599.986,247699.942,,0,As
screen,html.Screen,2_3_1_0_1_1,2022-02-03T13:12:21.260Z,,,,,,,,,,,,,,,,,48,,,,,,,,,,,,,,562.7580000476737,,response,,,,10,F,,,,,,Space,keypress(Space),,,,instrumental,,,,-- in --- ------ ------- --------- ----------- --------<br>--------- -------- --- ------- -- ------- ---- -- ------<br>-- --- -------- -------- ---------- ---- ---- ---- ------<br>-- --------- -- ---- -- --- -- --- ------- -- - -----<br>---------- -- -- -- ---- ----- -- ------ -- --- ------<br>-------,248271.79999995232,248262.70000004768,247683.276,247692.20000004768,247699.942,248283.252,,1,in
screen,html.Screen,2_3_1_0_1_2,2022-02-03T13:12:21.675Z,,,,,,,,,,,,,,,,,48,,,,,,,,,,,,,,393.5479999523086,,response,,,,10,F,,,,,,Space,keypress(Space),,,,instrumental,,,,-- -- the ------ ------- --------- ----------- --------<br>--------- -------- --- ------- -- ------- ---- -- ------<br>-- --- -------- -------- ---------- ---- ---- ---- ------<br>-- --------- -- ---- -- --- -- --- ------- -- - -----<br>---------- -- -- -- ---- ----- -- ------ -- --- ------<br>-------,248685.89999997616,248676.79999995232,248266.586,248271.79999995232,248283.252,248699.902,,2,the
screen,html.Screen,2_3_1_0_1_3,2022-02-03T13:12:22.071Z,,,,,,,,,,,,,,,,,48,,,,,,,,,,,,,,373.09799999999814,,response,,,,10,F,,,,,,Space,keypress(Space),,,,instrumental,,,,-- -- --- United ------- --------- ----------- --------<br>--------- -------- --- ------- -- ------- ---- -- ------<br>-- --- -------- -------- ---------- ---- ---- ---- ------<br>-- --------- -- ---- -- --- -- --- ------- -- - -----<br>---------- -- -- -- ---- ----- -- ------ -- --- ------<br>-------,249082.29999995232,249073,248683.236,248686,248699.902,249099.886,,3,United
screen,html.Screen,2_3_1_0_1_4,2022-02-03T13:12:22.526Z,,,,,,,,,,,,,,,,,48,,,,,,,,,,,,,,428.9139999523177,,response,,,,10,F,,,,,,Space,keypress(Space),,,,instrumental,,,,"-- -- --- ------ States, --------- ----------- --------<br>--------- -------- --- ------- -- ------- ---- -- ------<br>-- --- -------- -------- ---------- ---- ---- ---- ------<br>-- --------- -- ---- -- --- -- --- ------- -- - -----<br>---------- -- -- -- ---- ----- -- ------ -- --- ------<br>-------",249537.20000004768,249528.79999995232,249083.22,249082.29999995232,249099.886,249549.868,,4,"States,"
screen,html.Screen,2_3_1_0_1_5,2022-02-03T13:12:23.236Z,,,,,,,,,,,,,,,,,48,,,,,,,,,,,,,,687.9319999523286,,response,,,,10,F,,,,,,Space,keypress(Space),,,,instrumental,,,,-- -- --- ------ ------- Colombian ----------- --------<br>--------- -------- --- ------- -- ------- ---- -- ------<br>-- --- -------- -------- ---------- ---- ---- ---- ------<br>-- --------- -- ---- -- --- -- --- ------- -- - -----<br>---------- -- -- -- ---- ----- -- ------ -- --- ------<br>-------,250246.89999997616,250237.79999995232,249533.202,249537.39999997616,249549.868,250249.84,,5,Colombian
screen,html.Screen,2_3_1_0_1_6,2022-02-03T13:12:23.790Z,,,,,,,,,,,,,,,,,48,,,,,,,,,,,,,,542.9599999523198,,response,,,,10,F,,,,,,Space,keypress(Space),,,,instrumental,,,,-- -- --- ------ ------- --------- legislation --------<br>--------- -------- --- ------- -- ------- ---- -- ------<br>-- --- -------- -------- ---------- ---- ---- ---- ------<br>-- --------- -- ---- -- --- -- --- ------- -- - -----<br>---------- -- -- -- ---- ----- -- ------ -- --- ------<br>-------,250801.60000002384,250792.79999995232,250233.174,250247,250249.84,250816.484,,6,legislation
screen,html.Screen,2_3_1_0_1_7,2022-02-03T13:12:25.989Z,,,,,,,,,,,,,,,,,48,,,,,,,,,,,,,,2175.216000047687,,response,,,,10,F,,,,,,Space,keypress(Space),,,,instrumental,,,,-- -- --- ------ ------- --------- ----------- requires<br>--------- -------- --- ------- -- ------- ---- -- ------<br>-- --- -------- -------- ---------- ---- ---- ---- ------<br>-- --------- -- ---- -- --- -- --- ------- -- - -----<br>---------- -- -- -- ---- ----- -- ------ -- --- ------<br>-------,253000.5,252991.70000004768,250799.818,250801.79999995232,250816.484,253016.396,,7,requires
screen,html.Screen,2_3_1_0_1_8,2022-02-03T13:12:27.422Z,,,,,,,,,,,,,,,,,48,,,,,,,,,,,,,,1406.204000023834,,response,,,,10,F,,,,,,Space,keypress(Space),,,,instrumental,,,,-- -- --- ------ ------- --------- ----------- --------<br>travelers -------- --- ------- -- ------- ---- -- ------<br>-- --- -------- -------- ---------- ---- ---- ---- ------<br>-- --------- -- ---- -- --- -- --- ------- -- - -----<br>---------- -- -- -- ---- ----- -- ------ -- --- ------<br>-------,254433,254422.60000002384,252999.73,253000.60000002384,253016.396,254449.672,,8,travelers
screen,html.Screen,2_3_1_0_1_9,2022-02-03T13:12:27.990Z,,,,,,,,,,,,,,,,,48,,,,,,,,,,,,,,543.8280000000086,,response,,,,10,F,,,,,,Space,keypress(Space),,,,instrumental,,,,-- -- --- ------ ------- --------- ----------- --------<br>--------- entering --- ------- -- ------- ---- -- ------<br>-- --- -------- -------- ---------- ---- ---- ---- ------<br>-- --------- -- ---- -- --- -- --- ------- -- - -----<br>---------- -- -- -- ---- ----- -- ------ -- --- ------<br>-------,255001.20000004768,254993.5,254433.006,254433.10000002384,254449.672,255013.27,,9,entering
screen,html.Screen,2_3_1_0_1_10,2022-02-03T13:12:28.317Z,,,,,,,,,,,,,,,,,48,,,,,,,,,,,,,,308.33000002385234,,response,,,,10,F,,,,,,Space,keypress(Space),,,,instrumental,,,,-- -- --- ------ ------- --------- ----------- --------<br>--------- -------- the ------- -- ------- ---- -- ------<br>-- --- -------- -------- ---------- ---- ---- ---- ------<br>-- --------- -- ---- -- --- -- --- ------- -- - -----<br>---------- -- -- -- ---- ----- -- ------ -- --- ------<br>-------,255328.79999995232,255321.60000002384,254996.604,255001.60000002384,255013.27,255346.59,,10,the
screen,html.Screen,2_3_1_0_1_11,2022-02-03T13:12:28.955Z,,,,,,,,,,,,,,,,,48,,,,,,,,,,,,,,610.0100000238454,,response,,,,10,F,,,,,,Space,keypress(Space),,,,instrumental,,,,-- -- --- ------ ------- --------- ----------- --------<br>--------- -------- --- country -- ------- ---- -- ------<br>-- --- -------- -------- ---------- ---- ---- ---- ------<br>-- --------- -- ---- -- --- -- --- ------- -- - -----<br>---------- -- -- -- ---- ----- -- ------ -- --- ------<br>-------,255966.20000004768,255956.60000002384,255329.924,255328.89999997616,255346.59,255979.898,,11,country
screen,html.Screen,2_3_1_0_1_12,2022-02-03T13:12:30.054Z,,,,,,,,,,,,,,,,,48,,,,,,,,,,,,,,1075.6020000000135,,response,,,,10,F,,,,,,Space,keypress(Space),,,,instrumental,,,,-- -- --- ------ ------- --------- ----------- --------<br>--------- -------- --- ------- to ------- ---- -- ------<br>-- --- -------- -------- ---------- ---- ---- ---- ------<br>-- --------- -- ---- -- --- -- --- ------- -- - -----<br>---------- -- -- -- ---- ----- -- ------ -- --- ------<br>-------,257065.70000004768,257055.5,255963.232,255966.29999995232,255979.898,257079.854,,12,to
screen,html.Screen,2_3_1_0_1_13,2022-02-03T13:12:31.076Z,,,,,,,,,,,,,,,,,48,,,,,,,,,,,,,,996.7460000238498,,response,,,,10,F,,,,,,Space,keypress(Space),,,,instrumental,,,,-- -- --- ------ ------- --------- ----------- --------<br>--------- -------- --- ------- -- declare ---- -- ------<br>-- --- -------- -------- ---------- ---- ---- ---- ------<br>-- --------- -- ---- -- --- -- --- ------- -- - -----<br>---------- -- -- -- ---- ----- -- ------ -- --- ------<br>-------,258087,258076.60000002384,257063.188,257065.79999995232,257079.854,258096.48,,13,declare
screen,html.Screen,2_3_1_0_1_14,2022-02-03T13:12:31.404Z,,,,,,,,,,,,,,,,,48,,,,,,,,,,,,,,309.22000004767324,,response,,,,10,F,,,,,,Space,keypress(Space),,,,instrumental,,,,-- -- --- ------ ------- --------- ----------- --------<br>--------- -------- --- ------- -- ------- cash -- ------<br>-- --- -------- -------- ---------- ---- ---- ---- ------<br>-- --------- -- ---- -- --- -- --- ------- -- - -----<br>---------- -- -- -- ---- ----- -- ------ -- --- ------<br>-------,258415.10000002384,258405.70000004768,258079.814,258087.10000002384,258096.48,258429.8,,14,cash
screen,html.Screen,2_3_1_0_1_15,2022-02-03T13:12:31.764Z,,,,,,,,,,,,,,,,,48,,,,,,,,,,,,,,340.5999999761698,,response,,,,10,F,,,,,,Space,keypress(Space),,,,instrumental,,,,-- -- --- ------ ------- --------- ----------- --------<br>--------- -------- --- ------- -- ------- ---- in ------<br>-- --- -------- -------- ---------- ---- ---- ---- ------<br>-- --------- -- ---- -- --- -- --- ------- -- - -----<br>---------- -- -- -- ---- ----- -- ------ -- --- ------<br>-------,258775.70000004768,258770.39999997616,258413.134,258415.10000002384,258429.8,258779.786,,15,in
screen,html.Screen,2_3_1_0_1_16,2022-02-03T13:12:31.997Z,,,,,,,,,,,,,,,,,48,,,,,,,,,,,,,,223.61399997616536,,response,,,,10,F,,,,,,Space,keypress(Space),,,,instrumental,,,,-- -- --- ------ ------- --------- ----------- --------<br>--------- -------- --- ------- -- ------- ---- -- excess<br>-- --- -------- -------- ---------- ---- ---- ---- ------<br>-- --------- -- ---- -- --- -- --- ------- -- - -----<br>---------- -- -- -- ---- ----- -- ------ -- --- ------<br>-------,259008.5,259003.39999997616,258763.12,258775.70000004768,258779.786,259013.11,,16,excess
screen,html.Screen,2_3_1_0_1_17,2022-02-03T13:12:32.596Z,,,,,,,,,,,,,,,,,48,,,,,,,,,,,,,,584.390000000014,,response,,,,10,F,,,,,,Space,keypress(Space),,,,instrumental,,,,-- -- --- ------ ------- --------- ----------- --------<br>--------- -------- --- ------- -- ------- ---- -- ------<br>of --- -------- -------- ---------- ---- ---- ---- ------<br>-- --------- -- ---- -- --- -- --- ------- -- - -----<br>---------- -- -- -- ---- ----- -- ------ -- --- ------<br>-------,259607.39999997616,259597.5,258996.444,259008.60000002384,259013.11,259613.086,,17,of
screen,html.Screen,2_3_1_0_1_18,2022-02-03T13:12:32.806Z,,,,,,,,,,,,,,,,,48,,,,,,,,,,,,,,195.3139999761479,,response,,,,10,F,,,,,,Space,keypress(Space),,,,instrumental,,,,-- -- --- ------ ------- --------- ----------- --------<br>--------- -------- --- ------- -- ------- ---- -- ------<br>-- ten -------- -------- ---------- ---- ---- ---- ------<br>-- --------- -- ---- -- --- -- --- ------- -- - -----<br>---------- -- -- -- ---- ----- -- ------ -- --- ------<br>-------,259817,259808.39999997616,259596.42,259607.60000002384,259613.086,259829.744,,18,ten
screen,html.Screen,2_3_1_0_1_19,2022-02-03T13:12:33.065Z,,,,,,,,,,,,,,,,,48,,,,,,,,,,,,,,240.75599999999395,,response,,,,10,F,,,,,,Space,keypress(Space),,,,instrumental,,,,-- -- --- ------ ------- --------- ----------- --------<br>--------- -------- --- ------- -- ------- ---- -- ------<br>-- --- thousand -------- ---------- ---- ---- ---- ------<br>-- --------- -- ---- -- --- -- --- ------- -- - -----<br>---------- -- -- -- ---- ----- -- ------ -- --- ------<br>-------,260076.10000002384,260070.5,259813.078,259817,259829.744,260079.734,,19,thousand
screen,html.Screen,2_3_1_0_1_20,2022-02-03T13:12:34.493Z,,,,,,,,,,,,,,,,,48,,,,,,,,,,,,,,1414.7660000000033,,response,,,,10,F,,,,,,Space,keypress(Space),,,,instrumental,,,,-- -- --- ------ ------- --------- ----------- --------<br>--------- -------- --- ------- -- ------- ---- -- ------<br>-- --- -------- dollars. ---------- ---- ---- ---- ------<br>-- --------- -- ---- -- --- -- --- ------- -- - -----<br>---------- -- -- -- ---- ----- -- ------ -- --- ------<br>-------,261504.29999995232,261494.5,260063.068,260076.20000004768,260079.734,261513.01,,20,dollars.
screen,html.Screen,2_3_1_0_1_21,2022-02-03T13:12:35.199Z,,,,,,,,,,,,,,,,,48,,,,,,,,,,,,,,688.5900000238325,,response,,,,10,F,,,,,,Space,keypress(Space),,,,instrumental,,,,-- -- --- ------ ------- --------- ----------- --------<br>--------- -------- --- ------- -- ------- ---- -- ------<br>-- --- -------- -------- Concealing ---- ---- ---- ------<br>-- --------- -- ---- -- --- -- --- ------- -- - -----<br>---------- -- -- -- ---- ----- -- ------ -- --- ------<br>-------,262210.5,262201.60000002384,261496.344,261504.39999997616,261513.01,262229.648,,21,Concealing
screen,html.Screen,2_3_1_0_1_22,2022-02-03T13:12:35.835Z,,,,,,,,,,,,,,,,,48,,,,,,,,,,,,,,607.7519999761716,,response,,,,10,F,,,,,,Space,keypress(Space),,,,instrumental,,,,-- -- --- ------ ------- --------- ----------- --------<br>--------- -------- --- ------- -- ------- ---- -- ------<br>-- --- -------- -------- ---------- more ---- ---- ------<br>-- --------- -- ---- -- --- -- --- ------- -- - -----<br>---------- -- -- -- ---- ----- -- ------ -- --- ------<br>-------,262846.2999999523,262837.39999997616,262212.982,262210.7000000477,262229.648,262862.956,,22,more
screen,html.Screen,2_3_1_0_1_23,2022-02-03T13:12:36.273Z,,,,,,,,,,,,,,,,,48,,,,,,,,,,,,,,412.5439999999944,,response,,,,10,F,,,,,,Space,keypress(Space),,,,instrumental,,,,-- -- --- ------ ------- --------- ----------- --------<br>--------- -------- --- ------- -- ------- ---- -- ------<br>-- --- -------- -------- ---------- ---- than ---- ------<br>-- --------- -- ---- -- --- -- --- ------- -- - -----<br>---------- -- -- -- ---- ----- -- ------ -- --- ------<br>-------,263284.5,263275.5,262846.29,262846.39999997616,262862.956,263296.272,,23,than
screen,html.Screen,2_3_1_0_1_24,2022-02-03T13:12:36.587Z,,,,,,,,,,,,,,,,,48,,,,,,,,,,,,,,290.2280000000028,,response,,,,10,F,,,,,,Space,keypress(Space),,,,instrumental,,,,-- -- --- ------ ------- --------- ----------- --------<br>--------- -------- --- ------- -- ------- ---- -- ------<br>-- --- -------- -------- ---------- ---- ---- that ------<br>-- --------- -- ---- -- --- -- --- ------- -- - -----<br>---------- -- -- -- ---- ----- -- ------ -- --- ------<br>-------,263598.10000002384,263586.5,263279.606,263284.60000002384,263296.272,263612.926,,24,that
screen,html.Screen,2_3_1_0_1_25,2022-02-03T13:12:37.403Z,,,,,,,,,,,,,,,,,48,,,,,,,,,,,,,,789.6740000238642,,response,,,,10,F,,,,,,Space,keypress(Space),,,,instrumental,,,,-- -- --- ------ ------- --------- ----------- --------<br>--------- -------- --- ------- -- ------- ---- -- ------<br>-- --- -------- -------- ---------- ---- ---- ---- amount<br>-- --------- -- ---- -- --- -- --- ------- -- - -----<br>---------- -- -- -- ---- ----- -- ------ -- --- ------<br>-------,264413.89999997616,264402.60000002384,263596.26,263598.2000000477,263612.926,264425.381,,25,amount
screen,html.Screen,2_3_1_0_1_26,2022-02-03T13:12:38.025Z,,,,,,,,,,,,,,,,,48,,,,,,,,,,,,,,601.0189999761642,,response,,,,10,F,,,,,,Space,keypress(Space),,,,instrumental,,,,-- -- --- ------ ------- --------- ----------- --------<br>--------- -------- --- ------- -- ------- ---- -- ------<br>-- --- -------- -------- ---------- ---- ---- ---- ------<br>to --------- -- ---- -- --- -- --- ------- -- - -----<br>---------- -- -- -- ---- ----- -- ------ -- --- ------<br>-------,265035.7999999523,265026.39999997616,264408.715,264414,264425.381,265042.023,,26,to
screen,html.Screen,2_3_1_0_1_27,2022-02-03T13:12:38.905Z,,,,,,,,,,,,,,,,,48,,,,,,,,,,,,,,862.3769999761716,,response,,,,10,F,,,,,,Space,keypress(Space),,,,instrumental,,,,-- -- --- ------ ------- --------- ----------- --------<br>--------- -------- --- ------- -- ------- ---- -- ------<br>-- --- -------- -------- ---------- ---- ---- ---- ------<br>-- transport -- ---- -- --- -- --- ------- -- - -----<br>---------- -- -- -- ---- ----- -- ------ -- --- ------<br>-------,265915.89999997616,265904.39999997616,265025.357,265035.89999997616,265042.023,265925.321,,27,transport
screen,html.Screen,2_3_1_0_1_28,2022-02-03T13:12:39.477Z,,,,,,,,,,,,,,,,,48,,,,,,,,,,,,,,553.0789999761619,,response,,,,10,F,,,,,,Space,keypress(Space),,,,instrumental,,,,-- -- --- ------ ------- --------- ----------- --------<br>--------- -------- --- ------- -- ------- ---- -- ------<br>-- --- -------- -------- ---------- ---- ---- ---- ------<br>-- --------- it ---- -- --- -- --- ------- -- - -----<br>---------- -- -- -- ---- ----- -- ------ -- --- ------<br>-------,266487.7000000477,266478.39999997616,265908.655,265916.10000002384,265925.321,266491.965,,28,it
screen,html.Screen,2_3_1_0_1_29,2022-02-03T13:12:40.136Z,,,,,,,,,,,,,,,,,48,,,,,,,,,,,,,,645.4349999761325,,response,,,,10,F,,,,,,Space,keypress(Space),,,,instrumental,,,,-- -- --- ------ ------- --------- ----------- --------<br>--------- -------- --- ------- -- ------- ---- -- ------<br>-- --- -------- -------- ---------- ---- ---- ---- ------<br>-- --------- -- into -- --- -- --- ------- -- - -----<br>---------- -- -- -- ---- ----- -- ------ -- --- ------<br>-------,267147.2000000477,267137.39999997616,266475.299,266487.89999997616,266491.965,267158.605,,29,into
screen,html.Screen,2_3_1_0_1_30,2022-02-03T13:12:40.373Z,,,,,,,,,,,,,,,,,48,,,,,,,,,,,,,,216.6949999523349,,response,,,,10,F,,,,,,Space,keypress(Space),,,,instrumental,,,,-- -- --- ------ ------- --------- ----------- --------<br>--------- -------- --- ------- -- ------- ---- -- ------<br>-- --- -------- -------- ---------- ---- ---- ---- ------<br>-- --------- -- ---- or --- -- --- ------- -- - -----<br>---------- -- -- -- ---- ----- -- ------ -- --- ------<br>-------,267384.39999997616,267375.2999999523,267141.939,267147.39999997616,267158.605,267391.929,,30,or
screen,html.Screen,2_3_1_0_1_31,2022-02-03T13:12:40.738Z,,,,,,,,,,,,,,,,,48,,,,,,,,,,,,,,348.37099995231256,,response,,,,10,F,,,,,,Space,keypress(Space),,,,instrumental,,,,-- -- --- ------ ------- --------- ----------- --------<br>--------- -------- --- ------- -- ------- ---- -- ------<br>-- --- -------- -------- ---------- ---- ---- ---- ------<br>-- --------- -- ---- -- out -- --- ------- -- - -----<br>---------- -- -- -- ---- ----- -- ------ -- --- ------<br>-------,267749.60000002384,267740.2999999523,267375.263,267384.60000002384,267391.929,267758.581,,31,out
screen,html.Screen,2_3_1_0_1_32,2022-02-03T13:12:40.928Z,,,,,,,,,,,,,,,,,48,,,,,,,,,,,,,,171.61900004767813,,response,,,,10,F,,,,,,Space,keypress(Space),,,,instrumental,,,,-- -- --- ------ ------- --------- ----------- --------<br>--------- -------- --- ------- -- ------- ---- -- ------<br>-- --- -------- -------- ---------- ---- ---- ---- ------<br>-- --------- -- ---- -- --- of --- ------- -- - -----<br>---------- -- -- -- ---- ----- -- ------ -- --- ------<br>-------,267939.2000000477,267930.2000000477,267741.915,267749.7999999523,267758.581,267958.573,,32,of
screen,html.Screen,2_3_1_0_1_33,2022-02-03T13:12:41.127Z,,,,,,,,,,,,,,,,,48,,,,,,,,,,,,,,169.62700004770886,,response,,,,10,F,,,,,,Space,keypress(Space),,,,instrumental,,,,-- -- --- ------ ------- --------- ----------- --------<br>--------- -------- --- ------- -- ------- ---- -- ------<br>-- --- -------- -------- ---------- ---- ---- ---- ------<br>-- --------- -- ---- -- --- -- the ------- -- - -----<br>---------- -- -- -- ---- ----- -- ------ -- --- ------<br>-------,268138.39999997616,268128.2000000477,267941.907,267939.2999999523,267958.573,268141.899,,33,the
screen,html.Screen,2_3_1_0_1_34,2022-02-03T13:12:41.371Z,,,,,,,,,,,,,,,,,48,,,,,,,,,,,,,,229.30100004770793,,response,,,,10,F,,,,,,Space,keypress(Space),,,,instrumental,,,,-- -- --- ------ ------- --------- ----------- --------<br>--------- -------- --- ------- -- ------- ---- -- ------<br>-- --- -------- -------- ---------- ---- ---- ---- ------<br>-- --------- -- ---- -- --- -- --- country -- - -----<br>---------- -- -- -- ---- ----- -- ------ -- --- ------<br>-------,268381.7999999523,268371.2000000477,268125.233,268138.60000002384,268141.899,268391.889,,34,country
screen,html.Screen,2_3_1_0_1_35,2022-02-03T13:12:41.779Z,,,,,,,,,,,,,,,,,48,,,,,,,,,,,,,,389.31100004765904,,response,,,,10,F,,,,,,Space,keypress(Space),,,,instrumental,,,,-- -- --- ------ ------- --------- ----------- --------<br>--------- -------- --- ------- -- ------- ---- -- ------<br>-- --- -------- -------- ---------- ---- ---- ---- ------<br>-- --------- -- ---- -- --- -- --- ------- is - -----<br>---------- -- -- -- ---- ----- -- ------ -- --- ------<br>-------,268790.5,268781.2000000477,268375.223,268382,268391.889,268808.539,,35,is
screen,html.Screen,2_3_1_0_1_36,2022-02-03T13:12:42.825Z,,,,,,,,,,,,,,,,,48,,,,,,,,,,,,,,1017.661000047694,,response,,,,10,F,,,,,,Space,keypress(Space),,,,instrumental,,,,-- -- --- ------ ------- --------- ----------- --------<br>--------- -------- --- ------- -- ------- ---- -- ------<br>-- --- -------- -------- ---------- ---- ---- ---- ------<br>-- --------- -- ---- -- --- -- --- ------- -- a -----<br>---------- -- -- -- ---- ----- -- ------ -- --- ------<br>-------,269835.89999997616,269826.2000000477,268791.873,268790.60000002384,268808.539,269841.831,,36,a
screen,html.Screen,2_3_1_0_1_37,2022-02-03T13:12:43.229Z,,,,,,,,,,,,,,,,,48,,,,,,,,,,,,,,389.3690000476781,,response,,,,10,F,,,,,,Space,keypress(Space),,,,instrumental,,,,-- -- --- ------ ------- --------- ----------- --------<br>--------- -------- --- ------- -- ------- ---- -- ------<br>-- --- -------- -------- ---------- ---- ---- ---- ------<br>-- --------- -- ---- -- --- -- --- ------- -- - crime<br>---------- -- -- -- ---- ----- -- ------ -- --- ------<br>-------,270240.2999999523,270231.2000000477,269825.165,269836,269841.831,270258.481,,37,crime
screen,html.Screen,2_3_1_0_1_38,2022-02-03T13:12:44.329Z,,,,,,,,,,,,,,,,,48,,,,,,,,,,,,,,1072.8189999522874,,response,,,,10,F,,,,,,Space,keypress(Space),,,,instrumental,,,,-- -- --- ------ ------- --------- ----------- --------<br>--------- -------- --- ------- -- ------- ---- -- ------<br>-- --- -------- -------- ---------- ---- ---- ---- ------<br>-- --------- -- ---- -- --- -- --- ------- -- - -----<br>punishable -- -- -- ---- ----- -- ------ -- --- ------<br>-------,271340.2999999523,271331.2999999523,270241.815,270240.39999997616,270258.481,271358.437,,38,punishable
screen,html.Screen,2_3_1_0_1_39,2022-02-03T13:12:44.809Z,,,,,,,,,,,,,,,,,48,,,,,,,,,,,,,,453.56300000002375,,response,,,,10,F,,,,,,Space,keypress(Space),,,,instrumental,,,,-- -- --- ------ ------- --------- ----------- --------<br>--------- -------- --- ------- -- ------- ---- -- ------<br>-- --- -------- -------- ---------- ---- ---- ---- ------<br>-- --------- -- ---- -- --- -- --- ------- -- - -----<br>---------- by -- -- ---- ----- -- ------ -- --- ------<br>-------,271820.39999997616,271812,271341.771,271340.2999999523,271358.437,271825.085,,39,by
screen,html.Screen,2_3_1_0_1_40,2022-02-03T13:12:45.347Z,,,,,,,,,,,,,,,,,48,,,,,,,,,,,,,,523.1150000476628,,response,,,,10,F,,,,,,Space,keypress(Space),,,,instrumental,,,,-- -- --- ------ ------- --------- ----------- --------<br>--------- -------- --- ------- -- ------- ---- -- ------<br>-- --- -------- -------- ---------- ---- ---- ---- ------<br>-- --------- -- ---- -- --- -- --- ------- -- - -----<br>---------- -- up -- ---- ----- -- ------ -- --- ------<br>-------,272357.7999999523,272348.2000000477,271808.419,271820.5,271825.085,272375.063,,40,up
screen,html.Screen,2_3_1_0_1_41,2022-02-03T13:12:46.000Z,,,,,,,,,,,,,,,,,48,,,,,,,,,,,,,,628.0370000238181,,response,,,,10,F,,,,,,Space,keypress(Space),,,,instrumental,,,,-- -- --- ------ ------- --------- ----------- --------<br>--------- -------- --- ------- -- ------- ---- -- ------<br>-- --- -------- -------- ---------- ---- ---- ---- ------<br>-- --------- -- ---- -- --- -- --- ------- -- - -----<br>---------- -- -- to ---- ----- -- ------ -- --- ------<br>-------,273011.2999999523,273003.10000002384,272358.397,272357.7999999523,272375.063,273025.037,,41,to
screen,html.Screen,2_3_1_0_1_42,2022-02-03T13:12:46.424Z,,,,,,,,,,,,,,,,,48,,,,,,,,,,,,,,401.9629999999888,,response,,,,10,F,,,,,,Space,keypress(Space),,,,instrumental,,,,-- -- --- ------ ------- --------- ----------- --------<br>--------- -------- --- ------- -- ------- ---- -- ------<br>-- --- -------- -------- ---------- ---- ---- ---- ------<br>-- --------- -- ---- -- --- -- --- ------- -- - -----<br>---------- -- -- -- five ----- -- ------ -- --- ------<br>-------,273434.7000000477,273427,273008.371,273011.39999997616,273025.037,273441.687,,42,five
