sender,sender_type,sender_id,timestamp,meta,,Blues,Classical,Country,Dance,Electronic,Folk,Gospel,Hip-Hop,Jazz,Latin,Musical/Film,New-age,Pop,Prolific_id,Provo_ID,R&B,Rap,Reggae,Religious,Rock,Soul,Swing,Traditional,age,artist_name,correct,correctResponse,distraction,duration,education,ended_on,familiarity,gender,headphone_check_performance,item,list,music_frequency,offensiveness,pleasantness,position_correct,preference,response,response_action,snippet_file,song_name,song_rating,sound,stimulus_1,stimulus_2,stimulus_3,text,time_commit,time_end,time_render,time_run,time_show,time_switch,url,word,word_ID
Prolific ID,html.Form,0,2022-02-03T15:38:42.098Z,"{""labjs_version"":""20.2.2"",""labjs_build"":{""flavor"":""production"",""commit"":""a25486e0c714a0ae2ce03ff94b7bb6896854dcfa""},""location"":""https://run.pavlovia.org/mvasilev/prolific2_music_b/"",""userAgent"":""Mozilla/5.0 (Macintosh; Intel Mac OS X 10_13_5) AppleWebKit/537.36 (KHTML, like Gecko) Chrome/98.0.4758.80 Safari/537.36"",""platform"":""MacIntel"",""language"":""en-GB"",""locale"":""en-GB"",""timeZone"":""Europe/London"",""timezoneOffset"":0,""screen_width"":1920,""screen_height"":1200,""scroll_width"":1537,""scroll_height"":834,""window_innerWidth"":1537,""window_innerHeight"":882,""devicePixelRatio"":1}",,,,,,,,,,,,,,,60f154e3b41e8202276ccc73,,,,,,,,,,,,,,,7039.880000000001,,form submission,,,,,,,,,,,,,,,,,,,,,25166.599999999627,25165.5,18092.042,18095.5,18125.62,25177.704,{},,
Introduction,html.Screen,1_0,2022-02-03T15:38:53.354Z,,,,,,,,,,,,,,,,,,,,,,,,,,,,,,,11238.495999999253,,response,,,,,,,,,,,continue,click button,,,,,,,,,36423.09999999963,36416.199999999255,25160.915,25167.799999998882,25177.704,36426.816,,,
Volume calibration,html.Screen,1_1,2022-02-03T15:39:15.969Z,,,,,,,,,,,,,,,,,,,,,,,,,,,,,,,22605.383999999256,,response,,,,,,,,,,,continue,click button,,,,,,,,,59038.5,59032.199999999255,36410.027,36423.40000000037,36426.816,59042.219,,,
Task instructions,html.Screen,1_2,2022-02-03T15:39:23.550Z,,,,,,,,,,,,,,,,,,,,,,,,,,,,,,,7574.080999998885,,response,,,,,,,,,,,continue,click button,,,,,,,,,66620,66616.29999999888,59025.43,59038.699999999255,59042.219,66631.358,,,
Sounds,html.Screen,1_3_0_0,2022-02-03T15:39:27.798Z,,,,,,,,,,,,,,,,,,,,,,,,,,,,,,,4247.617000000013,,timeout,,,,,,,,,3,,,,,,,,I,O,S,,70868.69999999925,70862.186,66614.569,66620.5,66631.358,70878.975,,,
Judgement,html.Screen,1_3_0_1,2022-02-03T15:39:29.220Z,,,,,,,,,,,,,,,,,,,,,,,,,,,,true,3,,1409.1249999996217,,response,,,,,,,,,3,,3,click #choice-3,,,,,I,O,S,,72290.19999999925,72288.09999999963,70862.186,70869,70878.975,72306.04,,,
Trial,flow.Sequence,1_3_0,2022-02-03T15:39:29.220Z,,,,,,,,,,,,,,,,,,,,,,,,,,,,,,,5656.741999999635,,completion,,,,,,,,,3,,,,,,,,I,O,S,,72290.59999999963,72288.09999999963,66614.569,66620.29999999888,66631.358,72306.04,,,
Sounds,html.Screen,1_3_1_0,2022-02-03T15:39:33.469Z,,,,,,,,,,,,,,,,,,,,,,,,,,,,,,,4247.617000000013,,timeout,,,,,,,,,2,,,,,,,,O,S,I,,76539.59999999963,76536.868,72289.251,72291,72306.04,76553.657,,,
Judgement,html.Screen,1_3_1_1,2022-02-03T15:39:33.910Z,,,,,,,,,,,,,,,,,,,,,,,,,,,,true,2,,422.6429999988759,,response,,,,,,,,,2,,2,click #choice-2,,,,,O,S,I,,76980.09999999963,76976.29999999888,76536.868,76539.90000000037,76553.657,76990.517,,,
Trial,flow.Sequence,1_3_1,2022-02-03T15:39:33.910Z,,,,,,,,,,,,,,,,,,,,,,,,,,,,,,,4670.259999998889,,completion,,,,,,,,,2,,,,,,,,O,S,I,,76980.40000000037,76976.29999999888,72289.251,72290.79999999888,72306.04,76990.517,,,
Sounds,html.Screen,1_3_2_0,2022-02-03T15:39:38.154Z,,,,,,,,,,,,,,,,,,,,,,,,,,,,,,,4247.616999999998,,timeout,,,,,,,,,3,,,,,,,,O,I,S,,81224.59999999963,81221.345,76973.728,76980.79999999888,76990.517,81238.134,,,
Judgement,html.Screen,1_3_2_1,2022-02-03T15:39:38.589Z,,,,,,,,,,,,,,,,,,,,,,,,,,,,true,3,,418.16599999887694,,response,,,,,,,,,3,,3,click #choice-3,,,,,O,I,S,,81660,81656.29999999888,81221.345,81225,81238.134,81674.648,,,
Trial,flow.Sequence,1_3_2,2022-02-03T15:39:38.590Z,,,,,,,,,,,,,,,,,,,,,,,,,,,,,,,4665.782999998875,,completion,,,,,,,,,3,,,,,,,,O,I,S,,81660.40000000037,81656.29999999888,76973.728,76980.69999999925,76990.517,81674.648,,,
Sounds,html.Screen,1_3_3_0,2022-02-03T15:39:42.837Z,,,,,,,,,,,,,,,,,,,,,,,,,,,,,,,4247.616999999998,,timeout,,,,,,,,,1,,,,,,,,S,O,I,,85907.59999999963,85905.476,81657.859,81660.79999999888,81674.648,85922.265,,,
Judgement,html.Screen,1_3_3_1,2022-02-03T15:39:43.461Z,,,,,,,,,,,,,,,,,,,,,,,,,,,,true,1,,606.034999998883,,response,,,,,,,,,1,,1,click #choice-1,,,,,S,O,I,,86531.5,86528.29999999888,85905.476,85907.79999999888,85922.265,86543.458,,,
Trial,flow.Sequence,1_3_3,2022-02-03T15:39:43.461Z,,,,,,,,,,,,,,,,,,,,,,,,,,,,,,,4853.651999998881,,completion,,,,,,,,,1,,,,,,,,S,O,I,,86531.90000000037,86528.29999999888,81657.859,81660.59999999963,81674.648,86543.458,,,
Sounds,html.Screen,1_3_4_0,2022-02-03T15:39:47.707Z,,,,,,,,,,,,,,,,,,,,,,,,,,,,,,,4247.616999999998,,timeout,,,,,,,,,1,,,,,,,,S,I,O,,90777.69999999925,90774.286,86526.669,86532.09999999963,86543.458,90791.075,,,
Judgement,html.Screen,1_3_4_1,2022-02-03T15:39:48.405Z,,,,,,,,,,,,,,,,,,,,,,,,,,,,true,1,,681.3250000003754,,response,,,,,,,,,1,,1,click #choice-1,,,,,S,I,O,,91476.19999999925,91472.40000000037,90774.286,90778.09999999963,90791.075,91479.424,,,
Trial,flow.Sequence,1_3_4,2022-02-03T15:39:48.406Z,,,,,,,,,,,,,,,,,,,,,,,,,,,,,,,4928.942000000374,,completion,,,,,,,,,1,,,,,,,,S,I,O,,91476.5,91472.40000000037,86526.669,86532.09999999963,86543.458,91479.424,,,
Sounds,html.Screen,1_3_5_0,2022-02-03T15:39:52.642Z,,,,,,,,,,,,,,,,,,,,,,,,,,,,,,,4248.070000000007,,timeout,,,,,,,,,2,,,,,,,,I,S,O,,95713.19999999925,95710.705,91462.635,91476.79999999888,91479.424,95727.494,,,
Judgement,html.Screen,1_3_5_1,2022-02-03T15:39:53.189Z,,,,,,,,,,,,,,,,,,,,,,,,,,,,true,2,,528.8059999988764,,response,,,,,,,,,2,,2,click #choice-2,,,,,I,S,O,,96260.09999999963,96256.29999999888,95710.705,95713.5,95727.494,96264.742,,,
Trial,flow.Sequence,1_3_5,2022-02-03T15:39:53.189Z,,,,,,,,,,,,,,,,,,,,,,,,,,,,,,,4776.875999998883,,completion,,,,,,,,,2,,,,,,,,I,S,O,,96260.5,96256.29999999888,91462.635,91476.59999999963,91479.424,96264.742,,,
Task,flow.Loop,1_3,2022-02-03T15:39:53.198Z,,,,,,,,,,,,,,,,,,,,,,,,,,,,,,,29624.94199999889,,completion,,,1,,,,,,,,,,,,,,,,,,96268.79999999888,96256.29999999888,66614.569,66620.29999999888,66631.358,96264.742,,,
Trap,html.Screen,1_4,2022-02-03T15:39:53.200Z,,,,,,,,,,,,,,,,,,,,,,,,,,,,,,,NaN,,skipped,,,,,,,,,,,,,,,,,,,,,96270.69999999925,96256.29999999888,,96270.40000000037,,96264.742,,,
Thanks,html.Screen,1_5,2022-02-03T15:39:56.125Z,,,,,,,,,,,,,,,,,,,,,,,,,,,,,,,2927.557999998884,,response,,,,,,,,,,,continue,click button,,,,,,,,,99195.59999999963,99192.29999999888,96247.953,96270.90000000037,96264.742,104273.095,,,
Headphone screening,flow.Sequence,1,2022-02-03T15:39:56.125Z,,,,,,,,,,,,,,,,,,,,,,,,,,,,,,,74014.59599999888,,completion,,,,,,,,,,,,,,,,,,,,,99195.90000000037,99192.29999999888,25160.915,25167.5,25177.704,104273.095,,,
Instructions,html.Page,2_0,2022-02-03T15:40:32.367Z,,,,,,,,,,,,,,,,,,,,,,,,,,,,,,,31165.004999999626,,form submission,,,,,,,,,,,,,,,,,,,,,135438.69999999925,135438.09999999963,104256.306,104276.29999999888,104273.095,135450.715,,,
Holding screen,html.Screen,2_1_0_0,2022-02-03T15:40:42.372Z,,,,,,,,,,,,,,,,,,,,,,,,,,,,,,,10007.146000000008,,timeout,,,,,,,,,,,,,,,,,,,,,145444,145441.072,135433.926,135439,135450.715,145457.861,,,
screen,html.Screen,2_1_0_1_0,2022-02-03T15:40:44.525Z,,,,,,,,,,,,,,,,,53,,,,,,,,,,,,,,2132.539000000368,,response,,,,99,,,,,,,Space,keypress(Space),,,,,,,,When -- ----- -- ------ - ------- --- ----------<br>------------- ------ ------ ---- ---- ------- ----- -- ----<br>-------- ------- -- ---------- --- - --- ----- ----- ----<br>---- --- --- ----- --- ---- ---- ------- ----- ---- -------<br>--- --- -- ----- -- --- ---- -- --- ---- -- ------ ------<br>--- ----- -- ----,147597,147590.40000000037,145441.072,145444.40000000037,145457.861,147606.853,,0,When
screen,html.Screen,2_1_0_1_1,2022-02-03T15:40:45.226Z,,,,,,,,,,,,,,,,,53,,,,,,,,,,,,,,687.3469999992521,,response,,,,99,,,,,,,Space,keypress(Space),,,,,,,,---- it ----- -- ------ - ------- --- ----------<br>------------- ------ ------ ---- ---- ------- ----- -- ----<br>-------- ------- -- ---------- --- - --- ----- ----- ----<br>---- --- --- ----- --- ---- ---- ------- ----- ---- -------<br>--- --- -- ----- -- --- ---- -- --- ---- -- ------ ------<br>--- ----- -- ----,148298,148294.19999999925,147590.064,147597.19999999925,147606.853,148312.416,,1,it
screen,html.Screen,2_1_0_1_2,2022-02-03T15:40:45.626Z,,,,,,,,,,,,,,,,,53,,,,,,,,,,,,,,381.9840000003751,,response,,,,99,,,,,,,Space,keypress(Space),,,,,,,,---- -- comes -- ------ - ------- --- ----------<br>------------- ------ ------ ---- ---- ------- ----- -- ----<br>-------- ------- -- ---------- --- - --- ----- ----- ----<br>---- --- --- ----- --- ---- ---- ------- ----- ---- -------<br>--- --- -- ----- -- --- ---- -- --- ---- -- ------ ------<br>--- ----- -- ----,148697.90000000037,148694.40000000037,148295.627,148298.19999999925,148312.416,148715.352,,2,comes
screen,html.Screen,2_1_0_1_3,2022-02-03T15:40:46.017Z,,,,,,,,,,,,,,,,,53,,,,,,,,,,,,,,370.9479999988689,,response,,,,99,,,,,,,Space,keypress(Space),,,,,,,,---- -- ----- to ------ - ------- --- ----------<br>------------- ------ ------ ---- ---- ------- ----- -- ----<br>-------- ------- -- ---------- --- - --- ----- ----- ----<br>---- --- --- ----- --- ---- ---- ------- ----- ---- -------<br>--- --- -- ----- -- --- ---- -- --- ---- -- ------ ------<br>--- ----- -- ----,149089.19999999925,149086.29999999888,148698.563,148698.19999999925,148715.352,149101.499,,3,to
screen,html.Screen,2_1_0_1_4,2022-02-03T15:40:46.482Z,,,,,,,,,,,,,,,,,53,,,,,,,,,,,,,,448.9010000003618,,response,,,,99,,,,,,,Space,keypress(Space),,,,,,,,---- -- ----- -- having - ------- --- ----------<br>------------- ------ ------ ---- ---- ------- ----- -- ----<br>-------- ------- -- ---------- --- - --- ----- ----- ----<br>---- --- --- ----- --- ---- ---- ------- ----- ---- -------<br>--- --- -- ----- -- --- ---- -- --- ---- -- ------ ------<br>--- ----- -- ----,149554.19999999925,149550.40000000037,149084.71,149089.40000000037,149101.499,149571.591,,4,having
screen,html.Screen,2_1_0_1_5,2022-02-03T15:40:47.011Z,,,,,,,,,,,,,,,,,53,,,,,,,,,,,,,,506.60899999926914,,response,,,,99,,,,,,,Space,keypress(Space),,,,,,,,---- -- ----- -- ------ a ------- --- ----------<br>------------- ------ ------ ---- ---- ------- ----- -- ----<br>-------- ------- -- ---------- --- - --- ----- ----- ----<br>---- --- --- ----- --- ---- ---- ------- ----- ---- -------<br>--- --- -- ----- -- --- ---- -- --- ---- -- ------ ------<br>--- ----- -- ----,150083.59999999963,150078.19999999925,149554.802,149554.40000000037,149571.591,150092.05,,5,a
screen,html.Screen,2_1_0_1_6,2022-02-03T15:40:47.441Z,,,,,,,,,,,,,,,,,53,,,,,,,,,,,,,,418.24999999889405,,response,,,,99,,,,,,,Space,keypress(Space),,,,,,,,---- -- ----- -- ------ - lasting --- ----------<br>------------- ------ ------ ---- ---- ------- ----- -- ----<br>-------- ------- -- ---------- --- - --- ----- ----- ----<br>---- --- --- ----- --- ---- ---- ------- ----- ---- -------<br>--- --- -- ----- -- --- ---- -- --- ---- -- ------ ------<br>--- ----- -- ----,150513.79999999888,150510.29999999888,150075.261,150083.69999999925,150092.05,150528.564,,6,lasting
screen,html.Screen,2_1_0_1_7,2022-02-03T15:40:47.993Z,,,,,,,,,,,,,,,,,53,,,,,,,,,,,,,,533.7359999988694,,response,,,,99,,,,,,,Space,keypress(Space),,,,,,,,---- -- ----- -- ------ - ------- and ----------<br>------------- ------ ------ ---- ---- ------- ----- -- ----<br>-------- ------- -- ---------- --- - --- ----- ----- ----<br>---- --- --- ----- --- ---- ---- ------- ----- ---- -------<br>--- --- -- ----- -- --- ---- -- --- ---- -- ------ ------<br>--- ----- -- ----,151065.59999999963,151062.29999999888,150511.775,150513.90000000037,150528.564,151082.601,,7,and
screen,html.Screen,2_1_0_1_8,2022-02-03T15:40:48.425Z,,,,,,,,,,,,,,,,,53,,,,,,,,,,,,,,411.7990000003774,,response,,,,99,,,,,,,Space,keypress(Space),,,,,,,,---- -- ----- -- ------ - ------- --- fulfilling<br>------------- ------ ------ ---- ---- ------- ----- -- ----<br>-------- ------- -- ---------- --- - --- ----- ----- ----<br>---- --- --- ----- --- ---- ---- ------- ----- ---- -------<br>--- --- -- ----- -- --- ---- -- --- ---- -- ------ ------<br>--- ----- -- ----,151497.79999999888,151494.40000000037,151065.812,151065.79999999888,151082.601,151502.326,,8,fulfilling
screen,html.Screen,2_1_0_1_9,2022-02-03T15:40:48.865Z,,,,,,,,,,,,,,,,,53,,,,,,,,,,,,,,431.9739999988815,,response,,,,99,,,,,,,Space,keypress(Space),,,,,,,,"---- -- ----- -- ------ - ------- --- ----------<br>relationship, ------ ------ ---- ---- ------- ----- -- ----<br>-------- ------- -- ---------- --- - --- ----- ----- ----<br>---- --- --- ----- --- ---- ---- ------- ----- ---- -------<br>--- --- -- ----- -- --- ---- -- --- ---- -- ------ ------<br>--- ----- -- ----",151937.69999999925,151934.29999999888,151485.537,151498,151502.326,151955.629,,9,"relationship,"
screen,html.Screen,2_1_0_1_10,2022-02-03T15:40:49.282Z,,,,,,,,,,,,,,,,,53,,,,,,,,,,,,,,394.77100000038627,,response,,,,99,,,,,,,Space,keypress(Space),,,,,,,,---- -- ----- -- ------ - ------- --- ----------<br>------------- common ------ ---- ---- ------- ----- -- ----<br>-------- ------- -- ---------- --- - --- ----- ----- ----<br>---- --- --- ----- --- ---- ---- ------- ----- ---- -------<br>--- --- -- ----- -- --- ---- -- --- ---- -- ------ ------<br>--- ----- -- ----,152354.29999999888,152350.40000000037,151938.84,151938,151955.629,152358.565,,10,common
screen,html.Screen,2_1_0_1_11,2022-02-03T15:40:49.673Z,,,,,,,,,,,,,,,,,53,,,,,,,,,,,,,,383.8350000003702,,response,,,,99,,,,,,,Space,keypress(Space),,,,,,,,---- -- ----- -- ------ - ------- --- ----------<br>------------- ------ wisdom ---- ---- ------- ----- -- ----<br>-------- ------- -- ---------- --- - --- ----- ----- ----<br>---- --- --- ----- --- ---- ---- ------- ----- ---- -------<br>--- --- -- ----- -- --- ---- -- --- ---- -- ------ ------<br>--- ----- -- ----,152745.90000000037,152742.40000000037,152341.776,152354.5,152358.565,152761.501,,11,wisdom
screen,html.Screen,2_1_0_1_12,2022-02-03T15:40:50.057Z,,,,,,,,,,,,,,,,,53,,,,,,,,,,,,,,364.89900000038324,,response,,,,99,,,,,,,Space,keypress(Space),,,,,,,,---- -- ----- -- ------ - ------- --- ----------<br>------------- ------ ------ says ---- ------- ----- -- ----<br>-------- ------- -- ---------- --- - --- ----- ----- ----<br>---- --- --- ----- --- ---- ---- ------- ----- ---- -------<br>--- --- -- ----- -- --- ---- -- --- ---- -- ------ ------<br>--- ----- -- ----,153130,153126.40000000037,152744.712,152746,152761.501,153147.648,,12,says
screen,html.Screen,2_1_0_1_13,2022-02-03T15:40:50.465Z,,,,,,,,,,,,,,,,,53,,,,,,,,,,,,,,386.75200000038603,,response,,,,99,,,,,,,Space,keypress(Space),,,,,,,,---- -- ----- -- ------ - ------- --- ----------<br>------------- ------ ------ ---- that ------- ----- -- ----<br>-------- ------- -- ---------- --- - --- ----- ----- ----<br>---- --- --- ----- --- ---- ---- ------- ----- ---- -------<br>--- --- -- ----- -- --- ---- -- --- ---- -- ------ ------<br>--- ----- -- ----,153537.79999999888,153534.40000000037,153130.859,153130.19999999925,153147.648,153550.584,,13,that
screen,html.Screen,2_1_0_1_14,2022-02-03T15:40:50.890Z,,,,,,,,,,,,,,,,,53,,,,,,,,,,,,,,407.81600000036997,,response,,,,99,,,,,,,Space,keypress(Space),,,,,,,,---- -- ----- -- ------ - ------- --- ----------<br>------------- ------ ------ ---- ---- feeling ----- -- ----<br>-------- ------- -- ---------- --- - --- ----- ----- ----<br>---- --- --- ----- --- ---- ---- ------- ----- ---- -------<br>--- --- -- ----- -- --- ---- -- --- ---- -- ------ ------<br>--- ----- -- ----,153962.19999999925,153958.40000000037,153533.795,153538.09999999963,153550.584,153970.309,,14,feeling
screen,html.Screen,2_1_0_1_15,2022-02-03T15:40:51.345Z,,,,,,,,,,,,,,,,,53,,,,,,,,,,,,,,444.09100000036415,,response,,,,99,,,,,,,Space,keypress(Space),,,,,,,,---- -- ----- -- ------ - ------- --- ----------<br>------------- ------ ------ ---- ---- ------- close -- ----<br>-------- ------- -- ---------- --- - --- ----- ----- ----<br>---- --- --- ----- --- ---- ---- ------- ----- ---- -------<br>--- --- -- ----- -- --- ---- -- --- ---- -- ------ ------<br>--- ----- -- ----,154417.79999999888,154414.40000000037,153953.52,153962.5,153970.309,154423.612,,15,close
screen,html.Screen,2_1_0_1_16,2022-02-03T15:40:51.745Z,,,,,,,,,,,,,,,,,53,,,,,,,,,,,,,,390.7880000003788,,response,,,,99,,,,,,,Space,keypress(Space),,,,,,,,---- -- ----- -- ------ - ------- --- ----------<br>------------- ------ ------ ---- ---- ------- ----- to ----<br>-------- ------- -- ---------- --- - --- ----- ----- ----<br>---- --- --- ----- --- ---- ---- ------- ----- ---- -------<br>--- --- -- ----- -- --- ---- -- --- ---- -- ------ ------<br>--- ----- -- ----,154817.90000000037,154814.40000000037,154406.823,154418.09999999963,154423.612,154826.548,,16,to
screen,html.Screen,2_1_0_1_17,2022-02-03T15:40:52.177Z,,,,,,,,,,,,,,,,,53,,,,,,,,,,,,,,419.85200000036275,,response,,,,99,,,,,,,Space,keypress(Space),,,,,,,,---- -- ----- -- ------ - ------- --- ----------<br>------------- ------ ------ ---- ---- ------- ----- -- your<br>-------- ------- -- ---------- --- - --- ----- ----- ----<br>---- --- --- ----- --- ---- ---- ------- ----- ---- -------<br>--- --- -- ----- -- --- ---- -- --- ---- -- ------ ------<br>--- ----- -- ----,155249.90000000037,155246.40000000037,154809.759,154818.09999999963,154826.548,155263.062,,17,your
screen,html.Screen,2_1_0_1_18,2022-02-03T15:40:52.665Z,,,,,,,,,,,,,,,,,53,,,,,,,,,,,,,,471.3380000003672,,response,,,,99,,,,,,,Space,keypress(Space),,,,,,,,---- -- ----- -- ------ - ------- --- ----------<br>------------- ------ ------ ---- ---- ------- ----- -- ----<br>romantic ------- -- ---------- --- - --- ----- ----- ----<br>---- --- --- ----- --- ---- ---- ------- ----- ---- -------<br>--- --- -- ----- -- --- ---- -- --- ---- -- ------ ------<br>--- ----- -- ----,155737.79999999888,155734.40000000037,155246.273,155250.19999999925,155263.062,155749.943,,18,romantic
screen,html.Screen,2_1_0_1_19,2022-02-03T15:40:53.073Z,,,,,,,,,,,,,,,,,53,,,,,,,,,,,,,,392.25699999925564,,response,,,,99,,,,,,,Space,keypress(Space),,,,,,,,---- -- ----- -- ------ - ------- --- ----------<br>------------- ------ ------ ---- ---- ------- ----- -- ----<br>-------- partner -- ---------- --- - --- ----- ----- ----<br>---- --- --- ----- --- ---- ---- ------- ----- ---- -------<br>--- --- -- ----- -- --- ---- -- --- ---- -- ------ ------<br>--- ----- -- ----,156145.90000000037,156142.19999999925,155733.154,155738,155749.943,156152.879,,19,partner
screen,html.Screen,2_1_0_1_20,2022-02-03T15:40:53.417Z,,,,,,,,,,,,,,,,,53,,,,,,,,,,,,,,333.52100000038627,,response,,,,99,,,,,,,Space,keypress(Space),,,,,,,,---- -- ----- -- ------ - ------- --- ----------<br>------------- ------ ------ ---- ---- ------- ----- -- ----<br>-------- ------- is ---------- --- - --- ----- ----- ----<br>---- --- --- ----- --- ---- ---- ------- ----- ---- -------<br>--- --- -- ----- -- --- ---- -- --- ---- -- ------ ------<br>--- ----- -- ----,156489.79999999888,156486.40000000037,156136.09,156146.09999999963,156152.879,156505.766,,20,is
screen,html.Screen,2_1_0_1_21,2022-02-03T15:40:53.753Z,,,,,,,,,,,,,,,,,53,,,,,,,,,,,,,,316.53399999887915,,response,,,,99,,,,,,,Space,keypress(Space),,,,,,,,---- -- ----- -- ------ - ------- --- ----------<br>------------- ------ ------ ---- ---- ------- ----- -- ----<br>-------- ------- -- paramount. --- - --- ----- ----- ----<br>---- --- --- ----- --- ---- ---- ------- ----- ---- -------<br>--- --- -- ----- -- --- ---- -- --- ---- -- ------ ------<br>--- ----- -- ----,156825.59999999963,156822.29999999888,156488.977,156490,156505.766,156841.546,,21,paramount.
screen,html.Screen,2_1_0_1_22,2022-02-03T15:40:54.113Z,,,,,,,,,,,,,,,,,53,,,,,,,,,,,,,,340.85400000037043,,response,,,,99,,,,,,,Space,keypress(Space),,,,,,,,---- -- ----- -- ------ - ------- --- ----------<br>------------- ------ ------ ---- ---- ------- ----- -- ----<br>-------- ------- -- ---------- But - --- ----- ----- ----<br>---- --- --- ----- --- ---- ---- ------- ----- ---- -------<br>--- --- -- ----- -- --- ---- -- --- ---- -- ------ ------<br>--- ----- -- ----,157185.69999999925,157182.40000000037,156824.757,156825.79999999888,156841.546,157194.115,,22,But
screen,html.Screen,2_1_0_1_23,2022-02-03T15:40:54.441Z,,,,,,,,,,,,,,,,,53,,,,,,,,,,,,,,316.28500000038184,,response,,,,99,,,,,,,Space,keypress(Space),,,,,,,,---- -- ----- -- ------ - ------- --- ----------<br>------------- ------ ------ ---- ---- ------- ----- -- ----<br>-------- ------- -- ---------- --- a --- ----- ----- ----<br>---- --- --- ----- --- ---- ---- ------- ----- ---- -------<br>--- --- -- ----- -- --- ---- -- --- ---- -- ------ ------<br>--- ----- -- ----,157513.90000000037,157510.40000000037,157177.326,157185.90000000037,157194.115,157529.895,,23,a
screen,html.Screen,2_1_0_1_24,2022-02-03T15:40:54.770Z,,,,,,,,,,,,,,,,,53,,,,,,,,,,,,,,308.4049999988929,,response,,,,99,,,,,,,Space,keypress(Space),,,,,,,,---- -- ----- -- ------ - ------- --- ----------<br>------------- ------ ------ ---- ---- ------- ----- -- ----<br>-------- ------- -- ---------- --- - new ----- ----- ----<br>---- --- --- ----- --- ---- ---- ------- ----- ---- -------<br>--- --- -- ----- -- --- ---- -- --- ---- -- ------ ------<br>--- ----- -- ----,157842.19999999925,157838.29999999888,157513.106,157514.29999999888,157529.895,157848.886,,24,new
screen,html.Screen,2_1_0_1_25,2022-02-03T15:40:55.081Z,,,,,,,,,,,,,,,,,53,,,,,,,,,,,,,,301.6140000000014,,response,,,,99,,,,,,,Space,keypress(Space),,,,,,,,---- -- ----- -- ------ - ------- --- ----------<br>------------- ------ ------ ---- ---- ------- ----- -- ----<br>-------- ------- -- ---------- --- - --- study ----- ----<br>---- --- --- ----- --- ---- ---- ------- ----- ---- -------<br>--- --- -- ----- -- --- ---- -- --- ---- -- ------ ------<br>--- ----- -- ----,158153.90000000037,158150.5,157832.097,157842.40000000037,157848.886,158167.877,,25,study
screen,html.Screen,2_1_0_1_26,2022-02-03T15:40:55.401Z,,,,,,,,,,,,,,,,,53,,,,,,,,,,,,,,302.42299999887473,,response,,,,99,,,,,,,Space,keypress(Space),,,,,,,,---- -- ----- -- ------ - ------- --- ----------<br>------------- ------ ------ ---- ---- ------- ----- -- ----<br>-------- ------- -- ---------- --- - --- ----- finds ----<br>---- --- --- ----- --- ---- ---- ------- ----- ---- -------<br>--- --- -- ----- -- --- ---- -- --- ---- -- ------ ------<br>--- ----- -- ----,158473.69999999925,158470.29999999888,158151.088,158154.09999999963,158167.877,158486.868,,26,finds
screen,html.Screen,2_1_0_1_27,2022-02-03T15:40:55.737Z,,,,,,,,,,,,,,,,,53,,,,,,,,,,,,,,319.43199999889475,,response,,,,99,,,,,,,Space,keypress(Space),,,,,,,,---- -- ----- -- ------ - ------- --- ----------<br>------------- ------ ------ ---- ---- ------- ----- -- ----<br>-------- ------- -- ---------- --- - --- ----- ----- that<br>---- --- --- ----- --- ---- ---- ------- ----- ---- -------<br>--- --- -- ----- -- --- ---- -- --- ---- -- ------ ------<br>--- ----- -- ----,158809.5,158806.29999999888,158470.079,158474,158486.868,158822.648,,27,that
screen,html.Screen,2_1_0_1_28,2022-02-03T15:40:56.073Z,,,,,,,,,,,,,,,,,53,,,,,,,,,,,,,,319.75200000038603,,response,,,,99,,,,,,,Space,keypress(Space),,,,,,,,---- -- ----- -- ------ - ------- --- ----------<br>------------- ------ ------ ---- ---- ------- ----- -- ----<br>-------- ------- -- ---------- --- - --- ----- ----- ----<br>it's --- --- ----- --- ---- ---- ------- ----- ---- -------<br>--- --- -- ----- -- --- ---- -- --- ---- -- ------ ------<br>--- ----- -- ----,159145.79999999888,159142.40000000037,158805.859,158809.69999999925,158822.648,159158.428,,28,it's
screen,html.Screen,2_1_0_1_29,2022-02-03T15:40:56.394Z,,,,,,,,,,,,,,,,,53,,,,,,,,,,,,,,303.9720000003581,,response,,,,99,,,,,,,Space,keypress(Space),,,,,,,,---- -- ----- -- ------ - ------- --- ----------<br>------------- ------ ------ ---- ---- ------- ----- -- ----<br>-------- ------- -- ---------- --- - --- ----- ----- ----<br>---- not --- ----- --- ---- ---- ------- ----- ---- -------<br>--- --- -- ----- -- --- ---- -- --- ---- -- ------ ------<br>--- ----- -- ----,159466.19999999925,159462.40000000037,159141.639,159146,159158.428,159477.419,,29,not
screen,html.Screen,2_1_0_1_30,2022-02-03T15:40:56.713Z,,,,,,,,,,,,,,,,,53,,,,,,,,,,,,,,304.880999998888,,response,,,,99,,,,,,,Space,keypress(Space),,,,,,,,---- -- ----- -- ------ - ------- --- ----------<br>------------- ------ ------ ---- ---- ------- ----- -- ----<br>-------- ------- -- ---------- --- - --- ----- ----- ----<br>---- --- how ----- --- ---- ---- ------- ----- ---- -------<br>--- --- -- ----- -- --- ---- -- --- ---- -- ------ ------<br>--- ----- -- ----,159785.59999999963,159782.29999999888,159460.63,159466.5,159477.419,159796.41,,30,how
screen,html.Screen,2_1_0_1_31,2022-02-03T15:40:57.033Z,,,,,,,,,,,,,,,,,53,,,,,,,,,,,,,,305.8899999988789,,response,,,,99,,,,,,,Space,keypress(Space),,,,,,,,---- -- ----- -- ------ - ------- --- ----------<br>------------- ------ ------ ---- ---- ------- ----- -- ----<br>-------- ------- -- ---------- --- - --- ----- ----- ----<br>---- --- --- close --- ---- ---- ------- ----- ---- -------<br>--- --- -- ----- -- --- ---- -- --- ---- -- ------ ------<br>--- ----- -- ----,160105.69999999925,160102.29999999888,159779.621,159785.79999999888,159796.41,160115.401,,31,close
screen,html.Screen,2_1_0_1_32,2022-02-03T15:40:57.385Z,,,,,,,,,,,,,,,,,53,,,,,,,,,,,,,,338.99900000035996,,response,,,,99,,,,,,,Space,keypress(Space),,,,,,,,---- -- ----- -- ------ - ------- --- ----------<br>------------- ------ ------ ---- ---- ------- ----- -- ----<br>-------- ------- -- ---------- --- - --- ----- ----- ----<br>---- --- --- ----- you ---- ---- ------- ----- ---- -------<br>--- --- -- ----- -- --- ---- -- --- ---- -- ------ ------<br>--- ----- -- ----,160457.90000000037,160454.40000000037,160098.612,160105.90000000037,160115.401,160467.97,,32,you
screen,html.Screen,2_1_0_1_33,2022-02-03T15:40:57.760Z,,,,,,,,,,,,,,,,,53,,,,,,,,,,,,,,362.43000000037136,,response,,,,99,,,,,,,Space,keypress(Space),,,,,,,,---- -- ----- -- ------ - ------- --- ----------<br>------------- ------ ------ ---- ---- ------- ----- -- ----<br>-------- ------- -- ---------- --- - --- ----- ----- ----<br>---- --- --- ----- --- feel ---- ------- ----- ---- -------<br>--- --- -- ----- -- --- ---- -- --- ---- -- ------ ------<br>--- ----- -- ----,160833.19999999925,160830.40000000037,160451.181,160458.09999999963,160467.97,160837.328,,33,feel
screen,html.Screen,2_1_0_1_34,2022-02-03T15:40:58.185Z,,,,,,,,,,,,,,,,,53,,,,,,,,,,,,,,417.0720000003639,,response,,,,99,,,,,,,Space,keypress(Space),,,,,,,,---- -- ----- -- ------ - ------- --- ----------<br>------------- ------ ------ ---- ---- ------- ----- -- ----<br>-------- ------- -- ---------- --- - --- ----- ----- ----<br>---- --- --- ----- --- ---- that ------- ----- ---- -------<br>--- --- -- ----- -- --- ---- -- --- ---- -- ------ ------<br>--- ----- -- ----,161258,161254.40000000037,160820.539,160833.29999999888,160837.328,161273.842,,34,that
screen,html.Screen,2_1_0_1_35,2022-02-03T15:40:58.593Z,,,,,,,,,,,,,,,,,53,,,,,,,,,,,,,,388.55800000036834,,response,,,,99,,,,,,,Space,keypress(Space),,,,,,,,---- -- ----- -- ------ - ------- --- ----------<br>------------- ------ ------ ---- ---- ------- ----- -- ----<br>-------- ------- -- ---------- --- - --- ----- ----- ----<br>---- --- --- ----- --- ---- ---- matters ----- ---- -------<br>--- --- -- ----- -- --- ---- -- --- ---- -- ------ ------<br>--- ----- -- ----,161665.90000000037,161662.40000000037,161257.053,161258.29999999888,161273.842,161676.778,,35,matters
screen,html.Screen,2_1_0_1_36,2022-02-03T15:40:58.929Z,,,,,,,,,,,,,,,,,53,,,,,,,,,,,,,,321.72200000000885,,response,,,,99,,,,,,,Space,keypress(Space),,,,,,,,"---- -- ----- -- ------ - ------- --- ----------<br>------------- ------ ------ ---- ---- ------- ----- -- ----<br>-------- ------- -- ---------- --- - --- ----- ----- ----<br>---- --- --- ----- --- ---- ---- ------- most, ---- -------<br>--- --- -- ----- -- --- ---- -- --- ---- -- ------ ------<br>--- ----- -- ----",162002,161998.5,161659.989,161666.19999999925,161676.778,162012.558,,36,"most,"
screen,html.Screen,2_1_0_1_37,2022-02-03T15:40:59.305Z,,,,,,,,,,,,,,,,,53,,,,,,,,,,,,,,361.84200000038254,,response,,,,99,,,,,,,Space,keypress(Space),,,,,,,,---- -- ----- -- ------ - ------- --- ----------<br>------------- ------ ------ ---- ---- ------- ----- -- ----<br>-------- ------- -- ---------- --- - --- ----- ----- ----<br>---- --- --- ----- --- ---- ---- ------- ----- it's -------<br>--- --- -- ----- -- --- ---- -- --- ---- -- ------ ------<br>--- ----- -- ----,162378.09999999963,162374.40000000037,161995.769,162002.29999999888,162012.558,162381.916,,37,it's
screen,html.Screen,2_1_0_1_38,2022-02-03T15:40:59.647Z,,,,,,,,,,,,,,,,,53,,,,,,,,,,,,,,336.383999998885,,response,,,,99,,,,,,,Space,keypress(Space),,,,,,,,---- -- ----- -- ------ - ------- --- ----------<br>------------- ------ ------ ---- ---- ------- ----- -- ----<br>-------- ------- -- ---------- --- - --- ----- ----- ----<br>---- --- --- ----- --- ---- ---- ------- ----- ---- whether<br>--- --- -- ----- -- --- ---- -- --- ---- -- ------ ------<br>--- ----- -- ----,162720.09999999963,162718.29999999888,162365.127,162378.29999999888,162381.916,162734.485,,38,whether
screen,html.Screen,2_1_0_1_39,2022-02-03T15:40:59.993Z,,,,,,,,,,,,,,,,,53,,,,,,,,,,,,,,327.7149999992689,,response,,,,99,,,,,,,Space,keypress(Space),,,,,,,,---- -- ----- -- ------ - ------- --- ----------<br>------------- ------ ------ ---- ---- ------- ----- -- ----<br>-------- ------- -- ---------- --- - --- ----- ----- ----<br>---- --- --- ----- --- ---- ---- ------- ----- ---- -------<br>you --- -- ----- -- --- ---- -- --- ---- -- ------ ------<br>--- ----- -- ----,163065.5,163062.19999999925,162717.696,162720.19999999925,162734.485,163070.265,,39,you
screen,html.Screen,2_1_0_1_40,2022-02-03T15:41:00.305Z,,,,,,,,,,,,,,,,,53,,,,,,,,,,,,,,304.03499999886844,,response,,,,99,,,,,,,Space,keypress(Space),,,,,,,,---- -- ----- -- ------ - ------- --- ----------<br>------------- ------ ------ ---- ---- ------- ----- -- ----<br>-------- ------- -- ---------- --- - --- ----- ----- ----<br>---- --- --- ----- --- ---- ---- ------- ----- ---- -------<br>--- are -- ----- -- --- ---- -- --- ---- -- ------ ------<br>--- ----- -- ----,163378,163374.29999999888,163053.476,163066.69999999925,163070.265,163389.256,,40,are
screen,html.Screen,2_1_0_1_41,2022-02-03T15:41:00.601Z,,,,,,,,,,,,,,,,,53,,,,,,,,,,,,,,281.1440000003786,,response,,,,99,,,,,,,Space,keypress(Space),,,,,,,,---- -- ----- -- ------ - ------- --- ----------<br>------------- ------ ------ ---- ---- ------- ----- -- ----<br>-------- ------- -- ---------- --- - --- ----- ----- ----<br>---- --- --- ----- --- ---- ---- ------- ----- ---- -------<br>--- --- as ----- -- --- ---- -- --- ---- -- ------ ------<br>--- ----- -- ----,163673.79999999888,163670.40000000037,163372.467,163378.19999999925,163389.256,163691.458,,41,as
screen,html.Screen,2_1_0_1_42,2022-02-03T15:41:00.873Z,,,,,,,,,,,,,,,,,53,,,,,,,,,,,,,,250.94200000035926,,response,,,,99,,,,,,,Space,keypress(Space),,,,,,,,---- -- ----- -- ------ - ------- --- ----------<br>------------- ------ ------ ---- ---- ------- ----- -- ----<br>-------- ------- -- ---------- --- - --- ----- ----- ----<br>---- --- --- ----- --- ---- ---- ------- ----- ---- -------<br>--- --- -- close -- --- ---- -- --- ---- -- ------ ------<br>--- ----- -- ----,163945.69999999925,163942.40000000037,163674.669,163674,163691.458,163960.082,,42,close
screen,html.Screen,2_1_0_1_43,2022-02-03T15:41:01.161Z,,,,,,,,,,,,,,,,,53,,,,,,,,,,,,,,270.31800000037765,,response,,,,99,,,,,,,Space,keypress(Space),,,,,,,,---- -- ----- -- ------ - ------- --- ----------<br>------------- ------ ------ ---- ---- ------- ----- -- ----<br>-------- ------- -- ---------- --- - --- ----- ----- ----<br>---- --- --- ----- --- ---- ---- ------- ----- ---- -------<br>--- --- -- ----- as --- ---- -- --- ---- -- ------ ------<br>--- ----- -- ----,164233.69999999925,164230.40000000037,163943.293,163945.79999999888,163960.082,164245.495,,43,as
screen,html.Screen,2_1_0_1_44,2022-02-03T15:41:01.464Z,,,,,,,,,,,,,,,,,53,,,,,,,,,,,,,,288.80499999888707,,response,,,,99,,,,,,,Space,keypress(Space),,,,,,,,---- -- ----- -- ------ - ------- --- ----------<br>------------- ------ ------ ---- ---- ------- ----- -- ----<br>-------- ------- -- ---------- --- - --- ----- ----- ----<br>---- --- --- ----- --- ---- ---- ------- ----- ---- -------<br>--- --- -- ----- -- you ---- -- --- ---- -- ------ ------<br>--- ----- -- ----,164537,164534.29999999888,164228.706,164233.90000000037,164245.495,164547.697,,44,you
screen,html.Screen,2_1_0_1_45,2022-02-03T15:41:01.752Z,,,,,,,,,,,,,,,,,53,,,,,,,,,,,,,,274.70300000038696,,response,,,,99,,,,,,,Space,keypress(Space),,,,,,,,---- -- ----- -- ------ - ------- --- ----------<br>------------- ------ ------ ---- ---- ------- ----- -- ----<br>-------- ------- -- ---------- --- - --- ----- ----- ----<br>---- --- --- ----- --- ---- ---- ------- ----- ---- -------<br>--- --- -- ----- -- --- want -- --- ---- -- ------ ------<br>--- ----- -- ----,164824.69999999925,164822.40000000037,164530.908,164537.19999999925,164547.697,164833.11,,45,want
screen,html.Screen,2_1_0_1_46,2022-02-03T15:41:02.049Z,,,,,,,,,,,,,,,,,53,,,,,,,,,,,,,,285.0899999992689,,response,,,,99,,,,,,,Space,keypress(Space),,,,,,,,---- -- ----- -- ------ - ------- --- ----------<br>------------- ------ ------ ---- ---- ------- ----- -- ----<br>-------- ------- -- ---------- --- - --- ----- ----- ----<br>---- --- --- ----- --- ---- ---- ------- ----- ---- -------<br>--- --- -- ----- -- --- ---- to --- ---- -- ------ ------<br>--- ----- -- ----,165121.90000000037,165118.19999999925,164816.321,164824.90000000037,164833.11,165135.312,,46,to
screen,html.Screen,2_1_0_1_47,2022-02-03T15:41:02.321Z,,,,,,,,,,,,,,,,,53,,,,,,,,,,,,,,254.98799999887706,,response,,,,99,,,,,,,Space,keypress(Space),,,,,,,,"---- -- ----- -- ------ - ------- --- ----------<br>------------- ------ ------ ---- ---- ------- ----- -- ----<br>-------- ------- -- ---------- --- - --- ----- ----- ----<br>---- --- --- ----- --- ---- ---- ------- ----- ---- -------<br>--- --- -- ----- -- --- ---- -- be, ---- -- ------ ------<br>--- ----- -- ----",165393.69999999925,165390.29999999888,165118.523,165122.29999999888,165135.312,165403.936,,47,"be,"
screen,html.Screen,2_1_0_1_48,2022-02-03T15:41:02.641Z,,,,,,,,,,,,,,,,,53,,,,,,,,,,,,,,306.46400000038557,,response,,,,99,,,,,,,Space,keypress(Space),,,,,,,,---- -- ----- -- ------ - ------- --- ----------<br>------------- ------ ------ ---- ---- ------- ----- -- ----<br>-------- ------- -- ---------- --- - --- ----- ----- ----<br>---- --- --- ----- --- ---- ---- ------- ----- ---- -------<br>--- --- -- ----- -- --- ---- -- --- even -- ------ ------<br>--- ----- -- ----,165713.59999999963,165710.40000000037,165387.147,165393.79999999888,165403.936,165722.927,,48,even
screen,html.Screen,2_1_0_1_49,2022-02-03T15:41:02.937Z,,,,,,,,,,,,,,,,,53,,,,,,,,,,,,,,283.37299999888637,,response,,,,99,,,,,,,Space,keypress(Space),,,,,,,,---- -- ----- -- ------ - ------- --- ----------<br>------------- ------ ------ ---- ---- ------- ----- -- ----<br>-------- ------- -- ---------- --- - --- ----- ----- ----<br>---- --- --- ----- --- ---- ---- ------- ----- ---- -------<br>--- --- -- ----- -- --- ---- -- --- ---- if ------ ------<br>--- ----- -- ----,166009.79999999888,166006.29999999888,165706.138,165713.79999999888,165722.927,166025.129,,49,if
screen,html.Screen,2_1_0_1_50,2022-02-03T15:41:03.249Z,,,,,,,,,,,,,,,,,53,,,,,,,,,,,,,,293.27100000038627,,response,,,,99,,,,,,,Space,keypress(Space),,,,,,,,---- -- ----- -- ------ - ------- --- ----------<br>------------- ------ ------ ---- ---- ------- ----- -- ----<br>-------- ------- -- ---------- --- - --- ----- ----- ----<br>---- --- --- ----- --- ---- ---- ------- ----- ---- -------<br>--- --- -- ----- -- --- ---- -- --- ---- -- that's ------<br>--- ----- -- ----,166321.90000000037,166318.40000000037,166008.34,166010,166025.129,166327.331,,50,that's
screen,html.Screen,2_1_0_1_51,2022-02-03T15:41:03.681Z,,,,,,,,,,,,,,,,,53,,,,,,,,,,,,,,422.9689999988768,,response,,,,99,,,,,,,Space,keypress(Space),,,,,,,,---- -- ----- -- ------ - ------- --- ----------<br>------------- ------ ------ ---- ---- ------- ----- -- ----<br>-------- ------- -- ---------- --- - --- ----- ----- ----<br>---- --- --- ----- --- ---- ---- ------- ----- ---- -------<br>--- --- -- ----- -- --- ---- -- --- ---- -- ------ really<br>--- ----- -- ----,166753.79999999888,166750.29999999888,166310.542,166322.09999999963,166327.331,166764.192,,51,really
screen,html.Screen,2_1_0_1_52,2022-02-03T15:41:04.057Z,,,,,,,,,,,,,,,,,53,,,,,,,,,,,,,,362.1079999988724,,response,,,,99,,,,,,,Space,keypress(Space),,,,,,,,---- -- ----- -- ------ - ------- --- ----------<br>------------- ------ ------ ---- ---- ------- ----- -- ----<br>-------- ------- -- ---------- --- - --- ----- ----- ----<br>---- --- --- ----- --- ---- ---- ------- ----- ---- -------<br>--- --- -- ----- -- --- ---- -- --- ---- -- ------ ------<br>not ----- -- ----,167129.69999999925,167126.29999999888,166747.403,166754,166764.192,167133.55,,52,not
screen,html.Screen,2_1_0_1_53,2022-02-03T15:41:04.361Z,,,,,,,,,,,,,,,,,53,,,,,,,,,,,,,,296.85000000038417,,response,,,,99,,,,,,,Space,keypress(Space),,,,,,,,---- -- ----- -- ------ - ------- --- ----------<br>------------- ------ ------ ---- ---- ------- ----- -- ----<br>-------- ------- -- ---------- --- - --- ----- ----- ----<br>---- --- --- ----- --- ---- ---- ------- ----- ---- -------<br>--- --- -- ----- -- --- ---- -- --- ---- -- ------ ------<br>--- close -- ----,167433.69999999925,167430.40000000037,167116.761,167130,167133.55,167435.752,,53,close
screen,html.Screen,2_1_0_1_54,2022-02-03T15:41:04.713Z,,,,,,,,,,,,,,,,,53,,,,,,,,,,,,,,346.54799999887473,,response,,,,99,,,,,,,Space,keypress(Space),,,,,,,,---- -- ----- -- ------ - ------- --- ----------<br>------------- ------ ------ ---- ---- ------- ----- -- ----<br>-------- ------- -- ---------- --- - --- ----- ----- ----<br>---- --- --- ----- --- ---- ---- ------- ----- ---- -------<br>--- --- -- ----- -- --- ---- -- --- ---- -- ------ ------<br>--- ----- at ----,167785.5,167782.29999999888,167418.963,167433.90000000037,167435.752,167788.321,,54,at
screen,html.Screen,2_1_0_1_55,2022-02-03T15:41:06.529Z,,,,,,,,,,,,,,,,,53,,,,,,,,,,,,,,1809.9789999988861,,response,,,,99,,,,,,,Space,keypress(Space),,,,,,,,---- -- ----- -- ------ - ------- --- ----------<br>------------- ------ ------ ---- ---- ------- ----- -- ----<br>-------- ------- -- ---------- --- - --- ----- ----- ----<br>---- --- --- ----- --- ---- ---- ------- ----- ---- -------<br>--- --- -- ----- -- --- ---- -- --- ---- -- ------ ------<br>--- ----- -- all.,169602.09999999963,169598.29999999888,167771.532,167785.59999999963,167788.321,169618.322,,55,all.
Item 99,flow.Loop,2_1_0_1,2022-02-03T15:41:06.530Z,,,,,,,,,,,,,,,,,,,,,,,,,,,,,,,24140.438999998878,,completion,,,,,B,,,,,,,,,,,silence,,,,,169602.5,169598.29999999888,145441.072,145444.19999999925,145457.861,169618.322,,,
Question 1,html.Screen,2_1_0_2,2022-02-03T15:41:12.258Z,,,,,,,,,,,,,,,,,,,,,,,,,,,,true,FALSE,,5709.777999999642,,response,,,,99,B,,,,,,FALSE,click #choice-2,,,,silence,,,,,175331.40000000037,175328.09999999963,169601.533,169602.79999999888,169618.322,175343.371,,,
Question 2,html.Screen,2_1_0_3,2022-02-03T15:41:18.091Z,,,,,,,,,,,,,,,,,,,,,,,,,,,,true,TRUE,,5816.828999999241,,response,,,,99,B,,,,,,TRUE,click #choice-1,,,,silence,,,,,181163.90000000037,181160.19999999925,175326.582,175331.5,175343.371,181186.234,,,
Item 99,flow.Sequence,2_1_0,2022-02-03T15:41:18.091Z,,,,,,,,,,,,,,,,,,,,,,,,,,,,,,,45709.48499999926,,completion,,,,,,,,,,,,,,,,,,,,,181164.29999999888,181160.19999999925,135433.926,135439,135450.715,181186.234,,,
Holding screen,html.Screen,2_1_1_0,2022-02-03T15:41:28.106Z,,,,,,,,,,,,,,,,,,,,,,,,,,,,,,,10006.638000000006,,timeout,,,,,,,,,,,,,,,,,,,,,191179.40000000037,191176.083,181169.445,181164.59999999963,181186.234,191192.872,,,
screen,html.Screen,2_1_1_1_0,2022-02-03T15:41:28.819Z,,,,,,,,,,,,,,,,,54,,,,,,,,,,,,,,695.3279999992519,,response,,,,100,,,,,,,Space,keypress(Space),,,,,,,,At --- ---- --- ------ ----- ------- ---- -- --- ------- --<br>------- ---------- ------ -- ----- -- ----- -- ---- ------<br>--- ----- --- --- ------ -------- ----- --- ------ ----- --<br>----- ----- ---------- --- --- ------ ------ ---- -- ------<br>------- --- ------ ----- --- ---- ------- -- ---- --- --<br>------- ------,191892.19999999925,191888.19999999925,191176.083,191179.5,191192.872,191898.01,,0,At
screen,html.Screen,2_1_1_1_1,2022-02-03T15:41:29.115Z,,,,,,,,,,,,,,,,,54,,,,,,,,,,,,,,286.2899999988731,,response,,,,100,,,,,,,Space,keypress(Space),,,,,,,,-- the ---- --- ------ ----- ------- ---- -- --- ------- --<br>------- ---------- ------ -- ----- -- ----- -- ---- ------<br>--- ----- --- --- ------ -------- ----- --- ------ ----- --<br>----- ----- ---------- --- --- ------ ------ ---- -- ------<br>------- --- ------ ----- --- ---- ------- -- ---- --- --<br>------- ------,192188.69999999925,192184.29999999888,191881.221,191892.40000000037,191898.01,192200.212,,1,the
screen,html.Screen,2_1_1_1_2,2022-02-03T15:41:29.362Z,,,,,,,,,,,,,,,,,54,,,,,,,,,,,,,,232.08799999888288,,response,,,,100,,,,,,,Space,keypress(Space),,,,,,,,-- --- time --- ------ ----- ------- ---- -- --- ------- --<br>------- ---------- ------ -- ----- -- ----- -- ---- ------<br>--- ----- --- --- ------ -------- ----- --- ------ ----- --<br>----- ----- ---------- --- --- ------ ------ ---- -- ------<br>------- --- ------ ----- --- ---- ------- -- ---- --- --<br>------- ------,192435.69999999925,192432.29999999888,192183.423,192188.90000000037,192200.212,192452.047,,2,time
screen,html.Screen,2_1_1_1_3,2022-02-03T15:41:29.610Z,,,,,,,,,,,,,,,,,54,,,,,,,,,,,,,,228.25299999889103,,response,,,,100,,,,,,,Space,keypress(Space),,,,,,,,-- --- ---- the ------ ----- ------- ---- -- --- ------- --<br>------- ---------- ------ -- ----- -- ----- -- ---- ------<br>--- ----- --- --- ------ -------- ----- --- ------ ----- --<br>----- ----- ---------- --- --- ------ ------ ---- -- ------<br>------- --- ------ ----- --- ---- ------- -- ---- --- --<br>------- ------,192683.79999999888,192680.29999999888,192435.258,192435.90000000037,192452.047,192687.093,,3,the
screen,html.Screen,2_1_1_1_4,2022-02-03T15:41:29.850Z,,,,,,,,,,,,,,,,,54,,,,,,,,,,,,,,233.10699999926146,,response,,,,100,,,,,,,Space,keypress(Space),,,,,,,,-- --- ---- --- French ----- ------- ---- -- --- ------- --<br>------- ---------- ------ -- ----- -- ----- -- ---- ------<br>--- ----- --- --- ------ -------- ----- --- ------ ----- --<br>----- ----- ---------- --- --- ------ ------ ---- -- ------<br>------- --- ------ ----- --- ---- ------- -- ---- --- --<br>------- ------,192923.59999999963,192920.19999999925,192670.304,192684.09999999963,192687.093,192938.928,,4,French
screen,html.Screen,2_1_1_1_5,2022-02-03T15:41:30.090Z,,,,,,,,,,,,,,,,,54,,,,,,,,,,,,,,221.4720000003581,,response,,,,100,,,,,,,Space,keypress(Space),,,,,,,,-- --- ---- --- ------ crown ------- ---- -- --- ------- --<br>------- ---------- ------ -- ----- -- ----- -- ---- ------<br>--- ----- --- --- ------ -------- ----- --- ------ ----- --<br>----- ----- ---------- --- --- ------ ------ ---- -- ------<br>------- --- ------ ----- --- ---- ------- -- ---- --- --<br>------- ------,193163.79999999888,193160.40000000037,192922.139,192923.69999999925,192938.928,193173.974,,5,crown
screen,html.Screen,2_1_1_1_6,2022-02-03T15:41:30.442Z,,,,,,,,,,,,,,,,,54,,,,,,,,,,,,,,338.2259999992675,,response,,,,100,,,,,,,Space,keypress(Space),,,,,,,,-- --- ---- --- ------ ----- secured ---- -- --- ------- --<br>------- ---------- ------ -- ----- -- ----- -- ---- ------<br>--- ----- --- --- ------ -------- ----- --- ------ ----- --<br>----- ----- ---------- --- --- ------ ------ ---- -- ------<br>------- --- ------ ----- --- ---- ------- -- ---- --- --<br>------- ------,193515.59999999963,193512.19999999925,193157.185,193164,193173.974,193526.543,,6,secured
screen,html.Screen,2_1_1_1_7,2022-02-03T15:41:30.826Z,,,,,,,,,,,,,,,,,54,,,,,,,,,,,,,,369.6569999992498,,response,,,,100,,,,,,,Space,keypress(Space),,,,,,,,-- --- ---- --- ------ ----- ------- much -- --- ------- --<br>------- ---------- ------ -- ----- -- ----- -- ---- ------<br>--- ----- --- --- ------ -------- ----- --- ------ ----- --<br>----- ----- ---------- --- --- ------ ------ ---- -- ------<br>------- --- ------ ----- --- ---- ------- -- ---- --- --<br>------- ------,193899.59999999963,193896.19999999925,193509.754,193515.79999999888,193526.543,193912.69,,7,much
screen,html.Screen,2_1_1_1_8,2022-02-03T15:41:31.177Z,,,,,,,,,,,,,,,,,54,,,,,,,,,,,,,,335.40999999962514,,response,,,,100,,,,,,,Space,keypress(Space),,,,,,,,-- --- ---- --- ------ ----- ------- ---- of --- ------- --<br>------- ---------- ------ -- ----- -- ----- -- ---- ------<br>--- ----- --- --- ------ -------- ----- --- ------ ----- --<br>----- ----- ---------- --- --- ------ ------ ---- -- ------<br>------- --- ------ ----- --- ---- ------- -- ---- --- --<br>------- ------,194250.90000000037,194248.09999999963,193895.901,193899.69999999925,193912.69,194265.259,,8,of
screen,html.Screen,2_1_1_1_9,2022-02-03T15:41:31.506Z,,,,,,,,,,,,,,,,,54,,,,,,,,,,,,,,311.0409999988915,,response,,,,100,,,,,,,Space,keypress(Space),,,,,,,,-- --- ---- --- ------ ----- ------- ---- -- its ------- --<br>------- ---------- ------ -- ----- -- ----- -- ---- ------<br>--- ----- --- --- ------ -------- ----- --- ------ ----- --<br>----- ----- ---------- --- --- ------ ------ ---- -- ------<br>------- --- ------ ----- --- ---- ------- -- ---- --- --<br>------- ------,194579.40000000037,194576.29999999888,194248.47,194251.09999999963,194265.259,194584.25,,9,its
screen,html.Screen,2_1_1_1_10,2022-02-03T15:41:31.874Z,,,,,,,,,,,,,,,,,54,,,,,,,,,,,,,,360.0499999988824,,response,,,,100,,,,,,,Space,keypress(Space),,,,,,,,-- --- ---- --- ------ ----- ------- ---- -- --- revenue --<br>------- ---------- ------ -- ----- -- ----- -- ---- ------<br>--- ----- --- --- ------ -------- ----- --- ------ ----- --<br>----- ----- ---------- --- --- ------ ------ ---- -- ------<br>------- --- ------ ----- --- ---- ------- -- ---- --- --<br>------- ------,194948,194944.29999999888,194567.461,194579.59999999963,194584.25,194953.608,,10,revenue
screen,html.Screen,2_1_1_1_11,2022-02-03T15:41:32.234Z,,,,,,,,,,,,,,,,,54,,,,,,,,,,,,,,350.69199999887496,,response,,,,100,,,,,,,Space,keypress(Space),,,,,,,,-- --- ---- --- ------ ----- ------- ---- -- --- ------- by<br>------- ---------- ------ -- ----- -- ----- -- ---- ------<br>--- ----- --- --- ------ -------- ----- --- ------ ----- --<br>----- ----- ---------- --- --- ------ ------ ---- -- ------<br>------- --- ------ ----- --- ---- ------- -- ---- --- --<br>------- ------,195307.69999999925,195304.29999999888,194936.819,194948.19999999925,194953.608,195322.966,,11,by
screen,html.Screen,2_1_1_1_12,2022-02-03T15:41:32.546Z,,,,,,,,,,,,,,,,,54,,,,,,,,,,,,,,293.3339999988966,,response,,,,100,,,,,,,Space,keypress(Space),,,,,,,,-- --- ---- --- ------ ----- ------- ---- -- --- ------- --<br>issuing ---------- ------ -- ----- -- ----- -- ---- ------<br>--- ----- --- --- ------ -------- ----- --- ------ ----- --<br>----- ----- ---------- --- --- ------ ------ ---- -- ------<br>------- --- ------ ----- --- ---- ------- -- ---- --- --<br>------- ------,195619.40000000037,195616.29999999888,195306.177,195307.79999999888,195322.966,195625.168,,12,issuing
screen,html.Screen,2_1_1_1_13,2022-02-03T15:41:32.842Z,,,,,,,,,,,,,,,,,54,,,,,,,,,,,,,,287.1319999988773,,response,,,,100,,,,,,,Space,keypress(Space),,,,,,,,-- --- ---- --- ------ ----- ------- ---- -- --- ------- --<br>------- government ------ -- ----- -- ----- -- ---- ------<br>--- ----- --- --- ------ -------- ----- --- ------ ----- --<br>----- ----- ---------- --- --- ------ ------ ---- -- ------<br>------- --- ------ ----- --- ---- ------- -- ---- --- --<br>------- ------,195915.69999999925,195912.29999999888,195608.379,195619.59999999963,195625.168,195927.37,,13,government
screen,html.Screen,2_1_1_1_14,2022-02-03T15:41:33.153Z,,,,,,,,,,,,,,,,,54,,,,,,,,,,,,,,296.7299999996321,,response,,,,100,,,,,,,Space,keypress(Space),,,,,,,,-- --- ---- --- ------ ----- ------- ---- -- --- ------- --<br>------- ---------- bonds. -- ----- -- ----- -- ---- ------<br>--- ----- --- --- ------ -------- ----- --- ------ ----- --<br>----- ----- ---------- --- --- ------ ------ ---- -- ------<br>------- --- ------ ----- --- ---- ------- -- ---- --- --<br>------- ------,196226.29999999888,196224.09999999963,195910.581,195915.79999999888,195927.37,196229.572,,14,bonds.
screen,html.Screen,2_1_1_1_15,2022-02-03T15:41:33.506Z,,,,,,,,,,,,,,,,,54,,,,,,,,,,,,,,346.6279999992694,,response,,,,100,,,,,,,Space,keypress(Space),,,,,,,,-- --- ---- --- ------ ----- ------- ---- -- --- ------- --<br>------- ---------- ------ In ----- -- ----- -- ---- ------<br>--- ----- --- --- ------ -------- ----- --- ------ ----- --<br>----- ----- ---------- --- --- ------ ------ ---- -- ------<br>------- --- ------ ----- --- ---- ------- -- ---- --- --<br>------- ------,196579.59999999963,196576.19999999925,196212.783,196226.29999999888,196229.572,196582.141,,15,In
screen,html.Screen,2_1_1_1_16,2022-02-03T15:41:33.810Z,,,,,,,,,,,,,,,,,54,,,,,,,,,,,,,,298.15899999887915,,response,,,,100,,,,,,,Space,keypress(Space),,,,,,,,"-- --- ---- --- ------ ----- ------- ---- -- --- ------- --<br>------- ---------- ------ -- 1727, -- ----- -- ---- ------<br>--- ----- --- --- ------ -------- ----- --- ------ ----- --<br>----- ----- ---------- --- --- ------ ------ ---- -- ------<br>------- --- ------ ----- --- ---- ------- -- ---- --- --<br>------- ------",196883.5,196880.29999999888,196565.352,196579.79999999888,196582.141,196884.343,,16,"1727,"
screen,html.Screen,2_1_1_1_17,2022-02-03T15:41:34.130Z,,,,,,,,,,,,,,,,,54,,,,,,,,,,,,,,315.95699999888893,,response,,,,100,,,,,,,Space,keypress(Space),,,,,,,,-- --- ---- --- ------ ----- ------- ---- -- --- ------- --<br>------- ---------- ------ -- ----- in ----- -- ---- ------<br>--- ----- --- --- ------ -------- ----- --- ------ ----- --<br>----- ----- ---------- --- --- ------ ------ ---- -- ------<br>------- --- ------ ----- --- ---- ------- -- ---- --- --<br>------- ------,197203.79999999888,197200.29999999888,196867.554,196883.59999999963,196884.343,197220.123,,17,in
screen,html.Screen,2_1_1_1_18,2022-02-03T15:41:34.482Z,,,,,,,,,,,,,,,,,54,,,,,,,,,,,,,,332.1769999988901,,response,,,,100,,,,,,,Space,keypress(Space),,,,,,,,-- --- ---- --- ------ ----- ------- ---- -- --- ------- --<br>------- ---------- ------ -- ----- -- order -- ---- ------<br>--- ----- --- --- ------ -------- ----- --- ------ ----- --<br>----- ----- ---------- --- --- ------ ------ ---- -- ------<br>------- --- ------ ----- --- ---- ------- -- ---- --- --<br>------- ------,197555.29999999888,197552.29999999888,197203.334,197204,197220.123,197572.692,,18,order
screen,html.Screen,2_1_1_1_19,2022-02-03T15:41:34.826Z,,,,,,,,,,,,,,,,,54,,,,,,,,,,,,,,323.6079999988724,,response,,,,100,,,,,,,Space,keypress(Space),,,,,,,,-- --- ---- --- ------ ----- ------- ---- -- --- ------- --<br>------- ---------- ------ -- ----- -- ----- to ---- ------<br>--- ----- --- --- ------ -------- ----- --- ------ ----- --<br>----- ----- ---------- --- --- ------ ------ ---- -- ------<br>------- --- ------ ----- --- ---- ------- -- ---- --- --<br>------- ------,197899.59999999963,197896.29999999888,197555.903,197555.5,197572.692,197908.787,,19,to
screen,html.Screen,2_1_1_1_20,2022-02-03T15:41:35.146Z,,,,,,,,,,,,,,,,,54,,,,,,,,,,,,,,307.61300000036135,,response,,,,100,,,,,,,Space,keypress(Space),,,,,,,,-- --- ---- --- ------ ----- ------- ---- -- --- ------- --<br>------- ---------- ------ -- ----- -- ----- -- save ------<br>--- ----- --- --- ------ -------- ----- --- ------ ----- --<br>----- ----- ---------- --- --- ------ ------ ---- -- ------<br>------- --- ------ ----- --- ---- ------- -- ---- --- --<br>------- ------,198219.5,198216.40000000037,197891.998,197899.69999999925,197908.787,198227.778,,20,save
screen,html.Screen,2_1_1_1_21,2022-02-03T15:41:35.498Z,,,,,,,,,,,,,,,,,54,,,,,,,,,,,,,,340.52199999889126,,response,,,,100,,,,,,,Space,keypress(Space),,,,,,,,"-- --- ---- --- ------ ----- ------- ---- -- --- ------- --<br>------- ---------- ------ -- ----- -- ----- -- ---- money,<br>--- ----- --- --- ------ -------- ----- --- ------ ----- --<br>----- ----- ---------- --- --- ------ ------ ---- -- ------<br>------- --- ------ ----- --- ---- ------- -- ---- --- --<br>------- ------",198571.5,198568.29999999888,198210.989,198219.79999999888,198227.778,198580.347,,21,"money,"
screen,html.Screen,2_1_1_1_22,2022-02-03T15:41:35.834Z,,,,,,,,,,,,,,,,,54,,,,,,,,,,,,,,323.95299999887357,,response,,,,100,,,,,,,Space,keypress(Space),,,,,,,,-- --- ---- --- ------ ----- ------- ---- -- --- ------- --<br>------- ---------- ------ -- ----- -- ----- -- ---- ------<br>the ----- --- --- ------ -------- ----- --- ------ ----- --<br>----- ----- ---------- --- --- ------ ------ ---- -- ------<br>------- --- ------ ----- --- ---- ------- -- ---- --- --<br>------- ------,198907.79999999888,198904.29999999888,198563.558,198571.69999999925,198580.347,198916.127,,22,the
screen,html.Screen,2_1_1_1_23,2022-02-03T15:41:36.162Z,,,,,,,,,,,,,,,,,54,,,,,,,,,,,,,,316.17299999887473,,response,,,,100,,,,,,,Space,keypress(Space),,,,,,,,-- --- ---- --- ------ ----- ------- ---- -- --- ------- --<br>------- ---------- ------ -- ----- -- ----- -- ---- ------<br>--- state --- --- ------ -------- ----- --- ------ ----- --<br>----- ----- ---------- --- --- ------ ------ ---- -- ------<br>------- --- ------ ----- --- ---- ------- -- ---- --- --<br>------- ------,199235.69999999925,199232.29999999888,198899.338,198907.90000000037,198916.127,199251.907,,23,state
screen,html.Screen,2_1_1_1_24,2022-02-03T15:41:36.482Z,,,,,,,,,,,,,,,,,54,,,,,,,,,,,,,,300.2929999992484,,response,,,,100,,,,,,,Space,keypress(Space),,,,,,,,-- --- ---- --- ------ ----- ------- ---- -- --- ------- --<br>------- ---------- ------ -- ----- -- ----- -- ---- ------<br>--- ----- cut --- ------ -------- ----- --- ------ ----- --<br>----- ----- ---------- --- --- ------ ------ ---- -- ------<br>------- --- ------ ----- --- ---- ------- -- ---- --- --<br>------- ------,199555.59999999963,199552.19999999925,199235.118,199235.90000000037,199251.907,199570.898,,24,cut
screen,html.Screen,2_1_1_1_25,2022-02-03T15:41:36.833Z,,,,,,,,,,,,,,,,,54,,,,,,,,,,,,,,333.30199999926845,,response,,,,100,,,,,,,Space,keypress(Space),,,,,,,,-- --- ---- --- ------ ----- ------- ---- -- --- ------- --<br>------- ---------- ------ -- ----- -- ----- -- ---- ------<br>--- ----- --- the ------ -------- ----- --- ------ ----- --<br>----- ----- ---------- --- --- ------ ------ ---- -- ------<br>------- --- ------ ----- --- ---- ------- -- ---- --- --<br>------- ------,199906.79999999888,199904.19999999925,199554.109,199555.69999999925,199570.898,199923.467,,25,the
screen,html.Screen,2_1_1_1_26,2022-02-03T15:41:37.178Z,,,,,,,,,,,,,,,,,54,,,,,,,,,,,,,,324.93300000036834,,response,,,,100,,,,,,,Space,keypress(Space),,,,,,,,-- --- ---- --- ------ ----- ------- ---- -- --- ------- --<br>------- ---------- ------ -- ----- -- ----- -- ---- ------<br>--- ----- --- --- bonds' -------- ----- --- ------ ----- --<br>----- ----- ---------- --- --- ------ ------ ---- -- ------<br>------- --- ------ ----- --- ---- ------- -- ---- --- --<br>------- ------,200251.59999999963,200248.40000000037,199906.678,199907,199923.467,200259.247,,26,bonds'
screen,html.Screen,2_1_1_1_27,2022-02-03T15:41:37.538Z,,,,,,,,,,,,,,,,,54,,,,,,,,,,,,,,349.0529999988794,,response,,,,100,,,,,,,Space,keypress(Space),,,,,,,,-- --- ---- --- ------ ----- ------- ---- -- --- ------- --<br>------- ---------- ------ -- ----- -- ----- -- ---- ------<br>--- ----- --- --- ------ interest ----- --- ------ ----- --<br>----- ----- ---------- --- --- ------ ------ ---- -- ------<br>------- --- ------ ----- --- ---- ------- -- ---- --- --<br>------- ------,200611.40000000037,200608.29999999888,200242.458,200251.90000000037,200259.247,200628.605,,27,interest
screen,html.Screen,2_1_1_1_28,2022-02-03T15:41:37.866Z,,,,,,,,,,,,,,,,,54,,,,,,,,,,,,,,307.59499999924446,,response,,,,100,,,,,,,Space,keypress(Space),,,,,,,,-- --- ---- --- ------ ----- ------- ---- -- --- ------- --<br>------- ---------- ------ -- ----- -- ----- -- ---- ------<br>--- ----- --- --- ------ -------- rate. --- ------ ----- --<br>----- ----- ---------- --- --- ------ ------ ---- -- ------<br>------- --- ------ ----- --- ---- ------- -- ---- --- --<br>------- ------,200939.5,200936.19999999925,200611.816,200611.59999999963,200628.605,200947.596,,28,rate.
screen,html.Screen,2_1_1_1_29,2022-02-03T15:41:38.234Z,,,,,,,,,,,,,,,,,54,,,,,,,,,,,,,,356.70399999889196,,response,,,,100,,,,,,,Space,keypress(Space),,,,,,,,-- --- ---- --- ------ ----- ------- ---- -- --- ------- --<br>------- ---------- ------ -- ----- -- ----- -- ---- ------<br>--- ----- --- --- ------ -------- ----- The ------ ----- --<br>----- ----- ---------- --- --- ------ ------ ---- -- ------<br>------- --- ------ ----- --- ---- ------- -- ---- --- --<br>------- ------,201307.79999999888,201304.29999999888,200930.807,200939.79999999888,200947.596,201316.954,,29,The
screen,html.Screen,2_1_1_1_30,2022-02-03T15:41:38.538Z,,,,,,,,,,,,,,,,,54,,,,,,,,,,,,,,291.24599999925704,,response,,,,100,,,,,,,Space,keypress(Space),,,,,,,,-- --- ---- --- ------ ----- ------- ---- -- --- ------- --<br>------- ---------- ------ -- ----- -- ----- -- ---- ------<br>--- ----- --- --- ------ -------- ----- --- market ----- --<br>----- ----- ---------- --- --- ------ ------ ---- -- ------<br>------- --- ------ ----- --- ---- ------- -- ---- --- --<br>------- ------,201611.90000000037,201608.19999999925,201300.165,201308,201316.954,201619.156,,30,market
screen,html.Screen,2_1_1_1_31,2022-02-03T15:41:38.858Z,,,,,,,,,,,,,,,,,54,,,,,,,,,,,,,,309.1439999988943,,response,,,,100,,,,,,,Space,keypress(Space),,,,,,,,-- --- ---- --- ------ ----- ------- ---- -- --- ------- --<br>------- ---------- ------ -- ----- -- ----- -- ---- ------<br>--- ----- --- --- ------ -------- ----- --- ------ value --<br>----- ----- ---------- --- --- ------ ------ ---- -- ------<br>------- --- ------ ----- --- ---- ------- -- ---- --- --<br>------- ------,201932.09999999963,201928.29999999888,201602.367,201612.09999999963,201619.156,201938.147,,31,value
screen,html.Screen,2_1_1_1_32,2022-02-03T15:41:39.226Z,,,,,,,,,,,,,,,,,54,,,,,,,,,,,,,,358.05299999925774,,response,,,,100,,,,,,,Space,keypress(Space),,,,,,,,-- --- ---- --- ------ ----- ------- ---- -- --- ------- --<br>------- ---------- ------ -- ----- -- ----- -- ---- ------<br>--- ----- --- --- ------ -------- ----- --- ------ ----- of<br>----- ----- ---------- --- --- ------ ------ ---- -- ------<br>------- --- ------ ----- --- ---- ------- -- ---- --- --<br>------- ------,202299.5,202296.19999999925,201921.358,201932.19999999925,201938.147,202307.505,,32,of
screen,html.Screen,2_1_1_1_33,2022-02-03T15:41:39.610Z,,,,,,,,,,,,,,,,,54,,,,,,,,,,,,,,372.79499999887776,,response,,,,100,,,,,,,Space,keypress(Space),,,,,,,,-- --- ---- --- ------ ----- ------- ---- -- --- ------- --<br>------- ---------- ------ -- ----- -- ----- -- ---- ------<br>--- ----- --- --- ------ -------- ----- --- ------ ----- --<br>these ----- ---------- --- --- ------ ------ ---- -- ------<br>------- --- ------ ----- --- ---- ------- -- ---- --- --<br>------- ------,202683.5,202680.29999999888,202290.716,202299.79999999888,202307.505,202693.652,,33,these
screen,html.Screen,2_1_1_1_34,2022-02-03T15:41:39.914Z,,,,,,,,,,,,,,,,,54,,,,,,,,,,,,,,290.64799999888055,,response,,,,100,,,,,,,Space,keypress(Space),,,,,,,,-- --- ---- --- ------ ----- ------- ---- -- --- ------- --<br>------- ---------- ------ -- ----- -- ----- -- ---- ------<br>--- ----- --- --- ------ -------- ----- --- ------ ----- --<br>----- bonds ---------- --- --- ------ ------ ---- -- ------<br>------- --- ------ ----- --- ---- ------- -- ---- --- --<br>------- ------,202987.5,202984.29999999888,202676.863,202683.69999999925,202693.652,202995.854,,34,bonds
screen,html.Screen,2_1_1_1_35,2022-02-03T15:41:40.274Z,,,,,,,,,,,,,,,,,54,,,,,,,,,,,,,,348.44599999889033,,response,,,,100,,,,,,,Space,keypress(Space),,,,,,,,"-- --- ---- --- ------ ----- ------- ---- -- --- ------- --<br>------- ---------- ------ -- ----- -- ----- -- ---- ------<br>--- ----- --- --- ------ -------- ----- --- ------ ----- --<br>----- ----- plummeted, --- --- ------ ------ ---- -- ------<br>------- --- ------ ----- --- ---- ------- -- ---- --- --<br>------- ------",203347.79999999888,203344.29999999888,202979.065,202987.69999999925,202995.854,203365.212,,35,"plummeted,"
screen,html.Screen,2_1_1_1_36,2022-02-03T15:41:40.594Z,,,,,,,,,,,,,,,,,54,,,,,,,,,,,,,,299.0879999988829,,response,,,,100,,,,,,,Space,keypress(Space),,,,,,,,-- --- ---- --- ------ ----- ------- ---- -- --- ------- --<br>------- ---------- ------ -- ----- -- ----- -- ---- ------<br>--- ----- --- --- ------ -------- ----- --- ------ ----- --<br>----- ----- ---------- and --- ------ ------ ---- -- ------<br>------- --- ------ ----- --- ---- ------- -- ---- --- --<br>------- ------,203667.69999999925,203664.29999999888,203348.423,203348,203365.212,203684.203,,36,and
screen,html.Screen,2_1_1_1_37,2022-02-03T15:41:40.938Z,,,,,,,,,,,,,,,,,54,,,,,,,,,,,,,,324.0969999988738,,response,,,,100,,,,,,,Space,keypress(Space),,,,,,,,-- --- ---- --- ------ ----- ------- ---- -- --- ------- --<br>------- ---------- ------ -- ----- -- ----- -- ---- ------<br>--- ----- --- --- ------ -------- ----- --- ------ ----- --<br>----- ----- ---------- --- the ------ ------ ---- -- ------<br>------- --- ------ ----- --- ---- ------- -- ---- --- --<br>------- ------,204011.69999999925,204008.29999999888,203667.414,203667.79999999888,203684.203,204019.983,,37,the
screen,html.Screen,2_1_1_1_38,2022-02-03T15:41:41.250Z,,,,,,,,,,,,,,,,,54,,,,,,,,,,,,,,300.31699999887496,,response,,,,100,,,,,,,Space,keypress(Space),,,,,,,,-- --- ---- --- ------ ----- ------- ---- -- --- ------- --<br>------- ---------- ------ -- ----- -- ----- -- ---- ------<br>--- ----- --- --- ------ -------- ----- --- ------ ----- --<br>----- ----- ---------- --- --- market ------ ---- -- ------<br>------- --- ------ ----- --- ---- ------- -- ---- --- --<br>------- ------,204323.5,204320.29999999888,204003.194,204011.90000000037,204019.983,204338.974,,38,market
screen,html.Screen,2_1_1_1_39,2022-02-03T15:41:41.538Z,,,,,,,,,,,,,,,,,54,,,,,,,,,,,,,,269.2259999992675,,response,,,,100,,,,,,,Space,keypress(Space),,,,,,,,-- --- ---- --- ------ ----- ------- ---- -- --- ------- --<br>------- ---------- ------ -- ----- -- ----- -- ---- ------<br>--- ----- --- --- ------ -------- ----- --- ------ ----- --<br>----- ----- ---------- --- --- ------ became ---- -- ------<br>------- --- ------ ----- --- ---- ------- -- ---- --- --<br>------- ------,204611.59999999963,204608.19999999925,204322.185,204323.79999999888,204338.974,204624.387,,39,became
screen,html.Screen,2_1_1_1_40,2022-02-03T15:41:41.834Z,,,,,,,,,,,,,,,,,54,,,,,,,,,,,,,,279.81299999926705,,response,,,,100,,,,,,,Space,keypress(Space),,,,,,,,-- --- ---- --- ------ ----- ------- ---- -- --- ------- --<br>------- ---------- ------ -- ----- -- ----- -- ---- ------<br>--- ----- --- --- ------ -------- ----- --- ------ ----- --<br>----- ----- ---------- --- --- ------ ------ wary -- ------<br>------- --- ------ ----- --- ---- ------- -- ---- --- --<br>------- ------,204907.59999999963,204904.19999999925,204607.598,204611.79999999888,204624.387,204909.8,,40,wary
screen,html.Screen,2_1_1_1_41,2022-02-03T15:41:42.130Z,,,,,,,,,,,,,,,,,54,,,,,,,,,,,,,,290.49999999889405,,response,,,,100,,,,,,,Space,keypress(Space),,,,,,,,-- --- ---- --- ------ ----- ------- ---- -- --- ------- --<br>------- ---------- ------ -- ----- -- ----- -- ---- ------<br>--- ----- --- --- ------ -------- ----- --- ------ ----- --<br>----- ----- ---------- --- --- ------ ------ ---- of ------<br>------- --- ------ ----- --- ---- ------- -- ---- --- --<br>------- ------,205203.59999999963,205200.29999999888,204893.011,204907.79999999888,204909.8,205212.002,,41,of
screen,html.Screen,2_1_1_1_42,2022-02-03T15:41:42.442Z,,,,,,,,,,,,,,,,,54,,,,,,,,,,,,,,300.19799999924726,,response,,,,100,,,,,,,Space,keypress(Space),,,,,,,,-- --- ---- --- ------ ----- ------- ---- -- --- ------- --<br>------- ---------- ------ -- ----- -- ----- -- ---- ------<br>--- ----- --- --- ------ -------- ----- --- ------ ----- --<br>----- ----- ---------- --- --- ------ ------ ---- -- French<br>------- --- ------ ----- --- ---- ------- -- ---- --- --<br>------- ------,205515.79999999888,205512.19999999925,205195.213,205203.79999999888,205212.002,205530.993,,42,French
screen,html.Screen,2_1_1_1_43,2022-02-03T15:41:42.754Z,,,,,,,,,,,,,,,,,54,,,,,,,,,,,,,,293.30699999889475,,response,,,,100,,,,,,,Space,keypress(Space),,,,,,,,-- --- ---- --- ------ ----- ------- ---- -- --- ------- --<br>------- ---------- ------ -- ----- -- ----- -- ---- ------<br>--- ----- --- --- ------ -------- ----- --- ------ ----- --<br>----- ----- ---------- --- --- ------ ------ ---- -- ------<br>credit. --- ------ ----- --- ---- ------- -- ---- --- --<br>------- ------,205827.59999999963,205824.29999999888,205514.204,205516,205530.993,205833.195,,43,credit.
screen,html.Screen,2_1_1_1_44,2022-02-03T15:41:43.065Z,,,,,,,,,,,,,,,,,54,,,,,,,,,,,,,,303.00499999924796,,response,,,,100,,,,,,,Space,keypress(Space),,,,,,,,-- --- ---- --- ------ ----- ------- ---- -- --- ------- --<br>------- ---------- ------ -- ----- -- ----- -- ---- ------<br>--- ----- --- --- ------ -------- ----- --- ------ ----- --<br>----- ----- ---------- --- --- ------ ------ ---- -- ------<br>------- The ------ ----- --- ---- ------- -- ---- --- --<br>------- ------,206139.40000000037,206136.19999999925,205816.406,205827.79999999888,205833.195,206152.186,,44,The
screen,html.Screen,2_1_1_1_45,2022-02-03T15:41:43.346Z,,,,,,,,,,,,,,,,,54,,,,,,,,,,,,,,264.11399999889545,,response,,,,100,,,,,,,Space,keypress(Space),,,,,,,,-- --- ---- --- ------ ----- ------- ---- -- --- ------- --<br>------- ---------- ------ -- ----- -- ----- -- ---- ------<br>--- ----- --- --- ------ -------- ----- --- ------ ----- --<br>----- ----- ---------- --- --- ------ ------ ---- -- ------<br>------- --- French ----- --- ---- ------- -- ---- --- --<br>------- ------,206419.59999999963,206416.29999999888,206135.397,206139.59999999963,206152.186,206420.81,,45,French
screen,html.Screen,2_1_1_1_46,2022-02-03T15:41:43.617Z,,,,,,,,,,,,,,,,,54,,,,,,,,,,,,,,267.48999999888474,,response,,,,100,,,,,,,Space,keypress(Space),,,,,,,,-- --- ---- --- ------ ----- ------- ---- -- --- ------- --<br>------- ---------- ------ -- ----- -- ----- -- ---- ------<br>--- ----- --- --- ------ -------- ----- --- ------ ----- --<br>----- ----- ---------- --- --- ------ ------ ---- -- ------<br>------- --- ------ state --- ---- ------- -- ---- --- --<br>------- ------,206691.40000000037,206688.29999999888,206404.021,206419.79999999888,206420.81,206706.223,,46,state
screen,html.Screen,2_1_1_1_47,2022-02-03T15:41:43.842Z,,,,,,,,,,,,,,,,,54,,,,,,,,,,,,,,206.1770000003744,,response,,,,100,,,,,,,Space,keypress(Space),,,,,,,,-- --- ---- --- ------ ----- ------- ---- -- --- ------- --<br>------- ---------- ------ -- ----- -- ----- -- ---- ------<br>--- ----- --- --- ------ -------- ----- --- ------ ----- --<br>----- ----- ---------- --- --- ------ ------ ---- -- ------<br>------- --- ------ ----- was ---- ------- -- ---- --- --<br>------- ------,206915.59999999963,206912.40000000037,206689.434,206691.59999999963,206706.223,206924.48,,47,was
screen,html.Screen,2_1_1_1_48,2022-02-03T15:41:44.129Z,,,,,,,,,,,,,,,,,54,,,,,,,,,,,,,,275.71999999924446,,response,,,,100,,,,,,,Space,keypress(Space),,,,,,,,-- --- ---- --- ------ ----- ------- ---- -- --- ------- --<br>------- ---------- ------ -- ----- -- ----- -- ---- ------<br>--- ----- --- --- ------ -------- ----- --- ------ ----- --<br>----- ----- ---------- --- --- ------ ------ ---- -- ------<br>------- --- ------ ----- --- left ------- -- ---- --- --<br>------- ------,207203.5,207200.19999999925,206907.691,206915.79999999888,206924.48,207209.893,,48,left
screen,html.Screen,2_1_1_1_49,2022-02-03T15:41:44.377Z,,,,,,,,,,,,,,,,,54,,,,,,,,,,,,,,238.306999999244,,response,,,,100,,,,,,,Space,keypress(Space),,,,,,,,-- --- ---- --- ------ ----- ------- ---- -- --- ------- --<br>------- ---------- ------ -- ----- -- ----- -- ---- ------<br>--- ----- --- --- ------ -------- ----- --- ------ ----- --<br>----- ----- ---------- --- --- ------ ------ ---- -- ------<br>------- --- ------ ----- --- ---- without -- ---- --- --<br>------- ------,207451.29999999888,207448.19999999925,207193.104,207203.59999999963,207209.893,207461.728,,49,without
screen,html.Screen,2_1_1_1_50,2022-02-03T15:41:44.682Z,,,,,,,,,,,,,,,,,54,,,,,,,,,,,,,,290.47199999925215,,response,,,,100,,,,,,,Space,keypress(Space),,,,,,,,-- --- ---- --- ------ ----- ------- ---- -- --- ------- --<br>------- ---------- ------ -- ----- -- ----- -- ---- ------<br>--- ----- --- --- ------ -------- ----- --- ------ ----- --<br>----- ----- ---------- --- --- ------ ------ ---- -- ------<br>------- --- ------ ----- --- ---- ------- an ---- --- --<br>------- ------,207755.69999999925,207752.19999999925,207444.939,207451.5,207461.728,207763.93,,50,an
screen,html.Screen,2_1_1_1_51,2022-02-03T15:41:44.978Z,,,,,,,,,,,,,,,,,54,,,,,,,,,,,,,,284.3699999988894,,response,,,,100,,,,,,,Space,keypress(Space),,,,,,,,-- --- ---- --- ------ ----- ------- ---- -- --- ------- --<br>------- ---------- ------ -- ----- -- ----- -- ---- ------<br>--- ----- --- --- ------ -------- ----- --- ------ ----- --<br>----- ----- ---------- --- --- ------ ------ ---- -- ------<br>------- --- ------ ----- --- ---- ------- -- easy --- --<br>------- ------,208051.90000000037,208048.29999999888,207747.141,207755.90000000037,207763.93,208066.471,,51,easy
screen,html.Screen,2_1_1_1_52,2022-02-03T15:41:45.282Z,,,,,,,,,,,,,,,,,54,,,,,,,,,,,,,,285.82899999889196,,response,,,,100,,,,,,,Space,keypress(Space),,,,,,,,-- --- ---- --- ------ ----- ------- ---- -- --- ------- --<br>------- ---------- ------ -- ----- -- ----- -- ---- ------<br>--- ----- --- --- ------ -------- ----- --- ------ ----- --<br>----- ----- ---------- --- --- ------ ------ ---- -- ------<br>------- --- ------ ----- --- ---- ------- -- ---- way --<br>------- ------,208355.69999999925,208352.29999999888,208049.682,208052,208066.471,208368.673,,52,way
screen,html.Screen,2_1_1_1_53,2022-02-03T15:41:45.642Z,,,,,,,,,,,,,,,,,54,,,,,,,,,,,,,,343.72700000036275,,response,,,,100,,,,,,,Space,keypress(Space),,,,,,,,-- --- ---- --- ------ ----- ------- ---- -- --- ------- --<br>------- ---------- ------ -- ----- -- ----- -- ---- ------<br>--- ----- --- --- ------ -------- ----- --- ------ ----- --<br>----- ----- ---------- --- --- ------ ------ ---- -- ------<br>------- --- ------ ----- --- ---- ------- -- ---- --- of<br>------- ------,208715.79999999888,208712.40000000037,208351.884,208355.79999999888,208368.673,208721.242,,53,of
screen,html.Screen,2_1_1_1_54,2022-02-03T15:41:46.002Z,,,,,,,,,,,,,,,,,54,,,,,,,,,,,,,,351.05799999888404,,response,,,,100,,,,,,,Space,keypress(Space),,,,,,,,-- --- ---- --- ------ ----- ------- ---- -- --- ------- --<br>------- ---------- ------ -- ----- -- ----- -- ---- ------<br>--- ----- --- --- ------ -------- ----- --- ------ ----- --<br>----- ----- ---------- --- --- ------ ------ ---- -- ------<br>------- --- ------ ----- --- ---- ------- -- ---- --- --<br>raising ------,209075.59999999963,209072.29999999888,208704.453,208715.90000000037,208721.242,209090.6,,54,raising
screen,html.Screen,2_1_1_1_55,2022-02-03T15:41:46.321Z,,,,,,,,,,,,,,,,,54,,,,,,,,,,,,,,301.5999999992491,,response,,,,100,,,,,,,Space,keypress(Space),,,,,,,,-- --- ---- --- ------ ----- ------- ---- -- --- ------- --<br>------- ---------- ------ -- ----- -- ----- -- ---- ------<br>--- ----- --- --- ------ -------- ----- --- ------ ----- --<br>----- ----- ---------- --- --- ------ ------ ---- -- ------<br>------- --- ------ ----- --- ---- ------- -- ---- --- --<br>------- money.,209395.29999999888,209392.19999999925,209073.811,209075.79999999888,209090.6,209409.591,,55,money.
Item 100,flow.Loop,2_1_1_1,2022-02-03T15:41:46.322Z,,,,,,,,,,,,,,,,,,,,,,,,,,,,,,,18199.327999999252,,completion,,,,,B,,,,,,,,,,,silence,,,,,209395.59999999963,209392.19999999925,191176.083,191179.5,191192.872,209409.591,,,
Question 1,html.Screen,2_1_1_2,2022-02-03T15:41:50.842Z,,,,,,,,,,,,,,,,,,,,,,,,,,,,true,TRUE,,4502.708999998897,,response,,,,100,B,,,,,,TRUE,click #choice-1,,,,silence,,,,,213916,213912.29999999888,209392.802,209395.79999999888,209409.591,213925.832,,,
Question 2,html.Screen,2_1_1_3,2022-02-03T15:41:53.633Z,,,,,,,,,,,,,,,,,,,,,,,,,,,,true,FALSE,,2778.4679999988875,,response,,,,100,B,,,,,,FALSE,click #choice-2,,,,silence,,,,,216707.59999999963,216704.29999999888,213909.043,213916.29999999888,213925.832,216712.806,,,
Item 100,flow.Sequence,2_1_1,2022-02-03T15:41:53.634Z,,,,,,,,,,,,,,,,,,,,,,,,,,,,,,,35518.065999998886,,completion,,,,,,,,,,,,,,,,,,,,,216707.90000000037,216704.29999999888,181169.445,181164.5,181186.234,216712.806,,,
End of Practice,html.Page,2_1_2,2022-02-03T15:41:58.106Z,,,,,,,,,,,,,,,,,,,,,,,,,,,,,,,4467.094000000361,,form submission,,,,,,,,,,,,,,,,,,,,,221180.29999999888,221179.90000000037,216696.017,216708,216712.806,221195.809,,,
Practice,flow.Sequence,2_1,2022-02-03T15:41:58.106Z,,,,,,,,,,,,,,,,,,,,,,,,,,,,,,,85729.18500000038,,completion,,,,,,,,,,,,,,,,,,,,,221180.59999999963,221179.90000000037,135433.926,135438.90000000037,135450.715,221195.809,,,
Trap_instruction,html.Page,2_2_0,2022-02-03T15:42:02.034Z,,,,,,,,,,,,,,,,,,,,,,,,,,,,,,,3912.3909999992466,,form submission,,,,,,,,,,,,,,,,,,,,,225108.69999999925,225108.19999999925,221179.02,221180.79999999888,221195.809,225124.435,,,
trap_trial,html.Screen,2_2_1,2022-02-03T15:42:05.185Z,,,,,,,,,,,,,,,,,,,,,,,,,,,,true,1,,3131.8649999988847,,response,,,,,,,,,,,1,click #choice-1,,,,,,,,,228259.5,228256.29999999888,225107.646,225108.79999999888,225124.435,228263.978,,,
end of trap trial,html.Page,2_2_2,2022-02-03T15:42:06.889Z,,,,,,,,,,,,,,,,,,,,,,,,,,,,,,,1699.4220000003697,,form submission,,,,,,,,,,,,,,,,,,,,,229963.90000000037,229963.40000000037,228247.189,228259.69999999925,228263.978,229976.456,,,
Trap 1,flow.Sequence,2_2,2022-02-03T15:42:06.890Z,,,,,,,,,,,,,,,,,,,,,,,,,,,,,,,8767.591000000364,,completion,,,,,,,,,,,,,,,,,,,,,229964.09999999963,229963.40000000037,221179.02,221180.69999999925,221195.809,229976.456,,,
Standby,html.Page,2_3_0,2022-02-03T15:42:14.896Z,,,,,,,,,,,,,,,,,,,,,,,,,,,,,,,8008.353000000003,,timeout,,,,,,,,,,,,,,,,,,,,,237970.59999999963,237968.02,229959.667,229964.5,229976.456,237984.809,,,
Holding screen,html.Screen,2_3_1_0_0,2022-02-03T15:42:21.897Z,,,,,,,,,,,,,,,,,,,,,,,,,,,,,,,7001.658999999985,,timeout,,,,,,,,,,,,,,,,,,,,,244972.09999999963,244969.679,237968.02,237970.90000000037,237984.809,244986.468,,,
screen,html.Screen,2_3_1_0_1_0,2022-02-03T15:42:22.554Z,,,,,,,,,,,,,,,,,15,,,,,,,,,,,,,,638.131999999634,,response,,,,7,B,,,,,,Space,keypress(Space),,,,lyrical,,,,Greg --------- ---------- - --- ------- -- --- ------------<br>----- -- -------- ------- ---- ------ - -------- ---- -----<br>--- ------- ---- -- --- -------- --- - ----- ------ ---- --<br>-------- --- -------- -------- --- -------- ---- -- ----- -<br>-------- ---- --- ---------- --------- -- ------- ------ -<br>--------- ----- -----,245628.69999999925,245624.59999999963,244969.679,244972.5,244986.468,245641.239,,0,Greg
screen,html.Screen,2_3_1_0_1_1,2022-02-03T15:42:22.945Z,,,,,,,,,,,,,,,,,15,,,,,,,,,,,,,,375.3609999996261,,response,,,,7,B,,,,,,Space,keypress(Space),,,,lyrical,,,,"---- Anderson, ---------- - --- ------- -- --- ------------<br>----- -- -------- ------- ---- ------ - -------- ---- -----<br>--- ------- ---- -- --- -------- --- - ----- ------ ---- --<br>-------- --- -------- -------- --- -------- ---- -- ----- -<br>-------- ---- --- ---------- --------- -- ------- ------ -<br>--------- ----- -----",246019.90000000037,246016.59999999963,245624.45,245628.79999999888,245641.239,246027.386,,1,"Anderson,"
screen,html.Screen,2_3_1_0_1_2,2022-02-03T15:42:23.305Z,,,,,,,,,,,,,,,,,15,,,,,,,,,,,,,,349.21399999962887,,response,,,,7,B,,,,,,Space,keypress(Space),,,,lyrical,,,,---- --------- considered - --- ------- -- --- ------------<br>----- -- -------- ------- ---- ------ - -------- ---- -----<br>--- ------- ---- -- --- -------- --- - ----- ------ ---- --<br>-------- --- -------- -------- --- -------- ---- -- ----- -<br>-------- ---- --- ---------- --------- -- ------- ------ -<br>--------- ----- -----,246379.90000000037,246376.59999999963,246010.597,246020.09999999963,246027.386,246396.744,,2,considered
screen,html.Screen,2_3_1_0_1_3,2022-02-03T15:42:23.649Z,,,,,,,,,,,,,,,,,15,,,,,,,,,,,,,,323.8559999996214,,response,,,,7,B,,,,,,Space,keypress(Space),,,,lyrical,,,,---- --------- ---------- a --- ------- -- --- ------------<br>----- -- -------- ------- ---- ------ - -------- ---- -----<br>--- ------- ---- -- --- -------- --- - ----- ------ ---- --<br>-------- --- -------- -------- --- -------- ---- -- ----- -<br>-------- ---- --- ---------- --------- -- ------- ------ -<br>--------- ----- -----,246724,246720.59999999963,246379.955,246380.09999999963,246396.744,246732.524,,3,a
screen,html.Screen,2_3_1_0_1_4,2022-02-03T15:42:23.977Z,,,,,,,,,,,,,,,,,15,,,,,,,,,,,,,,316.17599999925005,,response,,,,7,B,,,,,,Space,keypress(Space),,,,lyrical,,,,---- --------- ---------- - key ------- -- --- ------------<br>----- -- -------- ------- ---- ------ - -------- ---- -----<br>--- ------- ---- -- --- -------- --- - ----- ------ ---- --<br>-------- --- -------- -------- --- -------- ---- -- ----- -<br>-------- ---- --- ---------- --------- -- ------- ------ -<br>--------- ----- -----,247052.29999999888,247048.69999999925,246715.735,246724.29999999888,246732.524,247068.304,,4,key
screen,html.Screen,2_3_1_0_1_5,2022-02-03T15:42:24.313Z,,,,,,,,,,,,,,,,,15,,,,,,,,,,,,,,316.1959999999963,,response,,,,7,B,,,,,,Space,keypress(Space),,,,lyrical,,,,---- --------- ---------- - --- witness -- --- ------------<br>----- -- -------- ------- ---- ------ - -------- ---- -----<br>--- ------- ---- -- --- -------- --- - ----- ------ ---- --<br>-------- --- -------- -------- --- -------- ---- -- ----- -<br>-------- ---- --- ---------- --------- -- ------- ------ -<br>--------- ----- -----,247387.69999999925,247384.5,247051.515,247052.40000000037,247068.304,247404.084,,5,witness
screen,html.Screen,2_3_1_0_1_6,2022-02-03T15:42:24.641Z,,,,,,,,,,,,,,,,,15,,,,,,,,,,,,,,308.5159999996249,,response,,,,7,B,,,,,,Space,keypress(Space),,,,lyrical,,,,---- --------- ---------- - --- ------- by --- ------------<br>----- -- -------- ------- ---- ------ - -------- ---- -----<br>--- ------- ---- -- --- -------- --- - ----- ------ ---- --<br>-------- --- -------- -------- --- -------- ---- -- ----- -<br>-------- ---- --- ---------- --------- -- ------- ------ -<br>--------- ----- -----,247716,247712.59999999963,247387.295,247388,247404.084,247723.075,,6,by
screen,html.Screen,2_3_1_0_1_7,2022-02-03T15:42:24.937Z,,,,,,,,,,,,,,,,,15,,,,,,,,,,,,,,285.52499999961583,,response,,,,7,B,,,,,,Space,keypress(Space),,,,lyrical,,,,---- --------- ---------- - --- ------- -- the ------------<br>----- -- -------- ------- ---- ------ - -------- ---- -----<br>--- ------- ---- -- --- -------- --- - ----- ------ ---- --<br>-------- --- -------- -------- --- -------- ---- -- ----- -<br>-------- ---- --- ---------- --------- -- ------- ------ -<br>--------- ----- -----,248011.90000000037,248008.59999999963,247706.286,247716.19999999925,247723.075,248025.277,,7,the
screen,html.Screen,2_3_1_0_1_8,2022-02-03T15:42:25.233Z,,,,,,,,,,,,,,,,,15,,,,,,,,,,,,,,279.4229999992531,,response,,,,7,B,,,,,,Space,keypress(Space),,,,lyrical,,,,"---- --------- ---------- - --- ------- -- --- prosecution,<br>----- -- -------- ------- ---- ------ - -------- ---- -----<br>--- ------- ---- -- --- -------- --- - ----- ------ ---- --<br>-------- --- -------- -------- --- -------- ---- -- ----- -<br>-------- ---- --- ---------- --------- -- ------- ------ -<br>--------- ----- -----",248308.09999999963,248304.69999999925,248008.488,248012.19999999925,248025.277,248310.69,,8,"prosecution,"
screen,html.Screen,2_3_1_0_1_9,2022-02-03T15:42:25.633Z,,,,,,,,,,,,,,,,,15,,,,,,,,,,,,,,394.0099999992526,,response,,,,7,B,,,,,,Space,keypress(Space),,,,lyrical,,,,---- --------- ---------- - --- ------- -- --- ------------<br>vowed -- -------- ------- ---- ------ - -------- ---- -----<br>--- ------- ---- -- --- -------- --- - ----- ------ ---- --<br>-------- --- -------- -------- --- -------- ---- -- ----- -<br>-------- ---- --- ---------- --------- -- ------- ------ -<br>--------- ----- -----,248707.90000000037,248704.69999999925,248293.901,248308.19999999925,248310.69,248713.947,,9,vowed
screen,html.Screen,2_3_1_0_1_10,2022-02-03T15:42:25.977Z,,,,,,,,,,,,,,,,,15,,,,,,,,,,,,,,334.6529999996419,,response,,,,7,B,,,,,,Space,keypress(Space),,,,lyrical,,,,---- --------- ---------- - --- ------- -- --- ------------<br>----- he -------- ------- ---- ------ - -------- ---- -----<br>--- ------- ---- -- --- -------- --- - ----- ------ ---- --<br>-------- --- -------- -------- --- -------- ---- -- ----- -<br>-------- ---- --- ---------- --------- -- ------- ------ -<br>--------- ----- -----,249051.90000000037,249048.59999999963,248697.158,248708.09999999963,248713.947,249066.516,,10,he
screen,html.Screen,2_3_1_0_1_11,2022-02-03T15:42:26.337Z,,,,,,,,,,,,,,,,,15,,,,,,,,,,,,,,342.0839999996242,,response,,,,7,B,,,,,,Space,keypress(Space),,,,lyrical,,,,---- --------- ---------- - --- ------- -- --- ------------<br>----- -- wouldn't ------- ---- ------ - -------- ---- -----<br>--- ------- ---- -- --- -------- --- - ----- ------ ---- --<br>-------- --- -------- -------- --- -------- ---- -- ----- -<br>-------- ---- --- ---------- --------- -- ------- ------ -<br>--------- ----- -----,249412,249408.59999999963,249049.727,249052.09999999963,249066.516,249419.085,,11,wouldn't
screen,html.Screen,2_3_1_0_1_12,2022-02-03T15:42:26.641Z,,,,,,,,,,,,,,,,,15,,,,,,,,,,,,,,293.5149999996356,,response,,,,7,B,,,,,,Space,keypress(Space),,,,lyrical,,,,---- --------- ---------- - --- ------- -- --- ------------<br>----- -- -------- testify ---- ------ - -------- ---- -----<br>--- ------- ---- -- --- -------- --- - ----- ------ ---- --<br>-------- --- -------- -------- --- -------- ---- -- ----- -<br>-------- ---- --- ---------- --------- -- ------- ------ -<br>--------- ----- -----,249716.19999999925,249712.59999999963,249402.296,249412.19999999925,249419.085,249721.287,,12,testify
screen,html.Screen,2_3_1_0_1_13,2022-02-03T15:42:26.969Z,,,,,,,,,,,,,,,,,15,,,,,,,,,,,,,,319.2129999999888,,response,,,,7,B,,,,,,Space,keypress(Space),,,,lyrical,,,,---- --------- ---------- - --- ------- -- --- ------------<br>----- -- -------- ------- when ------ - -------- ---- -----<br>--- ------- ---- -- --- -------- --- - ----- ------ ---- --<br>-------- --- -------- -------- --- -------- ---- -- ----- -<br>-------- ---- --- ---------- --------- -- ------- ------ -<br>--------- ----- -----,250043.90000000037,250040.5,249704.498,249716.40000000037,249721.287,250057.067,,13,when
screen,html.Screen,2_3_1_0_1_14,2022-02-03T15:42:27.241Z,,,,,,,,,,,,,,,,,15,,,,,,,,,,,,,,255.63299999924493,,response,,,,7,B,,,,,,Space,keypress(Space),,,,lyrical,,,,---- --------- ---------- - --- ------- -- --- ------------<br>----- -- -------- ------- ---- served - -------- ---- -----<br>--- ------- ---- -- --- -------- --- - ----- ------ ---- --<br>-------- --- -------- -------- --- -------- ---- -- ----- -<br>-------- ---- --- ---------- --------- -- ------- ------ -<br>--------- ----- -----,250316,250312.69999999925,250040.278,250043.90000000037,250057.067,250325.691,,14,served
screen,html.Screen,2_3_1_0_1_15,2022-02-03T15:42:27.569Z,,,,,,,,,,,,,,,,,15,,,,,,,,,,,,,,314.90899999963585,,response,,,,7,B,,,,,,Space,keypress(Space),,,,lyrical,,,,---- --------- ---------- - --- ------- -- --- ------------<br>----- -- -------- ------- ---- ------ a -------- ---- -----<br>--- ------- ---- -- --- -------- --- - ----- ------ ---- --<br>-------- --- -------- -------- --- -------- ---- -- ----- -<br>-------- ---- --- ---------- --------- -- ------- ------ -<br>--------- ----- -----,250644,250640.59999999963,250308.902,250316.19999999925,250325.691,250661.471,,15,a
screen,html.Screen,2_3_1_0_1_16,2022-02-03T15:42:27.937Z,,,,,,,,,,,,,,,,,15,,,,,,,,,,,,,,347.2289999992645,,response,,,,7,B,,,,,,Space,keypress(Space),,,,lyrical,,,,---- --------- ---------- - --- ------- -- --- ------------<br>----- -- -------- ------- ---- ------ - subpoena ---- -----<br>--- ------- ---- -- --- -------- --- - ----- ------ ---- --<br>-------- --- -------- -------- --- -------- ---- -- ----- -<br>-------- ---- --- ---------- --------- -- ------- ------ -<br>--------- ----- -----,251011.90000000037,251008.69999999925,250644.682,250644.09999999963,250661.471,251014.04,,16,subpoena
screen,html.Screen,2_3_1_0_1_17,2022-02-03T15:42:28.377Z,,,,,,,,,,,,,,,,,15,,,,,,,,,,,,,,434.5599999996193,,response,,,,7,B,,,,,,Space,keypress(Space),,,,lyrical,,,,---- --------- ---------- - --- ------- -- --- ------------<br>----- -- -------- ------- ---- ------ - -------- last -----<br>--- ------- ---- -- --- -------- --- - ----- ------ ---- --<br>-------- --- -------- -------- --- -------- ---- -- ----- -<br>-------- ---- --- ---------- --------- -- ------- ------ -<br>--------- ----- -----,251452.40000000037,251448.59999999963,250997.251,251012,251014.04,251467.343,,17,last
screen,html.Screen,2_3_1_0_1_18,2022-02-03T15:42:28.809Z,,,,,,,,,,,,,,,,,15,,,,,,,,,,,,,,413.35699999926146,,response,,,,7,B,,,,,,Space,keypress(Space),,,,lyrical,,,,---- --------- ---------- - --- ------- -- --- ------------<br>----- -- -------- ------- ---- ------ - -------- ---- week.<br>--- ------- ---- -- --- -------- --- - ----- ------ ---- --<br>-------- --- -------- -------- --- -------- ---- -- ----- -<br>-------- ---- --- ---------- --------- -- ------- ------ -<br>--------- ----- -----,251883.90000000037,251880.69999999925,251450.554,251452.59999999963,251467.343,251887.068,,18,week.
screen,html.Screen,2_3_1_0_1_19,2022-02-03T15:42:29.217Z,,,,,,,,,,,,,,,,,15,,,,,,,,,,,,,,401.53199999962817,,response,,,,7,B,,,,,,Space,keypress(Space),,,,lyrical,,,,---- --------- ---------- - --- ------- -- --- ------------<br>----- -- -------- ------- ---- ------ - -------- ---- -----<br>His ------- ---- -- --- -------- --- - ----- ------ ---- --<br>-------- --- -------- -------- --- -------- ---- -- ----- -<br>-------- ---- --- ---------- --------- -- ------- ------ -<br>--------- ----- -----,252292.09999999963,252288.59999999963,251870.279,251884.09999999963,251887.068,252306.793,,19,His
screen,html.Screen,2_3_1_0_1_20,2022-02-03T15:42:29.577Z,,,,,,,,,,,,,,,,,15,,,,,,,,,,,,,,341.9069999992498,,response,,,,7,B,,,,,,Space,keypress(Space),,,,lyrical,,,,---- --------- ---------- - --- ------- -- --- ------------<br>----- -- -------- ------- ---- ------ - -------- ---- -----<br>--- lawyers ---- -- --- -------- --- - ----- ------ ---- --<br>-------- --- -------- -------- --- -------- ---- -- ----- -<br>-------- ---- --- ---------- --------- -- ------- ------ -<br>--------- ----- -----,252652.09999999963,252648.69999999925,252290.004,252292.29999999888,252306.793,252659.362,,20,lawyers
screen,html.Screen,2_3_1_0_1_21,2022-02-03T15:42:29.945Z,,,,,,,,,,,,,,,,,15,,,,,,,,,,,,,,357.1380000000063,,response,,,,7,B,,,,,,Space,keypress(Space),,,,lyrical,,,,---- --------- ---------- - --- ------- -- --- ------------<br>----- -- -------- ------- ---- ------ - -------- ---- -----<br>--- ------- said -- --- -------- --- - ----- ------ ---- --<br>-------- --- -------- -------- --- -------- ---- -- ----- -<br>-------- ---- --- ---------- --------- -- ------- ------ -<br>--------- ----- -----,253020,253016.5,252642.573,252652.19999999925,252659.362,253028.72,,21,said
screen,html.Screen,2_3_1_0_1_22,2022-02-03T15:42:30.272Z,,,,,,,,,,,,,,,,,15,,,,,,,,,,,,,,315.9799999992538,,response,,,,7,B,,,,,,Space,keypress(Space),,,,lyrical,,,,---- --------- ---------- - --- ------- -- --- ------------<br>----- -- -------- ------- ---- ------ - -------- ---- -----<br>--- ------- ---- he --- -------- --- - ----- ------ ---- --<br>-------- --- -------- -------- --- -------- ---- -- ----- -<br>-------- ---- --- ---------- --------- -- ------- ------ -<br>--------- ----- -----,253347.59999999963,253344.69999999925,253011.931,253020.09999999963,253028.72,253364.5,,22,he
screen,html.Screen,2_3_1_0_1_23,2022-02-03T15:42:30.593Z,,,,,,,,,,,,,,,,,15,,,,,,,,,,,,,,300.09999999962747,,response,,,,7,B,,,,,,Space,keypress(Space),,,,lyrical,,,,---- --------- ---------- - --- ------- -- --- ------------<br>----- -- -------- ------- ---- ------ - -------- ---- -----<br>--- ------- ---- -- was -------- --- - ----- ------ ---- --<br>-------- --- -------- -------- --- -------- ---- -- ----- -<br>-------- ---- --- ---------- --------- -- ------- ------ -<br>--------- ----- -----,253667.79999999888,253664.59999999963,253347.711,253347.69999999925,253364.5,253683.491,,23,was
screen,html.Screen,2_3_1_0_1_24,2022-02-03T15:42:30.913Z,,,,,,,,,,,,,,,,,15,,,,,,,,,,,,,,301.1089999996184,,response,,,,7,B,,,,,,Space,keypress(Space),,,,lyrical,,,,---- --------- ---------- - --- ------- -- --- ------------<br>----- -- -------- ------- ---- ------ - -------- ---- -----<br>--- ------- ---- -- --- prepared --- - ----- ------ ---- --<br>-------- --- -------- -------- --- -------- ---- -- ----- -<br>-------- ---- --- ---------- --------- -- ------- ------ -<br>--------- ----- -----,253988.19999999925,253984.59999999963,253666.702,253668,253683.491,254002.482,,24,prepared
screen,html.Screen,2_3_1_0_1_25,2022-02-03T15:42:31.233Z,,,,,,,,,,,,,,,,,15,,,,,,,,,,,,,,302.1179999996384,,response,,,,7,B,,,,,,Space,keypress(Space),,,,lyrical,,,,---- --------- ---------- - --- ------- -- --- ------------<br>----- -- -------- ------- ---- ------ - -------- ---- -----<br>--- ------- ---- -- --- -------- for - ----- ------ ---- --<br>-------- --- -------- -------- --- -------- ---- -- ----- -<br>-------- ---- --- ---------- --------- -- ------- ------ -<br>--------- ----- -----,254308.29999999888,254304.59999999963,253985.693,253988.29999999888,254002.482,254321.473,,25,for
screen,html.Screen,2_3_1_0_1_26,2022-02-03T15:42:31.553Z,,,,,,,,,,,,,,,,,15,,,,,,,,,,,,,,303.12699999962933,,response,,,,7,B,,,,,,Space,keypress(Space),,,,lyrical,,,,---- --------- ---------- - --- ------- -- --- ------------<br>----- -- -------- ------- ---- ------ - -------- ---- -----<br>--- ------- ---- -- --- -------- --- a ----- ------ ---- --<br>-------- --- -------- -------- --- -------- ---- -- ----- -<br>-------- ---- --- ---------- --------- -- ------- ------ -<br>--------- ----- -----,254628,254624.59999999963,254304.684,254308.40000000037,254321.473,254640.464,,26,a
screen,html.Screen,2_3_1_0_1_27,2022-02-03T15:42:31.873Z,,,,,,,,,,,,,,,,,15,,,,,,,,,,,,,,304.2359999992477,,response,,,,7,B,,,,,,Space,keypress(Space),,,,lyrical,,,,---- --------- ---------- - --- ------- -- --- ------------<br>----- -- -------- ------- ---- ------ - -------- ---- -----<br>--- ------- ---- -- --- -------- --- - third ------ ---- --<br>-------- --- -------- -------- --- -------- ---- -- ----- -<br>-------- ---- --- ---------- --------- -- ------- ------ -<br>--------- ----- -----,254947.90000000037,254944.69999999925,254623.675,254628.09999999963,254640.464,254959.455,,27,third
screen,html.Screen,2_3_1_0_1_28,2022-02-03T15:42:32.185Z,,,,,,,,,,,,,,,,,15,,,,,,,,,,,,,,297.1449999996403,,response,,,,7,B,,,,,,Space,keypress(Space),,,,lyrical,,,,---- --------- ---------- - --- ------- -- --- ------------<br>----- -- -------- ------- ---- ------ - -------- ---- -----<br>--- ------- ---- -- --- -------- --- - ----- prison ---- --<br>-------- --- -------- -------- --- -------- ---- -- ----- -<br>-------- ---- --- ---------- --------- -- ------- ------ -<br>--------- ----- -----,255260.09999999963,255256.59999999963,254942.666,254948,254959.455,255261.657,,28,prison
screen,html.Screen,2_3_1_0_1_29,2022-02-03T15:42:32.521Z,,,,,,,,,,,,,,,,,15,,,,,,,,,,,,,,330.94299999962095,,response,,,,7,B,,,,,,Space,keypress(Space),,,,lyrical,,,,---- --------- ---------- - --- ------- -- --- ------------<br>----- -- -------- ------- ---- ------ - -------- ---- -----<br>--- ------- ---- -- --- -------- --- - ----- ------ stay --<br>-------- --- -------- -------- --- -------- ---- -- ----- -<br>-------- ---- --- ---------- --------- -- ------- ------ -<br>--------- ----- -----,255596,255592.59999999963,255244.868,255260.29999999888,255261.657,255597.437,,29,stay
screen,html.Screen,2_3_1_0_1_30,2022-02-03T15:42:32.873Z,,,,,,,,,,,,,,,,,15,,,,,,,,,,,,,,347.2629999992496,,response,,,,7,B,,,,,,Space,keypress(Space),,,,lyrical,,,,---- --------- ---------- - --- ------- -- --- ------------<br>----- -- -------- ------- ---- ------ - -------- ---- -----<br>--- ------- ---- -- --- -------- --- - ----- ------ ---- to<br>-------- --- -------- -------- --- -------- ---- -- ----- -<br>-------- ---- --- ---------- --------- -- ------- ------ -<br>--------- ----- -----,255948.29999999888,255944.69999999925,255580.648,255596.19999999925,255597.437,255950.006,,30,to
screen,html.Screen,2_3_1_0_1_31,2022-02-03T15:42:33.207Z,,,,,,,,,,,,,,,,,15,,,,,,,,,,,,,,330.5939999996335,,response,,,,7,B,,,,,,Space,keypress(Space),,,,lyrical,,,,---- --------- ---------- - --- ------- -- --- ------------<br>----- -- -------- ------- ---- ------ - -------- ---- -----<br>--- ------- ---- -- --- -------- --- - ----- ------ ---- --<br>maintain --- -------- -------- --- -------- ---- -- ----- -<br>-------- ---- --- ---------- --------- -- ------- ------ -<br>--------- ----- -----,256282.40000000037,256280.59999999963,255933.217,255948.5,255950.006,256285.786,,31,maintain
screen,html.Screen,2_3_1_0_1_32,2022-02-03T15:42:33.529Z,,,,,,,,,,,,,,,,,15,,,,,,,,,,,,,,314.8139999996347,,response,,,,7,B,,,,,,Space,keypress(Space),,,,lyrical,,,,---- --------- ---------- - --- ------- -- --- ------------<br>----- -- -------- ------- ---- ------ - -------- ---- -----<br>--- ------- ---- -- --- -------- --- - ----- ------ ---- --<br>-------- his -------- -------- --- -------- ---- -- ----- -<br>-------- ---- --- ---------- --------- -- ------- ------ -<br>--------- ----- -----,256604.19999999925,256600.59999999963,256268.997,256282.59999999963,256285.786,256621.566,,32,his
screen,html.Screen,2_3_1_0_1_33,2022-02-03T15:42:33.857Z,,,,,,,,,,,,,,,,,15,,,,,,,,,,,,,,307.1339999992633,,response,,,,7,B,,,,,,Space,keypress(Space),,,,lyrical,,,,---- --------- ---------- - --- ------- -- --- ------------<br>----- -- -------- ------- ---- ------ - -------- ---- -----<br>--- ------- ---- -- --- -------- --- - ----- ------ ---- --<br>-------- --- silence. -------- --- -------- ---- -- ----- -<br>-------- ---- --- ---------- --------- -- ------- ------ -<br>--------- ----- -----,256932.5,256928.69999999925,256604.777,256604.40000000037,256621.566,256940.557,,33,silence.
screen,html.Screen,2_3_1_0_1_34,2022-02-03T15:42:34.200Z,,,,,,,,,,,,,,,,,15,,,,,,,,,,,,,,332.0429999996268,,response,,,,7,B,,,,,,Space,keypress(Space),,,,lyrical,,,,---- --------- ---------- - --- ------- -- --- ------------<br>----- -- -------- ------- ---- ------ - -------- ---- -----<br>--- ------- ---- -- --- -------- --- - ----- ------ ---- --<br>-------- --- -------- Anderson --- -------- ---- -- ----- -<br>-------- ---- --- ---------- --------- -- ------- ------ -<br>--------- ----- -----,257275.40000000037,257272.59999999963,256923.768,256932.79999999888,256940.557,257276.337,,34,Anderson
screen,html.Screen,2_3_1_0_1_35,2022-02-03T15:42:34.553Z,,,,,,,,,,,,,,,,,15,,,,,,,,,,,,,,348.16300000000047,,response,,,,7,B,,,,,,Space,keypress(Space),,,,lyrical,,,,---- --------- ---------- - --- ------- -- --- ------------<br>----- -- -------- ------- ---- ------ - -------- ---- -----<br>--- ------- ---- -- --- -------- --- - ----- ------ ---- --<br>-------- --- -------- -------- was -------- ---- -- ----- -<br>-------- ---- --- ---------- --------- -- ------- ------ -<br>--------- ----- -----,257628.09999999963,257624.5,257259.548,257275.59999999963,257276.337,257645.695,,35,was
screen,html.Screen,2_3_1_0_1_36,2022-02-03T15:42:35.025Z,,,,,,,,,,,,,,,,,15,,,,,,,,,,,,,,450.9049999996205,,response,,,,7,B,,,,,,Space,keypress(Space),,,,lyrical,,,,---- --------- ---------- - --- ------- -- --- ------------<br>----- -- -------- ------- ---- ------ - -------- ---- -----<br>--- ------- ---- -- --- -------- --- - ----- ------ ---- --<br>-------- --- -------- -------- --- released ---- -- ----- -<br>-------- ---- --- ---------- --------- -- ------- ------ -<br>--------- ----- -----,258099.90000000037,258096.59999999963,257628.906,257628.19999999925,257645.695,258115.787,,36,released
screen,html.Screen,2_3_1_0_1_37,2022-02-03T15:42:35.376Z,,,,,,,,,,,,,,,,,15,,,,,,,,,,,,,,332.91299999924377,,response,,,,7,B,,,,,,Space,keypress(Space),,,,lyrical,,,,---- --------- ---------- - --- ------- -- --- ------------<br>----- -- -------- ------- ---- ------ - -------- ---- -----<br>--- ------- ---- -- --- -------- --- - ----- ------ ---- --<br>-------- --- -------- -------- --- -------- July -- ----- -<br>-------- ---- --- ---------- --------- -- ------- ------ -<br>--------- ----- -----,258451.69999999925,258448.69999999925,258098.998,258100.19999999925,258115.787,258468.356,,37,July
screen,html.Screen,2_3_1_0_1_38,2022-02-03T15:42:35.753Z,,,,,,,,,,,,,,,,,15,,,,,,,,,,,,,,356.2439999996277,,response,,,,7,B,,,,,,Space,keypress(Space),,,,lyrical,,,,---- --------- ---------- - --- ------- -- --- ------------<br>----- -- -------- ------- ---- ------ - -------- ---- -----<br>--- ------- ---- -- --- -------- --- - ----- ------ ---- --<br>-------- --- -------- -------- --- -------- ---- 20 ----- -<br>-------- ---- --- ---------- --------- -- ------- ------ -<br>--------- ----- -----,258828.19999999925,258824.59999999963,258451.567,258451.79999999888,258468.356,258838.043,,38,20
screen,html.Screen,2_3_1_0_1_39,2022-02-03T15:42:36.921Z,,,,,,,,,,,,,,,,,15,,,,,,,,,,,,,,1154.6569999992498,,response,,,,7,B,,,,,,Space,keypress(Space),,,,lyrical,,,,---- --------- ---------- - --- ------- -- --- ------------<br>----- -- -------- ------- ---- ------ - -------- ---- -----<br>--- ------- ---- -- --- -------- --- - ----- ------ ---- --<br>-------- --- -------- -------- --- -------- ---- -- after -<br>-------- ---- --- ---------- --------- -- ------- ------ -<br>--------- ----- -----,259996.19999999925,259992.69999999925,258821.254,258828.29999999888,258838.043,260013.273,,39,after
screen,html.Screen,2_3_1_0_1_40,2022-02-03T15:42:37.328Z,,,,,,,,,,,,,,,,,15,,,,,,,,,,,,,,387.2270000000135,,response,,,,7,B,,,,,,Space,keypress(Space),,,,lyrical,,,,---- --------- ---------- - --- ------- -- --- ------------<br>----- -- -------- ------- ---- ------ - -------- ---- -----<br>--- ------- ---- -- --- -------- --- - ----- ------ ---- --<br>-------- --- -------- -------- --- -------- ---- -- ----- a<br>-------- ---- --- ---------- --------- -- ------- ------ -<br>--------- ----- -----,260403.40000000037,260400.5,259996.484,259996.40000000037,260013.273,260416.209,,40,a
