sender,sender_type,sender_id,timestamp,meta,,Blues,Classical,Country,Dance,Electronic,Folk,Gospel,Hip-Hop,Jazz,Latin,Musical/Film,New-age,Pop,Prolific_id,Provo_ID,R&B,Rap,Reggae,Religious,Rock,Soul,Swing,Traditional,age,artist_name,correct,correctResponse,distraction,duration,education,ended_on,familiarity,gender,headphone_check_performance,item,list,music_frequency,offensiveness,pleasantness,position_correct,preference,response,response_action,snippet_file,song_name,song_rating,sound,stimulus_1,stimulus_2,stimulus_3,text,time_commit,time_end,time_render,time_run,time_show,time_switch,url,word,word_ID
Prolific ID,html.Form,0,2022-02-01T12:35:44.793Z,"{""labjs_version"":""20.2.2"",""labjs_build"":{""flavor"":""production"",""commit"":""a25486e0c714a0ae2ce03ff94b7bb6896854dcfa""},""location"":""https://run.pavlovia.org/mvasilev/prolific2_music_b/"",""userAgent"":""Mozilla/5.0 (Windows NT 10.0; Win64; x64) AppleWebKit/537.36 (KHTML, like Gecko) Chrome/97.0.4692.99 Safari/537.36"",""platform"":""Win32"",""language"":""en-US"",""locale"":""en-GB"",""timeZone"":""Europe/London"",""timezoneOffset"":0,""screen_width"":1920,""screen_height"":1080,""scroll_width"":2133,""scroll_height"":1027,""window_innerWidth"":2133,""window_innerHeight"":1076,""devicePixelRatio"":0.8999999761581421}",,,,,,,,,,,,,,,615dc9a9d61ae634ede50ebb,,,,,,,,,,,,,,,11188.300000095369,,form submission,,,,,,,,,,,,,,,,,,,,,37949.799999952316,37948.90000009537,26694.176,26694.200000047684,26760.6,37969.982,{},,
Introduction,html.Screen,1_0,2022-02-01T12:35:50.029Z,,,,,,,,,,,,,,,,,,,,,,,,,,,,,,,5211.1180001430475,,response,,,,,,,,,,,continue,click button,,,,,,,,,43186.5,43181.10000014305,37936.77,37950.40000009537,37969.982,43199.861,,,
Volume calibration,html.Screen,1_1,2022-02-01T12:36:03.332Z,,,,,,,,,,,,,,,,,,,,,,,,,,,,,,,13287.639000000003,,response,,,,,,,,,,,continue,click button,,,,,,,,,56489.200000047684,56487.5,43166.649,43186.90000009537,43199.861,56493.747,,,
Task instructions,html.Screen,1_2,2022-02-01T12:36:08.806Z,,,,,,,,,,,,,,,,,,,,,,,,,,,,,,,5468.153000095364,,response,,,,,,,,,,,continue,click button,,,,,,,,,61963.299999952316,61961.90000009537,56477.141,56489.5,56493.747,61963.6,,,
Sounds,html.Screen,1_3_0_0,2022-02-01T12:36:13.052Z,,,,,,,,,,,,,,,,,,,,,,,,,,,,,,,4257.557000000008,,timeout,,,,,,,,,3,,,,,,,,O,I,S,,66209,66204.551,61946.994,61964,61963.6,66221.157,,,
Judgement,html.Screen,1_3_0_1,2022-02-01T12:36:14.068Z,,,,,,,,,,,,,,,,,,,,,,,,,,,,true,3,,1002.1429999523098,,response,,,,,,,,,3,,3,click #choice-3,,,,,O,I,S,,67225.60000014305,67223.29999995232,66204.551,66209.29999995232,66221.157,67229.183,,,
Trial,flow.Sequence,1_3_0,2022-02-01T12:36:14.069Z,,,,,,,,,,,,,,,,,,,,,,,,,,,,,,,5259.699999952318,,completion,,,,,,,,,3,,,,,,,,O,I,S,,67226.20000004768,67223.29999995232,61946.994,61963.90000009537,61963.6,67229.183,,,
Sounds,html.Screen,1_3_1_0,2022-02-01T12:36:18.311Z,,,,,,,,,,,,,,,,,,,,,,,,,,,,,,,4253.354999999996,,timeout,,,,,,,,,2,,,,,,,,O,S,I,,71468,71465.932,67212.577,67226.5,67229.183,71482.538,,,
Judgement,html.Screen,1_3_1_1,2022-02-01T12:36:19.044Z,,,,,,,,,,,,,,,,,,,,,,,,,,,,true,2,,716.5620001430507,,response,,,,,,,,,2,,2,click #choice-2,,,,,O,S,I,,72201.40000009537,72199.10000014305,71465.932,71468.29999995232,71482.538,72213.395,,,
Trial,flow.Sequence,1_3_1,2022-02-01T12:36:19.045Z,,,,,,,,,,,,,,,,,,,,,,,,,,,,,,,4969.917000143047,,completion,,,,,,,,,2,,,,,,,,O,S,I,,72201.90000009537,72199.10000014305,67212.577,67226.40000009537,67229.183,72213.395,,,
Sounds,html.Screen,1_3_2_0,2022-02-01T12:36:23.297Z,,,,,,,,,,,,,,,,,,,,,,,,,,,,,,,4254.311999999991,,timeout,,,,,,,,,2,,,,,,,,I,S,O,,76454,76451.101,72196.789,72202.40000009537,72213.395,76467.707,,,
Judgement,html.Screen,1_3_2_1,2022-02-01T12:36:23.805Z,,,,,,,,,,,,,,,,,,,,,,,,,,,,true,2,,492.99300004768884,,response,,,,,,,,,2,,2,click #choice-2,,,,,I,S,O,,76962.70000004768,76960.70000004768,76451.101,76454.20000004768,76467.707,76972.533,,,
Trial,flow.Sequence,1_3_2,2022-02-01T12:36:23.806Z,,,,,,,,,,,,,,,,,,,,,,,,,,,,,,,4747.30500004768,,completion,,,,,,,,,2,,,,,,,,I,S,O,,76963.10000014305,76960.70000004768,72196.789,72202.20000004768,72213.395,76972.533,,,
Sounds,html.Screen,1_3_3_0,2022-02-01T12:36:28.045Z,,,,,,,,,,,,,,,,,,,,,,,,,,,,,,,4243.644,,timeout,,,,,,,,,3,,,,,,,,I,O,S,,81201.79999995232,81199.571,76955.927,76963.5,76972.533,81216.177,,,
Judgement,html.Screen,1_3_3_1,2022-02-01T12:36:28.619Z,,,,,,,,,,,,,,,,,,,,,,,,,,,,true,3,,558.1229999523202,,response,,,,,,,,,3,,3,click #choice-3,,,,,I,O,S,,81776.20000004768,81774.29999995232,81199.571,81202.60000014305,81216.177,81777.108,,,
Trial,flow.Sequence,1_3_3,2022-02-01T12:36:28.619Z,,,,,,,,,,,,,,,,,,,,,,,,,,,,,,,4801.7669999523205,,completion,,,,,,,,,3,,,,,,,,I,O,S,,81776.70000004768,81774.29999995232,76955.927,76963.40000009537,76972.533,81777.108,,,
Sounds,html.Screen,1_3_4_0,2022-02-01T12:36:32.861Z,,,,,,,,,,,,,,,,,,,,,,,,,,,,,,,4254.679000000004,,timeout,,,,,,,,,1,,,,,,,,S,I,O,,86017.90000009537,86015.181,81760.502,81776.90000009537,81777.108,86031.787,,,
Judgement,html.Screen,1_3_4_1,2022-02-01T12:36:33.392Z,,,,,,,,,,,,,,,,,,,,,,,,,,,,true,1,,515.6130000953708,,response,,,,,,,,,1,,1,click #choice-1,,,,,S,I,O,,86549,86547.40000009537,86015.181,86018,86031.787,86564.13,,,
Trial,flow.Sequence,1_3_4,2022-02-01T12:36:33.392Z,,,,,,,,,,,,,,,,,,,,,,,,,,,,,,,4770.2920000953745,,completion,,,,,,,,,1,,,,,,,,S,I,O,,86549.29999995232,86547.40000009537,81760.502,81776.90000009537,81777.108,86564.13,,,
Sounds,html.Screen,1_3_5_0,2022-02-01T12:36:37.642Z,,,,,,,,,,,,,,,,,,,,,,,,,,,,,,,4249.784,,timeout,,,,,,,,,1,,,,,,,,S,O,I,,90798.90000009537,90797.308,86547.524,86549.60000014305,86564.13,90813.914,,,
Judgement,html.Screen,1_3_5_1,2022-02-01T12:36:38.307Z,,,,,,,,,,,,,,,,,,,,,,,,,,,,true,1,,647.5859999999957,,response,,,,,,,,,1,,1,click #choice-1,,,,,S,O,I,,91463.70000004768,91461.5,90797.308,90799.10000014305,90813.914,91473.96,,,
Trial,flow.Sequence,1_3_5,2022-02-01T12:36:38.307Z,,,,,,,,,,,,,,,,,,,,,,,,,,,,,,,4897.369999999995,,completion,,,,,,,,,1,,,,,,,,S,O,I,,91464.10000014305,91461.5,86547.524,86549.5,86564.13,91473.96,,,
Task,flow.Loop,1_3,2022-02-01T12:36:38.316Z,,,,,,,,,,,,,,,,,,,,,,,,,,,,,,,29497.9,,completion,,,1,,,,,,,,,,,,,,,,,,91473.29999995232,91461.5,61946.994,61963.700000047684,61963.6,91473.96,,,
Trap,html.Screen,1_4,2022-02-01T12:36:38.318Z,,,,,,,,,,,,,,,,,,,,,,,,,,,,,,,NaN,,skipped,,,,,,,,,,,,,,,,,,,,,91475.60000014305,91461.5,,91475.40000009537,,91473.96,,,
Thanks,html.Screen,1_5,2022-02-01T12:36:41.305Z,,,,,,,,,,,,,,,,,,,,,,,,,,,,,,,2986.5399999999936,,response,,,,,,,,,,,continue,click button,,,,,,,,,94462,94460.5,91457.354,91475.79999995232,91473.96,97062.037,,,
Headphone screening,flow.Sequence,1,2022-02-01T12:36:41.305Z,,,,,,,,,,,,,,,,,,,,,,,,,,,,,,,56490.518,,completion,,,,,,,,,,,,,,,,,,,,,94462.29999995232,94460.5,37936.77,37950.40000009537,37969.982,97062.037,,,
Instructions,html.Page,2_0,2022-02-01T12:36:55.012Z,,,,,,,,,,,,,,,,,,,,,,,,,,,,,,,11105.76299995232,,form submission,,,,,,,,,,,,,,,,,,,,,108168.5,108167.79999995232,97028.825,97049.79999995232,97062.037,108169.183,,,
Holding screen,html.Screen,2_1_0_0,2022-02-01T12:37:04.996Z,,,,,,,,,,,,,,,,,,,,,,,,,,,,,,,10015.036999999997,,timeout,,,,,,,,,,,,,,,,,,,,,118152.90000009537,118151.008,108152.577,108168.90000009537,108169.183,118184.22,,,
screen,html.Screen,2_1_0_1_0,2022-02-01T12:37:06.376Z,,,,,,,,,,,,,,,,,53,,,,,,,,,,,,,,1342.9800000476826,,response,,,,99,,,,,,,Space,keypress(Space),,,,,,,,When -- ----- -- ------ - ------- --- ----------<br>------------- ------ ------ ---- ---- ------- ----- -- ----<br>-------- ------- -- ---------- --- - --- ----- ----- ----<br>---- --- --- ----- --- ---- ---- ------- ----- ---- -------<br>--- --- -- ----- -- --- ---- -- --- ---- -- ------ ------<br>--- ----- -- ----,119533.10000014305,119527.20000004768,118151.008,118155.20000004768,118184.22,119541.344,,0,When
screen,html.Screen,2_1_0_1_1,2022-02-01T12:37:07.576Z,,,,,,,,,,,,,,,,,53,,,,,,,,,,,,,,1189.55600009537,,response,,,,99,,,,,,,Space,keypress(Space),,,,,,,,---- it ----- -- ------ - ------- --- ----------<br>------------- ------ ------ ---- ---- ------- ----- -- ----<br>-------- ------- -- ---------- --- - --- ----- ----- ----<br>---- --- --- ----- --- ---- ---- ------- ----- ---- -------<br>--- --- -- ----- -- --- ---- -- --- ---- -- ------ ------<br>--- ----- -- ----,120732.90000009537,120730.90000009537,119524.738,119533.5,119541.344,120747.884,,1,it
screen,html.Screen,2_1_0_1_2,2022-02-01T12:37:08.462Z,,,,,,,,,,,,,,,,,53,,,,,,,,,,,,,,869.7160001430457,,response,,,,99,,,,,,,Space,keypress(Space),,,,,,,,---- -- comes -- ------ - ------- --- ----------<br>------------- ------ ------ ---- ---- ------- ----- -- ----<br>-------- ------- -- ---------- --- - --- ----- ----- ----<br>---- --- --- ----- --- ---- ---- ------- ----- ---- -------<br>--- --- -- ----- -- --- ---- -- --- ---- -- ------ ------<br>--- ----- -- ----,121618.90000009537,121617.60000014305,120731.278,120733.40000009537,120747.884,121628.143,,2,comes
screen,html.Screen,2_1_0_1_3,2022-02-01T12:37:09.148Z,,,,,,,,,,,,,,,,,53,,,,,,,,,,,,,,675.4570001430548,,response,,,,99,,,,,,,Space,keypress(Space),,,,,,,,---- -- ----- to ------ - ------- --- ----------<br>------------- ------ ------ ---- ---- ------- ----- -- ----<br>-------- ------- -- ---------- --- - --- ----- ----- ----<br>---- --- --- ----- --- ---- ---- ------- ----- ---- -------<br>--- --- -- ----- -- --- ---- -- --- ---- -- ------ ------<br>--- ----- -- ----,122304.79999995232,122303.60000014305,121611.537,121619.10000014305,121628.143,122317.179,,3,to
screen,html.Screen,2_1_0_1_4,2022-02-01T12:37:09.855Z,,,,,,,,,,,,,,,,,53,,,,,,,,,,,,,,694.02100004768,,response,,,,99,,,,,,,Space,keypress(Space),,,,,,,,---- -- ----- -- having - ------- --- ----------<br>------------- ------ ------ ---- ---- ------- ----- -- ----<br>-------- ------- -- ---------- --- - --- ----- ----- ----<br>---- --- --- ----- --- ---- ---- ------- ----- ---- -------<br>--- --- -- ----- -- --- ---- -- --- ---- -- ------ ------<br>--- ----- -- ----,123012.40000009537,123011.20000004768,122300.573,122305,122317.179,123020.758,,4,having
screen,html.Screen,2_1_0_1_5,2022-02-01T12:37:10.244Z,,,,,,,,,,,,,,,,,53,,,,,,,,,,,,,,378.74199999999837,,response,,,,99,,,,,,,Space,keypress(Space),,,,,,,,---- -- ----- -- ------ a ------- --- ----------<br>------------- ------ ------ ---- ---- ------- ----- -- ----<br>-------- ------- -- ---------- --- - --- ----- ----- ----<br>---- --- --- ----- --- ---- ---- ------- ----- ---- -------<br>--- --- -- ----- -- --- ---- -- --- ---- -- ------ ------<br>--- ----- -- ----,123401,123399.5,123004.152,123012.60000014305,123020.758,123407.326,,5,a
screen,html.Screen,2_1_0_1_6,2022-02-01T12:37:10.781Z,,,,,,,,,,,,,,,,,53,,,,,,,,,,,,,,529.6739999999991,,response,,,,99,,,,,,,Space,keypress(Space),,,,,,,,---- -- ----- -- ------ - lasting --- ----------<br>------------- ------ ------ ---- ---- ------- ----- -- ----<br>-------- ------- -- ---------- --- - --- ----- ----- ----<br>---- --- --- ----- --- ---- ---- ------- ----- ---- -------<br>--- --- -- ----- -- --- ---- -- --- ---- -- ------ ------<br>--- ----- -- ----,123937.90000009537,123937,123390.72,123401.29999995232,123407.326,123943.591,,6,lasting
screen,html.Screen,2_1_0_1_7,2022-02-01T12:37:11.140Z,,,,,,,,,,,,,,,,,53,,,,,,,,,,,,,,352.0090001430508,,response,,,,99,,,,,,,Space,keypress(Space),,,,,,,,---- -- ----- -- ------ - ------- and ----------<br>------------- ------ ------ ---- ---- ------- ----- -- ----<br>-------- ------- -- ---------- --- - --- ----- ----- ----<br>---- --- --- ----- --- ---- ---- ------- ----- ---- -------<br>--- --- -- ----- -- --- ---- -- --- ---- -- ------ ------<br>--- ----- -- ----,124297,124295.60000014305,123926.985,123938.10000014305,123943.591,124311.446,,7,and
screen,html.Screen,2_1_0_1_8,2022-02-01T12:37:11.617Z,,,,,,,,,,,,,,,,,53,,,,,,,,,,,,,,461.45400009537116,,response,,,,99,,,,,,,Space,keypress(Space),,,,,,,,---- -- ----- -- ------ - ------- --- fulfilling<br>------------- ------ ------ ---- ---- ------- ----- -- ----<br>-------- ------- -- ---------- --- - --- ----- ----- ----<br>---- --- --- ----- --- ---- ---- ------- ----- ---- -------<br>--- --- -- ----- -- --- ---- -- --- ---- -- ------ ------<br>--- ----- -- ----,124774.10000014305,124772.90000009537,124294.84,124297.20000004768,124311.446,124780.311,,8,fulfilling
screen,html.Screen,2_1_0_1_9,2022-02-01T12:37:11.986Z,,,,,,,,,,,,,,,,,53,,,,,,,,,,,,,,361.48899995231477,,response,,,,99,,,,,,,Space,keypress(Space),,,,,,,,"---- -- ----- -- ------ - ------- --- ----------<br>relationship, ------ ------ ---- ---- ------- ----- -- ----<br>-------- ------- -- ---------- --- - --- ----- ----- ----<br>---- --- --- ----- --- ---- ---- ------- ----- ---- -------<br>--- --- -- ----- -- --- ---- -- --- ---- -- ------ ------<br>--- ----- -- ----",125143.29999995232,125141.79999995232,124763.705,124774.40000009537,124780.311,125147.995,,9,"relationship,"
screen,html.Screen,2_1_0_1_10,2022-02-01T12:37:12.435Z,,,,,,,,,,,,,,,,,53,,,,,,,,,,,,,,441.80499995232094,,response,,,,99,,,,,,,Space,keypress(Space),,,,,,,,---- -- ----- -- ------ - ------- --- ----------<br>------------- common ------ ---- ---- ------- ----- -- ----<br>-------- ------- -- ---------- --- - --- ----- ----- ----<br>---- --- --- ----- --- ---- ---- ------- ----- ---- -------<br>--- --- -- ----- -- --- ---- -- --- ---- -- ------ ------<br>--- ----- -- ----,125591.60000014305,125589.79999995232,125131.389,125143.70000004768,125147.995,125599.727,,10,common
screen,html.Screen,2_1_0_1_11,2022-02-01T12:37:12.772Z,,,,,,,,,,,,,,,,,53,,,,,,,,,,,,,,328.1730000953685,,response,,,,99,,,,,,,Space,keypress(Space),,,,,,,,---- -- ----- -- ------ - ------- --- ----------<br>------------- ------ wisdom ---- ---- ------- ----- -- ----<br>-------- ------- -- ---------- --- - --- ----- ----- ----<br>---- --- --- ----- --- ---- ---- ------- ----- ---- -------<br>--- --- -- ----- -- --- ---- -- --- ---- -- ------ ------<br>--- ----- -- ----,125929.10000014305,125927.90000009537,125583.121,125591.90000009537,125599.727,125934.343,,11,wisdom
screen,html.Screen,2_1_0_1_12,2022-02-01T12:37:13.101Z,,,,,,,,,,,,,,,,,53,,,,,,,,,,,,,,321.85700004769024,,response,,,,99,,,,,,,Space,keypress(Space),,,,,,,,---- -- ----- -- ------ - ------- --- ----------<br>------------- ------ ------ says ---- ------- ----- -- ----<br>-------- ------- -- ---------- --- - --- ----- ----- ----<br>---- --- --- ----- --- ---- ---- ------- ----- ---- -------<br>--- --- -- ----- -- --- ---- -- --- ---- -- ------ ------<br>--- ----- -- ----,126257.79999995232,126256.20000004768,125917.737,125929.29999995232,125934.343,126269.581,,12,says
screen,html.Screen,2_1_0_1_13,2022-02-01T12:37:13.420Z,,,,,,,,,,,,,,,,,53,,,,,,,,,,,,,,305.6190000476781,,response,,,,99,,,,,,,Space,keypress(Space),,,,,,,,---- -- ----- -- ------ - ------- --- ----------<br>------------- ------ ------ ---- that ------- ----- -- ----<br>-------- ------- -- ---------- --- - --- ----- ----- ----<br>---- --- --- ----- --- ---- ---- ------- ----- ---- -------<br>--- --- -- ----- -- --- ---- -- --- ---- -- ------ ------<br>--- ----- -- ----,126576.79999995232,126575.20000004768,126252.975,126258.10000014305,126269.581,126587.288,,13,that
screen,html.Screen,2_1_0_1_14,2022-02-01T12:37:13.799Z,,,,,,,,,,,,,,,,,53,,,,,,,,,,,,,,367.0119999523158,,response,,,,99,,,,,,,Space,keypress(Space),,,,,,,,---- -- ----- -- ------ - ------- --- ----------<br>------------- ------ ------ ---- ---- feeling ----- -- ----<br>-------- ------- -- ---------- --- - --- ----- ----- ----<br>---- --- --- ----- --- ---- ---- ------- ----- ---- -------<br>--- --- -- ----- -- --- ---- -- --- ---- -- ------ ------<br>--- ----- -- ----,126955.79999995232,126954.29999995232,126570.682,126577,126587.288,126971.471,,14,feeling
screen,html.Screen,2_1_0_1_15,2022-02-01T12:37:14.166Z,,,,,,,,,,,,,,,,,53,,,,,,,,,,,,,,350.62900014304614,,response,,,,99,,,,,,,Space,keypress(Space),,,,,,,,---- -- ----- -- ------ - ------- --- ----------<br>------------- ------ ------ ---- ---- ------- close -- ----<br>-------- ------- -- ---------- --- - --- ----- ----- ----<br>---- --- --- ----- --- ---- ---- ------- ----- ---- -------<br>--- --- -- ----- -- --- ---- -- --- ---- -- ------ ------<br>--- ----- -- ----,127323.40000009537,127322.10000014305,126954.865,126956.10000014305,126971.471,127338.955,,15,close
screen,html.Screen,2_1_0_1_16,2022-02-01T12:37:14.655Z,,,,,,,,,,,,,,,,,53,,,,,,,,,,,,,,471.54499999999825,,response,,,,99,,,,,,,Space,keypress(Space),,,,,,,,---- -- ----- -- ------ - ------- --- ----------<br>------------- ------ ------ ---- ---- ------- ----- to ----<br>-------- ------- -- ---------- --- - --- ----- ----- ----<br>---- --- --- ----- --- ---- ---- ------- ----- ---- -------<br>--- --- -- ----- -- --- ---- -- --- ---- -- ------ ------<br>--- ----- -- ----,127812,127810.5,127322.349,127323.70000004768,127338.955,127823.197,,16,to
screen,html.Screen,2_1_0_1_17,2022-02-01T12:37:15.123Z,,,,,,,,,,,,,,,,,53,,,,,,,,,,,,,,455.0030000476836,,response,,,,99,,,,,,,Space,keypress(Space),,,,,,,,---- -- ----- -- ------ - ------- --- ----------<br>------------- ------ ------ ---- ---- ------- ----- -- your<br>-------- ------- -- ---------- --- - --- ----- ----- ----<br>---- --- --- ----- --- ---- ---- ------- ----- ---- -------<br>--- --- -- ----- -- --- ---- -- --- ---- -- ------ ------<br>--- ----- -- ----,128279.70000004768,128278.20000004768,127806.591,127812.29999995232,127823.197,128290.619,,17,your
screen,html.Screen,2_1_0_1_18,2022-02-01T12:37:15.562Z,,,,,,,,,,,,,,,,,53,,,,,,,,,,,,,,425.9810001430451,,response,,,,99,,,,,,,Space,keypress(Space),,,,,,,,---- -- ----- -- ------ - ------- --- ----------<br>------------- ------ ------ ---- ---- ------- ----- -- ----<br>romantic ------- -- ---------- --- - --- ----- ----- ----<br>---- --- --- ----- --- ---- ---- ------- ----- ---- -------<br>--- --- -- ----- -- --- ---- -- --- ---- -- ------ ------<br>--- ----- -- ----,128718.60000014305,128716.60000014305,128274.013,128280.5,128290.619,128725.766,,18,romantic
screen,html.Screen,2_1_0_1_19,2022-02-01T12:37:15.989Z,,,,,,,,,,,,,,,,,53,,,,,,,,,,,,,,418.6340000953642,,response,,,,99,,,,,,,Space,keypress(Space),,,,,,,,---- -- ----- -- ------ - ------- --- ----------<br>------------- ------ ------ ---- ---- ------- ----- -- ----<br>-------- partner -- ---------- --- - --- ----- ----- ----<br>---- --- --- ----- --- ---- ---- ------- ----- ---- -------<br>--- --- -- ----- -- --- ---- -- --- ---- -- ------ ------<br>--- ----- -- ----,129145.90000009537,129144.40000009537,128709.16,128718.79999995232,128725.766,129160.736,,19,partner
screen,html.Screen,2_1_0_1_20,2022-02-01T12:37:16.377Z,,,,,,,,,,,,,,,,,53,,,,,,,,,,,,,,372.06399995231186,,response,,,,99,,,,,,,Space,keypress(Space),,,,,,,,---- -- ----- -- ------ - ------- --- ----------<br>------------- ------ ------ ---- ---- ------- ----- -- ----<br>-------- ------- is ---------- --- - --- ----- ----- ----<br>---- --- --- ----- --- ---- ---- ------- ----- ---- -------<br>--- --- -- ----- -- --- ---- -- --- ---- -- ------ ------<br>--- ----- -- ----,129534.20000004768,129532.79999995232,129144.13,129146.10000014305,129160.736,129545.596,,20,is
screen,html.Screen,2_1_0_1_21,2022-02-01T12:37:16.736Z,,,,,,,,,,,,,,,,,53,,,,,,,,,,,,,,345.3040000953624,,response,,,,99,,,,,,,Space,keypress(Space),,,,,,,,---- -- ----- -- ------ - ------- --- ----------<br>------------- ------ ------ ---- ---- ------- ----- -- ----<br>-------- ------- -- paramount. --- - --- ----- ----- ----<br>---- --- --- ----- --- ---- ---- ------- ----- ---- -------<br>--- --- -- ----- -- --- ---- -- --- ---- -- ------ ------<br>--- ----- -- ----,129892.5,129890.90000009537,129528.99,129534.40000009537,129545.596,129897.356,,21,paramount.
screen,html.Screen,2_1_0_1_22,2022-02-01T12:37:17.462Z,,,,,,,,,,,,,,,,,53,,,,,,,,,,,,,,719.9439999523165,,response,,,,99,,,,,,,Space,keypress(Space),,,,,,,,---- -- ----- -- ------ - ------- --- ----------<br>------------- ------ ------ ---- ---- ------- ----- -- ----<br>-------- ------- -- ---------- But - --- ----- ----- ----<br>---- --- --- ----- --- ---- ---- ------- ----- ---- -------<br>--- --- -- ----- -- --- ---- -- --- ---- -- ------ ------<br>--- ----- -- ----,130618.79999995232,130617.29999995232,129880.75,129892.70000004768,129897.356,130630.614,,22,But
screen,html.Screen,2_1_0_1_23,2022-02-01T12:37:17.811Z,,,,,,,,,,,,,,,,,53,,,,,,,,,,,,,,335.6859999523149,,response,,,,99,,,,,,,Space,keypress(Space),,,,,,,,---- -- ----- -- ------ - ------- --- ----------<br>------------- ------ ------ ---- ---- ------- ----- -- ----<br>-------- ------- -- ---------- --- a --- ----- ----- ----<br>---- --- --- ----- --- ---- ---- ------- ----- ---- -------<br>--- --- -- ----- -- --- ---- -- --- ---- -- ------ ------<br>--- ----- -- ----,130967.90000009537,130966.29999995232,130614.008,130619,130630.614,130981.845,,23,a
screen,html.Screen,2_1_0_1_24,2022-02-01T12:37:18.120Z,,,,,,,,,,,,,,,,,53,,,,,,,,,,,,,,293.65499999999884,,response,,,,99,,,,,,,Space,keypress(Space),,,,,,,,---- -- ----- -- ------ - ------- --- ----------<br>------------- ------ ------ ---- ---- ------- ----- -- ----<br>-------- ------- -- ---------- --- - new ----- ----- ----<br>---- --- --- ----- --- ---- ---- ------- ----- ---- -------<br>--- --- -- ----- -- --- ---- -- --- ---- -- ------ ------<br>--- ----- -- ----,131277,131275.5,130965.239,130968.20000004768,130981.845,131285.757,,24,new
screen,html.Screen,2_1_0_1_25,2022-02-01T12:37:18.308Z,,,,,,,,,,,,,,,,,53,,,,,,,,,,,,,,177.74299999998766,,response,,,,99,,,,,,,Space,keypress(Space),,,,,,,,---- -- ----- -- ------ - ------- --- ----------<br>------------- ------ ------ ---- ---- ------- ----- -- ----<br>-------- ------- -- ---------- --- - --- study ----- ----<br>---- --- --- ----- --- ---- ---- ------- ----- ---- -------<br>--- --- -- ----- -- --- ---- -- --- ---- -- ------ ------<br>--- ----- -- ----,131464.90000009537,131463.5,131269.151,131277.20000004768,131285.757,131470.788,,25,study
screen,html.Screen,2_1_0_1_26,2022-02-01T12:37:18.747Z,,,,,,,,,,,,,,,,,53,,,,,,,,,,,,,,431.21199999999953,,response,,,,99,,,,,,,Space,keypress(Space),,,,,,,,---- -- ----- -- ------ - ------- --- ----------<br>------------- ------ ------ ---- ---- ------- ----- -- ----<br>-------- ------- -- ---------- --- - --- ----- finds ----<br>---- --- --- ----- --- ---- ---- ------- ----- ---- -------<br>--- --- -- ----- -- --- ---- -- --- ---- -- ------ ------<br>--- ----- -- ----,131903.5,131902,131454.182,131465.20000004768,131470.788,131905.859,,26,finds
screen,html.Screen,2_1_0_1_27,2022-02-01T12:37:18.996Z,,,,,,,,,,,,,,,,,53,,,,,,,,,,,,,,245.2410001430544,,response,,,,99,,,,,,,Space,keypress(Space),,,,,,,,---- -- ----- -- ------ - ------- --- ----------<br>------------- ------ ------ ---- ---- ------- ----- -- ----<br>-------- ------- -- ---------- --- - --- ----- ----- that<br>---- --- --- ----- --- ---- ---- ------- ----- ---- -------<br>--- --- -- ----- -- --- ---- -- --- ---- -- ------ ------<br>--- ----- -- ----,132152.60000014305,132151.10000014305,131889.253,131903.70000004768,131905.859,132155.053,,27,that
screen,html.Screen,2_1_0_1_28,2022-02-01T12:37:19.185Z,,,,,,,,,,,,,,,,,53,,,,,,,,,,,,,,185.14700004766928,,response,,,,99,,,,,,,Space,keypress(Space),,,,,,,,---- -- ----- -- ------ - ------- --- ----------<br>------------- ------ ------ ---- ---- ------- ----- -- ----<br>-------- ------- -- ---------- --- - --- ----- ----- ----<br>it's --- --- ----- --- ---- ---- ------- ----- ---- -------<br>--- --- -- ----- -- --- ---- -- --- ---- -- ------ ------<br>--- ----- -- ----,132341.70000004768,132340.20000004768,132138.447,132152.79999995232,132155.053,132357.285,,28,it's
screen,html.Screen,2_1_0_1_29,2022-02-01T12:37:19.583Z,,,,,,,,,,,,,,,,,53,,,,,,,,,,,,,,381.11500009536394,,response,,,,99,,,,,,,Space,keypress(Space),,,,,,,,---- -- ----- -- ------ - ------- --- ----------<br>------------- ------ ------ ---- ---- ------- ----- -- ----<br>-------- ------- -- ---------- --- - --- ----- ----- ----<br>---- not --- ----- --- ---- ---- ------- ----- ---- -------<br>--- --- -- ----- -- --- ---- -- --- ---- -- ------ ------<br>--- ----- -- ----,132740.5,132738.40000009537,132340.679,132342,132357.285,132757.59,,29,not
screen,html.Screen,2_1_0_1_30,2022-02-01T12:37:19.822Z,,,,,,,,,,,,,,,,,53,,,,,,,,,,,,,,219.81000009537092,,response,,,,99,,,,,,,Space,keypress(Space),,,,,,,,---- -- ----- -- ------ - ------- --- ----------<br>------------- ------ ------ ---- ---- ------- ----- -- ----<br>-------- ------- -- ---------- --- - --- ----- ----- ----<br>---- --- how ----- --- ---- ---- ------- ----- ---- -------<br>--- --- -- ----- -- --- ---- -- --- ---- -- ------ ------<br>--- ----- -- ----,132978.90000009537,132977.40000009537,132740.984,132740.79999995232,132757.59,132991.335,,30,how
screen,html.Screen,2_1_0_1_31,2022-02-01T12:37:20.141Z,,,,,,,,,,,,,,,,,53,,,,,,,,,,,,,,304.7650001430593,,response,,,,99,,,,,,,Space,keypress(Space),,,,,,,,---- -- ----- -- ------ - ------- --- ----------<br>------------- ------ ------ ---- ---- ------- ----- -- ----<br>-------- ------- -- ---------- --- - --- ----- ----- ----<br>---- --- --- close --- ---- ---- ------- ----- ---- -------<br>--- --- -- ----- -- --- ---- -- --- ---- -- ------ ------<br>--- ----- -- ----,133298,133296.10000014305,132974.729,132979.20000004768,132991.335,133309.614,,31,close
screen,html.Screen,2_1_0_1_32,2022-02-01T12:37:20.509Z,,,,,,,,,,,,,,,,,53,,,,,,,,,,,,,,354.3859999999986,,response,,,,99,,,,,,,Space,keypress(Space),,,,,,,,---- -- ----- -- ------ - ------- --- ----------<br>------------- ------ ------ ---- ---- ------- ----- -- ----<br>-------- ------- -- ---------- --- - --- ----- ----- ----<br>---- --- --- ----- you ---- ---- ------- ----- ---- -------<br>--- --- -- ----- -- --- ---- -- --- ---- -- ------ ------<br>--- ----- -- ----,133666,133664,133293.008,133298.29999995232,133309.614,133676.496,,32,you
screen,html.Screen,2_1_0_1_33,2022-02-01T12:37:20.837Z,,,,,,,,,,,,,,,,,53,,,,,,,,,,,,,,316.20400004767,,response,,,,99,,,,,,,Space,keypress(Space),,,,,,,,---- -- ----- -- ------ - ------- --- ----------<br>------------- ------ ------ ---- ---- ------- ----- -- ----<br>-------- ------- -- ---------- --- - --- ----- ----- ----<br>---- --- --- ----- --- feel ---- ------- ----- ---- -------<br>--- --- -- ----- -- --- ---- -- --- ---- -- ------ ------<br>--- ----- -- ----,133993.90000009537,133992.70000004768,133659.89,133666.60000014305,133676.496,134010.743,,33,feel
screen,html.Screen,2_1_0_1_34,2022-02-01T12:37:21.156Z,,,,,,,,,,,,,,,,,53,,,,,,,,,,,,,,300.3570001430635,,response,,,,99,,,,,,,Space,keypress(Space),,,,,,,,---- -- ----- -- ------ - ------- --- ----------<br>------------- ------ ------ ---- ---- ------- ----- -- ----<br>-------- ------- -- ---------- --- - --- ----- ----- ----<br>---- --- --- ----- --- ---- that ------- ----- ---- -------<br>--- --- -- ----- -- --- ---- -- --- ---- -- ------ ------<br>--- ----- -- ----,134312.60000014305,134311.10000014305,133994.137,133994.20000004768,134010.743,134328.8,,34,that
screen,html.Screen,2_1_0_1_35,2022-02-01T12:37:21.454Z,,,,,,,,,,,,,,,,,53,,,,,,,,,,,,,,281.20000000001164,,response,,,,99,,,,,,,Space,keypress(Space),,,,,,,,---- -- ----- -- ------ - ------- --- ----------<br>------------- ------ ------ ---- ---- ------- ----- -- ----<br>-------- ------- -- ---------- --- - --- ----- ----- ----<br>---- --- --- ----- --- ---- ---- matters ----- ---- -------<br>--- --- -- ----- -- --- ---- -- --- ---- -- ------ ------<br>--- ----- -- ----,134611.29999995232,134610,134312.194,134312.79999995232,134328.8,134613.46,,35,matters
screen,html.Screen,2_1_0_1_36,2022-02-01T12:37:21.773Z,,,,,,,,,,,,,,,,,53,,,,,,,,,,,,,,315.54000000000815,,response,,,,99,,,,,,,Space,keypress(Space),,,,,,,,"---- -- ----- -- ------ - ------- --- ----------<br>------------- ------ ------ ---- ---- ------- ----- -- ----<br>-------- ------- -- ---------- --- - --- ----- ----- ----<br>---- --- --- ----- --- ---- ---- ------- most, ---- -------<br>--- --- -- ----- -- --- ---- -- --- ---- -- ------ ------<br>--- ----- -- ----",134930.40000009537,134929,134596.854,134611.70000004768,134613.46,134947.747,,36,"most,"
screen,html.Screen,2_1_0_1_37,2022-02-01T12:37:22.142Z,,,,,,,,,,,,,,,,,53,,,,,,,,,,,,,,349.252999999997,,response,,,,99,,,,,,,Space,keypress(Space),,,,,,,,---- -- ----- -- ------ - ------- --- ----------<br>------------- ------ ------ ---- ---- ------- ----- -- ----<br>-------- ------- -- ---------- --- - --- ----- ----- ----<br>---- --- --- ----- --- ---- ---- ------- ----- it's -------<br>--- --- -- ----- -- --- ---- -- --- ---- -- ------ ------<br>--- ----- -- ----,135298.79999995232,135297,134931.141,134930.70000004768,134947.747,135315.157,,37,it's
screen,html.Screen,2_1_0_1_38,2022-02-01T12:37:22.550Z,,,,,,,,,,,,,,,,,53,,,,,,,,,,,,,,390.14299995230976,,response,,,,99,,,,,,,Space,keypress(Space),,,,,,,,---- -- ----- -- ------ - ------- --- ----------<br>------------- ------ ------ ---- ---- ------- ----- -- ----<br>-------- ------- -- ---------- --- - --- ----- ----- ----<br>---- --- --- ----- --- ---- ---- ------- ----- ---- whether<br>--- --- -- ----- -- --- ---- -- --- ---- -- ------ ------<br>--- ----- -- ----,135706.90000009537,135705.29999995232,135298.551,135299.10000014305,135315.157,135715.863,,38,whether
screen,html.Screen,2_1_0_1_39,2022-02-01T12:37:22.849Z,,,,,,,,,,,,,,,,,53,,,,,,,,,,,,,,288.4369999523042,,response,,,,99,,,,,,,Space,keypress(Space),,,,,,,,---- -- ----- -- ------ - ------- --- ----------<br>------------- ------ ------ ---- ---- ------- ----- -- ----<br>-------- ------- -- ---------- --- - --- ----- ----- ----<br>---- --- --- ----- --- ---- ---- ------- ----- ---- -------<br>you --- -- ----- -- --- ---- -- --- ---- -- ------ ------<br>--- ----- -- ----,136006,136004.29999995232,135699.257,135707.10000014305,135715.863,136017.282,,39,you
screen,html.Screen,2_1_0_1_40,2022-02-01T12:37:23.327Z,,,,,,,,,,,,,,,,,53,,,,,,,,,,,,,,464.9180000476772,,response,,,,99,,,,,,,Space,keypress(Space),,,,,,,,---- -- ----- -- ------ - ------- --- ----------<br>------------- ------ ------ ---- ---- ------- ----- -- ----<br>-------- ------- -- ---------- --- - --- ----- ----- ----<br>---- --- --- ----- --- ---- ---- ------- ----- ---- -------<br>--- are -- ----- -- --- ---- -- --- ---- -- ------ ------<br>--- ----- -- ----,136483.70000004768,136482.20000004768,136000.676,136006.29999995232,136017.282,136485.015,,40,are
screen,html.Screen,2_1_0_1_41,2022-02-01T12:37:23.685Z,,,,,,,,,,,,,,,,,53,,,,,,,,,,,,,,355.2849999523023,,response,,,,99,,,,,,,Space,keypress(Space),,,,,,,,---- -- ----- -- ------ - ------- --- ----------<br>------------- ------ ------ ---- ---- ------- ----- -- ----<br>-------- ------- -- ---------- --- - --- ----- ----- ----<br>---- --- --- ----- --- ---- ---- ------- ----- ---- -------<br>--- --- as ----- -- --- ---- -- --- ---- -- ------ ------<br>--- ----- -- ----,136841.70000004768,136840.29999995232,136468.409,136483.90000009537,136485.015,136852.417,,41,as
screen,html.Screen,2_1_0_1_42,2022-02-01T12:37:24.073Z,,,,,,,,,,,,,,,,,53,,,,,,,,,,,,,,376.58300000001327,,response,,,,99,,,,,,,Space,keypress(Space),,,,,,,,---- -- ----- -- ------ - ------- --- ----------<br>------------- ------ ------ ---- ---- ------- ----- -- ----<br>-------- ------- -- ---------- --- - --- ----- ----- ----<br>---- --- --- ----- --- ---- ---- ------- ----- ---- -------<br>--- --- -- close -- --- ---- -- --- ---- -- ------ ------<br>--- ----- -- ----,137230.40000009537,137229,136835.811,136842,136852.417,137237.647,,42,close
screen,html.Screen,2_1_0_1_43,2022-02-01T12:37:24.442Z,,,,,,,,,,,,,,,,,53,,,,,,,,,,,,,,359.3530000000028,,response,,,,99,,,,,,,Space,keypress(Space),,,,,,,,---- -- ----- -- ------ - ------- --- ----------<br>------------- ------ ------ ---- ---- ------- ----- -- ----<br>-------- ------- -- ---------- --- - --- ----- ----- ----<br>---- --- --- ----- --- ---- ---- ------- ----- ---- -------<br>--- --- -- ----- as --- ---- -- --- ---- -- ------ ------<br>--- ----- -- ----,137598.60000014305,137597,137221.041,137230.70000004768,137237.647,137605.4,,43,as
screen,html.Screen,2_1_0_1_44,2022-02-01T12:37:24.700Z,,,,,,,,,,,,,,,,,53,,,,,,,,,,,,,,250.30000004768954,,response,,,,99,,,,,,,Space,keypress(Space),,,,,,,,---- -- ----- -- ------ - ------- --- ----------<br>------------- ------ ------ ---- ---- ------- ----- -- ----<br>-------- ------- -- ---------- --- - --- ----- ----- ----<br>---- --- --- ----- --- ---- ---- ------- ----- ---- -------<br>--- --- -- ----- -- you ---- -- --- ---- -- ------ ------<br>--- ----- -- ----,137857.20000004768,137855.70000004768,137588.794,137599,137605.4,137873.729,,44,you
screen,html.Screen,2_1_0_1_45,2022-02-01T12:37:25.029Z,,,,,,,,,,,,,,,,,53,,,,,,,,,,,,,,310.47100004769163,,response,,,,99,,,,,,,Space,keypress(Space),,,,,,,,---- -- ----- -- ------ - ------- --- ----------<br>------------- ------ ------ ---- ---- ------- ----- -- ----<br>-------- ------- -- ---------- --- - --- ----- ----- ----<br>---- --- --- ----- --- ---- ---- ------- ----- ---- -------<br>--- --- -- ----- -- --- want -- --- ---- -- ------ ------<br>--- ----- -- ----,138185.90000009537,138184.20000004768,137857.123,137857.40000009537,137873.729,138191.726,,45,want
screen,html.Screen,2_1_0_1_46,2022-02-01T12:37:25.298Z,,,,,,,,,,,,,,,,,53,,,,,,,,,,,,,,261.4740000476886,,response,,,,99,,,,,,,Space,keypress(Space),,,,,,,,---- -- ----- -- ------ - ------- --- ----------<br>------------- ------ ------ ---- ---- ------- ----- -- ----<br>-------- ------- -- ---------- --- - --- ----- ----- ----<br>---- --- --- ----- --- ---- ---- ------- ----- ---- -------<br>--- --- -- ----- -- --- ---- to --- ---- -- ------ ------<br>--- ----- -- ----,138454.60000014305,138453.20000004768,138175.12,138186.20000004768,138191.726,138459.303,,46,to
screen,html.Screen,2_1_0_1_47,2022-02-01T12:37:25.527Z,,,,,,,,,,,,,,,,,53,,,,,,,,,,,,,,223.2970001430367,,response,,,,99,,,,,,,Space,keypress(Space),,,,,,,,"---- -- ----- -- ------ - ------- --- ----------<br>------------- ------ ------ ---- ---- ------- ----- -- ----<br>-------- ------- -- ---------- --- - --- ----- ----- ----<br>---- --- --- ----- --- ---- ---- ------- ----- ---- -------<br>--- --- -- ----- -- --- ---- -- be, ---- -- ------ ------<br>--- ----- -- ----",138684,138682.60000014305,138442.697,138454.79999995232,138459.303,138694.053,,47,"be,"
screen,html.Screen,2_1_0_1_48,2022-02-01T12:37:26.013Z,,,,,,,,,,,,,,,,,53,,,,,,,,,,,,,,474.94699999998556,,response,,,,99,,,,,,,Space,keypress(Space),,,,,,,,---- -- ----- -- ------ - ------- --- ----------<br>------------- ------ ------ ---- ---- ------- ----- -- ----<br>-------- ------- -- ---------- --- - --- ----- ----- ----<br>---- --- --- ----- --- ---- ---- ------- ----- ---- -------<br>--- --- -- ----- -- --- ---- -- --- even -- ------ ------<br>--- ----- -- ----,139170.29999995232,139169,138677.447,138684.29999995232,138694.053,139178.774,,48,even
screen,html.Screen,2_1_0_1_49,2022-02-01T12:37:26.324Z,,,,,,,,,,,,,,,,,53,,,,,,,,,,,,,,300.32600014304626,,response,,,,99,,,,,,,Space,keypress(Space),,,,,,,,---- -- ----- -- ------ - ------- --- ----------<br>------------- ------ ------ ---- ---- ------- ----- -- ----<br>-------- ------- -- ---------- --- - --- ----- ----- ----<br>---- --- --- ----- --- ---- ---- ------- ----- ---- -------<br>--- --- -- ----- -- --- ---- -- --- ---- if ------ ------<br>--- ----- -- ----,139480.5,139479.10000014305,139162.168,139170.70000004768,139178.774,139497.592,,49,if
screen,html.Screen,2_1_0_1_50,2022-02-01T12:37:26.722Z,,,,,,,,,,,,,,,,,53,,,,,,,,,,,,,,380.50800014304696,,response,,,,99,,,,,,,Space,keypress(Space),,,,,,,,---- -- ----- -- ------ - ------- --- ----------<br>------------- ------ ------ ---- ---- ------- ----- -- ----<br>-------- ------- -- ---------- --- - --- ----- ----- ----<br>---- --- --- ----- --- ---- ---- ------- ----- ---- -------<br>--- --- -- ----- -- --- ---- -- --- ---- -- that's ------<br>--- ----- -- ----,139879.40000009537,139878.10000014305,139480.986,139480.79999995232,139497.592,139896.317,,50,that's
screen,html.Screen,2_1_0_1_51,2022-02-01T12:37:27.070Z,,,,,,,,,,,,,,,,,53,,,,,,,,,,,,,,328.9829999523063,,response,,,,99,,,,,,,Space,keypress(Space),,,,,,,,---- -- ----- -- ------ - ------- --- ----------<br>------------- ------ ------ ---- ---- ------- ----- -- ----<br>-------- ------- -- ---------- --- - --- ----- ----- ----<br>---- --- --- ----- --- ---- ---- ------- ----- ---- -------<br>--- --- -- ----- -- --- ---- -- --- ---- -- ------ really<br>--- ----- -- ----,140226.79999995232,140225.29999995232,139879.711,139879.70000004768,139896.317,140231.104,,51,really
screen,html.Screen,2_1_0_1_52,2022-02-01T12:37:27.448Z,,,,,,,,,,,,,,,,,53,,,,,,,,,,,,,,372.1959999523242,,response,,,,99,,,,,,,Space,keypress(Space),,,,,,,,---- -- ----- -- ------ - ------- --- ----------<br>------------- ------ ------ ---- ---- ------- ----- -- ----<br>-------- ------- -- ---------- --- - --- ----- ----- ----<br>---- --- --- ----- --- ---- ---- ------- ----- ---- -------<br>--- --- -- ----- -- --- ---- -- --- ---- -- ------ ------<br>not ----- -- ----,140604.60000014305,140603.29999995232,140214.498,140227.10000014305,140231.104,140615.335,,52,not
screen,html.Screen,2_1_0_1_53,2022-02-01T12:37:27.777Z,,,,,,,,,,,,,,,,,53,,,,,,,,,,,,,,316.7650001430593,,response,,,,99,,,,,,,Space,keypress(Space),,,,,,,,---- -- ----- -- ------ - ------- --- ----------<br>------------- ------ ------ ---- ---- ------- ----- -- ----<br>-------- ------- -- ---------- --- - --- ----- ----- ----<br>---- --- --- ----- --- ---- ---- ------- ----- ---- -------<br>--- --- -- ----- -- --- ---- -- --- ---- -- ------ ------<br>--- close -- ----,140933.79999995232,140932.10000014305,140598.729,140604.79999995232,140615.335,140949.846,,53,close
screen,html.Screen,2_1_0_1_54,2022-02-01T12:37:28.174Z,,,,,,,,,,,,,,,,,53,,,,,,,,,,,,,,379.45399995232583,,response,,,,99,,,,,,,Space,keypress(Space),,,,,,,,---- -- ----- -- ------ - ------- --- ----------<br>------------- ------ ------ ---- ---- ------- ----- -- ----<br>-------- ------- -- ---------- --- - --- ----- ----- ----<br>---- --- --- ----- --- ---- ---- ------- ----- ---- -------<br>--- --- -- ----- -- --- ---- -- --- ---- -- ------ ------<br>--- ----- at ----,141330.70000004768,141329.29999995232,140933.24,140934,140949.846,141334.313,,54,at
screen,html.Screen,2_1_0_1_55,2022-02-01T12:37:28.593Z,,,,,,,,,,,,,,,,,53,,,,,,,,,,,,,,414.0870000953728,,response,,,,99,,,,,,,Space,keypress(Space),,,,,,,,---- -- ----- -- ------ - ------- --- ----------<br>------------- ------ ------ ---- ---- ------- ----- -- ----<br>-------- ------- -- ---------- --- - --- ----- ----- ----<br>---- --- --- ----- --- ---- ---- ------- ----- ---- -------<br>--- --- -- ----- -- --- ---- -- --- ---- -- ------ ------<br>--- ----- -- all.,141749.79999995232,141748.40000009537,141317.707,141331,141334.313,141768.366,,55,all.
Item 99,flow.Loop,2_1_0_1,2022-02-01T12:37:28.593Z,,,,,,,,,,,,,,,,,,,,,,,,,,,,,,,23564.180000095366,,completion,,,,,B,,,,,,,,,,,silence,,,,,141750.40000009537,141748.40000009537,118151.008,118155.20000004768,118184.22,141768.366,,,
Question 1,html.Screen,2_1_0_2,2022-02-01T12:37:32.035Z,,,,,,,,,,,,,,,,,,,,,,,,,,,,true,FALSE,,3421.5340000953584,,response,,,,99,B,,,,,,FALSE,click #choice-2,,,,silence,,,,,145191.5,145189.90000009537,141751.76,141750.70000004768,141768.366,145196.259,,,
Question 2,html.Screen,2_1_0_3,2022-02-01T12:37:34.870Z,,,,,,,,,,,,,,,,,,,,,,,,,,,,true,TRUE,,2828.441000047693,,response,,,,99,B,,,,,,TRUE,click #choice-1,,,,silence,,,,,148026.60000014305,148024.70000004768,145179.653,145191.70000004768,145196.259,148039.848,,,
Item 99,flow.Sequence,2_1_0,2022-02-01T12:37:34.870Z,,,,,,,,,,,,,,,,,,,,,,,,,,,,,,,39855.51700004768,,completion,,,,,,,,,,,,,,,,,,,,,148027,148024.70000004768,108152.577,108168.79999995232,108169.183,148039.848,,,
Holding screen,html.Screen,2_1_1_0,2022-02-01T12:37:44.865Z,,,,,,,,,,,,,,,,,,,,,,,,,,,,,,,9996.171999999991,,timeout,,,,,,,,,,,,,,,,,,,,,158021.29999995232,158019.414,148023.242,148027.40000009537,148039.848,158036.02,,,
screen,html.Screen,2_1_1_1_0,2022-02-01T12:37:46.556Z,,,,,,,,,,,,,,,,,54,,,,,,,,,,,,,,1675.380000095378,,response,,,,100,,,,,,,Space,keypress(Space),,,,,,,,At --- ---- --- ------ ----- ------- ---- -- --- ------- --<br>------- ---------- ------ -- ----- -- ----- -- ---- ------<br>--- ----- --- --- ------ -------- ----- --- ------ ----- --<br>----- ----- ---------- --- --- ------ ------ ---- -- ------<br>------- --- ------ ----- --- ---- ------- -- ---- --- --<br>------- ------,159713.20000004768,159711.40000009537,158019.414,158021.60000014305,158036.02,159720.068,,0,At
screen,html.Screen,2_1_1_1_1,2022-02-01T12:37:46.933Z,,,,,,,,,,,,,,,,,54,,,,,,,,,,,,,,368.6320000476844,,response,,,,100,,,,,,,Space,keypress(Space),,,,,,,,-- the ---- --- ------ ----- ------- ---- -- --- ------- --<br>------- ---------- ------ -- ----- -- ----- -- ---- ------<br>--- ----- --- --- ------ -------- ----- --- ------ ----- --<br>----- ----- ---------- --- --- ------ ------ ---- -- ------<br>------- --- ------ ----- --- ---- ------- -- ---- --- --<br>------- ------,160090,160088.70000004768,159703.462,159713.40000009537,159720.068,160102.094,,1,the
screen,html.Screen,2_1_1_1_2,2022-02-01T12:37:47.292Z,,,,,,,,,,,,,,,,,54,,,,,,,,,,,,,,345.0060001430393,,response,,,,100,,,,,,,Space,keypress(Space),,,,,,,,-- --- time --- ------ ----- ------- ---- -- --- ------- --<br>------- ---------- ------ -- ----- -- ----- -- ---- ------<br>--- ----- --- --- ------ -------- ----- --- ------ ----- --<br>----- ----- ---------- --- --- ------ ------ ---- -- ------<br>------- --- ------ ----- --- ---- ------- -- ---- --- --<br>------- ------,160448.40000009537,160447.10000014305,160085.488,160090.20000004768,160102.094,160462.597,,2,time
screen,html.Screen,2_1_1_1_3,2022-02-01T12:37:47.581Z,,,,,,,,,,,,,,,,,54,,,,,,,,,,,,,,273.70299995230744,,response,,,,100,,,,,,,Space,keypress(Space),,,,,,,,-- --- ---- the ------ ----- ------- ---- -- --- ------- --<br>------- ---------- ------ -- ----- -- ----- -- ---- ------<br>--- ----- --- --- ------ -------- ----- --- ------ ----- --<br>----- ----- ---------- --- --- ------ ------ ---- -- ------<br>------- --- ------ ----- --- ---- ------- -- ---- --- --<br>------- ------,160737.5,160736.29999995232,160445.991,160448.60000014305,160462.597,160747.335,,3,the
screen,html.Screen,2_1_1_1_4,2022-02-01T12:37:47.830Z,,,,,,,,,,,,,,,,,54,,,,,,,,,,,,,,237.56500009537558,,response,,,,100,,,,,,,Space,keypress(Space),,,,,,,,-- --- ---- --- French ----- ------- ---- -- --- ------- --<br>------- ---------- ------ -- ----- -- ----- -- ---- ------<br>--- ----- --- --- ------ -------- ----- --- ------ ----- --<br>----- ----- ---------- --- --- ------ ------ ---- -- ------<br>------- --- ------ ----- --- ---- ------- -- ---- --- --<br>------- ------,160986.40000009537,160984.90000009537,160730.729,160737.79999995232,160747.335,160998.906,,4,French
screen,html.Screen,2_1_1_1_5,2022-02-01T12:37:48.148Z,,,,,,,,,,,,,,,,,54,,,,,,,,,,,,,,304.4940000953793,,response,,,,100,,,,,,,Space,keypress(Space),,,,,,,,-- --- ---- --- ------ crown ------- ---- -- --- ------- --<br>------- ---------- ------ -- ----- -- ----- -- ---- ------<br>--- ----- --- --- ------ -------- ----- --- ------ ----- --<br>----- ----- ---------- --- --- ------ ------ ---- -- ------<br>------- --- ------ ----- --- ---- ------- -- ---- --- --<br>------- ------,161304.5,161303.40000009537,160982.3,160986.60000014305,160998.906,161316.363,,5,crown
screen,html.Screen,2_1_1_1_6,2022-02-01T12:37:48.408Z,,,,,,,,,,,,,,,,,54,,,,,,,,,,,,,,247.1369999999879,,response,,,,100,,,,,,,Space,keypress(Space),,,,,,,,-- --- ---- --- ------ ----- secured ---- -- --- ------- --<br>------- ---------- ------ -- ----- -- ----- -- ---- ------<br>--- ----- --- --- ------ -------- ----- --- ------ ----- --<br>----- ----- ---------- --- --- ------ ------ ---- -- ------<br>------- --- ------ ----- --- ---- ------- -- ---- --- --<br>------- ------,161564.90000009537,161563.5,161299.757,161304.70000004768,161316.363,161567.156,,6,secured
screen,html.Screen,2_1_1_1_7,2022-02-01T12:37:48.825Z,,,,,,,,,,,,,,,,,54,,,,,,,,,,,,,,413.8440000000119,,response,,,,100,,,,,,,Space,keypress(Space),,,,,,,,-- --- ---- --- ------ ----- ------- much -- --- ------- --<br>------- ---------- ------ -- ----- -- ----- -- ---- ------<br>--- ----- --- --- ------ -------- ----- --- ------ ----- --<br>----- ----- ---------- --- --- ------ ------ ---- -- ------<br>------- --- ------ ----- --- ---- ------- -- ---- --- --<br>------- ------,161982.20000004768,161981,161550.55,161565.10000014305,161567.156,161984.494,,7,much
screen,html.Screen,2_1_1_1_8,2022-02-01T12:37:49.114Z,,,,,,,,,,,,,,,,,54,,,,,,,,,,,,,,284.70600004767766,,response,,,,100,,,,,,,Space,keypress(Space),,,,,,,,-- --- ---- --- ------ ----- ------- ---- of --- ------- --<br>------- ---------- ------ -- ----- -- ----- -- ---- ------<br>--- ----- --- --- ------ -------- ----- --- ------ ----- --<br>----- ----- ---------- --- --- ------ ------ ---- -- ------<br>------- --- ------ ----- --- ---- ------- -- ---- --- --<br>------- ------,162270.70000004768,162269.20000004768,161967.888,161982.40000009537,161984.494,162285.198,,8,of
screen,html.Screen,2_1_1_1_9,2022-02-01T12:37:49.453Z,,,,,,,,,,,,,,,,,54,,,,,,,,,,,,,,323.00200004767976,,response,,,,100,,,,,,,Space,keypress(Space),,,,,,,,-- --- ---- --- ------ ----- ------- ---- -- its ------- --<br>------- ---------- ------ -- ----- -- ----- -- ---- ------<br>--- ----- --- --- ------ -------- ----- --- ------ ----- --<br>----- ----- ---------- --- --- ------ ------ ---- -- ------<br>------- --- ------ ----- --- ---- ------- -- ---- --- --<br>------- ------,162609.79999995232,162608.20000004768,162268.592,162271,162285.198,162620.188,,9,its
screen,html.Screen,2_1_1_1_10,2022-02-01T12:37:49.801Z,,,,,,,,,,,,,,,,,54,,,,,,,,,,,,,,335.81200000000536,,response,,,,100,,,,,,,Space,keypress(Space),,,,,,,,-- --- ---- --- ------ ----- ------- ---- -- --- revenue --<br>------- ---------- ------ -- ----- -- ----- -- ---- ------<br>--- ----- --- --- ------ -------- ----- --- ------ ----- --<br>----- ----- ---------- --- --- ------ ------ ---- -- ------<br>------- --- ------ ----- --- ---- ------- -- ---- --- --<br>------- ------,162957.5,162956,162603.582,162610,162620.188,162970.901,,10,revenue
screen,html.Screen,2_1_1_1_11,2022-02-01T12:37:50.280Z,,,,,,,,,,,,,,,,,54,,,,,,,,,,,,,,463.99900009535486,,response,,,,100,,,,,,,Space,keypress(Space),,,,,,,,-- --- ---- --- ------ ----- ------- ---- -- --- ------- by<br>------- ---------- ------ -- ----- -- ----- -- ---- ------<br>--- ----- --- --- ------ -------- ----- --- ------ ----- --<br>----- ----- ---------- --- --- ------ ------ ---- -- ------<br>------- --- ------ ----- --- ---- ------- -- ---- --- --<br>------- ------,163436.60000014305,163434.90000009537,162954.295,162957.79999995232,162970.901,163438.143,,11,by
screen,html.Screen,2_1_1_1_12,2022-02-01T12:37:50.558Z,,,,,,,,,,,,,,,,,54,,,,,,,,,,,,,,275.0570000476728,,response,,,,100,,,,,,,Space,keypress(Space),,,,,,,,-- --- ---- --- ------ ----- ------- ---- -- --- ------- --<br>issuing ---------- ------ -- ----- -- ----- -- ---- ------<br>--- ----- --- --- ------ -------- ----- --- ------ ----- --<br>----- ----- ---------- --- --- ------ ------ ---- -- ------<br>------- --- ------ ----- --- ---- ------- -- ---- --- --<br>------- ------,163714.79999995232,163713.20000004768,163421.537,163436.79999995232,163438.143,163722.777,,12,issuing
screen,html.Screen,2_1_1_1_13,2022-02-01T12:37:50.947Z,,,,,,,,,,,,,,,,,54,,,,,,,,,,,,,,378.42300004768185,,response,,,,100,,,,,,,Space,keypress(Space),,,,,,,,-- --- ---- --- ------ ----- ------- ---- -- --- ------- --<br>------- government ------ -- ----- -- ----- -- ---- ------<br>--- ----- --- --- ------ -------- ----- --- ------ ----- --<br>----- ----- ---------- --- --- ------ ------ ---- -- ------<br>------- --- ------ ----- --- ---- ------- -- ---- --- --<br>------- ------,164103.29999995232,164101.20000004768,163706.171,163715,163722.777,164108.126,,13,government
screen,html.Screen,2_1_1_1_14,2022-02-01T12:37:51.354Z,,,,,,,,,,,,,,,,,54,,,,,,,,,,,,,,401.8740000000107,,response,,,,100,,,,,,,Space,keypress(Space),,,,,,,,-- --- ---- --- ------ ----- ------- ---- -- --- ------- --<br>------- ---------- bonds. -- ----- -- ----- -- ---- ------<br>--- ----- --- --- ------ -------- ----- --- ------ ----- --<br>----- ----- ---------- --- --- ------ ------ ---- -- ------<br>------- --- ------ ----- --- ---- ------- -- ---- --- --<br>------- ------,164511.20000004768,164510,164091.52,164103.5,164108.126,164525.029,,14,bonds.
screen,html.Screen,2_1_1_1_15,2022-02-01T12:37:51.722Z,,,,,,,,,,,,,,,,,54,,,,,,,,,,,,,,352.3710000953579,,response,,,,100,,,,,,,Space,keypress(Space),,,,,,,,-- --- ---- --- ------ ----- ------- ---- -- --- ------- --<br>------- ---------- ------ In ----- -- ----- -- ---- ------<br>--- ----- --- --- ------ -------- ----- --- ------ ----- --<br>----- ----- ---------- --- --- ------ ------ ---- -- ------<br>------- --- ------ ----- --- ---- ------- -- ---- --- --<br>------- ------,164879.10000014305,164877.40000009537,164508.423,164511.40000009537,164525.029,164893.183,,15,In
screen,html.Screen,2_1_1_1_16,2022-02-01T12:37:51.981Z,,,,,,,,,,,,,,,,,54,,,,,,,,,,,,,,243.41700014306116,,response,,,,100,,,,,,,Space,keypress(Space),,,,,,,,"-- --- ---- --- ------ ----- ------- ---- -- --- ------- --<br>------- ---------- ------ -- 1727, -- ----- -- ---- ------<br>--- ----- --- --- ------ -------- ----- --- ------ ----- --<br>----- ----- ---------- --- --- ------ ------ ---- -- ------<br>------- --- ------ ----- --- ---- ------- -- ---- --- --<br>------- ------",165138.10000014305,165136.60000014305,164876.577,164879.29999995232,164893.183,165145.01,,16,"1727,"
screen,html.Screen,2_1_1_1_17,2022-02-01T12:37:52.549Z,,,,,,,,,,,,,,,,,54,,,,,,,,,,,,,,559.3900000953581,,response,,,,100,,,,,,,Space,keypress(Space),,,,,,,,-- --- ---- --- ------ ----- ------- ---- -- --- ------- --<br>------- ---------- ------ -- ----- in ----- -- ---- ------<br>--- ----- --- --- ------ -------- ----- --- ------ ----- --<br>----- ----- ---------- --- --- ------ ------ ---- -- ------<br>------- --- ------ ----- --- ---- ------- -- ---- --- --<br>------- ------,165705.90000009537,165704.40000009537,165128.404,165138.40000009537,165145.01,165712.066,,17,in
screen,html.Screen,2_1_1_1_18,2022-02-01T12:37:52.957Z,,,,,,,,,,,,,,,,,54,,,,,,,,,,,,,,400.6340000476921,,response,,,,100,,,,,,,Space,keypress(Space),,,,,,,,-- --- ---- --- ------ ----- ------- ---- -- --- ------- --<br>------- ---------- ------ -- ----- -- order -- ---- ------<br>--- ----- --- --- ------ -------- ----- --- ------ ----- --<br>----- ----- ---------- --- --- ------ ------ ---- -- ------<br>------- --- ------ ----- --- ---- ------- -- ---- --- --<br>------- ------,166114.10000014305,166112.70000004768,165695.46,165706.29999995232,165712.066,166129.114,,18,order
screen,html.Screen,2_1_1_1_19,2022-02-01T12:37:53.317Z,,,,,,,,,,,,,,,,,54,,,,,,,,,,,,,,342.78600009536603,,response,,,,100,,,,,,,Space,keypress(Space),,,,,,,,-- --- ---- --- ------ ----- ------- ---- -- --- ------- --<br>------- ---------- ------ -- ----- -- ----- to ---- ------<br>--- ----- --- --- ------ -------- ----- --- ------ ----- --<br>----- ----- ---------- --- --- ------ ------ ---- -- ------<br>------- --- ------ ----- --- ---- ------- -- ---- --- --<br>------- ------,166473.29999995232,166471.90000009537,166112.508,166114.40000009537,166129.114,166481.749,,19,to
screen,html.Screen,2_1_1_1_20,2022-02-01T12:37:53.655Z,,,,,,,,,,,,,,,,,54,,,,,,,,,,,,,,328.1510000953567,,response,,,,100,,,,,,,Space,keypress(Space),,,,,,,,-- --- ---- --- ------ ----- ------- ---- -- --- ------- --<br>------- ---------- ------ -- ----- -- ----- -- save ------<br>--- ----- --- --- ------ -------- ----- --- ------ ----- --<br>----- ----- ---------- --- --- ------ ------ ---- -- ------<br>------- --- ------ ----- --- ---- ------- -- ---- --- --<br>------- ------,166811.40000009537,166809.90000009537,166465.143,166473.60000014305,166481.749,166816.61,,20,save
screen,html.Screen,2_1_1_1_21,2022-02-01T12:37:53.993Z,,,,,,,,,,,,,,,,,54,,,,,,,,,,,,,,331.7900000953814,,response,,,,100,,,,,,,Space,keypress(Space),,,,,,,,"-- --- ---- --- ------ ----- ------- ---- -- --- ------- --<br>------- ---------- ------ -- ----- -- ----- -- ---- money,<br>--- ----- --- --- ------ -------- ----- --- ------ ----- --<br>----- ----- ---------- --- --- ------ ------ ---- -- ------<br>------- --- ------ ----- --- ---- ------- -- ---- --- --<br>------- ------",167149.90000009537,167148.40000009537,166800.004,166811.60000014305,166816.61,167167.721,,21,"money,"
screen,html.Screen,2_1_1_1_22,2022-02-01T12:37:54.521Z,,,,,,,,,,,,,,,,,54,,,,,,,,,,,,,,508.47900004769326,,response,,,,100,,,,,,,Space,keypress(Space),,,,,,,,-- --- ---- --- ------ ----- ------- ---- -- --- ------- --<br>------- ---------- ------ -- ----- -- ----- -- ---- ------<br>the ----- --- --- ------ -------- ----- --- ------ ----- --<br>----- ----- ---------- --- --- ------ ------ ---- -- ------<br>------- --- ------ ----- --- ---- ------- -- ---- --- --<br>------- ------,167677.60000014305,167676.20000004768,167151.115,167150.29999995232,167167.721,167684.961,,22,the
screen,html.Screen,2_1_1_1_23,2022-02-01T12:37:54.839Z,,,,,,,,,,,,,,,,,54,,,,,,,,,,,,,,309.73900004767347,,response,,,,100,,,,,,,Space,keypress(Space),,,,,,,,-- --- ---- --- ------ ----- ------- ---- -- --- ------- --<br>------- ---------- ------ -- ----- -- ----- -- ---- ------<br>--- state --- --- ------ -------- ----- --- ------ ----- --<br>----- ----- ---------- --- --- ------ ------ ---- -- ------<br>------- --- ------ ----- --- ---- ------- -- ---- --- --<br>------- ------,167996.20000004768,167994.70000004768,167668.355,167677.90000009537,167684.961,168002.75,,23,state
screen,html.Screen,2_1_1_1_24,2022-02-01T12:37:55.138Z,,,,,,,,,,,,,,,,,54,,,,,,,,,,,,,,290.65000009536743,,response,,,,100,,,,,,,Space,keypress(Space),,,,,,,,-- --- ---- --- ------ ----- ------- ---- -- --- ------- --<br>------- ---------- ------ -- ----- -- ----- -- ---- ------<br>--- ----- cut --- ------ -------- ----- --- ------ ----- --<br>----- ----- ---------- --- --- ------ ------ ---- -- ------<br>------- --- ------ ----- --- ---- ------- -- ---- --- --<br>------- ------,168294.90000009537,168293.40000009537,167986.144,167996.40000009537,168002.75,168305.311,,24,cut
screen,html.Screen,2_1_1_1_25,2022-02-01T12:37:55.508Z,,,,,,,,,,,,,,,,,54,,,,,,,,,,,,,,356.68900000001304,,response,,,,100,,,,,,,Space,keypress(Space),,,,,,,,-- --- ---- --- ------ ----- ------- ---- -- --- ------- --<br>------- ---------- ------ -- ----- -- ----- -- ---- ------<br>--- ----- --- the ------ -------- ----- --- ------ ----- --<br>----- ----- ---------- --- --- ------ ------ ---- -- ------<br>------- --- ------ ----- --- ---- ------- -- ---- --- --<br>------- ------,168665,168662,168288.705,168295.10000014305,168305.311,168672.701,,25,the
screen,html.Screen,2_1_1_1_26,2022-02-01T12:37:55.825Z,,,,,,,,,,,,,,,,,54,,,,,,,,,,,,,,307.8990001430502,,response,,,,100,,,,,,,Space,keypress(Space),,,,,,,,-- --- ---- --- ------ ----- ------- ---- -- --- ------- --<br>------- ---------- ------ -- ----- -- ----- -- ---- ------<br>--- ----- --- --- bonds' -------- ----- --- ------ ----- --<br>----- ----- ---------- --- --- ------ ------ ---- -- ------<br>------- --- ------ ----- --- ---- ------- -- ---- --- --<br>------- ------,168981.90000009537,168980.60000014305,168656.095,168665.29999995232,168672.701,168990.246,,26,bonds'
screen,html.Screen,2_1_1_1_27,2022-02-01T12:37:56.204Z,,,,,,,,,,,,,,,,,54,,,,,,,,,,,,,,368.45400004767,,response,,,,100,,,,,,,Space,keypress(Space),,,,,,,,-- --- ---- --- ------ ----- ------- ---- -- --- ------- --<br>------- ---------- ------ -- ----- -- ----- -- ---- ------<br>--- ----- --- --- ------ interest ----- --- ------ ----- --<br>----- ----- ---------- --- --- ------ ------ ---- -- ------<br>------- --- ------ ----- --- ---- ------- -- ---- --- --<br>------- ------,169360.29999995232,169358.70000004768,168973.64,168982.20000004768,168990.246,169374.714,,27,interest
screen,html.Screen,2_1_1_1_28,2022-02-01T12:37:56.463Z,,,,,,,,,,,,,,,,,54,,,,,,,,,,,,,,243.4860000476765,,response,,,,100,,,,,,,Space,keypress(Space),,,,,,,,-- --- ---- --- ------ ----- ------- ---- -- --- ------- --<br>------- ---------- ------ -- ----- -- ----- -- ---- ------<br>--- ----- --- --- ------ -------- rate. --- ------ ----- --<br>----- ----- ---------- --- --- ------ ------ ---- -- ------<br>------- --- ------ ----- --- ---- ------- -- ---- --- --<br>------- ------,169619.5,169618.20000004768,169358.108,169360.5,169374.714,169625.952,,28,rate.
screen,html.Screen,2_1_1_1_29,2022-02-01T12:37:56.791Z,,,,,,,,,,,,,,,,,54,,,,,,,,,,,,,,320.9480000953772,,response,,,,100,,,,,,,Space,keypress(Space),,,,,,,,-- --- ---- --- ------ ----- ------- ---- -- --- ------- --<br>------- ---------- ------ -- ----- -- ----- -- ---- ------<br>--- ----- --- --- ------ -------- ----- The ------ ----- --<br>----- ----- ---------- --- --- ------ ------ ---- -- ------<br>------- --- ------ ----- --- ---- ------- -- ---- --- --<br>------- ------,169948.10000014305,169946.90000009537,169609.346,169619.79999995232,169625.952,169960.674,,29,The
screen,html.Screen,2_1_1_1_30,2022-02-01T12:37:57.010Z,,,,,,,,,,,,,,,,,54,,,,,,,,,,,,,,204.32600000000093,,response,,,,100,,,,,,,Space,keypress(Space),,,,,,,,-- --- ---- --- ------ ----- ------- ---- -- --- ------- --<br>------- ---------- ------ -- ----- -- ----- -- ---- ------<br>--- ----- --- --- ------ -------- ----- --- market ----- --<br>----- ----- ---------- --- --- ------ ------ ---- -- ------<br>------- --- ------ ----- --- ---- ------- -- ---- --- --<br>------- ------,170166.5,170165,169944.068,169948.40000009537,169960.674,170178.434,,30,market
screen,html.Screen,2_1_1_1_31,2022-02-01T12:37:57.369Z,,,,,,,,,,,,,,,,,54,,,,,,,,,,,,,,345.8659999523079,,response,,,,100,,,,,,,Space,keypress(Space),,,,,,,,-- --- ---- --- ------ ----- ------- ---- -- --- ------- --<br>------- ---------- ------ -- ----- -- ----- -- ---- ------<br>--- ----- --- --- ------ -------- ----- --- ------ value --<br>----- ----- ---------- --- --- ------ ------ ---- -- ------<br>------- --- ------ ----- --- ---- ------- -- ---- --- --<br>------- ------,170525.70000004768,170524.29999995232,170161.828,170166.70000004768,170178.434,170529.37,,31,value
screen,html.Screen,2_1_1_1_32,2022-02-01T12:37:57.668Z,,,,,,,,,,,,,,,,,54,,,,,,,,,,,,,,293.7300001430558,,response,,,,100,,,,,,,Space,keypress(Space),,,,,,,,-- --- ---- --- ------ ----- ------- ---- -- --- ------- --<br>------- ---------- ------ -- ----- -- ----- -- ---- ------<br>--- ----- --- --- ------ -------- ----- --- ------ ----- of<br>----- ----- ---------- --- --- ------ ------ ---- -- ------<br>------- --- ------ ----- --- ---- ------- -- ---- --- --<br>------- ------,170824.5,170823.10000014305,170512.764,170526,170529.37,170829.771,,32,of
screen,html.Screen,2_1_1_1_33,2022-02-01T12:37:57.916Z,,,,,,,,,,,,,,,,,54,,,,,,,,,,,,,,241.32900014304323,,response,,,,100,,,,,,,Space,keypress(Space),,,,,,,,-- --- ---- --- ------ ----- ------- ---- -- --- ------- --<br>------- ---------- ------ -- ----- -- ----- -- ---- ------<br>--- ----- --- --- ------ -------- ----- --- ------ ----- --<br>these ----- ---------- --- --- ------ ------ ---- -- ------<br>------- --- ------ ----- --- ---- ------- -- ---- --- --<br>------- ------,171072.70000004768,171071.10000014305,170813.165,170824.79999995232,170829.771,171081.349,,33,these
screen,html.Screen,2_1_1_1_34,2022-02-01T12:37:58.175Z,,,,,,,,,,,,,,,,,54,,,,,,,,,,,,,,249.45099995232886,,response,,,,100,,,,,,,Space,keypress(Space),,,,,,,,-- --- ---- --- ------ ----- ------- ---- -- --- ------- --<br>------- ---------- ------ -- ----- -- ----- -- ---- ------<br>--- ----- --- --- ------ -------- ----- --- ------ ----- --<br>----- bonds ---------- --- --- ------ ------ ---- -- ------<br>------- --- ------ ----- --- ---- ------- -- ---- --- --<br>------- ------,171332.20000004768,171330.79999995232,171064.743,171073.10000014305,171081.349,171349.151,,34,bonds
screen,html.Screen,2_1_1_1_35,2022-02-01T12:37:58.494Z,,,,,,,,,,,,,,,,,54,,,,,,,,,,,,,,300.3489999999874,,response,,,,100,,,,,,,Space,keypress(Space),,,,,,,,"-- --- ---- --- ------ ----- ------- ---- -- --- ------- --<br>------- ---------- ------ -- ----- -- ----- -- ---- ------<br>--- ----- --- --- ------ -------- ----- --- ------ ----- --<br>----- ----- plummeted, --- --- ------ ------ ---- -- ------<br>------- --- ------ ----- --- ---- ------- -- ---- --- --<br>------- ------",171651.10000014305,171649.5,171332.545,171332.5,171349.151,171666.244,,35,"plummeted,"
screen,html.Screen,2_1_1_1_36,2022-02-01T12:37:58.893Z,,,,,,,,,,,,,,,,,54,,,,,,,,,,,,,,381.45600004767766,,response,,,,100,,,,,,,Space,keypress(Space),,,,,,,,-- --- ---- --- ------ ----- ------- ---- -- --- ------- --<br>------- ---------- ------ -- ----- -- ----- -- ---- ------<br>--- ----- --- --- ------ -------- ----- --- ------ ----- --<br>----- ----- ---------- and --- ------ ------ ---- -- ------<br>------- --- ------ ----- --- ---- ------- -- ---- --- --<br>------- ------,172049.90000009537,172047.70000004768,171649.638,171651.29999995232,171666.244,172066.646,,36,and
screen,html.Screen,2_1_1_1_37,2022-02-01T12:37:59.162Z,,,,,,,,,,,,,,,,,54,,,,,,,,,,,,,,250.5540000476758,,response,,,,100,,,,,,,Space,keypress(Space),,,,,,,,-- --- ---- --- ------ ----- ------- ---- -- --- ------- --<br>------- ---------- ------ -- ----- -- ----- -- ---- ------<br>--- ----- --- --- ------ -------- ----- --- ------ ----- --<br>----- ----- ---------- --- the ------ ------ ---- -- ------<br>------- --- ------ ----- --- ---- ------- -- ---- --- --<br>------- ------,172318.70000004768,172317.20000004768,172050.04,172050.10000014305,172066.646,172334.476,,37,the
screen,html.Screen,2_1_1_1_38,2022-02-01T12:37:59.501Z,,,,,,,,,,,,,,,,,54,,,,,,,,,,,,,,320.8239999523212,,response,,,,100,,,,,,,Space,keypress(Space),,,,,,,,-- --- ---- --- ------ ----- ------- ---- -- --- ------- --<br>------- ---------- ------ -- ----- -- ----- -- ---- ------<br>--- ----- --- --- ------ -------- ----- --- ------ ----- --<br>----- ----- ---------- --- --- market ------ ---- -- ------<br>------- --- ------ ----- --- ---- ------- -- ---- --- --<br>------- ------,172657.20000004768,172655.29999995232,172317.87,172318.79999995232,172334.476,172669.351,,38,market
screen,html.Screen,2_1_1_1_39,2022-02-01T12:37:59.847Z,,,,,,,,,,,,,,,,,54,,,,,,,,,,,,,,333.4489999523212,,response,,,,100,,,,,,,Space,keypress(Space),,,,,,,,-- --- ---- --- ------ ----- ------- ---- -- --- ------- --<br>------- ---------- ------ -- ----- -- ----- -- ---- ------<br>--- ----- --- --- ------ -------- ----- --- ------ ----- --<br>----- ----- ---------- --- --- ------ became ---- -- ------<br>------- --- ------ ----- --- ---- ------- -- ---- --- --<br>------- ------,173004.10000014305,173002.79999995232,172652.745,172657.5,172669.351,173019.924,,39,became
screen,html.Screen,2_1_1_1_40,2022-02-01T12:38:00.187Z,,,,,,,,,,,,,,,,,54,,,,,,,,,,,,,,322.27600004768465,,response,,,,100,,,,,,,Space,keypress(Space),,,,,,,,-- --- ---- --- ------ ----- ------- ---- -- --- ------- --<br>------- ---------- ------ -- ----- -- ----- -- ---- ------<br>--- ----- --- --- ------ -------- ----- --- ------ ----- --<br>----- ----- ---------- --- --- ------ ------ wary -- ------<br>------- --- ------ ----- --- ---- ------- -- ---- --- --<br>------- ------,173343.40000009537,173342.20000004768,173003.318,173004.40000009537,173019.924,173354.332,,40,wary
screen,html.Screen,2_1_1_1_41,2022-02-01T12:38:00.536Z,,,,,,,,,,,,,,,,,54,,,,,,,,,,,,,,336.6680000000051,,response,,,,100,,,,,,,Space,keypress(Space),,,,,,,,-- --- ---- --- ------ ----- ------- ---- -- --- ------- --<br>------- ---------- ------ -- ----- -- ----- -- ---- ------<br>--- ----- --- --- ------ -------- ----- --- ------ ----- --<br>----- ----- ---------- --- --- ------ ------ ---- of ------<br>------- --- ------ ----- --- ---- ------- -- ---- --- --<br>------- ------,173692.40000009537,173691,173337.726,173343.60000014305,173354.332,173705.413,,41,of
screen,html.Screen,2_1_1_1_42,2022-02-01T12:38:00.834Z,,,,,,,,,,,,,,,,,54,,,,,,,,,,,,,,284.08699999999953,,response,,,,100,,,,,,,Space,keypress(Space),,,,,,,,-- --- ---- --- ------ ----- ------- ---- -- --- ------- --<br>------- ---------- ------ -- ----- -- ----- -- ---- ------<br>--- ----- --- --- ------ -------- ----- --- ------ ----- --<br>----- ----- ---------- --- --- ------ ------ ---- -- French<br>------- --- ------ ----- --- ---- ------- -- ---- --- --<br>------- ------,173991.20000004768,173989.5,173688.807,173692.70000004768,173705.413,174006.614,,42,French
screen,html.Screen,2_1_1_1_43,2022-02-01T12:38:01.302Z,,,,,,,,,,,,,,,,,54,,,,,,,,,,,,,,450.6859999523149,,response,,,,100,,,,,,,Space,keypress(Space),,,,,,,,-- --- ---- --- ------ ----- ------- ---- -- --- ------- --<br>------- ---------- ------ -- ----- -- ----- -- ---- ------<br>--- ----- --- --- ------ -------- ----- --- ------ ----- --<br>----- ----- ---------- --- --- ------ ------ ---- -- ------<br>credit. --- ------ ----- --- ---- ------- -- ---- --- --<br>------- ------,174458.5,174457.29999995232,173990.008,173991.5,174006.614,174475.968,,43,credit.
screen,html.Screen,2_1_1_1_44,2022-02-01T12:38:01.761Z,,,,,,,,,,,,,,,,,54,,,,,,,,,,,,,,440.0320000000065,,response,,,,100,,,,,,,Space,keypress(Space),,,,,,,,-- --- ---- --- ------ ----- ------- ---- -- --- ------- --<br>------- ---------- ------ -- ----- -- ----- -- ---- ------<br>--- ----- --- --- ------ -------- ----- --- ------ ----- --<br>----- ----- ---------- --- --- ------ ------ ---- -- ------<br>------- The ------ ----- --- ---- ------- -- ---- --- --<br>------- ------,174917.60000014305,174916,174459.362,174458.79999995232,174475.968,174924.476,,44,The
screen,html.Screen,2_1_1_1_45,2022-02-01T12:38:02.019Z,,,,,,,,,,,,,,,,,54,,,,,,,,,,,,,,249.62400014305604,,response,,,,100,,,,,,,Space,keypress(Space),,,,,,,,-- --- ---- --- ------ ----- ------- ---- -- --- ------- --<br>------- ---------- ------ -- ----- -- ----- -- ---- ------<br>--- ----- --- --- ------ -------- ----- --- ------ ----- --<br>----- ----- ---------- --- --- ------ ------ ---- -- ------<br>------- --- French ----- --- ---- ------- -- ---- --- --<br>------- ------,175175.70000004768,175174.10000014305,174907.87,174917.90000009537,174924.476,175193.363,,45,French
screen,html.Screen,2_1_1_1_46,2022-02-01T12:38:02.348Z,,,,,,,,,,,,,,,,,54,,,,,,,,,,,,,,309.6369999999879,,response,,,,100,,,,,,,Space,keypress(Space),,,,,,,,-- --- ---- --- ------ ----- ------- ---- -- --- ------- --<br>------- ---------- ------ -- ----- -- ----- -- ---- ------<br>--- ----- --- --- ------ -------- ----- --- ------ ----- --<br>----- ----- ---------- --- --- ------ ------ ---- -- ------<br>------- --- ------ state --- ---- ------- -- ---- --- --<br>------- ------,175504.29999995232,175503,175176.757,175175.90000009537,175193.363,175511.994,,46,state
screen,html.Screen,2_1_1_1_47,2022-02-01T12:38:02.697Z,,,,,,,,,,,,,,,,,54,,,,,,,,,,,,,,339.80599995231023,,response,,,,100,,,,,,,Space,keypress(Space),,,,,,,,-- --- ---- --- ------ ----- ------- ---- -- --- ------- --<br>------- ---------- ------ -- ----- -- ----- -- ---- ------<br>--- ----- --- --- ------ -------- ----- --- ------ ----- --<br>----- ----- ---------- --- --- ------ ------ ---- -- ------<br>------- --- ------ ----- was ---- ------- -- ---- --- --<br>------- ------,175853.29999995232,175851.79999995232,175495.388,175504.5,175511.994,175862.512,,47,was
screen,html.Screen,2_1_1_1_48,2022-02-01T12:38:02.985Z,,,,,,,,,,,,,,,,,54,,,,,,,,,,,,,,277.6880000476958,,response,,,,100,,,,,,,Space,keypress(Space),,,,,,,,-- --- ---- --- ------ ----- ------- ---- -- --- ------- --<br>------- ---------- ------ -- ----- -- ----- -- ---- ------<br>--- ----- --- --- ------ -------- ----- --- ------ ----- --<br>----- ----- ---------- --- --- ------ ------ ---- -- ------<br>------- --- ------ ----- --- left ------- -- ---- --- --<br>------- ------,176141.79999995232,176140.20000004768,175845.906,175853.79999995232,175862.512,176146.947,,48,left
screen,html.Screen,2_1_1_1_49,2022-02-01T12:38:03.264Z,,,,,,,,,,,,,,,,,54,,,,,,,,,,,,,,271.95300009538187,,response,,,,100,,,,,,,Space,keypress(Space),,,,,,,,-- --- ---- --- ------ ----- ------- ---- -- --- ------- --<br>------- ---------- ------ -- ----- -- ----- -- ---- ------<br>--- ----- --- --- ------ -------- ----- --- ------ ----- --<br>----- ----- ---------- --- --- ------ ------ ---- -- ------<br>------- --- ------ ----- --- ---- without -- ---- --- --<br>------- ------,176420.29999995232,176418.90000009537,176130.341,176142,176146.947,176431.723,,49,without
screen,html.Screen,2_1_1_1_50,2022-02-01T12:38:03.544Z,,,,,,,,,,,,,,,,,54,,,,,,,,,,,,,,266.9770000476856,,response,,,,100,,,,,,,Space,keypress(Space),,,,,,,,-- --- ---- --- ------ ----- ------- ---- -- --- ------- --<br>------- ---------- ------ -- ----- -- ----- -- ---- ------<br>--- ----- --- --- ------ -------- ----- --- ------ ----- --<br>----- ----- ---------- --- --- ------ ------ ---- -- ------<br>------- --- ------ ----- --- ---- ------- an ---- --- --<br>------- ------,176700.29999995232,176698.70000004768,176415.117,176420.5,176431.723,176716.087,,50,an
screen,html.Screen,2_1_1_1_51,2022-02-01T12:38:03.842Z,,,,,,,,,,,,,,,,,54,,,,,,,,,,,,,,281.3130000953679,,response,,,,100,,,,,,,Space,keypress(Space),,,,,,,,-- --- ---- --- ------ ----- ------- ---- -- --- ------- --<br>------- ---------- ------ -- ----- -- ----- -- ---- ------<br>--- ----- --- --- ------ -------- ----- --- ------ ----- --<br>----- ----- ---------- --- --- ------ ------ ---- -- ------<br>------- --- ------ ----- --- ---- ------- -- easy --- --<br>------- ------,176999,176997.40000009537,176699.481,176700.60000014305,176716.087,177016.825,,51,easy
screen,html.Screen,2_1_1_1_52,2022-02-01T12:38:04.081Z,,,,,,,,,,,,,,,,,54,,,,,,,,,,,,,,219.17499999998836,,response,,,,100,,,,,,,Space,keypress(Space),,,,,,,,-- --- ---- --- ------ ----- ------- ---- -- --- ------- --<br>------- ---------- ------ -- ----- -- ----- -- ---- ------<br>--- ----- --- --- ------ -------- ----- --- ------ ----- --<br>----- ----- ---------- --- --- ------ ------ ---- -- ------<br>------- --- ------ ----- --- ---- ------- -- ---- way --<br>------- ------,177237.40000009537,177236,177000.219,176999.20000004768,177016.825,177253.171,,52,way
screen,html.Screen,2_1_1_1_53,2022-02-01T12:38:04.369Z,,,,,,,,,,,,,,,,,54,,,,,,,,,,,,,,271.5290000476816,,response,,,,100,,,,,,,Space,keypress(Space),,,,,,,,-- --- ---- --- ------ ----- ------- ---- -- --- ------- --<br>------- ---------- ------ -- ----- -- ----- -- ---- ------<br>--- ----- --- --- ------ -------- ----- --- ------ ----- --<br>----- ----- ---------- --- --- ------ ------ ---- -- ------<br>------- --- ------ ----- --- ---- ------- -- ---- --- of<br>------- ------,177525.90000009537,177524.70000004768,177236.565,177237.60000014305,177253.171,177535.627,,53,of
screen,html.Screen,2_1_1_1_54,2022-02-01T12:38:04.827Z,,,,,,,,,,,,,,,,,54,,,,,,,,,,,,,,446.6729999523086,,response,,,,100,,,,,,,Space,keypress(Space),,,,,,,,-- --- ---- --- ------ ----- ------- ---- -- --- ------- --<br>------- ---------- ------ -- ----- -- ----- -- ---- ------<br>--- ----- --- --- ------ -------- ----- --- ------ ----- --<br>----- ----- ---------- --- --- ------ ------ ---- -- ------<br>------- --- ------ ----- --- ---- ------- -- ---- --- --<br>raising ------,177983.5,177982.29999995232,177519.021,177526.20000004768,177535.627,177985.52,,54,raising
screen,html.Screen,2_1_1_1_55,2022-02-01T12:38:05.166Z,,,,,,,,,,,,,,,,,54,,,,,,,,,,,,,,335.8800000953779,,response,,,,100,,,,,,,Space,keypress(Space),,,,,,,,-- --- ---- --- ------ ----- ------- ---- -- --- ------- --<br>------- ---------- ------ -- ----- -- ----- -- ---- ------<br>--- ----- --- --- ------ -------- ----- --- ------ ----- --<br>----- ----- ---------- --- --- ------ ------ ---- -- ------<br>------- --- ------ ----- --- ---- ------- -- ---- --- --<br>------- money.,178322.90000009537,178321.40000009537,177968.914,177983.70000004768,177985.52,178339.16,,55,money.
Item 100,flow.Loop,2_1_1_1,2022-02-01T12:38:05.167Z,,,,,,,,,,,,,,,,,,,,,,,,,,,,,,,20285.380000095378,,completion,,,,,B,,,,,,,,,,,silence,,,,,178323.79999995232,178321.40000009537,158019.414,158021.60000014305,158036.02,178339.16,,,
Question 1,html.Screen,2_1_1_2,2022-02-01T12:38:07.203Z,,,,,,,,,,,,,,,,,,,,,,,,,,,,true,TRUE,,2019.6399999523128,,response,,,,100,B,,,,,,TRUE,click #choice-1,,,,silence,,,,,180360.10000014305,180358.79999995232,178322.554,178323.90000009537,178339.16,180380.425,,,
Question 2,html.Screen,2_1_1_3,2022-02-01T12:38:09.010Z,,,,,,,,,,,,,,,,,,,,,,,,,,,,true,FALSE,,1784.7750000476954,,response,,,,100,B,,,,,,FALSE,click #choice-2,,,,silence,,,,,182167.10000014305,182165.20000004768,180357.838,180360.40000009537,180380.425,182167.719,,,
Item 100,flow.Sequence,2_1_1,2022-02-01T12:38:09.011Z,,,,,,,,,,,,,,,,,,,,,,,,,,,,,,,34125.352000047686,,completion,,,,,,,,,,,,,,,,,,,,,182167.79999995232,182165.20000004768,148023.242,148027.20000004768,148039.848,182167.719,,,
End of Practice,html.Page,2_1_2,2022-02-01T12:38:15.198Z,,,,,,,,,,,,,,,,,,,,,,,,,,,,,,,6186.580999952304,,form submission,,,,,,,,,,,,,,,,,,,,,188354.90000009537,188354.29999995232,182151.113,182168.10000014305,182167.719,188354.404,,,
Practice,flow.Sequence,2_1,2022-02-01T12:38:15.199Z,,,,,,,,,,,,,,,,,,,,,,,,,,,,,,,80185.11699995231,,completion,,,,,,,,,,,,,,,,,,,,,188355.20000004768,188354.29999995232,108152.577,108168.70000004768,108169.183,188354.404,,,
Trap_instruction,html.Page,2_2_0,2022-02-01T12:38:17.758Z,,,,,,,,,,,,,,,,,,,,,,,,,,,,,,,2559.8959999523067,,form submission,,,,,,,,,,,,,,,,,,,,,190915,190914.29999995232,188337.798,188355.40000009537,188354.404,190945.215,,,
trap_trial,html.Screen,2_2_1,2022-02-01T12:38:20.765Z,,,,,,,,,,,,,,,,,,,,,,,,,,,,true,1,,2974.8850001430546,,response,,,,,,,,,,,1,click #choice-1,,,,,,,,,193921.70000004768,193920.10000014305,190912.003,190915.20000004768,190945.215,193923.243,,,
end of trap trial,html.Page,2_2_2,2022-02-01T12:38:23.070Z,,,,,,,,,,,,,,,,,,,,,,,,,,,,,,,2302.457000047696,,form submission,,,,,,,,,,,,,,,,,,,,,196226.20000004768,196225.70000004768,193906.637,193921.90000009537,193923.243,196229.728,,,
Trap 1,flow.Sequence,2_2,2022-02-01T12:38:23.070Z,,,,,,,,,,,,,,,,,,,,,,,,,,,,,,,7871.296000047674,,completion,,,,,,,,,,,,,,,,,,,,,196226.60000014305,196225.70000004768,188337.798,188355.40000009537,188354.404,196229.728,,,
Standby,html.Page,2_3_0,2022-02-01T12:38:31.065Z,,,,,,,,,,,,,,,,,,,,,,,,,,,,,,,8007.005000000005,,timeout,,,,,,,,,,,,,,,,,,,,,204221.5,204220.127,196213.122,196226.79999995232,196229.728,204236.733,,,
Holding screen,html.Screen,2_3_1_0_0,2022-02-01T12:38:38.063Z,,,,,,,,,,,,,,,,,,,,,,,,,,,,,,,6997.302999999985,,timeout,,,,,,,,,,,,,,,,,,,,,211219.40000009537,211217.43,204220.127,204221.90000009537,204236.733,211234.036,,,
screen,html.Screen,2_3_1_0_1_0,2022-02-01T12:38:39.100Z,,,,,,,,,,,,,,,,,2,,,,,,,,,,,,,,1021.0640001430584,,response,,,,1,B,,,,,,Space,keypress(Space),,,,lyrical,,,,Two ---- ------ --- ------- ---------- ------- ----------<br>--- --------- --- ----------- ------- ----- ------- ---<br>--------- ---- -- --- ---- -- --------- -- ---- -------<br>-- --------- ------ --- ----- ------ ---- --- --------- --<br>------ - ---- -- --- ----------- ------- ---- ----- -----<br>--- -------- - ------ ---- -- ----- ---- --- --- -----------<br>-- -------,212256.70000004768,212255.10000014305,211217.43,211219.90000009537,211234.036,212270.426,,0,Two
screen,html.Screen,2_3_1_0_1_1,2022-02-01T12:38:39.575Z,,,,,,,,,,,,,,,,,2,,,,,,,,,,,,,,460.27400004767696,,response,,,,1,B,,,,,,Space,keypress(Space),,,,lyrical,,,,--- days ------ --- ------- ---------- ------- ----------<br>--- --------- --- ----------- ------- ----- ------- ---<br>--------- ---- -- --- ---- -- --------- -- ---- -------<br>-- --------- ------ --- ----- ------ ---- --- --------- --<br>------ - ---- -- --- ----------- ------- ---- ----- -----<br>--- -------- - ------ ---- -- ----- ---- --- --- -----------<br>-- -------,212732,212730.70000004768,212253.82,212257,212270.426,212749.176,,1,days
screen,html.Screen,2_3_1_0_1_2,2022-02-01T12:38:40.371Z,,,,,,,,,,,,,,,,,2,,,,,,,,,,,,,,778.3239999999932,,response,,,,1,B,,,,,,Space,keypress(Space),,,,lyrical,,,,"--- ---- later, --- ------- ---------- ------- ----------<br>--- --------- --- ----------- ------- ----- ------- ---<br>--------- ---- -- --- ---- -- --------- -- ---- -------<br>-- --------- ------ --- ----- ------ ---- --- --------- --<br>------ - ---- -- --- ----------- ------- ---- ----- -----<br>--- -------- - ------ ---- -- ----- ---- --- --- -----------<br>-- -------",213528.5,213527.5,212732.57,212732.20000004768,212749.176,213529.788,,2,"later,"
screen,html.Screen,2_3_1_0_1_3,2022-02-01T12:38:40.661Z,,,,,,,,,,,,,,,,,2,,,,,,,,,,,,,,287.11200009536697,,response,,,,1,B,,,,,,Space,keypress(Space),,,,lyrical,,,,--- ---- ------ the ------- ---------- ------- ----------<br>--- --------- --- ----------- ------- ----- ------- ---<br>--------- ---- -- --- ---- -- --------- -- ---- -------<br>-- --------- ------ --- ----- ------ ---- --- --------- --<br>------ - ---- -- --- ----------- ------- ---- ----- -----<br>--- -------- - ------ ---- -- ----- ---- --- --- -----------<br>-- -------,213818.20000004768,213816.90000009537,213513.182,213528.79999995232,213529.788,213831.95,,3,the
screen,html.Screen,2_3_1_0_1_4,2022-02-01T12:38:40.970Z,,,,,,,,,,,,,,,,,2,,,,,,,,,,,,,,294.2500000476721,,response,,,,1,B,,,,,,Space,keypress(Space),,,,lyrical,,,,--- ---- ------ --- British ---------- ------- ----------<br>--- --------- --- ----------- ------- ----- ------- ---<br>--------- ---- -- --- ---- -- --------- -- ---- -------<br>-- --------- ------ --- ----- ------ ---- --- --------- --<br>------ - ---- -- --- ----------- ------- ---- ----- -----<br>--- -------- - ------ ---- -- ----- ---- --- --- -----------<br>-- -------,214127.60000014305,214126.20000004768,213815.344,213818.40000009537,213831.95,214136.329,,4,British
screen,html.Screen,2_3_1_0_1_5,2022-02-01T12:38:41.368Z,,,,,,,,,,,,,,,,,2,,,,,,,,,,,,,,387.8710000476858,,response,,,,1,B,,,,,,Space,keypress(Space),,,,lyrical,,,,--- ---- ------ --- ------- astronomer ------- ----------<br>--- --------- --- ----------- ------- ----- ------- ---<br>--------- ---- -- --- ---- -- --------- -- ---- -------<br>-- --------- ------ --- ----- ------ ---- --- --------- --<br>------ - ---- -- --- ----------- ------- ---- ----- -----<br>--- -------- - ------ ---- -- ----- ---- --- --- -----------<br>-- -------,214525.70000004768,214524.20000004768,214119.723,214127.79999995232,214136.329,214536.859,,5,astronomer
screen,html.Screen,2_3_1_0_1_6,2022-02-01T12:38:41.687Z,,,,,,,,,,,,,,,,,2,,,,,,,,,,,,,,305.5410000953707,,response,,,,1,B,,,,,,Space,keypress(Space),,,,lyrical,,,,--- ---- ------ --- ------- ---------- Richard ----------<br>--- --------- --- ----------- ------- ----- ------- ---<br>--------- ---- -- --- ---- -- --------- -- ---- -------<br>-- --------- ------ --- ----- ------ ---- --- --------- --<br>------ - ---- -- --- ----------- ------- ---- ----- -----<br>--- -------- - ------ ---- -- ----- ---- --- --- -----------<br>-- -------,214843.90000009537,214842.40000009537,214520.253,214526,214536.859,214854.419,,6,Richard
screen,html.Screen,2_3_1_0_1_7,2022-02-01T12:38:42.056Z,,,,,,,,,,,,,,,,,2,,,,,,,,,,,,,,357.18100014305674,,response,,,,1,B,,,,,,Space,keypress(Space),,,,lyrical,,,,--- ---- ------ --- ------- ---------- ------- Carrington<br>--- --------- --- ----------- ------- ----- ------- ---<br>--------- ---- -- --- ---- -- --------- -- ---- -------<br>-- --------- ------ --- ----- ------ ---- --- --------- --<br>------ - ---- -- --- ----------- ------- ---- ----- -----<br>--- -------- - ------ ---- -- ----- ---- --- --- -----------<br>-- -------,215213.10000014305,215211.60000014305,214837.813,214844.20000004768,214854.419,215222.54,,7,Carrington
screen,html.Screen,2_3_1_0_1_8,2022-02-01T12:38:42.475Z,,,,,,,,,,,,,,,,,2,,,,,,,,,,,,,,408.3600000953593,,response,,,,1,B,,,,,,Space,keypress(Space),,,,lyrical,,,,--- ---- ------ --- ------- ---------- ------- ----------<br>was --------- --- ----------- ------- ----- ------- ---<br>--------- ---- -- --- ---- -- --------- -- ---- -------<br>-- --------- ------ --- ----- ------ ---- --- --------- --<br>------ - ---- -- --- ----------- ------- ---- ----- -----<br>--- -------- - ------ ---- -- ----- ---- --- --- -----------<br>-- -------,215632.20000004768,215630.90000009537,215205.934,215213.40000009537,215222.54,215639.86,,8,was
screen,html.Screen,2_3_1_0_1_9,2022-02-01T12:38:42.792Z,,,,,,,,,,,,,,,,,2,,,,,,,,,,,,,,308.0400000953814,,response,,,,1,B,,,,,,Space,keypress(Space),,,,lyrical,,,,--- ---- ------ --- ------- ---------- ------- ----------<br>--- observing --- ----------- ------- ----- ------- ---<br>--------- ---- -- --- ---- -- --------- -- ---- -------<br>-- --------- ------ --- ----- ------ ---- --- --------- --<br>------ - ---- -- --- ----------- ------- ---- ----- -----<br>--- -------- - ------ ---- -- ----- ---- --- --- -----------<br>-- -------,215948.90000009537,215947.90000009537,215623.254,215632.5,215639.86,215957.866,,9,observing
screen,html.Screen,2_3_1_0_1_10,2022-02-01T12:38:43.081Z,,,,,,,,,,,,,,,,,2,,,,,,,,,,,,,,278.33400004767464,,response,,,,1,B,,,,,,Space,keypress(Space),,,,lyrical,,,,--- ---- ------ --- ------- ---------- ------- ----------<br>--- --------- the ----------- ------- ----- ------- ---<br>--------- ---- -- --- ---- -- --------- -- ---- -------<br>-- --------- ------ --- ----- ------ ---- --- --------- --<br>------ - ---- -- --- ----------- ------- ---- ----- -----<br>--- -------- - ------ ---- -- ----- ---- --- --- -----------<br>-- -------,216238.10000014305,216236.20000004768,215941.26,215949.20000004768,215957.866,216243.044,,10,the
screen,html.Screen,2_3_1_0_1_11,2022-02-01T12:38:43.340Z,,,,,,,,,,,,,,,,,2,,,,,,,,,,,,,,252.85600009537302,,response,,,,1,B,,,,,,Space,keypress(Space),,,,lyrical,,,,--- ---- ------ --- ------- ---------- ------- ----------<br>--- --------- --- interesting ------- ----- ------- ---<br>--------- ---- -- --- ---- -- --------- -- ---- -------<br>-- --------- ------ --- ----- ------ ---- --- --------- --<br>------ - ---- -- --- ----------- ------- ---- ----- -----<br>--- -------- - ------ ---- -- ----- ---- --- --- -----------<br>-- -------,216497.40000009537,216495.90000009537,216226.438,216238.29999995232,216243.044,216510.939,,11,interesting
screen,html.Screen,2_3_1_0_1_12,2022-02-01T12:38:43.599Z,,,,,,,,,,,,,,,,,2,,,,,,,,,,,,,,243.76100004767068,,response,,,,1,B,,,,,,Space,keypress(Space),,,,lyrical,,,,--- ---- ------ --- ------- ---------- ------- ----------<br>--- --------- --- ----------- sunspot ----- ------- ---<br>--------- ---- -- --- ---- -- --------- -- ---- -------<br>-- --------- ------ --- ----- ------ ---- --- --------- --<br>------ - ---- -- --- ----------- ------- ---- ----- -----<br>--- -------- - ------ ---- -- ----- ---- --- --- -----------<br>-- -------,216756.40000009537,216754.70000004768,216494.333,216497.79999995232,216510.939,216762.689,,12,sunspot
screen,html.Screen,2_3_1_0_1_13,2022-02-01T12:38:43.957Z,,,,,,,,,,,,,,,,,2,,,,,,,,,,,,,,350.7110000953544,,response,,,,1,B,,,,,,Space,keypress(Space),,,,lyrical,,,,--- ---- ------ --- ------- ---------- ------- ----------<br>--- --------- --- ----------- ------- group ------- ---<br>--------- ---- -- --- ---- -- --------- -- ---- -------<br>-- --------- ------ --- ----- ------ ---- --- --------- --<br>------ - ---- -- --- ----------- ------- ---- ----- -----<br>--- -------- - ------ ---- -- ----- ---- --- --- -----------<br>-- -------,217114.70000004768,217113.40000009537,216746.083,216756.70000004768,216762.689,217129.128,,13,group
screen,html.Screen,2_3_1_0_1_14,2022-02-01T12:38:44.356Z,,,,,,,,,,,,,,,,,2,,,,,,,,,,,,,,382.77200009537046,,response,,,,1,B,,,,,,Space,keypress(Space),,,,lyrical,,,,--- ---- ------ --- ------- ---------- ------- ----------<br>--- --------- --- ----------- ------- ----- through ---<br>--------- ---- -- --- ---- -- --------- -- ---- -------<br>-- --------- ------ --- ----- ------ ---- --- --------- --<br>------ - ---- -- --- ----------- ------- ---- ----- -----<br>--- -------- - ------ ---- -- ----- ---- --- --- -----------<br>-- -------,217513.29999995232,217511.90000009537,217112.522,217115,217129.128,217529.442,,14,through
screen,html.Screen,2_3_1_0_1_15,2022-02-01T12:38:44.695Z,,,,,,,,,,,,,,,,,2,,,,,,,,,,,,,,321.2580000476737,,response,,,,1,B,,,,,,Space,keypress(Space),,,,lyrical,,,,--- ---- ------ --- ------- ---------- ------- ----------<br>--- --------- --- ----------- ------- ----- ------- his<br>--------- ---- -- --- ---- -- --------- -- ---- -------<br>-- --------- ------ --- ----- ------ ---- --- --------- --<br>------ - ---- -- --- ----------- ------- ---- ----- -----<br>--- -------- - ------ ---- -- ----- ---- --- --- -----------<br>-- -------,217851.90000009537,217850.70000004768,217512.836,217513.5,217529.442,217864.045,,15,his
screen,html.Screen,2_3_1_0_1_16,2022-02-01T12:38:45.053Z,,,,,,,,,,,,,,,,,2,,,,,,,,,,,,,,344.7549999523035,,response,,,,1,B,,,,,,Space,keypress(Space),,,,lyrical,,,,--- ---- ------ --- ------- ---------- ------- ----------<br>--- --------- --- ----------- ------- ----- ------- ---<br>telescope ---- -- --- ---- -- --------- -- ---- -------<br>-- --------- ------ --- ----- ------ ---- --- --------- --<br>------ - ---- -- --- ----------- ------- ---- ----- -----<br>--- -------- - ------ ---- -- ----- ---- --- --- -----------<br>-- -------,218210.10000014305,218208.79999995232,217847.439,217852.29999995232,217864.045,218215.403,,16,telescope
screen,html.Screen,2_3_1_0_1_17,2022-02-01T12:38:45.482Z,,,,,,,,,,,,,,,,,2,,,,,,,,,,,,,,421.9970000953763,,response,,,,1,B,,,,,,Space,keypress(Space),,,,lyrical,,,,--- ---- ------ --- ------- ---------- ------- ----------<br>--- --------- --- ----------- ------- ----- ------- ---<br>--------- when -- --- ---- -- --------- -- ---- -------<br>-- --------- ------ --- ----- ------ ---- --- --------- --<br>------ - ---- -- --- ----------- ------- ---- ----- -----<br>--- -------- - ------ ---- -- ----- ---- --- --- -----------<br>-- -------,218639.20000004768,218637.40000009537,218198.797,218210.29999995232,218215.403,218649.556,,17,when
screen,html.Screen,2_3_1_0_1_18,2022-02-01T12:38:45.801Z,,,,,,,,,,,,,,,,,2,,,,,,,,,,,,,,306.7439999523049,,response,,,,1,B,,,,,,Space,keypress(Space),,,,lyrical,,,,--- ---- ------ --- ------- ---------- ------- ----------<br>--- --------- --- ----------- ------- ----- ------- ---<br>--------- ---- he --- ---- -- --------- -- ---- -------<br>-- --------- ------ --- ----- ------ ---- --- --------- --<br>------ - ---- -- --- ----------- ------- ---- ----- -----<br>--- -------- - ------ ---- -- ----- ---- --- --- -----------<br>-- -------,218957.90000009537,218956.29999995232,218632.95,218639.5,218649.556,218967.616,,18,he
screen,html.Screen,2_3_1_0_1_19,2022-02-01T12:38:46.219Z,,,,,,,,,,,,,,,,,2,,,,,,,,,,,,,,406.8839999999909,,response,,,,1,B,,,,,,Space,keypress(Space),,,,lyrical,,,,--- ---- ------ --- ------- ---------- ------- ----------<br>--- --------- --- ----------- ------- ----- ------- ---<br>--------- ---- -- saw ---- -- --------- -- ---- -------<br>-- --------- ------ --- ----- ------ ---- --- --------- --<br>------ - ---- -- --- ----------- ------- ---- ----- -----<br>--- -------- - ------ ---- -- ----- ---- --- --- -----------<br>-- -------,219375.90000009537,219374.5,218951.01,218958.20000004768,218967.616,219385.547,,19,saw
screen,html.Screen,2_3_1_0_1_20,2022-02-01T12:38:46.627Z,,,,,,,,,,,,,,,,,2,,,,,,,,,,,,,,397.55300014305976,,response,,,,1,B,,,,,,Space,keypress(Space),,,,lyrical,,,,--- ---- ------ --- ------- ---------- ------- ----------<br>--- --------- --- ----------- ------- ----- ------- ---<br>--------- ---- -- --- what -- --------- -- ---- -------<br>-- --------- ------ --- ----- ------ ---- --- --------- --<br>------ - ---- -- --- ----------- ------- ---- ----- -----<br>--- -------- - ------ ---- -- ----- ---- --- --- -----------<br>-- -------,219784.70000004768,219783.10000014305,219368.941,219376.20000004768,219385.547,219786.336,,20,what
screen,html.Screen,2_3_1_0_1_21,2022-02-01T12:38:47.006Z,,,,,,,,,,,,,,,,,2,,,,,,,,,,,,,,375.36400004767347,,response,,,,1,B,,,,,,Space,keypress(Space),,,,lyrical,,,,--- ---- ------ --- ------- ---------- ------- ----------<br>--- --------- --- ----------- ------- ----- ------- ---<br>--------- ---- -- --- ---- he --------- -- ---- -------<br>-- --------- ------ --- ----- ------ ---- --- --------- --<br>------ - ---- -- --- ----------- ------- ---- ----- -----<br>--- -------- - ------ ---- -- ----- ---- --- --- -----------<br>-- -------,220163,220161.70000004768,219769.73,219785,219786.336,220171.135,,21,he
screen,html.Screen,2_3_1_0_1_22,2022-02-01T12:38:47.405Z,,,,,,,,,,,,,,,,,2,,,,,,,,,,,,,,389.7650000953581,,response,,,,1,B,,,,,,Space,keypress(Space),,,,lyrical,,,,--- ---- ------ --- ------- ---------- ------- ----------<br>--- --------- --- ----------- ------- ----- ------- ---<br>--------- ---- -- --- ---- -- described -- ---- -------<br>-- --------- ------ --- ----- ------ ---- --- --------- --<br>------ - ---- -- --- ----------- ------- ---- ----- -----<br>--- -------- - ------ ---- -- ----- ---- --- --- -----------<br>-- -------,220562.40000009537,220560.90000009537,220154.529,220163.29999995232,220171.135,220572.54,,22,described
screen,html.Screen,2_3_1_0_1_23,2022-02-01T12:38:47.803Z,,,,,,,,,,,,,,,,,2,,,,,,,,,,,,,,385.8600000953593,,response,,,,1,B,,,,,,Space,keypress(Space),,,,lyrical,,,,--- ---- ------ --- ------- ---------- ------- ----------<br>--- --------- --- ----------- ------- ----- ------- ---<br>--------- ---- -- --- ---- -- --------- as ---- -------<br>-- --------- ------ --- ----- ------ ---- --- --------- --<br>------ - ---- -- --- ----------- ------- ---- ----- -----<br>--- -------- - ------ ---- -- ----- ---- --- --- -----------<br>-- -------,220959.90000009537,220958.40000009537,220555.934,220562.60000014305,220572.54,220973.544,,23,as
screen,html.Screen,2_3_1_0_1_24,2022-02-01T12:38:48.102Z,,,,,,,,,,,,,,,,,2,,,,,,,,,,,,,,284.05600014305674,,response,,,,1,B,,,,,,Space,keypress(Space),,,,lyrical,,,,"--- ---- ------ --- ------- ---------- ------- ----------<br>--- --------- --- ----------- ------- ----- ------- ---<br>--------- ---- -- --- ---- -- --------- -- ""two -------<br>-- --------- ------ --- ----- ------ ---- --- --------- --<br>------ - ---- -- --- ----------- ------- ---- ----- -----<br>--- -------- - ------ ---- -- ----- ---- --- --- -----------<br>-- -------",221259.20000004768,221257.60000014305,220956.938,220960.20000004768,220973.544,221275.261,,24,"""two"
screen,html.Screen,2_3_1_0_1_25,2022-02-01T12:38:48.629Z,,,,,,,,,,,,,,,,,2,,,,,,,,,,,,,,509.83900014305254,,response,,,,1,B,,,,,,Space,keypress(Space),,,,lyrical,,,,--- ---- ------ --- ------- ---------- ------- ----------<br>--- --------- --- ----------- ------- ----- ------- ---<br>--------- ---- -- --- ---- -- --------- -- ---- patches<br>-- --------- ------ --- ----- ------ ---- --- --------- --<br>------ - ---- -- --- ----------- ------- ---- ----- -----<br>--- -------- - ------ ---- -- ----- ---- --- --- -----------<br>-- -------,221786.60000014305,221785.10000014305,221258.655,221259.5,221275.261,221792.712,,25,patches
screen,html.Screen,2_3_1_0_1_26,2022-02-01T12:38:49.017Z,,,,,,,,,,,,,,,,,2,,,,,,,,,,,,,,380.78800000000047,,response,,,,1,B,,,,,,Space,keypress(Space),,,,lyrical,,,,--- ---- ------ --- ------- ---------- ------- ----------<br>--- --------- --- ----------- ------- ----- ------- ---<br>--------- ---- -- --- ---- -- --------- -- ---- -------<br>of --------- ------ --- ----- ------ ---- --- --------- --<br>------ - ---- -- --- ----------- ------- ---- ----- -----<br>--- -------- - ------ ---- -- ----- ---- --- --- -----------<br>-- -------,222174.90000009537,222173.5,221776.106,221786.90000009537,221792.712,222176.794,,26,of
screen,html.Screen,2_3_1_0_1_27,2022-02-01T12:38:49.427Z,,,,,,,,,,,,,,,,,2,,,,,,,,,,,,,,405.80600014305674,,response,,,,1,B,,,,,,Space,keypress(Space),,,,lyrical,,,,--- ---- ------ --- ------- ---------- ------- ----------<br>--- --------- --- ----------- ------- ----- ------- ---<br>--------- ---- -- --- ---- -- --------- -- ---- -------<br>-- intensely ------ --- ----- ------ ---- --- --------- --<br>------ - ---- -- --- ----------- ------- ---- ----- -----<br>--- -------- - ------ ---- -- ----- ---- --- --- -----------<br>-- -------,222584.5,222582.60000014305,222160.188,222175.10000014305,222176.794,222595.529,,27,intensely
screen,html.Screen,2_3_1_0_1_28,2022-02-01T12:38:49.785Z,,,,,,,,,,,,,,,,,2,,,,,,,,,,,,,,345.27099995230674,,response,,,,1,B,,,,,,Space,keypress(Space),,,,lyrical,,,,--- ---- ------ --- ------- ---------- ------- ----------<br>--- --------- --- ----------- ------- ----- ------- ---<br>--------- ---- -- --- ---- -- --------- -- ---- -------<br>-- --------- bright --- ----- ------ ---- --- --------- --<br>------ - ---- -- --- ----------- ------- ---- ----- -----<br>--- -------- - ------ ---- -- ----- ---- --- --- -----------<br>-- -------,222942.40000009537,222940.79999995232,222578.923,222584.70000004768,222595.529,222946.877,,28,bright
screen,html.Screen,2_3_1_0_1_29,2022-02-01T12:38:50.135Z,,,,,,,,,,,,,,,,,2,,,,,,,,,,,,,,343.72300014304346,,response,,,,1,B,,,,,,Space,keypress(Space),,,,lyrical,,,,--- ---- ------ --- ------- ---------- ------- ----------<br>--- --------- --- ----------- ------- ----- ------- ---<br>--------- ---- -- --- ---- -- --------- -- ---- -------<br>-- --------- ------ and ----- ------ ---- --- --------- --<br>------ - ---- -- --- ----------- ------- ---- ----- -----<br>--- -------- - ------ ---- -- ----- ---- --- --- -----------<br>-- -------,223292,223290.60000014305,222930.271,222942.60000014305,222946.877,223298.436,,29,and
screen,html.Screen,2_3_1_0_1_30,2022-02-01T12:38:50.471Z,,,,,,,,,,,,,,,,,2,,,,,,,,,,,,,,328.96400009538047,,response,,,,1,B,,,,,,Space,keypress(Space),,,,lyrical,,,,--- ---- ------ --- ------- ---------- ------- ----------<br>--- --------- --- ----------- ------- ----- ------- ---<br>--------- ---- -- --- ---- -- --------- -- ---- -------<br>-- --------- ------ --- white ------ ---- --- --------- --<br>------ - ---- -- --- ----------- ------- ---- ----- -----<br>--- -------- - ------ ---- -- ----- ---- --- --- -----------<br>-- -------,223628.79999995232,223627.40000009537,223281.83,223292.20000004768,223298.436,223633.045,,30,white
screen,html.Screen,2_3_1_0_1_31,2022-02-01T12:38:50.860Z,,,,,,,,,,,,,,,,,2,,,,,,,,,,,,,,382.8550000953546,,response,,,,1,B,,,,,,Space,keypress(Space),,,,lyrical,,,,"--- ---- ------ --- ------- ---------- ------- ----------<br>--- --------- --- ----------- ------- ----- ------- ---<br>--------- ---- -- --- ---- -- --------- -- ---- -------<br>-- --------- ------ --- ----- light"" ---- --- --------- --<br>------ - ---- -- --- ----------- ------- ---- ----- -----<br>--- -------- - ------ ---- -- ----- ---- --- --- -----------<br>-- -------",224017.20000004768,224015.90000009537,223616.439,223629,223633.045,224033.965,,31,"light"""
screen,html.Screen,2_3_1_0_1_32,2022-02-01T12:38:51.279Z,,,,,,,,,,,,,,,,,2,,,,,,,,,,,,,,401.13500014305464,,response,,,,1,B,,,,,,Space,keypress(Space),,,,lyrical,,,,--- ---- ------ --- ------- ---------- ------- ----------<br>--- --------- --- ----------- ------- ----- ------- ---<br>--------- ---- -- --- ---- -- --------- -- ---- -------<br>-- --------- ------ --- ----- ------ over --- --------- --<br>------ - ---- -- --- ----------- ------- ---- ----- -----<br>--- -------- - ------ ---- -- ----- ---- --- --- -----------<br>-- -------,224436.5,224435.10000014305,224017.359,224017.40000009537,224033.965,224451.465,,32,over
screen,html.Screen,2_3_1_0_1_33,2022-02-01T12:38:51.598Z,,,,,,,,,,,,,,,,,2,,,,,,,,,,,,,,301.9350000953709,,response,,,,1,B,,,,,,Space,keypress(Space),,,,lyrical,,,,--- ---- ------ --- ------- ---------- ------- ----------<br>--- --------- --- ----------- ------- ----- ------- ---<br>--------- ---- -- --- ---- -- --------- -- ---- -------<br>-- --------- ------ --- ----- ------ ---- the --------- --<br>------ - ---- -- --- ----------- ------- ---- ----- -----<br>--- -------- - ------ ---- -- ----- ---- --- --- -----------<br>-- -------,224755.10000014305,224753.40000009537,224434.859,224436.79999995232,224451.465,224769.613,,33,the
screen,html.Screen,2_3_1_0_1_34,2022-02-01T12:38:51.987Z,,,,,,,,,,,,,,,,,2,,,,,,,,,,,,,,372.7870000953553,,response,,,,1,B,,,,,,Space,keypress(Space),,,,lyrical,,,,--- ---- ------ --- ------- ---------- ------- ----------<br>--- --------- --- ----------- ------- ----- ------- ---<br>--------- ---- -- --- ---- -- --------- -- ---- -------<br>-- --------- ------ --- ----- ------ ---- --- sunspots. --<br>------ - ---- -- --- ----------- ------- ---- ----- -----<br>--- -------- - ------ ---- -- ----- ---- --- --- -----------<br>-- -------,225144.29999995232,225142.40000009537,224753.007,224755.40000009537,224769.613,225154.413,,34,sunspots.
screen,html.Screen,2_3_1_0_1_35,2022-02-01T12:38:52.464Z,,,,,,,,,,,,,,,,,2,,,,,,,,,,,,,,465.78700004768325,,response,,,,1,B,,,,,,Space,keypress(Space),,,,lyrical,,,,--- ---- ------ --- ------- ---------- ------- ----------<br>--- --------- --- ----------- ------- ----- ------- ---<br>--------- ---- -- --- ---- -- --------- -- ---- -------<br>-- --------- ------ --- ----- ------ ---- --- --------- He<br>------ - ---- -- --- ----------- ------- ---- ----- -----<br>--- -------- - ------ ---- -- ----- ---- --- --- -----------<br>-- -------,225621.60000014305,225620.20000004768,225137.807,225144.5,225154.413,225638.161,,35,He
screen,html.Screen,2_3_1_0_1_36,2022-02-01T12:38:52.823Z,,,,,,,,,,,,,,,,,2,,,,,,,,,,,,,,340.53900004769093,,response,,,,1,B,,,,,,Space,keypress(Space),,,,lyrical,,,,--- ---- ------ --- ------- ---------- ------- ----------<br>--- --------- --- ----------- ------- ----- ------- ---<br>--------- ---- -- --- ---- -- --------- -- ---- -------<br>-- --------- ------ --- ----- ------ ---- --- --------- --<br>jotted - ---- -- --- ----------- ------- ---- ----- -----<br>--- -------- - ------ ---- -- ----- ---- --- --- -----------<br>-- -------,225980.20000004768,225978.70000004768,225621.555,225621.90000009537,225638.161,225989.524,,36,jotted
screen,html.Screen,2_3_1_0_1_37,2022-02-01T12:38:53.171Z,,,,,,,,,,,,,,,,,2,,,,,,,,,,,,,,337.57600014304626,,response,,,,1,B,,,,,,Space,keypress(Space),,,,lyrical,,,,--- ---- ------ --- ------- ---------- ------- ----------<br>--- --------- --- ----------- ------- ----- ------- ---<br>--------- ---- -- --- ---- -- --------- -- ---- -------<br>-- --------- ------ --- ----- ------ ---- --- --------- --<br>------ a ---- -- --- ----------- ------- ---- ----- -----<br>--- -------- - ------ ---- -- ----- ---- --- --- -----------<br>-- -------,226328.5,226327.10000014305,225972.918,225980.5,225989.524,226341.584,,37,a
