sender,sender_type,sender_id,timestamp,meta,,Blues,Classical,Country,Dance,Electronic,Folk,Gospel,Hip-Hop,Jazz,Latin,Musical/Film,New-age,Pop,Prolific_id,Provo_ID,R&B,Rap,Reggae,Religious,Rock,Soul,Swing,Traditional,age,artist_name,correct,correctResponse,distraction,duration,education,ended_on,familiarity,gender,headphone_check_performance,item,list,music_frequency,offensiveness,pleasantness,position_correct,preference,response,response_action,snippet_file,song_name,song_rating,sound,stimulus_1,stimulus_2,stimulus_3,text,time_commit,time_end,time_render,time_run,time_show,time_switch,url,word,word_ID
Prolific ID,html.Form,0,2022-02-02T21:30:50.369Z,"{""labjs_version"":""20.2.2"",""labjs_build"":{""flavor"":""production"",""commit"":""a25486e0c714a0ae2ce03ff94b7bb6896854dcfa""},""location"":""https://run.pavlovia.org/mvasilev/prolific2_music_e/"",""userAgent"":""Mozilla/5.0 (Windows NT 10.0; Win64; x64) AppleWebKit/537.36 (KHTML, like Gecko) Chrome/98.0.4758.82 Safari/537.36"",""platform"":""Win32"",""language"":""en-GB"",""locale"":""en-GB"",""timeZone"":""Europe/London"",""timezoneOffset"":0,""screen_width"":1366,""screen_height"":768,""scroll_width"":1366,""scroll_height"":577,""window_innerWidth"":1366,""window_innerHeight"":625,""devicePixelRatio"":1}",,,,,,,,,,,,,,,60867f15c6327e78242c627c,,,,,,,,,,,,,,,14246.327999952315,,form submission,,,,,,,,,,,,,,,,,,,,,41450.39999985695,41449.799999952316,27169.604,27174.099999904633,27203.472,41452.433,{},,
Introduction,html.Screen,1_0,2022-02-02T21:30:55.243Z,,,,,,,,,,,,,,,,,,,,,,,,,,,,,,,4868.466999856952,,response,,,,,,,,,,,continue,click button,,,,,,,,,46324,46320.89999985695,41435.884,41450.799999952316,41452.433,46335.389,,,
Volume calibration,html.Screen,1_1,2022-02-02T21:32:01.196Z,,,,,,,,,,,,,,,,,,,,,,,,,,,,,,,65936.81099980927,,response,,,,,,,,,,,continue,click button,,,,,,,,,112277.69999980927,112272.19999980927,46318.819,46324.09999990463,46335.389,112280.552,,,
Task instructions,html.Screen,1_2,2022-02-02T21:32:20.154Z,,,,,,,,,,,,,,,,,,,,,,,,,,,,,,,18953.948000000004,,response,,,,,,,,,,,continue,click button,,,,,,,,,131235.5,131234.5,112263.947,112277.89999985695,112280.552,131245.853,,,
Sounds,html.Screen,1_3_0_0,2022-02-02T21:32:24.401Z,,,,,,,,,,,,,,,,,,,,,,,,,,,,,,,4249.635999999999,,timeout,,,,,,,,,3,,,,,,,,O,I,S,,135482.5,135478.945,131229.246,131235.69999980927,131245.853,135495.489,,,
Judgement,html.Screen,1_3_0_1,2022-02-02T21:32:26.111Z,,,,,,,,,,,,,,,,,,,,,,,,,,,,true,3,,1695.4109998569475,,response,,,,,,,,,3,,3,click #choice-3,,,,,O,I,S,,137192,137190.89999985695,135478.945,135482.69999980927,135495.489,137195.452,,,
Trial,flow.Sequence,1_3_0,2022-02-02T21:32:26.111Z,,,,,,,,,,,,,,,,,,,,,,,,,,,,,,,5945.046999856946,,completion,,,,,,,,,3,,,,,,,,O,I,S,,137192.29999995232,137190.89999985695,131229.246,131235.69999980927,131245.853,137195.452,,,
Sounds,html.Screen,1_3_1_0,2022-02-02T21:32:30.348Z,,,,,,,,,,,,,,,,,,,,,,,,,,,,,,,4249.641000000003,,timeout,,,,,,,,,1,,,,,,,,S,I,O,,141429,141428.39,137178.769,137192.39999985695,137195.452,141445.093,,,
Judgement,html.Screen,1_3_1_1,2022-02-02T21:32:31.500Z,,,,,,,,,,,,,,,,,,,,,,,,,,,,true,1,,1135.006999904639,,response,,,,,,,,,1,,1,click #choice-1,,,,,S,I,O,,142581.29999995232,142580.09999990463,141428.39,141429.19999980927,141445.093,142595.037,,,
Trial,flow.Sequence,1_3_1,2022-02-02T21:32:31.500Z,,,,,,,,,,,,,,,,,,,,,,,,,,,,,,,5384.647999904642,,completion,,,,,,,,,1,,,,,,,,S,I,O,,142581.39999985695,142580.09999990463,137178.769,137192.39999985695,137195.452,142595.037,,,
Sounds,html.Screen,1_3_2_0,2022-02-02T21:32:35.749Z,,,,,,,,,,,,,,,,,,,,,,,,,,,,,,,4249.660999999993,,timeout,,,,,,,,,3,,,,,,,,I,O,S,,146829.89999985695,146828.133,142578.377,142581.59999990463,142595.037,146844.698,,,
Judgement,html.Screen,1_3_2_1,2022-02-02T21:32:36.553Z,,,,,,,,,,,,,,,,,,,,,,,,,,,,true,3,,788.4019999046286,,response,,,,,,,,,3,,3,click #choice-3,,,,,I,O,S,,147634.19999980927,147633.09999990463,146828.133,146830.09999990463,146844.698,147644.606,,,
Trial,flow.Sequence,1_3_2,2022-02-02T21:32:36.553Z,,,,,,,,,,,,,,,,,,,,,,,,,,,,,,,5038.062999904621,,completion,,,,,,,,,3,,,,,,,,I,O,S,,147634.29999995232,147633.09999990463,142578.377,142581.59999990463,142595.037,147644.606,,,
Sounds,html.Screen,1_3_3_0,2022-02-02T21:32:40.799Z,,,,,,,,,,,,,,,,,,,,,,,,,,,,,,,4250.016000000003,,timeout,,,,,,,,,2,,,,,,,,I,S,O,,151880.19999980927,151877.739,147628.01,147634.39999985695,147644.606,151894.622,,,
Judgement,html.Screen,1_3_3_1,2022-02-02T21:32:41.525Z,,,,,,,,,,,,,,,,,,,,,,,,,,,,true,2,,710.0779998092621,,response,,,,,,,,,2,,2,click #choice-2,,,,,I,S,O,,152605.79999995232,152604.69999980927,151877.739,151880.59999990463,151894.622,152610.934,,,
Trial,flow.Sequence,1_3_3,2022-02-02T21:32:41.525Z,,,,,,,,,,,,,,,,,,,,,,,,,,,,,,,4960.093999809265,,completion,,,,,,,,,2,,,,,,,,I,S,O,,152606,152604.69999980927,147628.01,147634.39999985695,147644.606,152610.934,,,
Sounds,html.Screen,1_3_4_0,2022-02-02T21:32:45.764Z,,,,,,,,,,,,,,,,,,,,,,,,,,,,,,,4249.72199999998,,timeout,,,,,,,,,1,,,,,,,,S,O,I,,156845.29999995232,156844.036,152594.315,152606.09999990463,152610.934,156860.656,,,
Judgement,html.Screen,1_3_4_1,2022-02-02T21:32:46.303Z,,,,,,,,,,,,,,,,,,,,,,,,,,,,true,1,,522.6439999523282,,response,,,,,,,,,1,,1,click #choice-1,,,,,S,O,I,,157384.5,157383.29999995232,156844.036,156845.59999990463,156860.656,157393.903,,,
Trial,flow.Sequence,1_3_4,2022-02-02T21:32:46.304Z,,,,,,,,,,,,,,,,,,,,,,,,,,,,,,,4772.365999952308,,completion,,,,,,,,,1,,,,,,,,S,O,I,,157384.79999995232,157383.29999995232,152594.315,152606.09999990463,152610.934,157393.903,,,
Sounds,html.Screen,1_3_5_0,2022-02-02T21:32:50.547Z,,,,,,,,,,,,,,,,,,,,,,,,,,,,,,,4249.743000000017,,timeout,,,,,,,,,2,,,,,,,,O,S,I,,161628.19999980927,161627.024,157377.237,157384.89999985695,157393.903,161643.646,,,
Judgement,html.Screen,1_3_5_1,2022-02-02T21:32:52.754Z,,,,,,,,,,,,,,,,,,,,,,,,,,,,true,2,,2190.253999856941,,response,,,,,,,,,2,,2,click #choice-2,,,,,O,S,I,,163835.29999995232,163833.89999985695,161627.024,161628.5,161643.646,163843.429,,,
Trial,flow.Sequence,1_3_5,2022-02-02T21:32:52.754Z,,,,,,,,,,,,,,,,,,,,,,,,,,,,,,,6439.996999856958,,completion,,,,,,,,,2,,,,,,,,O,S,I,,163835.5,163833.89999985695,157377.237,157384.79999995232,157393.903,163843.429,,,
Task,flow.Loop,1_3,2022-02-02T21:32:52.760Z,,,,,,,,,,,,,,,,,,,,,,,,,,,,,,,32588.046999856946,,completion,,,1,,,,,,,,,,,,,,,,,,163840.59999990463,163833.89999985695,131229.246,131235.59999990463,131245.853,163843.429,,,
Trap,html.Screen,1_4,2022-02-02T21:32:52.761Z,,,,,,,,,,,,,,,,,,,,,,,,,,,,,,,NaN,,skipped,,,,,,,,,,,,,,,,,,,,,163842.09999990463,163833.89999985695,,163842,,163843.429,,,
Thanks,html.Screen,1_5,2022-02-02T21:32:56.747Z,,,,,,,,,,,,,,,,,,,,,,,,,,,,,,,3983.5709999999963,,response,,,,,,,,,,,continue,click button,,,,,,,,,167828.09999990463,167827,163826.883,163842.29999995232,163843.429,178375.708,,,
Headphone screening,flow.Sequence,1,2022-02-02T21:32:56.747Z,,,,,,,,,,,,,,,,,,,,,,,,,,,,,,,126374.56700000001,,completion,,,,,,,,,,,,,,,,,,,,,167828.29999995232,167827,41435.884,41450.799999952316,41452.433,178375.708,,,
Instructions,html.Page,2_0,2022-02-02T21:33:25.379Z,,,,,,,,,,,,,,,,,,,,,,,,,,,,,,,18083.491999809252,,form submission,,,,,,,,,,,,,,,,,,,,,196459.79999995232,196459.19999980927,178325.686,178382.59999990463,178375.708,196474.342,,,
Holding screen,html.Screen,2_1_0_0,2022-02-02T21:33:35.377Z,,,,,,,,,,,,,,,,,,,,,,,,,,,,,,,10149.256999999983,,timeout,,,,,,,,,,,,,,,,,,,,,206458.09999990463,206457.005,196457.742,196460.19999980927,196474.342,206623.599,,,
screen,html.Screen,2_1_0_1_0,2022-02-02T21:33:36.532Z,,,,,,,,,,,,,,,,,53,,,,,,,,,,,,,,983.0009999046451,,response,,,,99,,,,,,,Space,keypress(Space),,,,,,,,When -- ----- -- ------ - ------- --- ----------<br>------------- ------ ------ ---- ---- ------- ----- -- ----<br>-------- ------- -- ---------- --- - --- ----- ----- ----<br>---- --- --- ----- --- ---- ---- ------- ----- ---- -------<br>--- --- -- ----- -- --- ---- -- --- ---- -- ------ ------<br>--- ----- -- ----,207612.69999980927,207606.59999990463,206457.005,206458.5,206623.599,207623.702,,0,When
screen,html.Screen,2_1_0_1_1,2022-02-02T21:33:36.996Z,,,,,,,,,,,,,,,,,53,,,,,,,,,,,,,,451.9979998092749,,response,,,,99,,,,,,,Space,keypress(Space),,,,,,,,---- it ----- -- ------ - ------- --- ----------<br>------------- ------ ------ ---- ---- ------- ----- -- ----<br>-------- ------- -- ---------- --- - --- ----- ----- ----<br>---- --- --- ----- --- ---- ---- ------- ----- ---- -------<br>--- --- -- ----- -- --- ---- -- --- ---- -- ------ ------<br>--- ----- -- ----,208076.89999985695,208075.69999980927,207606.868,207613,207623.702,208090.2,,1,it
screen,html.Screen,2_1_0_1_2,2022-02-02T21:33:37.400Z,,,,,,,,,,,,,,,,,53,,,,,,,,,,,,,,389.6999998569372,,response,,,,99,,,,,,,Space,keypress(Space),,,,,,,,---- -- comes -- ------ - ------- --- ----------<br>------------- ------ ------ ---- ---- ------- ----- -- ----<br>-------- ------- -- ---------- --- - --- ----- ----- ----<br>---- --- --- ----- --- ---- ---- ------- ----- ---- -------<br>--- --- -- ----- -- --- ---- -- --- ---- -- ------ ------<br>--- ----- -- ----,208481.29999995232,208479.89999985695,208073.629,208079.09999990463,208090.2,208490.202,,2,comes
screen,html.Screen,2_1_0_1_3,2022-02-02T21:33:37.832Z,,,,,,,,,,,,,,,,,53,,,,,,,,,,,,,,421.39799990464235,,response,,,,99,,,,,,,Space,keypress(Space),,,,,,,,---- -- ----- to ------ - ------- --- ----------<br>------------- ------ ------ ---- ---- ------- ----- -- ----<br>-------- ------- -- ---------- --- - --- ----- ----- ----<br>---- --- --- ----- --- ---- ---- ------- ----- ---- -------<br>--- --- -- ----- -- --- ---- -- --- ---- -- ------ ------<br>--- ----- -- ----,208912.89999985695,208911.59999990463,208473.64,208481.59999990463,208490.202,208923.503,,3,to
screen,html.Screen,2_1_0_1_4,2022-02-02T21:33:38.227Z,,,,,,,,,,,,,,,,,53,,,,,,,,,,,,,,383.497000000003,,response,,,,99,,,,,,,Space,keypress(Space),,,,,,,,---- -- ----- -- having - ------- --- ----------<br>------------- ------ ------ ---- ---- ------- ----- -- ----<br>-------- ------- -- ---------- --- - --- ----- ----- ----<br>---- --- --- ----- --- ---- ---- ------- ----- ---- -------<br>--- --- -- ----- -- --- ---- -- --- ---- -- ------ ------<br>--- ----- -- ----,209308,209307,208906.864,208913.19999980927,208923.503,209324.145,,4,having
screen,html.Screen,2_1_0_1_5,2022-02-02T21:33:38.605Z,,,,,,,,,,,,,,,,,53,,,,,,,,,,,,,,360.3550000000105,,response,,,,99,,,,,,,Space,keypress(Space),,,,,,,,---- -- ----- -- ------ a ------- --- ----------<br>------------- ------ ------ ---- ---- ------- ----- -- ----<br>-------- ------- -- ---------- --- - --- ----- ----- ----<br>---- --- --- ----- --- ---- ---- ------- ----- ---- -------<br>--- --- -- ----- -- --- ---- -- --- ---- -- ------ ------<br>--- ----- -- ----,209685.79999995232,209684.5,209306.876,209308.29999995232,209324.145,209690.119,,5,a
screen,html.Screen,2_1_0_1_6,2022-02-02T21:33:39.007Z,,,,,,,,,,,,,,,,,53,,,,,,,,,,,,,,397.0809998092591,,response,,,,99,,,,,,,Space,keypress(Space),,,,,,,,---- -- ----- -- ------ - lasting --- ----------<br>------------- ------ ------ ---- ---- ------- ----- -- ----<br>-------- ------- -- ---------- --- - --- ----- ----- ----<br>---- --- --- ----- --- ---- ---- ------- ----- ---- -------<br>--- --- -- ----- -- --- ---- -- --- ---- -- ------ ------<br>--- ----- -- ----,210088.59999990463,210087.19999980927,209673.505,209686.09999990463,209690.119,210123.551,,6,lasting
screen,html.Screen,2_1_0_1_7,2022-02-02T21:33:39.348Z,,,,,,,,,,,,,,,,,53,,,,,,,,,,,,,,304.5489999046258,,response,,,,99,,,,,,,Space,keypress(Space),,,,,,,,---- -- ----- -- ------ - ------- and ----------<br>------------- ------ ------ ---- ---- ------- ----- -- ----<br>-------- ------- -- ---------- --- - --- ----- ----- ----<br>---- --- --- ----- --- ---- ---- ------- ----- ---- -------<br>--- --- -- ----- -- --- ---- -- --- ---- -- ------ ------<br>--- ----- -- ----,210429.5,210428.09999990463,210106.798,210089,210123.551,210440.118,,7,and
screen,html.Screen,2_1_0_1_8,2022-02-02T21:33:39.746Z,,,,,,,,,,,,,,,,,53,,,,,,,,,,,,,,385.4819999046449,,response,,,,99,,,,,,,Space,keypress(Space),,,,,,,,---- -- ----- -- ------ - ------- --- fulfilling<br>------------- ------ ------ ---- ---- ------- ----- -- ----<br>-------- ------- -- ---------- --- - --- ----- ----- ----<br>---- --- --- ----- --- ---- ---- ------- ----- ---- -------<br>--- --- -- ----- -- --- ---- -- --- ---- -- ------ ------<br>--- ----- -- ----,210826.79999995232,210825.59999990463,210423.433,210430,210440.118,210840.157,,8,fulfilling
screen,html.Screen,2_1_0_1_9,2022-02-02T21:33:40.117Z,,,,,,,,,,,,,,,,,53,,,,,,,,,,,,,,357.14299995230976,,response,,,,99,,,,,,,Space,keypress(Space),,,,,,,,"---- -- ----- -- ------ - ------- --- ----------<br>relationship, ------ ------ ---- ---- ------- ----- -- ----<br>-------- ------- -- ---------- --- - --- ----- ----- ----<br>---- --- --- ----- --- ---- ---- ------- ----- ---- -------<br>--- --- -- ----- -- --- ---- -- --- ---- -- ------ ------<br>--- ----- -- ----",211198.69999980927,211197.29999995232,210823.322,210827.09999990463,210840.157,211206.695,,9,"relationship,"
screen,html.Screen,2_1_0_1_10,2022-02-02T21:33:40.478Z,,,,,,,,,,,,,,,,,53,,,,,,,,,,,,,,351.50499980925815,,response,,,,99,,,,,,,Space,keypress(Space),,,,,,,,---- -- ----- -- ------ - ------- --- ----------<br>------------- common ------ ---- ---- ------- ----- -- ----<br>-------- ------- -- ---------- --- - --- ----- ----- ----<br>---- --- --- ----- --- ---- ---- ------- ----- ---- -------<br>--- --- -- ----- -- --- ---- -- --- ---- -- ------ ------<br>--- ----- -- ----,211559.39999985695,211558.19999980927,211190.063,211199.09999990463,211206.695,211573.387,,10,common
screen,html.Screen,2_1_0_1_11,2022-02-02T21:33:40.817Z,,,,,,,,,,,,,,,,,53,,,,,,,,,,,,,,323.31299980927724,,response,,,,99,,,,,,,Space,keypress(Space),,,,,,,,---- -- ----- -- ------ - ------- --- ----------<br>------------- ------ wisdom ---- ---- ------- ----- -- ----<br>-------- ------- -- ---------- --- - --- ----- ----- ----<br>---- --- --- ----- --- ---- ---- ------- ----- ---- -------<br>--- --- -- ----- -- --- ---- -- --- ---- -- ------ ------<br>--- ----- -- ----,211898.29999995232,211896.69999980927,211556.694,211559.59999990463,211573.387,211906.623,,11,wisdom
screen,html.Screen,2_1_0_1_12,2022-02-02T21:33:41.184Z,,,,,,,,,,,,,,,,,53,,,,,,,,,,,,,,356.97699990464025,,response,,,,99,,,,,,,Space,keypress(Space),,,,,,,,---- -- ----- -- ------ - ------- --- ----------<br>------------- ------ ------ says ---- ------- ----- -- ----<br>-------- ------- -- ---------- --- - --- ----- ----- ----<br>---- --- --- ----- --- ---- ---- ------- ----- ---- -------<br>--- --- -- ----- -- --- ---- -- --- ---- -- ------ ------<br>--- ----- -- ----,212264.79999995232,212263.59999990463,211890.013,211898.59999990463,211906.623,212273.229,,12,says
screen,html.Screen,2_1_0_1_13,2022-02-02T21:33:41.523Z,,,,,,,,,,,,,,,,,53,,,,,,,,,,,,,,328.97099980927305,,response,,,,99,,,,,,,Space,keypress(Space),,,,,,,,---- -- ----- -- ------ - ------- --- ----------<br>------------- ------ ------ ---- that ------- ----- -- ----<br>-------- ------- -- ---------- --- - --- ----- ----- ----<br>---- --- --- ----- --- ---- ---- ------- ----- ---- -------<br>--- --- -- ----- -- --- ---- -- --- ---- -- ------ ------<br>--- ----- -- ----,212603.69999980927,212602.19999980927,212256.572,212265.29999995232,212273.229,212606.559,,13,that
screen,html.Screen,2_1_0_1_14,2022-02-02T21:33:41.843Z,,,,,,,,,,,,,,,,,53,,,,,,,,,,,,,,316.84099985694047,,response,,,,99,,,,,,,Space,keypress(Space),,,,,,,,---- -- ----- -- ------ - ------- --- ----------<br>------------- ------ ------ ---- ---- feeling ----- -- ----<br>-------- ------- -- ---------- --- - --- ----- ----- ----<br>---- --- --- ----- --- ---- ---- ------- ----- ---- -------<br>--- --- -- ----- -- --- ---- -- --- ---- -- ------ ------<br>--- ----- -- ----,212924,212923.39999985695,212589.982,212604.19999980927,212606.559,212939.809,,14,feeling
screen,html.Screen,2_1_0_1_15,2022-02-02T21:33:42.180Z,,,,,,,,,,,,,,,,,53,,,,,,,,,,,,,,320.89099980925675,,response,,,,99,,,,,,,Space,keypress(Space),,,,,,,,---- -- ----- -- ------ - ------- --- ----------<br>------------- ------ ------ ---- ---- ------- close -- ----<br>-------- ------- -- ---------- --- - --- ----- ----- ----<br>---- --- --- ----- --- ---- ---- ------- ----- ---- -------<br>--- --- -- ----- -- --- ---- -- --- ---- -- ------ ------<br>--- ----- -- ----,213261.59999990463,213260.69999980927,212923.142,212924.19999980927,212939.809,213273.142,,15,close
screen,html.Screen,2_1_0_1_16,2022-02-02T21:33:42.514Z,,,,,,,,,,,,,,,,,53,,,,,,,,,,,,,,320.95799990464,,response,,,,99,,,,,,,Space,keypress(Space),,,,,,,,---- -- ----- -- ------ - ------- --- ----------<br>------------- ------ ------ ---- ---- ------- ----- to ----<br>-------- ------- -- ---------- --- - --- ----- ----- ----<br>---- --- --- ----- --- ---- ---- ------- ----- ---- -------<br>--- --- -- ----- -- --- ---- -- --- ---- -- ------ ------<br>--- ----- -- ----,213594.79999995232,213594.09999990463,213256.44,213261.69999980927,213273.142,213606.42,,16,to
screen,html.Screen,2_1_0_1_17,2022-02-02T21:33:42.847Z,,,,,,,,,,,,,,,,,53,,,,,,,,,,,,,,320.67999990461976,,response,,,,99,,,,,,,Space,keypress(Space),,,,,,,,---- -- ----- -- ------ - ------- --- ----------<br>------------- ------ ------ ---- ---- ------- ----- -- your<br>-------- ------- -- ---------- --- - --- ----- ----- ----<br>---- --- --- ----- --- ---- ---- ------- ----- ---- -------<br>--- --- -- ----- -- --- ---- -- --- ---- -- ------ ------<br>--- ----- -- ----,213927.89999985695,213927.09999990463,213589.75,213595,213606.42,213939.765,,17,your
screen,html.Screen,2_1_0_1_18,2022-02-02T21:33:43.182Z,,,,,,,,,,,,,,,,,53,,,,,,,,,,,,,,322.93499980925117,,response,,,,99,,,,,,,Space,keypress(Space),,,,,,,,---- -- ----- -- ------ - ------- --- ----------<br>------------- ------ ------ ---- ---- ------- ----- -- ----<br>romantic ------- -- ---------- --- - --- ----- ----- ----<br>---- --- --- ----- --- ---- ---- ------- ----- ---- -------<br>--- --- -- ----- -- --- ---- -- --- ---- -- ------ ------<br>--- ----- -- ----,214263.39999985695,214262.69999980927,213923.057,213928,213939.765,214273.073,,18,romantic
screen,html.Screen,2_1_0_1_19,2022-02-02T21:33:43.535Z,,,,,,,,,,,,,,,,,53,,,,,,,,,,,,,,342.0269999046286,,response,,,,99,,,,,,,Space,keypress(Space),,,,,,,,---- -- ----- -- ------ - ------- --- ----------<br>------------- ------ ------ ---- ---- ------- ----- -- ----<br>-------- partner -- ---------- --- - --- ----- ----- ----<br>---- --- --- ----- --- ---- ---- ------- ----- ---- -------<br>--- --- -- ----- -- --- ---- -- --- ---- -- ------ ------<br>--- ----- -- ----,214615.79999995232,214615.09999990463,214256.37,214263.59999990463,214273.073,214623.011,,19,partner
screen,html.Screen,2_1_0_1_20,2022-02-02T21:33:43.868Z,,,,,,,,,,,,,,,,,53,,,,,,,,,,,,,,325.38899985695025,,response,,,,99,,,,,,,Space,keypress(Space),,,,,,,,---- -- ----- -- ------ - ------- --- ----------<br>------------- ------ ------ ---- ---- ------- ----- -- ----<br>-------- ------- is ---------- --- - --- ----- ----- ----<br>---- --- --- ----- --- ---- ---- ------- ----- ---- -------<br>--- --- -- ----- -- --- ---- -- --- ---- -- ------ ------<br>--- ----- -- ----,214949.09999990463,214948.39999985695,214606.34,214616,214623.011,214956.377,,20,is
screen,html.Screen,2_1_0_1_21,2022-02-02T21:33:44.208Z,,,,,,,,,,,,,,,,,53,,,,,,,,,,,,,,332.02299985694117,,response,,,,99,,,,,,,Space,keypress(Space),,,,,,,,---- -- ----- -- ------ - ------- --- ----------<br>------------- ------ ------ ---- ---- ------- ----- -- ----<br>-------- ------- -- paramount. --- - --- ----- ----- ----<br>---- --- --- ----- --- ---- ---- ------- ----- ---- -------<br>--- --- -- ----- -- --- ---- -- --- ---- -- ------ ------<br>--- ----- -- ----,215289.19999980927,215288.39999985695,214939.655,214949.29999995232,214956.377,215306.361,,21,paramount.
screen,html.Screen,2_1_0_1_22,2022-02-02T21:33:44.545Z,,,,,,,,,,,,,,,,,53,,,,,,,,,,,,,,318.93899995231186,,response,,,,99,,,,,,,Space,keypress(Space),,,,,,,,---- -- ----- -- ------ - ------- --- ----------<br>------------- ------ ------ ---- ---- ------- ----- -- ----<br>-------- ------- -- ---------- But - --- ----- ----- ----<br>---- --- --- ----- --- ---- ---- ------- ----- ---- -------<br>--- --- -- ----- -- --- ---- -- --- ---- -- ------ ------<br>--- ----- -- ----,215626.09999990463,215625.29999995232,215289.763,215289.5,215306.361,215639.624,,22,But
screen,html.Screen,2_1_0_1_23,2022-02-02T21:33:44.883Z,,,,,,,,,,,,,,,,,53,,,,,,,,,,,,,,323.27599985693814,,response,,,,99,,,,,,,Space,keypress(Space),,,,,,,,---- -- ----- -- ------ - ------- --- ----------<br>------------- ------ ------ ---- ---- ------- ----- -- ----<br>-------- ------- -- ---------- --- a --- ----- ----- ----<br>---- --- --- ----- --- ---- ---- ------- ----- ---- -------<br>--- --- -- ----- -- --- ---- -- --- ---- -- ------ ------<br>--- ----- -- ----,215963.69999980927,215962.89999985695,215622.925,215626.09999990463,215639.624,215972.928,,23,a
screen,html.Screen,2_1_0_1_24,2022-02-02T21:33:45.248Z,,,,,,,,,,,,,,,,,53,,,,,,,,,,,,,,355.2719998092507,,response,,,,99,,,,,,,Space,keypress(Space),,,,,,,,---- -- ----- -- ------ - ------- --- ----------<br>------------- ------ ------ ---- ---- ------- ----- -- ----<br>-------- ------- -- ---------- --- - new ----- ----- ----<br>---- --- --- ----- --- ---- ---- ------- ----- ---- -------<br>--- --- -- ----- -- --- ---- -- --- ---- -- ------ ------<br>--- ----- -- ----,216329,216328.19999980927,215956.236,215963.79999995232,215972.928,216339.557,,24,new
screen,html.Screen,2_1_0_1_25,2022-02-02T21:33:45.617Z,,,,,,,,,,,,,,,,,53,,,,,,,,,,,,,,357.9429999999993,,response,,,,99,,,,,,,Space,keypress(Space),,,,,,,,---- -- ----- -- ------ - ------- --- ----------<br>------------- ------ ------ ---- ---- ------- ----- -- ----<br>-------- ------- -- ---------- --- - --- study ----- ----<br>---- --- --- ----- --- ---- ---- ------- ----- ---- -------<br>--- --- -- ----- -- --- ---- -- --- ---- -- ------ ------<br>--- ----- -- ----,216698.19999980927,216697.5,216322.884,216329.19999980927,216339.557,216706.187,,25,study
screen,html.Screen,2_1_0_1_26,2022-02-02T21:33:45.985Z,,,,,,,,,,,,,,,,,53,,,,,,,,,,,,,,359.61299995231093,,response,,,,99,,,,,,,Space,keypress(Space),,,,,,,,---- -- ----- -- ------ - ------- --- ----------<br>------------- ------ ------ ---- ---- ------- ----- -- ----<br>-------- ------- -- ---------- --- - --- ----- finds ----<br>---- --- --- ----- --- ---- ---- ------- ----- ---- -------<br>--- --- -- ----- -- --- ---- -- --- ---- -- ------ ------<br>--- ----- -- ----,217066.5,217065.79999995232,216689.521,216698.39999985695,216706.187,217072.846,,26,finds
screen,html.Screen,2_1_0_1_27,2022-02-02T21:33:46.336Z,,,,,,,,,,,,,,,,,53,,,,,,,,,,,,,,343.8539998092747,,response,,,,99,,,,,,,Space,keypress(Space),,,,,,,,---- -- ----- -- ------ - ------- --- ----------<br>------------- ------ ------ ---- ---- ------- ----- -- ----<br>-------- ------- -- ---------- --- - --- ----- ----- that<br>---- --- --- ----- --- ---- ---- ------- ----- ---- -------<br>--- --- -- ----- -- --- ---- -- --- ---- -- ------ ------<br>--- ----- -- ----,217417.59999990463,217416.69999980927,217056.158,217066.69999980927,217072.846,217422.833,,27,that
screen,html.Screen,2_1_0_1_28,2022-02-02T21:33:46.648Z,,,,,,,,,,,,,,,,,53,,,,,,,,,,,,,,305.36699980925187,,response,,,,99,,,,,,,Space,keypress(Space),,,,,,,,---- -- ----- -- ------ - ------- --- ----------<br>------------- ------ ------ ---- ---- ------- ----- -- ----<br>-------- ------- -- ---------- --- - --- ----- ----- ----<br>it's --- --- ----- --- ---- ---- ------- ----- ---- -------<br>--- --- -- ----- -- --- ---- -- --- ---- -- ------ ------<br>--- ----- -- ----,217729,217728.19999980927,217406.114,217417.69999980927,217422.833,217739.481,,28,it's
screen,html.Screen,2_1_0_1_29,2022-02-02T21:33:46.961Z,,,,,,,,,,,,,,,,,53,,,,,,,,,,,,,,301.51900000000023,,response,,,,99,,,,,,,Space,keypress(Space),,,,,,,,---- -- ----- -- ------ - ------- --- ----------<br>------------- ------ ------ ---- ---- ------- ----- -- ----<br>-------- ------- -- ---------- --- - --- ----- ----- ----<br>---- not --- ----- --- ---- ---- ------- ----- ---- -------<br>--- --- -- ----- -- --- ---- -- --- ---- -- ------ ------<br>--- ----- -- ----,218041.79999995232,218041,217722.788,217729.09999990463,217739.481,218056.133,,29,not
screen,html.Screen,2_1_0_1_30,2022-02-02T21:33:47.263Z,,,,,,,,,,,,,,,,,53,,,,,,,,,,,,,,287.46699990463094,,response,,,,99,,,,,,,Space,keypress(Space),,,,,,,,---- -- ----- -- ------ - ------- --- ----------<br>------------- ------ ------ ---- ---- ------- ----- -- ----<br>-------- ------- -- ---------- --- - --- ----- ----- ----<br>---- --- how ----- --- ---- ---- ------- ----- ---- -------<br>--- --- -- ----- -- --- ---- -- --- ---- -- ------ ------<br>--- ----- -- ----,218344.39999985695,218343.59999990463,218039.423,218042,218056.133,218356.092,,30,how
screen,html.Screen,2_1_0_1_31,2022-02-02T21:33:47.587Z,,,,,,,,,,,,,,,,,53,,,,,,,,,,,,,,311.0079999046284,,response,,,,99,,,,,,,Space,keypress(Space),,,,,,,,---- -- ----- -- ------ - ------- --- ----------<br>------------- ------ ------ ---- ---- ------- ----- -- ----<br>-------- ------- -- ---------- --- - --- ----- ----- ----<br>---- --- --- close --- ---- ---- ------- ----- ---- -------<br>--- --- -- ----- -- --- ---- -- --- ---- -- ------ ------<br>--- ----- -- ----,218667.89999985695,218667.09999990463,218339.408,218344.59999990463,218356.092,218672.692,,31,close
screen,html.Screen,2_1_0_1_32,2022-02-02T21:33:47.903Z,,,,,,,,,,,,,,,,,53,,,,,,,,,,,,,,310.40799990462256,,response,,,,99,,,,,,,Space,keypress(Space),,,,,,,,---- -- ----- -- ------ - ------- --- ----------<br>------------- ------ ------ ---- ---- ------- ----- -- ----<br>-------- ------- -- ---------- --- - --- ----- ----- ----<br>---- --- --- ----- you ---- ---- ------- ----- ---- -------<br>--- --- -- ----- -- --- ---- -- --- ---- -- ------ ------<br>--- ----- -- ----,218983.79999995232,218983.09999990463,218656.042,218668.09999990463,218672.692,218989.368,,32,you
screen,html.Screen,2_1_0_1_33,2022-02-02T21:33:48.204Z,,,,,,,,,,,,,,,,,53,,,,,,,,,,,,,,295.63200000001234,,response,,,,99,,,,,,,Space,keypress(Space),,,,,,,,---- -- ----- -- ------ - ------- --- ----------<br>------------- ------ ------ ---- ---- ------- ----- -- ----<br>-------- ------- -- ---------- --- - --- ----- ----- ----<br>---- --- --- ----- --- feel ---- ------- ----- ---- -------<br>--- --- -- ----- -- --- ---- -- --- ---- -- ------ ------<br>--- ----- -- ----,219285.59999990463,219285,218972.695,218983.89999985695,218989.368,219289.32,,33,feel
screen,html.Screen,2_1_0_1_34,2022-02-02T21:33:48.529Z,,,,,,,,,,,,,,,,,53,,,,,,,,,,,,,,319.9799999523093,,response,,,,99,,,,,,,Space,keypress(Space),,,,,,,,---- -- ----- -- ------ - ------- --- ----------<br>------------- ------ ------ ---- ---- ------- ----- -- ----<br>-------- ------- -- ---------- --- - --- ----- ----- ----<br>---- --- --- ----- --- ---- that ------- ----- ---- -------<br>--- --- -- ----- -- --- ---- -- --- ---- -- ------ ------<br>--- ----- -- ----,219610.39999985695,219609.29999995232,219272.659,219285.79999995232,219289.32,219622.67,,34,that
screen,html.Screen,2_1_0_1_35,2022-02-02T21:33:48.885Z,,,,,,,,,,,,,,,,,53,,,,,,,,,,,,,,343.3299999999872,,response,,,,99,,,,,,,Space,keypress(Space),,,,,,,,---- -- ----- -- ------ - ------- --- ----------<br>------------- ------ ------ ---- ---- ------- ----- -- ----<br>-------- ------- -- ---------- --- - --- ----- ----- ----<br>---- --- --- ----- --- ---- ---- matters ----- ---- -------<br>--- --- -- ----- -- --- ---- -- --- ---- -- ------ ------<br>--- ----- -- ----,219966.69999980927,219966,219605.967,219610.59999990463,219622.67,219972.604,,35,matters
screen,html.Screen,2_1_0_1_36,2022-02-02T21:33:49.249Z,,,,,,,,,,,,,,,,,53,,,,,,,,,,,,,,355.29599985695677,,response,,,,99,,,,,,,Space,keypress(Space),,,,,,,,"---- -- ----- -- ------ - ------- --- ----------<br>------------- ------ ------ ---- ---- ------- ----- -- ----<br>-------- ------- -- ---------- --- - --- ----- ----- ----<br>---- --- --- ----- --- ---- ---- ------- most, ---- -------<br>--- --- -- ----- -- --- ---- -- --- ---- -- ------ ------<br>--- ----- -- ----",220329.69999980927,220327.89999985695,219955.945,219966.89999985695,219972.604,220339.318,,36,"most,"
screen,html.Screen,2_1_0_1_37,2022-02-02T21:33:49.587Z,,,,,,,,,,,,,,,,,53,,,,,,,,,,,,,,327.481999952317,,response,,,,99,,,,,,,Space,keypress(Space),,,,,,,,---- -- ----- -- ------ - ------- --- ----------<br>------------- ------ ------ ---- ---- ------- ----- -- ----<br>-------- ------- -- ---------- --- - --- ----- ----- ----<br>---- --- --- ----- --- ---- ---- ------- ----- it's -------<br>--- --- -- ----- -- --- ---- -- --- ---- -- ------ ------<br>--- ----- -- ----,220668,220666.79999995232,220322.616,220329.89999985695,220339.318,220672.608,,37,it's
screen,html.Screen,2_1_0_1_38,2022-02-02T21:33:49.904Z,,,,,,,,,,,,,,,,,53,,,,,,,,,,,,,,310.89199999999255,,response,,,,99,,,,,,,Space,keypress(Space),,,,,,,,---- -- ----- -- ------ - ------- --- ----------<br>------------- ------ ------ ---- ---- ------- ----- -- ----<br>-------- ------- -- ---------- --- - --- ----- ----- ----<br>---- --- --- ----- --- ---- ---- ------- ----- ---- whether<br>--- --- -- ----- -- --- ---- -- --- ---- -- ------ ------<br>--- ----- -- ----,220985.29999995232,220983.5,220655.943,220668.39999985695,220672.608,220989.252,,38,whether
screen,html.Screen,2_1_0_1_39,2022-02-02T21:33:50.239Z,,,,,,,,,,,,,,,,,53,,,,,,,,,,,,,,330.14799985694117,,response,,,,99,,,,,,,Space,keypress(Space),,,,,,,,---- -- ----- -- ------ - ------- --- ----------<br>------------- ------ ------ ---- ---- ------- ----- -- ----<br>-------- ------- -- ---------- --- - --- ----- ----- ----<br>---- --- --- ----- --- ---- ---- ------- ----- ---- -------<br>you --- -- ----- -- --- ---- -- --- ---- -- ------ ------<br>--- ----- -- ----,221320.19999980927,221319.39999985695,220972.566,220985.69999980927,220989.252,221322.525,,39,you
screen,html.Screen,2_1_0_1_40,2022-02-02T21:33:50.572Z,,,,,,,,,,,,,,,,,53,,,,,,,,,,,,,,330.0749999046384,,response,,,,99,,,,,,,Space,keypress(Space),,,,,,,,---- -- ----- -- ------ - ------- --- ----------<br>------------- ------ ------ ---- ---- ------- ----- -- ----<br>-------- ------- -- ---------- --- - --- ----- ----- ----<br>---- --- --- ----- --- ---- ---- ------- ----- ---- -------<br>--- are -- ----- -- --- ---- -- --- ---- -- ------ ------<br>--- ----- -- ----,221653.19999980927,221652.59999990463,221305.99,221320.29999995232,221322.525,221655.811,,40,are
screen,html.Screen,2_1_0_1_41,2022-02-02T21:33:50.885Z,,,,,,,,,,,,,,,,,53,,,,,,,,,,,,,,309.2889999046456,,response,,,,99,,,,,,,Space,keypress(Space),,,,,,,,---- -- ----- -- ------ - ------- --- ----------<br>------------- ------ ------ ---- ---- ------- ----- -- ----<br>-------- ------- -- ---------- --- - --- ----- ----- ----<br>---- --- --- ----- --- ---- ---- ------- ----- ---- -------<br>--- --- as ----- -- --- ---- -- --- ---- -- ------ ------<br>--- ----- -- ----,221965.79999995232,221965.09999990463,221639.157,221653.39999985695,221655.811,221972.562,,41,as
screen,html.Screen,2_1_0_1_42,2022-02-02T21:33:51.247Z,,,,,,,,,,,,,,,,,53,,,,,,,,,,,,,,354.43799999999464,,response,,,,99,,,,,,,Space,keypress(Space),,,,,,,,---- -- ----- -- ------ - ------- --- ----------<br>------------- ------ ------ ---- ---- ------- ----- -- ----<br>-------- ------- -- ---------- --- - --- ----- ----- ----<br>---- --- --- ----- --- ---- ---- ------- ----- ---- -------<br>--- --- -- close -- --- ---- -- --- ---- -- ------ ------<br>--- ----- -- ----,222328.19999980927,222327,221955.812,221965.89999985695,221972.562,222339.175,,42,close
screen,html.Screen,2_1_0_1_43,2022-02-02T21:33:51.589Z,,,,,,,,,,,,,,,,,53,,,,,,,,,,,,,,329.5249998092768,,response,,,,99,,,,,,,Space,keypress(Space),,,,,,,,---- -- ----- -- ------ - ------- --- ----------<br>------------- ------ ------ ---- ---- ------- ----- -- ----<br>-------- ------- -- ---------- --- - --- ----- ----- ----<br>---- --- --- ----- --- ---- ---- ------- ----- ---- -------<br>--- --- -- ----- as --- ---- -- --- ---- -- ------ ------<br>--- ----- -- ----,222670.19999980927,222668.69999980927,222322.518,222328.5,222339.175,222672.489,,43,as
screen,html.Screen,2_1_0_1_44,2022-02-02T21:33:51.936Z,,,,,,,,,,,,,,,,,53,,,,,,,,,,,,,,343.5109999999986,,response,,,,99,,,,,,,Space,keypress(Space),,,,,,,,---- -- ----- -- ------ - ------- --- ----------<br>------------- ------ ------ ---- ---- ------- ----- -- ----<br>-------- ------- -- ---------- --- - --- ----- ----- ----<br>---- --- --- ----- --- ---- ---- ------- ----- ---- -------<br>--- --- -- ----- -- you ---- -- --- ---- -- ------ ------<br>--- ----- -- ----,223017.19999980927,223016,222655.873,222670.39999985695,222672.489,223022.478,,44,you
screen,html.Screen,2_1_0_1_45,2022-02-02T21:33:52.260Z,,,,,,,,,,,,,,,,,53,,,,,,,,,,,,,,317.72199980926234,,response,,,,99,,,,,,,Space,keypress(Space),,,,,,,,---- -- ----- -- ------ - ------- --- ----------<br>------------- ------ ------ ---- ---- ------- ----- -- ----<br>-------- ------- -- ---------- --- - --- ----- ----- ----<br>---- --- --- ----- --- ---- ---- ------- ----- ---- -------<br>--- --- -- ----- -- --- want -- --- ---- -- ------ ------<br>--- ----- -- ----,223341.59999990463,223340.19999980927,223005.876,223017.59999990463,223022.478,223355.926,,45,want
screen,html.Screen,2_1_0_1_46,2022-02-02T21:33:52.617Z,,,,,,,,,,,,,,,,,53,,,,,,,,,,,,,,341.4739998569421,,response,,,,99,,,,,,,Space,keypress(Space),,,,,,,,---- -- ----- -- ------ - ------- --- ----------<br>------------- ------ ------ ---- ---- ------- ----- -- ----<br>-------- ------- -- ---------- --- - --- ----- ----- ----<br>---- --- --- ----- --- ---- ---- ------- ----- ---- -------<br>--- --- -- ----- -- --- ---- to --- ---- -- ------ ------<br>--- ----- -- ----,223698.59999990463,223697.39999985695,223339.179,223341.79999995232,223355.926,223705.748,,46,to
screen,html.Screen,2_1_0_1_47,2022-02-02T21:33:52.981Z,,,,,,,,,,,,,,,,,53,,,,,,,,,,,,,,354.9519998092728,,response,,,,99,,,,,,,Space,keypress(Space),,,,,,,,"---- -- ----- -- ------ - ------- --- ----------<br>------------- ------ ------ ---- ---- ------- ----- -- ----<br>-------- ------- -- ---------- --- - --- ----- ----- ----<br>---- --- --- ----- --- ---- ---- ------- ----- ---- -------<br>--- --- -- ----- -- --- ---- -- be, ---- -- ------ ------<br>--- ----- -- ----",224062.09999990463,224060.69999980927,223689.116,223699,223705.748,224072.379,,47,"be,"
screen,html.Screen,2_1_0_1_48,2022-02-02T21:33:53.307Z,,,,,,,,,,,,,,,,,53,,,,,,,,,,,,,,315.0209998569626,,response,,,,99,,,,,,,Space,keypress(Space),,,,,,,,---- -- ----- -- ------ - ------- --- ----------<br>------------- ------ ------ ---- ---- ------- ----- -- ----<br>-------- ------- -- ---------- --- - --- ----- ----- ----<br>---- --- --- ----- --- ---- ---- ------- ----- ---- -------<br>--- --- -- ----- -- --- ---- -- --- even -- ------ ------<br>--- ----- -- ----,224388.59999990463,224387.39999985695,224055.724,224062.39999985695,224072.379,224405.834,,48,even
screen,html.Screen,2_1_0_1_49,2022-02-02T21:33:53.633Z,,,,,,,,,,,,,,,,,53,,,,,,,,,,,,,,307.26599990463,,response,,,,99,,,,,,,Space,keypress(Space),,,,,,,,---- -- ----- -- ------ - ------- --- ----------<br>------------- ------ ------ ---- ---- ------- ----- -- ----<br>-------- ------- -- ---------- --- - --- ----- ----- ----<br>---- --- --- ----- --- ---- ---- ------- ----- ---- -------<br>--- --- -- ----- -- --- ---- -- --- ---- if ------ ------<br>--- ----- -- ----,224714.29999995232,224713.09999990463,224389.095,224389,224405.834,224722.394,,49,if
screen,html.Screen,2_1_0_1_50,2022-02-02T21:33:54.004Z,,,,,,,,,,,,,,,,,53,,,,,,,,,,,,,,361.70599990463234,,response,,,,99,,,,,,,Space,keypress(Space),,,,,,,,---- -- ----- -- ------ - ------- --- ----------<br>------------- ------ ------ ---- ---- ------- ----- -- ----<br>-------- ------- -- ---------- --- - --- ----- ----- ----<br>---- --- --- ----- --- ---- ---- ------- ----- ---- -------<br>--- --- -- ----- -- --- ---- -- --- ---- -- that's ------<br>--- ----- -- ----,225084.69999980927,225084.09999990463,224705.714,224714.59999990463,224722.394,225089.099,,50,that's
screen,html.Screen,2_1_0_1_51,2022-02-02T21:33:54.337Z,,,,,,,,,,,,,,,,,53,,,,,,,,,,,,,,327.50099990464514,,response,,,,99,,,,,,,Space,keypress(Space),,,,,,,,---- -- ----- -- ------ - ------- --- ----------<br>------------- ------ ------ ---- ---- ------- ----- -- ----<br>-------- ------- -- ---------- --- - --- ----- ----- ----<br>---- --- --- ----- --- ---- ---- ------- ----- ---- -------<br>--- --- -- ----- -- --- ---- -- --- ---- -- ------ really<br>--- ----- -- ----,225417.79999995232,225416.59999990463,225072.378,225084.79999995232,225089.099,225422.271,,51,really
screen,html.Screen,2_1_0_1_52,2022-02-02T21:33:54.742Z,,,,,,,,,,,,,,,,,53,,,,,,,,,,,,,,400.2289999999921,,response,,,,99,,,,,,,Space,keypress(Space),,,,,,,,---- -- ----- -- ------ - ------- --- ----------<br>------------- ------ ------ ---- ---- ------- ----- -- ----<br>-------- ------- -- ---------- --- - --- ----- ----- ----<br>---- --- --- ----- --- ---- ---- ------- ----- ---- -------<br>--- --- -- ----- -- --- ---- -- --- ---- -- ------ ------<br>not ----- -- ----,225823.59999990463,225822.5,225405.692,225418.09999990463,225422.271,225839.061,,52,not
screen,html.Screen,2_1_0_1_53,2022-02-02T21:33:55.043Z,,,,,,,,,,,,,,,,,53,,,,,,,,,,,,,,284.0389999046456,,response,,,,99,,,,,,,Space,keypress(Space),,,,,,,,---- -- ----- -- ------ - ------- --- ----------<br>------------- ------ ------ ---- ---- ------- ----- -- ----<br>-------- ------- -- ---------- --- - --- ----- ----- ----<br>---- --- --- ----- --- ---- ---- ------- ----- ---- -------<br>--- --- -- ----- -- --- ---- -- --- ---- -- ------ ------<br>--- close -- ----,226123.79999995232,226123.09999990463,225822.304,225823.89999985695,225839.061,226138.888,,53,close
screen,html.Screen,2_1_0_1_54,2022-02-02T21:33:55.438Z,,,,,,,,,,,,,,,,,53,,,,,,,,,,,,,,378.91199995231,,response,,,,99,,,,,,,Space,keypress(Space),,,,,,,,---- -- ----- -- ------ - ------- --- ----------<br>------------- ------ ------ ---- ---- ------- ----- -- ----<br>-------- ------- -- ---------- --- - --- ----- ----- ----<br>---- --- --- ----- --- ---- ---- ------- ----- ---- -------<br>--- --- -- ----- -- --- ---- -- --- ---- -- ------ ------<br>--- ----- at ----,226519.5,226517.79999995232,226122.315,226124,226138.888,226522.187,,54,at
screen,html.Screen,2_1_0_1_55,2022-02-02T21:33:57.702Z,,,,,,,,,,,,,,,,,53,,,,,,,,,,,,,,2259.612999952311,,response,,,,99,,,,,,,Space,keypress(Space),,,,,,,,---- -- ----- -- ------ - ------- --- ----------<br>------------- ------ ------ ---- ---- ------- ----- -- ----<br>-------- ------- -- ---------- --- - --- ----- ----- ----<br>---- --- --- ----- --- ---- ---- ------- ----- ---- -------<br>--- --- -- ----- -- --- ---- -- --- ---- -- ------ ------<br>--- ----- -- all.,228783.19999980927,228781.79999995232,226505.562,226519.89999985695,226522.187,228788.667,,55,all.
Item 99,flow.Loop,2_1_0_1,2022-02-02T21:33:57.703Z,,,,,,,,,,,,,,,,,,,,,,,,,,,,,,,22158.20099995233,,completion,,,,,E,,,,,,,,,,,silence,,,,,228783.89999985695,228781.79999995232,206457.005,206458.39999985695,206623.599,228788.667,,,
Question 1,html.Screen,2_1_0_2,2022-02-02T21:34:14.217Z,,,,,,,,,,,,,,,,,,,,,,,,,,,,true,FALSE,,16507.932999904646,,response,,,,99,E,,,,,,FALSE,click #choice-2,,,,silence,,,,,245297.69999980927,245296.59999990463,228772.062,228784.09999990463,228788.667,245304.093,,,
Question 2,html.Screen,2_1_0_3,2022-02-02T21:34:18.268Z,,,,,,,,,,,,,,,,,,,,,,,,,,,,true,TRUE,,4044.006999904639,,response,,,,99,E,,,,,,TRUE,click #choice-1,,,,silence,,,,,249348.89999985695,249348.09999990463,245287.493,245297.89999985695,245304.093,249353.825,,,
Item 99,flow.Sequence,2_1_0,2022-02-02T21:34:18.268Z,,,,,,,,,,,,,,,,,,,,,,,,,,,,,,,52873.75799990463,,completion,,,,,,,,,,,,,,,,,,,,,249349.09999990463,249348.09999990463,196457.742,196460.09999990463,196474.342,249353.825,,,
Holding screen,html.Screen,2_1_1_0,2022-02-02T21:34:28.256Z,,,,,,,,,,,,,,,,,,,,,,,,,,,,,,,9999.448999999993,,timeout,,,,,,,,,,,,,,,,,,,,,259337.59999990463,259336.485,249337.152,249349.19999980927,249353.825,259353.274,,,
screen,html.Screen,2_1_1_1_0,2022-02-02T21:34:29.162Z,,,,,,,,,,,,,,,,,54,,,,,,,,,,,,,,888.0259999523114,,response,,,,100,,,,,,,Space,keypress(Space),,,,,,,,At --- ---- --- ------ ----- ------- ---- -- --- ------- --<br>------- ---------- ------ -- ----- -- ----- -- ---- ------<br>--- ----- --- --- ------ -------- ----- --- ------ ----- --<br>----- ----- ---------- --- --- ------ ------ ---- -- ------<br>------- --- ------ ----- --- ---- ------- -- ---- --- --<br>------- ------,260242.89999985695,260241.29999995232,259336.485,259338,259353.274,260253.176,,0,At
screen,html.Screen,2_1_1_1_1,2022-02-02T21:34:29.501Z,,,,,,,,,,,,,,,,,54,,,,,,,,,,,,,,327.62399995230953,,response,,,,100,,,,,,,Space,keypress(Space),,,,,,,,-- the ---- --- ------ ----- ------- ---- -- --- ------- --<br>------- ---------- ------ -- ----- -- ----- -- ---- ------<br>--- ----- --- --- ------ -------- ----- --- ------ ----- --<br>----- ----- ---------- --- --- ------ ------ ---- -- ------<br>------- --- ------ ----- --- ---- ------- -- ---- --- --<br>------- ------,260582.29999995232,260580.79999995232,260236.395,260243.19999980927,260253.176,260586.363,,1,the
screen,html.Screen,2_1_1_1_2,2022-02-02T21:34:29.826Z,,,,,,,,,,,,,,,,,54,,,,,,,,,,,,,,319.6369999999879,,response,,,,100,,,,,,,Space,keypress(Space),,,,,,,,-- --- time --- ------ ----- ------- ---- -- --- ------- --<br>------- ---------- ------ -- ----- -- ----- -- ---- ------<br>--- ----- --- --- ------ -------- ----- --- ------ ----- --<br>----- ----- ---------- --- --- ------ ------ ---- -- ------<br>------- --- ------ ----- --- ---- ------- -- ---- --- --<br>------- ------,260907.19999980927,260906,260569.765,260582.59999990463,260586.363,260919.752,,2,time
screen,html.Screen,2_1_1_1_3,2022-02-02T21:34:30.170Z,,,,,,,,,,,,,,,,,54,,,,,,,,,,,,,,330.44799980925745,,response,,,,100,,,,,,,Space,keypress(Space),,,,,,,,-- --- ---- the ------ ----- ------- ---- -- --- ------- --<br>------- ---------- ------ -- ----- -- ----- -- ---- ------<br>--- ----- --- --- ------ -------- ----- --- ------ ----- --<br>----- ----- ---------- --- --- ------ ------ ---- -- ------<br>------- --- ------ ----- --- ---- ------- -- ---- --- --<br>------- ------,261251.39999985695,261250.19999980927,260903.088,260907.5,260919.752,261272.34,,3,the
screen,html.Screen,2_1_1_1_4,2022-02-02T21:34:30.478Z,,,,,,,,,,,,,,,,,54,,,,,,,,,,,,,,285.4599999523198,,response,,,,100,,,,,,,Space,keypress(Space),,,,,,,,-- --- ---- --- French ----- ------- ---- -- --- ------- --<br>------- ---------- ------ -- ----- -- ----- -- ---- ------<br>--- ----- --- --- ------ -------- ----- --- ------ ----- --<br>----- ----- ---------- --- --- ------ ------ ---- -- ------<br>------- --- ------ ----- --- ---- ------- -- ---- --- --<br>------- ------,261559,261557.79999995232,261236.248,261251.69999980927,261272.34,261569.796,,4,French
screen,html.Screen,2_1_1_1_5,2022-02-02T21:34:30.832Z,,,,,,,,,,,,,,,,,54,,,,,,,,,,,,,,342.3039999046305,,response,,,,100,,,,,,,Space,keypress(Space),,,,,,,,-- --- ---- --- ------ crown ------- ---- -- --- ------- --<br>------- ---------- ------ -- ----- -- ----- -- ---- ------<br>--- ----- --- --- ------ -------- ----- --- ------ ----- --<br>----- ----- ---------- --- --- ------ ------ ---- -- ------<br>------- --- ------ ----- --- ---- ------- -- ---- --- --<br>------- ------,261913.29999995232,261912.09999990463,261553.031,261559.29999995232,261569.796,261919.582,,5,crown
screen,html.Screen,2_1_1_1_6,2022-02-02T21:34:31.267Z,,,,,,,,,,,,,,,,,54,,,,,,,,,,,,,,427.5179999046377,,response,,,,100,,,,,,,Space,keypress(Space),,,,,,,,-- --- ---- --- ------ ----- secured ---- -- --- ------- --<br>------- ---------- ------ -- ----- -- ----- -- ---- ------<br>--- ----- --- --- ------ -------- ----- --- ------ ----- --<br>----- ----- ---------- --- --- ------ ------ ---- -- ------<br>------- --- ------ ----- --- ---- ------- -- ---- --- --<br>------- ------,262347.89999985695,262347.09999990463,261903.013,261913.59999990463,261919.582,262352.831,,6,secured
screen,html.Screen,2_1_1_1_7,2022-02-02T21:34:31.616Z,,,,,,,,,,,,,,,,,54,,,,,,,,,,,,,,343.36899980925955,,response,,,,100,,,,,,,Space,keypress(Space),,,,,,,,-- --- ---- --- ------ ----- ------- much -- --- ------- --<br>------- ---------- ------ -- ----- -- ----- -- ---- ------<br>--- ----- --- --- ------ -------- ----- --- ------ ----- --<br>----- ----- ---------- --- --- ------ ------ ---- -- ------<br>------- --- ------ ----- --- ---- ------- -- ---- --- --<br>------- ------,262697.39999985695,262696.19999980927,262336.295,262348,262352.831,262702.909,,7,much
screen,html.Screen,2_1_1_1_8,2022-02-02T21:34:31.980Z,,,,,,,,,,,,,,,,,54,,,,,,,,,,,,,,357.3909999523312,,response,,,,100,,,,,,,Space,keypress(Space),,,,,,,,-- --- ---- --- ------ ----- ------- ---- of --- ------- --<br>------- ---------- ------ -- ----- -- ----- -- ---- ------<br>--- ----- --- --- ------ -------- ----- --- ------ ----- --<br>----- ----- ---------- --- --- ------ ------ ---- -- ------<br>------- --- ------ ----- --- ---- ------- -- ---- --- --<br>------- ------,263061.69999980927,263060.2999999523,262686.278,262697.59999990463,262702.909,263069.528,,8,of
screen,html.Screen,2_1_1_1_9,2022-02-02T21:34:32.333Z,,,,,,,,,,,,,,,,,54,,,,,,,,,,,,,,343.171999809274,,response,,,,100,,,,,,,Space,keypress(Space),,,,,,,,-- --- ---- --- ------ ----- ------- ---- -- its ------- --<br>------- ---------- ------ -- ----- -- ----- -- ---- ------<br>--- ----- --- --- ------ -------- ----- --- ------ ----- --<br>----- ----- ---------- --- --- ------ ------ ---- -- ------<br>------- --- ------ ----- --- ---- ------- -- ---- --- --<br>------- ------,263413.7999999523,263412.69999980927,263052.924,263061.89999985695,263069.528,263419.491,,9,its
screen,html.Screen,2_1_1_1_10,2022-02-02T21:34:32.652Z,,,,,,,,,,,,,,,,,54,,,,,,,,,,,,,,312.70899980928516,,response,,,,100,,,,,,,Space,keypress(Space),,,,,,,,-- --- ---- --- ------ ----- ------- ---- -- --- revenue --<br>------- ---------- ------ -- ----- -- ----- -- ---- ------<br>--- ----- --- --- ------ -------- ----- --- ------ ----- --<br>----- ----- ---------- --- --- ------ ------ ---- -- ------<br>------- --- ------ ----- --- ---- ------- -- ---- --- --<br>------- ------,263733.59999990463,263732.19999980927,263402.826,263414.09999990463,263419.491,263736.104,,10,revenue
screen,html.Screen,2_1_1_1_11,2022-02-02T21:34:33.007Z,,,,,,,,,,,,,,,,,54,,,,,,,,,,,,,,350.6959999523242,,response,,,,100,,,,,,,Space,keypress(Space),,,,,,,,-- --- ---- --- ------ ----- ------- ---- -- --- ------- by<br>------- ---------- ------ -- ----- -- ----- -- ---- ------<br>--- ----- --- --- ------ -------- ----- --- ------ ----- --<br>----- ----- ---------- --- --- ------ ------ ---- -- ------<br>------- --- ------ ----- --- ---- ------- -- ---- --- --<br>------- ------,264088.19999980927,264086.7999999523,263719.548,263733.7999999523,263736.104,264102.903,,11,by
screen,html.Screen,2_1_1_1_12,2022-02-02T21:34:33.325Z,,,,,,,,,,,,,,,,,54,,,,,,,,,,,,,,301.1969999046414,,response,,,,100,,,,,,,Space,keypress(Space),,,,,,,,-- --- ---- --- ------ ----- ------- ---- -- --- ------- --<br>issuing ---------- ------ -- ----- -- ----- -- ---- ------<br>--- ----- --- --- ------ -------- ----- --- ------ ----- --<br>----- ----- ---------- --- --- ------ ------ ---- -- ------<br>------- --- ------ ----- --- ---- ------- -- ---- --- --<br>------- ------,264405.69999980927,264404.09999990463,264086.072,264088.59999990463,264102.903,264419.527,,12,issuing
screen,html.Screen,2_1_1_1_13,2022-02-02T21:34:33.672Z,,,,,,,,,,,,,,,,,54,,,,,,,,,,,,,,332.7729999523144,,response,,,,100,,,,,,,Space,keypress(Space),,,,,,,,-- --- ---- --- ------ ----- ------- ---- -- --- ------- --<br>------- government ------ -- ----- -- ----- -- ---- ------<br>--- ----- --- --- ------ -------- ----- --- ------ ----- --<br>----- ----- ---------- --- --- ------ ------ ---- -- ------<br>------- --- ------ ----- --- ---- ------- -- ---- --- --<br>------- ------,264753.59999990463,264752.2999999523,264402.817,264406.09999990463,264419.527,264769.532,,13,government
screen,html.Screen,2_1_1_1_14,2022-02-02T21:34:34.017Z,,,,,,,,,,,,,,,,,54,,,,,,,,,,,,,,327.86799985694233,,response,,,,100,,,,,,,Space,keypress(Space),,,,,,,,-- --- ---- --- ------ ----- ------- ---- -- --- ------- --<br>------- ---------- bonds. -- ----- -- ----- -- ---- ------<br>--- ----- --- --- ------ -------- ----- --- ------ ----- --<br>----- ----- ---------- --- --- ------ ------ ---- -- ------<br>------- --- ------ ----- --- ---- ------- -- ---- --- --<br>------- ------,265098.59999990463,265097.39999985695,264752.769,264753.89999985695,264769.532,265102.729,,14,bonds.
screen,html.Screen,2_1_1_1_15,2022-02-02T21:34:34.333Z,,,,,,,,,,,,,,,,,54,,,,,,,,,,,,,,309.7710000000079,,response,,,,100,,,,,,,Space,keypress(Space),,,,,,,,-- --- ---- --- ------ ----- ------- ---- -- --- ------- --<br>------- ---------- ------ In ----- -- ----- -- ---- ------<br>--- ----- --- --- ------ -------- ----- --- ------ ----- --<br>----- ----- ---------- --- --- ------ ------ ---- -- ------<br>------- --- ------ ----- --- ---- ------- -- ---- --- --<br>------- ------,265413.69999980927,265412.5,265086.117,265098.89999985695,265102.729,265419.311,,15,In
screen,html.Screen,2_1_1_1_16,2022-02-02T21:34:34.655Z,,,,,,,,,,,,,,,,,54,,,,,,,,,,,,,,315.2889999046456,,response,,,,100,,,,,,,Space,keypress(Space),,,,,,,,"-- --- ---- --- ------ ----- ------- ---- -- --- ------- --<br>------- ---------- ------ -- 1727, -- ----- -- ---- ------<br>--- ----- --- --- ------ -------- ----- --- ------ ----- --<br>----- ----- ---------- --- --- ------ ------ ---- -- ------<br>------- --- ------ ----- --- ---- ------- -- ---- --- --<br>------- ------",265735.89999985695,265734.59999990463,265402.756,265414.09999990463,265419.311,265752.743,,16,"1727,"
screen,html.Screen,2_1_1_1_17,2022-02-02T21:34:34.981Z,,,,,,,,,,,,,,,,,54,,,,,,,,,,,,,,308.4569998092484,,response,,,,100,,,,,,,Space,keypress(Space),,,,,,,,-- --- ---- --- ------ ----- ------- ---- -- --- ------- --<br>------- ---------- ------ -- ----- in ----- -- ---- ------<br>--- ----- --- --- ------ -------- ----- --- ------ ----- --<br>----- ----- ---------- --- --- ------ ------ ---- -- ------<br>------- --- ------ ----- --- ---- ------- -- ---- --- --<br>------- ------,266062.5,266061.19999980927,265736.053,265736.2999999523,265752.743,266069.272,,17,in
screen,html.Screen,2_1_1_1_18,2022-02-02T21:34:35.928Z,,,,,,,,,,,,,,,,,54,,,,,,,,,,,,,,938.4279998092679,,response,,,,100,,,,,,,Space,keypress(Space),,,,,,,,-- --- ---- --- ------ ----- ------- ---- -- --- ------- --<br>------- ---------- ------ -- ----- -- order -- ---- ------<br>--- ----- --- --- ------ -------- ----- --- ------ ----- --<br>----- ----- ---------- --- --- ------ ------ ---- -- ------<br>------- --- ------ ----- --- ---- ------- -- ---- --- --<br>------- ------,267008.89999985695,267007.69999980927,266052.655,266062.7999999523,266069.272,267019.334,,18,order
screen,html.Screen,2_1_1_1_19,2022-02-02T21:34:36.636Z,,,,,,,,,,,,,,,,,54,,,,,,,,,,,,,,696.2659999046591,,response,,,,100,,,,,,,Space,keypress(Space),,,,,,,,-- --- ---- --- ------ ----- ------- ---- -- --- ------- --<br>------- ---------- ------ -- ----- -- ----- to ---- ------<br>--- ----- --- --- ------ -------- ----- --- ------ ----- --<br>----- ----- ---------- --- --- ------ ------ ---- -- ------<br>------- --- ------ ----- --- ---- ------- -- ---- --- --<br>------- ------,267716.7999999523,267715.59999990463,267002.628,267009.2999999523,267019.334,267719.178,,19,to
screen,html.Screen,2_1_1_1_20,2022-02-02T21:34:36.932Z,,,,,,,,,,,,,,,,,54,,,,,,,,,,,,,,292.82199999998556,,response,,,,100,,,,,,,Space,keypress(Space),,,,,,,,-- --- ---- --- ------ ----- ------- ---- -- --- ------- --<br>------- ---------- ------ -- ----- -- ----- -- save ------<br>--- ----- --- --- ------ -------- ----- --- ------ ----- --<br>----- ----- ---------- --- --- ------ ------ ---- -- ------<br>------- --- ------ ----- --- ---- ------- -- ---- --- --<br>------- ------,268013.39999985695,268012,267702.456,267717.19999980927,267719.178,268019.155,,20,save
screen,html.Screen,2_1_1_1_21,2022-02-02T21:34:37.273Z,,,,,,,,,,,,,,,,,54,,,,,,,,,,,,,,333.94499990460463,,response,,,,100,,,,,,,Space,keypress(Space),,,,,,,,"-- --- ---- --- ------ ----- ------- ---- -- --- ------- --<br>------- ---------- ------ -- ----- -- ----- -- ---- money,<br>--- ----- --- --- ------ -------- ----- --- ------ ----- --<br>----- ----- ---------- --- --- ------ ------ ---- -- ------<br>------- --- ------ ----- --- ---- ------- -- ---- --- --<br>------- ------",268353.89999985695,268353.09999990463,268002.567,268013.59999990463,268019.155,268369.213,,21,"money,"
screen,html.Screen,2_1_1_1_22,2022-02-02T21:34:37.772Z,,,,,,,,,,,,,,,,,54,,,,,,,,,,,,,,482.68699985696,,response,,,,100,,,,,,,Space,keypress(Space),,,,,,,,-- --- ---- --- ------ ----- ------- ---- -- --- ------- --<br>------- ---------- ------ -- ----- -- ----- -- ---- ------<br>the ----- --- --- ------ -------- ----- --- ------ ----- --<br>----- ----- ---------- --- --- ------ ------ ---- -- ------<br>------- --- ------ ----- --- ---- ------- -- ---- --- --<br>------- ------,268853.09999990463,268851.89999985695,268352.53,268354.19999980927,268369.213,268869.247,,22,the
screen,html.Screen,2_1_1_1_23,2022-02-02T21:34:38.134Z,,,,,,,,,,,,,,,,,54,,,,,,,,,,,,,,344.65299985697493,,response,,,,100,,,,,,,Space,keypress(Space),,,,,,,,-- --- ---- --- ------ ----- ------- ---- -- --- ------- --<br>------- ---------- ------ -- ----- -- ----- -- ---- ------<br>--- state --- --- ------ -------- ----- --- ------ ----- --<br>----- ----- ---------- --- --- ------ ------ ---- -- ------<br>------- --- ------ ----- --- ---- ------- -- ---- --- --<br>------- ------,269215.09999990463,269213.89999985695,268852.454,268853.5,268869.247,269219.098,,23,state
screen,html.Screen,2_1_1_1_24,2022-02-02T21:34:38.476Z,,,,,,,,,,,,,,,,,54,,,,,,,,,,,,,,336.40200000000186,,response,,,,100,,,,,,,Space,keypress(Space),,,,,,,,-- --- ---- --- ------ ----- ------- ---- -- --- ------- --<br>------- ---------- ------ -- ----- -- ----- -- ---- ------<br>--- ----- cut --- ------ -------- ----- --- ------ ----- --<br>----- ----- ---------- --- --- ------ ------ ---- -- ------<br>------- --- ------ ----- --- ---- ------- -- ---- --- --<br>------- ------,269556.69999980927,269555.5,269202.363,269215.5,269219.098,269569.172,,24,cut
screen,html.Screen,2_1_1_1_25,2022-02-02T21:34:38.832Z,,,,,,,,,,,,,,,,,54,,,,,,,,,,,,,,343.22799985692836,,response,,,,100,,,,,,,Space,keypress(Space),,,,,,,,-- --- ---- --- ------ ----- ------- ---- -- --- ------- --<br>------- ---------- ------ -- ----- -- ----- -- ---- ------<br>--- ----- --- the ------ -------- ----- --- ------ ----- --<br>----- ----- ---------- --- --- ------ ------ ---- -- ------<br>------- --- ------ ----- --- ---- ------- -- ---- --- --<br>------- ------,269913.39999985695,269912.39999985695,269552.439,269557,269569.172,269918.999,,25,the
screen,html.Screen,2_1_1_1_26,2022-02-02T21:34:39.169Z,,,,,,,,,,,,,,,,,54,,,,,,,,,,,,,,330.0009999999893,,response,,,,100,,,,,,,Space,keypress(Space),,,,,,,,-- --- ---- --- ------ ----- ------- ---- -- --- ------- --<br>------- ---------- ------ -- ----- -- ----- -- ---- ------<br>--- ----- --- --- bonds' -------- ----- --- ------ ----- --<br>----- ----- ---------- --- --- ------ ------ ---- -- ------<br>------- --- ------ ----- --- ---- ------- -- ---- --- --<br>------- ------,270250.2999999523,270249,269902.443,269913.69999980927,269918.999,270252.322,,26,bonds'
screen,html.Screen,2_1_1_1_27,2022-02-02T21:34:39.482Z,,,,,,,,,,,,,,,,,54,,,,,,,,,,,,,,309.5779998569633,,response,,,,100,,,,,,,Space,keypress(Space),,,,,,,,-- --- ---- --- ------ ----- ------- ---- -- --- ------- --<br>------- ---------- ------ -- ----- -- ----- -- ---- ------<br>--- ----- --- --- ------ interest ----- --- ------ ----- --<br>----- ----- ---------- --- --- ------ ------ ---- -- ------<br>------- --- ------ ----- --- ---- ------- -- ---- --- --<br>------- ------,270563.09999990463,270561.89999985695,270235.755,270250.69999980927,270252.322,270568.946,,27,interest
screen,html.Screen,2_1_1_1_28,2022-02-02T21:34:39.822Z,,,,,,,,,,,,,,,,,54,,,,,,,,,,,,,,332.75399980926886,,response,,,,100,,,,,,,Space,keypress(Space),,,,,,,,-- --- ---- --- ------ ----- ------- ---- -- --- ------- --<br>------- ---------- ------ -- ----- -- ----- -- ---- ------<br>--- ----- --- --- ------ -------- rate. --- ------ ----- --<br>----- ----- ---------- --- --- ------ ------ ---- -- ------<br>------- --- ------ ----- --- ---- ------- -- ---- --- --<br>------- ------,270903,270901.69999980927,270552.375,270563.2999999523,270568.946,270918.957,,28,rate.
screen,html.Screen,2_1_1_1_29,2022-02-02T21:34:40.155Z,,,,,,,,,,,,,,,,,54,,,,,,,,,,,,,,315.8429999523214,,response,,,,100,,,,,,,Space,keypress(Space),,,,,,,,-- --- ---- --- ------ ----- ------- ---- -- --- ------- --<br>------- ---------- ------ -- ----- -- ----- -- ---- ------<br>--- ----- --- --- ------ -------- ----- The ------ ----- --<br>----- ----- ---------- --- --- ------ ------ ---- -- ------<br>------- --- ------ ----- --- ---- ------- -- ---- --- --<br>------- ------,271236.09999990463,271234.7999999523,270902.346,270903.19999980927,270918.957,271252.341,,29,The
screen,html.Screen,2_1_1_1_30,2022-02-02T21:34:40.495Z,,,,,,,,,,,,,,,,,54,,,,,,,,,,,,,,322.35899980925024,,response,,,,100,,,,,,,Space,keypress(Space),,,,,,,,-- --- ---- --- ------ ----- ------- ---- -- --- ------- --<br>------- ---------- ------ -- ----- -- ----- -- ---- ------<br>--- ----- --- --- ------ -------- ----- --- market ----- --<br>----- ----- ---------- --- --- ------ ------ ---- -- ------<br>------- --- ------ ----- --- ---- ------- -- ---- --- --<br>------- ------,271575.7999999523,271574.69999980927,271235.64,271236.5,271252.341,271585.582,,30,market
screen,html.Screen,2_1_1_1_31,2022-02-02T21:34:40.834Z,,,,,,,,,,,,,,,,,54,,,,,,,,,,,,,,329.0179999046377,,response,,,,100,,,,,,,Space,keypress(Space),,,,,,,,-- --- ---- --- ------ ----- ------- ---- -- --- ------- --<br>------- ---------- ------ -- ----- -- ----- -- ---- ------<br>--- ----- --- --- ------ -------- ----- --- ------ value --<br>----- ----- ---------- --- --- ------ ------ ---- -- ------<br>------- --- ------ ----- --- ---- ------- -- ---- --- --<br>------- ------,271915.19999980927,271914.59999990463,271568.956,271576.09999990463,271585.582,271918.898,,31,value
screen,html.Screen,2_1_1_1_32,2022-02-02T21:34:41.277Z,,,,,,,,,,,,,,,,,54,,,,,,,,,,,,,,438.50199985696236,,response,,,,100,,,,,,,Space,keypress(Space),,,,,,,,-- --- ---- --- ------ ----- ------- ---- -- --- ------- --<br>------- ---------- ------ -- ----- -- ----- -- ---- ------<br>--- ----- --- --- ------ -------- ----- --- ------ ----- of<br>----- ----- ---------- --- --- ------ ------ ---- -- ------<br>------- --- ------ ----- --- ---- ------- -- ---- --- --<br>------- ------,272358.5,272357.39999985695,271902.205,271915.2999999523,271918.898,272368.846,,32,of
screen,html.Screen,2_1_1_1_33,2022-02-02T21:34:41.621Z,,,,,,,,,,,,,,,,,54,,,,,,,,,,,,,,332.65399999998044,,response,,,,100,,,,,,,Space,keypress(Space),,,,,,,,-- --- ---- --- ------ ----- ------- ---- -- --- ------- --<br>------- ---------- ------ -- ----- -- ----- -- ---- ------<br>--- ----- --- --- ------ -------- ----- --- ------ ----- --<br>these ----- ---------- --- --- ------ ------ ---- -- ------<br>------- --- ------ ----- --- ---- ------- -- ---- --- --<br>------- ------,272702.19999980927,272701.5,272352.146,272358.69999980927,272368.846,272718.753,,33,these
screen,html.Screen,2_1_1_1_34,2022-02-02T21:34:41.976Z,,,,,,,,,,,,,,,,,54,,,,,,,,,,,,,,338.0469999522902,,response,,,,100,,,,,,,Space,keypress(Space),,,,,,,,-- --- ---- --- ------ ----- ------- ---- -- --- ------- --<br>------- ---------- ------ -- ----- -- ----- -- ---- ------<br>--- ----- --- --- ------ -------- ----- --- ------ ----- --<br>----- bonds ---------- --- --- ------ ------ ---- -- ------<br>------- --- ------ ----- --- ---- ------- -- ---- --- --<br>------- ------,273057.5,273056.7999999523,272702.081,272702.39999985695,272718.753,273068.734,,34,bonds
screen,html.Screen,2_1_1_1_35,2022-02-02T21:34:42.310Z,,,,,,,,,,,,,,,,,54,,,,,,,,,,,,,,321.1659998569521,,response,,,,100,,,,,,,Space,keypress(Space),,,,,,,,"-- --- ---- --- ------ ----- ------- ---- -- --- ------- --<br>------- ---------- ------ -- ----- -- ----- -- ---- ------<br>--- ----- --- --- ------ -------- ----- --- ------ ----- --<br>----- ----- plummeted, --- --- ------ ------ ---- -- ------<br>------- --- ------ ----- --- ---- ------- -- ---- --- --<br>------- ------",273391.09999990463,273389.89999985695,273052.044,273057.59999990463,273068.734,273402.15,,35,"plummeted,"
screen,html.Screen,2_1_1_1_36,2022-02-02T21:34:42.631Z,,,,,,,,,,,,,,,,,54,,,,,,,,,,,,,,309.04999980924185,,response,,,,100,,,,,,,Space,keypress(Space),,,,,,,,-- --- ---- --- ------ ----- ------- ---- -- --- ------- --<br>------- ---------- ------ -- ----- -- ----- -- ---- ------<br>--- ----- --- --- ------ -------- ----- --- ------ ----- --<br>----- ----- ---------- and --- ------ ------ ---- -- ------<br>------- --- ------ ----- --- ---- ------- -- ---- --- --<br>------- ------,273712.39999985695,273711.19999980927,273385.35,273391.39999985695,273402.15,273718.748,,36,and
screen,html.Screen,2_1_1_1_37,2022-02-02T21:34:42.955Z,,,,,,,,,,,,,,,,,54,,,,,,,,,,,,,,316.55199995229486,,response,,,,100,,,,,,,Space,keypress(Space),,,,,,,,-- --- ---- --- ------ ----- ------- ---- -- --- ------- --<br>------- ---------- ------ -- ----- -- ----- -- ---- ------<br>--- ----- --- --- ------ -------- ----- --- ------ ----- --<br>----- ----- ---------- --- the ------ ------ ---- -- ------<br>------- --- ------ ----- --- ---- ------- -- ---- --- --<br>------- ------,274035.89999985695,274035.2999999523,273702.126,273712.7999999523,273718.748,274052.024,,37,the
screen,html.Screen,2_1_1_1_38,2022-02-02T21:34:43.281Z,,,,,,,,,,,,,,,,,54,,,,,,,,,,,,,,308.37599985697307,,response,,,,100,,,,,,,Space,keypress(Space),,,,,,,,-- --- ---- --- ------ ----- ------- ---- -- --- ------- --<br>------- ---------- ------ -- ----- -- ----- -- ---- ------<br>--- ----- --- --- ------ -------- ----- --- ------ ----- --<br>----- ----- ---------- --- --- market ------ ---- -- ------<br>------- --- ------ ----- --- ---- ------- -- ---- --- --<br>------- ------,274361.7999999523,274360.39999985695,274035.454,274036,274052.024,274369.102,,38,market
screen,html.Screen,2_1_1_1_39,2022-02-02T21:34:43.597Z,,,,,,,,,,,,,,,,,54,,,,,,,,,,,,,,307.49799990461906,,response,,,,100,,,,,,,Space,keypress(Space),,,,,,,,-- --- ---- --- ------ ----- ------- ---- -- --- ------- --<br>------- ---------- ------ -- ----- -- ----- -- ---- ------<br>--- ----- --- --- ------ -------- ----- --- ------ ----- --<br>----- ----- ---------- --- --- ------ became ---- -- ------<br>------- --- ------ ----- --- ---- ------- -- ---- --- --<br>------- ------,274677.89999985695,274676.59999990463,274352.095,274362,274369.102,274685.315,,39,became
screen,html.Screen,2_1_1_1_40,2022-02-02T21:34:43.915Z,,,,,,,,,,,,,,,,,54,,,,,,,,,,,,,,309.28499990463024,,response,,,,100,,,,,,,Space,keypress(Space),,,,,,,,-- --- ---- --- ------ ----- ------- ---- -- --- ------- --<br>------- ---------- ------ -- ----- -- ----- -- ---- ------<br>--- ----- --- --- ------ -------- ----- --- ------ ----- --<br>----- ----- ---------- --- --- ------ ------ wary -- ------<br>------- --- ------ ----- --- ---- ------- -- ---- --- --<br>------- ------,274995.89999985695,274994.59999990463,274668.736,274678.19999980927,274685.315,275001.982,,40,wary
screen,html.Screen,2_1_1_1_41,2022-02-02T21:34:44.270Z,,,,,,,,,,,,,,,,,54,,,,,,,,,,,,,,347.6179999046144,,response,,,,100,,,,,,,Space,keypress(Space),,,,,,,,-- --- ---- --- ------ ----- ------- ---- -- --- ------- --<br>------- ---------- ------ -- ----- -- ----- -- ---- ------<br>--- ----- --- --- ------ -------- ----- --- ------ ----- --<br>----- ----- ---------- --- --- ------ ------ ---- of ------<br>------- --- ------ ----- --- ---- ------- -- ---- --- --<br>------- ------,275351.2999999523,275349.59999990463,274985.374,274996.19999980927,275001.982,275368.758,,41,of
screen,html.Screen,2_1_1_1_42,2022-02-02T21:34:44.592Z,,,,,,,,,,,,,,,,,54,,,,,,,,,,,,,,302.4419998092926,,response,,,,100,,,,,,,Space,keypress(Space),,,,,,,,-- --- ---- --- ------ ----- ------- ---- -- --- ------- --<br>------- ---------- ------ -- ----- -- ----- -- ---- ------<br>--- ----- --- --- ------ -------- ----- --- ------ ----- --<br>----- ----- ---------- --- --- ------ ------ ---- -- French<br>------- --- ------ ----- --- ---- ------- -- ---- --- --<br>------- ------,275673.19999980927,275671.19999980927,275352.02,275351.7999999523,275368.758,275685.39,,42,French
screen,html.Screen,2_1_1_1_43,2022-02-02T21:34:44.916Z,,,,,,,,,,,,,,,,,54,,,,,,,,,,,,,,310.4099999523023,,response,,,,100,,,,,,,Space,keypress(Space),,,,,,,,-- --- ---- --- ------ ----- ------- ---- -- --- ------- --<br>------- ---------- ------ -- ----- -- ----- -- ---- ------<br>--- ----- --- --- ------ -------- ----- --- ------ ----- --<br>----- ----- ---------- --- --- ------ ------ ---- -- ------<br>credit. --- ------ ----- --- ---- ------- -- ---- --- --<br>------- ------,275997,275995.7999999523,275668.56,275673.5,275685.39,276001.907,,43,credit.
screen,html.Screen,2_1_1_1_44,2022-02-02T21:34:45.231Z,,,,,,,,,,,,,,,,,54,,,,,,,,,,,,,,308.5929999999935,,response,,,,100,,,,,,,Space,keypress(Space),,,,,,,,-- --- ---- --- ------ ----- ------- ---- -- --- ------- --<br>------- ---------- ------ -- ----- -- ----- -- ---- ------<br>--- ----- --- --- ------ -------- ----- --- ------ ----- --<br>----- ----- ---------- --- --- ------ ------ ---- -- ------<br>------- The ------ ----- --- ---- ------- -- ---- --- --<br>------- ------,276311.7999999523,276310.5,275985.27,275997.2999999523,276001.907,276318.628,,44,The
screen,html.Screen,2_1_1_1_45,2022-02-02T21:34:45.560Z,,,,,,,,,,,,,,,,,54,,,,,,,,,,,,,,321.57199980923906,,response,,,,100,,,,,,,Space,keypress(Space),,,,,,,,-- --- ---- --- ------ ----- ------- ---- -- --- ------- --<br>------- ---------- ------ -- ----- -- ----- -- ---- ------<br>--- ----- --- --- ------ -------- ----- --- ------ ----- --<br>----- ----- ---------- --- --- ------ ------ ---- -- ------<br>------- --- French ----- --- ---- ------- -- ---- --- --<br>------- ------,276641.39999985695,276640.19999980927,276301.951,276312.09999990463,276318.628,276651.94,,45,French
screen,html.Screen,2_1_1_1_46,2022-02-02T21:34:45.945Z,,,,,,,,,,,,,,,,,54,,,,,,,,,,,,,,372.85999995231396,,response,,,,100,,,,,,,Space,keypress(Space),,,,,,,,-- --- ---- --- ------ ----- ------- ---- -- --- ------- --<br>------- ---------- ------ -- ----- -- ----- -- ---- ------<br>--- ----- --- --- ------ -------- ----- --- ------ ----- --<br>----- ----- ---------- --- --- ------ ------ ---- -- ------<br>------- --- ------ state --- ---- ------- -- ---- --- --<br>------- ------,277026.09999990463,277024.7999999523,276635.176,276641.7999999523,276651.94,277035.14,,46,state
screen,html.Screen,2_1_1_1_47,2022-02-02T21:34:46.243Z,,,,,,,,,,,,,,,,,54,,,,,,,,,,,,,,288.55999980925117,,response,,,,100,,,,,,,Space,keypress(Space),,,,,,,,-- --- ---- --- ------ ----- ------- ---- -- --- ------- --<br>------- ---------- ------ -- ----- -- ----- -- ---- ------<br>--- ----- --- --- ------ -------- ----- --- ------ ----- --<br>----- ----- ---------- --- --- ------ ------ ---- -- ------<br>------- --- ------ ----- was ---- ------- -- ---- --- --<br>------- ------,277324.19999980927,277323.69999980927,277018.535,277026.5,277035.14,277335.089,,47,was
screen,html.Screen,2_1_1_1_48,2022-02-02T21:34:46.579Z,,,,,,,,,,,,,,,,,54,,,,,,,,,,,,,,323.9110000000219,,response,,,,100,,,,,,,Space,keypress(Space),,,,,,,,-- --- ---- --- ------ ----- ------- ---- -- --- ------- --<br>------- ---------- ------ -- ----- -- ----- -- ---- ------<br>--- ----- --- --- ------ -------- ----- --- ------ ----- --<br>----- ----- ---------- --- --- ------ ------ ---- -- ------<br>------- --- ------ ----- --- left ------- -- ---- --- --<br>------- ------,277660.39999985695,277659,277318.536,277324.39999985695,277335.089,277668.528,,48,left
screen,html.Screen,2_1_1_1_49,2022-02-02T21:34:46.876Z,,,,,,,,,,,,,,,,,54,,,,,,,,,,,,,,287.3719998569577,,response,,,,100,,,,,,,Space,keypress(Space),,,,,,,,-- --- ---- --- ------ ----- ------- ---- -- --- ------- --<br>------- ---------- ------ -- ----- -- ----- -- ---- ------<br>--- ----- --- --- ------ -------- ----- --- ------ ----- --<br>----- ----- ---------- --- --- ------ ------ ---- -- ------<br>------- --- ------ ----- --- ---- without -- ---- --- --<br>------- ------,277957.2999999523,277955.89999985695,277651.796,277660.69999980927,277668.528,277968.563,,49,without
screen,html.Screen,2_1_1_1_50,2022-02-02T21:34:47.174Z,,,,,,,,,,,,,,,,,54,,,,,,,,,,,,,,285.8369998569251,,response,,,,100,,,,,,,Space,keypress(Space),,,,,,,,-- --- ---- --- ------ ----- ------- ---- -- --- ------- --<br>------- ---------- ------ -- ----- -- ----- -- ---- ------<br>--- ----- --- --- ------ -------- ----- --- ------ ----- --<br>----- ----- ---------- --- --- ------ ------ ---- -- ------<br>------- --- ------ ----- --- ---- ------- an ---- --- --<br>------- ------,278255.59999990463,278254.39999985695,277951.818,277957.5,277968.563,278268.551,,50,an
screen,html.Screen,2_1_1_1_51,2022-02-02T21:34:47.456Z,,,,,,,,,,,,,,,,,54,,,,,,,,,,,,,,267.0489999046549,,response,,,,100,,,,,,,Space,keypress(Space),,,,,,,,-- --- ---- --- ------ ----- ------- ---- -- --- ------- --<br>------- ---------- ------ -- ----- -- ----- -- ---- ------<br>--- ----- --- --- ------ -------- ----- --- ------ ----- --<br>----- ----- ---------- --- --- ------ ------ ---- -- ------<br>------- --- ------ ----- --- ---- ------- -- easy --- --<br>------- ------,278536.7999999523,278535.59999990463,278251.742,278256,278268.551,278551.842,,51,easy
screen,html.Screen,2_1_1_1_52,2022-02-02T21:34:47.795Z,,,,,,,,,,,,,,,,,54,,,,,,,,,,,,,,323.1579999999958,,response,,,,100,,,,,,,Space,keypress(Space),,,,,,,,-- --- ---- --- ------ ----- ------- ---- -- --- ------- --<br>------- ---------- ------ -- ----- -- ----- -- ---- ------<br>--- ----- --- --- ------ -------- ----- --- ------ ----- --<br>----- ----- ---------- --- --- ------ ------ ---- -- ------<br>------- --- ------ ----- --- ---- ------- -- ---- way --<br>------- ------,278876,278875,278535.096,278537.19999980927,278551.842,278884.996,,52,way
screen,html.Screen,2_1_1_1_53,2022-02-02T21:34:48.258Z,,,,,,,,,,,,,,,,,54,,,,,,,,,,,,,,452.7039998092805,,response,,,,100,,,,,,,Space,keypress(Space),,,,,,,,-- --- ---- --- ------ ----- ------- ---- -- --- ------- --<br>------- ---------- ------ -- ----- -- ----- -- ---- ------<br>--- ----- --- --- ------ -------- ----- --- ------ ----- --<br>----- ----- ---------- --- --- ------ ------ ---- -- ------<br>------- --- ------ ----- --- ---- ------- -- ---- --- of<br>------- ------,279338.7999999523,279337.69999980927,278868.402,278876.19999980927,278884.996,279351.752,,53,of
screen,html.Screen,2_1_1_1_54,2022-02-02T21:34:48.618Z,,,,,,,,,,,,,,,,,54,,,,,,,,,,,,,,346.0479999523377,,response,,,,100,,,,,,,Space,keypress(Space),,,,,,,,-- --- ---- --- ------ ----- ------- ---- -- --- ------- --<br>------- ---------- ------ -- ----- -- ----- -- ---- ------<br>--- ----- --- --- ------ -------- ----- --- ------ ----- --<br>----- ----- ---------- --- --- ------ ------ ---- -- ------<br>------- --- ------ ----- --- ---- ------- -- ---- --- --<br>raising ------,279699,279697.7999999523,279334.909,279339,279351.752,279701.647,,54,raising
screen,html.Screen,2_1_1_1_55,2022-02-02T21:34:49.168Z,,,,,,,,,,,,,,,,,54,,,,,,,,,,,,,,546.2529998569516,,response,,,,100,,,,,,,Space,keypress(Space),,,,,,,,-- --- ---- --- ------ ----- ------- ---- -- --- ------- --<br>------- ---------- ------ -- ----- -- ----- -- ---- ------<br>--- ----- --- --- ------ -------- ----- --- ------ ----- --<br>----- ----- ---------- --- --- ------ ------ ---- -- ------<br>------- --- ------ ----- --- ---- ------- -- ---- --- --<br>------- money.,280249.2999999523,280247.89999985695,279685.028,279699.39999985695,279701.647,280276.301,,55,money.
Item 100,flow.Loop,2_1_1_1,2022-02-02T21:34:49.169Z,,,,,,,,,,,,,,,,,,,,,,,,,,,,,,,20894.625999856944,,completion,,,,,E,,,,,,,,,,,silence,,,,,280249.7999999523,280247.89999985695,259336.485,259337.89999985695,259353.274,280276.301,,,
Question 1,html.Screen,2_1_1_2,2022-02-02T21:34:53.012Z,,,,,,,,,,,,,,,,,,,,,,,,,,,,true,TRUE,,3815.6990000000224,,response,,,,100,E,,,,,,TRUE,click #choice-1,,,,silence,,,,,284093.19999980927,284092,280234.995,280250,280276.301,284101.255,,,
Question 2,html.Screen,2_1_1_3,2022-02-02T21:34:56.930Z,,,,,,,,,,,,,,,,,,,,,,,,,,,,true,FALSE,,3908.644999856944,,response,,,,100,E,,,,,,FALSE,click #choice-2,,,,silence,,,,,288011.09999990463,288009.89999985695,284084.644,284093.39999985695,284101.255,288017.602,,,
Item 100,flow.Sequence,2_1_1,2022-02-02T21:34:56.930Z,,,,,,,,,,,,,,,,,,,,,,,,,,,,,,,38656.07499985694,,completion,,,,,,,,,,,,,,,,,,,,,288011.2999999523,288009.89999985695,249337.152,249349.09999990463,249353.825,288017.602,,,
End of Practice,html.Page,2_1_2,2022-02-02T21:35:01.817Z,,,,,,,,,,,,,,,,,,,,,,,,,,,,,,,4880.297999856935,,form submission,,,,,,,,,,,,,,,,,,,,,292898.09999990463,292897.89999985695,288000.989,288011.59999990463,288017.602,292900.595,,,
Practice,flow.Sequence,2_1,2022-02-02T21:35:01.817Z,,,,,,,,,,,,,,,,,,,,,,,,,,,,,,,96423.55799985694,,completion,,,,,,,,,,,,,,,,,,,,,292898.19999980927,292897.89999985695,196457.742,196460,196474.342,292900.595,,,
Trap_instruction,html.Page,2_2_0,2022-02-02T21:35:05.576Z,,,,,,,,,,,,,,,,,,,,,,,,,,,,,,,3756.5049999046605,,form submission,,,,,,,,,,,,,,,,,,,,,296657.39999985695,296657.09999990463,292883.991,292898.39999985695,292900.595,296666.97,,,
trap_trial,html.Screen,2_2_1,2022-02-02T21:35:09.530Z,,,,,,,,,,,,,,,,,,,,,,,,,,,,true,1,,3943.429999856977,,response,,,,,,,,,,,1,click #choice-1,,,,,,,,,300611.5,300610.39999985695,296650.393,296657.5,296666.97,300616.688,,,
end of trap trial,html.Page,2_2_2,2022-02-02T21:35:12.224Z,,,,,,,,,,,,,,,,,,,,,,,,,,,,,,,2688.1119999522925,,form submission,,,,,,,,,,,,,,,,,,,,,303305.19999980927,303304.7999999523,300600.069,300611.69999980927,300616.688,303316.596,,,
Trap 1,flow.Sequence,2_2,2022-02-02T21:35:12.224Z,,,,,,,,,,,,,,,,,,,,,,,,,,,,,,,10404.204999952344,,completion,,,,,,,,,,,,,,,,,,,,,303305.2999999523,303304.7999999523,292883.991,292898.2999999523,292900.595,303316.596,,,
Standby,html.Page,2_3_0,2022-02-02T21:35:20.219Z,,,,,,,,,,,,,,,,,,,,,,,,,,,,,,,7999.323999999964,,timeout,,,,,,,,,,,,,,,,,,,,,311300.09999990463,311299.245,303299.845,303305.5,303316.596,311315.92,,,
Holding screen,html.Screen,2_3_1_0_0,2022-02-02T21:35:27.219Z,,,,,,,,,,,,,,,,,,,,,,,,,,,,,,,6999.601000000024,,timeout,,,,,,,,,,,,,,,,,,,,,318299.7999999523,318298.808,311299.245,311300.39999985695,311315.92,318315.521,,,
screen,html.Screen,2_3_1_0_1_0,2022-02-02T21:35:29.781Z,,,,,,,,,,,,,,,,,15,,,,,,,,,,,,,,2545.5789999046247,,response,,,,7,E,,,,,,Space,keypress(Space),,,,lyrical,,,,Greg --------- ---------- - --- ------- -- --- ------------<br>----- -- -------- ------- ---- ------ - -------- ---- -----<br>--- ------- ---- -- --- -------- --- - ----- ------ ---- --<br>-------- --- -------- -------- --- -------- ---- -- ----- -<br>-------- ---- --- ---------- --------- -- ------- ------ -<br>--------- ----- -----,320861.89999985695,320861.09999990463,318298.808,318300.19999980927,318315.521,320865.247,,0,Greg
screen,html.Screen,2_3_1_0_1_1,2022-02-02T21:35:30.196Z,,,,,,,,,,,,,,,,,15,,,,,,,,,,,,,,410.55299995234236,,response,,,,7,E,,,,,,Space,keypress(Space),,,,lyrical,,,,"---- Anderson, ---------- - --- ------- -- --- ------------<br>----- -- -------- ------- ---- ------ - -------- ---- -----<br>--- ------- ---- -- --- -------- --- - ----- ------ ---- --<br>-------- --- -------- -------- --- -------- ---- -- ----- -<br>-------- ---- --- ---------- --------- -- ------- ------ -<br>--------- ----- -----",321277.09999990463,321275.7999999523,320848.587,320862,320865.247,321281.887,,1,"Anderson,"
screen,html.Screen,2_3_1_0_1_2,2022-02-02T21:35:30.606Z,,,,,,,,,,,,,,,,,15,,,,,,,,,,,,,,403.31299980927724,,response,,,,7,E,,,,,,Space,keypress(Space),,,,lyrical,,,,---- --------- considered - --- ------- -- --- ------------<br>----- -- -------- ------- ---- ------ - -------- ---- -----<br>--- ------- ---- -- --- -------- --- - ----- ------ ---- --<br>-------- --- -------- -------- --- -------- ---- -- ----- -<br>-------- ---- --- ---------- --------- -- ------- ------ -<br>--------- ----- -----,321687.5,321685.19999980927,321265.198,321277.39999985695,321281.887,321698.54,,2,considered
screen,html.Screen,2_3_1_0_1_3,2022-02-02T21:35:31.031Z,,,,,,,,,,,,,,,,,15,,,,,,,,,,,,,,411.96000000002095,,response,,,,7,E,,,,,,Space,keypress(Space),,,,lyrical,,,,---- --------- ---------- a --- ------- -- --- ------------<br>----- -- -------- ------- ---- ------ - -------- ---- -----<br>--- ------- ---- -- --- -------- --- - ----- ------ ---- --<br>-------- --- -------- -------- --- -------- ---- -- ----- -<br>-------- ---- --- ---------- --------- -- ------- ------ -<br>--------- ----- -----,322111.7999999523,322110.5,321681.89,321687.7999999523,321698.54,322115.154,,3,a
screen,html.Screen,2_3_1_0_1_4,2022-02-02T21:35:31.442Z,,,,,,,,,,,,,,,,,15,,,,,,,,,,,,,,407.2459998569684,,response,,,,7,E,,,,,,Space,keypress(Space),,,,lyrical,,,,---- --------- ---------- - key ------- -- --- ------------<br>----- -- -------- ------- ---- ------ - -------- ---- -----<br>--- ------- ---- -- --- -------- --- - ----- ------ ---- --<br>-------- --- -------- -------- --- -------- ---- -- ----- -<br>-------- ---- --- ---------- --------- -- ------- ------ -<br>--------- ----- -----,322523.39999985695,322522.39999985695,322098.525,322112,322115.154,322531.844,,4,key
screen,html.Screen,2_3_1_0_1_5,2022-02-02T21:35:31.875Z,,,,,,,,,,,,,,,,,15,,,,,,,,,,,,,,423.15600000001723,,response,,,,7,E,,,,,,Space,keypress(Space),,,,lyrical,,,,---- --------- ---------- - --- witness -- --- ------------<br>----- -- -------- ------- ---- ------ - -------- ---- -----<br>--- ------- ---- -- --- -------- --- - ----- ------ ---- --<br>-------- --- -------- -------- --- -------- ---- -- ----- -<br>-------- ---- --- ---------- --------- -- ------- ------ -<br>--------- ----- -----,322956.5,322955,322515.215,322523.59999990463,322531.844,322965.17,,5,witness
screen,html.Screen,2_3_1_0_1_6,2022-02-02T21:35:32.268Z,,,,,,,,,,,,,,,,,15,,,,,,,,,,,,,,382.92999990464887,,response,,,,7,E,,,,,,Space,keypress(Space),,,,lyrical,,,,---- --------- ---------- - --- ------- by --- ------------<br>----- -- -------- ------- ---- ------ - -------- ---- -----<br>--- ------- ---- -- --- -------- --- - ----- ------ ---- --<br>-------- --- -------- -------- --- -------- ---- -- ----- -<br>-------- ---- --- ---------- --------- -- ------- ------ -<br>--------- ----- -----,323349.39999985695,323348.09999990463,322948.456,322956.69999980927,322965.17,323365.154,,6,by
screen,html.Screen,2_3_1_0_1_7,2022-02-02T21:35:32.639Z,,,,,,,,,,,,,,,,,15,,,,,,,,,,,,,,353.9459999046521,,response,,,,7,E,,,,,,Space,keypress(Space),,,,lyrical,,,,---- --------- ---------- - --- ------- -- the ------------<br>----- -- -------- ------- ---- ------ - -------- ---- -----<br>--- ------- ---- -- --- -------- --- - ----- ------ ---- --<br>-------- --- -------- -------- --- -------- ---- -- ----- -<br>-------- ---- --- ---------- --------- -- ------- ------ -<br>--------- ----- -----,323720.2999999523,323719.09999990463,323348.352,323351.69999980927,323365.154,323731.853,,7,the
screen,html.Screen,2_3_1_0_1_8,2022-02-02T21:35:33.057Z,,,,,,,,,,,,,,,,,15,,,,,,,,,,,,,,406.04699985694606,,response,,,,7,E,,,,,,Space,keypress(Space),,,,lyrical,,,,"---- --------- ---------- - --- ------- -- --- prosecution,<br>----- -- -------- ------- ---- ------ - -------- ---- -----<br>--- ------- ---- -- --- -------- --- - ----- ------ ---- --<br>-------- --- -------- -------- --- -------- ---- -- ----- -<br>-------- ---- --- ---------- --------- -- ------- ------ -<br>--------- ----- -----",324138.5,324137.89999985695,323714.984,323720.5,323731.853,324148.396,,8,"prosecution,"
screen,html.Screen,2_3_1_0_1_9,2022-02-02T21:35:33.436Z,,,,,,,,,,,,,,,,,15,,,,,,,,,,,,,,367.1039999999921,,response,,,,7,E,,,,,,Space,keypress(Space),,,,lyrical,,,,---- --------- ---------- - --- ------- -- --- ------------<br>vowed -- -------- ------- ---- ------ - -------- ---- -----<br>--- ------- ---- -- --- -------- --- - ----- ------ ---- --<br>-------- --- -------- -------- --- -------- ---- -- ----- -<br>-------- ---- --- ---------- --------- -- ------- ------ -<br>--------- ----- -----,324517.39999985695,324515.5,324131.671,324138.59999990463,324148.396,324531.814,,9,vowed
screen,html.Screen,2_3_1_0_1_10,2022-02-02T21:35:33.845Z,,,,,,,,,,,,,,,,,15,,,,,,,,,,,,,,392.68599999998696,,response,,,,7,E,,,,,,Space,keypress(Space),,,,lyrical,,,,---- --------- ---------- - --- ------- -- --- ------------<br>----- he -------- ------- ---- ------ - -------- ---- -----<br>--- ------- ---- -- --- -------- --- - ----- ------ ---- --<br>-------- --- -------- -------- --- -------- ---- -- ----- -<br>-------- ---- --- ---------- --------- -- ------- ------ -<br>--------- ----- -----,324926.2999999523,324924.5,324514.952,324517.69999980927,324531.814,324931.611,,10,he
screen,html.Screen,2_3_1_0_1_11,2022-02-02T21:35:34.220Z,,,,,,,,,,,,,,,,,15,,,,,,,,,,,,,,368.18899995234096,,response,,,,7,E,,,,,,Space,keypress(Space),,,,lyrical,,,,---- --------- ---------- - --- ------- -- --- ------------<br>----- -- wouldn't ------- ---- ------ - -------- ---- -----<br>--- ------- ---- -- --- -------- --- - ----- ------ ---- --<br>-------- --- -------- -------- --- -------- ---- -- ----- -<br>-------- ---- --- ---------- --------- -- ------- ------ -<br>--------- ----- -----,325301,325299.7999999523,324914.941,324926.5,324931.611,325315.118,,11,wouldn't
screen,html.Screen,2_3_1_0_1_12,2022-02-02T21:35:34.585Z,,,,,,,,,,,,,,,,,15,,,,,,,,,,,,,,348.88199999998324,,response,,,,7,E,,,,,,Space,keypress(Space),,,,lyrical,,,,---- --------- ---------- - --- ------- -- --- ------------<br>----- -- -------- testify ---- ------ - -------- ---- -----<br>--- ------- ---- -- --- -------- --- - ----- ------ ---- --<br>-------- --- -------- -------- --- -------- ---- -- ----- -<br>-------- ---- --- ---------- --------- -- ------- ------ -<br>--------- ----- -----,325666,325664,325298.375,325301.19999980927,325315.118,325681.703,,12,testify
screen,html.Screen,2_3_1_0_1_13,2022-02-02T21:35:34.997Z,,,,,,,,,,,,,,,,,15,,,,,,,,,,,,,,395.39699990465306,,response,,,,7,E,,,,,,Space,keypress(Space),,,,lyrical,,,,---- --------- ---------- - --- ------- -- --- ------------<br>----- -- -------- ------- when ------ - -------- ---- -----<br>--- ------- ---- -- --- -------- --- - ----- ------ ---- --<br>-------- --- -------- -------- --- -------- ---- -- ----- -<br>-------- ---- --- ---------- --------- -- ------- ------ -<br>--------- ----- -----,326078.59999990463,326077.09999990463,325664.956,325666.19999980927,325681.703,326081.556,,13,when
screen,html.Screen,2_3_1_0_1_14,2022-02-02T21:35:35.350Z,,,,,,,,,,,,,,,,,15,,,,,,,,,,,,,,347.9440000000177,,response,,,,7,E,,,,,,Space,keypress(Space),,,,lyrical,,,,---- --------- ---------- - --- ------- -- --- ------------<br>----- -- -------- ------- ---- served - -------- ---- -----<br>--- ------- ---- -- --- -------- --- - ----- ------ ---- --<br>-------- --- -------- -------- --- -------- ---- -- ----- -<br>-------- ---- --- ---------- --------- -- ------- ------ -<br>--------- ----- -----,326430.7999999523,326429.5,326064.859,326078.89999985695,326081.556,326448.25,,14,served
screen,html.Screen,2_3_1_0_1_15,2022-02-02T21:35:35.705Z,,,,,,,,,,,,,,,,,15,,,,,,,,,,,,,,335.94999980926514,,response,,,,7,E,,,,,,Space,keypress(Space),,,,lyrical,,,,---- --------- ---------- - --- ------- -- --- ------------<br>----- -- -------- ------- ---- ------ a -------- ---- -----<br>--- ------- ---- -- --- -------- --- - ----- ------ ---- --<br>-------- --- -------- -------- --- -------- ---- -- ----- -<br>-------- ---- --- ---------- --------- -- ------- ------ -<br>--------- ----- -----,326786.39999985695,326784.19999980927,326431.52,326431,326448.25,326798.295,,15,a
screen,html.Screen,2_3_1_0_1_16,2022-02-02T21:35:36.047Z,,,,,,,,,,,,,,,,,15,,,,,,,,,,,,,,328.60499985696515,,response,,,,7,E,,,,,,Space,keypress(Space),,,,lyrical,,,,---- --------- ---------- - --- ------- -- --- ------------<br>----- -- -------- ------- ---- ------ - subpoena ---- -----<br>--- ------- ---- -- --- -------- --- - ----- ------ ---- --<br>-------- --- -------- -------- --- -------- ---- -- ----- -<br>-------- ---- --- ---------- --------- -- ------- ------ -<br>--------- ----- -----,327127.69999980927,327126.89999985695,326781.553,326786.69999980927,326798.295,327131.405,,16,subpoena
screen,html.Screen,2_3_1_0_1_17,2022-02-02T21:35:36.412Z,,,,,,,,,,,,,,,,,15,,,,,,,,,,,,,,360.7949998092372,,response,,,,7,E,,,,,,Space,keypress(Space),,,,lyrical,,,,---- --------- ---------- - --- ------- -- --- ------------<br>----- -- -------- ------- ---- ------ - -------- last -----<br>--- ------- ---- -- --- -------- --- - ----- ------ ---- --<br>-------- --- -------- -------- --- -------- ---- -- ----- -<br>-------- ---- --- ---------- --------- -- ------- ------ -<br>--------- ----- -----,327493.59999990463,327492.19999980927,327114.813,327128,327131.405,327498.1,,17,last
screen,html.Screen,2_3_1_0_1_18,2022-02-02T21:35:36.802Z,,,,,,,,,,,,,,,,,15,,,,,,,,,,,,,,383.9000000000233,,response,,,,7,E,,,,,,Space,keypress(Space),,,,lyrical,,,,---- --------- ---------- - --- ------- -- --- ------------<br>----- -- -------- ------- ---- ------ - -------- ---- week.<br>--- ------- ---- -- --- -------- --- - ----- ------ ---- --<br>-------- --- -------- -------- --- -------- ---- -- ----- -<br>-------- ---- --- ---------- --------- -- ------- ------ -<br>--------- ----- -----,327883.2999999523,327882,327481.403,327494,327498.1,327898.2,,18,week.
screen,html.Screen,2_3_1_0_1_19,2022-02-02T21:35:37.175Z,,,,,,,,,,,,,,,,,15,,,,,,,,,,,,,,355.8999999046209,,response,,,,7,E,,,,,,Space,keypress(Space),,,,lyrical,,,,---- --------- ---------- - --- ------- -- --- ------------<br>----- -- -------- ------- ---- ------ - -------- ---- -----<br>His ------- ---- -- --- -------- --- - ----- ------ ---- --<br>-------- --- -------- -------- --- -------- ---- -- ----- -<br>-------- ---- --- ---------- --------- -- ------- ------ -<br>--------- ----- -----,328256.59999990463,328254.09999990463,327881.465,327883.59999990463,327898.2,328264.824,,19,His
screen,html.Screen,2_3_1_0_1_20,2022-02-02T21:35:37.533Z,,,,,,,,,,,,,,,,,15,,,,,,,,,,,,,,347.5759998569265,,response,,,,7,E,,,,,,Space,keypress(Space),,,,lyrical,,,,---- --------- ---------- - --- ------- -- --- ------------<br>----- -- -------- ------- ---- ------ - -------- ---- -----<br>--- lawyers ---- -- --- -------- --- - ----- ------ ---- --<br>-------- --- -------- -------- --- -------- ---- -- ----- -<br>-------- ---- --- ---------- --------- -- ------- ------ -<br>--------- ----- -----,328613.69999980927,328612.39999985695,328248.128,328256.89999985695,328264.824,328631.514,,20,lawyers
screen,html.Screen,2_3_1_0_1_21,2022-02-02T21:35:37.885Z,,,,,,,,,,,,,,,,,15,,,,,,,,,,,,,,333.3859998569242,,response,,,,7,E,,,,,,Space,keypress(Space),,,,lyrical,,,,---- --------- ---------- - --- ------- -- --- ------------<br>----- -- -------- ------- ---- ------ - -------- ---- -----<br>--- ------- said -- --- -------- --- - ----- ------ ---- --<br>-------- --- -------- -------- --- -------- ---- -- ----- -<br>-------- ---- --- ---------- --------- -- ------- ------ -<br>--------- ----- -----,328966.5,328964.89999985695,328614.785,328614.09999990463,328631.514,328981.431,,21,said
screen,html.Screen,2_3_1_0_1_22,2022-02-02T21:35:38.227Z,,,,,,,,,,,,,,,,,15,,,,,,,,,,,,,,325.5690000000177,,response,,,,7,E,,,,,,Space,keypress(Space),,,,lyrical,,,,---- --------- ---------- - --- ------- -- --- ------------<br>----- -- -------- ------- ---- ------ - -------- ---- -----<br>--- ------- ---- he --- -------- --- - ----- ------ ---- --<br>-------- --- -------- -------- --- -------- ---- -- ----- -<br>-------- ---- --- ---------- --------- -- ------- ------ -<br>--------- ----- -----,329308.19999980927,329307,328964.727,328966.69999980927,328981.431,329314.655,,22,he
screen,html.Screen,2_3_1_0_1_23,2022-02-02T21:35:38.577Z,,,,,,,,,,,,,,,,,15,,,,,,,,,,,,,,342.34499999997206,,response,,,,7,E,,,,,,Space,keypress(Space),,,,lyrical,,,,---- --------- ---------- - --- ------- -- --- ------------<br>----- -- -------- ------- ---- ------ - -------- ---- -----<br>--- ------- ---- -- was -------- --- - ----- ------ ---- --<br>-------- --- -------- -------- --- -------- ---- -- ----- -<br>-------- ---- --- ---------- --------- -- ------- ------ -<br>--------- ----- -----,329658.19999980927,329657,329298.096,329308.59999990463,329314.655,329664.611,,23,was
screen,html.Screen,2_3_1_0_1_24,2022-02-02T21:35:38.975Z,,,,,,,,,,,,,,,,,15,,,,,,,,,,,,,,389.48899990465725,,response,,,,7,E,,,,,,Space,keypress(Space),,,,lyrical,,,,---- --------- ---------- - --- ------- -- --- ------------<br>----- -- -------- ------- ---- ------ - -------- ---- -----<br>--- ------- ---- -- --- prepared --- - ----- ------ ---- --<br>-------- --- -------- -------- --- -------- ---- -- ----- -<br>-------- ---- --- ---------- --------- -- ------- ------ -<br>--------- ----- -----,330056,330054.09999990463,329647.984,329658.59999990463,329664.611,330064.581,,24,prepared
screen,html.Screen,2_3_1_0_1_25,2022-02-02T21:35:39.328Z,,,,,,,,,,,,,,,,,15,,,,,,,,,,,,,,342.9189999999944,,response,,,,7,E,,,,,,Space,keypress(Space),,,,lyrical,,,,---- --------- ---------- - --- ------- -- --- ------------<br>----- -- -------- ------- ---- ------ - -------- ---- -----<br>--- ------- ---- -- --- -------- for - ----- ------ ---- --<br>-------- --- -------- -------- --- -------- ---- -- ----- -<br>-------- ---- --- ---------- --------- -- ------- ------ -<br>--------- ----- -----,330408.7999999523,330407.5,330048.003,330056.39999985695,330064.581,330414.541,,25,for
screen,html.Screen,2_3_1_0_1_26,2022-02-02T21:35:39.667Z,,,,,,,,,,,,,,,,,15,,,,,,,,,,,,,,331.8589998569223,,response,,,,7,E,,,,,,Space,keypress(Space),,,,lyrical,,,,---- --------- ---------- - --- ------- -- --- ------------<br>----- -- -------- ------- ---- ------ - -------- ---- -----<br>--- ------- ---- -- --- -------- --- a ----- ------ ---- --<br>-------- --- -------- -------- --- -------- ---- -- ----- -<br>-------- ---- --- ---------- --------- -- ------- ------ -<br>--------- ----- -----,330747.69999980927,330746.39999985695,330397.958,330409.19999980927,330414.541,330764.639,,26,a
screen,html.Screen,2_3_1_0_1_27,2022-02-02T21:35:40.048Z,,,,,,,,,,,,,,,,,15,,,,,,,,,,,,,,363.4609999046079,,response,,,,7,E,,,,,,Space,keypress(Space),,,,lyrical,,,,---- --------- ---------- - --- ------- -- --- ------------<br>----- -- -------- ------- ---- ------ - -------- ---- -----<br>--- ------- ---- -- --- -------- --- - third ------ ---- --<br>-------- --- -------- -------- --- -------- ---- -- ----- -<br>-------- ---- --- ---------- --------- -- ------- ------ -<br>--------- ----- -----,331129.39999985695,331128.09999990463,330747.952,330748.09999990463,330764.639,331163.693,,27,third
screen,html.Screen,2_3_1_0_1_28,2022-02-02T21:35:40.390Z,,,,,,,,,,,,,,,,,15,,,,,,,,,,,,,,306.20699985692045,,response,,,,7,E,,,,,,Space,keypress(Space),,,,lyrical,,,,---- --------- ---------- - --- ------- -- --- ------------<br>----- -- -------- ------- ---- ------ - -------- ---- -----<br>--- ------- ---- -- --- -------- --- - ----- prison ---- --<br>-------- --- -------- -------- --- -------- ---- -- ----- -<br>-------- ---- --- ---------- --------- -- ------- ------ -<br>--------- ----- -----,331471.19999980927,331469.89999985695,331114.579,331129.69999980927,331163.693,331481.225,,28,prison
screen,html.Screen,2_3_1_0_1_29,2022-02-02T21:35:40.756Z,,,,,,,,,,,,,,,,,15,,,,,,,,,,,,,,354.57499995233957,,response,,,,7,E,,,,,,Space,keypress(Space),,,,lyrical,,,,---- --------- ---------- - --- ------- -- --- ------------<br>----- -- -------- ------- ---- ------ - -------- ---- -----<br>--- ------- ---- -- --- -------- --- - ----- ------ stay --<br>-------- --- -------- -------- --- -------- ---- -- ----- -<br>-------- ---- --- ---------- --------- -- ------- ------ -<br>--------- ----- -----,331837,331835.7999999523,331464.565,331471.39999985695,331481.225,331847.898,,29,stay
screen,html.Screen,2_3_1_0_1_30,2022-02-02T21:35:41.141Z,,,,,,,,,,,,,,,,,15,,,,,,,,,,,,,,373.4019999523298,,response,,,,7,E,,,,,,Space,keypress(Space),,,,lyrical,,,,---- --------- ---------- - --- ------- -- --- ------------<br>----- -- -------- ------- ---- ------ - -------- ---- -----<br>--- ------- ---- -- --- -------- --- - ----- ------ ---- to<br>-------- --- -------- -------- --- -------- ---- -- ----- -<br>-------- ---- --- ---------- --------- -- ------- ------ -<br>--------- ----- -----,332222.59999990463,332221.2999999523,331831.16,331837.2999999523,331847.898,332231.071,,30,to
screen,html.Screen,2_3_1_0_1_31,2022-02-02T21:35:41.491Z,,,,,,,,,,,,,,,,,15,,,,,,,,,,,,,,340.72899995232,,response,,,,7,E,,,,,,Space,keypress(Space),,,,lyrical,,,,---- --------- ---------- - --- ------- -- --- ------------<br>----- -- -------- ------- ---- ------ - -------- ---- -----<br>--- ------- ---- -- --- -------- --- - ----- ------ ---- --<br>maintain --- -------- -------- --- -------- ---- -- ----- -<br>-------- ---- --- ---------- --------- -- ------- ------ -<br>--------- ----- -----,332572.5,332571.7999999523,332214.497,332223,332231.071,332581.024,,31,maintain
screen,html.Screen,2_3_1_0_1_32,2022-02-02T21:35:41.876Z,,,,,,,,,,,,,,,,,15,,,,,,,,,,,,,,374.9760000000242,,response,,,,7,E,,,,,,Space,keypress(Space),,,,lyrical,,,,---- --------- ---------- - --- ------- -- --- ------------<br>----- -- -------- ------- ---- ------ - -------- ---- -----<br>--- ------- ---- -- --- -------- --- - ----- ------ ---- --<br>-------- his -------- -------- --- -------- ---- -- ----- -<br>-------- ---- --- ---------- --------- -- ------- ------ -<br>--------- ----- -----,332956.59999990463,332956,332564.458,332572.59999990463,332581.024,332964.326,,32,his
screen,html.Screen,2_3_1_0_1_33,2022-02-02T21:35:42.267Z,,,,,,,,,,,,,,,,,15,,,,,,,,,,,,,,383.47399995231535,,response,,,,7,E,,,,,,Space,keypress(Space),,,,lyrical,,,,---- --------- ---------- - --- ------- -- --- ------------<br>----- -- -------- ------- ---- ------ - -------- ---- -----<br>--- ------- ---- -- --- -------- --- - ----- ------ ---- --<br>-------- --- silence. -------- --- -------- ---- -- ----- -<br>-------- ---- --- ---------- --------- -- ------- ------ -<br>--------- ----- -----,333348.39999985695,333347.7999999523,332947.636,332956.7999999523,332964.326,333364.291,,33,silence.
screen,html.Screen,2_3_1_0_1_34,2022-02-02T21:35:42.581Z,,,,,,,,,,,,,,,,,15,,,,,,,,,,,,,,296.6089998569223,,response,,,,7,E,,,,,,Space,keypress(Space),,,,lyrical,,,,---- --------- ---------- - --- ------- -- --- ------------<br>----- -- -------- ------- ---- ------ - -------- ---- -----<br>--- ------- ---- -- --- -------- --- - ----- ------ ---- --<br>-------- --- -------- Anderson --- -------- ---- -- ----- -<br>-------- ---- --- ---------- --------- -- ------- ------ -<br>--------- ----- -----,333661.7999999523,333660.89999985695,333347.607,333348.59999990463,333364.291,333664.253,,34,Anderson
screen,html.Screen,2_3_1_0_1_35,2022-02-02T21:35:42.928Z,,,,,,,,,,,,,,,,,15,,,,,,,,,,,,,,343.8469999046065,,response,,,,7,E,,,,,,Space,keypress(Space),,,,lyrical,,,,---- --------- ---------- - --- ------- -- --- ------------<br>----- -- -------- ------- ---- ------ - -------- ---- -----<br>--- ------- ---- -- --- -------- --- - ----- ------ ---- --<br>-------- --- -------- -------- was -------- ---- -- ----- -<br>-------- ---- --- ---------- --------- -- ------- ------ -<br>--------- ----- -----,334008.7999999523,334008.09999990463,333647.59,333661.89999985695,333664.253,334014.219,,35,was
screen,html.Screen,2_3_1_0_1_36,2022-02-02T21:35:43.275Z,,,,,,,,,,,,,,,,,15,,,,,,,,,,,,,,341.1809998569661,,response,,,,7,E,,,,,,Space,keypress(Space),,,,lyrical,,,,---- --------- ---------- - --- ------- -- --- ------------<br>----- -- -------- ------- ---- ------ - -------- ---- -----<br>--- ------- ---- -- --- -------- --- - ----- ------ ---- --<br>-------- --- -------- -------- --- released ---- -- ----- -<br>-------- ---- --- ---------- --------- -- ------- ------ -<br>--------- ----- -----,334356.39999985695,334355.39999985695,333997.574,334008.89999985695,334014.219,334364.255,,36,released
screen,html.Screen,2_3_1_0_1_37,2022-02-02T21:35:43.625Z,,,,,,,,,,,,,,,,,15,,,,,,,,,,,,,,341.3449999046279,,response,,,,7,E,,,,,,Space,keypress(Space),,,,lyrical,,,,---- --------- ---------- - --- ------- -- --- ------------<br>----- -- -------- ------- ---- ------ - -------- ---- -----<br>--- ------- ---- -- --- -------- --- - ----- ------ ---- --<br>-------- --- -------- -------- --- -------- July -- ----- -<br>-------- ---- --- ---------- --------- -- ------- ------ -<br>--------- ----- -----,334706.5,334705.59999990463,334347.514,334356.5,334364.255,334714.204,,37,July
screen,html.Screen,2_3_1_0_1_38,2022-02-02T21:35:44.063Z,,,,,,,,,,,,,,,,,15,,,,,,,,,,,,,,428.795999999973,,response,,,,7,E,,,,,,Space,keypress(Space),,,,lyrical,,,,---- --------- ---------- - --- ------- -- --- ------------<br>----- -- -------- ------- ---- ------ - -------- ---- -----<br>--- ------- ---- -- --- -------- --- - ----- ------ ---- --<br>-------- --- -------- -------- --- -------- ---- 20 ----- -<br>-------- ---- --- ---------- --------- -- ------- ------ -<br>--------- ----- -----,335143.89999985695,335143,334697.501,334706.59999990463,334714.204,335147.47,,38,20
screen,html.Screen,2_3_1_0_1_39,2022-02-02T21:35:44.511Z,,,,,,,,,,,,,,,,,15,,,,,,,,,,,,,,443.9299998569768,,response,,,,7,E,,,,,,Space,keypress(Space),,,,lyrical,,,,---- --------- ---------- - --- ------- -- --- ------------<br>----- -- -------- ------- ---- ------ - -------- ---- -----<br>--- ------- ---- -- --- -------- --- - ----- ------ ---- --<br>-------- --- -------- -------- --- -------- ---- -- after -<br>-------- ---- --- ---------- --------- -- ------- ------ -<br>--------- ----- -----,335592,335591.39999985695,335130.79,335144,335147.47,335597.459,,39,after
screen,html.Screen,2_3_1_0_1_40,2022-02-02T21:35:44.922Z,,,,,,,,,,,,,,,,,15,,,,,,,,,,,,,,404.8409999523428,,response,,,,7,E,,,,,,Space,keypress(Space),,,,lyrical,,,,---- --------- ---------- - --- ------- -- --- ------------<br>----- -- -------- ------- ---- ------ - -------- ---- -----<br>--- ------- ---- -- --- -------- --- - ----- ------ ---- --<br>-------- --- -------- -------- --- -------- ---- -- ----- a<br>-------- ---- --- ---------- --------- -- ------- ------ -<br>--------- ----- -----,336003.39999985695,336002.2999999523,335580.766,335592.09999990463,335597.459,336014.118,,40,a
