sender,sender_type,sender_id,timestamp,meta,,Blues,Classical,Country,Dance,Electronic,Folk,Gospel,Hip-Hop,Jazz,Latin,Musical/Film,New-age,Pop,Prolific_id,Provo_ID,R&B,Rap,Reggae,Religious,Rock,Soul,Swing,Traditional,age,artist_name,correct,correctResponse,distraction,duration,education,ended_on,familiarity,gender,headphone_check_performance,item,list,music_frequency,offensiveness,pleasantness,position_correct,preference,response,response_action,snippet_file,song_name,song_rating,sound,stimulus_1,stimulus_2,stimulus_3,text,time_commit,time_end,time_render,time_run,time_show,time_switch,url,word,word_ID
Prolific ID,html.Form,0,2022-02-03T13:03:28.288Z,"{""labjs_version"":""20.2.2"",""labjs_build"":{""flavor"":""production"",""commit"":""a25486e0c714a0ae2ce03ff94b7bb6896854dcfa""},""location"":""https://run.pavlovia.org/mvasilev/prolific2_music_f/"",""userAgent"":""Mozilla/5.0 (Windows NT 10.0; Win64; x64) AppleWebKit/537.36 (KHTML, like Gecko) Chrome/98.0.4758.81 Safari/537.36"",""platform"":""Win32"",""language"":""en-GB"",""locale"":""en-GB"",""timeZone"":""Europe/London"",""timezoneOffset"":0,""screen_width"":1366,""screen_height"":768,""scroll_width"":1366,""scroll_height"":609,""window_innerWidth"":1366,""window_innerHeight"":657,""devicePixelRatio"":1}",,,,,,,,,,,,,,,60de029b2e57b1df5755c17a,,,,,,,,,,,,,,,8425.909000000745,,form submission,,,,,,,,,,,,,,,,,,,,,19303.300000000745,19300.800000000745,10842.428,10849.300000000745,10874.891,19359.074,{},,
Introduction,html.Screen,1_0,2022-02-03T13:03:32.209Z,,,,,,,,,,,,,,,,,,,,,,,,,,,,,,,3861.5260000005583,,response,,,,,,,,,,,continue,click button,,,,,,,,,23224.700000000186,23220.60000000056,19292.718,19305.5,19359.074,23235.14,,,
Volume calibration,html.Screen,1_1,2022-02-03T13:04:14.243Z,,,,,,,,,,,,,,,,,,,,,,,,,,,,,,,42011.36,,response,,,,,,,,,,,continue,click button,,,,,,,,,65262.60000000056,65246.5,23218.457,23224.900000000373,23235.14,65272.936,,,
Task instructions,html.Screen,1_2,2022-02-03T13:04:25.392Z,,,,,,,,,,,,,,,,,,,,,,,,,,,,,,,11136.563999999998,,response,,,,,,,,,,,continue,click button,,,,,,,,,76411.60000000056,76409.5,65239.687,65263.10000000056,65272.936,76418.592,,,
Sounds,html.Screen,1_3_0_0,2022-02-03T13:04:29.634Z,,,,,,,,,,,,,,,,,,,,,,,,,,,,,,,4242.02399999999,,timeout,,,,,,,,,3,,,,,,,,I,O,S,,80653,80644.134,76402.07,76412.20000000019,76418.592,80660.616,,,
Judgement,html.Screen,1_3_0_1,2022-02-03T13:04:30.413Z,,,,,,,,,,,,,,,,,,,,,,,,,,,,true,3,,768.9840000005643,,response,,,,,,,,,3,,3,click #choice-3,,,,,I,O,S,,81432.30000000075,81429.60000000056,80644.134,80653.30000000075,80660.616,81442.502,,,
Trial,flow.Sequence,1_3_0,2022-02-03T13:04:30.414Z,,,,,,,,,,,,,,,,,,,,,,,,,,,,,,,5011.008000000555,,completion,,,,,,,,,3,,,,,,,,I,O,S,,81433.20000000019,81429.60000000056,76402.07,76412,76418.592,81442.502,,,
Sounds,html.Screen,1_3_1_0,2022-02-03T13:04:34.650Z,,,,,,,,,,,,,,,,,,,,,,,,,,,,,,,4241.931000000011,,timeout,,,,,,,,,3,,,,,,,,O,I,S,,85669.40000000037,85667.895,81426.035,81434,81442.502,85684.433,,,
Judgement,html.Screen,1_3_1_1,2022-02-03T13:04:35.392Z,,,,,,,,,,,,,,,,,,,,,,,,,,,,true,3,,724.0669999999955,,response,,,,,,,,,3,,3,click #choice-3,,,,,O,I,S,,86411.10000000056,86408.5,85667.895,85669.70000000019,85684.433,86416.447,,,
Trial,flow.Sequence,1_3_1,2022-02-03T13:04:35.393Z,,,,,,,,,,,,,,,,,,,,,,,,,,,,,,,4965.998000000007,,completion,,,,,,,,,3,,,,,,,,O,I,S,,86411.90000000037,86408.5,81426.035,81433.5,81442.502,86416.447,,,
Sounds,html.Screen,1_3_2_0,2022-02-03T13:04:39.625Z,,,,,,,,,,,,,,,,,,,,,,,,,,,,,,,4242.274000000005,,timeout,,,,,,,,,2,,,,,,,,O,S,I,,90643.90000000037,90642.113,86399.84,86412.30000000075,86416.447,90658.721,,,
Judgement,html.Screen,1_3_2_1,2022-02-03T13:04:40.605Z,,,,,,,,,,,,,,,,,,,,,,,,,,,,true,2,,962.9790000001813,,response,,,,,,,,,2,,2,click #choice-2,,,,,O,S,I,,91624.10000000056,91621.70000000019,90642.113,90644.30000000075,90658.721,91643.614,,,
Trial,flow.Sequence,1_3_2,2022-02-03T13:04:40.606Z,,,,,,,,,,,,,,,,,,,,,,,,,,,,,,,5205.253000000186,,completion,,,,,,,,,2,,,,,,,,O,S,I,,91625.30000000075,91621.70000000019,86399.84,86412.20000000019,86416.447,91643.614,,,
Sounds,html.Screen,1_3_3_0,2022-02-03T13:04:44.865Z,,,,,,,,,,,,,,,,,,,,,,,,,,,,,,,4255.014999999999,,timeout,,,,,,,,,2,,,,,,,,I,S,O,,95883.80000000075,95882.03,91606.813,91625.80000000075,91643.614,95898.629,,,
Judgement,html.Screen,1_3_3_1,2022-02-03T13:04:45.601Z,,,,,,,,,,,,,,,,,,,,,,,,,,,,true,2,,719.971000000558,,response,,,,,,,,,2,,2,click #choice-2,,,,,I,S,O,,96620.70000000019,96618.60000000056,95882.03,95884.20000000019,95898.629,96630.57,,,
Trial,flow.Sequence,1_3_3,2022-02-03T13:04:45.602Z,,,,,,,,,,,,,,,,,,,,,,,,,,,,,,,4974.986000000557,,completion,,,,,,,,,2,,,,,,,,I,S,O,,96621.30000000075,96618.60000000056,91606.813,91625.70000000019,91643.614,96630.57,,,
Sounds,html.Screen,1_3_4_0,2022-02-03T13:04:49.839Z,,,,,,,,,,,,,,,,,,,,,,,,,,,,,,,4242.096999999994,,timeout,,,,,,,,,1,,,,,,,,S,O,I,,100857.90000000037,100856.032,96613.969,96621.60000000056,96630.57,100872.667,,,
Judgement,html.Screen,1_3_4_1,2022-02-03T13:04:51.009Z,,,,,,,,,,,,,,,,,,,,,,,,,,,,true,1,,1153.533000000185,,response,,,,,,,,,1,,1,click #choice-1,,,,,S,O,I,,102028.70000000019,102026.20000000019,100856.032,100858.30000000075,100872.667,102053.732,,,
Trial,flow.Sequence,1_3_4,2022-02-03T13:04:51.010Z,,,,,,,,,,,,,,,,,,,,,,,,,,,,,,,5395.630000000179,,completion,,,,,,,,,1,,,,,,,,S,O,I,,102029.30000000075,102026.20000000019,96613.969,96621.5,96630.57,102053.732,,,
Sounds,html.Screen,1_3_5_0,2022-02-03T13:04:55.279Z,,,,,,,,,,,,,,,,,,,,,,,,,,,,,,,4258.706999999995,,timeout,,,,,,,,,1,,,,,,,,S,I,O,,106297.90000000037,106295.785,102020.541,102029.60000000056,102053.732,106312.439,,,
Judgement,html.Screen,1_3_5_1,2022-02-03T13:04:56.713Z,,,,,,,,,,,,,,,,,,,,,,,,,,,,true,1,,1417.5610000000015,,response,,,,,,,,,1,,1,click #choice-1,,,,,S,I,O,,107732.60000000056,107730,106295.785,106298.40000000037,106312.439,107759.666,,,
Trial,flow.Sequence,1_3_5,2022-02-03T13:04:56.714Z,,,,,,,,,,,,,,,,,,,,,,,,,,,,,,,5676.267999999996,,completion,,,,,,,,,1,,,,,,,,S,I,O,,107733,107730,102020.541,102029.5,102053.732,107759.666,,,
Task,flow.Loop,1_3,2022-02-03T13:04:56.731Z,,,,,,,,,,,,,,,,,,,,,,,,,,,,,,,31311.407999999996,,completion,,,1,,,,,,,,,,,,,,,,,,107750.60000000056,107730,76402.07,76411.90000000037,76418.592,107759.666,,,
Trap,html.Screen,1_4,2022-02-03T13:04:56.735Z,,,,,,,,,,,,,,,,,,,,,,,,,,,,,,,NaN,,skipped,,,,,,,,,,,,,,,,,,,,,107754.10000000056,107730,,107753.70000000019,,107759.666,,,
Thanks,html.Screen,1_5,2022-02-03T13:05:00.495Z,,,,,,,,,,,,,,,,,,,,,,,,,,,,,,,3751.9340000005614,,response,,,,,,,,,,,continue,click button,,,,,,,,,111513.90000000037,111511.60000000056,107726.552,107754.40000000037,107759.666,114630.051,,,
Headphone screening,flow.Sequence,1,2022-02-03T13:05:00.495Z,,,,,,,,,,,,,,,,,,,,,,,,,,,,,,,92152.52600000057,,completion,,,,,,,,,,,,,,,,,,,,,111514.30000000075,111511.60000000056,19292.718,19305.200000000186,19359.074,114630.051,,,
Instructions,html.Page,2_0,2022-02-03T13:05:30.338Z,,,,,,,,,,,,,,,,,,,,,,,,,,,,,,,26731.049000000552,,form submission,,,,,,,,,,,,,,,,,,,,,141361.90000000037,141361.10000000056,114596.995,114623.30000000075,114630.051,141363.198,,,
Holding screen,html.Screen,2_1_0_0,2022-02-03T13:05:40.322Z,,,,,,,,,,,,,,,,,,,,,,,,,,,,,,,10031.158999999985,,timeout,,,,,,,,,,,,,,,,,,,,,151345.80000000075,151344.643,141346.631,141362.30000000075,141363.198,151394.357,,,
screen,html.Screen,2_1_0_1_0,2022-02-03T13:05:41.764Z,,,,,,,,,,,,,,,,,53,,,,,,,,,,,,,,1386.7430000005697,,response,,,,99,,,,,,,Space,keypress(Space),,,,,,,,When -- ----- -- ------ - ------- --- ----------<br>------------- ------ ------ ---- ---- ------- ----- -- ----<br>-------- ------- -- ---------- --- - --- ----- ----- ----<br>---- --- --- ----- --- ---- ---- ------- ----- ---- -------<br>--- --- -- ----- -- --- ---- -- --- ---- -- ------ ------<br>--- ----- -- ----,152787.30000000075,152781.10000000056,151344.643,151346.2000000002,151394.357,152791.716,,0,When
screen,html.Screen,2_1_0_1_1,2022-02-03T13:05:43.325Z,,,,,,,,,,,,,,,,,53,,,,,,,,,,,,,,1555.9840000002005,,response,,,,99,,,,,,,Space,keypress(Space),,,,,,,,---- it ----- -- ------ - ------- --- ----------<br>------------- ------ ------ ---- ---- ------- ----- -- ----<br>-------- ------- -- ---------- --- - --- ----- ----- ----<br>---- --- --- ----- --- ---- ---- ------- ----- ---- -------<br>--- --- -- ----- -- --- ---- -- --- ---- -- ------ ------<br>--- ----- -- ----,154348.80000000075,154347.7000000002,152775.324,152787.60000000056,152791.716,154355.444,,1,it
screen,html.Screen,2_1_0_1_2,2022-02-03T13:05:43.688Z,,,,,,,,,,,,,,,,,53,,,,,,,,,,,,,,354.7560000001977,,response,,,,99,,,,,,,Space,keypress(Space),,,,,,,,---- -- comes -- ------ - ------- --- ----------<br>------------- ------ ------ ---- ---- ------- ----- -- ----<br>-------- ------- -- ---------- --- - --- ----- ----- ----<br>---- --- --- ----- --- ---- ---- ------- ----- ---- -------<br>--- --- -- ----- -- --- ---- -- --- ---- -- ------ ------<br>--- ----- -- ----,154711.2000000002,154710.2000000002,154339.124,154349,154355.444,154721.584,,2,comes
screen,html.Screen,2_1_0_1_3,2022-02-03T13:05:44.452Z,,,,,,,,,,,,,,,,,53,,,,,,,,,,,,,,752.81600000037,,response,,,,99,,,,,,,Space,keypress(Space),,,,,,,,---- -- ----- to ------ - ------- --- ----------<br>------------- ------ ------ ---- ---- ------- ----- -- ----<br>-------- ------- -- ---------- --- - --- ----- ----- ----<br>---- --- --- ----- --- ---- ---- ------- ----- ---- -------<br>--- --- -- ----- -- --- ---- -- --- ---- -- ------ ------<br>--- ----- -- ----,155475.5,155474.40000000037,154704.895,154711.5,154721.584,155486.727,,3,to
screen,html.Screen,2_1_0_1_4,2022-02-03T13:05:45.052Z,,,,,,,,,,,,,,,,,53,,,,,,,,,,,,,,586.8730000005453,,response,,,,99,,,,,,,Space,keypress(Space),,,,,,,,---- -- ----- -- having - ------- --- ----------<br>------------- ------ ------ ---- ---- ------- ----- -- ----<br>-------- ------- -- ---------- --- - --- ----- ----- ----<br>---- --- --- ----- --- ---- ---- ------- ----- ---- -------<br>--- --- -- ----- -- --- ---- -- --- ---- -- ------ ------<br>--- ----- -- ----,156074.80000000075,156073.60000000056,155470.304,155475.80000000075,155486.727,156085.728,,4,having
screen,html.Screen,2_1_0_1_5,2022-02-03T13:05:45.585Z,,,,,,,,,,,,,,,,,53,,,,,,,,,,,,,,521.372000000556,,response,,,,99,,,,,,,Space,keypress(Space),,,,,,,,---- -- ----- -- ------ a ------- --- ----------<br>------------- ------ ------ ---- ---- ------- ----- -- ----<br>-------- ------- -- ---------- --- - --- ----- ----- ----<br>---- --- --- ----- --- ---- ---- ------- ----- ---- -------<br>--- --- -- ----- -- --- ---- -- --- ---- -- ------ ------<br>--- ----- -- ----,156608.5,156607.10000000056,156069.152,156075.10000000056,156085.728,156617.907,,5,a
screen,html.Screen,2_1_0_1_6,2022-02-03T13:05:46.060Z,,,,,,,,,,,,,,,,,53,,,,,,,,,,,,,,461.993000000366,,response,,,,99,,,,,,,Space,keypress(Space),,,,,,,,---- -- ----- -- ------ - lasting --- ----------<br>------------- ------ ------ ---- ---- ------- ----- -- ----<br>-------- ------- -- ---------- --- - --- ----- ----- ----<br>---- --- --- ----- --- ---- ---- ------- ----- ---- -------<br>--- --- -- ----- -- --- ---- -- --- ---- -- ------ ------<br>--- ----- -- ----,157083.80000000075,157079.90000000037,156601.302,156608.80000000075,156617.907,157100.561,,6,lasting
screen,html.Screen,2_1_0_1_7,2022-02-03T13:05:46.492Z,,,,,,,,,,,,,,,,,53,,,,,,,,,,,,,,413.2390000007581,,response,,,,99,,,,,,,Space,keypress(Space),,,,,,,,---- -- ----- -- ------ - ------- and ----------<br>------------- ------ ------ ---- ---- ------- ----- -- ----<br>-------- ------- -- ---------- --- - --- ----- ----- ----<br>---- --- --- ----- --- ---- ---- ------- ----- ---- -------<br>--- --- -- ----- -- --- ---- -- --- ---- -- ------ ------<br>--- ----- -- ----,157515,157513.80000000075,157083.736,157084,157100.561,157533.054,,7,and
screen,html.Screen,2_1_0_1_8,2022-02-03T13:05:46.989Z,,,,,,,,,,,,,,,,,53,,,,,,,,,,,,,,477.74600000074133,,response,,,,99,,,,,,,Space,keypress(Space),,,,,,,,---- -- ----- -- ------ - ------- --- fulfilling<br>------------- ------ ------ ---- ---- ------- ----- -- ----<br>-------- ------- -- ---------- --- - --- ----- ----- ----<br>---- --- --- ----- --- ---- ---- ------- ----- ---- -------<br>--- --- -- ----- -- --- ---- -- --- ---- -- ------ ------<br>--- ----- -- ----,158012.10000000056,158010.80000000075,157499.841,157515.2000000002,157533.054,158015.255,,8,fulfilling
screen,html.Screen,2_1_0_1_9,2022-02-03T13:05:47.666Z,,,,,,,,,,,,,,,,,53,,,,,,,,,,,,,,672.5450000007404,,response,,,,99,,,,,,,Space,keypress(Space),,,,,,,,"---- -- ----- -- ------ - ------- --- ----------<br>relationship, ------ ------ ---- ---- ------- ----- -- ----<br>-------- ------- -- ---------- --- - --- ----- ----- ----<br>---- --- --- ----- --- ---- ---- ------- ----- ---- -------<br>--- --- -- ----- -- --- ---- -- --- ---- -- ------ ------<br>--- ----- -- ----",158689.10000000056,158687.80000000075,157998.893,158012.5,158015.255,158697.297,,9,"relationship,"
screen,html.Screen,2_1_0_1_10,2022-02-03T13:05:48.380Z,,,,,,,,,,,,,,,,,53,,,,,,,,,,,,,,705.2030000000086,,response,,,,99,,,,,,,Space,keypress(Space),,,,,,,,---- -- ----- -- ------ - ------- --- ----------<br>------------- common ------ ---- ---- ------- ----- -- ----<br>-------- ------- -- ---------- --- - --- ----- ----- ----<br>---- --- --- ----- --- ---- ---- ------- ----- ---- -------<br>--- --- -- ----- -- --- ---- -- --- ---- -- ------ ------<br>--- ----- -- ----,159403.80000000075,159402.5,158680.875,158689.40000000037,158697.297,159412.689,,10,common
screen,html.Screen,2_1_0_1_11,2022-02-03T13:05:49.049Z,,,,,,,,,,,,,,,,,53,,,,,,,,,,,,,,658.310999999987,,response,,,,99,,,,,,,Space,keypress(Space),,,,,,,,---- -- ----- -- ------ - ------- --- ----------<br>------------- ------ wisdom ---- ---- ------- ----- -- ----<br>-------- ------- -- ---------- --- - --- ----- ----- ----<br>---- --- --- ----- --- ---- ---- ------- ----- ---- -------<br>--- --- -- ----- -- --- ---- -- --- ---- -- ------ ------<br>--- ----- -- ----,160072.10000000056,160071,159396.122,159404,159412.689,160078.143,,11,wisdom
screen,html.Screen,2_1_0_1_12,2022-02-03T13:05:49.705Z,,,,,,,,,,,,,,,,,53,,,,,,,,,,,,,,649.0570000001753,,response,,,,99,,,,,,,Space,keypress(Space),,,,,,,,---- -- ----- -- ------ - ------- --- ----------<br>------------- ------ ------ says ---- ------- ----- -- ----<br>-------- ------- -- ---------- --- - --- ----- ----- ----<br>---- --- --- ----- --- ---- ---- ------- ----- ---- -------<br>--- --- -- ----- -- --- ---- -- --- ---- -- ------ ------<br>--- ----- -- ----,160728.80000000075,160727.2000000002,160061.493,160072.40000000037,160078.143,160743.551,,12,says
screen,html.Screen,2_1_0_1_13,2022-02-03T13:05:50.325Z,,,,,,,,,,,,,,,,,53,,,,,,,,,,,,,,604.049000000552,,response,,,,99,,,,,,,Space,keypress(Space),,,,,,,,---- -- ----- -- ------ - ------- --- ----------<br>------------- ------ ------ ---- that ------- ----- -- ----<br>-------- ------- -- ---------- --- - --- ----- ----- ----<br>---- --- --- ----- --- ---- ---- ------- ----- ---- -------<br>--- --- -- ----- -- --- ---- -- --- ---- -- ------ ------<br>--- ----- -- ----,161348.80000000075,161347.60000000056,160727.067,160729.10000000056,160743.551,161359.097,,13,that
screen,html.Screen,2_1_0_1_14,2022-02-03T13:05:51.263Z,,,,,,,,,,,,,,,,,53,,,,,,,,,,,,,,925.8030000003637,,response,,,,99,,,,,,,Space,keypress(Space),,,,,,,,---- -- ----- -- ------ - ------- --- ----------<br>------------- ------ ------ ---- ---- feeling ----- -- ----<br>-------- ------- -- ---------- --- - --- ----- ----- ----<br>---- --- --- ----- --- ---- ---- ------- ----- ---- -------<br>--- --- -- ----- -- --- ---- -- --- ---- -- ------ ------<br>--- ----- -- ----,162286.2000000002,162284.90000000037,161342.437,161349.10000000056,161359.097,162290.625,,14,feeling
screen,html.Screen,2_1_0_1_15,2022-02-03T13:05:51.657Z,,,,,,,,,,,,,,,,,53,,,,,,,,,,,,,,387.4750000005588,,response,,,,99,,,,,,,Space,keypress(Space),,,,,,,,---- -- ----- -- ------ - ------- --- ----------<br>------------- ------ ------ ---- ---- ------- close -- ----<br>-------- ------- -- ---------- --- - --- ----- ----- ----<br>---- --- --- ----- --- ---- ---- ------- ----- ---- -------<br>--- --- -- ----- -- --- ---- -- --- ---- -- ------ ------<br>--- ----- -- ----,162679.90000000037,162678.10000000056,162274.026,162286.60000000056,162290.625,162689.897,,15,close
screen,html.Screen,2_1_0_1_16,2022-02-03T13:05:52.328Z,,,,,,,,,,,,,,,,,53,,,,,,,,,,,,,,660.0030000003753,,response,,,,99,,,,,,,Space,keypress(Space),,,,,,,,---- -- ----- -- ------ - ------- --- ----------<br>------------- ------ ------ ---- ---- ------- ----- to ----<br>-------- ------- -- ---------- --- - --- ----- ----- ----<br>---- --- --- ----- --- ---- ---- ------- ----- ---- -------<br>--- --- -- ----- -- --- ---- -- --- ---- -- ------ ------<br>--- ----- -- ----,163351,163349.90000000037,162673.241,162680.40000000037,162689.897,163355.234,,16,to
screen,html.Screen,2_1_0_1_17,2022-02-03T13:05:52.748Z,,,,,,,,,,,,,,,,,53,,,,,,,,,,,,,,414.9660000001895,,response,,,,99,,,,,,,Space,keypress(Space),,,,,,,,---- -- ----- -- ------ - ------- --- ----------<br>------------- ------ ------ ---- ---- ------- ----- -- your<br>-------- ------- -- ---------- --- - --- ----- ----- ----<br>---- --- --- ----- --- ---- ---- ------- ----- ---- -------<br>--- --- -- ----- -- --- ---- -- --- ---- -- ------ ------<br>--- ----- -- ----,163771.40000000037,163770.2000000002,163338.838,163351.30000000075,163355.234,163787.835,,17,your
screen,html.Screen,2_1_0_1_18,2022-02-03T13:05:53.336Z,,,,,,,,,,,,,,,,,53,,,,,,,,,,,,,,570.6650000000081,,response,,,,99,,,,,,,Space,keypress(Space),,,,,,,,---- -- ----- -- ------ - ------- --- ----------<br>------------- ------ ------ ---- ---- ------- ----- -- ----<br>romantic ------- -- ---------- --- - --- ----- ----- ----<br>---- --- --- ----- --- ---- ---- ------- ----- ---- -------<br>--- --- -- ----- -- --- ---- -- --- ---- -- ------ ------<br>--- ----- -- ----,164359.80000000075,164358.5,163771.363,163771.7000000002,163787.835,164370.123,,18,romantic
screen,html.Screen,2_1_0_1_19,2022-02-03T13:05:53.990Z,,,,,,,,,,,,,,,,,53,,,,,,,,,,,,,,641.7770000003802,,response,,,,99,,,,,,,Space,keypress(Space),,,,,,,,---- -- ----- -- ------ - ------- --- ----------<br>------------- ------ ------ ---- ---- ------- ----- -- ----<br>-------- partner -- ---------- --- - --- ----- ----- ----<br>---- --- --- ----- --- ---- ---- ------- ----- ---- -------<br>--- --- -- ----- -- --- ---- -- --- ---- -- ------ ------<br>--- ----- -- ----,165013.5,165011.90000000037,164353.579,164360.10000000056,164370.123,165018.751,,19,partner
screen,html.Screen,2_1_0_1_20,2022-02-03T13:05:54.452Z,,,,,,,,,,,,,,,,,53,,,,,,,,,,,,,,455.7490000000107,,response,,,,99,,,,,,,Space,keypress(Space),,,,,,,,---- -- ----- -- ------ - ------- --- ----------<br>------------- ------ ------ ---- ---- ------- ----- -- ----<br>-------- ------- is ---------- --- - --- ----- ----- ----<br>---- --- --- ----- --- ---- ---- ------- ----- ---- -------<br>--- --- -- ----- -- --- ---- -- --- ---- -- ------ ------<br>--- ----- -- ----,165475.30000000075,165474.5,165002.393,165013.80000000075,165018.751,165484.525,,20,is
screen,html.Screen,2_1_0_1_21,2022-02-03T13:05:55.453Z,,,,,,,,,,,,,,,,,53,,,,,,,,,,,,,,990.2750000007509,,response,,,,99,,,,,,,Space,keypress(Space),,,,,,,,---- -- ----- -- ------ - ------- --- ----------<br>------------- ------ ------ ---- ---- ------- ----- -- ----<br>-------- ------- -- paramount. --- - --- ----- ----- ----<br>---- --- --- ----- --- ---- ---- ------- ----- ---- -------<br>--- --- -- ----- -- --- ---- -- --- ---- -- ------ ------<br>--- ----- -- ----,166476.30000000075,166474.80000000075,165467.941,165475.5,165484.525,166482.695,,21,paramount.
screen,html.Screen,2_1_0_1_22,2022-02-03T13:05:55.971Z,,,,,,,,,,,,,,,,,53,,,,,,,,,,,,,,511.304999999993,,response,,,,99,,,,,,,Space,keypress(Space),,,,,,,,---- -- ----- -- ------ - ------- --- ----------<br>------------- ------ ------ ---- ---- ------- ----- -- ----<br>-------- ------- -- ---------- But - --- ----- ----- ----<br>---- --- --- ----- --- ---- ---- ------- ----- ---- -------<br>--- --- -- ----- -- --- ---- -- --- ---- -- ------ ------<br>--- ----- -- ----,166994.60000000056,166994,166466.082,166476.7000000002,166482.695,166998.322,,22,But
screen,html.Screen,2_1_0_1_23,2022-02-03T13:05:56.404Z,,,,,,,,,,,,,,,,,53,,,,,,,,,,,,,,427.77800000057323,,response,,,,99,,,,,,,Space,keypress(Space),,,,,,,,---- -- ----- -- ------ - ------- --- ----------<br>------------- ------ ------ ---- ---- ------- ----- -- ----<br>-------- ------- -- ---------- --- a --- ----- ----- ----<br>---- --- --- ----- --- ---- ---- ------- ----- ---- -------<br>--- --- -- ----- -- --- ---- -- --- ---- -- ------ ------<br>--- ----- -- ----,167427.7000000002,167426.10000000056,166981.986,166994.80000000075,166998.322,167430.889,,23,a
screen,html.Screen,2_1_0_1_24,2022-02-03T13:05:56.838Z,,,,,,,,,,,,,,,,,53,,,,,,,,,,,,,,428.51100000037695,,response,,,,99,,,,,,,Space,keypress(Space),,,,,,,,---- -- ----- -- ------ - ------- --- ----------<br>------------- ------ ------ ---- ---- ------- ----- -- ----<br>-------- ------- -- ---------- --- - new ----- ----- ----<br>---- --- --- ----- --- ---- ---- ------- ----- ---- -------<br>--- --- -- ----- -- --- ---- -- --- ---- -- ------ ------<br>--- ----- -- ----,167861.10000000056,167859.40000000037,167414.337,167428.5,167430.889,167883.2,,24,new
screen,html.Screen,2_1_0_1_25,2022-02-03T13:05:57.292Z,,,,,,,,,,,,,,,,,53,,,,,,,,,,,,,,430.1000000007334,,response,,,,99,,,,,,,Space,keypress(Space),,,,,,,,---- -- ----- -- ------ - ------- --- ----------<br>------------- ------ ------ ---- ---- ------- ----- -- ----<br>-------- ------- -- ---------- --- - --- study ----- ----<br>---- --- --- ----- --- ---- ---- ------- ----- ---- -------<br>--- --- -- ----- -- --- ---- -- --- ---- -- ------ ------<br>--- ----- -- ----,168314.80000000075,168313.30000000075,167846.815,167861.5,167883.2,168329.251,,25,study
screen,html.Screen,2_1_0_1_26,2022-02-03T13:05:57.917Z,,,,,,,,,,,,,,,,,53,,,,,,,,,,,,,,609.6490000003832,,response,,,,99,,,,,,,Space,keypress(Space),,,,,,,,---- -- ----- -- ------ - ------- --- ----------<br>------------- ------ ------ ---- ---- ------- ----- -- ----<br>-------- ------- -- ---------- --- - --- ----- finds ----<br>---- --- --- ----- --- ---- ---- ------- ----- ---- -------<br>--- --- -- ----- -- --- ---- -- --- ---- -- ------ ------<br>--- ----- -- ----,168940.10000000056,168938.90000000037,168312.705,168315.2000000002,168329.251,168944.722,,26,finds
screen,html.Screen,2_1_0_1_27,2022-02-03T13:05:58.378Z,,,,,,,,,,,,,,,,,53,,,,,,,,,,,,,,455.0780000007362,,response,,,,99,,,,,,,Space,keypress(Space),,,,,,,,---- -- ----- -- ------ - ------- --- ----------<br>------------- ------ ------ ---- ---- ------- ----- -- ----<br>-------- ------- -- ---------- --- - --- ----- ----- that<br>---- --- --- ----- --- ---- ---- ------- ----- ---- -------<br>--- --- -- ----- -- --- ---- -- --- ---- -- ------ ------<br>--- ----- -- ----,169401.30000000075,169399.80000000075,168928.203,168940.60000000056,168944.722,169410.615,,27,that
screen,html.Screen,2_1_0_1_28,2022-02-03T13:05:58.829Z,,,,,,,,,,,,,,,,,53,,,,,,,,,,,,,,439.9850000005681,,response,,,,99,,,,,,,Space,keypress(Space),,,,,,,,---- -- ----- -- ------ - ------- --- ----------<br>------------- ------ ------ ---- ---- ------- ----- -- ----<br>-------- ------- -- ---------- --- - --- ----- ----- ----<br>it's --- --- ----- --- ---- ---- ------- ----- ---- -------<br>--- --- -- ----- -- --- ---- -- --- ---- -- ------ ------<br>--- ----- -- ----,169851.90000000037,169850.60000000056,169393.971,169401.7000000002,169410.615,169859.691,,28,it's
screen,html.Screen,2_1_0_1_29,2022-02-03T13:05:59.452Z,,,,,,,,,,,,,,,,,53,,,,,,,,,,,,,,614.1090000007534,,response,,,,99,,,,,,,Space,keypress(Space),,,,,,,,---- -- ----- -- ------ - ------- --- ----------<br>------------- ------ ------ ---- ---- ------- ----- -- ----<br>-------- ------- -- ---------- --- - --- ----- ----- ----<br>---- not --- ----- --- ---- ---- ------- ----- ---- -------<br>--- --- -- ----- -- --- ---- -- --- ---- -- ------ ------<br>--- ----- -- ----,170474.90000000037,170473.80000000075,169843.327,169852.10000000056,169859.691,170491.91,,29,not
screen,html.Screen,2_1_0_1_30,2022-02-03T13:06:00.127Z,,,,,,,,,,,,,,,,,53,,,,,,,,,,,,,,656.6900000005553,,response,,,,99,,,,,,,Space,keypress(Space),,,,,,,,---- -- ----- -- ------ - ------- --- ----------<br>------------- ------ ------ ---- ---- ------- ----- -- ----<br>-------- ------- -- ---------- --- - --- ----- ----- ----<br>---- --- how ----- --- ---- ---- ------- ----- ---- -------<br>--- --- -- ----- -- --- ---- -- --- ---- -- ------ ------<br>--- ----- -- ----,171149.90000000037,171148.60000000056,170475.369,170475.30000000075,170491.91,171157.261,,30,how
screen,html.Screen,2_1_0_1_31,2022-02-03T13:06:00.545Z,,,,,,,,,,,,,,,,,53,,,,,,,,,,,,,,409.8390000005602,,response,,,,99,,,,,,,Space,keypress(Space),,,,,,,,---- -- ----- -- ------ - ------- --- ----------<br>------------- ------ ------ ---- ---- ------- ----- -- ----<br>-------- ------- -- ---------- --- - --- ----- ----- ----<br>---- --- --- close --- ---- ---- ------- ----- ---- -------<br>--- --- -- ----- -- --- ---- -- --- ---- -- ------ ------<br>--- ----- -- ----,171568.60000000056,171567.10000000056,171140.741,171150.10000000056,171157.261,171573.125,,31,close
screen,html.Screen,2_1_0_1_32,2022-02-03T13:06:01.094Z,,,,,,,,,,,,,,,,,53,,,,,,,,,,,,,,543.0750000001863,,response,,,,99,,,,,,,Space,keypress(Space),,,,,,,,---- -- ----- -- ------ - ------- --- ----------<br>------------- ------ ------ ---- ---- ------- ----- -- ----<br>-------- ------- -- ---------- --- - --- ----- ----- ----<br>---- --- --- ----- you ---- ---- ------- ----- ---- -------<br>--- --- -- ----- -- --- ---- -- --- ---- -- ------ ------<br>--- ----- -- ----,172117.60000000056,172116.2000000002,171556.515,171569,171573.125,172122.077,,32,you
screen,html.Screen,2_1_0_1_33,2022-02-03T13:06:01.519Z,,,,,,,,,,,,,,,,,53,,,,,,,,,,,,,,419.0230000005686,,response,,,,99,,,,,,,Space,keypress(Space),,,,,,,,---- -- ----- -- ------ - ------- --- ----------<br>------------- ------ ------ ---- ---- ------- ----- -- ----<br>-------- ------- -- ---------- --- - --- ----- ----- ----<br>---- --- --- ----- --- feel ---- ------- ----- ---- -------<br>--- --- -- ----- -- --- ---- -- --- ---- -- ------ ------<br>--- ----- -- ----,172542.30000000075,172541.10000000056,172105.709,172117.90000000037,172122.077,172554.841,,33,feel
screen,html.Screen,2_1_0_1_34,2022-02-03T13:06:01.875Z,,,,,,,,,,,,,,,,,53,,,,,,,,,,,,,,342.6590000000142,,response,,,,99,,,,,,,Space,keypress(Space),,,,,,,,---- -- ----- -- ------ - ------- --- ----------<br>------------- ------ ------ ---- ---- ------- ----- -- ----<br>-------- ------- -- ---------- --- - --- ----- ----- ----<br>---- --- --- ----- --- ---- that ------- ----- ---- -------<br>--- --- -- ----- -- --- ---- -- --- ---- -- ------ ------<br>--- ----- -- ----,172898.60000000056,172897.5,172538.216,172542.60000000056,172554.841,172920.689,,34,that
screen,html.Screen,2_1_0_1_35,2022-02-03T13:06:02.518Z,,,,,,,,,,,,,,,,,53,,,,,,,,,,,,,,619.2110000003595,,response,,,,99,,,,,,,Space,keypress(Space),,,,,,,,---- -- ----- -- ------ - ------- --- ----------<br>------------- ------ ------ ---- ---- ------- ----- -- ----<br>-------- ------- -- ---------- --- - --- ----- ----- ----<br>---- --- --- ----- --- ---- ---- matters ----- ---- -------<br>--- --- -- ----- -- --- ---- -- --- ---- -- ------ ------<br>--- ----- -- ----,173541.2000000002,173539.90000000037,172887.368,172899,172920.689,173552.764,,35,matters
screen,html.Screen,2_1_0_1_36,2022-02-03T13:06:03.235Z,,,,,,,,,,,,,,,,,53,,,,,,,,,,,,,,704.2360000000044,,response,,,,99,,,,,,,Space,keypress(Space),,,,,,,,"---- -- ----- -- ------ - ------- --- ----------<br>------------- ------ ------ ---- ---- ------- ----- -- ----<br>-------- ------- -- ---------- --- - --- ----- ----- ----<br>---- --- --- ----- --- ---- ---- ------- most, ---- -------<br>--- --- -- ----- -- --- ---- -- --- ---- -- ------ ------<br>--- ----- -- ----",174258.5,174257,173536.185,173541.60000000056,173552.764,174268.262,,36,"most,"
screen,html.Screen,2_1_0_1_37,2022-02-03T13:06:03.756Z,,,,,,,,,,,,,,,,,53,,,,,,,,,,,,,,509.53800000075717,,response,,,,99,,,,,,,Space,keypress(Space),,,,,,,,---- -- ----- -- ------ - ------- --- ----------<br>------------- ------ ------ ---- ---- ------- ----- -- ----<br>-------- ------- -- ---------- --- - --- ----- ----- ----<br>---- --- --- ----- --- ---- ---- ------- ----- it's -------<br>--- --- -- ----- -- --- ---- -- --- ---- -- ------ ------<br>--- ----- -- ----,174779.60000000056,174777.80000000075,174251.663,174258.7000000002,174268.262,174783.764,,37,it's
screen,html.Screen,2_1_0_1_38,2022-02-03T13:06:04.305Z,,,,,,,,,,,,,,,,,53,,,,,,,,,,,,,,542.9360000001907,,response,,,,99,,,,,,,Space,keypress(Space),,,,,,,,---- -- ----- -- ------ - ------- --- ----------<br>------------- ------ ------ ---- ---- ------- ----- -- ----<br>-------- ------- -- ---------- --- - --- ----- ----- ----<br>---- --- --- ----- --- ---- ---- ------- ----- ---- whether<br>--- --- -- ----- -- --- ---- -- --- ---- -- ------ ------<br>--- ----- -- ----,175328.40000000037,175326.7000000002,174767.392,174780,174783.764,175332.704,,38,whether
screen,html.Screen,2_1_0_1_39,2022-02-03T13:06:05.041Z,,,,,,,,,,,,,,,,,53,,,,,,,,,,,,,,730.1960000003746,,response,,,,99,,,,,,,Space,keypress(Space),,,,,,,,---- -- ----- -- ------ - ------- --- ----------<br>------------- ------ ------ ---- ---- ------- ----- -- ----<br>-------- ------- -- ---------- --- - --- ----- ----- ----<br>---- --- --- ----- --- ---- ---- ------- ----- ---- -------<br>you --- -- ----- -- --- ---- -- --- ---- -- ------ ------<br>--- ----- -- ----,176064.7000000002,176062.90000000037,175316.292,175328.60000000056,175332.704,176081.503,,39,you
screen,html.Screen,2_1_0_1_40,2022-02-03T13:06:05.401Z,,,,,,,,,,,,,,,,,53,,,,,,,,,,,,,,341.39700000037556,,response,,,,99,,,,,,,Space,keypress(Space),,,,,,,,---- -- ----- -- ------ - ------- --- ----------<br>------------- ------ ------ ---- ---- ------- ----- -- ----<br>-------- ------- -- ---------- --- - --- ----- ----- ----<br>---- --- --- ----- --- ---- ---- ------- ----- ---- -------<br>--- are -- ----- -- --- ---- -- --- ---- -- ------ ------<br>--- ----- -- ----,176424.2000000002,176422.90000000037,176064.949,176064.90000000037,176081.503,176430.639,,40,are
screen,html.Screen,2_1_0_1_41,2022-02-03T13:06:05.759Z,,,,,,,,,,,,,,,,,53,,,,,,,,,,,,,,350.0610000001907,,response,,,,99,,,,,,,Space,keypress(Space),,,,,,,,---- -- ----- -- ------ - ------- --- ----------<br>------------- ------ ------ ---- ---- ------- ----- -- ----<br>-------- ------- -- ---------- --- - --- ----- ----- ----<br>---- --- --- ----- --- ---- ---- ------- ----- ---- -------<br>--- --- as ----- -- --- ---- -- --- ---- -- ------ ------<br>--- ----- -- ----,176782.10000000056,176780.7000000002,176414.101,176424.5,176430.639,176796.885,,41,as
screen,html.Screen,2_1_0_1_42,2022-02-03T13:06:06.277Z,,,,,,,,,,,,,,,,,53,,,,,,,,,,,,,,501.81500000017695,,response,,,,99,,,,,,,Space,keypress(Space),,,,,,,,---- -- ----- -- ------ - ------- --- ----------<br>------------- ------ ------ ---- ---- ------- ----- -- ----<br>-------- ------- -- ---------- --- - --- ----- ----- ----<br>---- --- --- ----- --- ---- ---- ------- ----- ---- -------<br>--- --- -- close -- --- ---- -- --- ---- -- ------ ------<br>--- ----- -- ----,177300.10000000056,177298.7000000002,176780.077,176782.40000000037,176796.885,177312.356,,42,close
screen,html.Screen,2_1_0_1_43,2022-02-03T13:06:06.567Z,,,,,,,,,,,,,,,,,53,,,,,,,,,,,,,,276.4440000007453,,response,,,,99,,,,,,,Space,keypress(Space),,,,,,,,---- -- ----- -- ------ - ------- --- ----------<br>------------- ------ ------ ---- ---- ------- ----- -- ----<br>-------- ------- -- ---------- --- - --- ----- ----- ----<br>---- --- --- ----- --- ---- ---- ------- ----- ---- -------<br>--- --- -- ----- as --- ---- -- --- ---- -- ------ ------<br>--- ----- -- ----,177590,177588.80000000075,177295.907,177300.30000000075,177312.356,177611.886,,43,as
screen,html.Screen,2_1_0_1_44,2022-02-03T13:06:06.935Z,,,,,,,,,,,,,,,,,53,,,,,,,,,,,,,,345.2140000005602,,response,,,,99,,,,,,,Space,keypress(Space),,,,,,,,---- -- ----- -- ------ - ------- --- ----------<br>------------- ------ ------ ---- ---- ------- ----- -- ----<br>-------- ------- -- ---------- --- - --- ----- ----- ----<br>---- --- --- ----- --- ---- ---- ------- ----- ---- -------<br>--- --- -- ----- -- you ---- -- --- ---- -- ------ ------<br>--- ----- -- ----,177958.30000000075,177957.10000000056,177578.553,177590.30000000075,177611.886,177961.112,,44,you
screen,html.Screen,2_1_0_1_45,2022-02-03T13:06:07.268Z,,,,,,,,,,,,,,,,,53,,,,,,,,,,,,,,328.68800000075134,,response,,,,99,,,,,,,Space,keypress(Space),,,,,,,,---- -- ----- -- ------ - ------- --- ----------<br>------------- ------ ------ ---- ---- ------- ----- -- ----<br>-------- ------- -- ---------- --- - --- ----- ----- ----<br>---- --- --- ----- --- ---- ---- ------- ----- ---- -------<br>--- --- -- ----- -- --- want -- --- ---- -- ------ ------<br>--- ----- -- ----,178291.10000000056,178289.80000000075,177944.548,177958.60000000056,177961.112,178293.828,,45,want
screen,html.Screen,2_1_0_1_46,2022-02-03T13:06:07.664Z,,,,,,,,,,,,,,,,,53,,,,,,,,,,,,,,392.47200000073644,,response,,,,99,,,,,,,Space,keypress(Space),,,,,,,,---- -- ----- -- ------ - ------- --- ----------<br>------------- ------ ------ ---- ---- ------- ----- -- ----<br>-------- ------- -- ---------- --- - --- ----- ----- ----<br>---- --- --- ----- --- ---- ---- ------- ----- ---- -------<br>--- --- -- ----- -- --- ---- to --- ---- -- ------ ------<br>--- ----- -- ----,178687.60000000056,178686.30000000075,178277.263,178291.5,178293.828,178693.061,,46,to
screen,html.Screen,2_1_0_1_47,2022-02-03T13:06:08.036Z,,,,,,,,,,,,,,,,,53,,,,,,,,,,,,,,365.1390000001993,,response,,,,99,,,,,,,Space,keypress(Space),,,,,,,,"---- -- ----- -- ------ - ------- --- ----------<br>------------- ------ ------ ---- ---- ------- ----- -- ----<br>-------- ------- -- ---------- --- - --- ----- ----- ----<br>---- --- --- ----- --- ---- ---- ------- ----- ---- -------<br>--- --- -- ----- -- --- ---- -- be, ---- -- ------ ------<br>--- ----- -- ----",179059.40000000037,179058.2000000002,178676.527,178687.80000000075,178693.061,179075.899,,47,"be,"
screen,html.Screen,2_1_0_1_48,2022-02-03T13:06:08.444Z,,,,,,,,,,,,,,,,,53,,,,,,,,,,,,,,389.8010000001814,,response,,,,99,,,,,,,Space,keypress(Space),,,,,,,,---- -- ----- -- ------ - ------- --- ----------<br>------------- ------ ------ ---- ---- ------- ----- -- ----<br>-------- ------- -- ---------- --- - --- ----- ----- ----<br>---- --- --- ----- --- ---- ---- ------- ----- ---- -------<br>--- --- -- ----- -- --- ---- -- --- even -- ------ ------<br>--- ----- -- ----,179467,179465.7000000002,179059.233,179059.7000000002,179075.899,179474.904,,48,even
screen,html.Screen,2_1_0_1_49,2022-02-03T13:06:08.828Z,,,,,,,,,,,,,,,,,53,,,,,,,,,,,,,,375.09599999999045,,response,,,,99,,,,,,,Space,keypress(Space),,,,,,,,---- -- ----- -- ------ - ------- --- ----------<br>------------- ------ ------ ---- ---- ------- ----- -- ----<br>-------- ------- -- ---------- --- - --- ----- ----- ----<br>---- --- --- ----- --- ---- ---- ------- ----- ---- -------<br>--- --- -- ----- -- --- ---- -- --- ---- if ------ ------<br>--- ----- -- ----,179851.2000000002,179850,179458.553,179467.30000000075,179474.904,179857.552,,49,if
screen,html.Screen,2_1_0_1_50,2022-02-03T13:06:09.191Z,,,,,,,,,,,,,,,,,53,,,,,,,,,,,,,,354.748000000749,,response,,,,99,,,,,,,Space,keypress(Space),,,,,,,,---- -- ----- -- ------ - ------- --- ----------<br>------------- ------ ------ ---- ---- ------- ----- -- ----<br>-------- ------- -- ---------- --- - --- ----- ----- ----<br>---- --- --- ----- --- ---- ---- ------- ----- ---- -------<br>--- --- -- ----- -- --- ---- -- --- ---- -- that's ------<br>--- ----- -- ----,180214.40000000037,180212.30000000075,179840.977,179851.5,179857.552,180223.573,,50,that's
screen,html.Screen,2_1_0_1_51,2022-02-03T13:06:09.563Z,,,,,,,,,,,,,,,,,53,,,,,,,,,,,,,,361.7270000007411,,response,,,,99,,,,,,,Space,keypress(Space),,,,,,,,---- -- ----- -- ------ - ------- --- ----------<br>------------- ------ ------ ---- ---- ------- ----- -- ----<br>-------- ------- -- ---------- --- - --- ----- ----- ----<br>---- --- --- ----- --- ---- ---- ------- ----- ---- -------<br>--- --- -- ----- -- --- ---- -- --- ---- -- ------ really<br>--- ----- -- ----,180586.5,180585.30000000075,180207.109,180214.90000000037,180223.573,180589.499,,51,really
screen,html.Screen,2_1_0_1_52,2022-02-03T13:06:09.987Z,,,,,,,,,,,,,,,,,53,,,,,,,,,,,,,,419.0009999999893,,response,,,,99,,,,,,,Space,keypress(Space),,,,,,,,---- -- ----- -- ------ - ------- --- ----------<br>------------- ------ ------ ---- ---- ------- ----- -- ----<br>-------- ------- -- ---------- --- - --- ----- ----- ----<br>---- --- --- ----- --- ---- ---- ------- ----- ---- -------<br>--- --- -- ----- -- --- ---- -- --- ---- -- ------ ------<br>not ----- -- ----,181010,181008.5,180573.091,180586.90000000037,180589.499,181022.221,,52,not
screen,html.Screen,2_1_0_1_53,2022-02-03T13:06:10.351Z,,,,,,,,,,,,,,,,,53,,,,,,,,,,,,,,350.6790000003821,,response,,,,99,,,,,,,Space,keypress(Space),,,,,,,,---- -- ----- -- ------ - ------- --- ----------<br>------------- ------ ------ ---- ---- ------- ----- -- ----<br>-------- ------- -- ---------- --- - --- ----- ----- ----<br>---- --- --- ----- --- ---- ---- ------- ----- ---- -------<br>--- --- -- ----- -- --- ---- -- --- ---- -- ------ ------<br>--- close -- ----,181374.2000000002,181372.90000000037,181005.43,181010.2000000002,181022.221,181388.028,,53,close
screen,html.Screen,2_1_0_1_54,2022-02-03T13:06:10.700Z,,,,,,,,,,,,,,,,,53,,,,,,,,,,,,,,333.57200000056764,,response,,,,99,,,,,,,Space,keypress(Space),,,,,,,,---- -- ----- -- ------ - ------- --- ----------<br>------------- ------ ------ ---- ---- ------- ----- -- ----<br>-------- ------- -- ---------- --- - --- ----- ----- ----<br>---- --- --- ----- --- ---- ---- ------- ----- ---- -------<br>--- --- -- ----- -- --- ---- -- --- ---- -- ------ ------<br>--- ----- at ----,181723,181721.60000000056,181371.429,181374.5,181388.028,181737.47,,54,at
screen,html.Screen,2_1_0_1_55,2022-02-03T13:06:11.047Z,,,,,,,,,,,,,,,,,53,,,,,,,,,,,,,,331.52999999999884,,response,,,,99,,,,,,,Space,keypress(Space),,,,,,,,---- -- ----- -- ------ - ------- --- ----------<br>------------- ------ ------ ---- ---- ------- ----- -- ----<br>-------- ------- -- ---------- --- - --- ----- ----- ----<br>---- --- --- ----- --- ---- ---- ------- ----- ---- -------<br>--- --- -- ----- -- --- ---- -- --- ---- -- ------ ------<br>--- ----- -- all.,182070.40000000037,182069,181720.954,181723.30000000075,181737.47,182086.714,,55,all.
Item 99,flow.Loop,2_1_0_1,2022-02-03T13:06:11.048Z,,,,,,,,,,,,,,,,,,,,,,,,,,,,,,,30674.64300000001,,completion,,,,,F,,,,,,,,,,,silence,,,,,182070.90000000037,182069,151344.643,151346.10000000056,151394.357,182086.714,,,
Question 1,html.Screen,2_1_0_2,2022-02-03T13:06:14.478Z,,,,,,,,,,,,,,,,,,,,,,,,,,,,true,FALSE,,3412.285999999993,,response,,,,99,F,,,,,,FALSE,click #choice-2,,,,silence,,,,,185500.90000000037,185499,182070.26,182071.2000000002,182086.714,185513.66,,,
Question 2,html.Screen,2_1_0_3,2022-02-03T13:06:17.091Z,,,,,,,,,,,,,,,,,,,,,,,,,,,,false,TRUE,,2598.6400000007416,,response,,,,99,F,,,,,,FALSE,click #choice-2,,,,silence,,,,,188114.2000000002,188112.30000000075,185497.263,185501.2000000002,185513.66,188125.396,,,
Item 99,flow.Sequence,2_1_0,2022-02-03T13:06:17.091Z,,,,,,,,,,,,,,,,,,,,,,,,,,,,,,,46749.10200000074,,completion,,,,,,,,,,,,,,,,,,,,,188114.7000000002,188112.30000000075,141346.631,141362.2000000002,141363.198,188125.396,,,
Holding screen,html.Screen,2_1_1_0,2022-02-03T13:06:27.085Z,,,,,,,,,,,,,,,,,,,,,,,,,,,,,,,9997.878999999986,,timeout,,,,,,,,,,,,,,,,,,,,,198108,198106.8,188108.731,188115,188125.396,198123.275,,,
screen,html.Screen,2_1_1_1_0,2022-02-03T13:06:27.768Z,,,,,,,,,,,,,,,,,54,,,,,,,,,,,,,,666.3250000005646,,response,,,,100,,,,,,,Space,keypress(Space),,,,,,,,At --- ---- --- ------ ----- ------- ---- -- --- ------- --<br>------- ---------- ------ -- ----- -- ----- -- ---- ------<br>--- ----- --- --- ------ -------- ----- --- ------ ----- --<br>----- ----- ---------- --- --- ------ ------ ---- -- ------<br>------- --- ------ ----- --- ---- ------- -- ---- --- --<br>------- ------,198791.5,198789.60000000056,198106.8,198108.5,198123.275,198805.567,,0,At
screen,html.Screen,2_1_1_1_1,2022-02-03T13:06:28.106Z,,,,,,,,,,,,,,,,,54,,,,,,,,,,,,,,321.8330000003625,,response,,,,100,,,,,,,Space,keypress(Space),,,,,,,,-- the ---- --- ------ ----- ------- ---- -- --- ------- --<br>------- ---------- ------ -- ----- -- ----- -- ---- ------<br>--- ----- --- --- ------ -------- ----- --- ------ ----- --<br>----- ----- ---------- --- --- ------ ------ ---- -- ------<br>------- --- ------ ----- --- ---- ------- -- ---- --- --<br>------- ------,199129,199127.40000000037,198788.752,198791.80000000075,198805.567,199138.094,,1,the
screen,html.Screen,2_1_1_1_2,2022-02-03T13:06:28.472Z,,,,,,,,,,,,,,,,,54,,,,,,,,,,,,,,356.1060000001744,,response,,,,100,,,,,,,Space,keypress(Space),,,,,,,,-- --- time --- ------ ----- ------- ---- -- --- ------- --<br>------- ---------- ------ -- ----- -- ----- -- ---- ------<br>--- ----- --- --- ------ -------- ----- --- ------ ----- --<br>----- ----- ---------- --- --- ------ ------ ---- -- ------<br>------- --- ------ ----- --- ---- ------- -- ---- --- --<br>------- ------,199495.40000000037,199494.2000000002,199121.452,199129.2000000002,199138.094,199504.052,,2,time
screen,html.Screen,2_1_1_1_3,2022-02-03T13:06:29.102Z,,,,,,,,,,,,,,,,,54,,,,,,,,,,,,,,623.448000000004,,response,,,,100,,,,,,,Space,keypress(Space),,,,,,,,-- --- ---- the ------ ----- ------- ---- -- --- ------- --<br>------- ---------- ------ -- ----- -- ----- -- ---- ------<br>--- ----- --- --- ------ -------- ----- --- ------ ----- --<br>----- ----- ---------- --- --- ------ ------ ---- -- ------<br>------- --- ------ ----- --- ---- ------- -- ---- --- --<br>------- ------,200128.90000000037,200127.5,199487.55,199495.7000000002,199504.052,200136.131,,3,the
screen,html.Screen,2_1_1_1_4,2022-02-03T13:06:29.634Z,,,,,,,,,,,,,,,,,54,,,,,,,,,,,,,,523.869000000006,,response,,,,100,,,,,,,Space,keypress(Space),,,,,,,,-- --- ---- --- French ----- ------- ---- -- --- ------- --<br>------- ---------- ------ -- ----- -- ----- -- ---- ------<br>--- ----- --- --- ------ -------- ----- --- ------ ----- --<br>----- ----- ---------- --- --- ------ ------ ---- -- ------<br>------- --- ------ ----- --- ---- ------- -- ---- --- --<br>------- ------,200660.60000000056,200660,200119.612,200129.10000000056,200136.131,200668.402,,4,French
screen,html.Screen,2_1_1_1_5,2022-02-03T13:06:30.022Z,,,,,,,,,,,,,,,,,54,,,,,,,,,,,,,,378.99800000037067,,response,,,,100,,,,,,,Space,keypress(Space),,,,,,,,-- --- ---- --- ------ crown ------- ---- -- --- ------- --<br>------- ---------- ------ -- ----- -- ----- -- ---- ------<br>--- ----- --- --- ------ -------- ----- --- ------ ----- --<br>----- ----- ---------- --- --- ------ ------ ---- -- ------<br>------- --- ------ ----- --- ---- ------- -- ---- --- --<br>------- ------,201048.5,201047.40000000037,200652.005,200660.80000000075,200668.402,201051.089,,5,crown
screen,html.Screen,2_1_1_1_6,2022-02-03T13:06:30.592Z,,,,,,,,,,,,,,,,,54,,,,,,,,,,,,,,566.3110000003653,,response,,,,100,,,,,,,Space,keypress(Space),,,,,,,,-- --- ---- --- ------ ----- secured ---- -- --- ------- --<br>------- ---------- ------ -- ----- -- ----- -- ---- ------<br>--- ----- --- --- ------ -------- ----- --- ------ ----- --<br>----- ----- ---------- --- --- ------ ------ ---- -- ------<br>------- --- ------ ----- --- ---- ------- -- ---- --- --<br>------- ------,201618.5,201617.40000000037,201034.41,201048.7000000002,201051.089,201633.358,,6,secured
screen,html.Screen,2_1_1_1_7,2022-02-03T13:06:30.963Z,,,,,,,,,,,,,,,,,54,,,,,,,,,,,,,,355.4420000007376,,response,,,,100,,,,,,,Space,keypress(Space),,,,,,,,-- --- ---- --- ------ ----- ------- much -- --- ------- --<br>------- ---------- ------ -- ----- -- ----- -- ---- ------<br>--- ----- --- --- ------ -------- ----- --- ------ ----- --<br>----- ----- ---------- --- --- ------ ------ ---- -- ------<br>------- --- ------ ----- --- ---- ------- -- ---- --- --<br>------- ------,201989.90000000037,201988.80000000075,201616.928,201618.90000000037,201633.358,201999.371,,7,much
screen,html.Screen,2_1_1_1_8,2022-02-03T13:06:31.330Z,,,,,,,,,,,,,,,,,54,,,,,,,,,,,,,,356.22900000054506,,response,,,,100,,,,,,,Space,keypress(Space),,,,,,,,-- --- ---- --- ------ ----- ------- ---- of --- ------- --<br>------- ---------- ------ -- ----- -- ----- -- ---- ------<br>--- ----- --- --- ------ -------- ----- --- ------ ----- --<br>----- ----- ---------- --- --- ------ ------ ---- -- ------<br>------- --- ------ ----- --- ---- ------- -- ---- --- --<br>------- ------,202357,202355.60000000056,201982.722,201990.2000000002,201999.371,202365.248,,8,of
screen,html.Screen,2_1_1_1_9,2022-02-03T13:06:31.666Z,,,,,,,,,,,,,,,,,54,,,,,,,,,,,,,,326.2520000000077,,response,,,,100,,,,,,,Space,keypress(Space),,,,,,,,-- --- ---- --- ------ ----- ------- ---- -- its ------- --<br>------- ---------- ------ -- ----- -- ----- -- ---- ------<br>--- ----- --- --- ------ -------- ----- --- ------ ----- --<br>----- ----- ---------- --- --- ------ ------ ---- -- ------<br>------- --- ------ ----- --- ---- ------- -- ---- --- --<br>------- ------,202692.90000000037,202691.5,202348.838,202357.2000000002,202365.248,202698.002,,9,its
screen,html.Screen,2_1_1_1_10,2022-02-03T13:06:32.233Z,,,,,,,,,,,,,,,,,54,,,,,,,,,,,,,,560.0980000005511,,response,,,,100,,,,,,,Space,keypress(Space),,,,,,,,-- --- ---- --- ------ ----- ------- ---- -- --- revenue --<br>------- ---------- ------ -- ----- -- ----- -- ---- ------<br>--- ----- --- --- ------ -------- ----- --- ------ ----- --<br>----- ----- ---------- --- --- ------ ------ ---- -- ------<br>------- --- ------ ----- --- ---- ------- -- ---- --- --<br>------- ------,203259.60000000056,203258.10000000056,202681.414,202693.30000000075,202698.002,203263.581,,10,revenue
screen,html.Screen,2_1_1_1_11,2022-02-03T13:06:32.613Z,,,,,,,,,,,,,,,,,54,,,,,,,,,,,,,,375.4189999999944,,response,,,,100,,,,,,,Space,keypress(Space),,,,,,,,-- --- ---- --- ------ ----- ------- ---- -- --- ------- by<br>------- ---------- ------ -- ----- -- ----- -- ---- ------<br>--- ----- --- --- ------ -------- ----- --- ------ ----- --<br>----- ----- ---------- --- --- ------ ------ ---- -- ------<br>------- --- ------ ----- --- ---- ------- -- ---- --- --<br>------- ------,203640.2000000002,203639,203247.164,203259.90000000037,203263.581,203646.251,,11,by
screen,html.Screen,2_1_1_1_12,2022-02-03T13:06:33.020Z,,,,,,,,,,,,,,,,,54,,,,,,,,,,,,,,398.8490000005695,,response,,,,100,,,,,,,Space,keypress(Space),,,,,,,,-- --- ---- --- ------ ----- ------- ---- -- --- ------- --<br>issuing ---------- ------ -- ----- -- ----- -- ---- ------<br>--- ----- --- --- ------ -------- ----- --- ------ ----- --<br>----- ----- ---------- --- --- ------ ------ ---- -- ------<br>------- --- ------ ----- --- ---- ------- -- ---- --- --<br>------- ------,204046.60000000056,204045.10000000056,203629.864,203640.5,203646.251,204062.369,,12,issuing
screen,html.Screen,2_1_1_1_13,2022-02-03T13:06:33.469Z,,,,,,,,,,,,,,,,,54,,,,,,,,,,,,,,432.0310000003665,,response,,,,100,,,,,,,Space,keypress(Space),,,,,,,,-- --- ---- --- ------ ----- ------- ---- -- --- ------- --<br>------- government ------ -- ----- -- ----- -- ---- ------<br>--- ----- --- --- ------ -------- ----- --- ------ ----- --<br>----- ----- ---------- --- --- ------ ------ ---- -- ------<br>------- --- ------ ----- --- ---- ------- -- ---- --- --<br>------- ------,204495.7000000002,204494.40000000037,204045.554,204046.80000000075,204062.369,204511.296,,13,government
screen,html.Screen,2_1_1_1_14,2022-02-03T13:06:33.868Z,,,,,,,,,,,,,,,,,54,,,,,,,,,,,,,,382.40400000018417,,response,,,,100,,,,,,,Space,keypress(Space),,,,,,,,-- --- ---- --- ------ ----- ------- ---- -- --- ------- --<br>------- ---------- bonds. -- ----- -- ----- -- ---- ------<br>--- ----- --- --- ------ -------- ----- --- ------ ----- --<br>----- ----- ---------- --- --- ------ ------ ---- -- ------<br>------- --- ------ ----- --- ---- ------- -- ---- --- --<br>------- ------,204895.2000000002,204893.7000000002,204494.832,204496,204511.296,204910.559,,14,bonds.
screen,html.Screen,2_1_1_1_15,2022-02-03T13:06:34.297Z,,,,,,,,,,,,,,,,,54,,,,,,,,,,,,,,412.2410000007367,,response,,,,100,,,,,,,Space,keypress(Space),,,,,,,,-- --- ---- --- ------ ----- ------- ---- -- --- ------- --<br>------- ---------- ------ In ----- -- ----- -- ---- ------<br>--- ----- --- --- ------ -------- ----- --- ------ ----- --<br>----- ----- ---------- --- --- ------ ------ ---- -- ------<br>------- --- ------ ----- --- ---- ------- -- ---- --- --<br>------- ------,205324.2000000002,205322.80000000075,204894.057,204895.60000000056,204910.559,205326.388,,15,In
screen,html.Screen,2_1_1_1_16,2022-02-03T13:06:35.578Z,,,,,,,,,,,,,,,,,54,,,,,,,,,,,,,,1277.81200000018,,response,,,,100,,,,,,,Space,keypress(Space),,,,,,,,"-- --- ---- --- ------ ----- ------- ---- -- --- ------- --<br>------- ---------- ------ -- 1727, -- ----- -- ---- ------<br>--- ----- --- --- ------ -------- ----- --- ------ ----- --<br>----- ----- ---------- --- --- ------ ------ ---- -- ------<br>------- --- ------ ----- --- ---- ------- -- ---- --- --<br>------- ------",206605,206604.2000000002,205309.803,205324.5,205326.388,206607.266,,16,"1727,"
screen,html.Screen,2_1_1_1_17,2022-02-03T13:06:36.644Z,,,,,,,,,,,,,,,,,54,,,,,,,,,,,,,,1060.2339999999967,,response,,,,100,,,,,,,Space,keypress(Space),,,,,,,,-- --- ---- --- ------ ----- ------- ---- -- --- ------- --<br>------- ---------- ------ -- ----- in ----- -- ---- ------<br>--- ----- --- --- ------ -------- ----- --- ------ ----- --<br>----- ----- ---------- --- --- ------ ------ ---- -- ------<br>------- --- ------ ----- --- ---- ------- -- ---- --- --<br>------- ------,207670.7000000002,207667.5,206590.924,206605.10000000056,206607.266,207691.079,,17,in
screen,html.Screen,2_1_1_1_18,2022-02-03T13:06:37.025Z,,,,,,,,,,,,,,,,,54,,,,,,,,,,,,,,359.12100000018836,,response,,,,100,,,,,,,Space,keypress(Space),,,,,,,,-- --- ---- --- ------ ----- ------- ---- -- --- ------- --<br>------- ---------- ------ -- ----- -- order -- ---- ------<br>--- ----- --- --- ------ -------- ----- --- ------ ----- --<br>----- ----- ---------- --- --- ------ ------ ---- -- ------<br>------- --- ------ ----- --- ---- ------- -- ---- --- --<br>------- ------,208051.40000000037,208050.2000000002,207655.575,207670.90000000037,207691.079,208054.61,,18,order
screen,html.Screen,2_1_1_1_19,2022-02-03T13:06:37.402Z,,,,,,,,,,,,,,,,,54,,,,,,,,,,,,,,372.690000000759,,response,,,,100,,,,,,,Space,keypress(Space),,,,,,,,-- --- ---- --- ------ ----- ------- ---- -- --- ------- --<br>------- ---------- ------ -- ----- -- ----- to ---- ------<br>--- ----- --- --- ------ -------- ----- --- ------ ----- --<br>----- ----- ---------- --- --- ------ ------ ---- -- ------<br>------- --- ------ ----- --- ---- ------- -- ---- --- --<br>------- ------,208428.90000000037,208427.30000000075,208038.142,208051.60000000056,208054.61,208437.294,,19,to
screen,html.Screen,2_1_1_1_20,2022-02-03T13:06:37.722Z,,,,,,,,,,,,,,,,,54,,,,,,,,,,,,,,310.40600000019185,,response,,,,100,,,,,,,Space,keypress(Space),,,,,,,,-- --- ---- --- ------ ----- ------- ---- -- --- ------- --<br>------- ---------- ------ -- ----- -- ----- -- save ------<br>--- ----- --- --- ------ -------- ----- --- ------ ----- --<br>----- ----- ---------- --- --- ------ ------ ---- -- ------<br>------- --- ------ ----- --- ---- ------- -- ---- --- --<br>------- ------,208749,208747.7000000002,208420.627,208429.30000000075,208437.294,208753.257,,20,save
screen,html.Screen,2_1_1_1_21,2022-02-03T13:06:38.064Z,,,,,,,,,,,,,,,,,54,,,,,,,,,,,,,,336.24299999998766,,response,,,,100,,,,,,,Space,keypress(Space),,,,,,,,"-- --- ---- --- ------ ----- ------- ---- -- --- ------- --<br>------- ---------- ------ -- ----- -- ----- -- ---- money,<br>--- ----- --- --- ------ -------- ----- --- ------ ----- --<br>----- ----- ---------- --- --- ------ ------ ---- -- ------<br>------- --- ------ ----- --- ---- ------- -- ---- --- --<br>------- ------",209090.60000000056,209089.5,208736.728,208749.30000000075,208753.257,209102.925,,21,"money,"
screen,html.Screen,2_1_1_1_22,2022-02-03T13:06:38.589Z,,,,,,,,,,,,,,,,,54,,,,,,,,,,,,,,511.47500000038417,,response,,,,100,,,,,,,Space,keypress(Space),,,,,,,,-- --- ---- --- ------ ----- ------- ---- -- --- ------- --<br>------- ---------- ------ -- ----- -- ----- -- ---- ------<br>the ----- --- --- ------ -------- ----- --- ------ ----- --<br>----- ----- ---------- --- --- ------ ------ ---- -- ------<br>------- --- ------ ----- --- ---- ------- -- ---- --- --<br>------- ------,209615.60000000056,209614.40000000037,209086.203,209090.90000000037,209102.925,209618.34,,22,the
screen,html.Screen,2_1_1_1_23,2022-02-03T13:06:38.943Z,,,,,,,,,,,,,,,,,54,,,,,,,,,,,,,,349.560000000376,,response,,,,100,,,,,,,Space,keypress(Space),,,,,,,,-- --- ---- --- ------ ----- ------- ---- -- --- ------- --<br>------- ---------- ------ -- ----- -- ----- -- ---- ------<br>--- state --- --- ------ -------- ----- --- ------ ----- --<br>----- ----- ---------- --- --- ------ ------ ---- -- ------<br>------- --- ------ ----- --- ---- ------- -- ---- --- --<br>------- ------,209969.40000000037,209967.90000000037,209601.943,209615.90000000037,209618.34,209984.338,,23,state
screen,html.Screen,2_1_1_1_24,2022-02-03T13:06:39.363Z,,,,,,,,,,,,,,,,,54,,,,,,,,,,,,,,404.1620000000112,,response,,,,100,,,,,,,Space,keypress(Space),,,,,,,,-- --- ---- --- ------ ----- ------- ---- -- --- ------- --<br>------- ---------- ------ -- ----- -- ----- -- ---- ------<br>--- ----- cut --- ------ -------- ----- --- ------ ----- --<br>----- ----- ---------- --- --- ------ ------ ---- -- ------<br>------- --- ------ ----- --- ---- ------- -- ---- --- --<br>------- ------,210389.90000000037,210388.5,209967.881,209969.60000000056,209984.338,210400.372,,24,cut
screen,html.Screen,2_1_1_1_25,2022-02-03T13:06:39.798Z,,,,,,,,,,,,,,,,,54,,,,,,,,,,,,,,422.92800000074203,,response,,,,100,,,,,,,Space,keypress(Space),,,,,,,,-- --- ---- --- ------ ----- ------- ---- -- --- ------- --<br>------- ---------- ------ -- ----- -- ----- -- ---- ------<br>--- ----- --- the ------ -------- ----- --- ------ ----- --<br>----- ----- ---------- --- --- ------ ------ ---- -- ------<br>------- --- ------ ----- --- ---- ------- -- ---- --- --<br>------- ------,210824.60000000056,210823.30000000075,210383.64,210390.2000000002,210400.372,210832.748,,25,the
screen,html.Screen,2_1_1_1_26,2022-02-03T13:06:40.362Z,,,,,,,,,,,,,,,,,54,,,,,,,,,,,,,,555.0520000007527,,response,,,,100,,,,,,,Space,keypress(Space),,,,,,,,-- --- ---- --- ------ ----- ------- ---- -- --- ------- --<br>------- ---------- ------ -- ----- -- ----- -- ---- ------<br>--- ----- --- --- bonds' -------- ----- --- ------ ----- --<br>----- ----- ---------- --- --- ------ ------ ---- -- ------<br>------- --- ------ ----- --- ---- ------- -- ---- --- --<br>------- ------,211389.2000000002,211387.80000000075,210816.308,210824.80000000075,210832.748,211398.308,,26,bonds'
screen,html.Screen,2_1_1_1_27,2022-02-03T13:06:40.910Z,,,,,,,,,,,,,,,,,54,,,,,,,,,,,,,,537.4920000007551,,response,,,,100,,,,,,,Space,keypress(Space),,,,,,,,-- --- ---- --- ------ ----- ------- ---- -- --- ------- --<br>------- ---------- ------ -- ----- -- ----- -- ---- ------<br>--- ----- --- --- ------ interest ----- --- ------ ----- --<br>----- ----- ---------- --- --- ------ ------ ---- -- ------<br>------- --- ------ ----- --- ---- ------- -- ---- --- --<br>------- ------,211937.2000000002,211935.80000000075,211381.915,211389.40000000037,211398.308,211947.419,,27,interest
screen,html.Screen,2_1_1_1_28,2022-02-03T13:06:41.374Z,,,,,,,,,,,,,,,,,54,,,,,,,,,,,,,,452.38100000075065,,response,,,,100,,,,,,,Space,keypress(Space),,,,,,,,-- --- ---- --- ------ ----- ------- ---- -- --- ------- --<br>------- ---------- ------ -- ----- -- ----- -- ---- ------<br>--- ----- --- --- ------ -------- rate. --- ------ ----- --<br>----- ----- ---------- --- --- ------ ------ ---- -- ------<br>------- --- ------ ----- --- ---- ------- -- ---- --- --<br>------- ------,212401.10000000056,212399.80000000075,211930.889,211937.60000000056,211947.419,212413.251,,28,rate.
screen,html.Screen,2_1_1_1_29,2022-02-03T13:06:41.830Z,,,,,,,,,,,,,,,,,54,,,,,,,,,,,,,,442.04900000075577,,response,,,,100,,,,,,,Space,keypress(Space),,,,,,,,-- --- ---- --- ------ ----- ------- ---- -- --- ------- --<br>------- ---------- ------ -- ----- -- ----- -- ---- ------<br>--- ----- --- --- ------ -------- ----- The ------ ----- --<br>----- ----- ---------- --- --- ------ ------ ---- -- ------<br>------- --- ------ ----- --- ---- ------- -- ---- --- --<br>------- ------,212856.60000000056,212855.30000000075,212396.483,212401.30000000075,212413.251,212862.214,,29,The
screen,html.Screen,2_1_1_1_30,2022-02-03T13:06:42.231Z,,,,,,,,,,,,,,,,,54,,,,,,,,,,,,,,394.7859999999928,,response,,,,100,,,,,,,Space,keypress(Space),,,,,,,,-- --- ---- --- ------ ----- ------- ---- -- --- ------- --<br>------- ---------- ------ -- ----- -- ----- -- ---- ------<br>--- ----- --- --- ------ -------- ----- --- market ----- --<br>----- ----- ---------- --- --- ------ ------ ---- -- ------<br>------- --- ------ ----- --- ---- ------- -- ---- --- --<br>------- ------,213258.2000000002,213257,212845.858,212856.7000000002,212862.214,213261.451,,30,market
screen,html.Screen,2_1_1_1_31,2022-02-03T13:06:42.838Z,,,,,,,,,,,,,,,,,54,,,,,,,,,,,,,,602.0489999999991,,response,,,,100,,,,,,,Space,keypress(Space),,,,,,,,-- --- ---- --- ------ ----- ------- ---- -- --- ------- --<br>------- ---------- ------ -- ----- -- ----- -- ---- ------<br>--- ----- --- --- ------ -------- ----- --- ------ value --<br>----- ----- ---------- --- --- ------ ------ ---- -- ------<br>------- --- ------ ----- --- ---- ------- -- ---- --- --<br>------- ------,213864.7000000002,213863.5,213245.055,213258.5,213261.451,213877.021,,31,value
screen,html.Screen,2_1_1_1_32,2022-02-03T13:06:43.760Z,,,,,,,,,,,,,,,,,54,,,,,,,,,,,,,,909.0790000005509,,response,,,,100,,,,,,,Space,keypress(Space),,,,,,,,-- --- ---- --- ------ ----- ------- ---- -- --- ------- --<br>------- ---------- ------ -- ----- -- ----- -- ---- ------<br>--- ----- --- --- ------ -------- ----- --- ------ ----- of<br>----- ----- ---------- --- --- ------ ------ ---- -- ------<br>------- --- ------ ----- --- ---- ------- -- ---- --- --<br>------- ------,214787.2000000002,214786.10000000056,213860.564,213865,213877.021,214791.928,,32,of
screen,html.Screen,2_1_1_1_33,2022-02-03T13:06:44.201Z,,,,,,,,,,,,,,,,,54,,,,,,,,,,,,,,435.17200000054436,,response,,,,100,,,,,,,Space,keypress(Space),,,,,,,,-- --- ---- --- ------ ----- ------- ---- -- --- ------- --<br>------- ---------- ------ -- ----- -- ----- -- ---- ------<br>--- ----- --- --- ------ -------- ----- --- ------ ----- --<br>these ----- ---------- --- --- ------ ------ ---- -- ------<br>------- --- ------ ----- --- ---- ------- -- ---- --- --<br>------- ------,215228.2000000002,215227.10000000056,214775.407,214787.60000000056,214791.928,215241.251,,33,these
screen,html.Screen,2_1_1_1_34,2022-02-03T13:06:44.647Z,,,,,,,,,,,,,,,,,54,,,,,,,,,,,,,,431.04900000075577,,response,,,,100,,,,,,,Space,keypress(Space),,,,,,,,-- --- ---- --- ------ ----- ------- ---- -- --- ------- --<br>------- ---------- ------ -- ----- -- ----- -- ---- ------<br>--- ----- --- --- ------ -------- ----- --- ------ ----- --<br>----- bonds ---------- --- --- ------ ------ ---- -- ------<br>------- --- ------ ----- --- ---- ------- -- ---- --- --<br>------- ------,215673.80000000075,215672.30000000075,215224.643,215228.60000000056,215241.251,215690.413,,34,bonds
screen,html.Screen,2_1_1_1_35,2022-02-03T13:06:45.358Z,,,,,,,,,,,,,,,,,54,,,,,,,,,,,,,,692.9870000003721,,response,,,,100,,,,,,,Space,keypress(Space),,,,,,,,"-- --- ---- --- ------ ----- ------- ---- -- --- ------- --<br>------- ---------- ------ -- ----- -- ----- -- ---- ------<br>--- ----- --- --- ------ -------- ----- --- ------ ----- --<br>----- ----- plummeted, --- --- ------ ------ ---- -- ------<br>------- --- ------ ----- --- ---- ------- -- ---- --- --<br>------- ------",216384.7000000002,216383.40000000037,215673.816,215674.10000000056,215690.413,216388.975,,35,"plummeted,"
screen,html.Screen,2_1_1_1_36,2022-02-03T13:06:45.812Z,,,,,,,,,,,,,,,,,54,,,,,,,,,,,,,,448.32500000073924,,response,,,,100,,,,,,,Space,keypress(Space),,,,,,,,-- --- ---- --- ------ ----- ------- ---- -- --- ------- --<br>------- ---------- ------ -- ----- -- ----- -- ---- ------<br>--- ----- --- --- ------ -------- ----- --- ------ ----- --<br>----- ----- ---------- and --- ------ ------ ---- -- ------<br>------- --- ------ ----- --- ---- ------- -- ---- --- --<br>------- ------,216838.7000000002,216837.30000000075,216372.591,216384.90000000037,216388.975,216854.797,,36,and
screen,html.Screen,2_1_1_1_37,2022-02-03T13:06:46.134Z,,,,,,,,,,,,,,,,,54,,,,,,,,,,,,,,304.10300000038114,,response,,,,100,,,,,,,Space,keypress(Space),,,,,,,,-- --- ---- --- ------ ----- ------- ---- -- --- ------- --<br>------- ---------- ------ -- ----- -- ----- -- ---- ------<br>--- ----- --- --- ------ -------- ----- --- ------ ----- --<br>----- ----- ---------- --- the ------ ------ ---- -- ------<br>------- --- ------ ----- --- ---- ------- -- ---- --- --<br>------- ------,217160.30000000075,217158.90000000037,216838.319,216839.10000000056,216854.797,217170.899,,37,the
screen,html.Screen,2_1_1_1_38,2022-02-03T13:06:46.540Z,,,,,,,,,,,,,,,,,54,,,,,,,,,,,,,,394.3010000001814,,response,,,,100,,,,,,,Space,keypress(Space),,,,,,,,-- --- ---- --- ------ ----- ------- ---- -- --- ------- --<br>------- ---------- ------ -- ----- -- ----- -- ---- ------<br>--- ----- --- --- ------ -------- ----- --- ------ ----- --<br>----- ----- ---------- --- --- market ------ ---- -- ------<br>------- --- ------ ----- --- ---- ------- -- ---- --- --<br>------- ------,217566.40000000037,217565.2000000002,217154.31,217160.60000000056,217170.899,217570.069,,38,market
screen,html.Screen,2_1_1_1_39,2022-02-03T13:06:46.944Z,,,,,,,,,,,,,,,,,54,,,,,,,,,,,,,,399.33100000038394,,response,,,,100,,,,,,,Space,keypress(Space),,,,,,,,-- --- ---- --- ------ ----- ------- ---- -- --- ------- --<br>------- ---------- ------ -- ----- -- ----- -- ---- ------<br>--- ----- --- --- ------ -------- ----- --- ------ ----- --<br>----- ----- ---------- --- --- ------ became ---- -- ------<br>------- --- ------ ----- --- ---- ------- -- ---- --- --<br>------- ------,217970.60000000056,217969.40000000037,217553.72,217566.60000000056,217570.069,217986.127,,39,became
screen,html.Screen,2_1_1_1_40,2022-02-03T13:06:47.486Z,,,,,,,,,,,,,,,,,54,,,,,,,,,,,,,,525.4730000005511,,response,,,,100,,,,,,,Space,keypress(Space),,,,,,,,-- --- ---- --- ------ ----- ------- ---- -- --- ------- --<br>------- ---------- ------ -- ----- -- ----- -- ---- ------<br>--- ----- --- --- ------ -------- ----- --- ------ ----- --<br>----- ----- ---------- --- --- ------ ------ wary -- ------<br>------- --- ------ ----- --- ---- ------- -- ---- --- --<br>------- ------,218512.80000000075,218511.60000000056,217969.503,217970.80000000075,217986.127,218518.241,,40,wary
screen,html.Screen,2_1_1_1_41,2022-02-03T13:06:47.862Z,,,,,,,,,,,,,,,,,54,,,,,,,,,,,,,,369.4590000001772,,response,,,,100,,,,,,,Space,keypress(Space),,,,,,,,-- --- ---- --- ------ ----- ------- ---- -- --- ------- --<br>------- ---------- ------ -- ----- -- ----- -- ---- ------<br>--- ----- --- --- ------ -------- ----- --- ------ ----- --<br>----- ----- ---------- --- --- ------ ------ ---- of ------<br>------- --- ------ ----- --- ---- ------- -- ---- --- --<br>------- ------,218889,218887.7000000002,218501.807,218512.90000000037,218518.241,218901.079,,41,of
screen,html.Screen,2_1_1_1_42,2022-02-03T13:06:48.456Z,,,,,,,,,,,,,,,,,54,,,,,,,,,,,,,,580.6210000001884,,response,,,,100,,,,,,,Space,keypress(Space),,,,,,,,-- --- ---- --- ------ ----- ------- ---- -- --- ------- --<br>------- ---------- ------ -- ----- -- ----- -- ---- ------<br>--- ----- --- --- ------ -------- ----- --- ------ ----- --<br>----- ----- ---------- --- --- ------ ------ ---- -- French<br>------- --- ------ ----- --- ---- ------- -- ---- --- --<br>------- ------,219483,219481.7000000002,218884.421,218889.2000000002,218901.079,219499.797,,42,French
screen,html.Screen,2_1_1_1_43,2022-02-03T13:06:49.495Z,,,,,,,,,,,,,,,,,54,,,,,,,,,,,,,,1020.6030000003811,,response,,,,100,,,,,,,Space,keypress(Space),,,,,,,,-- --- ---- --- ------ ----- ------- ---- -- --- ------- --<br>------- ---------- ------ -- ----- -- ----- -- ---- ------<br>--- ----- --- --- ------ -------- ----- --- ------ ----- --<br>----- ----- ---------- --- --- ------ ------ ---- -- ------<br>credit. --- ------ ----- --- ---- ------- -- ---- --- --<br>------- ------,220521.60000000056,220520.40000000037,219483.189,219483.30000000075,219499.797,220531.354,,43,credit.
screen,html.Screen,2_1_1_1_44,2022-02-03T13:06:49.839Z,,,,,,,,,,,,,,,,,54,,,,,,,,,,,,,,333.54600000038045,,response,,,,100,,,,,,,Space,keypress(Space),,,,,,,,-- --- ---- --- ------ ----- ------- ---- -- --- ------- --<br>------- ---------- ------ -- ----- -- ----- -- ---- ------<br>--- ----- --- --- ------ -------- ----- --- ------ ----- --<br>----- ----- ---------- --- --- ------ ------ ---- -- ------<br>------- The ------ ----- --- ---- ------- -- ---- --- --<br>------- ------,220866.2000000002,220864.90000000037,220514.79,220521.90000000037,220531.354,220880.684,,44,The
screen,html.Screen,2_1_1_1_45,2022-02-03T13:06:50.279Z,,,,,,,,,,,,,,,,,54,,,,,,,,,,,,,,423.5160000001779,,response,,,,100,,,,,,,Space,keypress(Space),,,,,,,,-- --- ---- --- ------ ----- ------- ---- -- --- ------- --<br>------- ---------- ------ -- ----- -- ----- -- ---- ------<br>--- ----- --- --- ------ -------- ----- --- ------ ----- --<br>----- ----- ---------- --- --- ------ ------ ---- -- ------<br>------- --- French ----- --- ---- ------- -- ---- --- --<br>------- ------,221305.7000000002,221304.2000000002,220863.946,220866.5,220880.684,221313.044,,45,French
screen,html.Screen,2_1_1_1_46,2022-02-03T13:06:50.689Z,,,,,,,,,,,,,,,,,54,,,,,,,,,,,,,,401.3560000003781,,response,,,,100,,,,,,,Space,keypress(Space),,,,,,,,-- --- ---- --- ------ ----- ------- ---- -- --- ------- --<br>------- ---------- ------ -- ----- -- ----- -- ---- ------<br>--- ----- --- --- ------ -------- ----- --- ------ ----- --<br>----- ----- ---------- --- --- ------ ------ ---- -- ------<br>------- --- ------ state --- ---- ------- -- ---- --- --<br>------- ------,221715.60000000056,221714.40000000037,221296.414,221306,221313.044,221728.944,,46,state
screen,html.Screen,2_1_1_1_47,2022-02-03T13:06:51.148Z,,,,,,,,,,,,,,,,,54,,,,,,,,,,,,,,444.7560000001977,,response,,,,100,,,,,,,Space,keypress(Space),,,,,,,,-- --- ---- --- ------ ----- ------- ---- -- --- ------- --<br>------- ---------- ------ -- ----- -- ----- -- ---- ------<br>--- ----- --- --- ------ -------- ----- --- ------ ----- --<br>----- ----- ---------- --- --- ------ ------ ---- -- ------<br>------- --- ------ ----- was ---- ------- -- ---- --- --<br>------- ------,222174.80000000075,222173.7000000002,221712.336,221715.90000000037,221728.944,222178.066,,47,was
screen,html.Screen,2_1_1_1_48,2022-02-03T13:06:51.512Z,,,,,,,,,,,,,,,,,54,,,,,,,,,,,,,,359.5340000005672,,response,,,,100,,,,,,,Space,keypress(Space),,,,,,,,-- --- ---- --- ------ ----- ------- ---- -- --- ------- --<br>------- ---------- ------ -- ----- -- ----- -- ---- ------<br>--- ----- --- --- ------ -------- ----- --- ------ ----- --<br>----- ----- ---------- --- --- ------ ------ ---- -- ------<br>------- --- ------ ----- --- left ------- -- ---- --- --<br>------- ------,222539,222537.60000000056,222161.465,222175.2000000002,222178.066,222544.077,,48,left
screen,html.Screen,2_1_1_1_49,2022-02-03T13:06:51.899Z,,,,,,,,,,,,,,,,,54,,,,,,,,,,,,,,380.72300000075484,,response,,,,100,,,,,,,Space,keypress(Space),,,,,,,,-- --- ---- --- ------ ----- ------- ---- -- --- ------- --<br>------- ---------- ------ -- ----- -- ----- -- ---- ------<br>--- ----- --- --- ------ -------- ----- --- ------ ----- --<br>----- ----- ---------- --- --- ------ ------ ---- -- ------<br>------- --- ------ ----- --- ---- without -- ---- --- --<br>------- ------,222926.10000000056,222924.80000000075,222527.659,222539.40000000037,222544.077,222943.332,,49,without
screen,html.Screen,2_1_1_1_50,2022-02-03T13:06:52.273Z,,,,,,,,,,,,,,,,,54,,,,,,,,,,,,,,355.56800000037765,,response,,,,100,,,,,,,Space,keypress(Space),,,,,,,,-- --- ---- --- ------ ----- ------- ---- -- --- ------- --<br>------- ---------- ------ -- ----- -- ----- -- ---- ------<br>--- ----- --- --- ------ -------- ----- --- ------ ----- --<br>----- ----- ---------- --- --- ------ ------ ---- -- ------<br>------- --- ------ ----- --- ---- ------- an ---- --- --<br>------- ------,223300,223298.90000000037,222926.711,222926.5,222943.332,223309.318,,50,an
screen,html.Screen,2_1_1_1_51,2022-02-03T13:06:52.659Z,,,,,,,,,,,,,,,,,54,,,,,,,,,,,,,,375.2820000005595,,response,,,,100,,,,,,,Space,keypress(Space),,,,,,,,-- --- ---- --- ------ ----- ------- ---- -- --- ------- --<br>------- ---------- ------ -- ----- -- ----- -- ---- ------<br>--- ----- --- --- ------ -------- ----- --- ------ ----- --<br>----- ----- ---------- --- --- ------ ------ ---- -- ------<br>------- --- ------ ----- --- ---- ------- -- easy --- --<br>------- ------,223685.7000000002,223684.60000000056,223292.699,223300.30000000075,223309.318,223691.858,,51,easy
screen,html.Screen,2_1_1_1_52,2022-02-03T13:06:53.063Z,,,,,,,,,,,,,,,,,54,,,,,,,,,,,,,,396.8420000001788,,response,,,,100,,,,,,,Space,keypress(Space),,,,,,,,-- --- ---- --- ------ ----- ------- ---- -- --- ------- --<br>------- ---------- ------ -- ----- -- ----- -- ---- ------<br>--- ----- --- --- ------ -------- ----- --- ------ ----- --<br>----- ----- ---------- --- --- ------ ------ ---- -- ------<br>------- --- ------ ----- --- ---- ------- -- ---- way --<br>------- ------,224090,224088.7000000002,223675.31,223685.90000000037,223691.858,224124.495,,52,way
screen,html.Screen,2_1_1_1_53,2022-02-03T13:06:53.499Z,,,,,,,,,,,,,,,,,54,,,,,,,,,,,,,,399.9050000003772,,response,,,,100,,,,,,,Space,keypress(Space),,,,,,,,-- --- ---- --- ------ ----- ------- ---- -- --- ------- --<br>------- ---------- ------ -- ----- -- ----- -- ---- ------<br>--- ----- --- --- ------ -------- ----- --- ------ ----- --<br>----- ----- ---------- --- --- ------ ------ ---- -- ------<br>------- --- ------ ----- --- ---- ------- -- ---- --- of<br>------- ------,224525.60000000056,224524.40000000037,224107.846,224090.30000000075,224124.495,224540.475,,53,of
screen,html.Screen,2_1_1_1_54,2022-02-03T13:06:53.980Z,,,,,,,,,,,,,,,,,54,,,,,,,,,,,,,,465.0249999999942,,response,,,,100,,,,,,,Space,keypress(Space),,,,,,,,-- --- ---- --- ------ ----- ------- ---- -- --- ------- --<br>------- ---------- ------ -- ----- -- ----- -- ---- ------<br>--- ----- --- --- ------ -------- ----- --- ------ ----- --<br>----- ----- ---------- --- --- ------ ------ ---- -- ------<br>------- --- ------ ----- --- ---- ------- -- ---- --- --<br>raising ------,225007,225005.5,224523.826,224526.10000000056,224540.475,225022.814,,54,raising
screen,html.Screen,2_1_1_1_55,2022-02-03T13:06:54.746Z,,,,,,,,,,,,,,,,,54,,,,,,,,,,,,,,748.3860000001732,,response,,,,100,,,,,,,Space,keypress(Space),,,,,,,,-- --- ---- --- ------ ----- ------- ---- -- --- ------- --<br>------- ---------- ------ -- ----- -- ----- -- ---- ------<br>--- ----- --- --- ------ -------- ----- --- ------ ----- --<br>----- ----- ---------- --- --- ------ ------ ---- -- ------<br>------- --- ------ ----- --- ---- ------- -- ---- --- --<br>------- money.,225772.5,225771.2000000002,225006.136,225007.30000000075,225022.814,225787.964,,55,money.
Item 100,flow.Loop,2_1_1_1,2022-02-03T13:06:54.746Z,,,,,,,,,,,,,,,,,,,,,,,,,,,,,,,27647.925000000192,,completion,,,,,F,,,,,,,,,,,silence,,,,,225773.10000000056,225771.2000000002,198106.8,198108.30000000075,198123.275,225787.964,,,
Question 1,html.Screen,2_1_1_2,2022-02-03T13:06:57.869Z,,,,,,,,,,,,,,,,,,,,,,,,,,,,true,TRUE,,3105.736000000179,,response,,,,100,F,,,,,,TRUE,click #choice-1,,,,silence,,,,,228895.30000000075,228893.7000000002,225771.581,225773.30000000075,225787.964,228898.772,,,
Question 2,html.Screen,2_1_1_3,2022-02-03T13:07:00.752Z,,,,,,,,,,,,,,,,,,,,,,,,,,,,false,FALSE,,2877.1280000003753,,response,,,,100,F,,,,,,TRUE,click #choice-1,,,,silence,,,,,231779.30000000075,231775.90000000037,228882.289,228895.7000000002,228898.772,231793.426,,,
Item 100,flow.Sequence,2_1_1,2022-02-03T13:07:00.753Z,,,,,,,,,,,,,,,,,,,,,,,,,,,,,,,43650.504000000365,,completion,,,,,,,,,,,,,,,,,,,,,231779.7000000002,231775.90000000037,188108.731,188114.90000000037,188125.396,231793.426,,,
End of Practice,html.Page,2_1_2,2022-02-03T13:07:04.801Z,,,,,,,,,,,,,,,,,,,,,,,,,,,,,,,4033.8740000007383,,form submission,,,,,,,,,,,,,,,,,,,,,235827.80000000075,235827.30000000075,231776.704,231779.80000000075,231793.426,235835.741,,,
Practice,flow.Sequence,2_1,2022-02-03T13:07:04.802Z,,,,,,,,,,,,,,,,,,,,,,,,,,,,,,,94464.10200000074,,completion,,,,,,,,,,,,,,,,,,,,,235828.30000000075,235827.30000000075,141346.631,141362.10000000056,141363.198,235835.741,,,
Trap_instruction,html.Page,2_2_0,2022-02-03T13:07:08.973Z,,,,,,,,,,,,,,,,,,,,,,,,,,,,,,,4163.159000000363,,form submission,,,,,,,,,,,,,,,,,,,,,239999.40000000037,239998.90000000037,235819.347,235828.80000000075,235835.741,240044.533,,,
trap_trial,html.Screen,2_2_1,2022-02-03T13:07:12.665Z,,,,,,,,,,,,,,,,,,,,,,,,,,,,true,1,,3644.7670000007492,,response,,,,,,,,,,,1,click #choice-1,,,,,,,,,243691.30000000075,243689.30000000075,239994.841,239999.60000000056,240044.533,243704.36,,,
end of trap trial,html.Page,2_2_2,2022-02-03T13:07:15.215Z,,,,,,,,,,,,,,,,,,,,,,,,,,,,,,,2536.440000000759,,form submission,,,,,,,,,,,,,,,,,,,,,246241.7000000002,246240.80000000075,243687.731,243691.80000000075,243704.36,246249.597,,,
Trap 1,flow.Sequence,2_2,2022-02-03T13:07:15.216Z,,,,,,,,,,,,,,,,,,,,,,,,,,,,,,,10405.059000000736,,completion,,,,,,,,,,,,,,,,,,,,,246242.5,246240.80000000075,235819.347,235828.60000000056,235835.741,246249.597,,,
Standby,html.Page,2_3_0,2022-02-03T13:07:23.210Z,,,,,,,,,,,,,,,,,,,,,,,,,,,,,,,8001.608999999997,,timeout,,,,,,,,,,,,,,,,,,,,,254236.5,254234.795,246232.958,246243,246249.597,254251.206,,,
Holding screen,html.Screen,2_3_1_0_0,2022-02-03T13:07:30.209Z,,,,,,,,,,,,,,,,,,,,,,,,,,,,,,,7003.565999999992,,timeout,,,,,,,,,,,,,,,,,,,,,261239.10000000056,261238.031,254234.795,254237.10000000056,254251.206,261254.772,,,
screen,html.Screen,2_3_1_0_1_0,2022-02-03T13:07:30.911Z,,,,,,,,,,,,,,,,,2,,,,,,,,,,,,,,684.4280000001891,,response,,,,1,F,,,,,,Space,keypress(Space),,,,instrumental,,,,Two ---- ------ --- ------- ---------- ------- ----------<br>--- --------- --- ----------- ------- ----- ------- ---<br>--------- ---- -- --- ---- -- --------- -- ---- -------<br>-- --------- ------ --- ----- ------ ---- --- --------- --<br>------ - ---- -- --- ----------- ------- ---- ----- -----<br>--- -------- - ------ ---- -- ----- ---- --- --- -----------<br>-- -------,261941,261939.2000000002,261238.031,261239.60000000056,261254.772,261953.549,,0,Two
screen,html.Screen,2_3_1_0_1_1,2022-02-03T13:07:31.485Z,,,,,,,,,,,,,,,,,2,,,,,,,,,,,,,,560.6510000001872,,response,,,,1,F,,,,,,Space,keypress(Space),,,,instrumental,,,,--- days ------ --- ------- ---------- ------- ----------<br>--- --------- --- ----------- ------- ----- ------- ---<br>--------- ---- -- --- ---- -- --------- -- ---- -------<br>-- --------- ------ --- ----- ------ ---- --- --------- --<br>------ - ---- -- --- ----------- ------- ---- ----- -----<br>--- -------- - ------ ---- -- ----- ---- --- --- -----------<br>-- -------,262515.5,262514.2000000002,261936.829,261941.5,261953.549,262519.015,,1,days
screen,html.Screen,2_3_1_0_1_2,2022-02-03T13:07:32.090Z,,,,,,,,,,,,,,,,,2,,,,,,,,,,,,,,600.0850000005448,,response,,,,1,F,,,,,,Space,keypress(Space),,,,instrumental,,,,"--- ---- later, --- ------- ---------- ------- ----------<br>--- --------- --- ----------- ------- ----- ------- ---<br>--------- ---- -- --- ---- -- --------- -- ---- -------<br>-- --------- ------ --- ----- ------ ---- --- --------- --<br>------ - ---- -- --- ----------- ------- ---- ----- -----<br>--- -------- - ------ ---- -- ----- ---- --- --- -----------<br>-- -------",263120.60000000056,263119.10000000056,262502.42,262515.7000000002,262519.015,263134.693,,2,"later,"
screen,html.Screen,2_3_1_0_1_3,2022-02-03T13:07:32.443Z,,,,,,,,,,,,,,,,,2,,,,,,,,,,,,,,337.50700000015786,,response,,,,1,F,,,,,,Space,keypress(Space),,,,instrumental,,,,--- ---- ------ the ------- ---------- ------- ----------<br>--- --------- --- ----------- ------- ----- ------- ---<br>--------- ---- -- --- ---- -- --------- -- ---- -------<br>-- --------- ------ --- ----- ------ ---- --- --------- --<br>------ - ---- -- --- ----------- ------- ---- ----- -----<br>--- -------- - ------ ---- -- ----- ---- --- --- -----------<br>-- -------,263473.4000000004,263472.2000000002,263118.07,263120.9000000004,263134.693,263483.964,,3,the
screen,html.Screen,2_3_1_0_1_4,2022-02-03T13:07:32.823Z,,,,,,,,,,,,,,,,,2,,,,,,,,,,,,,,367.6360000005807,,response,,,,1,F,,,,,,Space,keypress(Space),,,,instrumental,,,,--- ---- ------ --- British ---------- ------- ----------<br>--- --------- --- ----------- ------- ----- ------- ---<br>--------- ---- -- --- ---- -- --------- -- ---- -------<br>-- --------- ------ --- ----- ------ ---- --- --------- --<br>------ - ---- -- --- ----------- ------- ---- ----- -----<br>--- -------- - ------ ---- -- ----- ---- --- --- -----------<br>-- -------,263853,263851.60000000056,263467.283,263473.80000000075,263483.964,263866.513,,4,British
screen,html.Screen,2_3_1_0_1_5,2022-02-03T13:07:33.411Z,,,,,,,,,,,,,,,,,2,,,,,,,,,,,,,,573.2870000007679,,response,,,,1,F,,,,,,Space,keypress(Space),,,,instrumental,,,,--- ---- ------ --- ------- astronomer ------- ----------<br>--- --------- --- ----------- ------- ----- ------- ---<br>--------- ---- -- --- ---- -- --------- -- ---- -------<br>-- --------- ------ --- ----- ------ ---- --- --------- --<br>------ - ---- -- --- ----------- ------- ---- ----- -----<br>--- -------- - ------ ---- -- ----- ---- --- --- -----------<br>-- -------,264441.2000000002,264439.80000000075,263850.04,263853.30000000075,263866.513,264448.678,,5,astronomer
screen,html.Screen,2_3_1_0_1_6,2022-02-03T13:07:33.798Z,,,,,,,,,,,,,,,,,2,,,,,,,,,,,,,,377.82199999998556,,response,,,,1,F,,,,,,Space,keypress(Space),,,,instrumental,,,,--- ---- ------ --- ------- ---------- Richard ----------<br>--- --------- --- ----------- ------- ----- ------- ---<br>--------- ---- -- --- ---- -- --------- -- ---- -------<br>-- --------- ------ --- ----- ------ ---- --- --------- --<br>------ - ---- -- --- ----------- ------- ---- ----- -----<br>--- -------- - ------ ---- -- ----- ---- --- --- -----------<br>-- -------,264828.10000000056,264826.5,264432.271,264441.5,264448.678,264831.321,,6,Richard
screen,html.Screen,2_3_1_0_1_7,2022-02-03T13:07:34.185Z,,,,,,,,,,,,,,,,,2,,,,,,,,,,,,,,382.37900000019,,response,,,,1,F,,,,,,Space,keypress(Space),,,,instrumental,,,,--- ---- ------ --- ------- ---------- ------- Carrington<br>--- --------- --- ----------- ------- ----- ------- ---<br>--------- ---- -- --- ---- -- --------- -- ---- -------<br>-- --------- ------ --- ----- ------ ---- --- --------- --<br>------ - ---- -- --- ----------- ------- ---- ----- -----<br>--- -------- - ------ ---- -- ----- ---- --- --- -----------<br>-- -------,265214.9000000004,265213.7000000002,264814.893,264828.5,264831.321,265230.582,,7,Carrington
screen,html.Screen,2_3_1_0_1_8,2022-02-03T13:07:34.720Z,,,,,,,,,,,,,,,,,2,,,,,,,,,,,,,,518.2180000007502,,response,,,,1,F,,,,,,Space,keypress(Space),,,,instrumental,,,,--- ---- ------ --- ------- ---------- ------- ----------<br>was --------- --- ----------- ------- ----- ------- ---<br>--------- ---- -- --- ---- -- --------- -- ---- -------<br>-- --------- ------ --- ----- ------ ---- --- --------- --<br>------ - ---- -- --- ----------- ------- ---- ----- -----<br>--- -------- - ------ ---- -- ----- ---- --- --- -----------<br>-- -------,265750,265748.80000000075,265214.06,265215.2000000002,265230.582,265762.887,,8,was
screen,html.Screen,2_3_1_0_1_9,2022-02-03T13:07:35.341Z,,,,,,,,,,,,,,,,,2,,,,,,,,,,,,,,607.3130000001984,,response,,,,1,F,,,,,,Space,keypress(Space),,,,instrumental,,,,--- ---- ------ --- ------- ---------- ------- ----------<br>--- observing --- ----------- ------- ----- ------- ---<br>--------- ---- -- --- ---- -- --------- -- ---- -------<br>-- --------- ------ --- ----- ------ ---- --- --------- --<br>------ - ---- -- --- ----------- ------- ---- ----- -----<br>--- -------- - ------ ---- -- ----- ---- --- --- -----------<br>-- -------,266371.4000000004,266370.2000000002,265746.285,265750.4000000004,265762.887,266378.359,,9,observing
screen,html.Screen,2_3_1_0_1_10,2022-02-03T13:07:35.907Z,,,,,,,,,,,,,,,,,2,,,,,,,,,,,,,,557.741000000562,,response,,,,1,F,,,,,,Space,keypress(Space),,,,instrumental,,,,--- ---- ------ --- ------- ---------- ------- ----------<br>--- --------- the ----------- ------- ----- ------- ---<br>--------- ---- -- --- ---- -- --------- -- ---- -------<br>-- --------- ------ --- ----- ------ ---- --- --------- --<br>------ - ---- -- --- ----------- ------- ---- ----- -----<br>--- -------- - ------ ---- -- ----- ---- --- --- -----------<br>-- -------,266937.5,266936.10000000056,266361.761,266371.7000000002,266378.359,266943.967,,10,the
screen,html.Screen,2_3_1_0_1_11,2022-02-03T13:07:36.559Z,,,,,,,,,,,,,,,,,2,,,,,,,,,,,,,,644.1330000005546,,response,,,,1,F,,,,,,Space,keypress(Space),,,,instrumental,,,,--- ---- ------ --- ------- ---------- ------- ----------<br>--- --------- --- interesting ------- ----- ------- ---<br>--------- ---- -- --- ---- -- --------- -- ---- -------<br>-- --------- ------ --- ----- ------ ---- --- --------- --<br>------ - ---- -- --- ----------- ------- ---- ----- -----<br>--- -------- - ------ ---- -- ----- ---- --- --- -----------<br>-- -------,267589.4000000004,267588.10000000056,266927.405,266937.80000000075,266943.967,267592.741,,11,interesting
screen,html.Screen,2_3_1_0_1_12,2022-02-03T13:07:37.725Z,,,,,,,,,,,,,,,,,2,,,,,,,,,,,,,,1161.75900000002,,response,,,,1,F,,,,,,Space,keypress(Space),,,,instrumental,,,,--- ---- ------ --- ------- ---------- ------- ----------<br>--- --------- --- ----------- sunspot ----- ------- ---<br>--------- ---- -- --- ---- -- --------- -- ---- -------<br>-- --------- ------ --- ----- ------ ---- --- --------- --<br>------ - ---- -- --- ----------- ------- ---- ----- -----<br>--- -------- - ------ ---- -- ----- ---- --- --- -----------<br>-- -------,268755.30000000075,268754.5,267576.184,267589.60000000056,267592.741,268757.19,,12,sunspot
screen,html.Screen,2_3_1_0_1_13,2022-02-03T13:07:38.396Z,,,,,,,,,,,,,,,,,2,,,,,,,,,,,,,,668.0100000001839,,response,,,,1,F,,,,,,Space,keypress(Space),,,,instrumental,,,,--- ---- ------ --- ------- ---------- ------- ----------<br>--- --------- --- ----------- ------- group ------- ---<br>--------- ---- -- --- ---- -- --------- -- ---- -------<br>-- --------- ------ --- ----- ------ ---- --- --------- --<br>------ - ---- -- --- ----------- ------- ---- ----- -----<br>--- -------- - ------ ---- -- ----- ---- --- --- -----------<br>-- -------,269426.4000000004,269425.2000000002,268740.694,268755.60000000056,268757.19,269439.413,,13,group
screen,html.Screen,2_3_1_0_1_14,2022-02-03T13:07:38.996Z,,,,,,,,,,,,,,,,,2,,,,,,,,,,,,,,585.2870000001858,,response,,,,1,F,,,,,,Space,keypress(Space),,,,instrumental,,,,--- ---- ------ --- ------- ---------- ------- ----------<br>--- --------- --- ----------- ------- ----- through ---<br>--------- ---- -- --- ---- -- --------- -- ---- -------<br>-- --------- ------ --- ----- ------ ---- --- --------- --<br>------ - ---- -- --- ----------- ------- ---- ----- -----<br>--- -------- - ------ ---- -- ----- ---- --- --- -----------<br>-- -------,270026.4000000004,270024.7000000002,269422.667,269427.30000000075,269439.413,270038.196,,14,through
screen,html.Screen,2_3_1_0_1_15,2022-02-03T13:07:39.786Z,,,,,,,,,,,,,,,,,2,,,,,,,,,,,,,,776.4040000005625,,response,,,,1,F,,,,,,Space,keypress(Space),,,,instrumental,,,,--- ---- ------ --- ------- ---------- ------- ----------<br>--- --------- --- ----------- ------- ----- ------- his<br>--------- ---- -- --- ---- -- --------- -- ---- -------<br>-- --------- ------ --- ----- ------ ---- --- --------- --<br>------ - ---- -- --- ----------- ------- ---- ----- -----<br>--- -------- - ------ ---- -- ----- ---- --- --- -----------<br>-- -------,270815.80000000075,270814.60000000056,270021.597,270026.80000000075,270038.196,270820.045,,15,his
screen,html.Screen,2_3_1_0_1_16,2022-02-03T13:07:40.296Z,,,,,,,,,,,,,,,,,2,,,,,,,,,,,,,,504.9550000000163,,response,,,,1,F,,,,,,Space,keypress(Space),,,,instrumental,,,,--- ---- ------ --- ------- ---------- ------- ----------<br>--- --------- --- ----------- ------- ----- ------- ---<br>telescope ---- -- --- ---- -- --------- -- ---- -------<br>-- --------- ------ --- ----- ------ ---- --- --------- --<br>------ - ---- -- --- ----------- ------- ---- ----- -----<br>--- -------- - ------ ---- -- ----- ---- --- --- -----------<br>-- -------,271325.80000000075,271325,270803.424,270816.10000000056,270820.045,271335.709,,16,telescope
screen,html.Screen,2_3_1_0_1_17,2022-02-03T13:07:40.681Z,,,,,,,,,,,,,,,,,2,,,,,,,,,,,,,,372.4910000002128,,response,,,,1,F,,,,,,Space,keypress(Space),,,,instrumental,,,,--- ---- ------ --- ------- ---------- ------- ----------<br>--- --------- --- ----------- ------- ----- ------- ---<br>--------- when -- --- ---- -- --------- -- ---- -------<br>-- --------- ------ --- ----- ------ ---- --- --------- --<br>------ - ---- -- --- ----------- ------- ---- ----- -----<br>--- -------- - ------ ---- -- ----- ---- --- --- -----------<br>-- -------,271710.60000000056,271708.2000000002,271319.136,271326.10000000056,271335.709,271718.363,,17,when
screen,html.Screen,2_3_1_0_1_18,2022-02-03T13:07:41.196Z,,,,,,,,,,,,,,,,,2,,,,,,,,,,,,,,506.6369999999879,,response,,,,1,F,,,,,,Space,keypress(Space),,,,instrumental,,,,--- ---- ------ --- ------- ---------- ------- ----------<br>--- --------- --- ----------- ------- ----- ------- ---<br>--------- ---- he --- ---- -- --------- -- ---- -------<br>-- --------- ------ --- ----- ------ ---- --- --------- --<br>------ - ---- -- --- ----------- ------- ---- ----- -----<br>--- -------- - ------ ---- -- ----- ---- --- --- -----------<br>-- -------,272226.4000000004,272225,271701.721,271711,271718.363,272234.078,,18,he
screen,html.Screen,2_3_1_0_1_19,2022-02-03T13:07:41.960Z,,,,,,,,,,,,,,,,,2,,,,,,,,,,,,,,754.1220000002068,,response,,,,1,F,,,,,,Space,keypress(Space),,,,instrumental,,,,--- ---- ------ --- ------- ---------- ------- ----------<br>--- --------- --- ----------- ------- ----- ------- ---<br>--------- ---- -- saw ---- -- --------- -- ---- -------<br>-- --------- ------ --- ----- ------ ---- --- --------- --<br>------ - ---- -- --- ----------- ------- ---- ----- -----<br>--- -------- - ------ ---- -- ----- ---- --- --- -----------<br>-- -------,272989.7000000002,272988.2000000002,272217.632,272226.7000000002,272234.078,272999.304,,19,saw
screen,html.Screen,2_3_1_0_1_20,2022-02-03T13:07:42.397Z,,,,,,,,,,,,,,,,,2,,,,,,,,,,,,,,426.29600000055507,,response,,,,1,F,,,,,,Space,keypress(Space),,,,instrumental,,,,--- ---- ------ --- ------- ---------- ------- ----------<br>--- --------- --- ----------- ------- ----- ------- ---<br>--------- ---- -- --- what -- --------- -- ---- -------<br>-- --------- ------ --- ----- ------ ---- --- --------- --<br>------ - ---- -- --- ----------- ------- ---- ----- -----<br>--- -------- - ------ ---- -- ----- ---- --- --- -----------<br>-- -------,273427.4000000004,273425.60000000056,272982.775,272990,272999.304,273431.816,,20,what
screen,html.Screen,2_3_1_0_1_21,2022-02-03T13:07:42.919Z,,,,,,,,,,,,,,,,,2,,,,,,,,,,,,,,515.1840000000084,,response,,,,1,F,,,,,,Space,keypress(Space),,,,instrumental,,,,--- ---- ------ --- ------- ---------- ------- ----------<br>--- --------- --- ----------- ------- ----- ------- ---<br>--------- ---- -- --- ---- he --------- -- ---- -------<br>-- --------- ------ --- ----- ------ ---- --- --------- --<br>------ - ---- -- --- ----------- ------- ---- ----- -----<br>--- -------- - ------ ---- -- ----- ---- --- --- -----------<br>-- -------,273949,273947,273415.529,273427.80000000075,273431.816,273964.196,,21,he
screen,html.Screen,2_3_1_0_1_22,2022-02-03T13:07:43.488Z,,,,,,,,,,,,,,,,,2,,,,,,,,,,,,,,551.9040000005625,,response,,,,1,F,,,,,,Space,keypress(Space),,,,instrumental,,,,--- ---- ------ --- ------- ---------- ------- ----------<br>--- --------- --- ----------- ------- ----- ------- ---<br>--------- ---- -- --- ---- -- described -- ---- -------<br>-- --------- ------ --- ----- ------ ---- --- --------- --<br>------ - ---- -- --- ----------- ------- ---- ----- -----<br>--- -------- - ------ ---- -- ----- ---- --- --- -----------<br>-- -------,274518.2000000002,274516.10000000056,273947.748,273949.5,273964.196,274529.909,,22,described
screen,html.Screen,2_3_1_0_1_23,2022-02-03T13:07:43.850Z,,,,,,,,,,,,,,,,,2,,,,,,,,,,,,,,348.99100000038743,,response,,,,1,F,,,,,,Space,keypress(Space),,,,instrumental,,,,--- ---- ------ --- ------- ---------- ------- ----------<br>--- --------- --- ----------- ------- ----- ------- ---<br>--------- ---- -- --- ---- -- --------- as ---- -------<br>-- --------- ------ --- ----- ------ ---- --- --------- --<br>------ - ---- -- --- ----------- ------- ---- ----- -----<br>--- -------- - ------ ---- -- ----- ---- --- --- -----------<br>-- -------,274879.9000000004,274878.9000000004,274513.169,274518.60000000056,274529.909,274895.94,,23,as
screen,html.Screen,2_3_1_0_1_24,2022-02-03T13:07:44.151Z,,,,,,,,,,,,,,,,,2,,,,,,,,,,,,,,283.86000000074273,,response,,,,1,F,,,,,,Space,keypress(Space),,,,instrumental,,,,"--- ---- ------ --- ------- ---------- ------- ----------<br>--- --------- --- ----------- ------- ----- ------- ---<br>--------- ---- -- --- ---- -- --------- -- ""two -------<br>-- --------- ------ --- ----- ------ ---- --- --------- --<br>------ - ---- -- --- ----------- ------- ---- ----- -----<br>--- -------- - ------ ---- -- ----- ---- --- --- -----------<br>-- -------",275181.10000000056,275179.80000000075,274879.19,274880.2000000002,274895.94,275195.342,,24,"""two"
screen,html.Screen,2_3_1_0_1_25,2022-02-03T13:07:44.513Z,,,,,,,,,,,,,,,,,2,,,,,,,,,,,,,,346.2580000005546,,response,,,,1,F,,,,,,Space,keypress(Space),,,,instrumental,,,,--- ---- ------ --- ------- ---------- ------- ----------<br>--- --------- --- ----------- ------- ----- ------- ---<br>--------- ---- -- --- ---- -- --------- -- ---- patches<br>-- --------- ------ --- ----- ------ ---- --- --------- --<br>------ - ---- -- --- ----------- ------- ---- ----- -----<br>--- -------- - ------ ---- -- ----- ---- --- --- -----------<br>-- -------,275543,275541.60000000056,275178.604,275181.30000000075,275195.342,275571.585,,25,patches
screen,html.Screen,2_3_1_0_1_26,2022-02-03T13:07:44.900Z,,,,,,,,,,,,,,,,,2,,,,,,,,,,,,,,357.51500000053784,,response,,,,1,F,,,,,,Space,keypress(Space),,,,instrumental,,,,--- ---- ------ --- ------- ---------- ------- ----------<br>--- --------- --- ----------- ------- ----- ------- ---<br>--------- ---- -- --- ---- -- --------- -- ---- -------<br>of --------- ------ --- ----- ------ ---- --- --------- --<br>------ - ---- -- --- ----------- ------- ---- ----- -----<br>--- -------- - ------ ---- -- ----- ---- --- --- -----------<br>-- -------,275930.30000000075,275929.10000000056,275528.109,275543.30000000075,275571.585,275943.932,,26,of
screen,html.Screen,2_3_1_0_1_27,2022-02-03T13:07:45.418Z,,,,,,,,,,,,,,,,,2,,,,,,,,,,,,,,502.0680000000284,,response,,,,1,F,,,,,,Space,keypress(Space),,,,instrumental,,,,--- ---- ------ --- ------- ---------- ------- ----------<br>--- --------- --- ----------- ------- ----- ------- ---<br>--------- ---- -- --- ---- -- --------- -- ---- -------<br>-- intensely ------ --- ----- ------ ---- --- --------- --<br>------ - ---- -- --- ----------- ------- ---- ----- -----<br>--- -------- - ------ ---- -- ----- ---- --- --- -----------<br>-- -------,276448.10000000056,276446,275927.316,275930.7000000002,275943.932,276459.474,,27,intensely
screen,html.Screen,2_3_1_0_1_28,2022-02-03T13:07:45.747Z,,,,,,,,,,,,,,,,,2,,,,,,,,,,,,,,316.32600000075763,,response,,,,1,F,,,,,,Space,keypress(Space),,,,instrumental,,,,--- ---- ------ --- ------- ---------- ------- ----------<br>--- --------- --- ----------- ------- ----- ------- ---<br>--------- ---- -- --- ---- -- --------- -- ---- -------<br>-- --------- bright --- ----- ------ ---- --- --------- --<br>------ - ---- -- --- ----------- ------- ---- ----- -----<br>--- -------- - ------ ---- -- ----- ---- --- --- -----------<br>-- -------,276777.10000000056,276775.80000000075,276443.046,276448.4000000004,276459.474,276792.246,,28,bright
screen,html.Screen,2_3_1_0_1_29,2022-02-03T13:07:46.101Z,,,,,,,,,,,,,,,,,2,,,,,,,,,,,,,,337.6540000003879,,response,,,,1,F,,,,,,Space,keypress(Space),,,,instrumental,,,,--- ---- ------ --- ------- ---------- ------- ----------<br>--- --------- --- ----------- ------- ----- ------- ---<br>--------- ---- -- --- ---- -- --------- -- ---- -------<br>-- --------- ------ and ----- ------ ---- --- --------- --<br>------ - ---- -- --- ----------- ------- ---- ----- -----<br>--- -------- - ------ ---- -- ----- ---- --- --- -----------<br>-- -------,277131.4000000004,277129.9000000004,276775.672,276777.5,276792.246,277141.615,,29,and
screen,html.Screen,2_3_1_0_1_30,2022-02-03T13:07:46.446Z,,,,,,,,,,,,,,,,,2,,,,,,,,,,,,,,331.9850000005681,,response,,,,1,F,,,,,,Space,keypress(Space),,,,instrumental,,,,--- ---- ------ --- ------- ---------- ------- ----------<br>--- --------- --- ----------- ------- ----- ------- ---<br>--------- ---- -- --- ---- -- --------- -- ---- -------<br>-- --------- ------ --- white ------ ---- --- --------- --<br>------ - ---- -- --- ----------- ------- ---- ----- -----<br>--- -------- - ------ ---- -- ----- ---- --- --- -----------<br>-- -------,277475.60000000056,277473.60000000056,277124.963,277131.7000000002,277141.615,277490.876,,30,white
screen,html.Screen,2_3_1_0_1_31,2022-02-03T13:07:46.806Z,,,,,,,,,,,,,,,,,2,,,,,,,,,,,,,,343.92400000075577,,response,,,,1,F,,,,,,Space,keypress(Space),,,,instrumental,,,,"--- ---- ------ --- ------- ---------- ------- ----------<br>--- --------- --- ----------- ------- ----- ------- ---<br>--------- ---- -- --- ---- -- --------- -- ---- -------<br>-- --------- ------ --- ----- light"" ---- --- --------- --<br>------ - ---- -- --- ----------- ------- ---- ----- -----<br>--- -------- - ------ ---- -- ----- ---- --- --- -----------<br>-- -------",277836.2000000002,277834.80000000075,277474.265,277476,277490.876,277840.235,,31,"light"""
screen,html.Screen,2_3_1_0_1_32,2022-02-03T13:07:47.164Z,,,,,,,,,,,,,,,,,2,,,,,,,,,,,,,,352.46500000020023,,response,,,,1,F,,,,,,Space,keypress(Space),,,,instrumental,,,,--- ---- ------ --- ------- ---------- ------- ----------<br>--- --------- --- ----------- ------- ----- ------- ---<br>--------- ---- -- --- ---- -- --------- -- ---- -------<br>-- --------- ------ --- ----- ------ over --- --------- --<br>------ - ---- -- --- ----------- ------- ---- ----- -----<br>--- -------- - ------ ---- -- ----- ---- --- --- -----------<br>-- -------,278194.10000000056,278192.7000000002,277823.622,277836.4000000004,277840.235,278206.361,,32,over
screen,html.Screen,2_3_1_0_1_33,2022-02-03T13:07:47.631Z,,,,,,,,,,,,,,,,,2,,,,,,,,,,,,,,453.6390000000247,,response,,,,1,F,,,,,,Space,keypress(Space),,,,instrumental,,,,--- ---- ------ --- ------- ---------- ------- ----------<br>--- --------- --- ----------- ------- ----- ------- ---<br>--------- ---- -- --- ---- -- --------- -- ---- -------<br>-- --------- ------ --- ----- ------ ---- the --------- --<br>------ - ---- -- --- ----------- ------- ---- ----- -----<br>--- -------- - ------ ---- -- ----- ---- --- --- -----------<br>-- -------,278661.30000000075,278660,278189.618,278194.4000000004,278206.361,278672.238,,33,the
screen,html.Screen,2_3_1_0_1_34,2022-02-03T13:07:47.990Z,,,,,,,,,,,,,,,,,2,,,,,,,,,,,,,,346.7619999999879,,response,,,,1,F,,,,,,Space,keypress(Space),,,,instrumental,,,,--- ---- ------ --- ------- ---------- ------- ----------<br>--- --------- --- ----------- ------- ----- ------- ---<br>--------- ---- -- --- ---- -- --------- -- ---- -------<br>-- --------- ------ --- ----- ------ ---- --- sunspots. --<br>------ - ---- -- --- ----------- ------- ---- ----- -----<br>--- -------- - ------ ---- -- ----- ---- --- --- -----------<br>-- -------,279020.5,279019,278655.488,278661.7000000002,278672.238,279037.933,,34,sunspots.
screen,html.Screen,2_3_1_0_1_35,2022-02-03T13:07:48.555Z,,,,,,,,,,,,,,,,,2,,,,,,,,,,,,,,546.2670000001672,,response,,,,1,F,,,,,,Space,keypress(Space),,,,instrumental,,,,--- ---- ------ --- ------- ---------- ------- ----------<br>--- --------- --- ----------- ------- ----- ------- ---<br>--------- ---- -- --- ---- -- --------- -- ---- -------<br>-- --------- ------ --- ----- ------ ---- --- --------- He<br>------ - ---- -- --- ----------- ------- ---- ----- -----<br>--- -------- - ------ ---- -- ----- ---- --- --- -----------<br>-- -------,279585.4000000004,279584.2000000002,279004.85,279020.7000000002,279037.933,279608.129,,35,He
screen,html.Screen,2_3_1_0_1_36,2022-02-03T13:07:48.963Z,,,,,,,,,,,,,,,,,2,,,,,,,,,,,,,,383.4710000005434,,response,,,,1,F,,,,,,Space,keypress(Space),,,,instrumental,,,,--- ---- ------ --- ------- ---------- ------- ----------<br>--- --------- --- ----------- ------- ----- ------- ---<br>--------- ---- -- --- ---- -- --------- -- ---- -------<br>-- --------- ------ --- ----- ------ ---- --- --------- --<br>jotted - ---- -- --- ----------- ------- ---- ----- -----<br>--- -------- - ------ ---- -- ----- ---- --- --- -----------<br>-- -------,279992.9000000004,279991.60000000056,279570.554,279585.7000000002,279608.129,280002.951,,36,jotted
screen,html.Screen,2_3_1_0_1_37,2022-02-03T13:07:49.315Z,,,,,,,,,,,,,,,,,2,,,,,,,,,,,,,,341.24900000018533,,response,,,,1,F,,,,,,Space,keypress(Space),,,,instrumental,,,,--- ---- ------ --- ------- ---------- ------- ----------<br>--- --------- --- ----------- ------- ----- ------- ---<br>--------- ---- -- --- ---- -- --------- -- ---- -------<br>-- --------- ------ --- ----- ------ ---- --- --------- --<br>------ a ---- -- --- ----------- ------- ---- ----- -----<br>--- -------- - ------ ---- -- ----- ---- --- --- -----------<br>-- -------,280345.2000000002,280344.2000000002,279986.268,279993.2000000002,280002.951,280352.231,,37,a
