sender,sender_type,sender_id,timestamp,meta,,Blues,Classical,Country,Dance,Electronic,Folk,Gospel,Hip-Hop,Jazz,Latin,Musical/Film,New-age,Pop,Prolific_id,Provo_ID,R&B,Rap,Reggae,Religious,Rock,Soul,Swing,Traditional,age,artist_name,correct,correctResponse,distraction,duration,education,ended_on,familiarity,gender,headphone_check_performance,item,list,music_frequency,offensiveness,pleasantness,position_correct,preference,response,response_action,snippet_file,song_name,song_rating,sound,stimulus_1,stimulus_2,stimulus_3,text,time_commit,time_end,time_render,time_run,time_show,time_switch,url,word,word_ID
Prolific ID,html.Form,0,2022-02-03T14:28:47.734Z,"{""labjs_version"":""20.2.2"",""labjs_build"":{""flavor"":""production"",""commit"":""a25486e0c714a0ae2ce03ff94b7bb6896854dcfa""},""location"":""https://run.pavlovia.org/mvasilev/prolific2_music_a/"",""userAgent"":""Mozilla/5.0 (Windows NT 10.0; Win64; x64) AppleWebKit/537.36 (KHTML, like Gecko) Chrome/97.0.4692.99 Safari/537.36"",""platform"":""Win32"",""language"":""en-GB"",""locale"":""en-GB"",""timeZone"":""Europe/London"",""timezoneOffset"":0,""screen_width"":1536,""screen_height"":864,""scroll_width"":1536,""scroll_height"":674,""window_innerWidth"":1536,""window_innerHeight"":722,""devicePixelRatio"":1.25}",,,,,,,,,,,,,,,5cf10c50968101001aee96c9,,,,,,,,,,,,,,,3653.5759999821184,,form submission,,,,,,,,,,,,,,,,,,,,,16581,16580.79999998212,12906.951,12914.09999999404,12927.224,16595.315,{},,
Introduction,html.Screen,1_0,2022-02-03T14:28:50.524Z,,,,,,,,,,,,,,,,,,,,,,,,,,,,,,,2773.784999994041,,response,,,,,,,,,,,continue,click button,,,,,,,,,19371,19369.09999999404,16578.684,16581.19999998808,16595.315,19379.671,,,
Volume calibration,html.Screen,1_1,2022-02-03T14:29:18.502Z,,,,,,,,,,,,,,,,,,,,,,,,,,,,,,,27966.92899999404,,response,,,,,,,,,,,continue,click button,,,,,,,,,47348.69999998808,47346.59999999404,19363.001,19371.09999999404,19379.671,47356.997,,,
Task instructions,html.Screen,1_2,2022-02-03T14:29:34.792Z,,,,,,,,,,,,,,,,,,,,,,,,,,,,,,,16281.302999982116,,response,,,,,,,,,,,continue,click button,,,,,,,,,63639.19999998808,63638.29999998212,47340.374,47348.79999998212,47356.997,63646.595,,,
Sounds,html.Screen,1_3_0_0,2022-02-03T14:29:39.036Z,,,,,,,,,,,,,,,,,,,,,,,,,,,,,,,4251.619999999995,,timeout,,,,,,,,,1,,,,,,,,S,I,O,,67882.89999997616,67881.6,63630.047,63639.19999998808,63646.595,67898.215,,,
Judgement,html.Screen,1_3_0_1,2022-02-03T14:29:39.654Z,,,,,,,,,,,,,,,,,,,,,,,,,,,,true,1,,601.6849999761616,,response,,,,,,,,,1,,1,click #choice-1,,,,,S,I,O,,68501.09999999404,68499.89999997616,67881.6,67882.89999997616,67898.215,68515.139,,,
Trial,flow.Sequence,1_3_0,2022-02-03T14:29:39.654Z,,,,,,,,,,,,,,,,,,,,,,,,,,,,,,,4853.304999976157,,completion,,,,,,,,,1,,,,,,,,S,I,O,,68501.19999998808,68499.89999997616,63630.047,63639.19999998808,63646.595,68515.139,,,
Sounds,html.Screen,1_3_1_0,2022-02-03T14:29:43.904Z,,,,,,,,,,,,,,,,,,,,,,,,,,,,,,,4251.688000000009,,timeout,,,,,,,,,2,,,,,,,,O,S,I,,72750.69999998808,72750.253,68498.501,68501.5,68515.139,72766.827,,,
Judgement,html.Screen,1_3_1_1,2022-02-03T14:29:44.407Z,,,,,,,,,,,,,,,,,,,,,,,,,,,,true,2,,485.97299998211383,,response,,,,,,,,,2,,2,click #choice-2,,,,,O,S,I,,73253.59999999404,73252.79999998212,72750.253,72750.69999998808,72766.827,73266.954,,,
Trial,flow.Sequence,1_3_1,2022-02-03T14:29:44.407Z,,,,,,,,,,,,,,,,,,,,,,,,,,,,,,,4737.660999982123,,completion,,,,,,,,,2,,,,,,,,O,S,I,,73253.69999998808,73252.79999998212,68498.501,68501.29999998212,68515.139,73266.954,,,
Sounds,html.Screen,1_3_2_0,2022-02-03T14:29:48.657Z,,,,,,,,,,,,,,,,,,,,,,,,,,,,,,,4251.593000000008,,timeout,,,,,,,,,3,,,,,,,,O,I,S,,77503.69999998808,77501.973,73250.349,73253.79999998212,73266.954,77518.547,,,
Judgement,html.Screen,1_3_2_1,2022-02-03T14:29:49.620Z,,,,,,,,,,,,,,,,,,,,,,,,,,,,true,3,,946.8529999761522,,response,,,,,,,,,3,,3,click #choice-3,,,,,O,I,S,,78466.39999997616,78465.39999997616,77501.973,77503.79999998212,77518.547,78468.941,,,
Trial,flow.Sequence,1_3_2,2022-02-03T14:29:49.620Z,,,,,,,,,,,,,,,,,,,,,,,,,,,,,,,5198.44599997616,,completion,,,,,,,,,3,,,,,,,,O,I,S,,78466.5,78465.39999997616,73250.349,73253.79999998212,73266.954,78468.941,,,
Sounds,html.Screen,1_3_3_0,2022-02-03T14:29:53.858Z,,,,,,,,,,,,,,,,,,,,,,,,,,,,,,,4251.597999999998,,timeout,,,,,,,,,2,,,,,,,,I,S,O,,82705,82704.15,78452.353,78466.5,78468.941,82720.539,,,
Judgement,html.Screen,1_3_3_1,2022-02-03T14:29:54.284Z,,,,,,,,,,,,,,,,,,,,,,,,,,,,true,2,,408.86099997615383,,response,,,,,,,,,2,,2,click #choice-2,,,,,I,S,O,,83130.39999997616,83129.39999997616,82704.15,82705.19999998808,82720.539,83137.423,,,
Trial,flow.Sequence,1_3_3,2022-02-03T14:29:54.284Z,,,,,,,,,,,,,,,,,,,,,,,,,,,,,,,4660.458999976152,,completion,,,,,,,,,2,,,,,,,,I,S,O,,83130.59999999404,83129.39999997616,78452.353,78466.5,78468.941,83137.423,,,
Sounds,html.Screen,1_3_4_0,2022-02-03T14:29:58.526Z,,,,,,,,,,,,,,,,,,,,,,,,,,,,,,,4252.322,,timeout,,,,,,,,,1,,,,,,,,S,O,I,,87372.89999997616,87372.366,83120.805,83130.59999999404,83137.423,87389.745,,,
Judgement,html.Screen,1_3_4_1,2022-02-03T14:29:59.129Z,,,,,,,,,,,,,,,,,,,,,,,,,,,,true,1,,585.3549999940442,,response,,,,,,,,,1,,1,click #choice-1,,,,,S,O,I,,87975.59999999404,87975.09999999404,87372.366,87373,87389.745,88006.239,,,
Trial,flow.Sequence,1_3_4,2022-02-03T14:29:59.129Z,,,,,,,,,,,,,,,,,,,,,,,,,,,,,,,4837.676999994044,,completion,,,,,,,,,1,,,,,,,,S,O,I,,87975.69999998808,87975.09999999404,83120.805,83130.59999999404,83137.423,88006.239,,,
Sounds,html.Screen,1_3_5_0,2022-02-03T14:30:03.396Z,,,,,,,,,,,,,,,,,,,,,,,,,,,,,,,4251.323999999993,,timeout,,,,,,,,,3,,,,,,,,I,O,S,,92242.39999997616,92241.144,87989.306,87975.89999997616,88006.239,92257.563,,,
Judgement,html.Screen,1_3_5_1,2022-02-03T14:30:03.867Z,,,,,,,,,,,,,,,,,,,,,,,,,,,,true,3,,455.23699998212396,,response,,,,,,,,,3,,3,click #choice-3,,,,,I,O,S,,92713.5,92712.79999998212,92241.144,92242.5,92257.563,92724.387,,,
Trial,flow.Sequence,1_3_5,2022-02-03T14:30:03.867Z,,,,,,,,,,,,,,,,,,,,,,,,,,,,,,,4706.560999982117,,completion,,,,,,,,,3,,,,,,,,I,O,S,,92713.59999999404,92712.79999998212,87989.306,87975.89999997616,88006.239,92724.387,,,
Task,flow.Loop,1_3,2022-02-03T14:30:03.869Z,,,,,,,,,,,,,,,,,,,,,,,,,,,,,,,29066.204999982117,,completion,,,1,,,,,,,,,,,,,,,,,,92716.29999998212,92712.79999998212,63630.047,63639.19999998808,63646.595,92724.387,,,
Trap,html.Screen,1_4,2022-02-03T14:30:03.870Z,,,,,,,,,,,,,,,,,,,,,,,,,,,,,,,NaN,,skipped,,,,,,,,,,,,,,,,,,,,,92716.89999997616,92712.79999998212,,92716.89999997616,,92724.387,,,
Thanks,html.Screen,1_5,2022-02-03T14:30:07.081Z,,,,,,,,,,,,,,,,,,,,,,,,,,,,,,,3202.6129999999976,,response,,,,,,,,,,,continue,click button,,,,,,,,,95928.09999999404,95927,92707.767,92717,92724.387,97526.886,,,
Headphone screening,flow.Sequence,1,2022-02-03T14:30:07.081Z,,,,,,,,,,,,,,,,,,,,,,,,,,,,,,,79331.685,,completion,,,,,,,,,,,,,,,,,,,,,95928.29999998212,95927,16578.684,16581.09999999404,16595.315,97526.886,,,
Instructions,html.Page,2_0,2022-02-03T14:30:23.294Z,,,,,,,,,,,,,,,,,,,,,,,,,,,,,,,14613.41399998212,,form submission,,,,,,,,,,,,,,,,,,,,,112140.69999998808,112140.29999998212,97509.562,97520.19999998808,97526.886,112148.581,,,
Holding screen,html.Screen,2_1_0_0,2022-02-03T14:30:33.290Z,,,,,,,,,,,,,,,,,,,,,,,,,,,,,,,10003.739000000001,,timeout,,,,,,,,,,,,,,,,,,,,,122136.59999999404,122135.742,112131.884,112140.69999998808,112148.581,122152.32,,,
screen,html.Screen,2_1_0_1_0,2022-02-03T14:30:34.122Z,,,,,,,,,,,,,,,,,53,,,,,,,,,,,,,,814.679999999993,,response,,,,99,,,,,,,Space,keypress(Space),,,,,,,,When -- ----- -- ------ - ------- --- ----------<br>------------- ------ ------ ---- ---- ------- ----- -- ----<br>-------- ------- -- ---------- --- - --- ----- ----- ----<br>---- --- --- ----- --- ---- ---- ------- ----- ---- -------<br>--- --- -- ----- -- --- ---- -- --- ---- -- ------ ------<br>--- ----- -- ----,122968.39999997616,122967,122135.742,122136.79999998212,122152.32,123003.016,,0,When
screen,html.Screen,2_1_0_1_1,2022-02-03T14:30:34.688Z,,,,,,,,,,,,,,,,,53,,,,,,,,,,,,,,531.0839999940363,,response,,,,99,,,,,,,Space,keypress(Space),,,,,,,,---- it ----- -- ------ - ------- --- ----------<br>------------- ------ ------ ---- ---- ------- ----- -- ----<br>-------- ------- -- ---------- --- - --- ----- ----- ----<br>---- --- --- ----- --- ---- ---- ------- ----- ---- -------<br>--- --- -- ----- -- --- ---- -- --- ---- -- ------ ------<br>--- ----- -- ----,123534.59999999404,123534.09999999404,122993.932,122968.5,123003.016,123536.19,,1,it
screen,html.Screen,2_1_0_1_2,2022-02-03T14:30:35.254Z,,,,,,,,,,,,,,,,,53,,,,,,,,,,,,,,564.5099999880767,,response,,,,99,,,,,,,Space,keypress(Space),,,,,,,,---- -- comes -- ------ - ------- --- ----------<br>------------- ------ ------ ---- ---- ------- ----- -- ----<br>-------- ------- -- ---------- --- - --- ----- ----- ----<br>---- --- --- ----- --- ---- ---- ------- ----- ---- -------<br>--- --- -- ----- -- --- ---- -- --- ---- -- ------ ------<br>--- ----- -- ----,124101.19999998808,124100.69999998808,123519.687,123534.69999998808,123536.19,124134.714,,2,comes
screen,html.Screen,2_1_0_1_3,2022-02-03T14:30:35.633Z,,,,,,,,,,,,,,,,,53,,,,,,,,,,,,,,344.5859999821114,,response,,,,99,,,,,,,Space,keypress(Space),,,,,,,,---- -- ----- to ------ - ------- --- ----------<br>------------- ------ ------ ---- ---- ------- ----- -- ----<br>-------- ------- -- ---------- --- - --- ----- ----- ----<br>---- --- --- ----- --- ---- ---- ------- ----- ---- -------<br>--- --- -- ----- -- --- ---- -- --- ---- -- ------ ------<br>--- ----- -- ----,124480,124479.29999998212,124086.431,124101.79999998212,124134.714,124486.555,,3,to
screen,html.Screen,2_1_0_1_4,2022-02-03T14:30:36.039Z,,,,,,,,,,,,,,,,,53,,,,,,,,,,,,,,398.7449999821256,,response,,,,99,,,,,,,Space,keypress(Space),,,,,,,,---- -- ----- -- having - ------- --- ----------<br>------------- ------ ------ ---- ---- ------- ----- -- ----<br>-------- ------- -- ---------- --- - --- ----- ----- ----<br>---- --- --- ----- --- ---- ---- ------- ----- ---- -------<br>--- --- -- ----- -- --- ---- -- --- ---- -- ------ ------<br>--- ----- -- ----,124885.79999998212,124885.29999998212,124469.859,124480,124486.555,124916.974,,4,having
screen,html.Screen,2_1_0_1_5,2022-02-03T14:30:36.484Z,,,,,,,,,,,,,,,,,53,,,,,,,,,,,,,,413.7259999880771,,response,,,,99,,,,,,,Space,keypress(Space),,,,,,,,---- -- ----- -- ------ a ------- --- ----------<br>------------- ------ ------ ---- ---- ------- ----- -- ----<br>-------- ------- -- ---------- --- - --- ----- ----- ----<br>---- --- --- ----- --- ---- ---- ------- ----- ---- -------<br>--- --- -- ----- -- --- ---- -- --- ---- -- ------ ------<br>--- ----- -- ----,125331.19999998808,125330.69999998808,124870.25,124885.79999998212,124916.974,125336.876,,5,a
screen,html.Screen,2_1_0_1_6,2022-02-03T14:30:36.861Z,,,,,,,,,,,,,,,,,53,,,,,,,,,,,,,,370.0239999761543,,response,,,,99,,,,,,,Space,keypress(Space),,,,,,,,---- -- ----- -- ------ - lasting --- ----------<br>------------- ------ ------ ---- ---- ------- ----- -- ----<br>-------- ------- -- ---------- --- - --- ----- ----- ----<br>---- --- --- ----- --- ---- ---- ------- ----- ---- -------<br>--- --- -- ----- -- --- ---- -- --- ---- -- ------ ------<br>--- ----- -- ----,125707.29999998212,125706.89999997616,125320.455,125331.29999998212,125336.876,125720.455,,6,lasting
screen,html.Screen,2_1_0_1_7,2022-02-03T14:30:37.215Z,,,,,,,,,,,,,,,,,53,,,,,,,,,,,,,,341.1449999940378,,response,,,,99,,,,,,,Space,keypress(Space),,,,,,,,---- -- ----- -- ------ - ------- and ----------<br>------------- ------ ------ ---- ---- ------- ----- -- ----<br>-------- ------- -- ---------- --- - --- ----- ----- ----<br>---- --- --- ----- --- ---- ---- ------- ----- ---- -------<br>--- --- -- ----- -- --- ---- -- --- ---- -- ------ ------<br>--- ----- -- ----,126062.19999998808,126061.59999999404,125703.61,125707.39999997616,125720.455,126071.038,,7,and
screen,html.Screen,2_1_0_1_8,2022-02-03T14:30:37.591Z,,,,,,,,,,,,,,,,,53,,,,,,,,,,,,,,366.46199999999953,,response,,,,99,,,,,,,Space,keypress(Space),,,,,,,,---- -- ----- -- ------ - ------- --- fulfilling<br>------------- ------ ------ ---- ---- ------- ----- -- ----<br>-------- ------- -- ---------- --- - --- ----- ----- ----<br>---- --- --- ----- --- ---- ---- ------- ----- ---- -------<br>--- --- -- ----- -- --- ---- -- --- ---- -- ------ ------<br>--- ----- -- ----,126438.09999999404,126437.5,126053.722,126062.29999998212,126071.038,126454.184,,8,fulfilling
screen,html.Screen,2_1_0_1_9,2022-02-03T14:30:37.948Z,,,,,,,,,,,,,,,,,53,,,,,,,,,,,,,,340.2159999761643,,response,,,,99,,,,,,,Space,keypress(Space),,,,,,,,"---- -- ----- -- ------ - ------- --- ----------<br>relationship, ------ ------ ---- ---- ------- ----- -- ----<br>-------- ------- -- ---------- --- - --- ----- ----- ----<br>---- --- --- ----- --- ---- ---- ------- ----- ---- -------<br>--- --- -- ----- -- --- ---- -- --- ---- -- ------ ------<br>--- ----- -- ----",126795.09999999404,126794.39999997616,126437.227,126438.29999998212,126454.184,126804.87,,9,"relationship,"
screen,html.Screen,2_1_0_1_10,2022-02-03T14:30:38.386Z,,,,,,,,,,,,,,,,,53,,,,,,,,,,,,,,427.42999998212326,,response,,,,99,,,,,,,Space,keypress(Space),,,,,,,,---- -- ----- -- ------ - ------- --- ----------<br>------------- common ------ ---- ---- ------- ----- -- ----<br>-------- ------- -- ---------- --- - --- ----- ----- ----<br>---- --- --- ----- --- ---- ---- ------- ----- ---- -------<br>--- --- -- ----- -- --- ---- -- --- ---- -- ------ ------<br>--- ----- -- ----,127232.79999998212,127232.29999998212,126787.682,126795.29999998212,126804.87,127237.57,,10,common
screen,html.Screen,2_1_0_1_11,2022-02-03T14:30:38.779Z,,,,,,,,,,,,,,,,,53,,,,,,,,,,,,,,387.82999997615116,,response,,,,99,,,,,,,Space,keypress(Space),,,,,,,,---- -- ----- -- ------ - ------- --- ----------<br>------------- ------ wisdom ---- ---- ------- ----- -- ----<br>-------- ------- -- ---------- --- - --- ----- ----- ----<br>---- --- --- ----- --- ---- ---- ------- ----- ---- -------<br>--- --- -- ----- -- --- ---- -- --- ---- -- ------ ------<br>--- ----- -- ----,127626.09999999404,127625.39999997616,127221.572,127232.89999997616,127237.57,127638.222,,11,wisdom
screen,html.Screen,2_1_0_1_12,2022-02-03T14:30:39.123Z,,,,,,,,,,,,,,,,,53,,,,,,,,,,,,,,330.9779999880848,,response,,,,99,,,,,,,Space,keypress(Space),,,,,,,,---- -- ----- -- ------ - ------- --- ----------<br>------------- ------ ------ says ---- ------- ----- -- ----<br>-------- ------- -- ---------- --- - --- ----- ----- ----<br>---- --- --- ----- --- ---- ---- ------- ----- ---- -------<br>--- --- -- ----- -- --- ---- -- --- ---- -- ------ ------<br>--- ----- -- ----,127969.69999998808,127969.19999998808,127620.994,127626.19999998808,127638.222,128003.317,,12,says
screen,html.Screen,2_1_0_1_13,2022-02-03T14:30:39.466Z,,,,,,,,,,,,,,,,,53,,,,,,,,,,,,,,309.0829999761627,,response,,,,99,,,,,,,Space,keypress(Space),,,,,,,,---- -- ----- -- ------ - ------- --- ----------<br>------------- ------ ------ ---- that ------- ----- -- ----<br>-------- ------- -- ---------- --- - --- ----- ----- ----<br>---- --- --- ----- --- ---- ---- ------- ----- ---- -------<br>--- --- -- ----- -- --- ---- -- --- ---- -- ------ ------<br>--- ----- -- ----,128312.79999998212,128312.39999997616,127954.449,127969.69999998808,128003.317,128321.934,,13,that
screen,html.Screen,2_1_0_1_14,2022-02-03T14:30:39.821Z,,,,,,,,,,,,,,,,,53,,,,,,,,,,,,,,345.4659999761643,,response,,,,99,,,,,,,Space,keypress(Space),,,,,,,,---- -- ----- -- ------ - ------- --- ----------<br>------------- ------ ------ ---- ---- feeling ----- -- ----<br>-------- ------- -- ---------- --- - --- ----- ----- ----<br>---- --- --- ----- --- ---- ---- ------- ----- ---- -------<br>--- --- -- ----- -- --- ---- -- --- ---- -- ------ ------<br>--- ----- -- ----,128668,128667.39999997616,128305.003,128312.79999998212,128321.934,128671.532,,14,feeling
screen,html.Screen,2_1_0_1_15,2022-02-03T14:30:40.743Z,,,,,,,,,,,,,,,,,53,,,,,,,,,,,,,,917.2679999821121,,response,,,,99,,,,,,,Space,keypress(Space),,,,,,,,---- -- ----- -- ------ - ------- --- ----------<br>------------- ------ ------ ---- ---- ------- close -- ----<br>-------- ------- -- ---------- --- - --- ----- ----- ----<br>---- --- --- ----- --- ---- ---- ------- ----- ---- -------<br>--- --- -- ----- -- --- ---- -- --- ---- -- ------ ------<br>--- ----- -- ----,129589.5,129588.79999998212,128655.057,128668.09999999404,128671.532,129605.705,,15,close
screen,html.Screen,2_1_0_1_16,2022-02-03T14:30:41.057Z,,,,,,,,,,,,,,,,,53,,,,,,,,,,,,,,297.6949999761564,,response,,,,99,,,,,,,Space,keypress(Space),,,,,,,,---- -- ----- -- ------ - ------- --- ----------<br>------------- ------ ------ ---- ---- ------- ----- to ----<br>-------- ------- -- ---------- --- - --- ----- ----- ----<br>---- --- --- ----- --- ---- ---- ------- ----- ---- -------<br>--- --- -- ----- -- --- ---- -- --- ---- -- ------ ------<br>--- ----- -- ----,129904,129903.39999997616,129588.506,129589.59999999404,129605.705,129922.609,,16,to
screen,html.Screen,2_1_0_1_17,2022-02-03T14:30:41.387Z,,,,,,,,,,,,,,,,,53,,,,,,,,,,,,,,310.89100000000326,,response,,,,99,,,,,,,Space,keypress(Space),,,,,,,,---- -- ----- -- ------ - ------- --- ----------<br>------------- ------ ------ ---- ---- ------- ----- -- your<br>-------- ------- -- ---------- --- - --- ----- ----- ----<br>---- --- --- ----- --- ---- ---- ------- ----- ---- -------<br>--- --- -- ----- -- --- ---- -- --- ---- -- ------ ------<br>--- ----- -- ----,130234.09999999404,130233.5,129888.794,129904,129922.609,130239.383,,17,your
screen,html.Screen,2_1_0_1_18,2022-02-03T14:30:41.703Z,,,,,,,,,,,,,,,,,53,,,,,,,,,,,,,,309.81699998807744,,response,,,,99,,,,,,,Space,keypress(Space),,,,,,,,---- -- ----- -- ------ - ------- --- ----------<br>------------- ------ ------ ---- ---- ------- ----- -- ----<br>romantic ------- -- ---------- --- - --- ----- ----- ----<br>---- --- --- ----- --- ---- ---- ------- ----- ---- -------<br>--- --- -- ----- -- --- ---- -- --- ---- -- ------ ------<br>--- ----- -- ----,130549.89999997616,130549.19999998808,130222.343,130234.19999998808,130239.383,130555.491,,18,romantic
screen,html.Screen,2_1_0_1_19,2022-02-03T14:30:42.051Z,,,,,,,,,,,,,,,,,53,,,,,,,,,,,,,,342.00900000000547,,response,,,,99,,,,,,,Space,keypress(Space),,,,,,,,---- -- ----- -- ------ - ------- --- ----------<br>------------- ------ ------ ---- ---- ------- ----- -- ----<br>-------- partner -- ---------- --- - --- ----- ----- ----<br>---- --- --- ----- --- ---- ---- ------- ----- ---- -------<br>--- --- -- ----- -- --- ---- -- --- ---- -- ------ ------<br>--- ----- -- ----,130898,130897.5,130539.128,130550,130555.491,130906.827,,19,partner
screen,html.Screen,2_1_0_1_20,2022-02-03T14:30:42.385Z,,,,,,,,,,,,,,,,,53,,,,,,,,,,,,,,324.57299997615337,,response,,,,99,,,,,,,Space,keypress(Space),,,,,,,,---- -- ----- -- ------ - ------- --- ----------<br>------------- ------ ------ ---- ---- ------- ----- -- ----<br>-------- ------- is ---------- --- - --- ----- ----- ----<br>---- --- --- ----- --- ---- ---- ------- ----- ---- -------<br>--- --- -- ----- -- --- ---- -- --- ---- -- ------ ------<br>--- ----- -- ----,131231.89999997616,131231.39999997616,130888.892,130898.09999999404,130906.827,131239.561,,20,is
screen,html.Screen,2_1_0_1_21,2022-02-03T14:30:42.784Z,,,,,,,,,,,,,,,,,53,,,,,,,,,,,,,,390.5389999940526,,response,,,,99,,,,,,,Space,keypress(Space),,,,,,,,---- -- ----- -- ------ - ------- --- ----------<br>------------- ------ ------ ---- ---- ------- ----- -- ----<br>-------- ------- -- paramount. --- - --- ----- ----- ----<br>---- --- --- ----- --- ---- ---- ------- ----- ---- -------<br>--- --- -- ----- -- --- ---- -- --- ---- -- ------ ------<br>--- ----- -- ----,131630.5,131630.09999999404,131223.515,131232,131239.561,131639.372,,21,paramount.
screen,html.Screen,2_1_0_1_22,2022-02-03T14:30:43.179Z,,,,,,,,,,,,,,,,,53,,,,,,,,,,,,,,385.7279999940365,,response,,,,99,,,,,,,Space,keypress(Space),,,,,,,,---- -- ----- -- ------ - ------- --- ----------<br>------------- ------ ------ ---- ---- ------- ----- -- ----<br>-------- ------- -- ---------- But - --- ----- ----- ----<br>---- --- --- ----- --- ---- ---- ------- ----- ---- -------<br>--- --- -- ----- -- --- ---- -- --- ---- -- ------ ------<br>--- ----- -- ----,132025.59999999404,132025.09999999404,131622.804,131630.5,131639.372,132039.737,,22,But
screen,html.Screen,2_1_0_1_23,2022-02-03T14:30:43.564Z,,,,,,,,,,,,,,,,,53,,,,,,,,,,,,,,370.2630000000063,,response,,,,99,,,,,,,Space,keypress(Space),,,,,,,,---- -- ----- -- ------ - ------- --- ----------<br>------------- ------ ------ ---- ---- ------- ----- -- ----<br>-------- ------- -- ---------- --- a --- ----- ----- ----<br>---- --- --- ----- --- ---- ---- ------- ----- ---- -------<br>--- --- -- ----- -- --- ---- -- --- ---- -- ------ ------<br>--- ----- -- ----,132410.69999998808,132410,132022.695,132025.69999998808,132039.737,132422.971,,23,a
screen,html.Screen,2_1_0_1_24,2022-02-03T14:30:43.905Z,,,,,,,,,,,,,,,,,53,,,,,,,,,,,,,,328.02900000000955,,response,,,,99,,,,,,,Space,keypress(Space),,,,,,,,---- -- ----- -- ------ - ------- --- ----------<br>------------- ------ ------ ---- ---- ------- ----- -- ----<br>-------- ------- -- ---------- --- - new ----- ----- ----<br>---- --- --- ----- --- ---- ---- ------- ----- ---- -------<br>--- --- -- ----- -- --- ---- -- --- ---- -- ------ ------<br>--- ----- -- ----,132751.59999999404,132751,132406.446,132410.69999998808,132422.971,132760.95,,24,new
screen,html.Screen,2_1_0_1_25,2022-02-03T14:30:44.201Z,,,,,,,,,,,,,,,,,53,,,,,,,,,,,,,,286.54999999998836,,response,,,,99,,,,,,,Space,keypress(Space),,,,,,,,---- -- ----- -- ------ - ------- --- ----------<br>------------- ------ ------ ---- ---- ------- ----- -- ----<br>-------- ------- -- ---------- --- - --- study ----- ----<br>---- --- --- ----- --- ---- ---- ------- ----- ---- -------<br>--- --- -- ----- -- --- ---- -- --- ---- -- ------ ------<br>--- ----- -- ----,133048.09999999404,133047.5,132739.883,132751.69999998808,132760.95,133057.103,,25,study
screen,html.Screen,2_1_0_1_26,2022-02-03T14:30:44.519Z,,,,,,,,,,,,,,,,,53,,,,,,,,,,,,,,308.3969999999972,,response,,,,99,,,,,,,Space,keypress(Space),,,,,,,,---- -- ----- -- ------ - ------- --- ----------<br>------------- ------ ------ ---- ---- ------- ----- -- ----<br>-------- ------- -- ---------- --- - --- ----- finds ----<br>---- --- --- ----- --- ---- ---- ------- ----- ---- -------<br>--- --- -- ----- -- --- ---- -- --- ---- -- ------ ------<br>--- ----- -- ----,133366,133365.5,133039.999,133048.19999998808,133057.103,133373.308,,26,finds
screen,html.Screen,2_1_0_1_27,2022-02-03T14:30:44.844Z,,,,,,,,,,,,,,,,,53,,,,,,,,,,,,,,317.19200000001,,response,,,,99,,,,,,,Space,keypress(Space),,,,,,,,---- -- ----- -- ------ - ------- --- ----------<br>------------- ------ ------ ---- ---- ------- ----- -- ----<br>-------- ------- -- ---------- --- - --- ----- ----- that<br>---- --- --- ----- --- ---- ---- ------- ----- ---- -------<br>--- --- -- ----- -- --- ---- -- --- ---- -- ------ ------<br>--- ----- -- ----,133691.09999999404,133690.5,133356.87,133366.09999999404,133373.308,133706.845,,27,that
screen,html.Screen,2_1_0_1_28,2022-02-03T14:30:45.149Z,,,,,,,,,,,,,,,,,53,,,,,,,,,,,,,,288.8549999880779,,response,,,,99,,,,,,,Space,keypress(Space),,,,,,,,---- -- ----- -- ------ - ------- --- ----------<br>------------- ------ ------ ---- ---- ------- ----- -- ----<br>-------- ------- -- ---------- --- - --- ----- ----- ----<br>it's --- --- ----- --- ---- ---- ------- ----- ---- -------<br>--- --- -- ----- -- --- ---- -- --- ---- -- ------ ------<br>--- ----- -- ----,133996.29999998212,133995.69999998808,133690.356,133691.19999998808,133706.845,134007.021,,28,it's
screen,html.Screen,2_1_0_1_29,2022-02-03T14:30:45.415Z,,,,,,,,,,,,,,,,,53,,,,,,,,,,,,,,253.87899997615023,,response,,,,99,,,,,,,Space,keypress(Space),,,,,,,,---- -- ----- -- ------ - ------- --- ----------<br>------------- ------ ------ ---- ---- ------- ----- -- ----<br>-------- ------- -- ---------- --- - --- ----- ----- ----<br>---- not --- ----- --- ---- ---- ------- ----- ---- -------<br>--- --- -- ----- -- --- ---- -- --- ---- -- ------ ------<br>--- ----- -- ----,134261.39999997616,134260.89999997616,133990.468,133996.29999998212,134007.021,134290.549,,29,not
screen,html.Screen,2_1_0_1_30,2022-02-03T14:30:45.705Z,,,,,,,,,,,,,,,,,53,,,,,,,,,,,,,,260.65099998808,,response,,,,99,,,,,,,Space,keypress(Space),,,,,,,,---- -- ----- -- ------ - ------- --- ----------<br>------------- ------ ------ ---- ---- ------- ----- -- ----<br>-------- ------- -- ---------- --- - --- ----- ----- ----<br>---- --- how ----- --- ---- ---- ------- ----- ---- -------<br>--- --- -- ----- -- --- ---- -- --- ---- -- ------ ------<br>--- ----- -- ----,134551.79999998212,134551.19999998808,134273.932,134261.39999997616,134290.549,134557.077,,30,how
screen,html.Screen,2_1_0_1_31,2022-02-03T14:30:46.021Z,,,,,,,,,,,,,,,,,53,,,,,,,,,,,,,,310.12299998808885,,response,,,,99,,,,,,,Space,keypress(Space),,,,,,,,---- -- ----- -- ------ - ------- --- ----------<br>------------- ------ ------ ---- ---- ------- ----- -- ----<br>-------- ------- -- ---------- --- - --- ----- ----- ----<br>---- --- --- close --- ---- ---- ------- ----- ---- -------<br>--- --- -- ----- -- --- ---- -- --- ---- -- ------ ------<br>--- ----- -- ----,134867.69999998808,134867.19999998808,134540.663,134552,134557.077,134873.842,,31,close
screen,html.Screen,2_1_0_1_32,2022-02-03T14:30:46.367Z,,,,,,,,,,,,,,,,,53,,,,,,,,,,,,,,339.8579999880749,,response,,,,99,,,,,,,Space,keypress(Space),,,,,,,,---- -- ----- -- ------ - ------- --- ----------<br>------------- ------ ------ ---- ---- ------- ----- -- ----<br>-------- ------- -- ---------- --- - --- ----- ----- ----<br>---- --- --- ----- you ---- ---- ------- ----- ---- -------<br>--- --- -- ----- -- --- ---- -- --- ---- -- ------ ------<br>--- ----- -- ----,135214.19999998808,135213.69999998808,134857.445,134867.89999997616,134873.842,135224.352,,32,you
screen,html.Screen,2_1_0_1_33,2022-02-03T14:30:47.448Z,,,,,,,,,,,,,,,,,53,,,,,,,,,,,,,,1069.947999982105,,response,,,,99,,,,,,,Space,keypress(Space),,,,,,,,---- -- ----- -- ------ - ------- --- ----------<br>------------- ------ ------ ---- ---- ------- ----- -- ----<br>-------- ------- -- ---------- --- - --- ----- ----- ----<br>---- --- --- ----- --- feel ---- ------- ----- ---- -------<br>--- --- -- ----- -- --- ---- -- --- ---- -- ------ ------<br>--- ----- -- ----,136294.89999997616,136294.29999998212,135207.557,135214.39999997616,135224.352,136307.802,,33,feel
screen,html.Screen,2_1_0_1_34,2022-02-03T14:30:47.796Z,,,,,,,,,,,,,,,,,53,,,,,,,,,,,,,,334.0979999761621,,response,,,,99,,,,,,,Space,keypress(Space),,,,,,,,---- -- ----- -- ------ - ------- --- ----------<br>------------- ------ ------ ---- ---- ------- ----- -- ----<br>-------- ------- -- ---------- --- - --- ----- ----- ----<br>---- --- --- ----- --- ---- that ------- ----- ---- -------<br>--- --- -- ----- -- --- ---- -- --- ---- -- ------ ------<br>--- ----- -- ----,136642.39999997616,136641.89999997616,136290.738,136295,136307.802,136658.069,,34,that
screen,html.Screen,2_1_0_1_35,2022-02-03T14:30:48.222Z,,,,,,,,,,,,,,,,,53,,,,,,,,,,,,,,409.83099997616955,,response,,,,99,,,,,,,Space,keypress(Space),,,,,,,,---- -- ----- -- ------ - ------- --- ----------<br>------------- ------ ------ ---- ---- ------- ----- -- ----<br>-------- ------- -- ---------- --- - --- ----- ----- ----<br>---- --- --- ----- --- ---- ---- matters ----- ---- -------<br>--- --- -- ----- -- --- ---- -- --- ---- -- ------ ------<br>--- ----- -- ----,137068.59999999404,137067.89999997616,136641.434,136642.5,136658.069,137074.81,,35,matters
screen,html.Screen,2_1_0_1_36,2022-02-03T14:30:48.479Z,,,,,,,,,,,,,,,,,53,,,,,,,,,,,,,,250.69000000000233,,response,,,,99,,,,,,,Space,keypress(Space),,,,,,,,"---- -- ----- -- ------ - ------- --- ----------<br>------------- ------ ------ ---- ---- ------- ----- -- ----<br>-------- ------- -- ---------- --- - --- ----- ----- ----<br>---- --- --- ----- --- ---- ---- ------- most, ---- -------<br>--- --- -- ----- -- --- ---- -- --- ---- -- ------ ------<br>--- ----- -- ----",137325.89999997616,137325.5,137058.282,137068.59999999404,137074.81,137341.486,,36,"most,"
screen,html.Screen,2_1_0_1_37,2022-02-03T14:30:48.792Z,,,,,,,,,,,,,,,,,53,,,,,,,,,,,,,,297.1139999940351,,response,,,,99,,,,,,,Space,keypress(Space),,,,,,,,---- -- ----- -- ------ - ------- --- ----------<br>------------- ------ ------ ---- ---- ------- ----- -- ----<br>-------- ------- -- ---------- --- - --- ----- ----- ----<br>---- --- --- ----- --- ---- ---- ------- ----- it's -------<br>--- --- -- ----- -- --- ---- -- --- ---- -- ------ ------<br>--- ----- -- ----,137639.09999999404,137638.59999999404,137325.007,137326,137341.486,137641.547,,37,it's
screen,html.Screen,2_1_0_1_38,2022-02-03T14:30:49.056Z,,,,,,,,,,,,,,,,,53,,,,,,,,,,,,,,260.6529999880877,,response,,,,99,,,,,,,Space,keypress(Space),,,,,,,,---- -- ----- -- ------ - ------- --- ----------<br>------------- ------ ------ ---- ---- ------- ----- -- ----<br>-------- ------- -- ---------- --- - --- ----- ----- ----<br>---- --- --- ----- --- ---- ---- ------- ----- ---- whether<br>--- --- -- ----- -- --- ---- -- --- ---- -- ------ ------<br>--- ----- -- ----,137902.89999997616,137902.19999998808,137624.823,137639.29999998212,137641.547,137908.698,,38,whether
screen,html.Screen,2_1_0_1_39,2022-02-03T14:30:49.291Z,,,,,,,,,,,,,,,,,53,,,,,,,,,,,,,,228.0019999880751,,response,,,,99,,,,,,,Space,keypress(Space),,,,,,,,---- -- ----- -- ------ - ------- --- ----------<br>------------- ------ ------ ---- ---- ------- ----- -- ----<br>-------- ------- -- ---------- --- - --- ----- ----- ----<br>---- --- --- ----- --- ---- ---- ------- ----- ---- -------<br>you --- -- ----- -- --- ---- -- --- ---- -- ------ ------<br>--- ----- -- ----,138137.39999997616,138136.69999998808,137891.974,137903.09999999404,137908.698,138142.208,,39,you
screen,html.Screen,2_1_0_1_40,2022-02-03T14:30:49.473Z,,,,,,,,,,,,,,,,,53,,,,,,,,,,,,,,176.59199998210534,,response,,,,99,,,,,,,Space,keypress(Space),,,,,,,,---- -- ----- -- ------ - ------- --- ----------<br>------------- ------ ------ ---- ---- ------- ----- -- ----<br>-------- ------- -- ---------- --- - --- ----- ----- ----<br>---- --- --- ----- --- ---- ---- ------- ----- ---- -------<br>--- are -- ----- -- --- ---- -- --- ---- -- ------ ------<br>--- ----- -- ----,138319.5,138318.79999998212,138125.394,138137.5,138142.208,138325.177,,40,are
screen,html.Screen,2_1_0_1_41,2022-02-03T14:30:49.689Z,,,,,,,,,,,,,,,,,53,,,,,,,,,,,,,,209.7229999761621,,response,,,,99,,,,,,,Space,keypress(Space),,,,,,,,---- -- ----- -- ------ - ------- --- ----------<br>------------- ------ ------ ---- ---- ------- ----- -- ----<br>-------- ------- -- ---------- --- - --- ----- ----- ----<br>---- --- --- ----- --- ---- ---- ------- ----- ---- -------<br>--- --- as ----- -- --- ---- -- --- ---- -- ------ ------<br>--- ----- -- ----,138535.39999997616,138534.89999997616,138308.477,138319.59999999404,138325.177,138541.923,,41,as
screen,html.Screen,2_1_0_1_42,2022-02-03T14:30:49.987Z,,,,,,,,,,,,,,,,,53,,,,,,,,,,,,,,290.7769999880693,,response,,,,99,,,,,,,Space,keypress(Space),,,,,,,,---- -- ----- -- ------ - ------- --- ----------<br>------------- ------ ------ ---- ---- ------- ----- -- ----<br>-------- ------- -- ---------- --- - --- ----- ----- ----<br>---- --- --- ----- --- ---- ---- ------- ----- ---- -------<br>--- --- -- close -- --- ---- -- --- ---- -- ------ ------<br>--- ----- -- ----,138833.29999998212,138832.69999998808,138525.559,138535.59999999404,138541.923,138842.12,,42,close
screen,html.Screen,2_1_0_1_43,2022-02-03T14:30:50.209Z,,,,,,,,,,,,,,,,,53,,,,,,,,,,,,,,212.9799999940442,,response,,,,99,,,,,,,Space,keypress(Space),,,,,,,,---- -- ----- -- ------ - ------- --- ----------<br>------------- ------ ------ ---- ---- ------- ----- -- ----<br>-------- ------- -- ---------- --- - --- ----- ----- ----<br>---- --- --- ----- --- ---- ---- ------- ----- ---- -------<br>--- --- -- ----- as --- ---- -- --- ---- -- ------ ------<br>--- ----- -- ----,139055.69999998808,139055.09999999404,138825.634,138833.39999997616,138842.12,139058.809,,43,as
screen,html.Screen,2_1_0_1_44,2022-02-03T14:30:50.430Z,,,,,,,,,,,,,,,,,53,,,,,,,,,,,,,,217.49099998211022,,response,,,,99,,,,,,,Space,keypress(Space),,,,,,,,---- -- ----- -- ------ - ------- --- ----------<br>------------- ------ ------ ---- ---- ------- ----- -- ----<br>-------- ------- -- ---------- --- - --- ----- ----- ----<br>---- --- --- ----- --- ---- ---- ------- ----- ---- -------<br>--- --- -- ----- -- you ---- -- --- ---- -- ------ ------<br>--- ----- -- ----,139276.89999997616,139276.29999998212,139042.421,139055.79999998212,139058.809,139292.594,,44,you
screen,html.Screen,2_1_0_1_45,2022-02-03T14:30:50.687Z,,,,,,,,,,,,,,,,,53,,,,,,,,,,,,,,240.6059999880672,,response,,,,99,,,,,,,Space,keypress(Space),,,,,,,,---- -- ----- -- ------ - ------- --- ----------<br>------------- ------ ------ ---- ---- ------- ----- -- ----<br>-------- ------- -- ---------- --- - --- ----- ----- ----<br>---- --- --- ----- --- ---- ---- ------- ----- ---- -------<br>--- --- -- ----- -- --- want -- --- ---- -- ------ ------<br>--- ----- -- ----,139533.69999998808,139533.19999998808,139275.601,139277,139292.594,139542.495,,45,want
screen,html.Screen,2_1_0_1_46,2022-02-03T14:30:50.907Z,,,,,,,,,,,,,,,,,53,,,,,,,,,,,,,,211.1049999940442,,response,,,,99,,,,,,,Space,keypress(Space),,,,,,,,---- -- ----- -- ------ - ------- --- ----------<br>------------- ------ ------ ---- ---- ------- ----- -- ----<br>-------- ------- -- ---------- --- - --- ----- ----- ----<br>---- --- --- ----- --- ---- ---- ------- ----- ---- -------<br>--- --- -- ----- -- --- ---- to --- ---- -- ------ ------<br>--- ----- -- ----,139753.89999997616,139753.59999999404,139525.721,139533.89999997616,139542.495,139759.056,,46,to
screen,html.Screen,2_1_0_1_47,2022-02-03T14:30:51.160Z,,,,,,,,,,,,,,,,,53,,,,,,,,,,,,,,247.34399997614673,,response,,,,99,,,,,,,Space,keypress(Space),,,,,,,,"---- -- ----- -- ------ - ------- --- ----------<br>------------- ------ ------ ---- ---- ------- ----- -- ----<br>-------- ------- -- ---------- --- - --- ----- ----- ----<br>---- --- --- ----- --- ---- ---- ------- ----- ---- -------<br>--- --- -- ----- -- --- ---- -- be, ---- -- ------ ------<br>--- ----- -- ----",140007.09999999404,140006.39999997616,139742.389,139754,139759.056,140009.396,,47,"be,"
screen,html.Screen,2_1_0_1_48,2022-02-03T14:30:51.421Z,,,,,,,,,,,,,,,,,53,,,,,,,,,,,,,,257.7039999940316,,response,,,,99,,,,,,,Space,keypress(Space),,,,,,,,---- -- ----- -- ------ - ------- --- ----------<br>------------- ------ ------ ---- ---- ------- ----- -- ----<br>-------- ------- -- ---------- --- - --- ----- ----- ----<br>---- --- --- ----- --- ---- ---- ------- ----- ---- -------<br>--- --- -- ----- -- --- ---- -- --- even -- ------ ------<br>--- ----- -- ----,140267.79999998212,140267.09999999404,139993.41,140007.19999998808,140009.396,140276.401,,48,even
screen,html.Screen,2_1_0_1_49,2022-02-03T14:30:51.737Z,,,,,,,,,,,,,,,,,53,,,,,,,,,,,,,,306.2989999880665,,response,,,,99,,,,,,,Space,keypress(Space),,,,,,,,---- -- ----- -- ------ - ------- --- ----------<br>------------- ------ ------ ---- ---- ------- ----- -- ----<br>-------- ------- -- ---------- --- - --- ----- ----- ----<br>---- --- --- ----- --- ---- ---- ------- ----- ---- -------<br>--- --- -- ----- -- --- ---- -- --- ---- if ------ ------<br>--- ----- -- ----,140583.29999998212,140582.69999998808,140259.229,140267.89999997616,140276.401,140592.732,,49,if
screen,html.Screen,2_1_0_1_50,2022-02-03T14:30:52.005Z,,,,,,,,,,,,,,,,,53,,,,,,,,,,,,,,258.76800000001094,,response,,,,99,,,,,,,Space,keypress(Space),,,,,,,,---- -- ----- -- ------ - ------- --- ----------<br>------------- ------ ------ ---- ---- ------- ----- -- ----<br>-------- ------- -- ---------- --- - --- ----- ----- ----<br>---- --- --- ----- --- ---- ---- ------- ----- ---- -------<br>--- --- -- ----- -- --- ---- -- --- ---- -- that's ------<br>--- ----- -- ----,140851.89999997616,140851.5,140576.175,140583.39999997616,140592.732,140859.622,,50,that's
screen,html.Screen,2_1_0_1_51,2022-02-03T14:30:52.354Z,,,,,,,,,,,,,,,,,53,,,,,,,,,,,,,,340.4779999940365,,response,,,,99,,,,,,,Space,keypress(Space),,,,,,,,---- -- ----- -- ------ - ------- --- ----------<br>------------- ------ ------ ---- ---- ------- ----- -- ----<br>-------- ------- -- ---------- --- - --- ----- ----- ----<br>---- --- --- ----- --- ---- ---- ------- ----- ---- -------<br>--- --- -- ----- -- --- ---- -- --- ---- -- ------ really<br>--- ----- -- ----,141200.5,141200.09999999404,140843.132,140852,140859.622,141210.097,,51,really
screen,html.Screen,2_1_0_1_52,2022-02-03T14:30:52.630Z,,,,,,,,,,,,,,,,,53,,,,,,,,,,,,,,266.0029999940307,,response,,,,99,,,,,,,Space,keypress(Space),,,,,,,,---- -- ----- -- ------ - ------- --- ----------<br>------------- ------ ------ ---- ---- ------- ----- -- ----<br>-------- ------- -- ---------- --- - --- ----- ----- ----<br>---- --- --- ----- --- ---- ---- ------- ----- ---- -------<br>--- --- -- ----- -- --- ---- -- --- ---- -- ------ ------<br>not ----- -- ----,141476.79999998212,141476.09999999404,141192.912,141200.59999999404,141210.097,141494.094,,52,not
screen,html.Screen,2_1_0_1_53,2022-02-03T14:30:52.917Z,,,,,,,,,,,,,,,,,53,,,,,,,,,,,,,,269.20599998210673,,response,,,,99,,,,,,,Space,keypress(Space),,,,,,,,---- -- ----- -- ------ - ------- --- ----------<br>------------- ------ ------ ---- ---- ------- ----- -- ----<br>-------- ------- -- ---------- --- - --- ----- ----- ----<br>---- --- --- ----- --- ---- ---- ------- ----- ---- -------<br>--- --- -- ----- -- --- ---- -- --- ---- -- ------ ------<br>--- close -- ----,141763.79999998212,141763.29999998212,141476.362,141476.89999997616,141494.094,141776.888,,53,close
screen,html.Screen,2_1_0_1_54,2022-02-03T14:30:53.226Z,,,,,,,,,,,,,,,,,53,,,,,,,,,,,,,,295.51199997615186,,response,,,,99,,,,,,,Space,keypress(Space),,,,,,,,---- -- ----- -- ------ - ------- --- ----------<br>------------- ------ ------ ---- ---- ------- ----- -- ----<br>-------- ------- -- ---------- --- - --- ----- ----- ----<br>---- --- --- ----- --- ---- ---- ------- ----- ---- -------<br>--- --- -- ----- -- --- ---- -- --- ---- -- ------ ------<br>--- ----- at ----,142073.09999999404,142072.39999997616,141760.888,141763.79999998212,141776.888,142076.6,,54,at
screen,html.Screen,2_1_0_1_55,2022-02-03T14:30:53.610Z,,,,,,,,,,,,,,,,,53,,,,,,,,,,,,,,379.2999999761523,,response,,,,99,,,,,,,Space,keypress(Space),,,,,,,,---- -- ----- -- ------ - ------- --- ----------<br>------------- ------ ------ ---- ---- ------- ----- -- ----<br>-------- ------- -- ---------- --- - --- ----- ----- ----<br>---- --- --- ----- --- ---- ---- ------- ----- ---- -------<br>--- --- -- ----- -- --- ---- -- --- ---- -- ------ ------<br>--- ----- -- all.,142456.59999999404,142455.89999997616,142060.225,142073.19999998808,142076.6,142460.607,,55,all.
Item 99,flow.Loop,2_1_0_1,2022-02-03T14:30:53.610Z,,,,,,,,,,,,,,,,,,,,,,,,,,,,,,,20303.57999997615,,completion,,,,,A,,,,,,,,,,,silence,,,,,142456.69999998808,142455.89999997616,122135.742,122136.79999998212,122152.32,142460.607,,,
Question 1,html.Screen,2_1_0_2,2022-02-03T14:31:23.306Z,,,,,,,,,,,,,,,,,,,,,,,,,,,,true,FALSE,,29690.99299999405,,response,,,,99,A,,,,,,FALSE,click #choice-2,,,,silence,,,,,172153,172151.59999999404,142443.372,142456.79999998212,142460.607,172156.164,,,
Question 2,html.Screen,2_1_0_3,2022-02-03T14:31:26.308Z,,,,,,,,,,,,,,,,,,,,,,,,,,,,true,TRUE,,2997.135999982129,,response,,,,99,A,,,,,,TRUE,click #choice-1,,,,silence,,,,,175154.5,175153.29999998212,172138.154,172153.09999999404,172156.164,175157.765,,,
Item 99,flow.Sequence,2_1_0,2022-02-03T14:31:26.308Z,,,,,,,,,,,,,,,,,,,,,,,,,,,,,,,63004.71899998211,,completion,,,,,,,,,,,,,,,,,,,,,175154.79999998212,175153.29999998212,112131.884,112140.69999998808,112148.581,175157.765,,,
Holding screen,html.Screen,2_1_1_0,2022-02-03T14:31:36.296Z,,,,,,,,,,,,,,,,,,,,,,,,,,,,,,,10002.035999999993,,timeout,,,,,,,,,,,,,,,,,,,,,185144.39999997616,185143.525,175139.311,175154.89999997616,175157.765,185159.801,,,
screen,html.Screen,2_1_1_1_0,2022-02-03T14:31:37.760Z,,,,,,,,,,,,,,,,,54,,,,,,,,,,,,,,1446.3989999880723,,response,,,,100,,,,,,,Space,keypress(Space),,,,,,,,At --- ---- --- ------ ----- ------- ---- -- --- ------- --<br>------- ---------- ------ -- ----- -- ----- -- ---- ------<br>--- ----- --- --- ------ -------- ----- --- ------ ----- --<br>----- ----- ---------- --- --- ------ ------ ---- -- ------<br>------- --- ------ ----- --- ---- ------- -- ---- --- --<br>------- ------,186608.09999999404,186606.19999998808,185143.525,185144.59999999404,185159.801,186610.426,,0,At
screen,html.Screen,2_1_1_1_1,2022-02-03T14:31:38.148Z,,,,,,,,,,,,,,,,,54,,,,,,,,,,,,,,384.57399999999325,,response,,,,100,,,,,,,Space,keypress(Space),,,,,,,,-- the ---- --- ------ ----- ------- ---- -- --- ------- --<br>------- ---------- ------ -- ----- -- ----- -- ---- ------<br>--- ----- --- --- ------ -------- ----- --- ------ ----- --<br>----- ----- ---------- --- --- ------ ------ ---- -- ------<br>------- --- ------ ----- --- ---- ------- -- ---- --- --<br>------- ------,186995.89999997616,186995,186593.607,186608.19999998808,186610.426,187010.949,,1,the
screen,html.Screen,2_1_1_1_2,2022-02-03T14:31:38.481Z,,,,,,,,,,,,,,,,,54,,,,,,,,,,,,,,317.7509999880858,,response,,,,100,,,,,,,Space,keypress(Space),,,,,,,,-- --- time --- ------ ----- ------- ---- -- --- ------- --<br>------- ---------- ------ -- ----- -- ----- -- ---- ------<br>--- ----- --- --- ------ -------- ----- --- ------ ----- --<br>----- ----- ---------- --- --- ------ ------ ---- -- ------<br>------- --- ------ ----- --- ---- ------- -- ---- --- --<br>------- ------,187329.5,187328.69999998808,186994.28,186996.09999999404,187010.949,187344.188,,2,time
screen,html.Screen,2_1_1_1_3,2022-02-03T14:31:38.853Z,,,,,,,,,,,,,,,,,54,,,,,,,,,,,,,,355.81200000000536,,response,,,,100,,,,,,,Space,keypress(Space),,,,,,,,-- --- ---- the ------ ----- ------- ---- -- --- ------- --<br>------- ---------- ------ -- ----- -- ----- -- ---- ------<br>--- ----- --- --- ------ -------- ----- --- ------ ----- --<br>----- ----- ---------- --- --- ------ ------ ---- -- ------<br>------- --- ------ ----- --- ---- ------- -- ---- --- --<br>------- ------,187700.69999998808,187700,187327.201,187329.69999998808,187344.188,187711.132,,3,the
screen,html.Screen,2_1_1_1_4,2022-02-03T14:31:39.157Z,,,,,,,,,,,,,,,,,54,,,,,,,,,,,,,,292.86799999998766,,response,,,,100,,,,,,,Space,keypress(Space),,,,,,,,-- --- ---- --- French ----- ------- ---- -- --- ------- --<br>------- ---------- ------ -- ----- -- ----- -- ---- ------<br>--- ----- --- --- ------ -------- ----- --- ------ ----- --<br>----- ----- ---------- --- --- ------ ------ ---- -- ------<br>------- --- ------ ----- --- ---- ------- -- ---- --- --<br>------- ------,188004.69999998808,188004,187694.367,187700.89999997616,187711.132,188011.251,,4,French
screen,html.Screen,2_1_1_1_5,2022-02-03T14:31:39.498Z,,,,,,,,,,,,,,,,,54,,,,,,,,,,,,,,334.34899999405025,,response,,,,100,,,,,,,Space,keypress(Space),,,,,,,,-- --- ---- --- ------ crown ------- ---- -- --- ------- --<br>------- ---------- ------ -- ----- -- ----- -- ---- ------<br>--- ----- --- --- ------ -------- ----- --- ------ ----- --<br>----- ----- ---------- --- --- ------ ------ ---- -- ------<br>------- --- ------ ----- --- ---- ------- -- ---- --- --<br>------- ------,188346.39999997616,188345.59999999404,187994.518,188004.89999997616,188011.251,188361.281,,5,crown
screen,html.Screen,2_1_1_1_6,2022-02-03T14:31:39.822Z,,,,,,,,,,,,,,,,,54,,,,,,,,,,,,,,308.11899997617,,response,,,,100,,,,,,,Space,keypress(Space),,,,,,,,-- --- ---- --- ------ ----- secured ---- -- --- ------- --<br>------- ---------- ------ -- ----- -- ----- -- ---- ------<br>--- ----- --- --- ------ -------- ----- --- ------ ----- --<br>----- ----- ---------- --- --- ------ ------ ---- -- ------<br>------- --- ------ ----- --- ---- ------- -- ---- --- --<br>------- ------,188670.29999998212,188669.39999997616,188344.628,188346.59999999404,188361.281,188678.169,,6,secured
screen,html.Screen,2_1_1_1_7,2022-02-03T14:31:40.143Z,,,,,,,,,,,,,,,,,54,,,,,,,,,,,,,,311.8310000000056,,response,,,,100,,,,,,,Space,keypress(Space),,,,,,,,-- --- ---- --- ------ ----- ------- much -- --- ------- --<br>------- ---------- ------ -- ----- -- ----- -- ---- ------<br>--- ----- --- --- ------ -------- ----- --- ------ ----- --<br>----- ----- ---------- --- --- ------ ------ ---- -- ------<br>------- --- ------ ----- --- ---- ------- -- ---- --- --<br>------- ------,188990.69999998808,188990,188661.4,188670.5,188678.169,188994.774,,7,much
screen,html.Screen,2_1_1_1_8,2022-02-03T14:31:40.445Z,,,,,,,,,,,,,,,,,54,,,,,,,,,,,,,,297.7259999999951,,response,,,,100,,,,,,,Space,keypress(Space),,,,,,,,-- --- ---- --- ------ ----- ------- ---- of --- ------- --<br>------- ---------- ------ -- ----- -- ----- -- ---- ------<br>--- ----- --- --- ------ -------- ----- --- ------ ----- --<br>----- ----- ---------- --- --- ------ ------ ---- -- ------<br>------- --- ------ ----- --- ---- ------- -- ---- --- --<br>------- ------,189293.19999998808,189292.5,188977.837,188990.89999997616,188994.774,189311.861,,8,of
screen,html.Screen,2_1_1_1_9,2022-02-03T14:31:40.715Z,,,,,,,,,,,,,,,,,54,,,,,,,,,,,,,,250.13899999999558,,response,,,,100,,,,,,,Space,keypress(Space),,,,,,,,-- --- ---- --- ------ ----- ------- ---- -- its ------- --<br>------- ---------- ------ -- ----- -- ----- -- ---- ------<br>--- ----- --- --- ------ -------- ----- --- ------ ----- --<br>----- ----- ---------- --- --- ------ ------ ---- -- ------<br>------- --- ------ ----- --- ---- ------- -- ---- --- --<br>------- ------,189562.79999998212,189562,189278.032,189293.39999997616,189311.861,189578.375,,9,its
screen,html.Screen,2_1_1_1_10,2022-02-03T14:31:41.072Z,,,,,,,,,,,,,,,,,54,,,,,,,,,,,,,,340.625,,response,,,,100,,,,,,,Space,keypress(Space),,,,,,,,-- --- ---- --- ------ ----- ------- ---- -- --- revenue --<br>------- ---------- ------ -- ----- -- ----- -- ---- ------<br>--- ----- --- --- ------ -------- ----- --- ------ ----- --<br>----- ----- ---------- --- --- ------ ------ ---- -- ------<br>------- --- ------ ----- --- ---- ------- -- ---- --- --<br>------- ------,189920.09999999404,189919,189561.796,189562.89999997616,189578.375,189928.715,,10,revenue
screen,html.Screen,2_1_1_1_11,2022-02-03T14:31:41.375Z,,,,,,,,,,,,,,,,,54,,,,,,,,,,,,,,293.2850000000035,,response,,,,100,,,,,,,Space,keypress(Space),,,,,,,,-- --- ---- --- ------ ----- ------- ---- -- --- ------- by<br>------- ---------- ------ -- ----- -- ----- -- ---- ------<br>--- ----- --- --- ------ -------- ----- --- ------ ----- --<br>----- ----- ---------- --- --- ------ ------ ---- -- ------<br>------- --- ------ ----- --- ---- ------- -- ---- --- --<br>------- ------,190222.69999998808,190222,189911.877,189920.19999998808,189928.715,190228.402,,11,by
screen,html.Screen,2_1_1_1_12,2022-02-03T14:31:41.701Z,,,,,,,,,,,,,,,,,54,,,,,,,,,,,,,,319.4979999761563,,response,,,,100,,,,,,,Space,keypress(Space),,,,,,,,-- --- ---- --- ------ ----- ------- ---- -- --- ------- --<br>issuing ---------- ------ -- ----- -- ----- -- ---- ------<br>--- ----- --- --- ------ -------- ----- --- ------ ----- --<br>----- ----- ---------- --- --- ------ ------ ---- -- ------<br>------- --- ------ ----- --- ---- ------- -- ---- --- --<br>------- ------,190548.5,190547.89999997616,190212.005,190222.79999998212,190228.402,190561.986,,12,issuing
screen,html.Screen,2_1_1_1_13,2022-02-03T14:31:42.016Z,,,,,,,,,,,,,,,,,54,,,,,,,,,,,,,,301.71399998807465,,response,,,,100,,,,,,,Space,keypress(Space),,,,,,,,-- --- ---- --- ------ ----- ------- ---- -- --- ------- --<br>------- government ------ -- ----- -- ----- -- ---- ------<br>--- ----- --- --- ------ -------- ----- --- ------ ----- --<br>----- ----- ---------- --- --- ------ ------ ---- -- ------<br>------- --- ------ ----- --- ---- ------- -- ---- --- --<br>------- ------,190864.5,190863.69999998808,190545.469,190548.69999998808,190561.986,190878.688,,13,government
screen,html.Screen,2_1_1_1_14,2022-02-03T14:31:42.349Z,,,,,,,,,,,,,,,,,54,,,,,,,,,,,,,,317.2119999761635,,response,,,,100,,,,,,,Space,keypress(Space),,,,,,,,-- --- ---- --- ------ ----- ------- ---- -- --- ------- --<br>------- ---------- bonds. -- ----- -- ----- -- ---- ------<br>--- ----- --- --- ------ -------- ----- --- ------ ----- --<br>----- ----- ---------- --- --- ------ ------ ---- -- ------<br>------- --- ------ ----- --- ---- ------- -- ---- --- --<br>------- ------,191196.79999998212,191195.89999997616,190862.244,190864.69999998808,190878.688,191212.176,,14,bonds.
screen,html.Screen,2_1_1_1_15,2022-02-03T14:31:42.617Z,,,,,,,,,,,,,,,,,54,,,,,,,,,,,,,,251.92399999403278,,response,,,,100,,,,,,,Space,keypress(Space),,,,,,,,-- --- ---- --- ------ ----- ------- ---- -- --- ------- --<br>------- ---------- ------ In ----- -- ----- -- ---- ------<br>--- ----- --- --- ------ -------- ----- --- ------ ----- --<br>----- ----- ---------- --- --- ------ ------ ---- -- ------<br>------- --- ------ ----- --- ---- ------- -- ---- --- --<br>------- ------,191464.79999998212,191464.09999999404,191195.706,191197.09999999404,191212.176,191479.081,,15,In
screen,html.Screen,2_1_1_1_16,2022-02-03T14:31:42.883Z,,,,,,,,,,,,,,,,,54,,,,,,,,,,,,,,250.81899997615255,,response,,,,100,,,,,,,Space,keypress(Space),,,,,,,,"-- --- ---- --- ------ ----- ------- ---- -- --- ------- --<br>------- ---------- ------ -- 1727, -- ----- -- ---- ------<br>--- ----- --- --- ------ -------- ----- --- ------ ----- --<br>----- ----- ---------- --- --- ------ ------ ---- -- ------<br>------- --- ------ ----- --- ---- ------- -- ---- --- --<br>------- ------",191730.59999999404,191729.89999997616,191462.494,191465,191479.081,191745.722,,16,"1727,"
screen,html.Screen,2_1_1_1_17,2022-02-03T14:31:43.158Z,,,,,,,,,,,,,,,,,54,,,,,,,,,,,,,,259.57799998210976,,response,,,,100,,,,,,,Space,keypress(Space),,,,,,,,-- --- ---- --- ------ ----- ------- ---- -- --- ------- --<br>------- ---------- ------ -- ----- in ----- -- ---- ------<br>--- ----- --- --- ------ -------- ----- --- ------ ----- --<br>----- ----- ---------- --- --- ------ ------ ---- -- ------<br>------- --- ------ ----- --- ---- ------- -- ---- --- --<br>------- ------,192006.09999999404,192005.29999998212,191728.943,191730.79999998212,191745.722,192012.629,,17,in
screen,html.Screen,2_1_1_1_18,2022-02-03T14:31:43.396Z,,,,,,,,,,,,,,,,,54,,,,,,,,,,,,,,230.17099998213234,,response,,,,100,,,,,,,Space,keypress(Space),,,,,,,,-- --- ---- --- ------ ----- ------- ---- -- --- ------- --<br>------- ---------- ------ -- ----- -- order -- ---- ------<br>--- ----- --- --- ------ -------- ----- --- ------ ----- --<br>----- ----- ---------- --- --- ------ ------ ---- -- ------<br>------- --- ------ ----- --- ---- ------- -- ---- --- --<br>------- ------,192243.59999999404,192242.79999998212,191996.059,192006.29999998212,192012.629,192246.365,,18,order
screen,html.Screen,2_1_1_1_19,2022-02-03T14:31:43.662Z,,,,,,,,,,,,,,,,,54,,,,,,,,,,,,,,262.53499997616746,,response,,,,100,,,,,,,Space,keypress(Space),,,,,,,,-- --- ---- --- ------ ----- ------- ---- -- --- ------- --<br>------- ---------- ------ -- ----- -- ----- to ---- ------<br>--- ----- --- --- ------ -------- ----- --- ------ ----- --<br>----- ----- ---------- --- --- ------ ------ ---- -- ------<br>------- --- ------ ----- --- ---- ------- -- ---- --- --<br>------- ------,192509.59999999404,192508.89999997616,192229.488,192243.79999998212,192246.365,192512.663,,19,to
screen,html.Screen,2_1_1_1_20,2022-02-03T14:31:43.865Z,,,,,,,,,,,,,,,,,54,,,,,,,,,,,,,,199.73699997615768,,response,,,,100,,,,,,,Space,keypress(Space),,,,,,,,-- --- ---- --- ------ ----- ------- ---- -- --- ------- --<br>------- ---------- ------ -- ----- -- ----- -- save ------<br>--- ----- --- --- ------ -------- ----- --- ------ ----- --<br>----- ----- ---------- --- --- ------ ------ ---- -- ------<br>------- --- ------ ----- --- ---- ------- -- ---- --- --<br>------- ------,192713.39999997616,192712.39999997616,192496.239,192509.69999998808,192512.663,192729.52,,20,save
screen,html.Screen,2_1_1_1_21,2022-02-03T14:31:44.071Z,,,,,,,,,,,,,,,,,54,,,,,,,,,,,,,,188.77999998212908,,response,,,,100,,,,,,,Space,keypress(Space),,,,,,,,"-- --- ---- --- ------ ----- ------- ---- -- --- ------- --<br>------- ---------- ------ -- ----- -- ----- -- ---- money,<br>--- ----- --- --- ------ -------- ----- --- ------ ----- --<br>----- ----- ---------- --- --- ------ ------ ---- -- ------<br>------- --- ------ ----- --- ---- ------- -- ---- --- --<br>------- ------",192919.09999999404,192918.29999998212,192713.02,192713.5,192729.52,192929.852,,21,"money,"
screen,html.Screen,2_1_1_1_22,2022-02-03T14:31:44.338Z,,,,,,,,,,,,,,,,,54,,,,,,,,,,,,,,255.74799999402603,,response,,,,100,,,,,,,Space,keypress(Space),,,,,,,,-- --- ---- --- ------ ----- ------- ---- -- --- ------- --<br>------- ---------- ------ -- ----- -- ----- -- ---- ------<br>the ----- --- --- ------ -------- ----- --- ------ ----- --<br>----- ----- ---------- --- --- ------ ------ ---- -- ------<br>------- --- ------ ----- --- ---- ------- -- ---- --- --<br>------- ------,193186.39999997616,193185.59999999404,192913.098,192919.29999998212,192929.852,193196.546,,22,the
screen,html.Screen,2_1_1_1_23,2022-02-03T14:31:44.569Z,,,,,,,,,,,,,,,,,54,,,,,,,,,,,,,,219.35399997615605,,response,,,,100,,,,,,,Space,keypress(Space),,,,,,,,-- --- ---- --- ------ ----- ------- ---- -- --- ------- --<br>------- ---------- ------ -- ----- -- ----- -- ---- ------<br>--- state --- --- ------ -------- ----- --- ------ ----- --<br>----- ----- ---------- --- --- ------ ------ ---- -- ------<br>------- --- ------ ----- --- ---- ------- -- ---- --- --<br>------- ------,193416.69999998808,193415.89999997616,193179.832,193186.59999999404,193196.546,193429.764,,23,state
screen,html.Screen,2_1_1_1_24,2022-02-03T14:31:44.771Z,,,,,,,,,,,,,,,,,54,,,,,,,,,,,,,,187.83599999404396,,response,,,,100,,,,,,,Space,keypress(Space),,,,,,,,-- --- ---- --- ------ ----- ------- ---- -- --- ------- --<br>------- ---------- ------ -- ----- -- ----- -- ---- ------<br>--- ----- cut --- ------ -------- ----- --- ------ ----- --<br>----- ----- ---------- --- --- ------ ------ ---- -- ------<br>------- --- ------ ----- --- ---- ------- -- ---- --- --<br>------- ------,193618.59999999404,193617.59999999404,193413.265,193416.79999998212,193429.764,193629.834,,24,cut
screen,html.Screen,2_1_1_1_25,2022-02-03T14:31:45.017Z,,,,,,,,,,,,,,,,,54,,,,,,,,,,,,,,234.76599999403697,,response,,,,100,,,,,,,Space,keypress(Space),,,,,,,,-- --- ---- --- ------ ----- ------- ---- -- --- ------- --<br>------- ---------- ------ -- ----- -- ----- -- ---- ------<br>--- ----- --- the ------ -------- ----- --- ------ ----- --<br>----- ----- ---------- --- --- ------ ------ ---- -- ------<br>------- --- ------ ----- --- ---- ------- -- ---- --- --<br>------- ------,193865.5,193864.59999999404,193613.345,193618.59999999404,193629.834,193879.875,,25,the
screen,html.Screen,2_1_1_1_26,2022-02-03T14:31:45.238Z,,,,,,,,,,,,,,,,,54,,,,,,,,,,,,,,205.22499999403954,,response,,,,100,,,,,,,Space,keypress(Space),,,,,,,,-- --- ---- --- ------ ----- ------- ---- -- --- ------- --<br>------- ---------- ------ -- ----- -- ----- -- ---- ------<br>--- ----- --- --- bonds' -------- ----- --- ------ ----- --<br>----- ----- ---------- --- --- ------ ------ ---- -- ------<br>------- --- ------ ----- --- ---- ------- -- ---- --- --<br>------- ------,194085.89999997616,194085.09999999404,193863.425,193865.59999999404,193879.875,194096.886,,26,bonds'
screen,html.Screen,2_1_1_1_27,2022-02-03T14:31:45.502Z,,,,,,,,,,,,,,,,,54,,,,,,,,,,,,,,251.71399999404093,,response,,,,100,,,,,,,Space,keypress(Space),,,,,,,,-- --- ---- --- ------ ----- ------- ---- -- --- ------- --<br>------- ---------- ------ -- ----- -- ----- -- ---- ------<br>--- ----- --- --- ------ interest ----- --- ------ ----- --<br>----- ----- ---------- --- --- ------ ------ ---- -- ------<br>------- --- ------ ----- --- ---- ------- -- ---- --- --<br>------- ------,194349.79999998212,194348.59999999404,194080.197,194086,194096.886,194363.459,,27,interest
screen,html.Screen,2_1_1_1_28,2022-02-03T14:31:45.799Z,,,,,,,,,,,,,,,,,54,,,,,,,,,,,,,,282.2409999880765,,response,,,,100,,,,,,,Space,keypress(Space),,,,,,,,-- --- ---- --- ------ ----- ------- ---- -- --- ------- --<br>------- ---------- ------ -- ----- -- ----- -- ---- ------<br>--- ----- --- --- ------ -------- rate. --- ------ ----- --<br>----- ----- ---------- --- --- ------ ------ ---- -- ------<br>------- --- ------ ----- --- ---- ------- -- ---- --- --<br>------- ------,194646.69999998808,194645.69999998808,194346.944,194350,194363.459,194663.611,,28,rate.
screen,html.Screen,2_1_1_1_29,2022-02-03T14:31:46.088Z,,,,,,,,,,,,,,,,,54,,,,,,,,,,,,,,271.2889999761537,,response,,,,100,,,,,,,Space,keypress(Space),,,,,,,,-- --- ---- --- ------ ----- ------- ---- -- --- ------- --<br>------- ---------- ------ -- ----- -- ----- -- ---- ------<br>--- ----- --- --- ------ -------- ----- The ------ ----- --<br>----- ----- ---------- --- --- ------ ------ ---- -- ------<br>------- --- ------ ----- --- ---- ------- -- ---- --- --<br>------- ------,194935.69999998808,194934.89999997616,194646.702,194646.79999998212,194663.611,194947.066,,29,The
screen,html.Screen,2_1_1_1_30,2022-02-03T14:31:46.363Z,,,,,,,,,,,,,,,,,54,,,,,,,,,,,,,,262.63399998808745,,response,,,,100,,,,,,,Space,keypress(Space),,,,,,,,-- --- ---- --- ------ ----- ------- ---- -- --- ------- --<br>------- ---------- ------ -- ----- -- ----- -- ---- ------<br>--- ----- --- --- ------ -------- ----- --- market ----- --<br>----- ----- ---------- --- --- ------ ------ ---- -- ------<br>------- --- ------ ----- --- ---- ------- -- ---- --- --<br>------- ------,195210.79999998212,195209.69999998808,194930.364,194935.79999998212,194947.066,195214.524,,30,market
screen,html.Screen,2_1_1_1_31,2022-02-03T14:31:46.622Z,,,,,,,,,,,,,,,,,54,,,,,,,,,,,,,,254.87599997615325,,response,,,,100,,,,,,,Space,keypress(Space),,,,,,,,-- --- ---- --- ------ ----- ------- ---- -- --- ------- --<br>------- ---------- ------ -- ----- -- ----- -- ---- ------<br>--- ----- --- --- ------ -------- ----- --- ------ value --<br>----- ----- ---------- --- --- ------ ------ ---- -- ------<br>------- --- ------ ----- --- ---- ------- -- ---- --- --<br>------- ------,195470.09999999404,195469.39999997616,195197.269,195211.09999999404,195214.524,195480.878,,31,value
screen,html.Screen,2_1_1_1_32,2022-02-03T14:31:46.854Z,,,,,,,,,,,,,,,,,54,,,,,,,,,,,,,,220.52199997616117,,response,,,,100,,,,,,,Space,keypress(Space),,,,,,,,-- --- ---- --- ------ ----- ------- ---- -- --- ------- --<br>------- ---------- ------ -- ----- -- ----- -- ---- ------<br>--- ----- --- --- ------ -------- ----- --- ------ ----- of<br>----- ----- ---------- --- --- ------ ------ ---- -- ------<br>------- --- ------ ----- --- ---- ------- -- ---- --- --<br>------- ------,195702.19999998808,195701.39999997616,195463.702,195470.19999998808,195480.878,195714.17,,32,of
screen,html.Screen,2_1_1_1_33,2022-02-03T14:31:47.156Z,,,,,,,,,,,,,,,,,54,,,,,,,,,,,,,,289.22999997614534,,response,,,,100,,,,,,,Space,keypress(Space),,,,,,,,-- --- ---- --- ------ ----- ------- ---- -- --- ------- --<br>------- ---------- ------ -- ----- -- ----- -- ---- ------<br>--- ----- --- --- ------ -------- ----- --- ------ ----- --<br>these ----- ---------- --- --- ------ ------ ---- -- ------<br>------- --- ------ ----- --- ---- ------- -- ---- --- --<br>------- ------,196004.19999998808,196003.39999997616,195697.474,195702.39999997616,195714.17,196014.292,,33,these
screen,html.Screen,2_1_1_1_34,2022-02-03T14:31:47.514Z,,,,,,,,,,,,,,,,,54,,,,,,,,,,,,,,346.70800000001327,,response,,,,100,,,,,,,Space,keypress(Space),,,,,,,,-- --- ---- --- ------ ----- ------- ---- -- --- ------- --<br>------- ---------- ------ -- ----- -- ----- -- ---- ------<br>--- ----- --- --- ------ -------- ----- --- ------ ----- --<br>----- bonds ---------- --- --- ------ ------ ---- -- ------<br>------- --- ------ ----- --- ---- ------- -- ---- --- --<br>------- ------,196361.89999997616,196361,195997.565,196004.39999997616,196014.292,196364.145,,34,bonds
screen,html.Screen,2_1_1_1_35,2022-02-03T14:31:47.880Z,,,,,,,,,,,,,,,,,54,,,,,,,,,,,,,,363.2549999761686,,response,,,,100,,,,,,,Space,keypress(Space),,,,,,,,"-- --- ---- --- ------ ----- ------- ---- -- --- ------- --<br>------- ---------- ------ -- ----- -- ----- -- ---- ------<br>--- ----- --- --- ------ -------- ----- --- ------ ----- --<br>----- ----- plummeted, --- --- ------ ------ ---- -- ------<br>------- --- ------ ----- --- ---- ------- -- ---- --- --<br>------- ------",196728.29999998212,196727.39999997616,196347.611,196362,196364.145,196731.571,,35,"plummeted,"
screen,html.Screen,2_1_1_1_36,2022-02-03T14:31:48.140Z,,,,,,,,,,,,,,,,,54,,,,,,,,,,,,,,255.32899997616187,,response,,,,100,,,,,,,Space,keypress(Space),,,,,,,,-- --- ---- --- ------ ----- ------- ---- -- --- ------- --<br>------- ---------- ------ -- ----- -- ----- -- ---- ------<br>--- ----- --- --- ------ -------- ----- --- ------ ----- --<br>----- ----- ---------- and --- ------ ------ ---- -- ------<br>------- --- ------ ----- --- ---- ------- -- ---- --- --<br>------- ------,196987.59999999404,196986.89999997616,196714.486,196728.5,196731.571,196997.783,,36,and
screen,html.Screen,2_1_1_1_37,2022-02-03T14:31:48.411Z,,,,,,,,,,,,,,,,,54,,,,,,,,,,,,,,260.5169999821228,,response,,,,100,,,,,,,Space,keypress(Space),,,,,,,,-- --- ---- --- ------ ----- ------- ---- -- --- ------- --<br>------- ---------- ------ -- ----- -- ----- -- ---- ------<br>--- ----- --- --- ------ -------- ----- --- ------ ----- --<br>----- ----- ---------- --- the ------ ------ ---- -- ------<br>------- --- ------ ----- --- ---- ------- -- ---- --- --<br>------- ------,197259,197258.29999998212,196981.291,196987.79999998212,196997.783,197264.457,,37,the
screen,html.Screen,2_1_1_1_38,2022-02-03T14:31:48.628Z,,,,,,,,,,,,,,,,,54,,,,,,,,,,,,,,210.44299997616326,,response,,,,100,,,,,,,Space,keypress(Space),,,,,,,,-- --- ---- --- ------ ----- ------- ---- -- --- ------- --<br>------- ---------- ------ -- ----- -- ----- -- ---- ------<br>--- ----- --- --- ------ -------- ----- --- ------ ----- --<br>----- ----- ---------- --- --- market ------ ---- -- ------<br>------- --- ------ ----- --- ---- ------- -- ---- --- --<br>------- ------,197475.69999998808,197474.89999997616,197248.045,197259.19999998808,197264.457,197481.262,,38,market
screen,html.Screen,2_1_1_1_39,2022-02-03T14:31:48.914Z,,,,,,,,,,,,,,,,,54,,,,,,,,,,,,,,280.2380000000121,,response,,,,100,,,,,,,Space,keypress(Space),,,,,,,,-- --- ---- --- ------ ----- ------- ---- -- --- ------- --<br>------- ---------- ------ -- ----- -- ----- -- ---- ------<br>--- ----- --- --- ------ -------- ----- --- ------ ----- --<br>----- ----- ---------- --- --- ------ became ---- -- ------<br>------- --- ------ ----- --- ---- ------- -- ---- --- --<br>------- ------,197762.29999998212,197761.5,197464.53,197475.89999997616,197481.262,197764.864,,39,became
screen,html.Screen,2_1_1_1_40,2022-02-03T14:31:49.186Z,,,,,,,,,,,,,,,,,54,,,,,,,,,,,,,,267.9359999821172,,response,,,,100,,,,,,,Space,keypress(Space),,,,,,,,-- --- ---- --- ------ ----- ------- ---- -- --- ------- --<br>------- ---------- ------ -- ----- -- ----- -- ---- ------<br>--- ----- --- --- ------ -------- ----- --- ------ ----- --<br>----- ----- ---------- --- --- ------ ------ wary -- ------<br>------- --- ------ ----- --- ---- ------- -- ---- --- --<br>------- ------,198033.69999998808,198032.79999998212,197748.245,197762.5,197764.864,198048.428,,40,wary
screen,html.Screen,2_1_1_1_41,2022-02-03T14:31:49.378Z,,,,,,,,,,,,,,,,,54,,,,,,,,,,,,,,176.77199998806464,,response,,,,100,,,,,,,Space,keypress(Space),,,,,,,,-- --- ---- --- ------ ----- ------- ---- -- --- ------- --<br>------- ---------- ------ -- ----- -- ----- -- ---- ------<br>--- ----- --- --- ------ -------- ----- --- ------ ----- --<br>----- ----- ---------- --- --- ------ ------ ---- of ------<br>------- --- ------ ----- --- ---- ------- -- ---- --- --<br>------- ------,198226,198225.19999998808,198031.327,198033.79999998212,198048.428,198231.733,,41,of
screen,html.Screen,2_1_1_1_42,2022-02-03T14:31:49.469Z,,,,,,,,,,,,,,,,,54,,,,,,,,,,,,,,84.66699997615069,,response,,,,100,,,,,,,Space,keypress(Space),,,,,,,,-- --- ---- --- ------ ----- ------- ---- -- --- ------- --<br>------- ---------- ------ -- ----- -- ----- -- ---- ------<br>--- ----- --- --- ------ -------- ----- --- ------ ----- --<br>----- ----- ---------- --- --- ------ ------ ---- -- French<br>------- --- ------ ----- --- ---- ------- -- ---- --- --<br>------- ------,198317.39999997616,198316.39999997616,198214.792,198226.19999998808,198231.733,198331.619,,42,French
screen,html.Screen,2_1_1_1_43,2022-02-03T14:31:49.791Z,,,,,,,,,,,,,,,,,54,,,,,,,,,,,,,,306.4809999940335,,response,,,,100,,,,,,,Space,keypress(Space),,,,,,,,-- --- ---- --- ------ ----- ------- ---- -- --- ------- --<br>------- ---------- ------ -- ----- -- ----- -- ---- ------<br>--- ----- --- --- ------ -------- ----- --- ------ ----- --<br>----- ----- ---------- --- --- ------ ------ ---- -- ------<br>credit. --- ------ ----- --- ---- ------- -- ---- --- --<br>------- ------,198638.89999997616,198638.09999999404,198315.217,198317.5,198331.619,198648.621,,43,credit.
screen,html.Screen,2_1_1_1_44,2022-02-03T14:31:50.170Z,,,,,,,,,,,,,,,,,54,,,,,,,,,,,,,,368.37899999998626,,response,,,,100,,,,,,,Space,keypress(Space),,,,,,,,-- --- ---- --- ------ ----- ------- ---- -- --- ------- --<br>------- ---------- ------ -- ----- -- ----- -- ---- ------<br>--- ----- --- --- ------ -------- ----- --- ------ ----- --<br>----- ----- ---------- --- --- ------ ------ ---- -- ------<br>------- The ------ ----- --- ---- ------- -- ---- --- --<br>------- ------,199017.89999997616,199017,198631.897,198639.09999999404,198648.621,199032.187,,44,The
screen,html.Screen,2_1_1_1_45,2022-02-03T14:31:50.419Z,,,,,,,,,,,,,,,,,54,,,,,,,,,,,,,,233.61299998211325,,response,,,,100,,,,,,,Space,keypress(Space),,,,,,,,-- --- ---- --- ------ ----- ------- ---- -- --- ------- --<br>------- ---------- ------ -- ----- -- ----- -- ---- ------<br>--- ----- --- --- ------ -------- ----- --- ------ ----- --<br>----- ----- ---------- --- --- ------ ------ ---- -- ------<br>------- --- French ----- --- ---- ------- -- ---- --- --<br>------- ------,199266.69999998808,199265.79999998212,199015.356,199018.09999999404,199032.187,199282.02,,45,French
screen,html.Screen,2_1_1_1_46,2022-02-03T14:31:50.727Z,,,,,,,,,,,,,,,,,54,,,,,,,,,,,,,,291.9800000000105,,response,,,,100,,,,,,,Space,keypress(Space),,,,,,,,-- --- ---- --- ------ ----- ------- ---- -- --- ------- --<br>------- ---------- ------ -- ----- -- ----- -- ---- ------<br>--- ----- --- --- ------ -------- ----- --- ------ ----- --<br>----- ----- ---------- --- --- ------ ------ ---- -- ------<br>------- --- ------ state --- ---- ------- -- ---- --- --<br>------- ------,199574.89999997616,199574,199265.483,199266.89999997616,199282.02,199582.04,,46,state
screen,html.Screen,2_1_1_1_47,2022-02-03T14:31:51.003Z,,,,,,,,,,,,,,,,,54,,,,,,,,,,,,,,268.1599999880709,,response,,,,100,,,,,,,Space,keypress(Space),,,,,,,,-- --- ---- --- ------ ----- ------- ---- -- --- ------- --<br>------- ---------- ------ -- ----- -- ----- -- ---- ------<br>--- ----- --- --- ------ -------- ----- --- ------ ----- --<br>----- ----- ---------- --- --- ------ ------ ---- -- ------<br>------- --- ------ ----- was ---- ------- -- ---- --- --<br>------- ------,199851,199850.19999998808,199565.594,199575.09999999404,199582.04,199865.462,,47,was
screen,html.Screen,2_1_1_1_48,2022-02-03T14:31:51.251Z,,,,,,,,,,,,,,,,,54,,,,,,,,,,,,,,232.03800000000047,,response,,,,100,,,,,,,Space,keypress(Space),,,,,,,,-- --- ---- --- ------ ----- ------- ---- -- --- ------- --<br>------- ---------- ------ -- ----- -- ----- -- ---- ------<br>--- ----- --- --- ------ -------- ----- --- ------ ----- --<br>----- ----- ---------- --- --- ------ ------ ---- -- ------<br>------- --- ------ ----- --- left ------- -- ---- --- --<br>------- ------,200098.69999998808,200097.5,199849.045,199851.19999998808,199865.462,200115.669,,48,left
screen,html.Screen,2_1_1_1_49,2022-02-03T14:31:51.430Z,,,,,,,,,,,,,,,,,54,,,,,,,,,,,,,,161.53099998808466,,response,,,,100,,,,,,,Space,keypress(Space),,,,,,,,-- --- ---- --- ------ ----- ------- ---- -- --- ------- --<br>------- ---------- ------ -- ----- -- ----- -- ---- ------<br>--- ----- --- --- ------ -------- ----- --- ------ ----- --<br>----- ----- ---------- --- --- ------ ------ ---- -- ------<br>------- --- ------ ----- --- ---- without -- ---- --- --<br>------- ------,200278.09999999404,200277.19999998808,200099.14,200099,200115.669,200282.49,,49,without
screen,html.Screen,2_1_1_1_50,2022-02-03T14:31:51.674Z,,,,,,,,,,,,,,,,,54,,,,,,,,,,,,,,238.40999997616746,,response,,,,100,,,,,,,Space,keypress(Space),,,,,,,,-- --- ---- --- ------ ----- ------- ---- -- --- ------- --<br>------- ---------- ------ -- ----- -- ----- -- ---- ------<br>--- ----- --- --- ------ -------- ----- --- ------ ----- --<br>----- ----- ---------- --- --- ------ ------ ---- -- ------<br>------- --- ------ ----- --- ---- ------- an ---- --- --<br>------- ------,200521.69999998808,200520.89999997616,200265.88,200278.19999998808,200282.49,200532.519,,50,an
screen,html.Screen,2_1_1_1_51,2022-02-03T14:31:51.906Z,,,,,,,,,,,,,,,,,54,,,,,,,,,,,,,,220.8809999761579,,response,,,,100,,,,,,,Space,keypress(Space),,,,,,,,-- --- ---- --- ------ ----- ------- ---- -- --- ------- --<br>------- ---------- ------ -- ----- -- ----- -- ---- ------<br>--- ----- --- --- ------ -------- ----- --- ------ ----- --<br>----- ----- ---------- --- --- ------ ------ ---- -- ------<br>------- --- ------ ----- --- ---- ------- -- easy --- --<br>------- ------,200754.19999998808,200753.39999997616,200515.653,200521.89999997616,200532.519,200765.788,,51,easy
screen,html.Screen,2_1_1_1_52,2022-02-03T14:31:52.130Z,,,,,,,,,,,,,,,,,54,,,,,,,,,,,,,,211.61199997615768,,response,,,,100,,,,,,,Space,keypress(Space),,,,,,,,-- --- ---- --- ------ ----- ------- ---- -- --- ------- --<br>------- ---------- ------ -- ----- -- ----- -- ---- ------<br>--- ----- --- --- ------ -------- ----- --- ------ ----- --<br>----- ----- ---------- --- --- ------ ------ ---- -- ------<br>------- --- ------ ----- --- ---- ------- -- ---- way --<br>------- ------,200978.19999998808,200977.39999997616,200749.404,200754.29999998212,200765.788,200982.56,,52,way
screen,html.Screen,2_1_1_1_53,2022-02-03T14:31:52.374Z,,,,,,,,,,,,,,,,,54,,,,,,,,,,,,,,238.53999999404186,,response,,,,100,,,,,,,Space,keypress(Space),,,,,,,,-- --- ---- --- ------ ----- ------- ---- -- --- ------- --<br>------- ---------- ------ -- ----- -- ----- -- ---- ------<br>--- ----- --- --- ------ -------- ----- --- ------ ----- --<br>----- ----- ---------- --- --- ------ ------ ---- -- ------<br>------- --- ------ ----- --- ---- ------- -- ---- --- of<br>------- ------,201222,201221.09999999404,200966.152,200978.39999997616,200982.56,201232.948,,53,of
screen,html.Screen,2_1_1_1_54,2022-02-03T14:31:52.701Z,,,,,,,,,,,,,,,,,54,,,,,,,,,,,,,,315.6519999940356,,response,,,,100,,,,,,,Space,keypress(Space),,,,,,,,-- --- ---- --- ------ ----- ------- ---- -- --- ------- --<br>------- ---------- ------ -- ----- -- ----- -- ---- ------<br>--- ----- --- --- ------ -------- ----- --- ------ ----- --<br>----- ----- ---------- --- --- ------ ------ ---- -- ------<br>------- --- ------ ----- --- ---- ------- -- ---- --- --<br>raising ------,201549.39999997616,201548.59999999404,201216.243,201222.09999999404,201232.948,201566.149,,54,raising
screen,html.Screen,2_1_1_1_55,2022-02-03T14:31:52.996Z,,,,,,,,,,,,,,,,,54,,,,,,,,,,,,,,277.1509999821137,,response,,,,100,,,,,,,Space,keypress(Space),,,,,,,,-- --- ---- --- ------ ----- ------- ---- -- --- ------- --<br>------- ---------- ------ -- ----- -- ----- -- ---- ------<br>--- ----- --- --- ------ -------- ----- --- ------ ----- --<br>----- ----- ---------- --- --- ------ ------ ---- -- ------<br>------- --- ------ ----- --- ---- ------- -- ---- --- --<br>------- money.,201843.89999997616,201843.29999998212,201549.376,201549.59999999404,201566.149,201849.595,,55,money.
Item 100,flow.Loop,2_1_1_1,2022-02-03T14:31:52.996Z,,,,,,,,,,,,,,,,,,,,,,,,,,,,,,,16683.498999982112,,completion,,,,,A,,,,,,,,,,,silence,,,,,201844.19999998808,201843.29999998212,185143.525,185144.59999999404,185159.801,201849.595,,,
Question 1,html.Screen,2_1_1_2,2022-02-03T14:31:55.817Z,,,,,,,,,,,,,,,,,,,,,,,,,,,,true,TRUE,,2813.7049999821174,,response,,,,100,A,,,,,,TRUE,click #choice-1,,,,silence,,,,,204664.79999998212,204663.29999998212,201833.128,201844.29999998212,201849.595,204667.314,,,
Question 2,html.Screen,2_1_1_3,2022-02-03T14:31:57.663Z,,,,,,,,,,,,,,,,,,,,,,,,,,,,false,FALSE,,1842.185999999987,,response,,,,100,A,,,,,,TRUE,click #choice-1,,,,silence,,,,,206511,206509.5,204650.628,204665,204667.314,206519.649,,,
Item 100,flow.Sequence,2_1_1,2022-02-03T14:31:57.663Z,,,,,,,,,,,,,,,,,,,,,,,,,,,,,,,31351.734999999986,,completion,,,,,,,,,,,,,,,,,,,,,206511.19999998808,206509.5,175139.311,175154.79999998212,175157.765,206519.649,,,
End of Practice,html.Page,2_1_2,2022-02-03T14:32:17.662Z,,,,,,,,,,,,,,,,,,,,,,,,,,,,,,,20005.964000000007,,timeout,,,,,,,,,,,,,,,,,,,,,226510.29999998212,226509.338,206501.338,206511.29999998212,206519.649,226525.613,,,
Practice,flow.Sequence,2_1,2022-02-03T14:32:17.662Z,,,,,,,,,,,,,,,,,,,,,,,,,,,,,,,114360.75699999998,,completion,,,,,,,,,,,,,,,,,,,,,226510.5,226509.338,112131.884,112140.69999998808,112148.581,226525.613,,,
Trap_instruction,html.Page,2_2_0,2022-02-03T14:32:37.668Z,,,,,,,,,,,,,,,,,,,,,,,,,,,,,,,20007.727999999974,,timeout,,,,,,,,,,,,,,,,,,,,,246518,246517.013,226509.338,226510.59999999404,226525.613,246533.341,,,
trap_trial,html.Screen,2_2_1,2022-02-03T14:32:43.444Z,,,,,,,,,,,,,,,,,,,,,,,,,,,,true,1,,5759.159000000014,,response,,,,,,,,,,,1,click #choice-1,,,,,,,,,252293.89999997616,252292.5,246517.013,246518.19999998808,246533.341,252302.125,,,
end of trap trial,html.Page,2_2_2,2022-02-03T14:32:53.441Z,,,,,,,,,,,,,,,,,,,,,,,,,,,,,,,10003.906000000017,,timeout,,,,,,,,,,,,,,,,,,,,,262290.5,262289.366,252285.524,252294,252302.125,262306.031,,,
Trap 1,flow.Sequence,2_2,2022-02-03T14:32:53.441Z,,,,,,,,,,,,,,,,,,,,,,,,,,,,,,,35763.75299999997,,completion,,,,,,,,,,,,,,,,,,,,,262290.59999999404,262289.366,226509.338,226510.59999999404,226525.613,262306.031,,,
Standby,html.Page,2_3_0,2022-02-03T14:33:01.444Z,,,,,,,,,,,,,,,,,,,,,,,,,,,,,,,8003.097999999998,,timeout,,,,,,,,,,,,,,,,,,,,,270293.7999999821,270292.759,262289.366,262290.7999999821,262306.031,270309.129,,,
Holding screen,html.Screen,2_3_1_0_0,2022-02-03T14:33:08.447Z,,,,,,,,,,,,,,,,,,,,,,,,,,,,,,,7002.637999999977,,timeout,,,,,,,,,,,,,,,,,,,,,277296.39999997616,277295.431,270292.759,270294,270309.129,277311.767,,,
screen,html.Screen,2_3_1_0_1_0,2022-02-03T14:33:09.694Z,,,,,,,,,,,,,,,,,51,,,,,,,,,,,,,,1230.832999994047,,response,,,,13,A,,,,,,Space,keypress(Space),,,,silence,,,,American -------- --- --- ---- --- --- ------ -- --------<br>---- --------- --- ------- ------------ ---------- ---------<br>--- ---------- ------- ---------- ------- -- -------- ----<br>---- --- ------ ----- ------ -- ---- --- ----- -- - -------<br>-------- -- --- --- -- ----- ----------- ----- -----------<br>---- --- ---------- --- ---- --- -- ----------,278543.39999997616,278542.59999999404,277295.431,277296.6999999881,277311.767,278545.592,,0,American
screen,html.Screen,2_3_1_0_1_1,2022-02-03T14:33:10.064Z,,,,,,,,,,,,,,,,,51,,,,,,,,,,,,,,366.9079999999958,,response,,,,13,A,,,,,,Space,keypress(Space),,,,silence,,,,-------- industry --- --- ---- --- --- ------ -- --------<br>---- --------- --- ------- ------------ ---------- ---------<br>--- ---------- ------- ---------- ------- -- -------- ----<br>---- --- ------ ----- ------ -- ---- --- ----- -- - -------<br>-------- -- --- --- -- ----- ----------- ----- -----------<br>---- --- ---------- --- ---- --- -- ----------,278913.5,278912.5,278528.398,278543.59999999404,278545.592,278929.069,,1,industry
screen,html.Screen,2_3_1_0_1_2,2022-02-03T14:33:10.374Z,,,,,,,,,,,,,,,,,51,,,,,,,,,,,,,,294.1309999880614,,response,,,,13,A,,,,,,Space,keypress(Space),,,,silence,,,,-------- -------- may --- ---- --- --- ------ -- --------<br>---- --------- --- ------- ------------ ---------- ---------<br>--- ---------- ------- ---------- ------- -- -------- ----<br>---- --- ------ ----- ------ -- ---- --- ----- -- - -------<br>-------- -- --- --- -- ----- ----------- ----- -----------<br>---- --- ---------- --- ---- --- -- ----------,279223.89999997616,279223.1999999881,278912.595,278913.7999999821,278929.069,279229.188,,2,may
screen,html.Screen,2_3_1_0_1_3,2022-02-03T14:33:10.668Z,,,,,,,,,,,,,,,,,51,,,,,,,,,,,,,,287.81199999997625,,response,,,,13,A,,,,,,Space,keypress(Space),,,,silence,,,,-------- -------- --- not ---- --- --- ------ -- --------<br>---- --------- --- ------- ------------ ---------- ---------<br>--- ---------- ------- ---------- ------- -- -------- ----<br>---- --- ------ ----- ------ -- ---- --- ----- -- - -------<br>-------- -- --- --- -- ----- ----------- ----- -----------<br>---- --- ---------- --- ---- --- -- ----------,279518.1999999881,279517,279212.746,279224.09999999404,279229.188,279530.538,,3,not
screen,html.Screen,2_3_1_0_1_4,2022-02-03T14:33:11.021Z,,,,,,,,,,,,,,,,,51,,,,,,,,,,,,,,339.1619999880786,,response,,,,13,A,,,,,,Space,keypress(Space),,,,silence,,,,-------- -------- --- --- know --- --- ------ -- --------<br>---- --------- --- ------- ------------ ---------- ---------<br>--- ---------- ------- ---------- ------- -- -------- ----<br>---- --- ------ ----- ------ -- ---- --- ----- -- - -------<br>-------- -- --- --- -- ----- ----------- ----- -----------<br>---- --- ---------- --- ---- --- -- ----------,279870.59999999404,279869.6999999881,279512.496,279518.39999997616,279530.538,279879.785,,4,know
screen,html.Screen,2_3_1_0_1_5,2022-02-03T14:33:11.391Z,,,,,,,,,,,,,,,,,51,,,,,,,,,,,,,,360.4149999881047,,response,,,,13,A,,,,,,Space,keypress(Space),,,,silence,,,,"-------- -------- --- --- ---- it, --- ------ -- --------<br>---- --------- --- ------- ------------ ---------- ---------<br>--- ---------- ------- ---------- ------- -- -------- ----<br>---- --- ------ ----- ------ -- ---- --- ----- -- - -------<br>-------- -- --- --- -- ----- ----------- ----- -----------<br>---- --- ---------- --- ---- --- -- ----------",280241.09999999404,280240.1999999881,279863.681,279870.7999999821,279879.785,280246.233,,5,"it,"
screen,html.Screen,2_3_1_0_1_6,2022-02-03T14:33:11.708Z,,,,,,,,,,,,,,,,,51,,,,,,,,,,,,,,310.4669999880716,,response,,,,13,A,,,,,,Space,keypress(Space),,,,silence,,,,-------- -------- --- --- ---- --- but ------ -- --------<br>---- --------- --- ------- ------------ ---------- ---------<br>--- ---------- ------- ---------- ------- -- -------- ----<br>---- --- ------ ----- ------ -- ---- --- ----- -- - -------<br>-------- -- --- --- -- ----- ----------- ----- -----------<br>---- --- ---------- --- ---- --- -- ----------,280557.5,280556.6999999881,280229.757,280241.2999999821,280246.233,280563.643,,6,but
screen,html.Screen,2_3_1_0_1_7,2022-02-03T14:33:12.049Z,,,,,,,,,,,,,,,,,51,,,,,,,,,,,,,,334.2569999761763,,response,,,,13,A,,,,,,Space,keypress(Space),,,,silence,,,,-------- -------- --- --- ---- --- --- debate -- --------<br>---- --------- --- ------- ------------ ---------- ---------<br>--- ---------- ------- ---------- ------- -- -------- ----<br>---- --- ------ ----- ------ -- ---- --- ----- -- - -------<br>-------- -- --- --- -- ----- ----------- ----- -----------<br>---- --- ---------- --- ---- --- -- ----------,280898.7999999821,280897.89999997616,280546.253,280557.59999999404,280563.643,280913.122,,7,debate
screen,html.Screen,2_3_1_0_1_8,2022-02-03T14:33:12.367Z,,,,,,,,,,,,,,,,,51,,,,,,,,,,,,,,302.3780000000261,,response,,,,13,A,,,,,,Space,keypress(Space),,,,silence,,,,-------- -------- --- --- ---- --- --- ------ in --------<br>---- --------- --- ------- ------------ ---------- ---------<br>--- ---------- ------- ---------- ------- -- -------- ----<br>---- --- ------ ----- ------ -- ---- --- ----- -- - -------<br>-------- -- --- --- -- ----- ----------- ----- -----------<br>---- --- ---------- --- ---- --- -- ----------,281216.39999997616,281215.5,280896.396,280898.7999999821,280913.122,281229.993,,8,in
screen,html.Screen,2_3_1_0_1_9,2022-02-03T14:33:12.831Z,,,,,,,,,,,,,,,,,51,,,,,,,,,,,,,,449.80699998210184,,response,,,,13,A,,,,,,Space,keypress(Space),,,,silence,,,,-------- -------- --- --- ---- --- --- ------ -- Congress<br>---- --------- --- ------- ------------ ---------- ---------<br>--- ---------- ------- ---------- ------- -- -------- ----<br>---- --- ------ ----- ------ -- ---- --- ----- -- - -------<br>-------- -- --- --- -- ----- ----------- ----- -----------<br>---- --- ---------- --- ---- --- -- ----------,281680.59999999404,281679.7999999821,281213.502,281216.5,281229.993,281696.768,,9,Congress
screen,html.Screen,2_3_1_0_1_10,2022-02-03T14:33:13.149Z,,,,,,,,,,,,,,,,,51,,,,,,,,,,,,,,300.8319999940577,,response,,,,13,A,,,,,,Space,keypress(Space),,,,silence,,,,-------- -------- --- --- ---- --- --- ------ -- --------<br>over --------- --- ------- ------------ ---------- ---------<br>--- ---------- ------- ---------- ------- -- -------- ----<br>---- --- ------ ----- ------ -- ---- --- ----- -- - -------<br>-------- -- --- --- -- ----- ----------- ----- -----------<br>---- --- ---------- --- ---- --- -- ----------,281998.59999999404,281997.59999999404,281680.273,281680.6999999881,281696.768,282013.618,,10,over
screen,html.Screen,2_3_1_0_1_11,2022-02-03T14:33:13.469Z,,,,,,,,,,,,,,,,,51,,,,,,,,,,,,,,304.88199999998324,,response,,,,13,A,,,,,,Space,keypress(Space),,,,silence,,,,-------- -------- --- --- ---- --- --- ------ -- --------<br>---- reforming --- ------- ------------ ---------- ---------<br>--- ---------- ------- ---------- ------- -- -------- ----<br>---- --- ------ ----- ------ -- ---- --- ----- -- - -------<br>-------- -- --- --- -- ----- ----------- ----- -----------<br>---- --- ---------- --- ---- --- -- ----------,282319.2999999821,282318.5,281996.744,281998.6999999881,282013.618,282330.643,,11,reforming
screen,html.Screen,2_3_1_0_1_12,2022-02-03T14:33:13.797Z,,,,,,,,,,,,,,,,,51,,,,,,,,,,,,,,315.35700000001816,,response,,,,13,A,,,,,,Space,keypress(Space),,,,silence,,,,-------- -------- --- --- ---- --- --- ------ -- --------<br>---- --------- the ------- ------------ ---------- ---------<br>--- ---------- ------- ---------- ------- -- -------- ----<br>---- --- ------ ----- ------ -- ---- --- ----- -- - -------<br>-------- -- --- --- -- ----- ----------- ----- -----------<br>---- --- ---------- --- ---- --- -- ----------,282646.89999997616,282646,282313.92,282319.5,282330.643,282663.826,,12,the
screen,html.Screen,2_3_1_0_1_13,2022-02-03T14:33:14.171Z,,,,,,,,,,,,,,,,,51,,,,,,,,,,,,,,356.0739999761572,,response,,,,13,A,,,,,,Space,keypress(Space),,,,silence,,,,-------- -------- --- --- ---- --- --- ------ -- --------<br>---- --------- --- federal ------------ ---------- ---------<br>--- ---------- ------- ---------- ------- -- -------- ----<br>---- --- ------ ----- ------ -- ---- --- ----- -- - -------<br>-------- -- --- --- -- ----- ----------- ----- -----------<br>---- --- ---------- --- ---- --- -- ----------,283020.6999999881,283019.89999997616,282647.358,282647.09999999404,282663.826,283030.576,,13,federal
screen,html.Screen,2_3_1_0_1_14,2022-02-03T14:33:14.782Z,,,,,,,,,,,,,,,,,51,,,,,,,,,,,,,,600.2239999821177,,response,,,,13,A,,,,,,Space,keypress(Space),,,,silence,,,,-------- -------- --- --- ---- --- --- ------ -- --------<br>---- --------- --- ------- government's ---------- ---------<br>--- ---------- ------- ---------- ------- -- -------- ----<br>---- --- ------ ----- ------ -- ---- --- ----- -- - -------<br>-------- -- --- --- -- ----- ----------- ----- -----------<br>---- --- ---------- --- ---- --- -- ----------,283631.59999999404,283630.7999999821,283013.776,283020.7999999821,283030.576,283647.584,,14,government's
screen,html.Screen,2_3_1_0_1_15,2022-02-03T14:33:15.643Z,,,,,,,,,,,,,,,,,51,,,,,,,,,,,,,,844.6159999881056,,response,,,,13,A,,,,,,Space,keypress(Space),,,,silence,,,,-------- -------- --- --- ---- --- --- ------ -- --------<br>---- --------- --- ------- ------------ regulatory ---------<br>--- ---------- ------- ---------- ------- -- -------- ----<br>---- --- ------ ----- ------ -- ---- --- ----- -- - -------<br>-------- -- --- --- -- ----- ----------- ----- -----------<br>---- --- ---------- --- ---- --- -- ----------,284493.09999999404,284492.1999999881,283630.938,283631.6999999881,283647.584,284497.869,,15,regulatory
screen,html.Screen,2_3_1_0_1_16,2022-02-03T14:33:16.091Z,,,,,,,,,,,,,,,,,51,,,,,,,,,,,,,,442.13099999999395,,response,,,,13,A,,,,,,Space,keypress(Space),,,,silence,,,,-------- -------- --- --- ---- --- --- ------ -- --------<br>---- --------- --- ------- ------------ ---------- apparatus<br>--- ---------- ------- ---------- ------- -- -------- ----<br>---- --- ------ ----- ------ -- ---- --- ----- -- - -------<br>-------- -- --- --- -- ----- ----------- ----- -----------<br>---- --- ---------- --- ---- --- -- ----------,284940.7999999821,284940,284481.024,284493.1999999881,284497.869,284948.002,,16,apparatus
screen,html.Screen,2_3_1_0_1_17,2022-02-03T14:33:16.460Z,,,,,,,,,,,,,,,,,51,,,,,,,,,,,,,,360.89799997617956,,response,,,,13,A,,,,,,Space,keypress(Space),,,,silence,,,,-------- -------- --- --- ---- --- --- ------ -- --------<br>---- --------- --- ------- ------------ ---------- ---------<br>may ---------- ------- ---------- ------- -- -------- ----<br>---- --- ------ ----- ------ -- ---- --- ----- -- - -------<br>-------- -- --- --- -- ----- ----------- ----- -----------<br>---- --- ---------- --- ---- --- -- ----------,285309.7999999821,285308.89999997616,284931.513,284941,284948.002,285314.882,,17,may
screen,html.Screen,2_3_1_0_1_18,2022-02-03T14:33:16.803Z,,,,,,,,,,,,,,,,,51,,,,,,,,,,,,,,337.61800000001676,,response,,,,13,A,,,,,,Space,keypress(Space),,,,silence,,,,-------- -------- --- --- ---- --- --- ------ -- --------<br>---- --------- --- ------- ------------ ---------- ---------<br>--- profoundly ------- ---------- ------- -- -------- ----<br>---- --- ------ ----- ------ -- ---- --- ----- -- - -------<br>-------- -- --- --- -- ----- ----------- ----- -----------<br>---- --- ---------- --- ---- --- -- ----------,285653.2999999821,285652.5,285298.014,285310,285314.882,285665.272,,18,profoundly
screen,html.Screen,2_3_1_0_1_19,2022-02-03T14:33:17.434Z,,,,,,,,,,,,,,,,,51,,,,,,,,,,,,,,618.0279999821214,,response,,,,13,A,,,,,,Space,keypress(Space),,,,silence,,,,-------- -------- --- --- ---- --- --- ------ -- --------<br>---- --------- --- ------- ------------ ---------- ---------<br>--- ---------- improve ---------- ------- -- -------- ----<br>---- --- ------ ----- ------ -- ---- --- ----- -- - -------<br>-------- -- --- --- -- ----- ----------- ----- -----------<br>---- --- ---------- --- ---- --- -- ----------,286284.09999999404,286283.2999999821,285648.116,285653.5,285665.272,286298.585,,19,improve
screen,html.Screen,2_3_1_0_1_20,2022-02-03T14:33:17.747Z,,,,,,,,,,,,,,,,,51,,,,,,,,,,,,,,297.6149999880581,,response,,,,13,A,,,,,,Space,keypress(Space),,,,silence,,,,-------- -------- --- --- ---- --- --- ------ -- --------<br>---- --------- --- ------- ------------ ---------- ---------<br>--- ---------- ------- companies' ------- -- -------- ----<br>---- --- ------ ----- ------ -- ---- --- ----- -- - -------<br>-------- -- --- --- -- ----- ----------- ----- -----------<br>---- --- ---------- --- ---- --- -- ----------,286596.89999997616,286596.1999999881,286281.636,286284.1999999881,286298.585,286631.197,,20,companies'
screen,html.Screen,2_3_1_0_1_21,2022-02-03T14:33:18.109Z,,,,,,,,,,,,,,,,,51,,,,,,,,,,,,,,327.30300000001444,,response,,,,13,A,,,,,,Space,keypress(Space),,,,silence,,,,-------- -------- --- --- ---- --- --- ------ -- --------<br>---- --------- --- ------- ------------ ---------- ---------<br>--- ---------- ------- ---------- ability -- -------- ----<br>---- --- ------ ----- ------ -- ---- --- ----- -- - -------<br>-------- -- --- --- -- ----- ----------- ----- -----------<br>---- --- ---------- --- ---- --- -- ----------,286959.1999999881,286958.5,286582.11,286597,286631.197,286965.425,,21,ability
screen,html.Screen,2_3_1_0_1_22,2022-02-03T14:33:18.454Z,,,,,,,,,,,,,,,,,51,,,,,,,,,,,,,,337.7749999880907,,response,,,,13,A,,,,,,Space,keypress(Space),,,,silence,,,,-------- -------- --- --- ---- --- --- ------ -- --------<br>---- --------- --- ------- ------------ ---------- ---------<br>--- ---------- ------- ---------- ------- to -------- ----<br>---- --- ------ ----- ------ -- ---- --- ----- -- - -------<br>-------- -- --- --- -- ----- ----------- ----- -----------<br>---- --- ---------- --- ---- --- -- ----------,287304,287303.1999999881,286949.011,286959.2999999821,286965.425,287315.612,,22,to
screen,html.Screen,2_3_1_0_1_23,2022-02-03T14:33:18.833Z,,,,,,,,,,,,,,,,,51,,,,,,,,,,,,,,366.4879999940167,,response,,,,13,A,,,,,,Space,keypress(Space),,,,silence,,,,-------- -------- --- --- ---- --- --- ------ -- --------<br>---- --------- --- ------- ------------ ---------- ---------<br>--- ---------- ------- ---------- ------- -- survive. ----<br>---- --- ------ ----- ------ -- ---- --- ----- -- - -------<br>-------- -- --- --- -- ----- ----------- ----- -----------<br>---- --- ---------- --- ---- --- -- ----------,287682.89999997616,287682.09999999404,287298.974,287304.09999999404,287315.612,287699.244,,23,survive.
screen,html.Screen,2_3_1_0_1_24,2022-02-03T14:33:19.173Z,,,,,,,,,,,,,,,,,51,,,,,,,,,,,,,,322.6559999761521,,response,,,,13,A,,,,,,Space,keypress(Space),,,,silence,,,,-------- -------- --- --- ---- --- --- ------ -- --------<br>---- --------- --- ------- ------------ ---------- ---------<br>--- ---------- ------- ---------- ------- -- -------- This<br>---- --- ------ ----- ------ -- ---- --- ----- -- - -------<br>-------- -- --- --- -- ----- ----------- ----- -----------<br>---- --- ---------- --- ---- --- -- ----------,288022.6999999881,288021.89999997616,287682.705,287683.09999999404,287699.244,288032.56,,24,This
screen,html.Screen,2_3_1_0_1_25,2022-02-03T14:33:19.698Z,,,,,,,,,,,,,,,,,51,,,,,,,,,,,,,,514.5399999940419,,response,,,,13,A,,,,,,Space,keypress(Space),,,,silence,,,,-------- -------- --- --- ---- --- --- ------ -- --------<br>---- --------- --- ------- ------------ ---------- ---------<br>--- ---------- ------- ---------- ------- -- -------- ----<br>week --- ------ ----- ------ -- ---- --- ----- -- - -------<br>-------- -- --- --- -- ----- ----------- ----- -----------<br>---- --- ---------- --- ---- --- -- ----------,288547.6999999881,288547.09999999404,288015.739,288022.7999999821,288032.56,288578.335,,25,week
screen,html.Screen,2_3_1_0_1_26,2022-02-03T14:33:19.968Z,,,,,,,,,,,,,,,,,51,,,,,,,,,,,,,,238.86499998805812,,response,,,,13,A,,,,,,Space,keypress(Space),,,,silence,,,,-------- -------- --- --- ---- --- --- ------ -- --------<br>---- --------- --- ------- ------------ ---------- ---------<br>--- ---------- ------- ---------- ------- -- -------- ----<br>---- the ------ ----- ------ -- ---- --- ----- -- - -------<br>-------- -- --- --- -- ----- ----------- ----- -----------<br>---- --- ---------- --- ---- --- -- ----------,288818.09999999404,288817.1999999881,288532.484,288547.7999999821,288578.335,288833.144,,26,the
screen,html.Screen,2_3_1_0_1_27,2022-02-03T14:33:20.289Z,,,,,,,,,,,,,,,,,51,,,,,,,,,,,,,,305.35600000002887,,response,,,,13,A,,,,,,Space,keypress(Space),,,,silence,,,,-------- -------- --- --- ---- --- --- ------ -- --------<br>---- --------- --- ------- ------------ ---------- ---------<br>--- ---------- ------- ---------- ------- -- -------- ----<br>---- --- Senate ----- ------ -- ---- --- ----- -- - -------<br>-------- -- --- --- -- ----- ----------- ----- -----------<br>---- --- ---------- --- ---- --- -- ----------,289139.1999999881,289138.5,288816.191,288818.1999999881,288833.144,289149.684,,27,Senate
screen,html.Screen,2_3_1_0_1_28,2022-02-03T14:33:20.560Z,,,,,,,,,,,,,,,,,51,,,,,,,,,,,,,,259.21599997614976,,response,,,,13,A,,,,,,Space,keypress(Space),,,,silence,,,,-------- -------- --- --- ---- --- --- ------ -- --------<br>---- --------- --- ------- ------------ ---------- ---------<br>--- ---------- ------- ---------- ------- -- -------- ----<br>---- --- ------ seems ------ -- ---- --- ----- -- - -------<br>-------- -- --- --- -- ----- ----------- ----- -----------<br>---- --- ---------- --- ---- --- -- ----------,289409.59999999404,289408.89999997616,289133.205,289139.39999997616,289149.684,289416.583,,28,seems
screen,html.Screen,2_3_1_0_1_29,2022-02-03T14:33:20.875Z,,,,,,,,,,,,,,,,,51,,,,,,,,,,,,,,306.816999976174,,response,,,,13,A,,,,,,Space,keypress(Space),,,,silence,,,,-------- -------- --- --- ---- --- --- ------ -- --------<br>---- --------- --- ------- ------------ ---------- ---------<br>--- ---------- ------- ---------- ------- -- -------- ----<br>---- --- ------ ----- poised -- ---- --- ----- -- - -------<br>-------- -- --- --- -- ----- ----------- ----- -----------<br>---- --- ---------- --- ---- --- -- ----------,289724.39999997616,289723.39999997616,289399.988,289409.7999999821,289416.583,289733.146,,29,poised
screen,html.Screen,2_3_1_0_1_30,2022-02-03T14:33:21.210Z,,,,,,,,,,,,,,,,,51,,,,,,,,,,,,,,326.05399998807115,,response,,,,13,A,,,,,,Space,keypress(Space),,,,silence,,,,-------- -------- --- --- ---- --- --- ------ -- --------<br>---- --------- --- ------- ------------ ---------- ---------<br>--- ---------- ------- ---------- ------- -- -------- ----<br>---- --- ------ ----- ------ to ---- --- ----- -- - -------<br>-------- -- --- --- -- ----- ----------- ----- -----------<br>---- --- ---------- --- ---- --- -- ----------,290060,290059.1999999881,289716.416,289724.59999999404,289733.146,290066.646,,30,to
screen,html.Screen,2_3_1_0_1_31,2022-02-03T14:33:21.484Z,,,,,,,,,,,,,,,,,51,,,,,,,,,,,,,,266.9539999940316,,response,,,,13,A,,,,,,Space,keypress(Space),,,,silence,,,,-------- -------- --- --- ---- --- --- ------ -- --------<br>---- --------- --- ------- ------------ ---------- ---------<br>--- ---------- ------- ---------- ------- -- -------- ----<br>---- --- ------ ----- ------ -- join --- ----- -- - -------<br>-------- -- --- --- -- ----- ----------- ----- -----------<br>---- --- ---------- --- ---- --- -- ----------,290334.2999999821,290333.59999999404,290050.206,290060.1999999881,290066.646,290350.085,,31,join
screen,html.Screen,2_3_1_0_1_32,2022-02-03T14:33:21.804Z,,,,,,,,,,,,,,,,,51,,,,,,,,,,,,,,302.6149999880581,,response,,,,13,A,,,,,,Space,keypress(Space),,,,silence,,,,-------- -------- --- --- ---- --- --- ------ -- --------<br>---- --------- --- ------- ------------ ---------- ---------<br>--- ---------- ------- ---------- ------- -- -------- ----<br>---- --- ------ ----- ------ -- ---- the ----- -- - -------<br>-------- -- --- --- -- ----- ----------- ----- -----------<br>---- --- ---------- --- ---- --- -- ----------,290653.6999999881,290652.6999999881,290333.376,290334.5,290350.085,290666.98,,32,the
screen,html.Screen,2_3_1_0_1_33,2022-02-03T14:33:22.078Z,,,,,,,,,,,,,,,,,51,,,,,,,,,,,,,,259.91999997617677,,response,,,,13,A,,,,,,Space,keypress(Space),,,,silence,,,,-------- -------- --- --- ---- --- --- ------ -- --------<br>---- --------- --- ------- ------------ ---------- ---------<br>--- ---------- ------- ---------- ------- -- -------- ----<br>---- --- ------ ----- ------ -- ---- --- House -- - -------<br>-------- -- --- --- -- ----- ----------- ----- -----------<br>---- --- ---------- --- ---- --- -- ----------,290927.7999999821,290926.89999997616,290650.097,290653.7999999821,290666.98,290933.623,,33,House
screen,html.Screen,2_3_1_0_1_34,2022-02-03T14:33:22.384Z,,,,,,,,,,,,,,,,,51,,,,,,,,,,,,,,299.6769999820972,,response,,,,13,A,,,,,,Space,keypress(Space),,,,silence,,,,-------- -------- --- --- ---- --- --- ------ -- --------<br>---- --------- --- ------- ------------ ---------- ---------<br>--- ---------- ------- ---------- ------- -- -------- ----<br>---- --- ------ ----- ------ -- ---- --- ----- in - -------<br>-------- -- --- --- -- ----- ----------- ----- -----------<br>---- --- ---------- --- ---- --- -- ----------,291234,291233.2999999821,290916.913,290927.89999997616,290933.623,291250.486,,34,in
screen,html.Screen,2_3_1_0_1_35,2022-02-03T14:33:22.637Z,,,,,,,,,,,,,,,,,51,,,,,,,,,,,,,,236.21399998810375,,response,,,,13,A,,,,,,Space,keypress(Space),,,,silence,,,,-------- -------- --- --- ---- --- --- ------ -- --------<br>---- --------- --- ------- ------------ ---------- ---------<br>--- ---------- ------- ---------- ------- -- -------- ----<br>---- --- ------ ----- ------ -- ---- --- ----- -- a -------<br>-------- -- --- --- -- ----- ----------- ----- -----------<br>---- --- ---------- --- ---- --- -- ----------,291487.39999997616,291486.6999999881,291233.649,291234.1999999881,291250.486,291500.609,,35,a
screen,html.Screen,2_3_1_0_1_36,2022-02-03T14:33:23.047Z,,,,,,,,,,,,,,,,,51,,,,,,,,,,,,,,395.4909999940428,,response,,,,13,A,,,,,,Space,keypress(Space),,,,silence,,,,-------- -------- --- --- ---- --- --- ------ -- --------<br>---- --------- --- ------- ------------ ---------- ---------<br>--- ---------- ------- ---------- ------- -- -------- ----<br>---- --- ------ ----- ------ -- ---- --- ----- -- - massive<br>-------- -- --- --- -- ----- ----------- ----- -----------<br>---- --- ---------- --- ---- --- -- ----------,291897.09999999404,291896.09999999404,291483.815,291487.39999997616,291500.609,291900.724,,36,massive
screen,html.Screen,2_3_1_0_1_37,2022-02-03T14:33:23.425Z,,,,,,,,,,,,,,,,,51,,,,,,,,,,,,,,373.47599998809164,,response,,,,13,A,,,,,,Space,keypress(Space),,,,silence,,,,-------- -------- --- --- ---- --- --- ------ -- --------<br>---- --------- --- ------- ------------ ---------- ---------<br>--- ---------- ------- ---------- ------- -- -------- ----<br>---- --- ------ ----- ------ -- ---- --- ----- -- - -------<br>overhaul -- --- --- -- ----- ----------- ----- -----------<br>---- --- ---------- --- ---- --- -- ----------,292275.09999999404,292274.1999999881,291883.839,291897.1999999881,291900.724,292284.157,,37,overhaul
screen,html.Screen,2_3_1_0_1_38,2022-02-03T14:33:23.901Z,,,,,,,,,,,,,,,,,51,,,,,,,,,,,,,,465.8429999999935,,response,,,,13,A,,,,,,Space,keypress(Space),,,,silence,,,,-------- -------- --- --- ---- --- --- ------ -- --------<br>---- --------- --- ------- ------------ ---------- ---------<br>--- ---------- ------- ---------- ------- -- -------- ----<br>---- --- ------ ----- ------ -- ---- --- ----- -- - -------<br>-------- of --- --- -- ----- ----------- ----- -----------<br>---- --- ---------- --- ---- --- -- ----------,292750.6999999881,292750,292267.358,292275.1999999881,292284.157,292767.719,,38,of
screen,html.Screen,2_3_1_0_1_39,2022-02-03T14:33:24.240Z,,,,,,,,,,,,,,,,,51,,,,,,,,,,,,,,321.28100000001723,,response,,,,13,A,,,,,,Space,keypress(Space),,,,silence,,,,-------- -------- --- --- ---- --- --- ------ -- --------<br>---- --------- --- ------- ------------ ---------- ---------<br>--- ---------- ------- ---------- ------- -- -------- ----<br>---- --- ------ ----- ------ -- ---- --- ----- -- - -------<br>-------- -- the --- -- ----- ----------- ----- -----------<br>---- --- ---------- --- ---- --- -- ----------,293089.6999999881,293089,292750.825,292751,292767.719,293101.106,,39,the
