sender,sender_type,sender_id,timestamp,meta,,Blues,Classical,Country,Dance,Electronic,Folk,Gospel,Hip-Hop,Jazz,Latin,Musical/Film,New-age,Pop,Prolific_id,Provo_ID,R&B,Rap,Reggae,Religious,Rock,Soul,Swing,Traditional,age,artist_name,correct,correctResponse,distraction,duration,education,ended_on,familiarity,gender,headphone_check_performance,item,list,music_frequency,offensiveness,pleasantness,position_correct,preference,response,response_action,snippet_file,song_name,song_rating,sound,stimulus_1,stimulus_2,stimulus_3,text,time_commit,time_end,time_render,time_run,time_show,time_switch,url,word,word_ID
Prolific ID,html.Form,0,2022-02-02T17:55:32.264Z,"{""labjs_version"":""20.2.2"",""labjs_build"":{""flavor"":""production"",""commit"":""a25486e0c714a0ae2ce03ff94b7bb6896854dcfa""},""location"":""https://run.pavlovia.org/mvasilev/prolific2_music_e/"",""userAgent"":""Mozilla/5.0 (Windows NT 10.0; Win64; x64) AppleWebKit/537.36 (KHTML, like Gecko) Chrome/97.0.4692.99 Safari/537.36"",""platform"":""Win32"",""language"":""en-GB"",""locale"":""en-GB"",""timeZone"":""Europe/London"",""timezoneOffset"":0,""screen_width"":1536,""screen_height"":864,""scroll_width"":1536,""scroll_height"":674,""window_innerWidth"":1536,""window_innerHeight"":722,""devicePixelRatio"":1.25}",,,,,,,,,,,,,,,60dd23ff5cfa2b6861f2f131,,,,,,,,,,,,,,,5885.551000000371,,form submission,,,,,,,,,,,,,,,,,,,,,50783.09999999963,50782.40000000037,44851.174,44854.09999999963,44896.849,50806.949,{},,
Introduction,html.Screen,1_0,2022-02-02T17:55:37.511Z,,,,,,,,,,,,,,,,,,,,,,,,,,,,,,,5218.751000000186,,response,,,,,,,,,,,continue,click button,,,,,,,,,56030.09999999963,56025.700000000186,50774.112,50783.59999999963,50806.949,56034.53,,,
Volume calibration,html.Screen,1_1,2022-02-02T17:56:02.092Z,,,,,,,,,,,,,,,,,,,,,,,,,,,,,,,24570.870000000374,,response,,,,,,,,,,,continue,click button,,,,,,,,,80611.29999999981,80605.40000000037,56018.444,56030.299999999814,56034.53,80641.287,,,
Task instructions,html.Screen,1_2,2022-02-02T17:56:11.566Z,,,,,,,,,,,,,,,,,,,,,,,,,,,,,,,9441.81299999963,,response,,,,,,,,,,,continue,click button,,,,,,,,,90084.59999999963,90083.09999999963,80591.347,80611.70000000019,80641.287,90097.545,,,
Sounds,html.Screen,1_3_0_0,2022-02-02T17:56:15.812Z,,,,,,,,,,,,,,,,,,,,,,,,,,,,,,,4245.019,,timeout,,,,,,,,,2,,,,,,,,I,S,O,,94330.5,94326.212,90080.696,90084.90000000037,90097.545,94342.564,,,
Judgement,html.Screen,1_3_0_1,2022-02-02T17:56:21.352Z,,,,,,,,,,,,,,,,,,,,,,,,,,,,true,2,,5525.9360000000015,,response,,,,,,,,,2,,2,click #choice-2,,,,,I,S,O,,99870.5,99868.5,94326.212,94330.79999999981,94342.564,99903.162,,,
Trial,flow.Sequence,1_3_0,2022-02-02T17:56:21.355Z,,,,,,,,,,,,,,,,,,,,,,,,,,,,,,,9770.955000000002,,completion,,,,,,,,,2,,,,,,,,I,S,O,,99873.90000000037,99868.5,90080.696,90084.79999999981,90097.545,99903.162,,,
Sounds,html.Screen,1_3_1_0,2022-02-02T17:56:25.614Z,,,,,,,,,,,,,,,,,,,,,,,,,,,,,,,4245.304000000004,,timeout,,,,,,,,,3,,,,,,,,I,O,S,,104132.79999999981,104132.077,99886.452,99874.40000000037,99903.162,104148.466,,,
Judgement,html.Screen,1_3_1_1,2022-02-02T17:56:27.291Z,,,,,,,,,,,,,,,,,,,,,,,,,,,,true,3,,1659.5339999999997,,response,,,,,,,,,3,,3,click #choice-3,,,,,I,O,S,,105809.79999999981,105808,104132.077,104133.09999999963,104148.466,105813.368,,,
Trial,flow.Sequence,1_3_1,2022-02-02T17:56:27.291Z,,,,,,,,,,,,,,,,,,,,,,,,,,,,,,,5904.838000000003,,completion,,,,,,,,,3,,,,,,,,I,O,S,,105810.20000000019,105808,99886.452,99874.09999999963,99903.162,105813.368,,,
Sounds,html.Screen,1_3_2_0,2022-02-02T17:56:31.524Z,,,,,,,,,,,,,,,,,,,,,,,,,,,,,,,4245.595000000001,,timeout,,,,,,,,,1,,,,,,,,S,O,I,,110043.59999999963,110042.256,105797.046,105810.40000000037,105813.368,110058.963,,,
Judgement,html.Screen,1_3_2_1,2022-02-02T17:56:32.016Z,,,,,,,,,,,,,,,,,,,,,,,,,,,,true,1,,474.93700000036915,,response,,,,,,,,,1,,1,click #choice-1,,,,,S,O,I,,110535.59999999963,110533.90000000037,110042.256,110043.90000000037,110058.963,110541.419,,,
Trial,flow.Sequence,1_3_2,2022-02-02T17:56:32.017Z,,,,,,,,,,,,,,,,,,,,,,,,,,,,,,,4720.53200000037,,completion,,,,,,,,,1,,,,,,,,S,O,I,,110536.20000000019,110533.90000000037,105797.046,105810.29999999981,105813.368,110541.419,,,
Sounds,html.Screen,1_3_3_0,2022-02-02T17:56:36.253Z,,,,,,,,,,,,,,,,,,,,,,,,,,,,,,,4246.233000000007,,timeout,,,,,,,,,3,,,,,,,,O,I,S,,114771.70000000019,114770.228,110524.887,110536.40000000037,110541.419,114787.652,,,
Judgement,html.Screen,1_3_3_1,2022-02-02T17:56:37.160Z,,,,,,,,,,,,,,,,,,,,,,,,,,,,true,3,,889.8479999999981,,response,,,,,,,,,3,,3,click #choice-3,,,,,O,I,S,,115679.09999999963,115677.5,114770.228,114771.90000000037,114787.652,115685.926,,,
Trial,flow.Sequence,1_3_3,2022-02-02T17:56:37.160Z,,,,,,,,,,,,,,,,,,,,,,,,,,,,,,,5136.081000000006,,completion,,,,,,,,,3,,,,,,,,O,I,S,,115679.40000000037,115677.5,110524.887,110536.29999999981,110541.419,115685.926,,,
Sounds,html.Screen,1_3_4_0,2022-02-02T17:56:41.400Z,,,,,,,,,,,,,,,,,,,,,,,,,,,,,,,4245.194999999992,,timeout,,,,,,,,,2,,,,,,,,O,S,I,,119919.40000000037,119914.679,115669.232,115679.5,115685.926,119931.121,,,
Judgement,html.Screen,1_3_4_1,2022-02-02T17:56:42.018Z,,,,,,,,,,,,,,,,,,,,,,,,,,,,true,2,,604.4789999996283,,response,,,,,,,,,2,,2,click #choice-2,,,,,O,S,I,,120537.40000000037,120535.59999999963,119914.679,119919.59999999963,119931.121,120547.487,,,
Trial,flow.Sequence,1_3_4,2022-02-02T17:56:42.018Z,,,,,,,,,,,,,,,,,,,,,,,,,,,,,,,4849.673999999621,,completion,,,,,,,,,2,,,,,,,,O,S,I,,120537.59999999963,120535.59999999963,115669.232,115679.40000000037,115685.926,120547.487,,,
Sounds,html.Screen,1_3_5_0,2022-02-02T17:56:46.258Z,,,,,,,,,,,,,,,,,,,,,,,,,,,,,,,4245.388000000006,,timeout,,,,,,,,,1,,,,,,,,S,I,O,,124776.90000000037,124776.123,120530.693,120537.79999999981,120547.487,124792.875,,,
Judgement,html.Screen,1_3_5_1,2022-02-02T17:56:46.884Z,,,,,,,,,,,,,,,,,,,,,,,,,,,,true,1,,608.125,,response,,,,,,,,,1,,1,click #choice-1,,,,,S,I,O,,125403.29999999981,125401,124776.123,124777.09999999963,124792.875,125408.444,,,
Trial,flow.Sequence,1_3_5,2022-02-02T17:56:46.884Z,,,,,,,,,,,,,,,,,,,,,,,,,,,,,,,4853.513000000006,,completion,,,,,,,,,1,,,,,,,,S,I,O,,125403.5,125401,120530.693,120537.70000000019,120547.487,125408.444,,,
Task,flow.Loop,1_3,2022-02-02T17:56:46.892Z,,,,,,,,,,,,,,,,,,,,,,,,,,,,,,,35303.455,,completion,,,1,,,,,,,,,,,,,,,,,,125410.90000000037,125401,90080.696,90084.79999999981,90097.545,125408.444,,,
Trap,html.Screen,1_4,2022-02-02T17:56:46.894Z,,,,,,,,,,,,,,,,,,,,,,,,,,,,,,,NaN,,skipped,,,,,,,,,,,,,,,,,,,,,125412.79999999981,125401,,125412.40000000037,,125408.444,,,
Thanks,html.Screen,1_5,2022-02-02T17:56:51.177Z,,,,,,,,,,,,,,,,,,,,,,,,,,,,,,,4285.655999999624,,response,,,,,,,,,,,continue,click button,,,,,,,,,129695.70000000019,129694.09999999963,125392.098,125412.90000000037,125408.444,134199.35,,,
Headphone screening,flow.Sequence,1,2022-02-02T17:56:51.177Z,,,,,,,,,,,,,,,,,,,,,,,,,,,,,,,78887.15099999963,,completion,,,,,,,,,,,,,,,,,,,,,129696.40000000037,129694.09999999963,50774.112,50783.59999999963,50806.949,134199.35,,,
Instructions,html.Page,2_0,2022-02-02T17:57:14.171Z,,,,,,,,,,,,,,,,,,,,,,,,,,,,,,,18490.550000000367,,form submission,,,,,,,,,,,,,,,,,,,,,152690.40000000037,152689.90000000037,134182.169,134187,134199.35,152695.227,,,
Holding screen,html.Screen,2_1_0_0,2022-02-02T17:57:24.166Z,,,,,,,,,,,,,,,,,,,,,,,,,,,,,,,10038.943999999989,,timeout,,,,,,,,,,,,,,,,,,,,,162685.2999999998,162684.648,152678.709,152690.59999999963,152695.227,162734.171,,,
screen,html.Screen,2_1_0_1_0,2022-02-02T17:57:25.312Z,,,,,,,,,,,,,,,,,53,,,,,,,,,,,,,,1093.328999999998,,response,,,,99,,,,,,,Space,keypress(Space),,,,,,,,When -- ----- -- ------ - ------- --- ----------<br>------------- ------ ------ ---- ---- ------- ----- -- ----<br>-------- ------- -- ---------- --- - --- ----- ----- ----<br>---- --- --- ----- --- ---- ---- ------- ----- ---- -------<br>--- --- -- ----- -- --- ---- -- --- ---- -- ------ ------<br>--- ----- -- ----,163831.2999999998,163827.5,162684.648,162685.7000000002,162734.171,163860.687,,0,When
screen,html.Screen,2_1_0_1_1,2022-02-02T17:57:26.629Z,,,,,,,,,,,,,,,,,53,,,,,,,,,,,,,,1286.513000000181,,response,,,,99,,,,,,,Space,keypress(Space),,,,,,,,---- it ----- -- ------ - ------- --- ----------<br>------------- ------ ------ ---- ---- ------- ----- -- ----<br>-------- ------- -- ---------- --- - --- ----- ----- ----<br>---- --- --- ----- --- ---- ---- ------- ----- ---- -------<br>--- --- -- ----- -- --- ---- -- --- ---- -- ------ ------<br>--- ----- -- ----,165148,165147.2000000002,163816.652,163831.5,163860.687,165165.3,,1,it
screen,html.Screen,2_1_0_1_2,2022-02-02T17:57:27.035Z,,,,,,,,,,,,,,,,,53,,,,,,,,,,,,,,387.7999999996391,,response,,,,99,,,,,,,Space,keypress(Space),,,,,,,,---- -- comes -- ------ - ------- --- ----------<br>------------- ------ ------ ---- ---- ------- ----- -- ----<br>-------- ------- -- ---------- --- - --- ----- ----- ----<br>---- --- --- ----- --- ---- ---- ------- ----- ---- -------<br>--- --- -- ----- -- --- ---- -- --- ---- -- ------ ------<br>--- ----- -- ----,165554,165553.09999999963,165148.804,165148.2000000002,165165.3,165564.843,,2,comes
screen,html.Screen,2_1_0_1_3,2022-02-02T17:57:27.391Z,,,,,,,,,,,,,,,,,53,,,,,,,,,,,,,,343.8570000001928,,response,,,,99,,,,,,,Space,keypress(Space),,,,,,,,---- -- ----- to ------ - ------- --- ----------<br>------------- ------ ------ ---- ---- ------- ----- -- ----<br>-------- ------- -- ---------- --- - --- ----- ----- ----<br>---- --- --- ----- --- ---- ---- ------- ----- ---- -------<br>--- --- -- ----- -- --- ---- -- --- ---- -- ------ ------<br>--- ----- -- ----,165909.59999999963,165908.7000000002,165548.14,165554.09999999963,165564.843,165914.031,,3,to
screen,html.Screen,2_1_0_1_4,2022-02-02T17:57:28.005Z,,,,,,,,,,,,,,,,,53,,,,,,,,,,,,,,609.6690000001981,,response,,,,99,,,,,,,Space,keypress(Space),,,,,,,,---- -- ----- -- having - ------- --- ----------<br>------------- ------ ------ ---- ---- ------- ----- -- ----<br>-------- ------- -- ---------- --- - --- ----- ----- ----<br>---- --- --- ----- --- ---- ---- ------- ----- ---- -------<br>--- --- -- ----- -- --- ---- -- --- ---- -- ------ ------<br>--- ----- -- ----,166524.2999999998,166523.7000000002,165897.527,165909.90000000037,165914.031,166530.084,,4,having
screen,html.Screen,2_1_0_1_5,2022-02-02T17:57:28.369Z,,,,,,,,,,,,,,,,,53,,,,,,,,,,,,,,357.0159999996249,,response,,,,99,,,,,,,Space,keypress(Space),,,,,,,,---- -- ----- -- ------ a ------- --- ----------<br>------------- ------ ------ ---- ---- ------- ----- -- ----<br>-------- ------- -- ---------- --- - --- ----- ----- ----<br>---- --- --- ----- --- ---- ---- ------- ----- ---- -------<br>--- --- -- ----- -- --- ---- -- --- ---- -- ------ ------<br>--- ----- -- ----,166888,166887.09999999963,166513.943,166524.40000000037,166530.084,166896.469,,5,a
screen,html.Screen,2_1_0_1_6,2022-02-02T17:57:28.844Z,,,,,,,,,,,,,,,,,53,,,,,,,,,,,,,,465.1309999996156,,response,,,,99,,,,,,,Space,keypress(Space),,,,,,,,---- -- ----- -- ------ - lasting --- ----------<br>------------- ------ ------ ---- ---- ------- ----- -- ----<br>-------- ------- -- ---------- --- - --- ----- ----- ----<br>---- --- --- ----- --- ---- ---- ------- ----- ---- -------<br>--- --- -- ----- -- --- ---- -- --- ---- -- ------ ------<br>--- ----- -- ----,167362.59999999963,167361.59999999963,166880.119,166888.2000000002,166896.469,167379.518,,6,lasting
screen,html.Screen,2_1_0_1_7,2022-02-02T17:57:29.191Z,,,,,,,,,,,,,,,,,53,,,,,,,,,,,,,,329.0819999996165,,response,,,,99,,,,,,,Space,keypress(Space),,,,,,,,---- -- ----- -- ------ - ------- and ----------<br>------------- ------ ------ ---- ---- ------- ----- -- ----<br>-------- ------- -- ---------- --- - --- ----- ----- ----<br>---- --- --- ----- --- ---- ---- ------- ----- ---- -------<br>--- --- -- ----- -- --- ---- -- --- ---- -- ------ ------<br>--- ----- -- ----,167709.59999999963,167708.59999999963,167362.525,167362.7999999998,167379.518,167712.079,,7,and
screen,html.Screen,2_1_0_1_8,2022-02-02T17:57:29.739Z,,,,,,,,,,,,,,,,,53,,,,,,,,,,,,,,545.2209999998158,,response,,,,99,,,,,,,Space,keypress(Space),,,,,,,,---- -- ----- -- ------ - ------- --- fulfilling<br>------------- ------ ------ ---- ---- ------- ----- -- ----<br>-------- ------- -- ---------- --- - --- ----- ----- ----<br>---- --- --- ----- --- ---- ---- ------- ----- ---- -------<br>--- --- -- ----- -- --- ---- -- --- ---- -- ------ ------<br>--- ----- -- ----,168258.2999999998,168257.2999999998,167695.734,167709.7999999998,167712.079,168261.458,,8,fulfilling
screen,html.Screen,2_1_0_1_9,2022-02-02T17:57:31.256Z,,,,,,,,,,,,,,,,,53,,,,,,,,,,,,,,1512.242000000173,,response,,,,99,,,,,,,Space,keypress(Space),,,,,,,,"---- -- ----- -- ------ - ------- --- ----------<br>relationship, ------ ------ ---- ---- ------- ----- -- ----<br>-------- ------- -- ---------- --- - --- ----- ----- ----<br>---- --- --- ----- --- ---- ---- ------- ----- ---- -------<br>--- --- -- ----- -- --- ---- -- --- ---- -- ------ ------<br>--- ----- -- ----",169774.7000000002,169773.7000000002,168245.393,168258.5,168261.458,169795.838,,9,"relationship,"
screen,html.Screen,2_1_0_1_10,2022-02-02T17:57:31.679Z,,,,,,,,,,,,,,,,,53,,,,,,,,,,,,,,401.5620000003837,,response,,,,99,,,,,,,Space,keypress(Space),,,,,,,,---- -- ----- -- ------ - ------- --- ----------<br>------------- common ------ ---- ---- ------- ----- -- ----<br>-------- ------- -- ---------- --- - --- ----- ----- ----<br>---- --- --- ----- --- ---- ---- ------- ----- ---- -------<br>--- --- -- ----- -- --- ---- -- --- ---- -- ------ ------<br>--- ----- -- ----,170198.2999999998,170197.40000000037,169760.535,169774.7999999998,169795.838,170209.742,,10,common
screen,html.Screen,2_1_0_1_11,2022-02-02T17:57:32.082Z,,,,,,,,,,,,,,,,,53,,,,,,,,,,,,,,389.9580000001879,,response,,,,99,,,,,,,Space,keypress(Space),,,,,,,,---- -- ----- -- ------ - ------- --- ----------<br>------------- ------ wisdom ---- ---- ------- ----- -- ----<br>-------- ------- -- ---------- --- - --- ----- ----- ----<br>---- --- --- ----- --- ---- ---- ------- ----- ---- -------<br>--- --- -- ----- -- --- ---- -- --- ---- -- ------ ------<br>--- ----- -- ----,170600.7000000002,170599.7000000002,170193.215,170198.5,170209.742,170609.226,,11,wisdom
screen,html.Screen,2_1_0_1_12,2022-02-02T17:57:32.516Z,,,,,,,,,,,,,,,,,53,,,,,,,,,,,,,,424.6740000003774,,response,,,,99,,,,,,,Space,keypress(Space),,,,,,,,---- -- ----- -- ------ - ------- --- ----------<br>------------- ------ ------ says ---- ------- ----- -- ----<br>-------- ------- -- ---------- --- - --- ----- ----- ----<br>---- --- --- ----- --- ---- ---- ------- ----- ---- -------<br>--- --- -- ----- -- --- ---- -- --- ---- -- ------ ------<br>--- ----- -- ----,171034.90000000037,171033.90000000037,170592.607,170600.7999999998,170609.226,171041.886,,12,says
screen,html.Screen,2_1_0_1_13,2022-02-02T17:57:33.217Z,,,,,,,,,,,,,,,,,53,,,,,,,,,,,,,,693.0140000003739,,response,,,,99,,,,,,,Space,keypress(Space),,,,,,,,---- -- ----- -- ------ - ------- --- ----------<br>------------- ------ ------ ---- that ------- ----- -- ----<br>-------- ------- -- ---------- --- - --- ----- ----- ----<br>---- --- --- ----- --- ---- ---- ------- ----- ---- -------<br>--- --- -- ----- -- --- ---- -- --- ---- -- ------ ------<br>--- ----- -- ----,171735.7999999998,171734.90000000037,171025.449,171035.09999999963,171041.886,171740.944,,13,that
screen,html.Screen,2_1_0_1_14,2022-02-02T17:57:33.678Z,,,,,,,,,,,,,,,,,53,,,,,,,,,,,,,,454.7560000001977,,response,,,,99,,,,,,,Space,keypress(Space),,,,,,,,---- -- ----- -- ------ - ------- --- ----------<br>------------- ------ ------ ---- ---- feeling ----- -- ----<br>-------- ------- -- ---------- --- - --- ----- ----- ----<br>---- --- --- ----- --- ---- ---- ------- ----- ---- -------<br>--- --- -- ----- -- --- ---- -- --- ---- -- ------ ------<br>--- ----- -- ----,172196.7999999998,172195.7000000002,171724.676,171736,171740.944,172207.561,,14,feeling
screen,html.Screen,2_1_0_1_15,2022-02-02T17:57:34.275Z,,,,,,,,,,,,,,,,,53,,,,,,,,,,,,,,585.0389999996405,,response,,,,99,,,,,,,Space,keypress(Space),,,,,,,,---- -- ----- -- ------ - ------- --- ----------<br>------------- ------ ------ ---- ---- ------- close -- ----<br>-------- ------- -- ---------- --- - --- ----- ----- ----<br>---- --- --- ----- --- ---- ---- ------- ----- ---- -------<br>--- --- -- ----- -- --- ---- -- --- ---- -- ------ ------<br>--- ----- -- ----,172793.7000000002,172792.59999999963,172191.019,172196.90000000037,172207.561,172806.921,,15,close
screen,html.Screen,2_1_0_1_16,2022-02-02T17:57:35.214Z,,,,,,,,,,,,,,,,,53,,,,,,,,,,,,,,924.8789999998116,,response,,,,99,,,,,,,Space,keypress(Space),,,,,,,,---- -- ----- -- ------ - ------- --- ----------<br>------------- ------ ------ ---- ---- ------- ----- to ----<br>-------- ------- -- ---------- --- - --- ----- ----- ----<br>---- --- --- ----- --- ---- ---- ------- ----- ---- -------<br>--- --- -- ----- -- --- ---- -- --- ---- -- ------ ------<br>--- ----- -- ----,173732.7999999998,173731.7999999998,172790.252,172793.7999999998,172806.921,173738.89,,16,to
screen,html.Screen,2_1_0_1_17,2022-02-02T17:57:35.676Z,,,,,,,,,,,,,,,,,53,,,,,,,,,,,,,,454.8100000001723,,response,,,,99,,,,,,,Space,keypress(Space),,,,,,,,---- -- ----- -- ------ - ------- --- ----------<br>------------- ------ ------ ---- ---- ------- ----- -- your<br>-------- ------- -- ---------- --- - --- ----- ----- ----<br>---- --- --- ----- --- ---- ---- ------- ----- ---- -------<br>--- --- -- ----- -- --- ---- -- --- ---- -- ------ ------<br>--- ----- -- ----,174194.7000000002,174193.7000000002,173722.542,173733,173738.89,174204.924,,17,your
screen,html.Screen,2_1_0_1_18,2022-02-02T17:57:36.111Z,,,,,,,,,,,,,,,,,53,,,,,,,,,,,,,,424.47600000037346,,response,,,,99,,,,,,,Space,keypress(Space),,,,,,,,---- -- ----- -- ------ - ------- --- ----------<br>------------- ------ ------ ---- ---- ------- ----- -- ----<br>romantic ------- -- ---------- --- - --- ----- ----- ----<br>---- --- --- ----- --- ---- ---- ------- ----- ---- -------<br>--- --- -- ----- -- --- ---- -- --- ---- -- ------ ------<br>--- ----- -- ----,174630.2999999998,174629.40000000037,174188.534,174194.7999999998,174204.924,174637.875,,18,romantic
screen,html.Screen,2_1_0_1_19,2022-02-02T17:57:36.944Z,,,,,,,,,,,,,,,,,53,,,,,,,,,,,,,,824.0250000003725,,response,,,,99,,,,,,,Space,keypress(Space),,,,,,,,---- -- ----- -- ------ - ------- --- ----------<br>------------- ------ ------ ---- ---- ------- ----- -- ----<br>-------- partner -- ---------- --- - --- ----- ----- ----<br>---- --- --- ----- --- ---- ---- ------- ----- ---- -------<br>--- --- -- ----- -- --- ---- -- --- ---- -- ------ ------<br>--- ----- -- ----,175462.90000000037,175461.90000000037,174621.536,174630.40000000037,174637.875,175470.226,,19,partner
screen,html.Screen,2_1_0_1_20,2022-02-02T17:57:37.271Z,,,,,,,,,,,,,,,,,53,,,,,,,,,,,,,,319.0739999998186,,response,,,,99,,,,,,,Space,keypress(Space),,,,,,,,---- -- ----- -- ------ - ------- --- ----------<br>------------- ------ ------ ---- ---- ------- ----- -- ----<br>-------- ------- is ---------- --- - --- ----- ----- ----<br>---- --- --- ----- --- ---- ---- ------- ----- ---- -------<br>--- --- -- ----- -- --- ---- -- --- ---- -- ------ ------<br>--- ----- -- ----,175790.2000000002,175789.2999999998,175453.988,175463.09999999963,175470.226,175803.536,,20,is
screen,html.Screen,2_1_0_1_21,2022-02-02T17:57:38.659Z,,,,,,,,,,,,,,,,,53,,,,,,,,,,,,,,1373.3640000003797,,response,,,,99,,,,,,,Space,keypress(Space),,,,,,,,---- -- ----- -- ------ - ------- --- ----------<br>------------- ------ ------ ---- ---- ------- ----- -- ----<br>-------- ------- -- paramount. --- - --- ----- ----- ----<br>---- --- --- ----- --- ---- ---- ------- ----- ---- -------<br>--- --- -- ----- -- --- ---- -- --- ---- -- ------ ------<br>--- ----- -- ----,177177.7999999998,177176.90000000037,175786.828,175790.40000000037,175803.536,177185.047,,21,paramount.
screen,html.Screen,2_1_0_1_22,2022-02-02T17:57:39.422Z,,,,,,,,,,,,,,,,,53,,,,,,,,,,,,,,755.3530000003811,,response,,,,99,,,,,,,Space,keypress(Space),,,,,,,,---- -- ----- -- ------ - ------- --- ----------<br>------------- ------ ------ ---- ---- ------- ----- -- ----<br>-------- ------- -- ---------- But - --- ----- ----- ----<br>---- --- --- ----- --- ---- ---- ------- ----- ---- -------<br>--- --- -- ----- -- --- ---- -- --- ---- -- ------ ------<br>--- ----- -- ----,177941.2000000002,177940.40000000037,177168.874,177177.90000000037,177185.047,177951.89,,22,But
screen,html.Screen,2_1_0_1_23,2022-02-02T17:57:39.843Z,,,,,,,,,,,,,,,,,53,,,,,,,,,,,,,,409.01000000035856,,response,,,,99,,,,,,,Space,keypress(Space),,,,,,,,---- -- ----- -- ------ - ------- --- ----------<br>------------- ------ ------ ---- ---- ------- ----- -- ----<br>-------- ------- -- ---------- --- a --- ----- ----- ----<br>---- --- --- ----- --- ---- ---- ------- ----- ---- -------<br>--- --- -- ----- -- --- ---- -- --- ---- -- ------ ------<br>--- ----- -- ----,178362.09999999963,178360.90000000037,177934.318,177941.5,177951.89,178367.116,,23,a
screen,html.Screen,2_1_0_1_24,2022-02-02T17:57:40.550Z,,,,,,,,,,,,,,,,,53,,,,,,,,,,,,,,701.0840000001772,,response,,,,99,,,,,,,Space,keypress(Space),,,,,,,,---- -- ----- -- ------ - ------- --- ----------<br>------------- ------ ------ ---- ---- ------- ----- -- ----<br>-------- ------- -- ---------- --- - new ----- ----- ----<br>---- --- --- ----- --- ---- ---- ------- ----- ---- -------<br>--- --- -- ----- -- --- ---- -- --- ---- -- ------ ------<br>--- ----- -- ----,179069.2000000002,179068.2000000002,178350.673,178362.40000000037,178367.116,179083.352,,24,new
screen,html.Screen,2_1_0_1_25,2022-02-02T17:57:41.229Z,,,,,,,,,,,,,,,,,53,,,,,,,,,,,,,,663.6479999999865,,response,,,,99,,,,,,,Space,keypress(Space),,,,,,,,---- -- ----- -- ------ - ------- --- ----------<br>------------- ------ ------ ---- ---- ------- ----- -- ----<br>-------- ------- -- ---------- --- - --- study ----- ----<br>---- --- --- ----- --- ---- ---- ------- ----- ---- -------<br>--- --- -- ----- -- --- ---- -- --- ---- -- ------ ------<br>--- ----- -- ----,179748.2000000002,179747,179066.848,179069.40000000037,179083.352,179782.584,,25,study
screen,html.Screen,2_1_0_1_26,2022-02-02T17:57:42.103Z,,,,,,,,,,,,,,,,,53,,,,,,,,,,,,,,838.4159999999974,,response,,,,99,,,,,,,Space,keypress(Space),,,,,,,,---- -- ----- -- ------ - ------- --- ----------<br>------------- ------ ------ ---- ---- ------- ----- -- ----<br>-------- ------- -- ---------- --- - --- ----- finds ----<br>---- --- --- ----- --- ---- ---- ------- ----- ---- -------<br>--- --- -- ----- -- --- ---- -- --- ---- -- ------ ------<br>--- ----- -- ----,180622.2000000002,180621,179765.919,179748.2999999998,179782.584,180631.318,,26,finds
screen,html.Screen,2_1_0_1_27,2022-02-02T17:57:42.564Z,,,,,,,,,,,,,,,,,53,,,,,,,,,,,,,,450.98199999981443,,response,,,,99,,,,,,,Space,keypress(Space),,,,,,,,---- -- ----- -- ------ - ------- --- ----------<br>------------- ------ ------ ---- ---- ------- ----- -- ----<br>-------- ------- -- ---------- --- - --- ----- ----- that<br>---- --- --- ----- --- ---- ---- ------- ----- ---- -------<br>--- --- -- ----- -- --- ---- -- --- ---- -- ------ ------<br>--- ----- -- ----,181083.09999999963,181082.2999999998,180614.795,180622.2999999998,180631.318,181097.808,,27,that
screen,html.Screen,2_1_0_1_28,2022-02-02T17:57:42.954Z,,,,,,,,,,,,,,,,,53,,,,,,,,,,,,,,374.7919999996375,,response,,,,99,,,,,,,Space,keypress(Space),,,,,,,,---- -- ----- -- ------ - ------- --- ----------<br>------------- ------ ------ ---- ---- ------- ----- -- ----<br>-------- ------- -- ---------- --- - --- ----- ----- ----<br>it's --- --- ----- --- ---- ---- ------- ----- ---- -------<br>--- --- -- ----- -- --- ---- -- --- ---- -- ------ ------<br>--- ----- -- ----,181473.40000000037,181472.59999999963,181080.853,181083.2000000002,181097.808,181480.296,,28,it's
screen,html.Screen,2_1_0_1_29,2022-02-02T17:57:43.586Z,,,,,,,,,,,,,,,,,53,,,,,,,,,,,,,,623.6040000003704,,response,,,,99,,,,,,,Space,keypress(Space),,,,,,,,---- -- ----- -- ------ - ------- --- ----------<br>------------- ------ ------ ---- ---- ------- ----- -- ----<br>-------- ------- -- ---------- --- - --- ----- ----- ----<br>---- not --- ----- --- ---- ---- ------- ----- ---- -------<br>--- --- -- ----- -- --- ---- -- --- ---- -- ------ ------<br>--- ----- -- ----,182104.90000000037,182103.90000000037,181463.715,181473.59999999963,181480.296,182112.962,,29,not
screen,html.Screen,2_1_0_1_30,2022-02-02T17:57:44.076Z,,,,,,,,,,,,,,,,,53,,,,,,,,,,,,,,481.23800000018673,,response,,,,99,,,,,,,Space,keypress(Space),,,,,,,,---- -- ----- -- ------ - ------- --- ----------<br>------------- ------ ------ ---- ---- ------- ----- -- ----<br>-------- ------- -- ---------- --- - --- ----- ----- ----<br>---- --- how ----- --- ---- ---- ------- ----- ---- -------<br>--- --- -- ----- -- --- ---- -- --- ---- -- ------ ------<br>--- ----- -- ----,182595.09999999963,182594.2000000002,182096.375,182105.09999999963,182112.962,182612.39,,30,how
screen,html.Screen,2_1_0_1_31,2022-02-02T17:57:44.730Z,,,,,,,,,,,,,,,,,53,,,,,,,,,,,,,,635.9099999997998,,response,,,,99,,,,,,,Space,keypress(Space),,,,,,,,---- -- ----- -- ------ - ------- --- ----------<br>------------- ------ ------ ---- ---- ------- ----- -- ----<br>-------- ------- -- ---------- --- - --- ----- ----- ----<br>---- --- --- close --- ---- ---- ------- ----- ---- -------<br>--- --- -- ----- -- --- ---- -- --- ---- -- ------ ------<br>--- ----- -- ----,183249.2000000002,183248.2999999998,182595.816,182595.2999999998,182612.39,183262.115,,31,close
screen,html.Screen,2_1_0_1_32,2022-02-02T17:57:45.104Z,,,,,,,,,,,,,,,,,53,,,,,,,,,,,,,,359.5850000001956,,response,,,,99,,,,,,,Space,keypress(Space),,,,,,,,---- -- ----- -- ------ - ------- --- ----------<br>------------- ------ ------ ---- ---- ------- ----- -- ----<br>-------- ------- -- ---------- --- - --- ----- ----- ----<br>---- --- --- ----- you ---- ---- ------- ----- ---- -------<br>--- --- -- ----- -- --- ---- -- --- ---- -- ------ ------<br>--- ----- -- ----,183622.7000000002,183621.7000000002,183245.388,183249.2999999998,183262.115,183628.128,,32,you
screen,html.Screen,2_1_0_1_33,2022-02-02T17:57:45.798Z,,,,,,,,,,,,,,,,,53,,,,,,,,,,,,,,687.9719999996305,,response,,,,99,,,,,,,Space,keypress(Space),,,,,,,,---- -- ----- -- ------ - ------- --- ----------<br>------------- ------ ------ ---- ---- ------- ----- -- ----<br>-------- ------- -- ---------- --- - --- ----- ----- ----<br>---- --- --- ----- --- feel ---- ------- ----- ---- -------<br>--- --- -- ----- -- --- ---- -- --- ---- -- ------ ------<br>--- ----- -- ----,184316.90000000037,184316.09999999963,183611.694,183622.90000000037,183628.128,184327.615,,33,feel
screen,html.Screen,2_1_0_1_34,2022-02-02T17:57:46.343Z,,,,,,,,,,,,,,,,,53,,,,,,,,,,,,,,533.8850000000093,,response,,,,99,,,,,,,Space,keypress(Space),,,,,,,,---- -- ----- -- ------ - ------- --- ----------<br>------------- ------ ------ ---- ---- ------- ----- -- ----<br>-------- ------- -- ---------- --- - --- ----- ----- ----<br>---- --- --- ----- --- ---- that ------- ----- ---- -------<br>--- --- -- ----- -- --- ---- -- --- ---- -- ------ ------<br>--- ----- -- ----,184862.40000000037,184861.5,184311.111,184317.09999999963,184327.615,184877.006,,34,that
screen,html.Screen,2_1_0_1_35,2022-02-02T17:57:46.741Z,,,,,,,,,,,,,,,,,53,,,,,,,,,,,,,,381.7939999998198,,response,,,,99,,,,,,,Space,keypress(Space),,,,,,,,---- -- ----- -- ------ - ------- --- ----------<br>------------- ------ ------ ---- ---- ------- ----- -- ----<br>-------- ------- -- ---------- --- - --- ----- ----- ----<br>---- --- --- ----- --- ---- ---- matters ----- ---- -------<br>--- --- -- ----- -- --- ---- -- --- ---- -- ------ ------<br>--- ----- -- ----,185259.90000000037,185258.7999999998,184860.267,184862.59999999963,184877.006,185276.561,,35,matters
screen,html.Screen,2_1_0_1_36,2022-02-02T17:57:47.590Z,,,,,,,,,,,,,,,,,53,,,,,,,,,,,,,,831.1390000001993,,response,,,,99,,,,,,,Space,keypress(Space),,,,,,,,"---- -- ----- -- ------ - ------- --- ----------<br>------------- ------ ------ ---- ---- ------- ----- -- ----<br>-------- ------- -- ---------- --- - --- ----- ----- ----<br>---- --- --- ----- --- ---- ---- ------- most, ---- -------<br>--- --- -- ----- -- --- ---- -- --- ---- -- ------ ------<br>--- ----- -- ----",186108.7000000002,186107.7000000002,185259.788,185260.2000000002,185276.561,186125.644,,36,"most,"
screen,html.Screen,2_1_0_1_37,2022-02-02T17:57:48.015Z,,,,,,,,,,,,,,,,,53,,,,,,,,,,,,,,407.35599999999977,,response,,,,99,,,,,,,Space,keypress(Space),,,,,,,,---- -- ----- -- ------ - ------- --- ----------<br>------------- ------ ------ ---- ---- ------- ----- -- ----<br>-------- ------- -- ---------- --- - --- ----- ----- ----<br>---- --- --- ----- --- ---- ---- ------- ----- it's -------<br>--- --- -- ----- -- --- ---- -- --- ---- -- ------ ------<br>--- ----- -- ----,186533.90000000037,186533,186108.995,186108.90000000037,186125.644,186541.756,,37,it's
screen,html.Screen,2_1_0_1_38,2022-02-02T17:57:48.620Z,,,,,,,,,,,,,,,,,53,,,,,,,,,,,,,,596.4440000001923,,response,,,,99,,,,,,,Space,keypress(Space),,,,,,,,---- -- ----- -- ------ - ------- --- ----------<br>------------- ------ ------ ---- ---- ------- ----- -- ----<br>-------- ------- -- ---------- --- - --- ----- ----- ----<br>---- --- --- ----- --- ---- ---- ------- ----- ---- whether<br>--- --- -- ----- -- --- ---- -- --- ---- -- ------ ------<br>--- ----- -- ----,187139.2000000002,187138.2000000002,186524.826,186534.09999999963,186541.756,187172.193,,38,whether
screen,html.Screen,2_1_0_1_39,2022-02-02T17:57:49.220Z,,,,,,,,,,,,,,,,,53,,,,,,,,,,,,,,565.7070000003732,,response,,,,99,,,,,,,Space,keypress(Space),,,,,,,,---- -- ----- -- ------ - ------- --- ----------<br>------------- ------ ------ ---- ---- ------- ----- -- ----<br>-------- ------- -- ---------- --- - --- ----- ----- ----<br>---- --- --- ----- --- ---- ---- ------- ----- ---- -------<br>you --- -- ----- -- --- ---- -- --- ---- -- ------ ------<br>--- ----- -- ----,187738.90000000037,187737.90000000037,187124.464,187139.40000000037,187172.193,187762.409,,39,you
screen,html.Screen,2_1_0_1_40,2022-02-02T17:57:49.783Z,,,,,,,,,,,,,,,,,53,,,,,,,,,,,,,,538.8909999997995,,response,,,,99,,,,,,,Space,keypress(Space),,,,,,,,---- -- ----- -- ------ - ------- --- ----------<br>------------- ------ ------ ---- ---- ------- ----- -- ----<br>-------- ------- -- ---------- --- - --- ----- ----- ----<br>---- --- --- ----- --- ---- ---- ------- ----- ---- -------<br>--- are -- ----- -- --- ---- -- --- ---- -- ------ ------<br>--- ----- -- ----,188302.2000000002,188301.2999999998,187724,187739,187762.409,188306.143,,40,are
screen,html.Screen,2_1_0_1_41,2022-02-02T17:57:50.243Z,,,,,,,,,,,,,,,,,53,,,,,,,,,,,,,,454.9569999996165,,response,,,,99,,,,,,,Space,keypress(Space),,,,,,,,---- -- ----- -- ------ - ------- --- ----------<br>------------- ------ ------ ---- ---- ------- ----- -- ----<br>-------- ------- -- ---------- --- - --- ----- ----- ----<br>---- --- --- ----- --- ---- ---- ------- ----- ---- -------<br>--- --- as ----- -- --- ---- -- --- ---- -- ------ ------<br>--- ----- -- ----,188762,188761.09999999963,188290.056,188302.40000000037,188306.143,188772.35,,41,as
screen,html.Screen,2_1_0_1_42,2022-02-02T17:57:50.990Z,,,,,,,,,,,,,,,,,53,,,,,,,,,,,,,,735.7499999996217,,response,,,,99,,,,,,,Space,keypress(Space),,,,,,,,---- -- ----- -- ------ - ------- --- ----------<br>------------- ------ ------ ---- ---- ------- ----- -- ----<br>-------- ------- -- ---------- --- - --- ----- ----- ----<br>---- --- --- ----- --- ---- ---- ------- ----- ---- -------<br>--- --- -- close -- --- ---- -- --- ---- -- ------ ------<br>--- ----- -- ----,189508.90000000037,189508.09999999963,188756.116,188762.2000000002,188772.35,189521.904,,42,close
screen,html.Screen,2_1_0_1_43,2022-02-02T17:57:51.384Z,,,,,,,,,,,,,,,,,53,,,,,,,,,,,,,,378.6959999996179,,response,,,,99,,,,,,,Space,keypress(Space),,,,,,,,---- -- ----- -- ------ - ------- --- ----------<br>------------- ------ ------ ---- ---- ------- ----- -- ----<br>-------- ------- -- ---------- --- - --- ----- ----- ----<br>---- --- --- ----- --- ---- ---- ------- ----- ---- -------<br>--- --- -- ----- as --- ---- -- --- ---- -- ------ ------<br>--- ----- -- ----,189902.7999999998,189900.59999999963,189505.304,189509.2000000002,189521.904,189925.281,,43,as
screen,html.Screen,2_1_0_1_44,2022-02-02T17:57:52.019Z,,,,,,,,,,,,,,,,,53,,,,,,,,,,,,,,612.2190000000119,,response,,,,99,,,,,,,Space,keypress(Space),,,,,,,,---- -- ----- -- ------ - ------- --- ----------<br>------------- ------ ------ ---- ---- ------- ----- -- ----<br>-------- ------- -- ---------- --- - --- ----- ----- ----<br>---- --- --- ----- --- ---- ---- ------- ----- ---- -------<br>--- --- -- ----- -- you ---- -- --- ---- -- ------ ------<br>--- ----- -- ----,190538.40000000037,190537.5,189888.056,189902.7999999998,189925.281,190553.767,,44,you
screen,html.Screen,2_1_0_1_45,2022-02-02T17:57:52.499Z,,,,,,,,,,,,,,,,,53,,,,,,,,,,,,,,463.5329999998212,,response,,,,99,,,,,,,Space,keypress(Space),,,,,,,,---- -- ----- -- ------ - ------- --- ----------<br>------------- ------ ------ ---- ---- ------- ----- -- ----<br>-------- ------- -- ---------- --- - --- ----- ----- ----<br>---- --- --- ----- --- ---- ---- ------- ----- ---- -------<br>--- --- -- ----- -- --- want -- --- ---- -- ------ ------<br>--- ----- -- ----,191018.2000000002,191017.2999999998,190537.606,190538.59999999963,190553.767,191043.716,,45,want
screen,html.Screen,2_1_0_1_46,2022-02-02T17:57:53.102Z,,,,,,,,,,,,,,,,,53,,,,,,,,,,,,,,575.9840000002005,,response,,,,99,,,,,,,Space,keypress(Space),,,,,,,,---- -- ----- -- ------ - ------- --- ----------<br>------------- ------ ------ ---- ---- ------- ----- -- ----<br>-------- ------- -- ---------- --- - --- ----- ----- ----<br>---- --- --- ----- --- ---- ---- ------- ----- ---- -------<br>--- --- -- ----- -- --- ---- to --- ---- -- ------ ------<br>--- ----- -- ----,191620.59999999963,191619.7000000002,191003.585,191018.40000000037,191043.716,191635.981,,46,to
screen,html.Screen,2_1_0_1_47,2022-02-02T17:57:53.587Z,,,,,,,,,,,,,,,,,53,,,,,,,,,,,,,,469.41900000037276,,response,,,,99,,,,,,,Space,keypress(Space),,,,,,,,"---- -- ----- -- ------ - ------- --- ----------<br>------------- ------ ------ ---- ---- ------- ----- -- ----<br>-------- ------- -- ---------- --- - --- ----- ----- ----<br>---- --- --- ----- --- ---- ---- ------- ----- ---- -------<br>--- --- -- ----- -- --- ---- -- be, ---- -- ------ ------<br>--- ----- -- ----",192106.40000000037,192105.40000000037,191619.374,191620.7999999998,191635.981,192119.054,,47,"be,"
screen,html.Screen,2_1_0_1_48,2022-02-02T17:57:54.004Z,,,,,,,,,,,,,,,,,53,,,,,,,,,,,,,,402.8460000003688,,response,,,,99,,,,,,,Space,keypress(Space),,,,,,,,---- -- ----- -- ------ - ------- --- ----------<br>------------- ------ ------ ---- ---- ------- ----- -- ----<br>-------- ------- -- ---------- --- - --- ----- ----- ----<br>---- --- --- ----- --- ---- ---- ------- ----- ---- -------<br>--- --- -- ----- -- --- ---- -- --- even -- ------ ------<br>--- ----- -- ----,192522.7999999998,192521.90000000037,192102.052,192106.59999999963,192119.054,192535.27,,48,even
screen,html.Screen,2_1_0_1_49,2022-02-02T17:57:54.510Z,,,,,,,,,,,,,,,,,53,,,,,,,,,,,,,,492.93000000019674,,response,,,,99,,,,,,,Space,keypress(Space),,,,,,,,---- -- ----- -- ------ - ------- --- ----------<br>------------- ------ ------ ---- ---- ------- ----- -- ----<br>-------- ------- -- ---------- --- - --- ----- ----- ----<br>---- --- --- ----- --- ---- ---- ------- ----- ---- -------<br>--- --- -- ----- -- --- ---- -- --- ---- if ------ ------<br>--- ----- -- ----,193029.09999999963,193028.2000000002,192518.257,192523,192535.27,193034.327,,49,if
screen,html.Screen,2_1_0_1_50,2022-02-02T17:57:55.011Z,,,,,,,,,,,,,,,,,53,,,,,,,,,,,,,,494.87300000019604,,response,,,,99,,,,,,,Space,keypress(Space),,,,,,,,---- -- ----- -- ------ - ------- --- ----------<br>------------- ------ ------ ---- ---- ------- ----- -- ----<br>-------- ------- -- ---------- --- - --- ----- ----- ----<br>---- --- --- ----- --- ---- ---- ------- ----- ---- -------<br>--- --- -- ----- -- --- ---- -- --- ---- -- that's ------<br>--- ----- -- ----,193530.2999999998,193529.2000000002,193018.02,193029.2999999998,193034.327,193533.755,,50,that's
screen,html.Screen,2_1_0_1_51,2022-02-02T17:57:55.463Z,,,,,,,,,,,,,,,,,53,,,,,,,,,,,,,,447.74499999999534,,response,,,,99,,,,,,,Space,keypress(Space),,,,,,,,---- -- ----- -- ------ - ------- --- ----------<br>------------- ------ ------ ---- ---- ------- ----- -- ----<br>-------- ------- -- ---------- --- - --- ----- ----- ----<br>---- --- --- ----- --- ---- ---- ------- ----- ---- -------<br>--- --- -- ----- -- --- ---- -- --- ---- -- ------ really<br>--- ----- -- ----,193982.40000000037,193981.5,193517.246,193530.40000000037,193533.755,194006.571,,51,really
screen,html.Screen,2_1_0_1_52,2022-02-02T17:57:55.892Z,,,,,,,,,,,,,,,,,53,,,,,,,,,,,,,,403.4290000000037,,response,,,,99,,,,,,,Space,keypress(Space),,,,,,,,---- -- ----- -- ------ - ------- --- ----------<br>------------- ------ ------ ---- ---- ------- ----- -- ----<br>-------- ------- -- ---------- --- - --- ----- ----- ----<br>---- --- --- ----- --- ---- ---- ------- ----- ---- -------<br>--- --- -- ----- -- --- ---- -- --- ---- -- ------ ------<br>not ----- -- ----,194410.7999999998,194410,193967.161,193982.5,194006.571,194416.219,,52,not
screen,html.Screen,2_1_0_1_53,2022-02-02T17:57:56.304Z,,,,,,,,,,,,,,,,,53,,,,,,,,,,,,,,406.08099999980186,,response,,,,99,,,,,,,Space,keypress(Space),,,,,,,,---- -- ----- -- ------ - ------- --- ----------<br>------------- ------ ------ ---- ---- ------- ----- -- ----<br>-------- ------- -- ---------- --- - --- ----- ----- ----<br>---- --- --- ----- --- ---- ---- ------- ----- ---- -------<br>--- --- -- ----- -- --- ---- -- --- ---- -- ------ ------<br>--- close -- ----,194823.40000000037,194822.2999999998,194399.992,194411,194416.219,194832.752,,53,close
screen,html.Screen,2_1_0_1_54,2022-02-02T17:57:56.674Z,,,,,,,,,,,,,,,,,53,,,,,,,,,,,,,,359.64800000036485,,response,,,,99,,,,,,,Space,keypress(Space),,,,,,,,---- -- ----- -- ------ - ------- --- ----------<br>------------- ------ ------ ---- ---- ------- ----- -- ----<br>-------- ------- -- ---------- --- - --- ----- ----- ----<br>---- --- --- ----- --- ---- ---- ------- ----- ---- -------<br>--- --- -- ----- -- --- ---- -- --- ---- -- ------ ------<br>--- ----- at ----,195193.40000000037,195192.40000000037,194815.809,194823.59999999963,194832.752,195198.637,,54,at
screen,html.Screen,2_1_0_1_55,2022-02-02T17:57:56.908Z,,,,,,,,,,,,,,,,,53,,,,,,,,,,,,,,227.3630000000121,,response,,,,99,,,,,,,Space,keypress(Space),,,,,,,,---- -- ----- -- ------ - ------- --- ----------<br>------------- ------ ------ ---- ---- ------- ----- -- ----<br>-------- ------- -- ---------- --- - --- ----- ----- ----<br>---- --- --- ----- --- ---- ---- ------- ----- ---- -------<br>--- --- -- ----- -- --- ---- -- --- ---- -- ------ ------<br>--- ----- -- all.,195426.90000000037,195426,195182.264,195193.5,195198.637,195431.641,,55,all.
Item 99,flow.Loop,2_1_0_1,2022-02-02T17:57:56.908Z,,,,,,,,,,,,,,,,,,,,,,,,,,,,,,,32691.828999999998,,completion,,,,,E,,,,,,,,,,,silence,,,,,195427.5,195426,162684.648,162685.59999999963,162734.171,195431.641,,,
Question 1,html.Screen,2_1_0_2,2022-02-02T17:58:02.168Z,,,,,,,,,,,,,,,,,,,,,,,,,,,,true,FALSE,,5253.458999999624,,response,,,,99,E,,,,,,FALSE,click #choice-2,,,,silence,,,,,200686.90000000037,200685.09999999963,195415.397,195427.7999999998,195431.641,200692.608,,,
Question 2,html.Screen,2_1_0_3,2022-02-02T17:58:05.978Z,,,,,,,,,,,,,,,,,,,,,,,,,,,,true,TRUE,,3803.292000000365,,response,,,,99,E,,,,,,TRUE,click #choice-1,,,,silence,,,,,204497.40000000037,204495.90000000037,200676.305,200687,200692.608,204505.065,,,
Item 99,flow.Sequence,2_1_0,2022-02-02T17:58:05.979Z,,,,,,,,,,,,,,,,,,,,,,,,,,,,,,,51800.67300000036,,completion,,,,,,,,,,,,,,,,,,,,,204497.59999999963,204495.90000000037,152678.709,152690.59999999963,152695.227,204505.065,,,
Holding screen,html.Screen,2_1_1_0,2022-02-02T17:58:15.976Z,,,,,,,,,,,,,,,,,,,,,,,,,,,,,,,10006.089000000007,,timeout,,,,,,,,,,,,,,,,,,,,,214495.09999999963,214494.494,204488.818,204497.7999999998,204505.065,214511.154,,,
screen,html.Screen,2_1_1_1_0,2022-02-02T17:58:16.715Z,,,,,,,,,,,,,,,,,54,,,,,,,,,,,,,,720.8459999999905,,response,,,,100,,,,,,,Space,keypress(Space),,,,,,,,At --- ---- --- ------ ----- ------- ---- -- --- ------- --<br>------- ---------- ------ -- ----- -- ----- -- ---- ------<br>--- ----- --- --- ------ -------- ----- --- ------ ----- --<br>----- ----- ---------- --- --- ------ ------ ---- -- ------<br>------- --- ------ ----- --- ---- ------- -- ---- --- --<br>------- ------,215233.90000000037,215232,214494.494,214495.40000000037,214511.154,215243.714,,0,At
screen,html.Screen,2_1_1_1_1,2022-02-02T17:58:17.198Z,,,,,,,,,,,,,,,,,54,,,,,,,,,,,,,,472.1860000003653,,response,,,,100,,,,,,,Space,keypress(Space),,,,,,,,-- the ---- --- ------ ----- ------- ---- -- --- ------- --<br>------- ---------- ------ -- ----- -- ----- -- ---- ------<br>--- ----- --- --- ------ -------- ----- --- ------ ----- --<br>----- ----- ---------- --- --- ------ ------ ---- -- ------<br>------- --- ------ ----- --- ---- ------- -- ---- --- --<br>------- ------,215716.90000000037,215715.90000000037,215227.668,215234,215243.714,215726.165,,1,the
screen,html.Screen,2_1_1_1_2,2022-02-02T17:58:17.774Z,,,,,,,,,,,,,,,,,54,,,,,,,,,,,,,,565.5350000001781,,response,,,,100,,,,,,,Space,keypress(Space),,,,,,,,-- --- time --- ------ ----- ------- ---- -- --- ------- --<br>------- ---------- ------ -- ----- -- ----- -- ---- ------<br>--- ----- --- --- ------ -------- ----- --- ------ ----- --<br>----- ----- ---------- --- --- ------ ------ ---- -- ------<br>------- --- ------ ----- --- ---- ------- -- ---- --- --<br>------- ------,216292.59999999963,216291.7000000002,215709.807,215717.2000000002,215726.165,216309.201,,2,time
screen,html.Screen,2_1_1_1_3,2022-02-02T17:58:18.386Z,,,,,,,,,,,,,,,,,54,,,,,,,,,,,,,,594.8989999996265,,response,,,,100,,,,,,,Space,keypress(Space),,,,,,,,-- --- ---- the ------ ----- ------- ---- -- --- ------- --<br>------- ---------- ------ -- ----- -- ----- -- ---- ------<br>--- ----- --- --- ------ -------- ----- --- ------ ----- --<br>----- ----- ---------- --- --- ------ ------ ---- -- ------<br>------- --- ------ ----- --- ---- ------- -- ---- --- --<br>------- ------,216905.09999999963,216904.09999999963,216292.515,216292.7999999998,216309.201,216908.099,,3,the
screen,html.Screen,2_1_1_1_4,2022-02-02T17:58:18.773Z,,,,,,,,,,,,,,,,,54,,,,,,,,,,,,,,383.3010000003851,,response,,,,100,,,,,,,Space,keypress(Space),,,,,,,,-- --- ---- --- French ----- ------- ---- -- --- ------- --<br>------- ---------- ------ -- ----- -- ----- -- ---- ------<br>--- ----- --- --- ------ -------- ----- --- ------ ----- --<br>----- ----- ---------- --- --- ------ ------ ---- -- ------<br>------- --- ------ ----- --- ---- ------- -- ---- --- --<br>------- ------,217292.2999999998,217291.40000000037,216891.868,216905.2999999998,216908.099,217307.761,,4,French
screen,html.Screen,2_1_1_1_5,2022-02-02T17:58:19.228Z,,,,,,,,,,,,,,,,,54,,,,,,,,,,,,,,438.2390000000014,,response,,,,100,,,,,,,Space,keypress(Space),,,,,,,,-- --- ---- --- ------ crown ------- ---- -- --- ------- --<br>------- ---------- ------ -- ----- -- ----- -- ---- ------<br>--- ----- --- --- ------ -------- ----- --- ------ ----- --<br>----- ----- ---------- --- --- ------ ------ ---- -- ------<br>------- --- ------ ----- --- ---- ------- -- ---- --- --<br>------- ------,217747,217746,217291.797,217292.5,217307.761,217757.612,,5,crown
screen,html.Screen,2_1_1_1_6,2022-02-02T17:58:19.778Z,,,,,,,,,,,,,,,,,54,,,,,,,,,,,,,,538.0880000001926,,response,,,,100,,,,,,,Space,keypress(Space),,,,,,,,-- --- ---- --- ------ ----- secured ---- -- --- ------- --<br>------- ---------- ------ -- ----- -- ----- -- ---- ------<br>--- ----- --- --- ------ -------- ----- --- ------ ----- --<br>----- ----- ---------- --- --- ------ ------ ---- -- ------<br>------- --- ------ ----- --- ---- ------- -- ---- --- --<br>------- ------,218296.59999999963,218295.7000000002,217740.677,217747.2000000002,217757.612,218307.011,,6,secured
screen,html.Screen,2_1_1_1_7,2022-02-02T17:58:20.215Z,,,,,,,,,,,,,,,,,54,,,,,,,,,,,,,,426.28899999981513,,response,,,,100,,,,,,,Space,keypress(Space),,,,,,,,-- --- ---- --- ------ ----- ------- much -- --- ------- --<br>------- ---------- ------ -- ----- -- ----- -- ---- ------<br>--- ----- --- --- ------ -------- ----- --- ------ ----- --<br>----- ----- ---------- --- --- ------ ------ ---- -- ------<br>------- --- ------ ----- --- ---- ------- -- ---- --- --<br>------- ------,218733.90000000037,218733.2999999998,218290.292,218296.7999999998,218307.011,218739.536,,7,much
screen,html.Screen,2_1_1_1_8,2022-02-02T17:58:20.560Z,,,,,,,,,,,,,,,,,54,,,,,,,,,,,,,,338.36400000037975,,response,,,,100,,,,,,,Space,keypress(Space),,,,,,,,-- --- ---- --- ------ ----- ------- ---- of --- ------- --<br>------- ---------- ------ -- ----- -- ----- -- ---- ------<br>--- ----- --- --- ------ -------- ----- --- ------ ----- --<br>----- ----- ---------- --- --- ------ ------ ---- -- ------<br>------- --- ------ ----- --- ---- ------- -- ---- --- --<br>------- ------,219078.7999999998,219077.90000000037,218722.833,218733.90000000037,218739.536,219089.131,,8,of
screen,html.Screen,2_1_1_1_9,2022-02-02T17:58:21.017Z,,,,,,,,,,,,,,,,,54,,,,,,,,,,,,,,446.4689999996335,,response,,,,100,,,,,,,Space,keypress(Space),,,,,,,,-- --- ---- --- ------ ----- ------- ---- -- its ------- --<br>------- ---------- ------ -- ----- -- ----- -- ---- ------<br>--- ----- --- --- ------ -------- ----- --- ------ ----- --<br>----- ----- ---------- --- --- ------ ------ ---- -- ------<br>------- --- ------ ----- --- ---- ------- -- ---- --- --<br>------- ------,219536.40000000037,219535.59999999963,219072.574,219078.90000000037,219089.131,219538.545,,9,its
screen,html.Screen,2_1_1_1_10,2022-02-02T17:58:21.708Z,,,,,,,,,,,,,,,,,54,,,,,,,,,,,,,,687.6550000001735,,response,,,,100,,,,,,,Space,keypress(Space),,,,,,,,-- --- ---- --- ------ ----- ------- ---- -- --- revenue --<br>------- ---------- ------ -- ----- -- ----- -- ---- ------<br>--- ----- --- --- ------ -------- ----- --- ------ ----- --<br>----- ----- ---------- --- --- ------ ------ ---- -- ------<br>------- --- ------ ----- --- ---- ------- -- ---- --- --<br>------- ------,220227.2000000002,220226.2000000002,219521.993,219536.7000000002,219538.545,220238.228,,10,revenue
screen,html.Screen,2_1_1_1_11,2022-02-02T17:58:22.233Z,,,,,,,,,,,,,,,,,54,,,,,,,,,,,,,,513.1720000003697,,response,,,,100,,,,,,,Space,keypress(Space),,,,,,,,-- --- ---- --- ------ ----- ------- ---- -- --- ------- by<br>------- ---------- ------ -- ----- -- ----- -- ---- ------<br>--- ----- --- --- ------ -------- ----- --- ------ ----- --<br>----- ----- ---------- --- --- ------ ------ ---- -- ------<br>------- --- ------ ----- --- ---- ------- -- ---- --- --<br>------- ------,220752.40000000037,220751.40000000037,220221.744,220227.2999999998,220238.228,220780.096,,11,by
screen,html.Screen,2_1_1_1_12,2022-02-02T17:58:22.615Z,,,,,,,,,,,,,,,,,54,,,,,,,,,,,,,,353.40400000000955,,response,,,,100,,,,,,,Space,keypress(Space),,,,,,,,-- --- ---- --- ------ ----- ------- ---- -- --- ------- --<br>issuing ---------- ------ -- ----- -- ----- -- ---- ------<br>--- ----- --- --- ------ -------- ----- --- ------ ----- --<br>----- ----- ---------- --- --- ------ ------ ---- -- ------<br>------- --- ------ ----- --- ---- ------- -- ---- --- --<br>------- ------,221134.5,221133.5,220737.626,220752.5,220780.096,221136.793,,12,issuing
screen,html.Screen,2_1_1_1_13,2022-02-02T17:58:23.123Z,,,,,,,,,,,,,,,,,54,,,,,,,,,,,,,,504.40700000018114,,response,,,,100,,,,,,,Space,keypress(Space),,,,,,,,-- --- ---- --- ------ ----- ------- ---- -- --- ------- --<br>------- government ------ -- ----- -- ----- -- ---- ------<br>--- ----- --- --- ------ -------- ----- --- ------ ----- --<br>----- ----- ---------- --- --- ------ ------ ---- -- ------<br>------- --- ------ ----- --- ---- ------- -- ---- --- --<br>------- ------,221642.2999999998,221641.2000000002,221120.694,221134.7000000002,221136.793,221653.362,,13,government
screen,html.Screen,2_1_1_1_14,2022-02-02T17:58:24.804Z,,,,,,,,,,,,,,,,,54,,,,,,,,,,,,,,1668.7379999996338,,response,,,,100,,,,,,,Space,keypress(Space),,,,,,,,-- --- ---- --- ------ ----- ------- ---- -- --- ------- --<br>------- ---------- bonds. -- ----- -- ----- -- ---- ------<br>--- ----- --- --- ------ -------- ----- --- ------ ----- --<br>----- ----- ---------- --- --- ------ ------ ---- -- ------<br>------- --- ------ ----- --- ---- ------- -- ---- --- --<br>------- ------,223323.09999999963,223322.09999999963,221636.819,221642.40000000037,221653.362,223334.754,,14,bonds.
screen,html.Screen,2_1_1_1_15,2022-02-02T17:58:25.362Z,,,,,,,,,,,,,,,,,54,,,,,,,,,,,,,,544.6460000003863,,response,,,,100,,,,,,,Space,keypress(Space),,,,,,,,-- --- ---- --- ------ ----- ------- ---- -- --- ------- --<br>------- ---------- ------ In ----- -- ----- -- ---- ------<br>--- ----- --- --- ------ -------- ----- --- ------ ----- --<br>----- ----- ---------- --- --- ------ ------ ---- -- ------<br>------- --- ------ ----- --- ---- ------- -- ---- --- --<br>------- ------,223880.59999999963,223879.40000000037,223318.326,223323.2000000002,223334.754,223883.799,,15,In
screen,html.Screen,2_1_1_1_16,2022-02-02T17:58:26.591Z,,,,,,,,,,,,,,,,,54,,,,,,,,,,,,,,1226.4010000001872,,response,,,,100,,,,,,,Space,keypress(Space),,,,,,,,"-- --- ---- --- ------ ----- ------- ---- -- --- ------- --<br>------- ---------- ------ -- 1727, -- ----- -- ---- ------<br>--- ----- --- --- ------ -------- ----- --- ------ ----- --<br>----- ----- ---------- --- --- ------ ------ ---- -- ------<br>------- --- ------ ----- --- ---- ------- -- ---- --- --<br>------- ------",225111.2000000002,225110.2000000002,223867.6,223880.7999999998,223883.799,225115.878,,16,"1727,"
screen,html.Screen,2_1_1_1_17,2022-02-02T17:58:27.174Z,,,,,,,,,,,,,,,,,54,,,,,,,,,,,,,,577.622000000003,,response,,,,100,,,,,,,Space,keypress(Space),,,,,,,,-- --- ---- --- ------ ----- ------- ---- -- --- ------- --<br>------- ---------- ------ -- ----- in ----- -- ---- ------<br>--- ----- --- --- ------ -------- ----- --- ------ ----- --<br>----- ----- ---------- --- --- ------ ------ ---- -- ------<br>------- --- ------ ----- --- ---- ------- -- ---- --- --<br>------- ------,225694.5,225693.5,225099.688,225111.2999999998,225115.878,225698.473,,17,in
screen,html.Screen,2_1_1_1_18,2022-02-02T17:58:27.703Z,,,,,,,,,,,,,,,,,54,,,,,,,,,,,,,,524.2270000001881,,response,,,,100,,,,,,,Space,keypress(Space),,,,,,,,-- --- ---- --- ------ ----- ------- ---- -- --- ------- --<br>------- ---------- ------ -- ----- -- order -- ---- ------<br>--- ----- --- --- ------ -------- ----- --- ------ ----- --<br>----- ----- ---------- --- --- ------ ------ ---- -- ------<br>------- --- ------ ----- --- ---- ------- -- ---- --- --<br>------- ------,226223.7999999998,226222.7000000002,225682.01,225694.59999999963,225698.473,226231.227,,18,order
screen,html.Screen,2_1_1_1_19,2022-02-02T17:58:28.100Z,,,,,,,,,,,,,,,,,54,,,,,,,,,,,,,,388.37299999961397,,response,,,,100,,,,,,,Space,keypress(Space),,,,,,,,-- --- ---- --- ------ ----- ------- ---- -- --- ------- --<br>------- ---------- ------ -- ----- -- ----- to ---- ------<br>--- ----- --- --- ------ -------- ----- --- ------ ----- --<br>----- ----- ---------- --- --- ------ ------ ---- -- ------<br>------- --- ------ ----- --- ---- ------- -- ---- --- --<br>------- ------,226620.5,226619.59999999963,226215.103,226223.7999999998,226231.227,226631.207,,19,to
screen,html.Screen,2_1_1_1_20,2022-02-02T17:58:28.922Z,,,,,,,,,,,,,,,,,54,,,,,,,,,,,,,,810.1930000003777,,response,,,,100,,,,,,,Space,keypress(Space),,,,,,,,-- --- ---- --- ------ ----- ------- ---- -- --- ------- --<br>------- ---------- ------ -- ----- -- ----- -- save ------<br>--- ----- --- --- ------ -------- ----- --- ------ ----- --<br>----- ----- ---------- --- --- ------ ------ ---- -- ------<br>------- --- ------ ----- --- ---- ------- -- ---- --- --<br>------- ------,227442.09999999963,227441.40000000037,226614.534,226620.7000000002,226631.207,227446.544,,20,save
screen,html.Screen,2_1_1_1_21,2022-02-02T17:58:29.339Z,,,,,,,,,,,,,,,,,54,,,,,,,,,,,,,,412.15600000019185,,response,,,,100,,,,,,,Space,keypress(Space),,,,,,,,"-- --- ---- --- ------ ----- ------- ---- -- --- ------- --<br>------- ---------- ------ -- ----- -- ----- -- ---- money,<br>--- ----- --- --- ------ -------- ----- --- ------ ----- --<br>----- ----- ---------- --- --- ------ ------ ---- -- ------<br>------- --- ------ ----- --- ---- ------- -- ---- --- --<br>------- ------",227859.7000000002,227858.7000000002,227430.307,227442.2999999998,227446.544,227862.785,,21,"money,"
screen,html.Screen,2_1_1_1_22,2022-02-02T17:58:29.844Z,,,,,,,,,,,,,,,,,54,,,,,,,,,,,,,,500.11500000036904,,response,,,,100,,,,,,,Space,keypress(Space),,,,,,,,-- --- ---- --- ------ ----- ------- ---- -- --- ------- --<br>------- ---------- ------ -- ----- -- ----- -- ---- ------<br>the ----- --- --- ------ -------- ----- --- ------ ----- --<br>----- ----- ---------- --- --- ------ ------ ---- -- ------<br>------- --- ------ ----- --- ---- ------- -- ---- --- --<br>------- ------,228364,228362.90000000037,227846.664,227859.7999999998,227862.785,228378.888,,22,the
screen,html.Screen,2_1_1_1_23,2022-02-02T17:58:30.943Z,,,,,,,,,,,,,,,,,54,,,,,,,,,,,,,,1083.5120000003662,,response,,,,100,,,,,,,Space,keypress(Space),,,,,,,,-- --- ---- --- ------ ----- ------- ---- -- --- ------- --<br>------- ---------- ------ -- ----- -- ----- -- ---- ------<br>--- state --- --- ------ -------- ----- --- ------ ----- --<br>----- ----- ---------- --- --- ------ ------ ---- -- ------<br>------- --- ------ ----- --- ---- ------- -- ---- --- --<br>------- ------,229463.5,229462.40000000037,228362.782,228364.09999999963,228378.888,229478.097,,23,state
screen,html.Screen,2_1_1_1_24,2022-02-02T17:58:31.833Z,,,,,,,,,,,,,,,,,54,,,,,,,,,,,,,,874.6030000001774,,response,,,,100,,,,,,,Space,keypress(Space),,,,,,,,-- --- ---- --- ------ ----- ------- ---- -- --- ------- --<br>------- ---------- ------ -- ----- -- ----- -- ---- ------<br>--- ----- cut --- ------ -------- ----- --- ------ ----- --<br>----- ----- ---------- --- --- ------ ------ ---- -- ------<br>------- --- ------ ----- --- ---- ------- -- ---- --- --<br>------- ------,230353.7000000002,230352.7000000002,229461.475,229463.59999999963,229478.097,230360.163,,24,cut
screen,html.Screen,2_1_1_1_25,2022-02-02T17:58:32.494Z,,,,,,,,,,,,,,,,,54,,,,,,,,,,,,,,653.3369999999995,,response,,,,100,,,,,,,Space,keypress(Space),,,,,,,,-- --- ---- --- ------ ----- ------- ---- -- --- ------- --<br>------- ---------- ------ -- ----- -- ----- -- ---- ------<br>--- ----- --- the ------ -------- ----- --- ------ ----- --<br>----- ----- ---------- --- --- ------ ------ ---- -- ------<br>------- --- ------ ----- --- ---- ------- -- ---- --- --<br>------- ------,231014.2999999998,231013.5,230343.673,230353.90000000037,230360.163,231026.402,,25,the
screen,html.Screen,2_1_1_1_26,2022-02-02T17:58:34.202Z,,,,,,,,,,,,,,,,,54,,,,,,,,,,,,,,1695.2980000001844,,response,,,,100,,,,,,,Space,keypress(Space),,,,,,,,-- --- ---- --- ------ ----- ------- ---- -- --- ------- --<br>------- ---------- ------ -- ----- -- ----- -- ---- ------<br>--- ----- --- --- bonds' -------- ----- --- ------ ----- --<br>----- ----- ---------- --- --- ------ ------ ---- -- ------<br>------- --- ------ ----- --- ---- ------- -- ---- --- --<br>------- ------,232722.5,232721.7000000002,231009.489,231014.5,231026.402,232744.387,,26,bonds'
screen,html.Screen,2_1_1_1_27,2022-02-02T17:58:35.180Z,,,,,,,,,,,,,,,,,54,,,,,,,,,,,,,,954.7129999996396,,response,,,,100,,,,,,,Space,keypress(Space),,,,,,,,-- --- ---- --- ------ ----- ------- ---- -- --- ------- --<br>------- ---------- ------ -- ----- -- ----- -- ---- ------<br>--- ----- --- --- ------ interest ----- --- ------ ----- --<br>----- ----- ---------- --- --- ------ ------ ---- -- ------<br>------- --- ------ ----- --- ---- ------- -- ---- --- --<br>------- ------,233700.09999999963,233699.09999999963,232708.002,232722.7000000002,232744.387,233706.392,,27,interest
screen,html.Screen,2_1_1_1_28,2022-02-02T17:58:36.181Z,,,,,,,,,,,,,,,,,54,,,,,,,,,,,,,,994.4079999998212,,response,,,,100,,,,,,,Space,keypress(Space),,,,,,,,-- --- ---- --- ------ ----- ------- ---- -- --- ------- --<br>------- ---------- ------ -- ----- -- ----- -- ---- ------<br>--- ----- --- --- ------ -------- rate. --- ------ ----- --<br>----- ----- ---------- --- --- ------ ------ ---- -- ------<br>------- --- ------ ----- --- ---- ------- -- ---- --- --<br>------- ------,234701.7000000002,234700.7999999998,233690.248,233700.2999999998,233706.392,234705.277,,28,rate.
screen,html.Screen,2_1_1_1_29,2022-02-02T17:58:36.575Z,,,,,,,,,,,,,,,,,54,,,,,,,,,,,,,,388.5229999998119,,response,,,,100,,,,,,,Space,keypress(Space),,,,,,,,-- --- ---- --- ------ ----- ------- ---- -- --- ------- --<br>------- ---------- ------ -- ----- -- ----- -- ---- ------<br>--- ----- --- --- ------ -------- ----- The ------ ----- --<br>----- ----- ---------- --- --- ------ ------ ---- -- ------<br>------- --- ------ ----- --- ---- ------- -- ---- --- --<br>------- ------,235094.7999999998,235093.7999999998,234689.216,234701.90000000037,234705.277,235105.166,,29,The
screen,html.Screen,2_1_1_1_30,2022-02-02T17:58:37.299Z,,,,,,,,,,,,,,,,,54,,,,,,,,,,,,,,713.0340000001888,,response,,,,100,,,,,,,Space,keypress(Space),,,,,,,,-- --- ---- --- ------ ----- ------- ---- -- --- ------- --<br>------- ---------- ------ -- ----- -- ----- -- ---- ------<br>--- ----- --- --- ------ -------- ----- --- market ----- --<br>----- ----- ---------- --- --- ------ ------ ---- -- ------<br>------- --- ------ ----- --- ---- ------- -- ---- --- --<br>------- ------,235819.2000000002,235818.2000000002,235088.912,235094.90000000037,235105.166,235843.084,,30,market
screen,html.Screen,2_1_1_1_31,2022-02-02T17:58:37.719Z,,,,,,,,,,,,,,,,,54,,,,,,,,,,,,,,395.6160000001837,,response,,,,100,,,,,,,Space,keypress(Space),,,,,,,,-- --- ---- --- ------ ----- ------- ---- -- --- ------- --<br>------- ---------- ------ -- ----- -- ----- -- ---- ------<br>--- ----- --- --- ------ -------- ----- --- ------ value --<br>----- ----- ---------- --- --- ------ ------ ---- -- ------<br>------- --- ------ ----- --- ---- ------- -- ---- --- --<br>------- ------,236239.7000000002,236238.7000000002,235804.441,235819.5,235843.084,236253.988,,31,value
screen,html.Screen,2_1_1_1_32,2022-02-02T17:58:38.140Z,,,,,,,,,,,,,,,,,54,,,,,,,,,,,,,,405.0119999999879,,response,,,,100,,,,,,,Space,keypress(Space),,,,,,,,-- --- ---- --- ------ ----- ------- ---- -- --- ------- --<br>------- ---------- ------ -- ----- -- ----- -- ---- ------<br>--- ----- --- --- ------ -------- ----- --- ------ ----- of<br>----- ----- ---------- --- --- ------ ------ ---- -- ------<br>------- --- ------ ----- --- ---- ------- -- ---- --- --<br>------- ------,236660,236659,236237.467,236239.7999999998,236253.988,236670.204,,32,of
screen,html.Screen,2_1_1_1_33,2022-02-02T17:58:38.684Z,,,,,,,,,,,,,,,,,54,,,,,,,,,,,,,,532.7960000000021,,response,,,,100,,,,,,,Space,keypress(Space),,,,,,,,-- --- ---- --- ------ ----- ------- ---- -- --- ------- --<br>------- ---------- ------ -- ----- -- ----- -- ---- ------<br>--- ----- --- --- ------ -------- ----- --- ------ ----- --<br>these ----- ---------- --- --- ------ ------ ---- -- ------<br>------- --- ------ ----- --- ---- ------- -- ---- --- --<br>------- ------,237204,237203,236653.288,236660.2000000002,236670.204,237219.261,,33,these
screen,html.Screen,2_1_1_1_34,2022-02-02T17:58:38.983Z,,,,,,,,,,,,,,,,,54,,,,,,,,,,,,,,283.03899999981513,,response,,,,100,,,,,,,Space,keypress(Space),,,,,,,,-- --- ---- --- ------ ----- ------- ---- -- --- ------- --<br>------- ---------- ------ -- ----- -- ----- -- ---- ------<br>--- ----- --- --- ------ -------- ----- --- ------ ----- --<br>----- bonds ---------- --- --- ------ ------ ---- -- ------<br>------- --- ------ ----- --- ---- ------- -- ---- --- --<br>------- ------,237503.2999999998,237502.2999999998,237202.92,237204.2000000002,237219.261,237519.097,,34,bonds
screen,html.Screen,2_1_1_1_35,2022-02-02T17:58:40.353Z,,,,,,,,,,,,,,,,,54,,,,,,,,,,,,,,1352.9029999999912,,response,,,,100,,,,,,,Space,keypress(Space),,,,,,,,"-- --- ---- --- ------ ----- ------- ---- -- --- ------- --<br>------- ---------- ------ -- ----- -- ----- -- ---- ------<br>--- ----- --- --- ------ -------- ----- --- ------ ----- --<br>----- ----- plummeted, --- --- ------ ------ ---- -- ------<br>------- --- ------ ----- --- ---- ------- -- ---- --- --<br>------- ------",238873,238872,237502.24,237503.5,237519.097,238884.434,,35,"plummeted,"
screen,html.Screen,2_1_1_1_36,2022-02-02T17:58:40.887Z,,,,,,,,,,,,,,,,,54,,,,,,,,,,,,,,522.1659999996191,,response,,,,100,,,,,,,Space,keypress(Space),,,,,,,,-- --- ---- --- ------ ----- ------- ---- -- --- ------- --<br>------- ---------- ------ -- ----- -- ----- -- ---- ------<br>--- ----- --- --- ------ -------- ----- --- ------ ----- --<br>----- ----- ---------- and --- ------ ------ ---- -- ------<br>------- --- ------ ----- --- ---- ------- -- ---- --- --<br>------- ------,239407.7000000002,239406.59999999963,238867.866,238873.09999999963,238884.434,239417.198,,36,and
screen,html.Screen,2_1_1_1_37,2022-02-02T17:58:41.361Z,,,,,,,,,,,,,,,,,54,,,,,,,,,,,,,,463.30199999999604,,response,,,,100,,,,,,,Space,keypress(Space),,,,,,,,-- --- ---- --- ------ ----- ------- ---- -- --- ------- --<br>------- ---------- ------ -- ----- -- ----- -- ---- ------<br>--- ----- --- --- ------ -------- ----- --- ------ ----- --<br>----- ----- ---------- --- the ------ ------ ---- -- ------<br>------- --- ------ ----- --- ---- ------- -- ---- --- --<br>------- ------,239881.5,239880.5,239400.534,239407.7999999998,239417.198,239905.446,,37,the
screen,html.Screen,2_1_1_1_38,2022-02-02T17:58:41.995Z,,,,,,,,,,,,,,,,,54,,,,,,,,,,,,,,609.1539999996312,,response,,,,100,,,,,,,Space,keypress(Space),,,,,,,,-- --- ---- --- ------ ----- ------- ---- -- --- ------- --<br>------- ---------- ------ -- ----- -- ----- -- ---- ------<br>--- ----- --- --- ------ -------- ----- --- ------ ----- --<br>----- ----- ---------- --- --- market ------ ---- -- ------<br>------- --- ------ ----- --- ---- ------- -- ---- --- --<br>------- ------,240515.5,240514.59999999963,239866.343,239881.7000000002,239905.446,240548.87,,38,market
screen,html.Screen,2_1_1_1_39,2022-02-02T17:58:42.414Z,,,,,,,,,,,,,,,,,54,,,,,,,,,,,,,,384.63000000000466,,response,,,,100,,,,,,,Space,keypress(Space),,,,,,,,-- --- ---- --- ------ ----- ------- ---- -- --- ------- --<br>------- ---------- ------ -- ----- -- ----- -- ---- ------<br>--- ----- --- --- ------ -------- ----- --- ------ ----- --<br>----- ----- ---------- --- --- ------ became ---- -- ------<br>------- --- ------ ----- --- ---- ------- -- ---- --- --<br>------- ------,240934.59999999963,240933.5,240532.629,240515.7000000002,240548.87,240948.834,,39,became
screen,html.Screen,2_1_1_1_40,2022-02-02T17:58:42.756Z,,,,,,,,,,,,,,,,,54,,,,,,,,,,,,,,326.3660000001837,,response,,,,100,,,,,,,Space,keypress(Space),,,,,,,,-- --- ---- --- ------ ----- ------- ---- -- --- ------- --<br>------- ---------- ------ -- ----- -- ----- -- ---- ------<br>--- ----- --- --- ------ -------- ----- --- ------ ----- --<br>----- ----- ---------- --- --- ------ ------ wary -- ------<br>------- --- ------ ----- --- ---- ------- -- ---- --- --<br>------- ------,241276.2999999998,241275.2000000002,240932.156,240934.7000000002,240948.834,241281.373,,40,wary
screen,html.Screen,2_1_1_1_41,2022-02-02T17:58:43.180Z,,,,,,,,,,,,,,,,,54,,,,,,,,,,,,,,416.5270000003802,,response,,,,100,,,,,,,Space,keypress(Space),,,,,,,,-- --- ---- --- ------ ----- ------- ---- -- --- ------- --<br>------- ---------- ------ -- ----- -- ----- -- ---- ------<br>--- ----- --- --- ------ -------- ----- --- ------ ----- --<br>----- ----- ---------- --- --- ------ ------ ---- of ------<br>------- --- ------ ----- --- ---- ------- -- ---- --- --<br>------- ------,241700.2000000002,241697.90000000037,241264.796,241276.40000000037,241281.373,241714.352,,41,of
screen,html.Screen,2_1_1_1_42,2022-02-02T17:58:43.586Z,,,,,,,,,,,,,,,,,54,,,,,,,,,,,,,,390.74799999961397,,response,,,,100,,,,,,,Space,keypress(Space),,,,,,,,-- --- ---- --- ------ ----- ------- ---- -- --- ------- --<br>------- ---------- ------ -- ----- -- ----- -- ---- ------<br>--- ----- --- --- ------ -------- ----- --- ------ ----- --<br>----- ----- ---------- --- --- ------ ------ ---- -- French<br>------- --- ------ ----- --- ---- ------- -- ---- --- --<br>------- ------,242106.09999999963,242105.09999999963,241698.136,241700.2999999998,241714.352,242114.089,,42,French
screen,html.Screen,2_1_1_1_43,2022-02-02T17:58:44.416Z,,,,,,,,,,,,,,,,,54,,,,,,,,,,,,,,821.3110000003653,,response,,,,100,,,,,,,Space,keypress(Space),,,,,,,,-- --- ---- --- ------ ----- ------- ---- -- --- ------- --<br>------- ---------- ------ -- ----- -- ----- -- ---- ------<br>--- ----- --- --- ------ -------- ----- --- ------ ----- --<br>----- ----- ---------- --- --- ------ ------ ---- -- ------<br>credit. --- ------ ----- --- ---- ------- -- ---- --- --<br>------- ------,242936.2999999998,242935.40000000037,242097.546,242106.2999999998,242114.089,242946.654,,43,credit.
screen,html.Screen,2_1_1_1_44,2022-02-02T17:58:44.797Z,,,,,,,,,,,,,,,,,54,,,,,,,,,,,,,,369.0460000001767,,response,,,,100,,,,,,,Space,keypress(Space),,,,,,,,-- --- ---- --- ------ ----- ------- ---- -- --- ------- --<br>------- ---------- ------ -- ----- -- ----- -- ---- ------<br>--- ----- --- --- ------ -------- ----- --- ------ ----- --<br>----- ----- ---------- --- --- ------ ------ ---- -- ------<br>------- The ------ ----- --- ---- ------- -- ---- --- --<br>------- ------,243316.7999999998,243315.7000000002,242929.971,242936.40000000037,242946.654,243329.554,,44,The
screen,html.Screen,2_1_1_1_45,2022-02-02T17:58:45.202Z,,,,,,,,,,,,,,,,,54,,,,,,,,,,,,,,392.24599999981,,response,,,,100,,,,,,,Space,keypress(Space),,,,,,,,-- --- ---- --- ------ ----- ------- ---- -- --- ------- --<br>------- ---------- ------ -- ----- -- ----- -- ---- ------<br>--- ----- --- --- ------ -------- ----- --- ------ ----- --<br>----- ----- ---------- --- --- ------ ------ ---- -- ------<br>------- --- French ----- --- ---- ------- -- ---- --- --<br>------- ------,243722.7000000002,243721.7999999998,243312.793,243317,243329.554,243728.811,,45,French
screen,html.Screen,2_1_1_1_46,2022-02-02T17:58:45.592Z,,,,,,,,,,,,,,,,,54,,,,,,,,,,,,,,382.7889999996405,,response,,,,100,,,,,,,Space,keypress(Space),,,,,,,,-- --- ---- --- ------ ----- ------- ---- -- --- ------- --<br>------- ---------- ------ -- ----- -- ----- -- ---- ------<br>--- ----- --- --- ------ -------- ----- --- ------ ----- --<br>----- ----- ---------- --- --- ------ ------ ---- -- ------<br>------- --- ------ state --- ---- ------- -- ---- --- --<br>------- ------,244112.40000000037,244111.59999999963,243712.37,243722.90000000037,243728.811,244128.601,,46,state
screen,html.Screen,2_1_1_1_47,2022-02-02T17:58:46.275Z,,,,,,,,,,,,,,,,,54,,,,,,,,,,,,,,665.6989999998186,,response,,,,100,,,,,,,Space,keypress(Space),,,,,,,,-- --- ---- --- ------ ----- ------- ---- -- --- ------- --<br>------- ---------- ------ -- ----- -- ----- -- ---- ------<br>--- ----- --- --- ------ -------- ----- --- ------ ----- --<br>----- ----- ---------- --- --- ------ ------ ---- -- ------<br>------- --- ------ ----- was ---- ------- -- ---- --- --<br>------- ------,244795.40000000037,244794.2999999998,244111.717,244112.59999999963,244128.601,244811.119,,47,was
screen,html.Screen,2_1_1_1_48,2022-02-02T17:58:46.667Z,,,,,,,,,,,,,,,,,54,,,,,,,,,,,,,,375.0810000001802,,response,,,,100,,,,,,,Space,keypress(Space),,,,,,,,-- --- ---- --- ------ ----- ------- ---- -- --- ------- --<br>------- ---------- ------ -- ----- -- ----- -- ---- ------<br>--- ----- --- --- ------ -------- ----- --- ------ ----- --<br>----- ----- ---------- --- --- ------ ------ ---- -- ------<br>------- --- ------ ----- --- left ------- -- ---- --- --<br>------- ------,245187.2999999998,245186.2000000002,244794.605,244795.59999999963,244811.119,245193.884,,48,left
screen,html.Screen,2_1_1_1_49,2022-02-02T17:58:47.306Z,,,,,,,,,,,,,,,,,54,,,,,,,,,,,,,,631.3160000001953,,response,,,,100,,,,,,,Space,keypress(Space),,,,,,,,-- --- ---- --- ------ ----- ------- ---- -- --- ------- --<br>------- ---------- ------ -- ----- -- ----- -- ---- ------<br>--- ----- --- --- ------ -------- ----- --- ------ ----- --<br>----- ----- ---------- --- --- ------ ------ ---- -- ------<br>------- --- ------ ----- --- ---- without -- ---- --- --<br>------- ------,245826.09999999963,245825.2000000002,245177.431,245187.5,245193.884,245860.142,,49,without
screen,html.Screen,2_1_1_1_50,2022-02-02T17:58:47.833Z,,,,,,,,,,,,,,,,,54,,,,,,,,,,,,,,491.9579999996349,,response,,,,100,,,,,,,Space,keypress(Space),,,,,,,,-- --- ---- --- ------ ----- ------- ---- -- --- ------- --<br>------- ---------- ------ -- ----- -- ----- -- ---- ------<br>--- ----- --- --- ------ -------- ----- --- ------ ----- --<br>----- ----- ---------- --- --- ------ ------ ---- -- ------<br>------- --- ------ ----- --- ---- ------- an ---- --- --<br>------- ------,246353.09999999963,246352.09999999963,245843.448,245826.2999999998,245860.142,246359.247,,50,an
screen,html.Screen,2_1_1_1_51,2022-02-02T17:58:48.291Z,,,,,,,,,,,,,,,,,54,,,,,,,,,,,,,,450.95300000018324,,response,,,,100,,,,,,,Space,keypress(Space),,,,,,,,-- --- ---- --- ------ ----- ------- ---- -- --- ------- --<br>------- ---------- ------ -- ----- -- ----- -- ---- ------<br>--- ----- --- --- ------ -------- ----- --- ------ ----- --<br>----- ----- ---------- --- --- ------ ------ ---- -- ------<br>------- --- ------ ----- --- ---- ------- -- easy --- --<br>------- ------,246811.09999999963,246810.2000000002,246342.825,246353.2999999998,246359.247,246825.306,,51,easy
screen,html.Screen,2_1_1_1_52,2022-02-02T17:58:48.705Z,,,,,,,,,,,,,,,,,54,,,,,,,,,,,,,,398.6939999999886,,response,,,,100,,,,,,,Space,keypress(Space),,,,,,,,-- --- ---- --- ------ ----- ------- ---- -- --- ------- --<br>------- ---------- ------ -- ----- -- ----- -- ---- ------<br>--- ----- --- --- ------ -------- ----- --- ------ ----- --<br>----- ----- ---------- --- --- ------ ------ ---- -- ------<br>------- --- ------ ----- --- ---- ------- -- ---- way --<br>------- ------,247224.90000000037,247224,246808.897,246811.2999999998,246825.306,247241.911,,52,way
screen,html.Screen,2_1_1_1_53,2022-02-02T17:58:49.265Z,,,,,,,,,,,,,,,,,54,,,,,,,,,,,,,,542.388999999821,,response,,,,100,,,,,,,Space,keypress(Space),,,,,,,,-- --- ---- --- ------ ----- ------- ---- -- --- ------- --<br>------- ---------- ------ -- ----- -- ----- -- ---- ------<br>--- ----- --- --- ------ -------- ----- --- ------ ----- --<br>----- ----- ---------- --- --- ------ ------ ---- -- ------<br>------- --- ------ ----- --- ---- ------- -- ---- --- of<br>------- ------,247785.2999999998,247784.2999999998,247224.923,247225.09999999963,247241.911,247790.967,,53,of
screen,html.Screen,2_1_1_1_54,2022-02-02T17:58:49.918Z,,,,,,,,,,,,,,,,,54,,,,,,,,,,,,,,646.8329999998095,,response,,,,100,,,,,,,Space,keypress(Space),,,,,,,,-- --- ---- --- ------ ----- ------- ---- -- --- ------- --<br>------- ---------- ------ -- ----- -- ----- -- ---- ------<br>--- ----- --- --- ------ -------- ----- --- ------ ----- --<br>----- ----- ---------- --- --- ------ ------ ---- -- ------<br>------- --- ------ ----- --- ---- ------- -- ---- --- --<br>raising ------,248438.7999999998,248437.7999999998,247774.614,247785.5,247790.967,248462.35,,54,raising
screen,html.Screen,2_1_1_1_55,2022-02-02T17:58:51.118Z,,,,,,,,,,,,,,,,,54,,,,,,,,,,,,,,1174.6499999999942,,response,,,,100,,,,,,,Space,keypress(Space),,,,,,,,-- --- ---- --- ------ ----- ------- ---- -- --- ------- --<br>------- ---------- ------ -- ----- -- ----- -- ---- ------<br>--- ----- --- --- ------ -------- ----- --- ------ ----- --<br>----- ----- ---------- --- --- ------ ------ ---- -- ------<br>------- --- ------ ----- --- ---- ------- -- ---- --- --<br>------- money.,249638.09999999963,249637,248424.406,248438.90000000037,248462.35,249655.941,,55,money.
Item 100,flow.Loop,2_1_1_1,2022-02-02T17:58:51.118Z,,,,,,,,,,,,,,,,,,,,,,,,,,,,,,,35125.84599999999,,completion,,,,,E,,,,,,,,,,,silence,,,,,249638.40000000037,249637,214494.494,214495.2999999998,214511.154,249655.941,,,
Question 1,html.Screen,2_1_1_2,2022-02-02T17:58:55.258Z,,,,,,,,,,,,,,,,,,,,,,,,,,,,true,TRUE,,4121.259000000195,,response,,,,100,E,,,,,,TRUE,click #choice-1,,,,silence,,,,,253778.2000000002,253777.2000000002,249622.919,249638.40000000037,249655.941,253784.34,,,
Question 2,html.Screen,2_1_1_3,2022-02-02T17:58:58.931Z,,,,,,,,,,,,,,,,,,,,,,,,,,,,true,FALSE,,3665.259999999631,,response,,,,100,E,,,,,,FALSE,click #choice-2,,,,silence,,,,,257451.2000000002,257449.59999999963,253767.791,253778.40000000037,253784.34,257463.664,,,
Item 100,flow.Sequence,2_1_1,2022-02-02T17:58:58.931Z,,,,,,,,,,,,,,,,,,,,,,,,,,,,,,,52944.534999999625,,completion,,,,,,,,,,,,,,,,,,,,,257451.40000000037,257449.59999999963,204488.818,204497.7999999998,204505.065,257463.664,,,
End of Practice,html.Page,2_1_2,2022-02-02T17:59:03.062Z,,,,,,,,,,,,,,,,,,,,,,,,,,,,,,,4117.83600000001,,form submission,,,,,,,,,,,,,,,,,,,,,261581.90000000037,261581.5,257447.334,257451.5,257463.664,261592.817,,,
Practice,flow.Sequence,2_1,2022-02-02T17:59:03.062Z,,,,,,,,,,,,,,,,,,,,,,,,,,,,,,,108886.27299999999,,completion,,,,,,,,,,,,,,,,,,,,,261582.09999999963,261581.5,152678.709,152690.59999999963,152695.227,261592.817,,,
Trap_instruction,html.Page,2_2_0,2022-02-02T17:59:06.968Z,,,,,,,,,,,,,,,,,,,,,,,,,,,,,,,3895.4829999998037,,form submission,,,,,,,,,,,,,,,,,,,,,265488.7000000002,265488.2999999998,261575.849,261582.2000000002,261592.817,265518.306,,,
trap_trial,html.Screen,2_2_1,2022-02-02T17:59:11.468Z,,,,,,,,,,,,,,,,,,,,,,,,,,,,true,1,,4468.59400000039,,response,,,,,,,,,,,1,click #choice-1,,,,,,,,,269988.7000000002,269986.9000000004,265472.057,265488.9000000004,265518.306,269999.957,,,
end of trap trial,html.Page,2_2_2,2022-02-02T17:59:13.098Z,,,,,,,,,,,,,,,,,,,,,,,,,,,,,,,1617.9430000003777,,form submission,,,,,,,,,,,,,,,,,,,,,271618.2999999998,271617.9000000004,269983.339,269988.9000000004,269999.957,271631.738,,,
Trap 1,flow.Sequence,2_2,2022-02-02T17:59:13.098Z,,,,,,,,,,,,,,,,,,,,,,,,,,,,,,,10025.083000000363,,completion,,,,,,,,,,,,,,,,,,,,,271618.5,271617.9000000004,261575.849,261582.2000000002,261592.817,271631.738,,,
Standby,html.Page,2_3_0,2022-02-02T17:59:21.104Z,,,,,,,,,,,,,,,,,,,,,,,,,,,,,,,8007.82699999999,,timeout,,,,,,,,,,,,,,,,,,,,,279623.7999999998,279623.086,271614.837,271618.7000000002,271631.738,279639.565,,,
Holding screen,html.Screen,2_3_1_0_0,2022-02-02T17:59:28.097Z,,,,,,,,,,,,,,,,,,,,,,,,,,,,,,,6992.514000000025,,timeout,,,,,,,,,,,,,,,,,,,,,286616.7000000002,286615.359,279623.086,279624,279639.565,286632.079,,,
screen,html.Screen,2_3_1_0_1_0,2022-02-02T17:59:29.559Z,,,,,,,,,,,,,,,,,2,,,,,,,,,,,,,,1445.3210000003455,,response,,,,1,E,,,,,,Space,keypress(Space),,,,lyrical,,,,Two ---- ------ --- ------- ---------- ------- ----------<br>--- --------- --- ----------- ------- ----- ------- ---<br>--------- ---- -- --- ---- -- --------- -- ---- -------<br>-- --------- ------ --- ----- ------ ---- --- --------- --<br>------ - ---- -- --- ----------- ------- ---- ----- -----<br>--- -------- - ------ ---- -- ----- ---- --- --- -----------<br>-- -------,288078.9000000004,288077.4000000004,286615.359,286617.0999999996,286632.079,288080.049,,0,Two
screen,html.Screen,2_3_1_0_1_1,2022-02-02T17:59:29.995Z,,,,,,,,,,,,,,,,,2,,,,,,,,,,,,,,433.35100000037346,,response,,,,1,E,,,,,,Space,keypress(Space),,,,lyrical,,,,--- days ------ --- ------- ---------- ------- ----------<br>--- --------- --- ----------- ------- ----- ------- ---<br>--------- ---- -- --- ---- -- --------- -- ---- -------<br>-- --------- ------ --- ----- ------ ---- --- --------- --<br>------ - ---- -- --- ----------- ------- ---- ----- -----<br>--- -------- - ------ ---- -- ----- ---- --- --- -----------<br>-- -------,288514.5,288513.4000000004,288063.823,288079,288080.049,288529.939,,1,days
screen,html.Screen,2_3_1_0_1_2,2022-02-02T17:59:30.442Z,,,,,,,,,,,,,,,,,2,,,,,,,,,,,,,,430.56099999998696,,response,,,,1,E,,,,,,Space,keypress(Space),,,,lyrical,,,,"--- ---- later, --- ------- ---------- ------- ----------<br>--- --------- --- ----------- ------- ----- ------- ---<br>--------- ---- -- --- ---- -- --------- -- ---- -------<br>-- --------- ------ --- ----- ------ ---- --- --------- --<br>------ - ---- -- --- ----------- ------- ---- ----- -----<br>--- -------- - ------ ---- -- ----- ---- --- --- -----------<br>-- -------",288962,288960.5,288513.231,288514.7000000002,288529.939,288979.191,,2,"later,"
screen,html.Screen,2_3_1_0_1_3,2022-02-02T17:59:31.182Z,,,,,,,,,,,,,,,,,2,,,,,,,,,,,,,,721.8090000000084,,response,,,,1,E,,,,,,Space,keypress(Space),,,,lyrical,,,,--- ---- ------ the ------- ---------- ------- ----------<br>--- --------- --- ----------- ------- ----- ------- ---<br>--------- ---- -- --- ---- -- --------- -- ---- -------<br>-- --------- ------ --- ----- ------ ---- --- --------- --<br>------ - ---- -- --- ----------- ------- ---- ----- -----<br>--- -------- - ------ ---- -- ----- ---- --- --- -----------<br>-- -------,289702.0999999996,289701,288962.574,288962.2000000002,288979.191,289712.023,,3,the
screen,html.Screen,2_3_1_0_1_4,2022-02-02T17:59:31.610Z,,,,,,,,,,,,,,,,,2,,,,,,,,,,,,,,417.076999999641,,response,,,,1,E,,,,,,Space,keypress(Space),,,,lyrical,,,,--- ---- ------ --- British ---------- ------- ----------<br>--- --------- --- ----------- ------- ----- ------- ---<br>--------- ---- -- --- ---- -- --------- -- ---- -------<br>-- --------- ------ --- ----- ------ ---- --- --------- --<br>------ - ---- -- --- ----------- ------- ---- ----- -----<br>--- -------- - ------ ---- -- ----- ---- --- --- -----------<br>-- -------,290130.0999999996,290129.0999999996,289695.062,289702.2000000002,289712.023,290144.837,,4,British
screen,html.Screen,2_3_1_0_1_5,2022-02-02T17:59:32.519Z,,,,,,,,,,,,,,,,,2,,,,,,,,,,,,,,892.6630000000005,,response,,,,1,E,,,,,,Space,keypress(Space),,,,lyrical,,,,--- ---- ------ --- ------- astronomer ------- ----------<br>--- --------- --- ----------- ------- ----- ------- ---<br>--------- ---- -- --- ---- -- --------- -- ---- -------<br>-- --------- ------ --- ----- ------ ---- --- --------- --<br>------ - ---- -- --- ----------- ------- ---- ----- -----<br>--- -------- - ------ ---- -- ----- ---- --- --- -----------<br>-- -------,291038.5,291037.5,290128.127,290130.2999999998,290144.837,291043.514,,5,astronomer
screen,html.Screen,2_3_1_0_1_6,2022-02-02T17:59:32.940Z,,,,,,,,,,,,,,,,,2,,,,,,,,,,,,,,415.28599999978906,,response,,,,1,E,,,,,,Space,keypress(Space),,,,lyrical,,,,--- ---- ------ --- ------- ---------- Richard ----------<br>--- --------- --- ----------- ------- ----- ------- ---<br>--------- ---- -- --- ---- -- --------- -- ---- -------<br>-- --------- ------ --- ----- ------ ---- --- --------- --<br>------ - ---- -- --- ----------- ------- ---- ----- -----<br>--- -------- - ------ ---- -- ----- ---- --- --- -----------<br>-- -------,291459.7999999998,291458.7999999998,291027.236,291038.7000000002,291043.514,291476.535,,6,Richard
screen,html.Screen,2_3_1_0_1_7,2022-02-02T17:59:33.620Z,,,,,,,,,,,,,,,,,2,,,,,,,,,,,,,,662.1650000002119,,response,,,,1,E,,,,,,Space,keypress(Space),,,,lyrical,,,,--- ---- ------ --- ------- ---------- ------- Carrington<br>--- --------- --- ----------- ------- ----- ------- ---<br>--------- ---- -- --- ---- -- --------- -- ---- -------<br>-- --------- ------ --- ----- ------ ---- --- --------- --<br>------ - ---- -- --- ----------- ------- ---- ----- -----<br>--- -------- - ------ ---- -- ----- ---- --- --- -----------<br>-- -------,292139.5,292138.7000000002,291460.229,291460,291476.535,292142.34,,7,Carrington
screen,html.Screen,2_3_1_0_1_8,2022-02-02T17:59:34.097Z,,,,,,,,,,,,,,,,,2,,,,,,,,,,,,,,473.36000000016065,,response,,,,1,E,,,,,,Space,keypress(Space),,,,lyrical,,,,--- ---- ------ --- ------- ---------- ------- ----------<br>was --------- --- ----------- ------- ----- ------- ---<br>--------- ---- -- --- ---- -- --------- -- ---- -------<br>-- --------- ------ --- ----- ------ ---- --- --------- --<br>------ - ---- -- --- ----------- ------- ---- ----- -----<br>--- -------- - ------ ---- -- ----- ---- --- --- -----------<br>-- -------,292616.7999999998,292615.7000000002,292126.002,292139.7000000002,292142.34,292625.223,,8,was
screen,html.Screen,2_3_1_0_1_9,2022-02-02T17:59:34.746Z,,,,,,,,,,,,,,,,,2,,,,,,,,,,,,,,639.4770000001881,,response,,,,1,E,,,,,,Space,keypress(Space),,,,lyrical,,,,--- ---- ------ --- ------- ---------- ------- ----------<br>--- observing --- ----------- ------- ----- ------- ---<br>--------- ---- -- --- ---- -- --------- -- ---- -------<br>-- --------- ------ --- ----- ------ ---- --- --------- --<br>------ - ---- -- --- ----------- ------- ---- ----- -----<br>--- -------- - ------ ---- -- ----- ---- --- --- -----------<br>-- -------,293266.0999999996,293264.7000000002,292608.542,292617,292625.223,293274.336,,9,observing
screen,html.Screen,2_3_1_0_1_10,2022-02-02T17:59:35.185Z,,,,,,,,,,,,,,,,,2,,,,,,,,,,,,,,429.2639999996172,,response,,,,1,E,,,,,,Space,keypress(Space),,,,lyrical,,,,--- ---- ------ --- ------- ---------- ------- ----------<br>--- --------- the ----------- ------- ----- ------- ---<br>--------- ---- -- --- ---- -- --------- -- ---- -------<br>-- --------- ------ --- ----- ------ ---- --- --------- --<br>------ - ---- -- --- ----------- ------- ---- ----- -----<br>--- -------- - ------ ---- -- ----- ---- --- --- -----------<br>-- -------,293704.5999999996,293703.5999999996,293258.08,293266.2999999998,293274.336,293707.285,,10,the
screen,html.Screen,2_3_1_0_1_11,2022-02-02T17:59:37.200Z,,,,,,,,,,,,,,,,,2,,,,,,,,,,,,,,2011.5149999998393,,response,,,,1,E,,,,,,Space,keypress(Space),,,,lyrical,,,,--- ---- ------ --- ------- ---------- ------- ----------<br>--- --------- --- interesting ------- ----- ------- ---<br>--------- ---- -- --- ---- -- --------- -- ---- -------<br>-- --------- ------ --- ----- ------ ---- --- --------- --<br>------ - ---- -- --- ----------- ------- ---- ----- -----<br>--- -------- - ------ ---- -- ----- ---- --- --- -----------<br>-- -------,295719.7000000002,295718.7999999998,293691.111,293704.7000000002,293707.285,295721.676,,11,interesting
screen,html.Screen,2_3_1_0_1_12,2022-02-02T17:59:37.633Z,,,,,,,,,,,,,,,,,2,,,,,,,,,,,,,,429.5240000002086,,response,,,,1,E,,,,,,Space,keypress(Space),,,,lyrical,,,,--- ---- ------ --- ------- ---------- ------- ----------<br>--- --------- --- ----------- sunspot ----- ------- ---<br>--------- ---- -- --- ---- -- --------- -- ---- -------<br>-- --------- ------ --- ----- ------ ---- --- --------- --<br>------ - ---- -- --- ----------- ------- ---- ----- -----<br>--- -------- - ------ ---- -- ----- ---- --- --- -----------<br>-- -------,296152.4000000004,296151.2000000002,295705.551,295719.7999999998,295721.676,296154.549,,12,sunspot
screen,html.Screen,2_3_1_0_1_13,2022-02-02T17:59:37.984Z,,,,,,,,,,,,,,,,,2,,,,,,,,,,,,,,348.25099999981467,,response,,,,1,E,,,,,,Space,keypress(Space),,,,lyrical,,,,--- ---- ------ --- ------- ---------- ------- ----------<br>--- --------- --- ----------- ------- group ------- ---<br>--------- ---- -- --- ---- -- --------- -- ---- -------<br>-- --------- ------ --- ----- ------ ---- --- --------- --<br>------ - ---- -- --- ----------- ------- ---- ----- -----<br>--- -------- - ------ ---- -- ----- ---- --- --- -----------<br>-- -------,296503.7999999998,296502.7999999998,296138.103,296152.5999999996,296154.549,296521.205,,13,group
screen,html.Screen,2_3_1_0_1_14,2022-02-02T17:59:38.507Z,,,,,,,,,,,,,,,,,2,,,,,,,,,,,,,,505.19500000035623,,response,,,,1,E,,,,,,Space,keypress(Space),,,,lyrical,,,,--- ---- ------ --- ------- ---------- ------- ----------<br>--- --------- --- ----------- ------- ----- through ---<br>--------- ---- -- --- ---- -- --------- -- ---- -------<br>-- --------- ------ --- ----- ------ ---- --- --------- --<br>------ - ---- -- --- ----------- ------- ---- ----- -----<br>--- -------- - ------ ---- -- ----- ---- --- --- -----------<br>-- -------,297027.2999999998,297026.4000000004,296504.436,296503.9000000004,296521.205,297037.114,,14,through
screen,html.Screen,2_3_1_0_1_15,2022-02-02T17:59:39.116Z,,,,,,,,,,,,,,,,,2,,,,,,,,,,,,,,597.3859999999986,,response,,,,1,E,,,,,,Space,keypress(Space),,,,lyrical,,,,--- ---- ------ --- ------- ---------- ------- ----------<br>--- --------- --- ----------- ------- ----- ------- his<br>--------- ---- -- --- ---- -- --------- -- ---- -------<br>-- --------- ------ --- ----- ------ ---- --- --------- --<br>------ - ---- -- --- ----------- ------- ---- ----- -----<br>--- -------- - ------ ---- -- ----- ---- --- --- -----------<br>-- -------,297635.5999999996,297634.5,297020.592,297027.4000000004,297037.114,297653.267,,15,his
screen,html.Screen,2_3_1_0_1_16,2022-02-02T17:59:40.146Z,,,,,,,,,,,,,,,,,2,,,,,,,,,,,,,,1012.0329999998212,,response,,,,1,E,,,,,,Space,keypress(Space),,,,lyrical,,,,--- ---- ------ --- ------- ---------- ------- ----------<br>--- --------- --- ----------- ------- ----- ------- ---<br>telescope ---- -- --- ---- -- --------- -- ---- -------<br>-- --------- ------ --- ----- ------ ---- --- --------- --<br>------ - ---- -- --- ----------- ------- ---- ----- -----<br>--- -------- - ------ ---- -- ----- ---- --- --- -----------<br>-- -------,298666.4000000004,298665.2999999998,297636.436,297635.7000000002,297653.267,298668.47,,16,telescope
screen,html.Screen,2_3_1_0_1_17,2022-02-02T17:59:40.669Z,,,,,,,,,,,,,,,,,2,,,,,,,,,,,,,,519.5300000000279,,response,,,,1,E,,,,,,Space,keypress(Space),,,,lyrical,,,,--- ---- ------ --- ------- ---------- ------- ----------<br>--- --------- --- ----------- ------- ----- ------- ---<br>--------- when -- --- ---- -- --------- -- ---- -------<br>-- --------- ------ --- ----- ------ ---- --- --------- --<br>------ - ---- -- --- ----------- ------- ---- ----- -----<br>--- -------- - ------ ---- -- ----- ---- --- --- -----------<br>-- -------,299189,299188,298652.265,298666.5,298668.47,299201.304,,17,when
screen,html.Screen,2_3_1_0_1_18,2022-02-02T17:59:41.017Z,,,,,,,,,,,,,,,,,2,,,,,,,,,,,,,,334.5960000003688,,response,,,,1,E,,,,,,Space,keypress(Space),,,,lyrical,,,,--- ---- ------ --- ------- ---------- ------- ----------<br>--- --------- --- ----------- ------- ----- ------- ---<br>--------- ---- he --- ---- -- --------- -- ---- -------<br>-- --------- ------ --- ----- ------ ---- --- --------- --<br>------ - ---- -- --- ----------- ------- ---- ----- -----<br>--- -------- - ------ ---- -- ----- ---- --- --- -----------<br>-- -------,299536.7000000002,299535.9000000004,299185.155,299189.2000000002,299201.304,299551.213,,18,he
screen,html.Screen,2_3_1_0_1_19,2022-02-02T17:59:41.462Z,,,,,,,,,,,,,,,,,2,,,,,,,,,,,,,,429.6870000003837,,response,,,,1,E,,,,,,Space,keypress(Space),,,,lyrical,,,,--- ---- ------ --- ------- ---------- ------- ----------<br>--- --------- --- ----------- ------- ----- ------- ---<br>--------- ---- -- saw ---- -- --------- -- ---- -------<br>-- --------- ------ --- ----- ------ ---- --- --------- --<br>------ - ---- -- --- ----------- ------- ---- ----- -----<br>--- -------- - ------ ---- -- ----- ---- --- --- -----------<br>-- -------,299981.9000000004,299980.9000000004,299534.523,299536.7999999998,299551.213,300016.708,,19,saw
screen,html.Screen,2_3_1_0_1_20,2022-02-02T17:59:41.879Z,,,,,,,,,,,,,,,,,2,,,,,,,,,,,,,,381.09199999982957,,response,,,,1,E,,,,,,Space,keypress(Space),,,,lyrical,,,,--- ---- ------ --- ------- ---------- ------- ----------<br>--- --------- --- ----------- ------- ----- ------- ---<br>--------- ---- -- --- what -- --------- -- ---- -------<br>-- --------- ------ --- ----- ------ ---- --- --------- --<br>------ - ---- -- --- ----------- ------- ---- ----- -----<br>--- -------- - ------ ---- -- ----- ---- --- --- -----------<br>-- -------,300398.5999999996,300397.7999999998,299967.348,299982,300016.708,300436.448,,20,what
screen,html.Screen,2_3_1_0_1_21,2022-02-02T17:59:42.295Z,,,,,,,,,,,,,,,,,2,,,,,,,,,,,,,,377.3519999998389,,response,,,,1,E,,,,,,Space,keypress(Space),,,,lyrical,,,,--- ---- ------ --- ------- ---------- ------- ----------<br>--- --------- --- ----------- ------- ----- ------- ---<br>--------- ---- -- --- ---- he --------- -- ---- -------<br>-- --------- ------ --- ----- ------ ---- --- --------- --<br>------ - ---- -- --- ----------- ------- ---- ----- -----<br>--- -------- - ------ ---- -- ----- ---- --- --- -----------<br>-- -------,300814.5999999996,300813.7999999998,300383.331,300398.7999999998,300436.448,300836.588,,21,he
screen,html.Screen,2_3_1_0_1_22,2022-02-02T17:59:42.855Z,,,,,,,,,,,,,,,,,2,,,,,,,,,,,,,,537.0119999996386,,response,,,,1,E,,,,,,Space,keypress(Space),,,,lyrical,,,,--- ---- ------ --- ------- ---------- ------- ----------<br>--- --------- --- ----------- ------- ----- ------- ---<br>--------- ---- -- --- ---- -- described -- ---- -------<br>-- --------- ------ --- ----- ------ ---- --- --------- --<br>------ - ---- -- --- ----------- ------- ---- ----- -----<br>--- -------- - ------ ---- -- ----- ---- --- --- -----------<br>-- -------,301374.7000000002,301373.5999999996,300799.849,300814.7999999998,300836.588,301382.209,,22,described
screen,html.Screen,2_3_1_0_1_23,2022-02-02T17:59:43.157Z,,,,,,,,,,,,,,,,,2,,,,,,,,,,,,,,293.6910000003991,,response,,,,1,E,,,,,,Space,keypress(Space),,,,lyrical,,,,--- ---- ------ --- ------- ---------- ------- ----------<br>--- --------- --- ----------- ------- ----- ------- ---<br>--------- ---- -- --- ---- -- --------- as ---- -------<br>-- --------- ------ --- ----- ------ ---- --- --------- --<br>------ - ---- -- --- ----------- ------- ---- ----- -----<br>--- -------- - ------ ---- -- ----- ---- --- --- -----------<br>-- -------,301677,301675.9000000004,301365.774,301374.7999999998,301382.209,301681.814,,23,as
screen,html.Screen,2_3_1_0_1_24,2022-02-02T17:59:43.568Z,,,,,,,,,,,,,,,,,2,,,,,,,,,,,,,,404.4859999998007,,response,,,,1,E,,,,,,Space,keypress(Space),,,,lyrical,,,,"--- ---- ------ --- ------- ---------- ------- ----------<br>--- --------- --- ----------- ------- ----- ------- ---<br>--------- ---- -- --- ---- -- --------- -- ""two -------<br>-- --------- ------ --- ----- ------ ---- --- --------- --<br>------ - ---- -- --- ----------- ------- ---- ----- -----<br>--- -------- - ------ ---- -- ----- ---- --- --- -----------<br>-- -------",302087.5,302086.2999999998,301665.484,301677.0999999996,301681.814,302098.127,,24,"""two"
screen,html.Screen,2_3_1_0_1_25,2022-02-02T17:59:44.157Z,,,,,,,,,,,,,,,,,2,,,,,,,,,,,,,,577.8730000000214,,response,,,,1,E,,,,,,Space,keypress(Space),,,,lyrical,,,,--- ---- ------ --- ------- ---------- ------- ----------<br>--- --------- --- ----------- ------- ----- ------- ---<br>--------- ---- -- --- ---- -- --------- -- ---- patches<br>-- --------- ------ --- ----- ------ ---- --- --------- --<br>------ - ---- -- --- ----------- ------- ---- ----- -----<br>--- -------- - ------ ---- -- ----- ---- --- --- -----------<br>-- -------,302676.9000000004,302676,302081.644,302087.7999999998,302098.127,302680.705,,25,patches
screen,html.Screen,2_3_1_0_1_26,2022-02-02T17:59:44.595Z,,,,,,,,,,,,,,,,,2,,,,,,,,,,,,,,433.2949999999837,,response,,,,1,E,,,,,,Space,keypress(Space),,,,lyrical,,,,--- ---- ------ --- ------- ---------- ------- ----------<br>--- --------- --- ----------- ------- ----- ------- ---<br>--------- ---- -- --- ---- -- --------- -- ---- -------<br>of --------- ------ --- ----- ------ ---- --- --------- --<br>------ - ---- -- --- ----------- ------- ---- ----- -----<br>--- -------- - ------ ---- -- ----- ---- --- --- -----------<br>-- -------,303115,303114,302664.181,302677.2000000002,302680.705,303130.529,,26,of
screen,html.Screen,2_3_1_0_1_27,2022-02-02T17:59:45.167Z,,,,,,,,,,,,,,,,,2,,,,,,,,,,,,,,554.9710000000196,,response,,,,1,E,,,,,,Space,keypress(Space),,,,lyrical,,,,--- ---- ------ --- ------- ---------- ------- ----------<br>--- --------- --- ----------- ------- ----- ------- ---<br>--------- ---- -- --- ---- -- --------- -- ---- -------<br>-- intensely ------ --- ----- ------ ---- --- --------- --<br>------ - ---- -- --- ----------- ------- ---- ----- -----<br>--- -------- - ------ ---- -- ----- ---- --- --- -----------<br>-- -------,303686.5999999996,303685.5,303114.045,303115.2000000002,303130.529,303696.284,,27,intensely
screen,html.Screen,2_3_1_0_1_28,2022-02-02T17:59:45.581Z,,,,,,,,,,,,,,,,,2,,,,,,,,,,,,,,403.3159999996424,,response,,,,1,E,,,,,,Space,keypress(Space),,,,lyrical,,,,--- ---- ------ --- ------- ---------- ------- ----------<br>--- --------- --- ----------- ------- ----- ------- ---<br>--------- ---- -- --- ---- -- --------- -- ---- -------<br>-- --------- bright --- ----- ------ ---- --- --------- --<br>------ - ---- -- --- ----------- ------- ---- ----- -----<br>--- -------- - ------ ---- -- ----- ---- --- --- -----------<br>-- -------,304100.7000000002,304099.5999999996,303680.006,303687,303696.284,304112.846,,28,bright
screen,html.Screen,2_3_1_0_1_29,2022-02-02T17:59:45.873Z,,,,,,,,,,,,,,,,,2,,,,,,,,,,,,,,279.15399999998044,,response,,,,1,E,,,,,,Space,keypress(Space),,,,lyrical,,,,--- ---- ------ --- ------- ---------- ------- ----------<br>--- --------- --- ----------- ------- ----- ------- ---<br>--------- ---- -- --- ---- -- --------- -- ---- -------<br>-- --------- ------ and ----- ------ ---- --- --------- --<br>------ - ---- -- --- ----------- ------- ---- ----- -----<br>--- -------- - ------ ---- -- ----- ---- --- --- -----------<br>-- -------,304393,304392,304095.885,304100.9000000004,304112.846,304395.559,,29,and
screen,html.Screen,2_3_1_0_1_30,2022-02-02T17:59:46.295Z,,,,,,,,,,,,,,,,,2,,,,,,,,,,,,,,418.1410000001779,,response,,,,1,E,,,,,,Space,keypress(Space),,,,lyrical,,,,--- ---- ------ --- ------- ---------- ------- ----------<br>--- --------- --- ----------- ------- ----- ------- ---<br>--------- ---- -- --- ---- -- --------- -- ---- -------<br>-- --------- ------ --- white ------ ---- --- --------- --<br>------ - ---- -- --- ----------- ------- ---- ----- -----<br>--- -------- - ------ ---- -- ----- ---- --- --- -----------<br>-- -------,304814.7000000002,304813.7000000002,304379.188,304393.2000000002,304395.559,304829.229,,30,white
screen,html.Screen,2_3_1_0_1_31,2022-02-02T17:59:46.598Z,,,,,,,,,,,,,,,,,2,,,,,,,,,,,,,,287.2710000000079,,response,,,,1,E,,,,,,Space,keypress(Space),,,,lyrical,,,,"--- ---- ------ --- ------- ---------- ------- ----------<br>--- --------- --- ----------- ------- ----- ------- ---<br>--------- ---- -- --- ---- -- --------- -- ---- -------<br>-- --------- ------ --- ----- light"" ---- --- --------- --<br>------ - ---- -- --- ----------- ------- ---- ----- -----<br>--- -------- - ------ ---- -- ----- ---- --- --- -----------<br>-- -------",305117.4000000004,305116.5,304811.83,304814.9000000004,304829.229,305128.203,,31,"light"""
screen,html.Screen,2_3_1_0_1_32,2022-02-02T17:59:46.832Z,,,,,,,,,,,,,,,,,2,,,,,,,,,,,,,,222.7970000000205,,response,,,,1,E,,,,,,Space,keypress(Space),,,,lyrical,,,,--- ---- ------ --- ------- ---------- ------- ----------<br>--- --------- --- ----------- ------- ----- ------- ---<br>--------- ---- -- --- ---- -- --------- -- ---- -------<br>-- --------- ------ --- ----- ------ over --- --------- --<br>------ - ---- -- --- ----------- ------- ---- ----- -----<br>--- -------- - ------ ---- -- ----- ---- --- --- -----------<br>-- -------,305351.9000000004,305351,305111.751,305117.5,305128.203,305361.207,,32,over
screen,html.Screen,2_3_1_0_1_33,2022-02-02T17:59:47.188Z,,,,,,,,,,,,,,,,,2,,,,,,,,,,,,,,345.7930000000051,,response,,,,1,E,,,,,,Space,keypress(Space),,,,lyrical,,,,--- ---- ------ --- ------- ---------- ------- ----------<br>--- --------- --- ----------- ------- ----- ------- ---<br>--------- ---- -- --- ---- -- --------- -- ---- -------<br>-- --------- ------ --- ----- ------ ---- the --------- --<br>------ - ---- -- --- ----------- ------- ---- ----- -----<br>--- -------- - ------ ---- -- ----- ---- --- --- -----------<br>-- -------,305708.0999999996,305707,305344.773,305352.0999999996,305361.207,305710.711,,33,the
screen,html.Screen,2_3_1_0_1_34,2022-02-02T17:59:47.877Z,,,,,,,,,,,,,,,,,2,,,,,,,,,,,,,,684.6890000003623,,response,,,,1,E,,,,,,Space,keypress(Space),,,,lyrical,,,,--- ---- ------ --- ------- ---------- ------- ----------<br>--- --------- --- ----------- ------- ----- ------- ---<br>--------- ---- -- --- ---- -- --------- -- ---- -------<br>-- --------- ------ --- ----- ------ ---- --- sunspots. --<br>------ - ---- -- --- ----------- ------- ---- ----- -----<br>--- -------- - ------ ---- -- ----- ---- --- --- -----------<br>-- -------,306396.4000000004,306395.4000000004,305694.134,305708.2000000002,305710.711,306410.272,,34,sunspots.
screen,html.Screen,2_3_1_0_1_35,2022-02-02T17:59:48.296Z,,,,,,,,,,,,,,,,,2,,,,,,,,,,,,,,404.32799999963026,,response,,,,1,E,,,,,,Space,keypress(Space),,,,lyrical,,,,--- ---- ------ --- ------- ---------- ------- ----------<br>--- --------- --- ----------- ------- ----- ------- ---<br>--------- ---- -- --- ---- -- --------- -- ---- -------<br>-- --------- ------ --- ----- ------ ---- --- --------- He<br>------ - ---- -- --- ----------- ------- ---- ----- -----<br>--- -------- - ------ ---- -- ----- ---- --- --- -----------<br>-- -------,306815.5,306814.5999999996,306393.494,306396.5999999996,306410.272,306826.397,,35,He
screen,html.Screen,2_3_1_0_1_36,2022-02-02T17:59:49.395Z,,,,,,,,,,,,,,,,,2,,,,,,,,,,,,,,1087.6030000000028,,response,,,,1,E,,,,,,Space,keypress(Space),,,,lyrical,,,,--- ---- ------ --- ------- ---------- ------- ----------<br>--- --------- --- ----------- ------- ----- ------- ---<br>--------- ---- -- --- ---- -- --------- -- ---- -------<br>-- --------- ------ --- ----- ------ ---- --- --------- --<br>jotted - ---- -- --- ----------- ------- ---- ----- -----<br>--- -------- - ------ ---- -- ----- ---- --- --- -----------<br>-- -------,307914.9000000004,307914,306809.913,306815.7999999998,306826.397,307925.296,,36,jotted
screen,html.Screen,2_3_1_0_1_37,2022-02-02T17:59:49.761Z,,,,,,,,,,,,,,,,,2,,,,,,,,,,,,,,354.9040000002133,,response,,,,1,E,,,,,,Space,keypress(Space),,,,lyrical,,,,--- ---- ------ --- ------- ---------- ------- ----------<br>--- --------- --- ----------- ------- ----- ------- ---<br>--------- ---- -- --- ---- -- --------- -- ---- -------<br>-- --------- ------ --- ----- ------ ---- --- --------- --<br>------ a ---- -- --- ----------- ------- ---- ----- -----<br>--- -------- - ------ ---- -- ----- ---- --- --- -----------<br>-- -------,308281.2000000002,308280.2000000002,307908.577,307915.0999999996,307925.296,308291.283,,37,a
screen,html.Screen,2_3_1_0_1_38,2022-02-02T17:59:50.077Z,,,,,,,,,,,,,,,,,2,,,,,,,,,,,,,,304.41700000019046,,response,,,,1,E,,,,,,Space,keypress(Space),,,,lyrical,,,,--- ---- ------ --- ------- ---------- ------- ----------<br>--- --------- --- ----------- ------- ----- ------- ---<br>--------- ---- -- --- ---- -- --------- -- ---- -------<br>-- --------- ------ --- ----- ------ ---- --- --------- --<br>------ - note -- --- ----------- ------- ---- ----- -----<br>--- -------- - ------ ---- -- ----- ---- --- --- -----------<br>-- -------,308596.7999999998,308595.7000000002,308274.933,308281.5,308291.283,308607.967,,38,note
