sender,sender_type,sender_id,timestamp,meta,,Blues,Classical,Country,Dance,Electronic,Folk,Gospel,Hip-Hop,Jazz,Latin,Musical/Film,New-age,Pop,Prolific_id,Provo_ID,R&B,Rap,Reggae,Religious,Rock,Soul,Swing,Traditional,age,artist_name,correct,correctResponse,distraction,duration,education,ended_on,familiarity,gender,headphone_check_performance,item,list,music_frequency,offensiveness,pleasantness,position_correct,preference,response,response_action,snippet_file,song_name,song_rating,sound,stimulus_1,stimulus_2,stimulus_3,text,time_commit,time_end,time_render,time_run,time_show,time_switch,url,word,word_ID
Prolific ID,html.Form,0,2022-02-15T15:57:44.181Z,"{""labjs_version"":""20.2.2"",""labjs_build"":{""flavor"":""production"",""commit"":""a25486e0c714a0ae2ce03ff94b7bb6896854dcfa""},""location"":""https://run.pavlovia.org/mvasilev/prolific2_music_a/"",""userAgent"":""Mozilla/5.0 (Macintosh; Intel Mac OS X 10_12_6) AppleWebKit/537.36 (KHTML, like Gecko) Chrome/96.0.4664.55 Safari/537.36"",""platform"":""MacIntel"",""language"":""en-GB"",""locale"":""en-GB"",""timeZone"":""Europe/London"",""timezoneOffset"":0,""screen_width"":1440,""screen_height"":900,""scroll_width"":1315,""scroll_height"":588,""window_innerWidth"":1315,""window_innerHeight"":636,""devicePixelRatio"":1}",,,,,,,,,,,,,,,60d332d15ea0b41e6603bba3,,,,,,,,,,,,,,,6565.153000071525,,form submission,,,,,,,,,,,,,,,,,,,,,28441.300000071526,28440.300000071526,21841.813,21850.600000023842,21875.147,28459.936,{},,
Introduction,html.Screen,1_0,2022-02-15T15:57:47.510Z,,,,,,,,,,,,,,,,,,,,,,,,,,,,,,,3305.864000071524,,response,,,,,,,,,,,continue,click button,,,,,,,,,31770.800000071526,31765.800000071526,28443.269,28441.600000023842,28459.936,31793.336,,,
Volume calibration,html.Screen,1_1,2022-02-15T15:58:06.430Z,,,,,,,,,,,,,,,,,,,,,,,,,,,,,,,18895.164,,response,,,,,,,,,,,continue,click button,,,,,,,,,50691.300000071526,50688.5,31776.669,31771,31793.336,50711.592,,,
Task instructions,html.Screen,1_2,2022-02-15T15:58:17.535Z,,,,,,,,,,,,,,,,,,,,,,,,,,,,,,,11082.608000047687,,response,,,,,,,,,,,continue,click button,,,,,,,,,61797,61794.200000047684,50694.925,50691.39999997616,50711.592,61811.814,,,
Sounds,html.Screen,1_3_0_0,2022-02-15T15:58:21.788Z,,,,,,,,,,,,,,,,,,,,,,,,,,,,,,,4250.824000000008,,timeout,,,,,,,,,2,,,,,,,,O,S,I,,66050.70000004768,66045.971,61795.147,61797.5,61811.814,66062.638,,,
Judgement,html.Screen,1_3_0_1,2022-02-15T15:58:23.548Z,,,,,,,,,,,,,,,,,,,,,,,,,,,,true,2,,1745.8619999999937,,response,,,,,,,,,2,,2,click #choice-2,,,,,O,S,I,,67811.20000004768,67808.5,66045.971,66050.89999997616,66062.638,67829.34,,,
Trial,flow.Sequence,1_3_0,2022-02-15T15:58:23.549Z,,,,,,,,,,,,,,,,,,,,,,,,,,,,,,,5996.6860000000015,,completion,,,,,,,,,2,,,,,,,,O,S,I,,67811.70000004768,67808.5,61795.147,61797.300000071526,61811.814,67829.34,,,
Sounds,html.Screen,1_3_1_0,2022-02-15T15:58:27.803Z,,,,,,,,,,,,,,,,,,,,,,,,,,,,,,,4250.085000000006,,timeout,,,,,,,,,3,,,,,,,,I,O,S,,72065.60000002384,72062.758,67812.673,67811.89999997616,67829.34,72079.425,,,
Judgement,html.Screen,1_3_1_1,2022-02-15T15:58:28.469Z,,,,,,,,,,,,,,,,,,,,,,,,,,,,true,3,,649.9749999761552,,response,,,,,,,,,3,,3,click #choice-3,,,,,I,O,S,,72732.5,72729.39999997616,72062.758,72065.80000007153,72079.425,72746.543,,,
Trial,flow.Sequence,1_3_1,2022-02-15T15:58:28.470Z,,,,,,,,,,,,,,,,,,,,,,,,,,,,,,,4900.059999976162,,completion,,,,,,,,,3,,,,,,,,I,O,S,,72732.89999997616,72729.39999997616,67812.673,67811.89999997616,67829.34,72746.543,,,
Sounds,html.Screen,1_3_2_0,2022-02-15T15:58:32.719Z,,,,,,,,,,,,,,,,,,,,,,,,,,,,,,,4250.084999999992,,timeout,,,,,,,,,2,,,,,,,,I,S,O,,76982.60000002384,76979.961,72729.876,72733.30000007153,72746.543,76996.628,,,
Judgement,html.Screen,1_3_2_1,2022-02-15T15:58:33.370Z,,,,,,,,,,,,,,,,,,,,,,,,,,,,true,2,,633.7719999761612,,response,,,,,,,,,2,,2,click #choice-2,,,,,I,S,O,,77633.70000004768,77630.39999997616,76979.961,76982.89999997616,76996.628,77646.641,,,
Trial,flow.Sequence,1_3_2,2022-02-15T15:58:33.371Z,,,,,,,,,,,,,,,,,,,,,,,,,,,,,,,4883.856999976153,,completion,,,,,,,,,2,,,,,,,,I,S,O,,77634.10000002384,77630.39999997616,72729.876,72733.20000004768,72746.543,77646.641,,,
Sounds,html.Screen,1_3_3_0,2022-02-15T15:58:37.618Z,,,,,,,,,,,,,,,,,,,,,,,,,,,,,,,4250.084999999992,,timeout,,,,,,,,,3,,,,,,,,O,I,S,,81882,81880.059,77629.974,77634.30000007153,77646.641,81896.726,,,
Judgement,html.Screen,1_3_3_1,2022-02-15T15:58:38.230Z,,,,,,,,,,,,,,,,,,,,,,,,,,,,true,3,,593.8740000238467,,response,,,,,,,,,3,,3,click #choice-3,,,,,O,I,S,,82493.5,82490.60000002384,81880.059,81882.20000004768,81896.726,82513.405,,,
Trial,flow.Sequence,1_3_3,2022-02-15T15:58:38.230Z,,,,,,,,,,,,,,,,,,,,,,,,,,,,,,,4843.959000023839,,completion,,,,,,,,,3,,,,,,,,O,I,S,,82493.80000007153,82490.60000002384,77629.974,77634.30000007153,77646.641,82513.405,,,
Sounds,html.Screen,1_3_4_0,2022-02-15T15:58:42.485Z,,,,,,,,,,,,,,,,,,,,,,,,,,,,,,,4250.085000000006,,timeout,,,,,,,,,1,,,,,,,,S,O,I,,86749,86746.823,82496.738,82494,82513.405,86763.49,,,
Judgement,html.Screen,1_3_4_1,2022-02-15T15:58:43.233Z,,,,,,,,,,,,,,,,,,,,,,,,,,,,true,1,,731.7100000476785,,response,,,,,,,,,1,,1,click #choice-1,,,,,S,O,I,,87497.60000002384,87495.20000004768,86746.823,86749.10000002384,86763.49,87514.114,,,
Trial,flow.Sequence,1_3_4,2022-02-15T15:58:43.234Z,,,,,,,,,,,,,,,,,,,,,,,,,,,,,,,4981.795000047685,,completion,,,,,,,,,1,,,,,,,,S,O,I,,87498,87495.20000004768,82496.738,82493.89999997616,82513.405,87514.114,,,
Sounds,html.Screen,1_3_5_0,2022-02-15T15:58:47.486Z,,,,,,,,,,,,,,,,,,,,,,,,,,,,,,,4250.084999999992,,timeout,,,,,,,,,1,,,,,,,,S,I,O,,91750.5,91747.532,87497.447,87498.20000004768,87514.114,91764.199,,,
Judgement,html.Screen,1_3_5_1,2022-02-15T15:58:47.925Z,,,,,,,,,,,,,,,,,,,,,,,,,,,,true,1,,423.2009999761649,,response,,,,,,,,,1,,1,click #choice-1,,,,,S,I,O,,92188.89999997616,92187.39999997616,91747.532,91750.60000002384,91764.199,92214.208,,,
Trial,flow.Sequence,1_3_5,2022-02-15T15:58:47.925Z,,,,,,,,,,,,,,,,,,,,,,,,,,,,,,,4673.285999976157,,completion,,,,,,,,,1,,,,,,,,S,I,O,,92189.10000002384,92187.39999997616,87497.447,87498.10000002384,87514.114,92214.208,,,
Task,flow.Loop,1_3,2022-02-15T15:58:47.929Z,,,,,,,,,,,,,,,,,,,,,,,,,,,,,,,30375.58599997616,,completion,,,1,,,,,,,,,,,,,,,,,,92193.80000007153,92187.39999997616,61795.147,61797.200000047684,61811.814,92214.208,,,
Trap,html.Screen,1_4,2022-02-15T15:58:47.931Z,,,,,,,,,,,,,,,,,,,,,,,,,,,,,,,NaN,,skipped,,,,,,,,,,,,,,,,,,,,,92195.39999997616,92187.39999997616,,92195.20000004768,,92214.208,,,
Thanks,html.Screen,1_5,2022-02-15T15:58:50.840Z,,,,,,,,,,,,,,,,,,,,,,,,,,,,,,,2887.592000071527,,response,,,,,,,,,,,continue,click button,,,,,,,,,95104.39999997616,95101.80000007153,92197.541,92195.39999997616,92214.208,97998.224,,,
Headphone screening,flow.Sequence,1,2022-02-15T15:58:50.840Z,,,,,,,,,,,,,,,,,,,,,,,,,,,,,,,66641.86400007152,,completion,,,,,,,,,,,,,,,,,,,,,95104.70000004768,95101.80000007153,28443.269,28441.600000023842,28459.936,97998.224,,,
Instructions,html.Page,2_0,2022-02-15T15:59:09.601Z,,,,,,,,,,,,,,,,,,,,,,,,,,,,,,,15868.076000071524,,form submission,,,,,,,,,,,,,,,,,,,,,113866.89999997616,113866.30000007153,97981.557,97979.60000002384,97998.224,113881.875,,,
Holding screen,html.Screen,2_1_0_0,2022-02-15T15:59:19.602Z,,,,,,,,,,,,,,,,,,,,,,,,,,,,,,,10001.058999999994,,timeout,,,,,,,,,,,,,,,,,,,,,123868.30000007153,123866.267,113865.208,113867.5,113881.875,123882.934,,,
screen,html.Screen,2_1_0_1_0,2022-02-15T15:59:20.731Z,,,,,,,,,,,,,,,,,53,,,,,,,,,,,,,,1108.166000023848,,response,,,,99,,,,,,,Space,keypress(Space),,,,,,,,When -- ----- -- ------ - ------- --- ----------<br>------------- ------ ------ ---- ---- ------- ----- -- ----<br>-------- ------- -- ---------- --- - --- ----- ----- ----<br>---- --- --- ----- --- ---- ---- ------- ----- ---- -------<br>--- --- -- ----- -- --- ---- -- --- ---- -- ------ ------<br>--- ----- -- ----,124997.60000002384,124991.10000002384,123866.267,123868.60000002384,123882.934,124999.623,,0,When
screen,html.Screen,2_1_0_1_1,2022-02-15T15:59:21.068Z,,,,,,,,,,,,,,,,,53,,,,,,,,,,,,,,332.2769999761513,,response,,,,99,,,,,,,Space,keypress(Space),,,,,,,,---- it ----- -- ------ - ------- --- ----------<br>------------- ------ ------ ---- ---- ------- ----- -- ----<br>-------- ------- -- ---------- --- - --- ----- ----- ----<br>---- --- --- ----- --- ---- ---- ------- ----- ---- -------<br>--- --- -- ----- -- --- ---- -- --- ---- -- ------ ------<br>--- ----- -- ----,125334.89999997616,125331.89999997616,124982.956,124997.89999997616,124999.623,125350.218,,1,it
screen,html.Screen,2_1_0_1_2,2022-02-15T15:59:21.431Z,,,,,,,,,,,,,,,,,53,,,,,,,,,,,,,,344.68199997616466,,response,,,,99,,,,,,,Space,keypress(Space),,,,,,,,---- -- comes -- ------ - ------- --- ----------<br>------------- ------ ------ ---- ---- ------- ----- -- ----<br>-------- ------- -- ---------- --- - --- ----- ----- ----<br>---- --- --- ----- --- ---- ---- ------- ----- ---- -------<br>--- --- -- ----- -- --- ---- -- --- ---- -- ------ ------<br>--- ----- -- ----,125697.70000004768,125694.89999997616,125333.551,125335,125350.218,125700.225,,2,comes
screen,html.Screen,2_1_0_1_3,2022-02-15T15:59:21.799Z,,,,,,,,,,,,,,,,,53,,,,,,,,,,,,,,362.6749999761523,,response,,,,99,,,,,,,Space,keypress(Space),,,,,,,,---- -- ----- to ------ - ------- --- ----------<br>------------- ------ ------ ---- ---- ------- ----- -- ----<br>-------- ------- -- ---------- --- - --- ----- ----- ----<br>---- --- --- ----- --- ---- ---- ------- ----- ---- -------<br>--- --- -- ----- -- --- ---- -- --- ---- -- ------ ------<br>--- ----- -- ----,126065.60000002384,126062.89999997616,125683.558,125697.80000007153,125700.225,126066.899,,3,to
screen,html.Screen,2_1_0_1_4,2022-02-15T15:59:22.058Z,,,,,,,,,,,,,,,,,53,,,,,,,,,,,,,,254.90100007152068,,response,,,,99,,,,,,,Space,keypress(Space),,,,,,,,---- -- ----- -- having - ------- --- ----------<br>------------- ------ ------ ---- ---- ------- ----- -- ----<br>-------- ------- -- ---------- --- - --- ----- ----- ----<br>---- --- --- ----- --- ---- ---- ------- ----- ---- -------<br>--- --- -- ----- -- --- ---- -- --- ---- -- ------ ------<br>--- ----- -- ----,126324.60000002384,126321.80000007153,126050.232,126065.89999997616,126066.899,126333.571,,4,having
screen,html.Screen,2_1_0_1_5,2022-02-15T15:59:22.452Z,,,,,,,,,,,,,,,,,53,,,,,,,,,,,,,,382.2290000715293,,response,,,,99,,,,,,,Space,keypress(Space),,,,,,,,---- -- ----- -- ------ a ------- --- ----------<br>------------- ------ ------ ---- ---- ------- ----- -- ----<br>-------- ------- -- ---------- --- - --- ----- ----- ----<br>---- --- --- ----- --- ---- ---- ------- ----- ---- -------<br>--- --- -- ----- -- --- ---- -- --- ---- -- ------ ------<br>--- ----- -- ----,126718.70000004768,126715.80000007153,126316.904,126324.70000004768,126333.571,126733.579,,5,a
screen,html.Screen,2_1_0_1_6,2022-02-15T15:59:22.740Z,,,,,,,,,,,,,,,,,53,,,,,,,,,,,,,,270.22100007152767,,response,,,,99,,,,,,,Space,keypress(Space),,,,,,,,---- -- ----- -- ------ - lasting --- ----------<br>------------- ------ ------ ---- ---- ------- ----- -- ----<br>-------- ------- -- ---------- --- - --- ----- ----- ----<br>---- --- --- ----- --- ---- ---- ------- ----- ---- -------<br>--- --- -- ----- -- --- ---- -- --- ---- -- ------ ------<br>--- ----- -- ----,127006.5,127003.80000007153,126716.912,126718.89999997616,126733.579,127016.918,,6,lasting
screen,html.Screen,2_1_0_1_7,2022-02-15T15:59:23.069Z,,,,,,,,,,,,,,,,,53,,,,,,,,,,,,,,315.88200007152045,,response,,,,99,,,,,,,Space,keypress(Space),,,,,,,,---- -- ----- -- ------ - ------- and ----------<br>------------- ------ ------ ---- ---- ------- ----- -- ----<br>-------- ------- -- ---------- --- - --- ----- ----- ----<br>---- --- --- ----- --- ---- ---- ------- ----- ---- -------<br>--- --- -- ----- -- --- ---- -- --- ---- -- ------ ------<br>--- ----- -- ----,127335.70000004768,127332.80000007153,127000.251,127006.70000004768,127016.918,127350.258,,7,and
screen,html.Screen,2_1_0_1_8,2022-02-15T15:59:23.298Z,,,,,,,,,,,,,,,,,53,,,,,,,,,,,,,,211.54200007152394,,response,,,,99,,,,,,,Space,keypress(Space),,,,,,,,---- -- ----- -- ------ - ------- --- fulfilling<br>------------- ------ ------ ---- ---- ------- ----- -- ----<br>-------- ------- -- ---------- --- - --- ----- ----- ----<br>---- --- --- ----- --- ---- ---- ------- ----- ---- -------<br>--- --- -- ----- -- --- ---- -- --- ---- -- ------ ------<br>--- ----- -- ----,127564.5,127561.80000007153,127333.591,127335.89999997616,127350.258,127566.929,,8,fulfilling
screen,html.Screen,2_1_0_1_9,2022-02-15T15:59:23.703Z,,,,,,,,,,,,,,,,,53,,,,,,,,,,,,,,399.87100007152185,,response,,,,99,,,,,,,Space,keypress(Space),,,,,,,,"---- -- ----- -- ------ - ------- --- ----------<br>relationship, ------ ------ ---- ---- ------- ----- -- ----<br>-------- ------- -- ---------- --- - --- ----- ----- ----<br>---- --- --- ----- --- ---- ---- ------- ----- ---- -------<br>--- --- -- ----- -- --- ---- -- --- ---- -- ------ ------<br>--- ----- -- ----",127969.60000002384,127966.80000007153,127550.262,127564.60000002384,127566.929,127983.604,,9,"relationship,"
screen,html.Screen,2_1_0_1_10,2022-02-15T15:59:24.103Z,,,,,,,,,,,,,,,,,53,,,,,,,,,,,,,,383.19600007151894,,response,,,,99,,,,,,,Space,keypress(Space),,,,,,,,---- -- ----- -- ------ - ------- --- ----------<br>------------- common ------ ---- ---- ------- ----- -- ----<br>-------- ------- -- ---------- --- - --- ----- ----- ----<br>---- --- --- ----- --- ---- ---- ------- ----- ---- -------<br>--- --- -- ----- -- --- ---- -- --- ---- -- ------ ------<br>--- ----- -- ----,128370,128366.80000007153,127966.937,127969.70000004768,127983.604,128383.612,,10,common
screen,html.Screen,2_1_0_1_11,2022-02-15T15:59:24.382Z,,,,,,,,,,,,,,,,,53,,,,,,,,,,,,,,262.18800007153186,,response,,,,99,,,,,,,Space,keypress(Space),,,,,,,,---- -- ----- -- ------ - ------- --- ----------<br>------------- ------ wisdom ---- ---- ------- ----- -- ----<br>-------- ------- -- ---------- --- - --- ----- ----- ----<br>---- --- --- ----- --- ---- ---- ------- ----- ---- -------<br>--- --- -- ----- -- --- ---- -- --- ---- -- ------ ------<br>--- ----- -- ----,128648.5,128645.80000007153,128366.945,128370.30000007153,128383.612,128650.284,,11,wisdom
screen,html.Screen,2_1_0_1_12,2022-02-15T15:59:24.671Z,,,,,,,,,,,,,,,,,53,,,,,,,,,,,,,,284.41600004768407,,response,,,,99,,,,,,,Space,keypress(Space),,,,,,,,---- -- ----- -- ------ - ------- --- ----------<br>------------- ------ ------ says ---- ------- ----- -- ----<br>-------- ------- -- ---------- --- - --- ----- ----- ----<br>---- --- --- ----- --- ---- ---- ------- ----- ---- -------<br>--- --- -- ----- -- --- ---- -- --- ---- -- ------ ------<br>--- ----- -- ----,128937.39999997616,128934.70000004768,128633.617,128648.60000002384,128650.284,128950.29,,12,says
screen,html.Screen,2_1_0_1_13,2022-02-15T15:59:24.988Z,,,,,,,,,,,,,,,,,53,,,,,,,,,,,,,,301.4100000476901,,response,,,,99,,,,,,,Space,keypress(Space),,,,,,,,---- -- ----- -- ------ - ------- --- ----------<br>------------- ------ ------ ---- that ------- ----- -- ----<br>-------- ------- -- ---------- --- - --- ----- ----- ----<br>---- --- --- ----- --- ---- ---- ------- ----- ---- -------<br>--- --- -- ----- -- --- ---- -- --- ---- -- ------ ------<br>--- ----- -- ----,129254.39999997616,129251.70000004768,128933.623,128937.60000002384,128950.29,129266.963,,13,that
screen,html.Screen,2_1_0_1_14,2022-02-15T15:59:25.271Z,,,,,,,,,,,,,,,,,53,,,,,,,,,,,,,,267.73700004768034,,response,,,,99,,,,,,,Space,keypress(Space),,,,,,,,---- -- ----- -- ------ - ------- --- ----------<br>------------- ------ ------ ---- ---- feeling ----- -- ----<br>-------- ------- -- ---------- --- - --- ----- ----- ----<br>---- --- --- ----- --- ---- ---- ------- ----- ---- -------<br>--- --- -- ----- -- --- ---- -- --- ---- -- ------ ------<br>--- ----- -- ----,129537.39999997616,129534.70000004768,129250.296,129254.60000002384,129266.963,129550.302,,14,feeling
screen,html.Screen,2_1_0_1_15,2022-02-15T15:59:25.528Z,,,,,,,,,,,,,,,,,53,,,,,,,,,,,,,,242.19800000000396,,response,,,,99,,,,,,,Space,keypress(Space),,,,,,,,---- -- ----- -- ------ - ------- --- ----------<br>------------- ------ ------ ---- ---- ------- close -- ----<br>-------- ------- -- ---------- --- - --- ----- ----- ----<br>---- --- --- ----- --- ---- ---- ------- ----- ---- -------<br>--- --- -- ----- -- --- ---- -- --- ---- -- ------ ------<br>--- ----- -- ----,129795.20000004768,129792.5,129533.635,129537.60000002384,129550.302,129800.307,,15,close
screen,html.Screen,2_1_0_1_16,2022-02-15T15:59:25.782Z,,,,,,,,,,,,,,,,,53,,,,,,,,,,,,,,246.39300004768302,,response,,,,99,,,,,,,Space,keypress(Space),,,,,,,,---- -- ----- -- ------ - ------- --- ----------<br>------------- ------ ------ ---- ---- ------- ----- to ----<br>-------- ------- -- ---------- --- - --- ----- ----- ----<br>---- --- --- ----- --- ---- ---- ------- ----- ---- -------<br>--- --- -- ----- -- --- ---- -- --- ---- -- ------ ------<br>--- ----- -- ----,130049.39999997616,130046.70000004768,129783.64,129795.30000007153,129800.307,130066.979,,16,to
screen,html.Screen,2_1_0_1_17,2022-02-15T15:59:26.049Z,,,,,,,,,,,,,,,,,53,,,,,,,,,,,,,,246.62100002383522,,response,,,,99,,,,,,,Space,keypress(Space),,,,,,,,---- -- ----- -- ------ - ------- --- ----------<br>------------- ------ ------ ---- ---- ------- ----- -- your<br>-------- ------- -- ---------- --- - --- ----- ----- ----<br>---- --- --- ----- --- ---- ---- ------- ----- ---- -------<br>--- --- -- ----- -- --- ---- -- --- ---- -- ------ ------<br>--- ----- -- ----,130316.39999997616,130313.60000002384,130050.312,130049.5,130066.979,130333.651,,17,your
screen,html.Screen,2_1_0_1_18,2022-02-15T15:59:26.392Z,,,,,,,,,,,,,,,,,53,,,,,,,,,,,,,,323.0490000476857,,response,,,,99,,,,,,,Space,keypress(Space),,,,,,,,---- -- ----- -- ------ - ------- --- ----------<br>------------- ------ ------ ---- ---- ------- ----- -- ----<br>romantic ------- -- ---------- --- - --- ----- ----- ----<br>---- --- --- ----- --- ---- ---- ------- ----- ---- -------<br>--- --- -- ----- -- --- ---- -- --- ---- -- ------ ------<br>--- ----- -- ----,130659.30000007153,130656.70000004768,130316.984,130316.5,130333.651,130666.991,,18,romantic
screen,html.Screen,2_1_0_1_19,2022-02-15T15:59:26.615Z,,,,,,,,,,,,,,,,,53,,,,,,,,,,,,,,212.7090000476892,,response,,,,99,,,,,,,Space,keypress(Space),,,,,,,,---- -- ----- -- ------ - ------- --- ----------<br>------------- ------ ------ ---- ---- ------- ----- -- ----<br>-------- partner -- ---------- --- - --- ----- ----- ----<br>---- --- --- ----- --- ---- ---- ------- ----- ---- -------<br>--- --- -- ----- -- --- ---- -- --- ---- -- ------ ------<br>--- ----- -- ----,130882.39999997616,130879.70000004768,130650.324,130659.5,130666.991,130883.662,,19,partner
screen,html.Screen,2_1_0_1_20,2022-02-15T15:59:26.911Z,,,,,,,,,,,,,,,,,53,,,,,,,,,,,,,,291.93800002384523,,response,,,,99,,,,,,,Space,keypress(Space),,,,,,,,---- -- ----- -- ------ - ------- --- ----------<br>------------- ------ ------ ---- ---- ------- ----- -- ----<br>-------- ------- is ---------- --- - --- ----- ----- ----<br>---- --- --- ----- --- ---- ---- ------- ----- ---- -------<br>--- --- -- ----- -- --- ---- -- --- ---- -- ------ ------<br>--- ----- -- ----,131178.30000007153,131175.60000002384,130866.995,130882.60000002384,130883.662,131183.668,,20,is
screen,html.Screen,2_1_0_1_21,2022-02-15T15:59:27.176Z,,,,,,,,,,,,,,,,,53,,,,,,,,,,,,,,256.93200002383674,,response,,,,99,,,,,,,Space,keypress(Space),,,,,,,,---- -- ----- -- ------ - ------- --- ----------<br>------------- ------ ------ ---- ---- ------- ----- -- ----<br>-------- ------- -- paramount. --- - --- ----- ----- ----<br>---- --- --- ----- --- ---- ---- ------- ----- ---- -------<br>--- --- -- ----- -- --- ---- -- --- ---- -- ------ ------<br>--- ----- -- ----,131443.20000004768,131440.60000002384,131167.001,131178.5,131183.668,131450.34,,21,paramount.
screen,html.Screen,2_1_0_1_22,2022-02-15T15:59:27.467Z,,,,,,,,,,,,,,,,,53,,,,,,,,,,,,,,281.26000002384535,,response,,,,99,,,,,,,Space,keypress(Space),,,,,,,,---- -- ----- -- ------ - ------- --- ----------<br>------------- ------ ------ ---- ---- ------- ----- -- ----<br>-------- ------- -- ---------- But - --- ----- ----- ----<br>---- --- --- ----- --- ---- ---- ------- ----- ---- -------<br>--- --- -- ----- -- --- ---- -- --- ---- -- ------ ------<br>--- ----- -- ----,131734.30000007153,131731.60000002384,131433.673,131443.39999997616,131450.34,131750.346,,22,But
screen,html.Screen,2_1_0_1_23,2022-02-15T15:59:27.924Z,,,,,,,,,,,,,,,,,53,,,,,,,,,,,,,,438.2540000238514,,response,,,,99,,,,,,,Space,keypress(Space),,,,,,,,---- -- ----- -- ------ - ------- --- ----------<br>------------- ------ ------ ---- ---- ------- ----- -- ----<br>-------- ------- -- ---------- --- a --- ----- ----- ----<br>---- --- --- ----- --- ---- ---- ------- ----- ---- -------<br>--- --- -- ----- -- --- ---- -- --- ---- -- ------ ------<br>--- ----- -- ----,132191.39999997616,132188.60000002384,131733.679,131734.5,131750.346,132200.355,,23,a
screen,html.Screen,2_1_0_1_24,2022-02-15T15:59:28.155Z,,,,,,,,,,,,,,,,,53,,,,,,,,,,,,,,218.14499999998952,,response,,,,99,,,,,,,Space,keypress(Space),,,,,,,,---- -- ----- -- ------ - ------- --- ----------<br>------------- ------ ------ ---- ---- ------- ----- -- ----<br>-------- ------- -- ---------- --- - new ----- ----- ----<br>---- --- --- ----- --- ---- ---- ------- ----- ---- -------<br>--- --- -- ----- -- --- ---- -- --- ---- -- ------ ------<br>--- ----- -- ----,132421.60000002384,132418.5,132183.688,132191.5,132200.355,132433.693,,24,new
screen,html.Screen,2_1_0_1_25,2022-02-15T15:59:28.423Z,,,,,,,,,,,,,,,,,53,,,,,,,,,,,,,,253.90700002384256,,response,,,,99,,,,,,,Space,keypress(Space),,,,,,,,---- -- ----- -- ------ - ------- --- ----------<br>------------- ------ ------ ---- ---- ------- ----- -- ----<br>-------- ------- -- ---------- --- - --- study ----- ----<br>---- --- --- ----- --- ---- ---- ------- ----- ---- -------<br>--- --- -- ----- -- --- ---- -- --- ---- -- ------ ------<br>--- ----- -- ----,132690.30000007153,132687.60000002384,132417.026,132421.89999997616,132433.693,132700.365,,25,study
screen,html.Screen,2_1_0_1_26,2022-02-15T15:59:28.662Z,,,,,,,,,,,,,,,,,53,,,,,,,,,,,,,,225.1350000000093,,response,,,,99,,,,,,,Space,keypress(Space),,,,,,,,---- -- ----- -- ------ - ------- --- ----------<br>------------- ------ ------ ---- ---- ------- ----- -- ----<br>-------- ------- -- ---------- --- - --- ----- finds ----<br>---- --- --- ----- --- ---- ---- ------- ----- ---- -------<br>--- --- -- ----- -- --- ---- -- --- ---- -- ------ ------<br>--- ----- -- ----,132928.60000002384,132925.5,132683.698,132690.5,132700.365,132933.703,,26,finds
screen,html.Screen,2_1_0_1_27,2022-02-15T15:59:28.951Z,,,,,,,,,,,,,,,,,53,,,,,,,,,,,,,,281.89700002383324,,response,,,,99,,,,,,,Space,keypress(Space),,,,,,,,---- -- ----- -- ------ - ------- --- ----------<br>------------- ------ ------ ---- ---- ------- ----- -- ----<br>-------- ------- -- ---------- --- - --- ----- ----- that<br>---- --- --- ----- --- ---- ---- ------- ----- ---- -------<br>--- --- -- ----- -- --- ---- -- --- ---- -- ------ ------<br>--- ----- -- ----,133218.30000007153,133215.60000002384,132917.036,132928.89999997616,132933.703,133233.709,,27,that
screen,html.Screen,2_1_0_1_28,2022-02-15T15:59:29.221Z,,,,,,,,,,,,,,,,,53,,,,,,,,,,,,,,251.79099999999744,,response,,,,99,,,,,,,Space,keypress(Space),,,,,,,,---- -- ----- -- ------ - ------- --- ----------<br>------------- ------ ------ ---- ---- ------- ----- -- ----<br>-------- ------- -- ---------- --- - --- ----- ----- ----<br>it's --- --- ----- --- ---- ---- ------- ----- ---- -------<br>--- --- -- ----- -- --- ---- -- --- ---- -- ------ ------<br>--- ----- -- ----,133488.20000004768,133485.5,133217.042,133218.5,133233.709,133500.381,,28,it's
screen,html.Screen,2_1_0_1_29,2022-02-15T15:59:29.492Z,,,,,,,,,,,,,,,,,53,,,,,,,,,,,,,,256.11900000000605,,response,,,,99,,,,,,,Space,keypress(Space),,,,,,,,---- -- ----- -- ------ - ------- --- ----------<br>------------- ------ ------ ---- ---- ------- ----- -- ----<br>-------- ------- -- ---------- --- - --- ----- ----- ----<br>---- not --- ----- --- ---- ---- ------- ----- ---- -------<br>--- --- -- ----- -- --- ---- -- --- ---- -- ------ ------<br>--- ----- -- ----,133759.30000007153,133756.5,133483.714,133488.39999997616,133500.381,133767.053,,29,not
screen,html.Screen,2_1_0_1_30,2022-02-15T15:59:29.937Z,,,,,,,,,,,,,,,,,53,,,,,,,,,,,,,,434.44699999998556,,response,,,,99,,,,,,,Space,keypress(Space),,,,,,,,---- -- ----- -- ------ - ------- --- ----------<br>------------- ------ ------ ---- ---- ------- ----- -- ----<br>-------- ------- -- ---------- --- - --- ----- ----- ----<br>---- --- how ----- --- ---- ---- ------- ----- ---- -------<br>--- --- -- ----- -- --- ---- -- --- ---- -- ------ ------<br>--- ----- -- ----,134204.20000004768,134201.5,133750.386,133759.5,133767.053,134217.062,,30,how
screen,html.Screen,2_1_0_1_31,2022-02-15T15:59:30.141Z,,,,,,,,,,,,,,,,,53,,,,,,,,,,,,,,188.3379999761528,,response,,,,99,,,,,,,Space,keypress(Space),,,,,,,,---- -- ----- -- ------ - ------- --- ----------<br>------------- ------ ------ ---- ---- ------- ----- -- ----<br>-------- ------- -- ---------- --- - --- ----- ----- ----<br>---- --- --- close --- ---- ---- ------- ----- ---- -------<br>--- --- -- ----- -- --- ---- -- --- ---- -- ------ ------<br>--- ----- -- ----,134408.30000007153,134405.39999997616,134200.395,134204.5,134217.062,134417.066,,31,close
screen,html.Screen,2_1_0_1_32,2022-02-15T15:59:30.355Z,,,,,,,,,,,,,,,,,53,,,,,,,,,,,,,,202.33399997616652,,response,,,,99,,,,,,,Space,keypress(Space),,,,,,,,---- -- ----- -- ------ - ------- --- ----------<br>------------- ------ ------ ---- ---- ------- ----- -- ----<br>-------- ------- -- ---------- --- - --- ----- ----- ----<br>---- --- --- ----- you ---- ---- ------- ----- ---- -------<br>--- --- -- ----- -- --- ---- -- --- ---- -- ------ ------<br>--- ----- -- ----,134622.10000002384,134619.39999997616,134400.399,134408.5,134417.066,134634.275,,32,you
screen,html.Screen,2_1_0_1_33,2022-02-15T15:59:30.604Z,,,,,,,,,,,,,,,,,53,,,,,,,,,,,,,,234.12499997616396,,response,,,,99,,,,,,,Space,keypress(Space),,,,,,,,---- -- ----- -- ------ - ------- --- ----------<br>------------- ------ ------ ---- ---- ------- ----- -- ----<br>-------- ------- -- ---------- --- - --- ----- ----- ----<br>---- --- --- ----- --- feel ---- ------- ----- ---- -------<br>--- --- -- ----- -- --- ---- -- --- ---- -- ------ ------<br>--- ----- -- ----,134871.20000004768,134868.39999997616,134617.608,134622.30000007153,134634.275,134884.28,,33,feel
screen,html.Screen,2_1_0_1_34,2022-02-15T15:59:30.840Z,,,,,,,,,,,,,,,,,53,,,,,,,,,,,,,,220.22000000000116,,response,,,,99,,,,,,,Space,keypress(Space),,,,,,,,---- -- ----- -- ------ - ------- --- ----------<br>------------- ------ ------ ---- ---- ------- ----- -- ----<br>-------- ------- -- ---------- --- - --- ----- ----- ----<br>---- --- --- ----- --- ---- that ------- ----- ---- -------<br>--- --- -- ----- -- --- ---- -- --- ---- -- ------ ------<br>--- ----- -- ----,135107.60000002384,135104.5,134867.613,134871.39999997616,134884.28,135117.618,,34,that
screen,html.Screen,2_1_0_1_35,2022-02-15T15:59:31.067Z,,,,,,,,,,,,,,,,,53,,,,,,,,,,,,,,214.08200004769606,,response,,,,99,,,,,,,Space,keypress(Space),,,,,,,,---- -- ----- -- ------ - ------- --- ----------<br>------------- ------ ------ ---- ---- ------- ----- -- ----<br>-------- ------- -- ---------- --- - --- ----- ----- ----<br>---- --- --- ----- --- ---- ---- matters ----- ---- -------<br>--- --- -- ----- -- --- ---- -- --- ---- -- ------ ------<br>--- ----- -- ----,135334.60000002384,135331.70000004768,135100.951,135107.80000007153,135117.618,135350.956,,35,matters
screen,html.Screen,2_1_0_1_36,2022-02-15T15:59:31.265Z,,,,,,,,,,,,,,,,,53,,,,,,,,,,,,,,178.44399997615255,,response,,,,99,,,,,,,Space,keypress(Space),,,,,,,,"---- -- ----- -- ------ - ------- --- ----------<br>------------- ------ ------ ---- ---- ------- ----- -- ----<br>-------- ------- -- ---------- --- - --- ----- ----- ----<br>---- --- --- ----- --- ---- ---- ------- most, ---- -------<br>--- --- -- ----- -- --- ---- -- --- ---- -- ------ ------<br>--- ----- -- ----",135532.10000002384,135529.39999997616,135334.289,135334.89999997616,135350.956,135534.293,,36,"most,"
screen,html.Screen,2_1_0_1_37,2022-02-15T15:59:31.498Z,,,,,,,,,,,,,,,,,53,,,,,,,,,,,,,,228.00700007152045,,response,,,,99,,,,,,,Space,keypress(Space),,,,,,,,---- -- ----- -- ------ - ------- --- ----------<br>------------- ------ ------ ---- ---- ------- ----- -- ----<br>-------- ------- -- ---------- --- - --- ----- ----- ----<br>---- --- --- ----- --- ---- ---- ------- ----- it's -------<br>--- --- -- ----- -- --- ---- -- --- ---- -- ------ ------<br>--- ----- -- ----,135765.20000004768,135762.30000007153,135517.626,135532.30000007153,135534.293,135767.631,,37,it's
screen,html.Screen,2_1_0_1_38,2022-02-15T15:59:31.800Z,,,,,,,,,,,,,,,,,53,,,,,,,,,,,,,,296.7689999761642,,response,,,,99,,,,,,,Space,keypress(Space),,,,,,,,---- -- ----- -- ------ - ------- --- ----------<br>------------- ------ ------ ---- ---- ------- ----- -- ----<br>-------- ------- -- ---------- --- - --- ----- ----- ----<br>---- --- --- ----- --- ---- ---- ------- ----- ---- whether<br>--- --- -- ----- -- --- ---- -- --- ---- -- ------ ------<br>--- ----- -- ----,136067.20000004768,136064.39999997616,135750.964,135765.30000007153,135767.631,136084.304,,38,whether
screen,html.Screen,2_1_0_1_39,2022-02-15T15:59:32.071Z,,,,,,,,,,,,,,,,,53,,,,,,,,,,,,,,250.99600007152185,,response,,,,99,,,,,,,Space,keypress(Space),,,,,,,,---- -- ----- -- ------ - ------- --- ----------<br>------------- ------ ------ ---- ---- ------- ----- -- ----<br>-------- ------- -- ---------- --- - --- ----- ----- ----<br>---- --- --- ----- --- ---- ---- ------- ----- ---- -------<br>you --- -- ----- -- --- ---- -- --- ---- -- ------ ------<br>--- ----- -- ----,136338.10000002384,136335.30000007153,136067.637,136067.30000007153,136084.304,136350.976,,39,you
screen,html.Screen,2_1_0_1_40,2022-02-15T15:59:32.403Z,,,,,,,,,,,,,,,,,53,,,,,,,,,,,,,,316.32400007153046,,response,,,,99,,,,,,,Space,keypress(Space),,,,,,,,---- -- ----- -- ------ - ------- --- ----------<br>------------- ------ ------ ---- ---- ------- ----- -- ----<br>-------- ------- -- ---------- --- - --- ----- ----- ----<br>---- --- --- ----- --- ---- ---- ------- ----- ---- -------<br>--- are -- ----- -- --- ---- -- --- ---- -- ------ ------<br>--- ----- -- ----,136670.60000002384,136667.30000007153,136334.309,136338.20000004768,136350.976,136684.316,,40,are
screen,html.Screen,2_1_0_1_41,2022-02-15T15:59:32.647Z,,,,,,,,,,,,,,,,,53,,,,,,,,,,,,,,227.08399997616652,,response,,,,99,,,,,,,Space,keypress(Space),,,,,,,,---- -- ----- -- ------ - ------- --- ----------<br>------------- ------ ------ ---- ---- ------- ----- -- ----<br>-------- ------- -- ---------- --- - --- ----- ----- ----<br>---- --- --- ----- --- ---- ---- ------- ----- ---- -------<br>--- --- as ----- -- --- ---- -- --- ---- -- ------ ------<br>--- ----- -- ----,136914,136911.39999997616,136667.649,136670.80000007153,136684.316,136917.654,,41,as
screen,html.Screen,2_1_0_1_42,2022-02-15T15:59:32.872Z,,,,,,,,,,,,,,,,,53,,,,,,,,,,,,,,218.64600007151603,,response,,,,99,,,,,,,Space,keypress(Space),,,,,,,,---- -- ----- -- ------ - ------- --- ----------<br>------------- ------ ------ ---- ---- ------- ----- -- ----<br>-------- ------- -- ---------- --- - --- ----- ----- ----<br>---- --- --- ----- --- ---- ---- ------- ----- ---- -------<br>--- --- -- close -- --- ---- -- --- ---- -- ------ ------<br>--- ----- -- ----,137139,137136.30000007153,136900.987,136914.20000004768,136917.654,137150.992,,42,close
screen,html.Screen,2_1_0_1_43,2022-02-15T15:59:33.096Z,,,,,,,,,,,,,,,,,53,,,,,,,,,,,,,,209.3080000715272,,response,,,,99,,,,,,,Space,keypress(Space),,,,,,,,---- -- ----- -- ------ - ------- --- ----------<br>------------- ------ ------ ---- ---- ------- ----- -- ----<br>-------- ------- -- ---------- --- - --- ----- ----- ----<br>---- --- --- ----- --- ---- ---- ------- ----- ---- -------<br>--- --- -- ----- as --- ---- -- --- ---- -- ------ ------<br>--- ----- -- ----,137363,137360.30000007153,137134.325,137139.10000002384,137150.992,137367.663,,43,as
screen,html.Screen,2_1_0_1_44,2022-02-15T15:59:33.328Z,,,,,,,,,,,,,,,,,53,,,,,,,,,,,,,,224.53700004768325,,response,,,,99,,,,,,,Space,keypress(Space),,,,,,,,---- -- ----- -- ------ - ------- --- ----------<br>------------- ------ ------ ---- ---- ------- ----- -- ----<br>-------- ------- -- ---------- --- - --- ----- ----- ----<br>---- --- --- ----- --- ---- ---- ------- ----- ---- -------<br>--- --- -- ----- -- you ---- -- --- ---- -- ------ ------<br>--- ----- -- ----,137594.89999997616,137592.20000004768,137350.996,137363.10000002384,137367.663,137601.001,,44,you
screen,html.Screen,2_1_0_1_45,2022-02-15T15:59:33.561Z,,,,,,,,,,,,,,,,,53,,,,,,,,,,,,,,224.29900007153628,,response,,,,99,,,,,,,Space,keypress(Space),,,,,,,,---- -- ----- -- ------ - ------- --- ----------<br>------------- ------ ------ ---- ---- ------- ----- -- ----<br>-------- ------- -- ---------- --- - --- ----- ----- ----<br>---- --- --- ----- --- ---- ---- ------- ----- ---- -------<br>--- --- -- ----- -- --- want -- --- ---- -- ------ ------<br>--- ----- -- ----,137827.89999997616,137825.30000007153,137584.334,137595.10000002384,137601.001,137834.339,,45,want
screen,html.Screen,2_1_0_1_46,2022-02-15T15:59:33.821Z,,,,,,,,,,,,,,,,,53,,,,,,,,,,,,,,251.8610000476765,,response,,,,99,,,,,,,Space,keypress(Space),,,,,,,,---- -- ----- -- ------ - ------- --- ----------<br>------------- ------ ------ ---- ---- ------- ----- -- ----<br>-------- ------- -- ---------- --- - --- ----- ----- ----<br>---- --- --- ----- --- ---- ---- ------- ----- ---- -------<br>--- --- -- ----- -- --- ---- to --- ---- -- ------ ------<br>--- ----- -- ----,138088.89999997616,138086.20000004768,137817.672,137828.10000002384,137834.339,138101.011,,46,to
screen,html.Screen,2_1_0_1_47,2022-02-15T15:59:34.049Z,,,,,,,,,,,,,,,,,53,,,,,,,,,,,,,,212.1890000476851,,response,,,,99,,,,,,,Space,keypress(Space),,,,,,,,"---- -- ----- -- ------ - ------- --- ----------<br>------------- ------ ------ ---- ---- ------- ----- -- ----<br>-------- ------- -- ---------- --- - --- ----- ----- ----<br>---- --- --- ----- --- ---- ---- ------- ----- ---- -------<br>--- --- -- ----- -- --- ---- -- be, ---- -- ------ ------<br>--- ----- -- ----",138315.89999997616,138313.20000004768,138084.344,138089,138101.011,138317.682,,47,"be,"
screen,html.Screen,2_1_0_1_48,2022-02-15T15:59:34.279Z,,,,,,,,,,,,,,,,,53,,,,,,,,,,,,,,226.51800004768302,,response,,,,99,,,,,,,Space,keypress(Space),,,,,,,,---- -- ----- -- ------ - ------- --- ----------<br>------------- ------ ------ ---- ---- ------- ----- -- ----<br>-------- ------- -- ---------- --- - --- ----- ----- ----<br>---- --- --- ----- --- ---- ---- ------- ----- ---- -------<br>--- --- -- ----- -- --- ---- -- --- even -- ------ ------<br>--- ----- -- ----,138546.89999997616,138544.20000004768,138301.015,138316,138317.682,138551.02,,48,even
screen,html.Screen,2_1_0_1_49,2022-02-15T15:59:34.517Z,,,,,,,,,,,,,,,,,53,,,,,,,,,,,,,,230.28000007153605,,response,,,,99,,,,,,,Space,keypress(Space),,,,,,,,---- -- ----- -- ------ - ------- --- ----------<br>------------- ------ ------ ---- ---- ------- ----- -- ----<br>-------- ------- -- ---------- --- - --- ----- ----- ----<br>---- --- --- ----- --- ---- ---- ------- ----- ---- -------<br>--- --- -- ----- -- --- ---- -- --- ---- if ------ ------<br>--- ----- -- ----,138784,138781.30000007153,138534.353,138547,138551.02,138801.025,,49,if
screen,html.Screen,2_1_0_1_50,2022-02-15T15:59:34.769Z,,,,,,,,,,,,,,,,,53,,,,,,,,,,,,,,233.17500004768954,,response,,,,99,,,,,,,Space,keypress(Space),,,,,,,,---- -- ----- -- ------ - ------- --- ----------<br>------------- ------ ------ ---- ---- ------- ----- -- ----<br>-------- ------- -- ---------- --- - --- ----- ----- ----<br>---- --- --- ----- --- ---- ---- ------- ----- ---- -------<br>--- --- -- ----- -- --- ---- -- --- ---- -- that's ------<br>--- ----- -- ----,139037,139034.20000004768,138784.358,138784.20000004768,138801.025,139051.03,,50,that's
screen,html.Screen,2_1_0_1_51,2022-02-15T15:59:35.021Z,,,,,,,,,,,,,,,,,53,,,,,,,,,,,,,,235.07000002384302,,response,,,,99,,,,,,,Space,keypress(Space),,,,,,,,---- -- ----- -- ------ - ------- --- ----------<br>------------- ------ ------ ---- ---- ------- ----- -- ----<br>-------- ------- -- ---------- --- - --- ----- ----- ----<br>---- --- --- ----- --- ---- ---- ------- ----- ---- -------<br>--- --- -- ----- -- --- ---- -- --- ---- -- ------ really<br>--- ----- -- ----,139288.80000007153,139286.10000002384,139034.363,139037.10000002384,139051.03,139301.035,,51,really
screen,html.Screen,2_1_0_1_52,2022-02-15T15:59:35.359Z,,,,,,,,,,,,,,,,,53,,,,,,,,,,,,,,323.1650000476802,,response,,,,99,,,,,,,Space,keypress(Space),,,,,,,,---- -- ----- -- ------ - ------- --- ----------<br>------------- ------ ------ ---- ---- ------- ----- -- ----<br>-------- ------- -- ---------- --- - --- ----- ----- ----<br>---- --- --- ----- --- ---- ---- ------- ----- ---- -------<br>--- --- -- ----- -- --- ---- -- --- ---- -- ------ ------<br>not ----- -- ----,139626.89999997616,139624.20000004768,139284.368,139289,139301.035,139634.375,,52,not
screen,html.Screen,2_1_0_1_53,2022-02-15T15:59:35.607Z,,,,,,,,,,,,,,,,,53,,,,,,,,,,,,,,237.82500004768372,,response,,,,99,,,,,,,Space,keypress(Space),,,,,,,,---- -- ----- -- ------ - ------- --- ----------<br>------------- ------ ------ ---- ---- ------- ----- -- ----<br>-------- ------- -- ---------- --- - --- ----- ----- ----<br>---- --- --- ----- --- ---- ---- ------- ----- ---- -------<br>--- --- -- ----- -- --- ---- -- --- ---- -- ------ ------<br>--- close -- ----,139874.89999997616,139872.20000004768,139617.708,139627,139634.375,139884.38,,53,close
screen,html.Screen,2_1_0_1_54,2022-02-15T15:59:35.869Z,,,,,,,,,,,,,,,,,53,,,,,,,,,,,,,,249.7200000238372,,response,,,,99,,,,,,,Space,keypress(Space),,,,,,,,---- -- ----- -- ------ - ------- --- ----------<br>------------- ------ ------ ---- ---- ------- ----- -- ----<br>-------- ------- -- ---------- --- - --- ----- ----- ----<br>---- --- --- ----- --- ---- ---- ------- ----- ---- -------<br>--- --- -- ----- -- --- ---- -- --- ---- -- ------ ------<br>--- ----- at ----,140137,140134.10000002384,139867.713,139875.10000002384,139884.38,140151.052,,54,at
screen,html.Screen,2_1_0_1_55,2022-02-15T15:59:36.236Z,,,,,,,,,,,,,,,,,53,,,,,,,,,,,,,,350.0480000238458,,response,,,,99,,,,,,,Space,keypress(Space),,,,,,,,---- -- ----- -- ------ - ------- --- ----------<br>------------- ------ ------ ---- ---- ------- ----- -- ----<br>-------- ------- -- ---------- --- - --- ----- ----- ----<br>---- --- --- ----- --- ---- ---- ------- ----- ---- -------<br>--- --- -- ----- -- --- ---- -- --- ---- -- ------ ------<br>--- ----- -- all.,140503.89999997616,140501.10000002384,140134.385,140137.10000002384,140151.052,140517.726,,55,all.
Item 99,flow.Loop,2_1_0_1,2022-02-15T15:59:36.237Z,,,,,,,,,,,,,,,,,,,,,,,,,,,,,,,16618.166000023848,,completion,,,,,A,,,,,,,,,,,silence,,,,,140504.30000007153,140501.10000002384,123866.267,123868.5,123882.934,140517.726,,,
Question 1,html.Screen,2_1_0_2,2022-02-15T15:59:39.441Z,,,,,,,,,,,,,,,,,,,,,,,,,,,,false,FALSE,,3188.4740000476886,,response,,,,99,A,,,,,,TRUE,click #choice-1,,,,silence,,,,,143708.60000002384,143706.20000004768,140501.059,140504.5,140517.726,143734.457,,,
Question 2,html.Screen,2_1_0_3,2022-02-15T15:59:44.744Z,,,,,,,,,,,,,,,,,,,,,,,,,,,,true,TRUE,,5275.543000000005,,response,,,,99,A,,,,,,TRUE,click #choice-1,,,,silence,,,,,149012.39999997616,149010,143717.79,143708.80000007153,143734.457,149035.062,,,
Item 99,flow.Sequence,2_1_0,2022-02-15T15:59:44.744Z,,,,,,,,,,,,,,,,,,,,,,,,,,,,,,,35128.125,,completion,,,,,,,,,,,,,,,,,,,,,149012.60000002384,149010,113865.208,113867.39999997616,113881.875,149035.062,,,
Holding screen,html.Screen,2_1_1_0,2022-02-15T15:59:54.757Z,,,,,,,,,,,,,,,,,,,,,,,,,,,,,,,10000.609999999986,,timeout,,,,,,,,,,,,,,,,,,,,,159025.89999997616,159019.005,149018.395,149012.70000004768,149035.062,159035.672,,,
screen,html.Screen,2_1_1_1_0,2022-02-15T15:59:55.726Z,,,,,,,,,,,,,,,,,54,,,,,,,,,,,,,,955.4280000238505,,response,,,,100,,,,,,,Space,keypress(Space),,,,,,,,At --- ---- --- ------ ----- ------- ---- -- --- ------- --<br>------- ---------- ------ -- ----- -- ----- -- ---- ------<br>--- ----- --- --- ------ -------- ----- --- ------ ----- --<br>----- ----- ---------- --- --- ------ ------ ---- -- ------<br>------- --- ------ ----- --- ---- ------- -- ---- --- --<br>------- ------,159994.70000004768,159991.10000002384,159019.005,159026.10000002384,159035.672,160002.358,,0,At
screen,html.Screen,2_1_1_1_1,2022-02-15T15:59:55.979Z,,,,,,,,,,,,,,,,,54,,,,,,,,,,,,,,242.44200007151812,,response,,,,100,,,,,,,Space,keypress(Space),,,,,,,,-- the ---- --- ------ ----- ------- ---- -- --- ------- --<br>------- ---------- ------ -- ----- -- ----- -- ---- ------<br>--- ----- --- --- ------ -------- ----- --- ------ ----- --<br>----- ----- ---------- --- --- ------ ------ ---- -- ------<br>------- --- ------ ----- --- ---- ------- -- ---- --- --<br>------- ------,160247.5,160244.80000007153,159985.691,159994.80000007153,160002.358,160252.363,,1,the
screen,html.Screen,2_1_1_1_2,2022-02-15T15:59:56.206Z,,,,,,,,,,,,,,,,,54,,,,,,,,,,,,,,219.53699997614603,,response,,,,100,,,,,,,Space,keypress(Space),,,,,,,,-- --- time --- ------ ----- ------- ---- -- --- ------- --<br>------- ---------- ------ -- ----- -- ----- -- ---- ------<br>--- ----- --- --- ------ -------- ----- --- ------ ----- --<br>----- ----- ---------- --- --- ------ ------ ---- -- ------<br>------- --- ------ ----- --- ---- ------- -- ---- --- --<br>------- ------,160474.70000004768,160471.89999997616,160235.696,160247.70000004768,160252.363,160485.701,,2,time
screen,html.Screen,2_1_1_1_3,2022-02-15T15:59:56.435Z,,,,,,,,,,,,,,,,,54,,,,,,,,,,,,,,215.29899999999907,,response,,,,100,,,,,,,Space,keypress(Space),,,,,,,,-- --- ---- the ------ ----- ------- ---- -- --- ------- --<br>------- ---------- ------ -- ----- -- ----- -- ---- ------<br>--- ----- --- --- ------ -------- ----- --- ------ ----- --<br>----- ----- ---------- --- --- ------ ------ ---- -- ------<br>------- --- ------ ----- --- ---- ------- -- ---- --- --<br>------- ------,160703.60000002384,160701,160469.034,160474.89999997616,160485.701,160719.039,,3,the
screen,html.Screen,2_1_1_1_4,2022-02-15T15:59:56.646Z,,,,,,,,,,,,,,,,,54,,,,,,,,,,,,,,191.76100007153582,,response,,,,100,,,,,,,Space,keypress(Space),,,,,,,,-- --- ---- --- French ----- ------- ---- -- --- ------- --<br>------- ---------- ------ -- ----- -- ----- -- ---- ------<br>--- ----- --- --- ------ -------- ----- --- ------ ----- --<br>----- ----- ---------- --- --- ------ ------ ---- -- ------<br>------- --- ------ ----- --- ---- ------- -- ---- --- --<br>------- ------,160914.89999997616,160910.80000007153,160702.372,160703.80000007153,160719.039,160919.043,,4,French
screen,html.Screen,2_1_1_1_5,2022-02-15T15:59:56.873Z,,,,,,,,,,,,,,,,,54,,,,,,,,,,,,,,219.75700007152045,,response,,,,100,,,,,,,Space,keypress(Space),,,,,,,,-- --- ---- --- ------ crown ------- ---- -- --- ------- --<br>------- ---------- ------ -- ----- -- ----- -- ---- ------<br>--- ----- --- --- ------ -------- ----- --- ------ ----- --<br>----- ----- ---------- --- --- ------ ------ ---- -- ------<br>------- --- ------ ----- --- ---- ------- -- ---- --- --<br>------- ------,161141.5,161138.80000007153,160902.376,160915.30000007153,160919.043,161152.381,,5,crown
screen,html.Screen,2_1_1_1_6,2022-02-15T15:59:57.083Z,,,,,,,,,,,,,,,,,54,,,,,,,,,,,,,,196.5189999761642,,response,,,,100,,,,,,,Space,keypress(Space),,,,,,,,-- --- ---- --- ------ ----- secured ---- -- --- ------- --<br>------- ---------- ------ -- ----- -- ----- -- ---- ------<br>--- ----- --- --- ------ -------- ----- --- ------ ----- --<br>----- ----- ---------- --- --- ------ ------ ---- -- ------<br>------- --- ------ ----- --- ---- ------- -- ---- --- --<br>------- ------,161351.70000004768,161348.89999997616,161135.714,161141.60000002384,161152.381,161369.052,,6,secured
screen,html.Screen,2_1_1_1_7,2022-02-15T15:59:57.418Z,,,,,,,,,,,,,,,,,54,,,,,,,,,,,,,,314.8479999761621,,response,,,,100,,,,,,,Space,keypress(Space),,,,,,,,-- --- ---- --- ------ ----- ------- much -- --- ------- --<br>------- ---------- ------ -- ----- -- ----- -- ---- ------<br>--- ----- --- --- ------ -------- ----- --- ------ ----- --<br>----- ----- ---------- --- --- ------ ------ ---- -- ------<br>------- --- ------ ----- --- ---- ------- -- ---- --- --<br>------- ------,161686.60000002384,161683.89999997616,161352.385,161351.70000004768,161369.052,161702.392,,7,much
screen,html.Screen,2_1_1_1_8,2022-02-15T15:59:57.664Z,,,,,,,,,,,,,,,,,54,,,,,,,,,,,,,,227.5079999761656,,response,,,,100,,,,,,,Space,keypress(Space),,,,,,,,-- --- ---- --- ------ ----- ------- ---- of --- ------- --<br>------- ---------- ------ -- ----- -- ----- -- ---- ------<br>--- ----- --- --- ------ -------- ----- --- ------ ----- --<br>----- ----- ---------- --- --- ------ ------ ---- -- ------<br>------- --- ------ ----- --- ---- ------- -- ---- --- --<br>------- ------,161932.60000002384,161929.89999997616,161685.725,161686.80000007153,161702.392,161935.73,,8,of
screen,html.Screen,2_1_1_1_9,2022-02-15T15:59:57.898Z,,,,,,,,,,,,,,,,,54,,,,,,,,,,,,,,228.0700000715151,,response,,,,100,,,,,,,Space,keypress(Space),,,,,,,,-- --- ---- --- ------ ----- ------- ---- -- its ------- --<br>------- ---------- ------ -- ----- -- ----- -- ---- ------<br>--- ----- --- --- ------ -------- ----- --- ------ ----- --<br>----- ----- ---------- --- --- ------ ------ ---- -- ------<br>------- --- ------ ----- --- ---- ------- -- ---- --- --<br>------- ------,162166.60000002384,162163.80000007153,161919.063,161932.80000007153,161935.73,162169.068,,9,its
screen,html.Screen,2_1_1_1_10,2022-02-15T15:59:58.136Z,,,,,,,,,,,,,,,,,54,,,,,,,,,,,,,,232.73200007152627,,response,,,,100,,,,,,,Space,keypress(Space),,,,,,,,-- --- ---- --- ------ ----- ------- ---- -- --- revenue --<br>------- ---------- ------ -- ----- -- ----- -- ---- ------<br>--- ----- --- --- ------ -------- ----- --- ------ ----- --<br>----- ----- ---------- --- --- ------ ------ ---- -- ------<br>------- --- ------ ----- --- ---- ------- -- ---- --- --<br>------- ------,162404.80000007153,162401.80000007153,162152.401,162167.80000007153,162169.068,162419.073,,10,revenue
screen,html.Screen,2_1_1_1_11,2022-02-15T15:59:58.485Z,,,,,,,,,,,,,,,,,54,,,,,,,,,,,,,,331.8269999761542,,response,,,,100,,,,,,,Space,keypress(Space),,,,,,,,-- --- ---- --- ------ ----- ------- ---- -- --- ------- by<br>------- ---------- ------ -- ----- -- ----- -- ---- ------<br>--- ----- --- --- ------ -------- ----- --- ------ ----- --<br>----- ----- ---------- --- --- ------ ------ ---- -- ------<br>------- --- ------ ----- --- ---- ------- -- ---- --- --<br>------- ------,162753.60000002384,162750.89999997616,162402.406,162404.80000007153,162419.073,162769.08,,11,by
screen,html.Screen,2_1_1_1_12,2022-02-15T15:59:58.752Z,,,,,,,,,,,,,,,,,54,,,,,,,,,,,,,,248.72000007153838,,response,,,,100,,,,,,,Space,keypress(Space),,,,,,,,-- --- ---- --- ------ ----- ------- ---- -- --- ------- --<br>issuing ---------- ------ -- ----- -- ----- -- ---- ------<br>--- ----- --- --- ------ -------- ----- --- ------ ----- --<br>----- ----- ---------- --- --- ------ ------ ---- -- ------<br>------- --- ------ ----- --- ---- ------- -- ---- --- --<br>------- ------,163020.5,163017.80000007153,162752.413,162753.70000004768,162769.08,163035.752,,12,issuing
screen,html.Screen,2_1_1_1_13,2022-02-15T15:59:58.998Z,,,,,,,,,,,,,,,,,54,,,,,,,,,,,,,,229.0480000715179,,response,,,,100,,,,,,,Space,keypress(Space),,,,,,,,-- --- ---- --- ------ ----- ------- ---- -- --- ------- --<br>------- government ------ -- ----- -- ----- -- ---- ------<br>--- ----- --- --- ------ -------- ----- --- ------ ----- --<br>----- ----- ---------- --- --- ------ ------ ---- -- ------<br>------- --- ------ ----- --- ---- ------- -- ---- --- --<br>------- ------,163267.39999997616,163264.80000007153,163019.085,163020.70000004768,163035.752,163269.09,,13,government
screen,html.Screen,2_1_1_1_14,2022-02-15T15:59:59.335Z,,,,,,,,,,,,,,,,,54,,,,,,,,,,,,,,331.71000007152907,,response,,,,100,,,,,,,Space,keypress(Space),,,,,,,,-- --- ---- --- ------ ----- ------- ---- -- --- ------- --<br>------- ---------- bonds. -- ----- -- ----- -- ---- ------<br>--- ----- --- --- ------ -------- ----- --- ------ ----- --<br>----- ----- ---------- --- --- ------ ------ ---- -- ------<br>------- --- ------ ----- --- ---- ------- -- ---- --- --<br>------- ------,163603.60000002384,163600.80000007153,163252.423,163267.60000002384,163269.09,163619.097,,14,bonds.
screen,html.Screen,2_1_1_1_15,2022-02-15T15:59:59.702Z,,,,,,,,,,,,,,,,,54,,,,,,,,,,,,,,349.7030000715167,,response,,,,100,,,,,,,Space,keypress(Space),,,,,,,,-- --- ---- --- ------ ----- ------- ---- -- --- ------- --<br>------- ---------- ------ In ----- -- ----- -- ---- ------<br>--- ----- --- --- ------ -------- ----- --- ------ ----- --<br>----- ----- ---------- --- --- ------ ------ ---- -- ------<br>------- --- ------ ----- --- ---- ------- -- ---- --- --<br>------- ------,163971.60000002384,163968.80000007153,163602.43,163603.80000007153,163619.097,163985.771,,15,In
screen,html.Screen,2_1_1_1_16,2022-02-15T15:59:59.896Z,,,,,,,,,,,,,,,,,54,,,,,,,,,,,,,,176.9290000476758,,response,,,,100,,,,,,,Space,keypress(Space),,,,,,,,"-- --- ---- --- ------ ----- ------- ---- -- --- ------- --<br>------- ---------- ------ -- 1727, -- ----- -- ---- ------<br>--- ----- --- --- ------ -------- ----- --- ------ ----- --<br>----- ----- ---------- --- --- ------ ------ ---- -- ------<br>------- --- ------ ----- --- ---- ------- -- ---- --- --<br>------- ------",164165.39999997616,164162.70000004768,163969.104,163971.80000007153,163985.771,164169.108,,16,"1727,"
screen,html.Screen,2_1_1_1_17,2022-02-15T16:00:00.221Z,,,,,,,,,,,,,,,,,54,,,,,,,,,,,,,,317.59200004767627,,response,,,,100,,,,,,,Space,keypress(Space),,,,,,,,-- --- ---- --- ------ ----- ------- ---- -- --- ------- --<br>------- ---------- ------ -- ----- in ----- -- ---- ------<br>--- ----- --- --- ------ -------- ----- --- ------ ----- --<br>----- ----- ---------- --- --- ------ ------ ---- -- ------<br>------- --- ------ ----- --- ---- ------- -- ---- --- --<br>------- ------,164489.70000004768,164486.70000004768,164152.441,164165.5,164169.108,164502.448,,17,in
screen,html.Screen,2_1_1_1_18,2022-02-15T16:00:00.592Z,,,,,,,,,,,,,,,,,54,,,,,,,,,,,,,,356.25200004767976,,response,,,,100,,,,,,,Space,keypress(Space),,,,,,,,-- --- ---- --- ------ ----- ------- ---- -- --- ------- --<br>------- ---------- ------ -- ----- -- order -- ---- ------<br>--- ----- --- --- ------ -------- ----- --- ------ ----- --<br>----- ----- ---------- --- --- ------ ------ ---- -- ------<br>------- --- ------ ----- --- ---- ------- -- ---- --- --<br>------- ------,164861.39999997616,164858.70000004768,164485.781,164489.89999997616,164502.448,164869.122,,18,order
screen,html.Screen,2_1_1_1_19,2022-02-15T16:00:00.892Z,,,,,,,,,,,,,,,,,54,,,,,,,,,,,,,,289.5780000476807,,response,,,,100,,,,,,,Space,keypress(Space),,,,,,,,-- --- ---- --- ------ ----- ------- ---- -- --- ------- --<br>------- ---------- ------ -- ----- -- ----- to ---- ------<br>--- ----- --- --- ------ -------- ----- --- ------ ----- --<br>----- ----- ---------- --- --- ------ ------ ---- -- ------<br>------- --- ------ ----- --- ---- ------- -- ---- --- --<br>------- ------,165161.39999997616,165158.70000004768,164852.455,164861.5,164869.122,165169.128,,19,to
screen,html.Screen,2_1_1_1_20,2022-02-15T16:00:01.118Z,,,,,,,,,,,,,,,,,54,,,,,,,,,,,,,,215.57200004768674,,response,,,,100,,,,,,,Space,keypress(Space),,,,,,,,-- --- ---- --- ------ ----- ------- ---- -- --- ------- --<br>------- ---------- ------ -- ----- -- ----- -- save ------<br>--- ----- --- --- ------ -------- ----- --- ------ ----- --<br>----- ----- ---------- --- --- ------ ------ ---- -- ------<br>------- --- ------ ----- --- ---- ------- -- ---- --- --<br>------- ------,165387.5,165384.70000004768,165152.461,165161.60000002384,165169.128,165402.466,,20,save
screen,html.Screen,2_1_1_1_21,2022-02-15T16:00:01.407Z,,,,,,,,,,,,,,,,,54,,,,,,,,,,,,,,271.2340000476979,,response,,,,100,,,,,,,Space,keypress(Space),,,,,,,,"-- --- ---- --- ------ ----- ------- ---- -- --- ------- --<br>------- ---------- ------ -- ----- -- ----- -- ---- money,<br>--- ----- --- --- ------ -------- ----- --- ------ ----- --<br>----- ----- ---------- --- --- ------ ------ ---- -- ------<br>------- --- ------ ----- --- ---- ------- -- ---- --- --<br>------- ------",165676.30000007153,165673.70000004768,165385.799,165387.80000007153,165402.466,165686.411,,21,"money,"
screen,html.Screen,2_1_1_1_22,2022-02-15T16:00:01.781Z,,,,,,,,,,,,,,,,,54,,,,,,,,,,,,,,361.28900004769093,,response,,,,100,,,,,,,Space,keypress(Space),,,,,,,,-- --- ---- --- ------ ----- ------- ---- -- --- ------- --<br>------- ---------- ------ -- ----- -- ----- -- ---- ------<br>the ----- --- --- ------ -------- ----- --- ------ ----- --<br>----- ----- ---------- --- --- ------ ------ ---- -- ------<br>------- --- ------ ----- --- ---- ------- -- ---- --- --<br>------- ------,166050.30000007153,166047.70000004768,165669.744,165676.5,165686.411,166053.085,,22,the
screen,html.Screen,2_1_1_1_23,2022-02-15T16:00:02.143Z,,,,,,,,,,,,,,,,,54,,,,,,,,,,,,,,356.61500004769186,,response,,,,100,,,,,,,Space,keypress(Space),,,,,,,,-- --- ---- --- ------ ----- ------- ---- -- --- ------- --<br>------- ---------- ------ -- ----- -- ----- -- ---- ------<br>--- state --- --- ------ -------- ----- --- ------ ----- --<br>----- ----- ---------- --- --- ------ ------ ---- -- ------<br>------- --- ------ ----- --- ---- ------- -- ---- --- --<br>------- ------,166412.30000007153,166409.70000004768,166036.418,166050.39999997616,166053.085,166419.759,,23,state
screen,html.Screen,2_1_1_1_24,2022-02-15T16:00:02.468Z,,,,,,,,,,,,,,,,,54,,,,,,,,,,,,,,314.84100002385094,,response,,,,100,,,,,,,Space,keypress(Space),,,,,,,,-- --- ---- --- ------ ----- ------- ---- -- --- ------- --<br>------- ---------- ------ -- ----- -- ----- -- ---- ------<br>--- ----- cut --- ------ -------- ----- --- ------ ----- --<br>----- ----- ---------- --- --- ------ ------ ---- -- ------<br>------- --- ------ ----- --- ---- ------- -- ---- --- --<br>------- ------,166737.30000007153,166734.60000002384,166403.092,166412.39999997616,166419.759,166753.099,,24,cut
screen,html.Screen,2_1_1_1_25,2022-02-15T16:00:02.764Z,,,,,,,,,,,,,,,,,54,,,,,,,,,,,,,,277.50100002385443,,response,,,,100,,,,,,,Space,keypress(Space),,,,,,,,-- --- ---- --- ------ ----- ------- ---- -- --- ------- --<br>------- ---------- ------ -- ----- -- ----- -- ---- ------<br>--- ----- --- the ------ -------- ----- --- ------ ----- --<br>----- ----- ---------- --- --- ------ ------ ---- -- ------<br>------- --- ------ ----- --- ---- ------- -- ---- --- --<br>------- ------,167033.30000007153,167030.60000002384,166736.432,166737.5,166753.099,167036.438,,25,the
screen,html.Screen,2_1_1_1_26,2022-02-15T16:00:02.996Z,,,,,,,,,,,,,,,,,54,,,,,,,,,,,,,,226.26200004768907,,response,,,,100,,,,,,,Space,keypress(Space),,,,,,,,-- --- ---- --- ------ ----- ------- ---- -- --- ------- --<br>------- ---------- ------ -- ----- -- ----- -- ---- ------<br>--- ----- --- --- bonds' -------- ----- --- ------ ----- --<br>----- ----- ---------- --- --- ------ ------ ---- -- ------<br>------- --- ------ ----- --- ---- ------- -- ---- --- --<br>------- ------,167265.30000007153,167262.70000004768,167019.771,167033.39999997616,167036.438,167269.776,,26,bonds'
screen,html.Screen,2_1_1_1_27,2022-02-15T16:00:03.228Z,,,,,,,,,,,,,,,,,54,,,,,,,,,,,,,,224.82400002382929,,response,,,,100,,,,,,,Space,keypress(Space),,,,,,,,-- --- ---- --- ------ ----- ------- ---- -- --- ------- --<br>------- ---------- ------ -- ----- -- ----- -- ---- ------<br>--- ----- --- --- ------ interest ----- --- ------ ----- --<br>----- ----- ---------- --- --- ------ ------ ---- -- ------<br>------- --- ------ ----- --- ---- ------- -- ---- --- --<br>------- ------,167497.20000004768,167494.60000002384,167253.109,167265.39999997616,167269.776,167503.114,,27,interest
screen,html.Screen,2_1_1_1_28,2022-02-15T16:00:03.476Z,,,,,,,,,,,,,,,,,54,,,,,,,,,,,,,,239.3859999999986,,response,,,,100,,,,,,,Space,keypress(Space),,,,,,,,-- --- ---- --- ------ ----- ------- ---- -- --- ------- --<br>------- ---------- ------ -- ----- -- ----- -- ---- ------<br>--- ----- --- --- ------ -------- rate. --- ------ ----- --<br>----- ----- ---------- --- --- ------ ------ ---- -- ------<br>------- --- ------ ----- --- ---- ------- -- ---- --- --<br>------- ------,167745.30000007153,167742.5,167486.447,167497.39999997616,167503.114,167753.119,,28,rate.
screen,html.Screen,2_1_1_1_29,2022-02-15T16:00:03.826Z,,,,,,,,,,,,,,,,,54,,,,,,,,,,,,,,339.4810000238358,,response,,,,100,,,,,,,Space,keypress(Space),,,,,,,,-- --- ---- --- ------ ----- ------- ---- -- --- ------- --<br>------- ---------- ------ -- ----- -- ----- -- ---- ------<br>--- ----- --- --- ------ -------- ----- The ------ ----- --<br>----- ----- ---------- --- --- ------ ------ ---- -- ------<br>------- --- ------ ----- --- ---- ------- -- ---- --- --<br>------- ------,168095.20000004768,168092.60000002384,167736.452,167745.5,167753.119,168103.126,,29,The
screen,html.Screen,2_1_1_1_30,2022-02-15T16:00:04.127Z,,,,,,,,,,,,,,,,,54,,,,,,,,,,,,,,290.3740000000107,,response,,,,100,,,,,,,Space,keypress(Space),,,,,,,,-- --- ---- --- ------ ----- ------- ---- -- --- ------- --<br>------- ---------- ------ -- ----- -- ----- -- ---- ------<br>--- ----- --- --- ------ -------- ----- --- market ----- --<br>----- ----- ---------- --- --- ------ ------ ---- -- ------<br>------- --- ------ ----- --- ---- ------- -- ---- --- --<br>------- ------,168396.10000002384,168393.5,168086.459,168095.39999997616,168103.126,168403.132,,30,market
screen,html.Screen,2_1_1_1_31,2022-02-15T16:00:04.409Z,,,,,,,,,,,,,,,,,54,,,,,,,,,,,,,,272.36799999998766,,response,,,,100,,,,,,,Space,keypress(Space),,,,,,,,-- --- ---- --- ------ ----- ------- ---- -- --- ------- --<br>------- ---------- ------ -- ----- -- ----- -- ---- ------<br>--- ----- --- --- ------ -------- ----- --- ------ value --<br>----- ----- ---------- --- --- ------ ------ ---- -- ------<br>------- --- ------ ----- --- ---- ------- -- ---- --- --<br>------- ------,168678.20000004768,168675.5,168386.465,168396.30000007153,168403.132,168686.471,,31,value
screen,html.Screen,2_1_1_1_32,2022-02-15T16:00:04.678Z,,,,,,,,,,,,,,,,,54,,,,,,,,,,,,,,258.02900000000955,,response,,,,100,,,,,,,Space,keypress(Space),,,,,,,,-- --- ---- --- ------ ----- ------- ---- -- --- ------- --<br>------- ---------- ------ -- ----- -- ----- -- ---- ------<br>--- ----- --- --- ------ -------- ----- --- ------ ----- of<br>----- ----- ---------- --- --- ------ ------ ---- -- ------<br>------- --- ------ ----- --- ---- ------- -- ---- --- --<br>------- ------,168947.20000004768,168944.5,168669.804,168678.5,168686.471,168953.143,,32,of
screen,html.Screen,2_1_1_1_33,2022-02-15T16:00:04.983Z,,,,,,,,,,,,,,,,,54,,,,,,,,,,,,,,296.35699999998906,,response,,,,100,,,,,,,Space,keypress(Space),,,,,,,,-- --- ---- --- ------ ----- ------- ---- -- --- ------- --<br>------- ---------- ------ -- ----- -- ----- -- ---- ------<br>--- ----- --- --- ------ -------- ----- --- ------ ----- --<br>these ----- ---------- --- --- ------ ------ ---- -- ------<br>------- --- ------ ----- --- ---- ------- -- ---- --- --<br>------- ------,169252.20000004768,169249.5,168936.476,168947.39999997616,168953.143,169269.816,,33,these
screen,html.Screen,2_1_1_1_34,2022-02-15T16:00:05.273Z,,,,,,,,,,,,,,,,,54,,,,,,,,,,,,,,269.6840000000084,,response,,,,100,,,,,,,Space,keypress(Space),,,,,,,,-- --- ---- --- ------ ----- ------- ---- -- --- ------- --<br>------- ---------- ------ -- ----- -- ----- -- ---- ------<br>--- ----- --- --- ------ -------- ----- --- ------ ----- --<br>----- bonds ---------- --- --- ------ ------ ---- -- ------<br>------- --- ------ ----- --- ---- ------- -- ---- --- --<br>------- ------,169542.10000002384,169539.5,169253.149,169252.39999997616,169269.816,169553.155,,34,bonds
screen,html.Screen,2_1_1_1_35,2022-02-15T16:00:05.515Z,,,,,,,,,,,,,,,,,54,,,,,,,,,,,,,,228.2449999761593,,response,,,,100,,,,,,,Space,keypress(Space),,,,,,,,"-- --- ---- --- ------ ----- ------- ---- -- --- ------- --<br>------- ---------- ------ -- ----- -- ----- -- ---- ------<br>--- ----- --- --- ------ -------- ----- --- ------ ----- --<br>----- ----- plummeted, --- --- ------ ------ ---- -- ------<br>------- --- ------ ----- --- ---- ------- -- ---- --- --<br>------- ------",169784.20000004768,169781.39999997616,169536.488,169542.20000004768,169553.155,169786.493,,35,"plummeted,"
screen,html.Screen,2_1_1_1_36,2022-02-15T16:00:05.758Z,,,,,,,,,,,,,,,,,54,,,,,,,,,,,,,,237.90699997617048,,response,,,,100,,,,,,,Space,keypress(Space),,,,,,,,-- --- ---- --- ------ ----- ------- ---- -- --- ------- --<br>------- ---------- ------ -- ----- -- ----- -- ---- ------<br>--- ----- --- --- ------ -------- ----- --- ------ ----- --<br>----- ----- ---------- and --- ------ ------ ---- -- ------<br>------- --- ------ ----- --- ---- ------- -- ---- --- --<br>------- ------,170027.60000002384,170024.39999997616,169769.826,169784.30000007153,169786.493,170036.498,,36,and
screen,html.Screen,2_1_1_1_37,2022-02-15T16:00:06.051Z,,,,,,,,,,,,,,,,,54,,,,,,,,,,,,,,280.9019999761658,,response,,,,100,,,,,,,Space,keypress(Space),,,,,,,,-- --- ---- --- ------ ----- ------- ---- -- --- ------- --<br>------- ---------- ------ -- ----- -- ----- -- ---- ------<br>--- ----- --- --- ------ -------- ----- --- ------ ----- --<br>----- ----- ---------- --- the ------ ------ ---- -- ------<br>------- --- ------ ----- --- ---- ------- -- ---- --- --<br>------- ------,170320.10000002384,170317.39999997616,170019.831,170027.80000007153,170036.498,170336.504,,37,the
screen,html.Screen,2_1_1_1_38,2022-02-15T16:00:06.309Z,,,,,,,,,,,,,,,,,54,,,,,,,,,,,,,,238.89599997617188,,response,,,,100,,,,,,,Space,keypress(Space),,,,,,,,-- --- ---- --- ------ ----- ------- ---- -- --- ------- --<br>------- ---------- ------ -- ----- -- ----- -- ---- ------<br>--- ----- --- --- ------ -------- ----- --- ------ ----- --<br>----- ----- ---------- --- --- market ------ ---- -- ------<br>------- --- ------ ----- --- ---- ------- -- ---- --- --<br>------- ------,170578.10000002384,170575.39999997616,170319.837,170320.30000007153,170336.504,170586.509,,38,market
screen,html.Screen,2_1_1_1_39,2022-02-15T16:00:06.536Z,,,,,,,,,,,,,,,,,54,,,,,,,,,,,,,,215.89099997616722,,response,,,,100,,,,,,,Space,keypress(Space),,,,,,,,-- --- ---- --- ------ ----- ------- ---- -- --- ------- --<br>------- ---------- ------ -- ----- -- ----- -- ---- ------<br>--- ----- --- --- ------ -------- ----- --- ------ ----- --<br>----- ----- ---------- --- --- ------ became ---- -- ------<br>------- --- ------ ----- --- ---- ------- -- ---- --- --<br>------- ------,170805.20000004768,170802.39999997616,170569.842,170578.30000007153,170586.509,170819.847,,39,became
screen,html.Screen,2_1_1_1_40,2022-02-15T16:00:06.812Z,,,,,,,,,,,,,,,,,54,,,,,,,,,,,,,,258.5529999761493,,response,,,,100,,,,,,,Space,keypress(Space),,,,,,,,-- --- ---- --- ------ ----- ------- ---- -- --- ------- --<br>------- ---------- ------ -- ----- -- ----- -- ---- ------<br>--- ----- --- --- ------ -------- ----- --- ------ ----- --<br>----- ----- ---------- --- --- ------ ------ wary -- ------<br>------- --- ------ ----- --- ---- ------- -- ---- --- --<br>------- ------,171081,171078.39999997616,170803.18,170805.30000007153,170819.847,171086.519,,40,wary
screen,html.Screen,2_1_1_1_41,2022-02-15T16:00:07.050Z,,,,,,,,,,,,,,,,,54,,,,,,,,,,,,,,229.8809999761579,,response,,,,100,,,,,,,Space,keypress(Space),,,,,,,,-- --- ---- --- ------ ----- ------- ---- -- --- ------- --<br>------- ---------- ------ -- ----- -- ----- -- ---- ------<br>--- ----- --- --- ------ -------- ----- --- ------ ----- --<br>----- ----- ---------- --- --- ------ ------ ---- of ------<br>------- --- ------ ----- --- ---- ------- -- ---- --- --<br>------- ------,171319.10000002384,171316.39999997616,171069.852,171081.20000004768,171086.519,171336.524,,41,of
screen,html.Screen,2_1_1_1_42,2022-02-15T16:00:07.347Z,,,,,,,,,,,,,,,,,54,,,,,,,,,,,,,,277.87599997615325,,response,,,,100,,,,,,,Space,keypress(Space),,,,,,,,-- --- ---- --- ------ ----- ------- ---- -- --- ------- --<br>------- ---------- ------ -- ----- -- ----- -- ---- ------<br>--- ----- --- --- ------ -------- ----- --- ------ ----- --<br>----- ----- ---------- --- --- ------ ------ ---- -- French<br>------- --- ------ ----- --- ---- ------- -- ---- --- --<br>------- ------,171617.10000002384,171614.39999997616,171319.857,171319.39999997616,171336.524,171619.863,,42,French
screen,html.Screen,2_1_1_1_43,2022-02-15T16:00:07.682Z,,,,,,,,,,,,,,,,,54,,,,,,,,,,,,,,329.43700007151347,,response,,,,100,,,,,,,Space,keypress(Space),,,,,,,,-- --- ---- --- ------ ----- ------- ---- -- --- ------- --<br>------- ---------- ------ -- ----- -- ----- -- ---- ------<br>--- ----- --- --- ------ -------- ----- --- ------ ----- --<br>----- ----- ---------- --- --- ------ ------ ---- -- ------<br>credit. --- ------ ----- --- ---- ------- -- ---- --- --<br>------- ------,171952,171949.30000007153,171603.196,171617.20000004768,171619.863,171953.203,,43,credit.
screen,html.Screen,2_1_1_1_44,2022-02-15T16:00:08.035Z,,,,,,,,,,,,,,,,,54,,,,,,,,,,,,,,348.9970000476751,,response,,,,100,,,,,,,Space,keypress(Space),,,,,,,,-- --- ---- --- ------ ----- ------- ---- -- --- ------- --<br>------- ---------- ------ -- ----- -- ----- -- ---- ------<br>--- ----- --- --- ------ -------- ----- --- ------ ----- --<br>----- ----- ---------- --- --- ------ ------ ---- -- ------<br>------- The ------ ----- --- ---- ------- -- ---- --- --<br>------- ------,172305,172302.20000004768,171936.536,171952.20000004768,171953.203,172319.877,,44,The
screen,html.Screen,2_1_1_1_45,2022-02-15T16:00:08.294Z,,,,,,,,,,,,,,,,,54,,,,,,,,,,,,,,241.4230000715179,,response,,,,100,,,,,,,Space,keypress(Space),,,,,,,,-- --- ---- --- ------ ----- ------- ---- -- --- ------- --<br>------- ---------- ------ -- ----- -- ----- -- ---- ------<br>--- ----- --- --- ------ -------- ----- --- ------ ----- --<br>----- ----- ---------- --- --- ------ ------ ---- -- ------<br>------- --- French ----- --- ---- ------- -- ---- --- --<br>------- ------,172564,172561.30000007153,172303.21,172305.20000004768,172319.877,172569.882,,45,French
screen,html.Screen,2_1_1_1_46,2022-02-15T16:00:08.484Z,,,,,,,,,,,,,,,,,54,,,,,,,,,,,,,,181.41800007151323,,response,,,,100,,,,,,,Space,keypress(Space),,,,,,,,-- --- ---- --- ------ ----- ------- ---- -- --- ------- --<br>------- ---------- ------ -- ----- -- ----- -- ---- ------<br>--- ----- --- --- ------ -------- ----- --- ------ ----- --<br>----- ----- ---------- --- --- ------ ------ ---- -- ------<br>------- --- ------ state --- ---- ------- -- ---- --- --<br>------- ------,172754.10000002384,172751.30000007153,172553.215,172564.20000004768,172569.882,172769.886,,46,state
screen,html.Screen,2_1_1_1_47,2022-02-15T16:00:08.771Z,,,,,,,,,,,,,,,,,54,,,,,,,,,,,,,,268.41400007152697,,response,,,,100,,,,,,,Space,keypress(Space),,,,,,,,-- --- ---- --- ------ ----- ------- ---- -- --- ------- --<br>------- ---------- ------ -- ----- -- ----- -- ---- ------<br>--- ----- --- --- ------ -------- ----- --- ------ ----- --<br>----- ----- ---------- --- --- ------ ------ ---- -- ------<br>------- --- ------ ----- was ---- ------- -- ---- --- --<br>------- ------,173041,173038.30000007153,172753.219,172754.20000004768,172769.886,173053.225,,47,was
screen,html.Screen,2_1_1_1_48,2022-02-15T16:00:09.034Z,,,,,,,,,,,,,,,,,54,,,,,,,,,,,,,,248.07500007151975,,response,,,,100,,,,,,,Space,keypress(Space),,,,,,,,-- --- ---- --- ------ ----- ------- ---- -- --- ------- --<br>------- ---------- ------ -- ----- -- ----- -- ---- ------<br>--- ----- --- --- ------ -------- ----- --- ------ ----- --<br>----- ----- ---------- --- --- ------ ------ ---- -- ------<br>------- --- ------ ----- --- left ------- -- ---- --- --<br>------- ------,173304,173301.30000007153,173036.558,173041.10000002384,173053.225,173319.897,,48,left
screen,html.Screen,2_1_1_1_49,2022-02-15T16:00:09.303Z,,,,,,,,,,,,,,,,,54,,,,,,,,,,,,,,250.40300007152837,,response,,,,100,,,,,,,Space,keypress(Space),,,,,,,,-- --- ---- --- ------ ----- ------- ---- -- --- ------- --<br>------- ---------- ------ -- ----- -- ----- -- ---- ------<br>--- ----- --- --- ------ -------- ----- --- ------ ----- --<br>----- ----- ---------- --- --- ------ ------ ---- -- ------<br>------- --- ------ ----- --- ---- without -- ---- --- --<br>------- ------,173573.10000002384,173570.30000007153,173303.23,173304.20000004768,173319.897,173586.569,,49,without
screen,html.Screen,2_1_1_1_50,2022-02-15T16:00:09.617Z,,,,,,,,,,,,,,,,,54,,,,,,,,,,,,,,297.731000071537,,response,,,,100,,,,,,,Space,keypress(Space),,,,,,,,-- --- ---- --- ------ ----- ------- ---- -- --- ------- --<br>------- ---------- ------ -- ----- -- ----- -- ---- ------<br>--- ----- --- --- ------ -------- ----- --- ------ ----- --<br>----- ----- ---------- --- --- ------ ------ ---- -- ------<br>------- --- ------ ----- --- ---- ------- an ---- --- --<br>------- ------,173887.10000002384,173884.30000007153,173569.902,173573.20000004768,173586.569,173903.242,,50,an
screen,html.Screen,2_1_1_1_51,2022-02-15T16:00:09.952Z,,,,,,,,,,,,,,,,,54,,,,,,,,,,,,,,315.95800004768535,,response,,,,100,,,,,,,Space,keypress(Space),,,,,,,,-- --- ---- --- ------ ----- ------- ---- -- --- ------- --<br>------- ---------- ------ -- ----- -- ----- -- ---- ------<br>--- ----- --- --- ------ -------- ----- --- ------ ----- --<br>----- ----- ---------- --- --- ------ ------ ---- -- ------<br>------- --- ------ ----- --- ---- ------- -- easy --- --<br>------- ------,174222.10000002384,174219.20000004768,173886.575,173887.20000004768,173903.242,174236.582,,51,easy
screen,html.Screen,2_1_1_1_52,2022-02-15T16:00:10.188Z,,,,,,,,,,,,,,,,,54,,,,,,,,,,,,,,218.61800004768884,,response,,,,100,,,,,,,Space,keypress(Space),,,,,,,,-- --- ---- --- ------ ----- ------- ---- -- --- ------- --<br>------- ---------- ------ -- ----- -- ----- -- ---- ------<br>--- ----- --- --- ------ -------- ----- --- ------ ----- --<br>----- ----- ---------- --- --- ------ ------ ---- -- ------<br>------- --- ------ ----- --- ---- ------- -- ---- way --<br>------- ------,174457.80000007153,174455.20000004768,174219.915,174222.30000007153,174236.582,174469.92,,52,way
screen,html.Screen,2_1_1_1_53,2022-02-15T16:00:10.501Z,,,,,,,,,,,,,,,,,54,,,,,,,,,,,,,,298.2800000476709,,response,,,,100,,,,,,,Space,keypress(Space),,,,,,,,-- --- ---- --- ------ ----- ------- ---- -- --- ------- --<br>------- ---------- ------ -- ----- -- ----- -- ---- ------<br>--- ----- --- --- ------ -------- ----- --- ------ ----- --<br>----- ----- ---------- --- --- ------ ------ ---- -- ------<br>------- --- ------ ----- --- ---- ------- -- ---- --- of<br>------- ------,174771,174768.20000004768,174453.253,174458,174469.92,174786.593,,53,of
screen,html.Screen,2_1_1_1_54,2022-02-15T16:00:10.834Z,,,,,,,,,,,,,,,,,54,,,,,,,,,,,,,,314.60700004769024,,response,,,,100,,,,,,,Space,keypress(Space),,,,,,,,-- --- ---- --- ------ ----- ------- ---- -- --- ------- --<br>------- ---------- ------ -- ----- -- ----- -- ---- ------<br>--- ----- --- --- ------ -------- ----- --- ------ ----- --<br>----- ----- ---------- --- --- ------ ------ ---- -- ------<br>------- --- ------ ----- --- ---- ------- -- ---- --- --<br>raising ------,175104,175101.20000004768,174769.926,174771.20000004768,174786.593,175119.933,,54,raising
screen,html.Screen,2_1_1_1_55,2022-02-15T16:00:11.129Z,,,,,,,,,,,,,,,,,54,,,,,,,,,,,,,,276.06700000001,,response,,,,100,,,,,,,Space,keypress(Space),,,,,,,,-- --- ---- --- ------ ----- ------- ---- -- --- ------- --<br>------- ---------- ------ -- ----- -- ----- -- ---- ------<br>--- ----- --- --- ------ -------- ----- --- ------ ----- --<br>----- ----- ---------- --- --- ------ ------ ---- -- ------<br>------- --- ------ ----- --- ---- ------- -- ---- --- --<br>------- money.,175398.70000004768,175396,175103.266,175104.20000004768,175119.933,175403.272,,55,money.
Item 100,flow.Loop,2_1_1_1,2022-02-15T16:00:11.129Z,,,,,,,,,,,,,,,,,,,,,,,,,,,,,,,16360.328000000009,,completion,,,,,A,,,,,,,,,,,silence,,,,,175399,175396,159019.005,159026,159035.672,175403.272,,,
Question 1,html.Screen,2_1_1_2,2022-02-15T16:00:13.431Z,,,,,,,,,,,,,,,,,,,,,,,,,,,,true,TRUE,,2294.728000000003,,response,,,,100,A,,,,,,TRUE,click #choice-1,,,,silence,,,,,177700.5,177698,175386.605,175399.20000004768,175403.272,177720.482,,,
Question 2,html.Screen,2_1_1_3,2022-02-15T16:00:15.870Z,,,,,,,,,,,,,,,,,,,,,,,,,,,,true,FALSE,,2417.2180000476947,,response,,,,100,A,,,,,,FALSE,click #choice-2,,,,silence,,,,,180140.10000002384,180137.70000004768,177703.815,177700.70000004768,177720.482,180153.864,,,
Item 100,flow.Sequence,2_1_1,2022-02-15T16:00:15.870Z,,,,,,,,,,,,,,,,,,,,,,,,,,,,,,,31102.63800004768,,completion,,,,,,,,,,,,,,,,,,,,,180140.30000007153,180137.70000004768,149018.395,149012.70000004768,149035.062,180153.864,,,
End of Practice,html.Page,2_1_2,2022-02-15T16:00:20.254Z,,,,,,,,,,,,,,,,,,,,,,,,,,,,,,,4370.2360000238405,,form submission,,,,,,,,,,,,,,,,,,,,,184524.39999997616,184524.10000002384,180137.197,180140.5,180153.864,184537.285,,,
Practice,flow.Sequence,2_1,2022-02-15T16:00:20.254Z,,,,,,,,,,,,,,,,,,,,,,,,,,,,,,,70642.22500002384,,completion,,,,,,,,,,,,,,,,,,,,,184524.70000004768,184524.10000002384,113865.208,113867.30000007153,113881.875,184537.285,,,
Trap_instruction,html.Page,2_2_0,2022-02-15T16:00:22.707Z,,,,,,,,,,,,,,,,,,,,,,,,,,,,,,,2440.1149999761546,,form submission,,,,,,,,,,,,,,,,,,,,,186977.89999997616,186977.39999997616,184520.618,184525,184537.285,186987.334,,,
trap_trial,html.Screen,2_2_1,2022-02-15T16:00:25.856Z,,,,,,,,,,,,,,,,,,,,,,,,,,,,true,1,,3137.466000071523,,response,,,,,,,,,,,1,click #choice-1,,,,,,,,,190127.20000004768,190124.80000007153,186970.667,186978.10000002384,186987.334,190137.857,,,
end of trap trial,html.Page,2_2_2,2022-02-15T16:00:27.445Z,,,,,,,,,,,,,,,,,,,,,,,,,,,,,,,1578.2430000238528,,form submission,,,,,,,,,,,,,,,,,,,,,191716.39999997616,191716.10000002384,190121.19,190127.39999997616,190137.857,191737.889,,,
Trap 1,flow.Sequence,2_2,2022-02-15T16:00:27.446Z,,,,,,,,,,,,,,,,,,,,,,,,,,,,,,,7178.815000023838,,completion,,,,,,,,,,,,,,,,,,,,,191716.60000002384,191716.10000002384,184520.618,184524.89999997616,184537.285,191737.889,,,
Standby,html.Page,2_3_0,2022-02-15T16:00:35.453Z,,,,,,,,,,,,,,,,,,,,,,,,,,,,,,,8000.1600000000035,,timeout,,,,,,,,,,,,,,,,,,,,,199723.89999997616,199721.382,191721.222,191716.80000007153,191737.889,199738.049,,,
Holding screen,html.Screen,2_3_1_0_0,2022-02-15T16:00:42.453Z,,,,,,,,,,,,,,,,,,,,,,,,,,,,,,,7000.809999999998,,timeout,,,,,,,,,,,,,,,,,,,,,206724.80000007153,206722.192,199721.382,199724.30000007153,199738.049,206738.859,,,
screen,html.Screen,2_3_1_0_1_0,2022-02-15T16:00:43.089Z,,,,,,,,,,,,,,,,,48,,,,,,,,,,,,,,618.7410000238451,,response,,,,10,A,,,,,,Space,keypress(Space),,,,silence,,,,As -- --- ------ ------- --------- ----------- --------<br>--------- -------- --- ------- -- ------- ---- -- ------<br>-- --- -------- -------- ---------- ---- ---- ---- ------<br>-- --------- -- ---- -- --- -- --- ------- -- - -----<br>---------- -- -- -- ---- ----- -- ------ -- --- ------<br>-------,207361.10000002384,207357.60000002384,206722.192,206725,206738.859,207372.205,,0,As
screen,html.Screen,2_3_1_0_1_1,2022-02-15T16:00:43.426Z,,,,,,,,,,,,,,,,,48,,,,,,,,,,,,,,322.7950000000128,,response,,,,10,A,,,,,,Space,keypress(Space),,,,silence,,,,-- in --- ------ ------- --------- ----------- --------<br>--------- -------- --- ------- -- ------- ---- -- ------<br>-- --- -------- -------- ---------- ---- ---- ---- ------<br>-- --------- -- ---- -- --- -- --- ------- -- - -----<br>---------- -- -- -- ---- ----- -- ------ -- --- ------<br>-------,207697.80000007153,207695,207355.538,207361.30000007153,207372.205,207705.545,,1,in
screen,html.Screen,2_3_1_0_1_2,2022-02-15T16:00:43.627Z,,,,,,,,,,,,,,,,,48,,,,,,,,,,,,,,190.6550000476709,,response,,,,10,A,,,,,,Space,keypress(Space),,,,silence,,,,-- -- the ------ ------- --------- ----------- --------<br>--------- -------- --- ------- -- ------- ---- -- ------<br>-- --- -------- -------- ---------- ---- ---- ---- ------<br>-- --------- -- ---- -- --- -- --- ------- -- - -----<br>---------- -- -- -- ---- ----- -- ------ -- --- ------<br>-------,207899,207896.20000004768,207688.878,207698,207705.545,207905.549,,2,the
screen,html.Screen,2_3_1_0_1_3,2022-02-15T16:00:43.927Z,,,,,,,,,,,,,,,,,48,,,,,,,,,,,,,,290.5510000238428,,response,,,,10,A,,,,,,Space,keypress(Space),,,,silence,,,,-- -- --- United ------- --------- ----------- --------<br>--------- -------- --- ------- -- ------- ---- -- ------<br>-- --- -------- -------- ---------- ---- ---- ---- ------<br>-- --------- -- ---- -- --- -- --- ------- -- - -----<br>---------- -- -- -- ---- ----- -- ------ -- --- ------<br>-------,208198.89999997616,208196.10000002384,207888.882,207899.20000004768,207905.549,208205.555,,3,United
screen,html.Screen,2_3_1_0_1_4,2022-02-15T16:00:44.222Z,,,,,,,,,,,,,,,,,48,,,,,,,,,,,,,,285.54500002384884,,response,,,,10,A,,,,,,Space,keypress(Space),,,,silence,,,,"-- -- --- ------ States, --------- ----------- --------<br>--------- -------- --- ------- -- ------- ---- -- ------<br>-- --- -------- -------- ---------- ---- ---- ---- ------<br>-- --------- -- ---- -- --- -- --- ------- -- - -----<br>---------- -- -- -- ---- ----- -- ------ -- --- ------<br>-------",208493.80000007153,208491.10000002384,208188.888,208199,208205.555,208505.561,,4,"States,"
screen,html.Screen,2_3_1_0_1_5,2022-02-15T16:00:44.520Z,,,,,,,,,,,,,,,,,48,,,,,,,,,,,,,,283.63900004769675,,response,,,,10,A,,,,,,Space,keypress(Space),,,,silence,,,,-- -- --- ------ ------- Colombian ----------- --------<br>--------- -------- --- ------- -- ------- ---- -- ------<br>-- --- -------- -------- ---------- ---- ---- ---- ------<br>-- --------- -- ---- -- --- -- --- ------- -- - -----<br>---------- -- -- -- ---- ----- -- ------ -- --- ------<br>-------,208792,208789.20000004768,208488.894,208494,208505.561,208805.567,,5,Colombian
screen,html.Screen,2_3_1_0_1_6,2022-02-15T16:00:44.844Z,,,,,,,,,,,,,,,,,48,,,,,,,,,,,,,,307.6330000476737,,response,,,,10,A,,,,,,Space,keypress(Space),,,,silence,,,,-- -- --- ------ ------- --------- legislation --------<br>--------- -------- --- ------- -- ------- ---- -- ------<br>-- --- -------- -------- ---------- ---- ---- ---- ------<br>-- --------- -- ---- -- --- -- --- ------- -- - -----<br>---------- -- -- -- ---- ----- -- ------ -- --- ------<br>-------,209115.89999997616,209113.20000004768,208788.9,208792.10000002384,208805.567,209122.24,,6,legislation
screen,html.Screen,2_3_1_0_1_7,2022-02-15T16:00:45.173Z,,,,,,,,,,,,,,,,,48,,,,,,,,,,,,,,319.96000004769303,,response,,,,10,A,,,,,,Space,keypress(Space),,,,silence,,,,-- -- --- ------ ------- --------- ----------- requires<br>--------- -------- --- ------- -- ------- ---- -- ------<br>-- --- -------- -------- ---------- ---- ---- ---- ------<br>-- --------- -- ---- -- --- -- --- ------- -- - -----<br>---------- -- -- -- ---- ----- -- ------ -- --- ------<br>-------,209444.80000007153,209442.20000004768,209105.573,209116,209122.24,209455.58,,7,requires
screen,html.Screen,2_3_1_0_1_8,2022-02-15T16:00:45.461Z,,,,,,,,,,,,,,,,,48,,,,,,,,,,,,,,274.52000002385466,,response,,,,10,A,,,,,,Space,keypress(Space),,,,silence,,,,-- -- --- ------ ------- --------- ----------- --------<br>travelers -------- --- ------- -- ------- ---- -- ------<br>-- --- -------- -------- ---------- ---- ---- ---- ------<br>-- --------- -- ---- -- --- -- --- ------- -- - -----<br>---------- -- -- -- ---- ----- -- ------ -- --- ------<br>-------,209732.70000004768,209730.10000002384,209438.913,209444.89999997616,209455.58,209738.919,,8,travelers
screen,html.Screen,2_3_1_0_1_9,2022-02-15T16:00:45.685Z,,,,,,,,,,,,,,,,,48,,,,,,,,,,,,,,215.18100002384745,,response,,,,10,A,,,,,,Space,keypress(Space),,,,silence,,,,-- -- --- ------ ------- --------- ----------- --------<br>--------- entering --- ------- -- ------- ---- -- ------<br>-- --- -------- -------- ---------- ---- ---- ---- ------<br>-- --------- -- ---- -- --- -- --- ------- -- - -----<br>---------- -- -- -- ---- ----- -- ------ -- --- ------<br>-------,209956.89999997616,209954.10000002384,209722.252,209732.89999997616,209738.919,209972.257,,9,entering
screen,html.Screen,2_3_1_0_1_10,2022-02-15T16:00:45.993Z,,,,,,,,,,,,,,,,,48,,,,,,,,,,,,,,289.8430000238295,,response,,,,10,A,,,,,,Space,keypress(Space),,,,silence,,,,-- -- --- ------ ------- --------- ----------- --------<br>--------- -------- the ------- -- ------- ---- -- ------<br>-- --- -------- -------- ---------- ---- ---- ---- ------<br>-- --------- -- ---- -- --- -- --- ------- -- - -----<br>---------- -- -- -- ---- ----- -- ------ -- --- ------<br>-------,210264.80000007153,210262.10000002384,209955.59,209957.10000002384,209972.257,210272.263,,10,the
screen,html.Screen,2_3_1_0_1_11,2022-02-15T16:00:46.232Z,,,,,,,,,,,,,,,,,48,,,,,,,,,,,,,,228.83700002383557,,response,,,,10,A,,,,,,Space,keypress(Space),,,,silence,,,,-- -- --- ------ ------- --------- ----------- --------<br>--------- -------- --- country -- ------- ---- -- ------<br>-- --- -------- -------- ---------- ---- ---- ---- ------<br>-- --------- -- ---- -- --- -- --- ------- -- - -----<br>---------- -- -- -- ---- ----- -- ------ -- --- ------<br>-------,210503.80000007153,210501.10000002384,210255.596,210264.89999997616,210272.263,210506.151,,11,country
screen,html.Screen,2_3_1_0_1_12,2022-02-15T16:00:46.552Z,,,,,,,,,,,,,,,,,48,,,,,,,,,,,,,,314.8489999999874,,response,,,,10,A,,,,,,Space,keypress(Space),,,,silence,,,,-- -- --- ------ ------- --------- ----------- --------<br>--------- -------- --- ------- to ------- ---- -- ------<br>-- --- -------- -------- ---------- ---- ---- ---- ------<br>-- --------- -- ---- -- --- -- --- ------- -- - -----<br>---------- -- -- -- ---- ----- -- ------ -- --- ------<br>-------,210823.89999997616,210821,210489.484,210504,210506.151,210839.491,,12,to
screen,html.Screen,2_3_1_0_1_13,2022-02-15T16:00:46.811Z,,,,,,,,,,,,,,,,,48,,,,,,,,,,,,,,240.60900002383278,,response,,,,10,A,,,,,,Space,keypress(Space),,,,silence,,,,-- -- --- ------ ------- --------- ----------- --------<br>--------- -------- --- ------- -- declare ---- -- ------<br>-- --- -------- -------- ---------- ---- ---- ---- ------<br>-- --------- -- ---- -- --- -- --- ------- -- - -----<br>---------- -- -- -- ---- ----- -- ------ -- --- ------<br>-------,211082.70000004768,211080.10000002384,210822.824,210824.10000002384,210839.491,211089.496,,13,declare
screen,html.Screen,2_3_1_0_1_14,2022-02-15T16:00:47.094Z,,,,,,,,,,,,,,,,,48,,,,,,,,,,,,,,274.4039999761444,,response,,,,10,A,,,,,,Space,keypress(Space),,,,silence,,,,-- -- --- ------ ------- --------- ----------- --------<br>--------- -------- --- ------- -- ------- cash -- ------<br>-- --- -------- -------- ---------- ---- ---- ---- ------<br>-- --------- -- ---- -- --- -- --- ------- -- - -----<br>---------- -- -- -- ---- ----- -- ------ -- --- ------<br>-------,211366.60000002384,211363.89999997616,211072.829,211082.89999997616,211089.496,211372.835,,14,cash
screen,html.Screen,2_3_1_0_1_15,2022-02-15T16:00:47.438Z,,,,,,,,,,,,,,,,,48,,,,,,,,,,,,,,335.16500000000815,,response,,,,10,A,,,,,,Space,keypress(Space),,,,silence,,,,-- -- --- ------ ------- --------- ----------- --------<br>--------- -------- --- ------- -- ------- ---- in ------<br>-- --- -------- -------- ---------- ---- ---- ---- ------<br>-- --------- -- ---- -- --- -- --- ------- -- - -----<br>---------- -- -- -- ---- ----- -- ------ -- --- ------<br>-------,211710.70000004768,211708,211356.168,211366.70000004768,211372.835,211722.842,,15,in
screen,html.Screen,2_3_1_0_1_16,2022-02-15T16:00:47.699Z,,,,,,,,,,,,,,,,,48,,,,,,,,,,,,,,246.1579999999958,,response,,,,10,A,,,,,,Space,keypress(Space),,,,silence,,,,-- -- --- ------ ------- --------- ----------- --------<br>--------- -------- --- ------- -- ------- ---- -- excess<br>-- --- -------- -------- ---------- ---- ---- ---- ------<br>-- --------- -- ---- -- --- -- --- ------- -- - -----<br>---------- -- -- -- ---- ----- -- ------ -- --- ------<br>-------,211971.60000002384,211969,211706.175,211710.80000007153,211722.842,211972.847,,16,excess
screen,html.Screen,2_3_1_0_1_17,2022-02-15T16:00:48.040Z,,,,,,,,,,,,,,,,,48,,,,,,,,,,,,,,336.9530000715167,,response,,,,10,A,,,,,,Space,keypress(Space),,,,silence,,,,-- -- --- ------ ------- --------- ----------- --------<br>--------- -------- --- ------- -- ------- ---- -- ------<br>of --- -------- -------- ---------- ---- ---- ---- ------<br>-- --------- -- ---- -- --- -- --- ------- -- - -----<br>---------- -- -- -- ---- ----- -- ------ -- --- ------<br>-------,212312.60000002384,212309.80000007153,211956.18,211971.80000007153,211972.847,212322.854,,17,of
screen,html.Screen,2_3_1_0_1_18,2022-02-15T16:00:48.311Z,,,,,,,,,,,,,,,,,48,,,,,,,,,,,,,,258.04599997616606,,response,,,,10,A,,,,,,Space,keypress(Space),,,,silence,,,,-- -- --- ------ ------- --------- ----------- --------<br>--------- -------- --- ------- -- ------- ---- -- ------<br>-- ten -------- -------- ---------- ---- ---- ---- ------<br>-- --------- -- ---- -- --- -- --- ------- -- - -----<br>---------- -- -- -- ---- ----- -- ------ -- --- ------<br>-------,212583.60000002384,212580.89999997616,212306.187,212312.70000004768,212322.854,212589.526,,18,ten
screen,html.Screen,2_3_1_0_1_19,2022-02-15T16:00:48.648Z,,,,,,,,,,,,,,,,,48,,,,,,,,,,,,,,328.274000071513,,response,,,,10,A,,,,,,Space,keypress(Space),,,,silence,,,,-- -- --- ------ ------- --------- ----------- --------<br>--------- -------- --- ------- -- ------- ---- -- ------<br>-- --- thousand -------- ---------- ---- ---- ---- ------<br>-- --------- -- ---- -- --- -- --- ------- -- - -----<br>---------- -- -- -- ---- ----- -- ------ -- --- ------<br>-------,212920,212917.80000007153,212572.859,212583.70000004768,212589.526,212922.866,,19,thousand
screen,html.Screen,2_3_1_0_1_20,2022-02-15T16:00:48.984Z,,,,,,,,,,,,,,,,,48,,,,,,,,,,,,,,331.03399997614906,,response,,,,10,A,,,,,,Space,keypress(Space),,,,silence,,,,-- -- --- ------ ------- --------- ----------- --------<br>--------- -------- --- ------- -- ------- ---- -- ------<br>-- --- -------- dollars. ---------- ---- ---- ---- ------<br>-- --------- -- ---- -- --- -- --- ------- -- - -----<br>---------- -- -- -- ---- ----- -- ------ -- --- ------<br>-------,213256.70000004768,213253.89999997616,212906.199,212920.10000002384,212922.866,213272.873,,20,dollars.
screen,html.Screen,2_3_1_0_1_21,2022-02-15T16:00:49.266Z,,,,,,,,,,,,,,,,,48,,,,,,,,,,,,,,263.0269999761658,,response,,,,10,A,,,,,,Space,keypress(Space),,,,silence,,,,-- -- --- ------ ------- --------- ----------- --------<br>--------- -------- --- ------- -- ------- ---- -- ------<br>-- --- -------- -------- Concealing ---- ---- ---- ------<br>-- --------- -- ---- -- --- -- --- ------- -- - -----<br>---------- -- -- -- ---- ----- -- ------ -- --- ------<br>-------,213538.70000004768,213535.89999997616,213256.206,213256.80000007153,213272.873,213539.545,,21,Concealing
screen,html.Screen,2_3_1_0_1_22,2022-02-15T16:00:49.494Z,,,,,,,,,,,,,,,,,48,,,,,,,,,,,,,,224.35499997614534,,response,,,,10,A,,,,,,Space,keypress(Space),,,,silence,,,,-- -- --- ------ ------- --------- ----------- --------<br>--------- -------- --- ------- -- ------- ---- -- ------<br>-- --- -------- -------- ---------- more ---- ---- ------<br>-- --------- -- ---- -- --- -- --- ------- -- - -----<br>---------- -- -- -- ---- ----- -- ------ -- --- ------<br>-------,213766.70000004768,213763.89999997616,213522.878,213538.80000007153,213539.545,213772.883,,22,more
screen,html.Screen,2_3_1_0_1_23,2022-02-15T16:00:49.752Z,,,,,,,,,,,,,,,,,48,,,,,,,,,,,,,,249.0169999761565,,response,,,,10,A,,,,,,Space,keypress(Space),,,,silence,,,,-- -- --- ------ ------- --------- ----------- --------<br>--------- -------- --- ------- -- ------- ---- -- ------<br>-- --- -------- -------- ---------- ---- than ---- ------<br>-- --------- -- ---- -- --- -- --- ------- -- - -----<br>---------- -- -- -- ---- ----- -- ------ -- --- ------<br>-------,214024.70000004768,214021.89999997616,213756.216,213766.80000007153,213772.883,214039.555,,23,than
screen,html.Screen,2_3_1_0_1_24,2022-02-15T16:00:49.928Z,,,,,,,,,,,,,,,,,48,,,,,,,,,,,,,,159.1450000476907,,response,,,,10,A,,,,,,Space,keypress(Space),,,,silence,,,,-- -- --- ------ ------- --------- ----------- --------<br>--------- -------- --- ------- -- ------- ---- -- ------<br>-- --- -------- -------- ---------- ---- ---- that ------<br>-- --------- -- ---- -- --- -- --- ------- -- - -----<br>---------- -- -- -- ---- ----- -- ------ -- --- ------<br>-------,214200.60000002384,214198.70000004768,214022.888,214024.89999997616,214039.555,214206.225,,24,that
screen,html.Screen,2_3_1_0_1_25,2022-02-15T16:00:50.266Z,,,,,,,,,,,,,,,,,48,,,,,,,,,,,,,,329.6749999761523,,response,,,,10,A,,,,,,Space,keypress(Space),,,,silence,,,,-- -- --- ------ ------- --------- ----------- --------<br>--------- -------- --- ------- -- ------- ---- -- ------<br>-- --- -------- -------- ---------- ---- ---- ---- amount<br>-- --------- -- ---- -- --- -- --- ------- -- - -----<br>---------- -- -- -- ---- ----- -- ------ -- --- ------<br>-------,214538.60000002384,214535.89999997616,214189.558,214200.70000004768,214206.225,214539.565,,25,amount
screen,html.Screen,2_3_1_0_1_26,2022-02-15T16:00:50.530Z,,,,,,,,,,,,,,,,,48,,,,,,,,,,,,,,260.3349999761558,,response,,,,10,A,,,,,,Space,keypress(Space),,,,silence,,,,-- -- --- ------ ------- --------- ----------- --------<br>--------- -------- --- ------- -- ------- ---- -- ------<br>-- --- -------- -------- ---------- ---- ---- ---- ------<br>to --------- -- ---- -- --- -- --- ------- -- - -----<br>---------- -- -- -- ---- ----- -- ------ -- --- ------<br>-------,214802.5,214799.89999997616,214522.898,214538.70000004768,214539.565,214806.237,,26,to
screen,html.Screen,2_3_1_0_1_27,2022-02-15T16:00:50.750Z,,,,,,,,,,,,,,,,,48,,,,,,,,,,,,,,213.66299997616443,,response,,,,10,A,,,,,,Space,keypress(Space),,,,silence,,,,-- -- --- ------ ------- --------- ----------- --------<br>--------- -------- --- ------- -- ------- ---- -- ------<br>-- --- -------- -------- ---------- ---- ---- ---- ------<br>-- transport -- ---- -- --- -- --- ------- -- - -----<br>---------- -- -- -- ---- ----- -- ------ -- --- ------<br>-------,215022.60000002384,215019.89999997616,214789.57,214802.70000004768,214806.237,215039.575,,27,transport
screen,html.Screen,2_3_1_0_1_28,2022-02-15T16:00:51.016Z,,,,,,,,,,,,,,,,,48,,,,,,,,,,,,,,246.22500007151393,,response,,,,10,A,,,,,,Space,keypress(Space),,,,silence,,,,-- -- --- ------ ------- --------- ----------- --------<br>--------- -------- --- ------- -- ------- ---- -- ------<br>-- --- -------- -------- ---------- ---- ---- ---- ------<br>-- --------- it ---- -- --- -- --- ------- -- - -----<br>---------- -- -- -- ---- ----- -- ------ -- --- ------<br>-------,215288.5,215285.80000007153,215022.908,215022.70000004768,215039.575,215289.58,,28,it
screen,html.Screen,2_3_1_0_1_29,2022-02-15T16:00:51.275Z,,,,,,,,,,,,,,,,,48,,,,,,,,,,,,,,254.22000007153838,,response,,,,10,A,,,,,,Space,keypress(Space),,,,silence,,,,-- -- --- ------ ------- --------- ----------- --------<br>--------- -------- --- ------- -- ------- ---- -- ------<br>-- --- -------- -------- ---------- ---- ---- ---- ------<br>-- --------- -- into -- --- -- --- ------- -- - -----<br>---------- -- -- -- ---- ----- -- ------ -- --- ------<br>-------,215547.30000007153,215543.80000007153,215272.913,215288.70000004768,215289.58,215556.252,,29,into
screen,html.Screen,2_3_1_0_1_30,2022-02-15T16:00:51.500Z,,,,,,,,,,,,,,,,,48,,,,,,,,,,,,,,213.44800004767603,,response,,,,10,A,,,,,,Space,keypress(Space),,,,silence,,,,-- -- --- ------ ------- --------- ----------- --------<br>--------- -------- --- ------- -- ------- ---- -- ------<br>-- --- -------- -------- ---------- ---- ---- ---- ------<br>-- --------- -- ---- or --- -- --- ------- -- - -----<br>---------- -- -- -- ---- ----- -- ------ -- --- ------<br>-------,215772.30000007153,215769.70000004768,215539.585,215547.5,215556.252,215789.59,,30,or
screen,html.Screen,2_3_1_0_1_31,2022-02-15T16:00:51.739Z,,,,,,,,,,,,,,,,,48,,,,,,,,,,,,,,219.1100000476872,,response,,,,10,A,,,,,,Space,keypress(Space),,,,silence,,,,-- -- --- ------ ------- --------- ----------- --------<br>--------- -------- --- ------- -- ------- ---- -- ------<br>-- --- -------- -------- ---------- ---- ---- ---- ------<br>-- --------- -- ---- -- out -- --- ------- -- - -----<br>---------- -- -- -- ---- ----- -- ------ -- --- ------<br>-------,216011.39999997616,216008.70000004768,215772.923,215772.5,215789.59,216022.928,,31,out
screen,html.Screen,2_3_1_0_1_32,2022-02-15T16:00:51.921Z,,,,,,,,,,,,,,,,,48,,,,,,,,,,,,,,167.87200007151114,,response,,,,10,A,,,,,,Space,keypress(Space),,,,silence,,,,-- -- --- ------ ------- --------- ----------- --------<br>--------- -------- --- ------- -- ------- ---- -- ------<br>-- --- -------- -------- ---------- ---- ---- ---- ------<br>-- --------- -- ---- -- --- of --- ------- -- - -----<br>---------- -- -- -- ---- ----- -- ------ -- --- ------<br>-------,216193.5,216190.80000007153,216006.261,216011.5,216022.928,216206.265,,32,of
screen,html.Screen,2_3_1_0_1_33,2022-02-15T16:00:52.117Z,,,,,,,,,,,,,,,,,48,,,,,,,,,,,,,,180.43500004766975,,response,,,,10,A,,,,,,Space,keypress(Space),,,,silence,,,,-- -- --- ------ ------- --------- ----------- --------<br>--------- -------- --- ------- -- ------- ---- -- ------<br>-- --- -------- -------- ---------- ---- ---- ---- ------<br>-- --------- -- ---- -- --- -- the ------- -- - -----<br>---------- -- -- -- ---- ----- -- ------ -- --- ------<br>-------,216389.5,216386.70000004768,216189.598,216193.70000004768,216206.265,216406.269,,33,the
screen,html.Screen,2_3_1_0_1_34,2022-02-15T16:00:52.321Z,,,,,,,,,,,,,,,,,48,,,,,,,,,,,,,,184.53100007152534,,response,,,,10,A,,,,,,Space,keypress(Space),,,,silence,,,,-- -- --- ------ ------- --------- ----------- --------<br>--------- -------- --- ------- -- ------- ---- -- ------<br>-- --- -------- -------- ---------- ---- ---- ---- ------<br>-- --------- -- ---- -- --- -- --- country -- - -----<br>---------- -- -- -- ---- ----- -- ------ -- --- ------<br>-------,216593.60000002384,216590.80000007153,216389.602,216389.70000004768,216406.269,216606.273,,34,country
screen,html.Screen,2_3_1_0_1_35,2022-02-15T16:00:52.562Z,,,,,,,,,,,,,,,,,48,,,,,,,,,,,,,,225.52700007153908,,response,,,,10,A,,,,,,Space,keypress(Space),,,,silence,,,,-- -- --- ------ ------- --------- ----------- --------<br>--------- -------- --- ------- -- ------- ---- -- ------<br>-- --- -------- -------- ---------- ---- ---- ---- ------<br>-- --------- -- ---- -- --- -- --- ------- is - -----<br>---------- -- -- -- ---- ----- -- ------ -- --- ------<br>-------,216834.5,216831.80000007153,216589.606,216593.80000007153,216606.273,216839.611,,35,is
screen,html.Screen,2_3_1_0_1_36,2022-02-15T16:00:52.748Z,,,,,,,,,,,,,,,,,48,,,,,,,,,,,,,,177.98900002383743,,response,,,,10,A,,,,,,Space,keypress(Space),,,,silence,,,,-- -- --- ------ ------- --------- ----------- --------<br>--------- -------- --- ------- -- ------- ---- -- ------<br>-- --- -------- -------- ---------- ---- ---- ---- ------<br>-- --------- -- ---- -- --- -- --- ------- -- a -----<br>---------- -- -- -- ---- ----- -- ------ -- --- ------<br>-------,217020.20000004768,217017.60000002384,216822.944,216834.5,216839.611,217022.948,,36,a
screen,html.Screen,2_3_1_0_1_37,2022-02-15T16:00:52.954Z,,,,,,,,,,,,,,,,,48,,,,,,,,,,,,,,200.75200004767976,,response,,,,10,A,,,,,,Space,keypress(Space),,,,silence,,,,-- -- --- ------ ------- --------- ----------- --------<br>--------- -------- --- ------- -- ------- ---- -- ------<br>-- --- -------- -------- ---------- ---- ---- ---- ------<br>-- --------- -- ---- -- --- -- --- ------- -- - crime<br>---------- -- -- -- ---- ----- -- ------ -- --- ------<br>-------,217226.39999997616,217223.70000004768,217006.281,217020.39999997616,217022.948,217239.619,,37,crime
screen,html.Screen,2_3_1_0_1_38,2022-02-15T16:00:53.173Z,,,,,,,,,,,,,,,,,48,,,,,,,,,,,,,,203.08100004767766,,response,,,,10,A,,,,,,Space,keypress(Space),,,,silence,,,,-- -- --- ------ ------- --------- ----------- --------<br>--------- -------- --- ------- -- ------- ---- -- ------<br>-- --- -------- -------- ---------- ---- ---- ---- ------<br>-- --------- -- ---- -- --- -- --- ------- -- - -----<br>punishable -- -- -- ---- ----- -- ------ -- --- ------<br>-------,217446,217442.70000004768,217222.952,217226.70000004768,217239.619,217456.29,,38,punishable
screen,html.Screen,2_3_1_0_1_39,2022-02-15T16:00:53.429Z,,,,,,,,,,,,,,,,,48,,,,,,,,,,,,,,242.41000004767557,,response,,,,10,A,,,,,,Space,keypress(Space),,,,silence,,,,-- -- --- ------ ------- --------- ----------- --------<br>--------- -------- --- ------- -- ------- ---- -- ------<br>-- --- -------- -------- ---------- ---- ---- ---- ------<br>-- --------- -- ---- -- --- -- --- ------- -- - -----<br>---------- by -- -- ---- ----- -- ------ -- --- ------<br>-------,217701.39999997616,217698.70000004768,217439.623,217446.10000002384,217456.29,217706.295,,39,by
screen,html.Screen,2_3_1_0_1_40,2022-02-15T16:00:53.673Z,,,,,,,,,,,,,,,,,48,,,,,,,,,,,,,,236.4050000476709,,response,,,,10,A,,,,,,Space,keypress(Space),,,,silence,,,,-- -- --- ------ ------- --------- ----------- --------<br>--------- -------- --- ------- -- ------- ---- -- ------<br>-- --- -------- -------- ---------- ---- ---- ---- ------<br>-- --------- -- ---- -- --- -- --- ------- -- - -----<br>---------- -- up -- ---- ----- -- ------ -- --- ------<br>-------,217945.39999997616,217942.70000004768,217689.628,217701.5,217706.295,217956.3,,40,up
screen,html.Screen,2_3_1_0_1_41,2022-02-15T16:00:53.900Z,,,,,,,,,,,,,,,,,48,,,,,,,,,,,,,,213.40000004769536,,response,,,,10,A,,,,,,Space,keypress(Space),,,,silence,,,,-- -- --- ------ ------- --------- ----------- --------<br>--------- -------- --- ------- -- ------- ---- -- ------<br>-- --- -------- -------- ---------- ---- ---- ---- ------<br>-- --------- -- ---- -- --- -- --- ------- -- - -----<br>---------- -- -- to ---- ----- -- ------ -- --- ------<br>-------,218172.39999997616,218169.70000004768,217939.633,217945.5,217956.3,218189.638,,41,to
screen,html.Screen,2_3_1_0_1_42,2022-02-15T16:00:54.130Z,,,,,,,,,,,,,,,,,48,,,,,,,,,,,,,,209.8619999999937,,response,,,,10,A,,,,,,Space,keypress(Space),,,,silence,,,,-- -- --- ------ ------- --------- ----------- --------<br>--------- -------- --- ------- -- ------- ---- -- ------<br>-- --- -------- -------- ---------- ---- ---- ---- ------<br>-- --------- -- ---- -- --- -- --- ------- -- - -----<br>---------- -- -- -- five ----- -- ------ -- --- ------<br>-------,218402.20000004768,218399.5,218172.971,218172.60000002384,218189.638,218406.309,,42,five
