sender,sender_type,sender_id,timestamp,meta,,Blues,Classical,Country,Dance,Electronic,Folk,Gospel,Hip-Hop,Jazz,Latin,Musical/Film,New-age,Pop,Prolific_id,Provo_ID,R&B,Rap,Reggae,Religious,Rock,Soul,Swing,Traditional,age,artist_name,correct,correctResponse,distraction,duration,education,ended_on,familiarity,gender,headphone_check_performance,item,list,music_frequency,offensiveness,pleasantness,position_correct,preference,response,response_action,snippet_file,song_name,song_rating,sound,stimulus_1,stimulus_2,stimulus_3,text,time_commit,time_end,time_render,time_run,time_show,time_switch,url,word,word_ID
Prolific ID,html.Form,0,2022-02-15T16:44:31.052Z,"{""labjs_version"":""20.2.2"",""labjs_build"":{""flavor"":""production"",""commit"":""a25486e0c714a0ae2ce03ff94b7bb6896854dcfa""},""location"":""https://run.pavlovia.org/mvasilev/prolific2_music_b/"",""userAgent"":""Mozilla/5.0 (Windows NT 10.0; Win64; x64) AppleWebKit/537.36 (KHTML, like Gecko) Chrome/98.0.4758.82 Safari/537.36"",""platform"":""Win32"",""language"":""en-GB"",""locale"":""en-GB"",""timeZone"":""Europe/London"",""timezoneOffset"":0,""screen_width"":1536,""screen_height"":864,""scroll_width"":1536,""scroll_height"":706,""window_innerWidth"":1536,""window_innerHeight"":754,""devicePixelRatio"":1.25}",,,,,,,,,,,,,,,61f2ad60a09e72f23cbaf86d,,,,,,,,,,,,,,,4603.936,,form submission,,,,,,,,,,,,,,,,,,,,,11249.800000011921,11249.5,6628.867,6632.300000011921,6645.564,11260.128,{},,
Introduction,html.Screen,1_0,2022-02-15T16:44:38.885Z,,,,,,,,,,,,,,,,,,,,,,,,,,,,,,,7820.072000047683,,response,,,,,,,,,,,continue,click button,,,,,,,,,19082.400000035763,19080.200000047684,11243.474,11250,11260.128,19089.874,,,
Volume calibration,html.Screen,1_1,2022-02-15T16:44:59.093Z,,,,,,,,,,,,,,,,,,,,,,,,,,,,,,,20198.126,,response,,,,,,,,,,,continue,click button,,,,,,,,,39290.5,39288,19073.26,19082.5,19089.874,39297.45,,,
Task instructions,html.Screen,1_2,2022-02-15T16:45:10.492Z,,,,,,,,,,,,,,,,,,,,,,,,,,,,,,,11390.750000047687,,response,,,,,,,,,,,continue,click button,,,,,,,,,50689.10000002384,50688.200000047684,39280.725,39290.5,39297.45,50692.068,,,
Sounds,html.Screen,1_3_0_0,2022-02-15T16:45:14.728Z,,,,,,,,,,,,,,,,,,,,,,,,,,,,,,,4248.123,,timeout,,,,,,,,,1,,,,,,,,S,I,O,,54925.200000047684,54923.525,50675.486,50689.200000047684,50692.068,54940.191,,,
Judgement,html.Screen,1_3_0_1,2022-02-15T16:45:17.092Z,,,,,,,,,,,,,,,,,,,,,,,,,,,,true,1,,2347.709000035764,,response,,,,,,,,,1,,1,click #choice-1,,,,,S,I,O,,57288.80000001192,57287.90000003576,54923.525,54925.30000001192,54940.191,57289.055,,,
Trial,flow.Sequence,1_3_0,2022-02-15T16:45:17.092Z,,,,,,,,,,,,,,,,,,,,,,,,,,,,,,,6595.8320000357635,,completion,,,,,,,,,1,,,,,,,,S,I,O,,57289,57287.90000003576,50675.486,50689.200000047684,50692.068,57289.055,,,
Sounds,html.Screen,1_3_1_0,2022-02-15T16:45:21.324Z,,,,,,,,,,,,,,,,,,,,,,,,,,,,,,,4248.095999999998,,timeout,,,,,,,,,3,,,,,,,,I,O,S,,61521.5,61520.5,57272.453,57289.30000001192,57289.055,61537.151,,,
Judgement,html.Screen,1_3_1_1,2022-02-15T16:45:21.955Z,,,,,,,,,,,,,,,,,,,,,,,,,,,,true,3,,614.9490000238438,,response,,,,,,,,,3,,3,click #choice-3,,,,,I,O,S,,62153.10000002384,62152.10000002384,61520.5,61521.5,61537.151,62176.522,,,
Trial,flow.Sequence,1_3_1,2022-02-15T16:45:21.956Z,,,,,,,,,,,,,,,,,,,,,,,,,,,,,,,4863.045000023842,,completion,,,,,,,,,3,,,,,,,,I,O,S,,62153.30000001192,62152.10000002384,57272.453,57289.30000001192,57289.055,62176.522,,,
Sounds,html.Screen,1_3_2_0,2022-02-15T16:45:26.205Z,,,,,,,,,,,,,,,,,,,,,,,,,,,,,,,4241.717000000004,,timeout,,,,,,,,,2,,,,,,,,I,S,O,,66402.60000002384,66401.602,62136.939,62153.40000003576,62176.522,66418.239,,,
Judgement,html.Screen,1_3_2_1,2022-02-15T16:45:26.635Z,,,,,,,,,,,,,,,,,,,,,,,,,,,,true,2,,413.7609999999986,,response,,,,,,,,,2,,2,click #choice-2,,,,,I,S,O,,66833,66832,66401.602,66402.60000002384,66418.239,66834.705,,,
Trial,flow.Sequence,1_3_2,2022-02-15T16:45:26.635Z,,,,,,,,,,,,,,,,,,,,,,,,,,,,,,,4655.478000000003,,completion,,,,,,,,,2,,,,,,,,I,S,O,,66833.10000002384,66832,62136.939,62153.30000001192,62176.522,66834.705,,,
Sounds,html.Screen,1_3_3_0,2022-02-15T16:45:30.869Z,,,,,,,,,,,,,,,,,,,,,,,,,,,,,,,4248.080000000002,,timeout,,,,,,,,,2,,,,,,,,O,S,I,,71067,71066.152,66818.086,66833.20000004768,66834.705,71082.785,,,
Judgement,html.Screen,1_3_3_1,2022-02-15T16:45:31.251Z,,,,,,,,,,,,,,,,,,,,,,,,,,,,true,2,,365.2149999999965,,response,,,,,,,,,2,,2,click #choice-2,,,,,O,S,I,,71448.90000003576,71448,71066.152,71067.20000004768,71082.785,71476.663,,,
Trial,flow.Sequence,1_3_3,2022-02-15T16:45:31.251Z,,,,,,,,,,,,,,,,,,,,,,,,,,,,,,,4613.294999999998,,completion,,,,,,,,,2,,,,,,,,O,S,I,,71449,71448,66818.086,66833.20000004768,66834.705,71476.663,,,
Sounds,html.Screen,1_3_4_0,2022-02-15T16:45:35.517Z,,,,,,,,,,,,,,,,,,,,,,,,,,,,,,,4254.0610000000015,,timeout,,,,,,,,,1,,,,,,,,S,O,I,,75715,75714.036,71432.64,71449.10000002384,71476.663,75730.724,,,
Judgement,html.Screen,1_3_4_1,2022-02-15T16:45:35.963Z,,,,,,,,,,,,,,,,,,,,,,,,,,,,true,1,,429.3760000238399,,response,,,,,,,,,1,,1,click #choice-1,,,,,S,O,I,,76161,76160.10000002384,75714.036,75715,75730.724,76163.778,,,
Trial,flow.Sequence,1_3_4,2022-02-15T16:45:35.963Z,,,,,,,,,,,,,,,,,,,,,,,,,,,,,,,4683.437000023841,,completion,,,,,,,,,1,,,,,,,,S,O,I,,76161.10000002384,76160.10000002384,71432.64,71449.10000002384,71476.663,76163.778,,,
Sounds,html.Screen,1_3_5_0,2022-02-15T16:45:40.198Z,,,,,,,,,,,,,,,,,,,,,,,,,,,,,,,4248.0639999999985,,timeout,,,,,,,,,3,,,,,,,,O,I,S,,80396.10000002384,80395.207,76147.126,76161.10000002384,76163.778,80411.842,,,
Judgement,html.Screen,1_3_5_1,2022-02-15T16:45:40.603Z,,,,,,,,,,,,,,,,,,,,,,,,,,,,true,3,,388.25800002383767,,response,,,,,,,,,3,,3,click #choice-3,,,,,O,I,S,,80801.20000004768,80800.10000002384,80395.207,80396.20000004768,80411.842,80811.794,,,
Trial,flow.Sequence,1_3_5,2022-02-15T16:45:40.604Z,,,,,,,,,,,,,,,,,,,,,,,,,,,,,,,4636.322000023836,,completion,,,,,,,,,3,,,,,,,,O,I,S,,80801.30000001192,80800.10000002384,76147.126,76161.10000002384,76163.778,80811.794,,,
Task,flow.Loop,1_3,2022-02-15T16:45:40.606Z,,,,,,,,,,,,,,,,,,,,,,,,,,,,,,,30108.032000023843,,completion,,,1,,,,,,,,,,,,,,,,,,80804.20000004768,80800.10000002384,50675.486,50689.10000002384,50692.068,80811.794,,,
Trap,html.Screen,1_4,2022-02-15T16:45:40.607Z,,,,,,,,,,,,,,,,,,,,,,,,,,,,,,,NaN,,skipped,,,,,,,,,,,,,,,,,,,,,80804.90000003576,80800.10000002384,,80804.80000001192,,80811.794,,,
Thanks,html.Screen,1_5,2022-02-15T16:45:43.251Z,,,,,,,,,,,,,,,,,,,,,,,,,,,,,,,2636.3060000238474,,response,,,,,,,,,,,continue,click button,,,,,,,,,83449,83448.10000002384,80794.974,80805,80811.794,86708.922,,,
Headphone screening,flow.Sequence,1,2022-02-15T16:45:43.251Z,,,,,,,,,,,,,,,,,,,,,,,,,,,,,,,72187.97200002384,,completion,,,,,,,,,,,,,,,,,,,,,83449.10000002384,83448.10000002384,11243.474,11249.900000035763,11260.128,86708.922,,,
Instructions,html.Page,2_0,2022-02-15T16:45:56.012Z,,,,,,,,,,,,,,,,,,,,,,,,,,,,,,,9500.178000023836,,form submission,,,,,,,,,,,,,,,,,,,,,96209.30000001192,96209.10000002384,86675.726,86707.10000002384,86708.922,96221.247,,,
Holding screen,html.Screen,2_1_0_0,2022-02-15T16:46:06.003Z,,,,,,,,,,,,,,,,,,,,,,,,,,,,,,,9995.43699999999,,timeout,,,,,,,,,,,,,,,,,,,,,106200.80000001192,106200.068,96204.608,96209.40000003576,96221.247,106216.684,,,
screen,html.Screen,2_1_0_1_0,2022-02-15T16:46:07.384Z,,,,,,,,,,,,,,,,,53,,,,,,,,,,,,,,1363.216000035769,,response,,,,99,,,,,,,Space,keypress(Space),,,,,,,,When -- ----- -- ------ - ------- --- ----------<br>------------- ------ ------ ---- ---- ------- ----- -- ----<br>-------- ------- -- ---------- --- - --- ----- ----- ----<br>---- --- --- ----- --- ---- ---- ------- ----- ---- -------<br>--- --- -- ----- -- --- ---- -- --- ---- -- ------ ------<br>--- ----- -- ----,107581.80000001192,107579.90000003576,106200.068,106200.90000003576,106216.684,107582.665,,0,When
screen,html.Screen,2_1_0_1_1,2022-02-15T16:46:08.019Z,,,,,,,,,,,,,,,,,53,,,,,,,,,,,,,,633.9350000238483,,response,,,,99,,,,,,,Space,keypress(Space),,,,,,,,---- it ----- -- ------ - ------- --- ----------<br>------------- ------ ------ ---- ---- ------- ----- -- ----<br>-------- ------- -- ---------- --- - --- ----- ----- ----<br>---- --- --- ----- --- ---- ---- ------- ----- ---- -------<br>--- --- -- ----- -- --- ---- -- --- ---- -- ------ ------<br>--- ----- -- ----,108217.10000002384,108216.60000002384,107566.057,107582,107582.665,108232.36,,1,it
screen,html.Screen,2_1_0_1_2,2022-02-15T16:46:08.674Z,,,,,,,,,,,,,,,,,53,,,,,,,,,,,,,,638.3400000476831,,response,,,,99,,,,,,,Space,keypress(Space),,,,,,,,---- -- comes -- ------ - ------- --- ----------<br>------------- ------ ------ ---- ---- ------- ----- -- ----<br>-------- ------- -- ---------- --- - --- ----- ----- ----<br>---- --- --- ----- --- ---- ---- ------- ----- ---- -------<br>--- --- -- ----- -- --- ---- -- --- ---- -- ------ ------<br>--- ----- -- ----,108871.40000003576,108870.70000004768,108215.739,108217.10000002384,108232.36,108882.066,,2,comes
screen,html.Screen,2_1_0_1_3,2022-02-15T16:46:08.736Z,,,,,,,,,,,,,,,,,53,,,,,,,,,,,,,,51.134000047677546,,response,,,,99,,,,,,,Space,keypress(Space),,,,,,,,---- -- ----- to ------ - ------- --- ----------<br>------------- ------ ------ ---- ---- ------- ----- -- ----<br>-------- ------- -- ---------- --- - --- ----- ----- ----<br>---- --- --- ----- --- ---- ---- ------- ----- ---- -------<br>--- --- -- ----- -- --- ---- -- --- ---- -- ------ ------<br>--- ----- -- ----,108933.70000004768,108933.20000004768,108865.456,108871.5,108882.066,108948.763,,3,to
screen,html.Screen,2_1_0_1_4,2022-02-15T16:46:09.882Z,,,,,,,,,,,,,,,,,53,,,,,,,,,,,,,,1130.5370000119146,,response,,,,99,,,,,,,Space,keypress(Space),,,,,,,,---- -- ----- -- having - ------- --- ----------<br>------------- ------ ------ ---- ---- ------- ----- -- ----<br>-------- ------- -- ---------- --- - --- ----- ----- ----<br>---- --- --- ----- --- ---- ---- ------- ----- ---- -------<br>--- --- -- ----- -- --- ---- -- --- ---- -- ------ ------<br>--- ----- -- ----,110079.90000003576,110079.30000001192,108932.112,108933.80000001192,108948.763,110081.571,,4,having
screen,html.Screen,2_1_0_1_5,2022-02-15T16:46:10.468Z,,,,,,,,,,,,,,,,,53,,,,,,,,,,,,,,583.3290000357665,,response,,,,99,,,,,,,Space,keypress(Space),,,,,,,,---- -- ----- -- ------ a ------- --- ----------<br>------------- ------ ------ ---- ---- ------- ----- -- ----<br>-------- ------- -- ---------- --- - --- ----- ----- ----<br>---- --- --- ----- --- ---- ---- ------- ----- ---- -------<br>--- --- -- ----- -- --- ---- -- --- ---- -- ------ ------<br>--- ----- -- ----,110665.40000003576,110664.90000003576,110064.983,110080,110081.571,110681.429,,5,a
screen,html.Screen,2_1_0_1_6,2022-02-15T16:46:11.038Z,,,,,,,,,,,,,,,,,53,,,,,,,,,,,,,,553.3710000119172,,response,,,,99,,,,,,,Space,keypress(Space),,,,,,,,---- -- ----- -- ------ - lasting --- ----------<br>------------- ------ ------ ---- ---- ------- ----- -- ----<br>-------- ------- -- ---------- --- - --- ----- ----- ----<br>---- --- --- ----- --- ---- ---- ------- ----- ---- -------<br>--- --- -- ----- -- --- ---- -- --- ---- -- ------ ------<br>--- ----- -- ----,111235.30000001192,111234.80000001192,110664.76,110665.5,110681.429,111247.682,,6,lasting
screen,html.Screen,2_1_0_1_7,2022-02-15T16:46:11.661Z,,,,,,,,,,,,,,,,,53,,,,,,,,,,,,,,610.018000047683,,response,,,,99,,,,,,,Space,keypress(Space),,,,,,,,---- -- ----- -- ------ - ------- and ----------<br>------------- ------ ------ ---- ---- ------- ----- -- ----<br>-------- ------- -- ---------- --- - --- ----- ----- ----<br>---- --- --- ----- --- ---- ---- ------- ----- ---- -------<br>--- --- -- ----- -- --- ---- -- --- ---- -- ------ ------<br>--- ----- -- ----,111858.40000003576,111857.70000004768,111231.117,111235.40000003576,111247.682,111864.112,,7,and
screen,html.Screen,2_1_0_1_8,2022-02-15T16:46:12.183Z,,,,,,,,,,,,,,,,,53,,,,,,,,,,,,,,516.2880000357691,,response,,,,99,,,,,,,Space,keypress(Space),,,,,,,,---- -- ----- -- ------ - ------- --- fulfilling<br>------------- ------ ------ ---- ---- ------- ----- -- ----<br>-------- ------- -- ---------- --- - --- ----- ----- ----<br>---- --- --- ----- --- ---- ---- ------- ----- ---- -------<br>--- --- -- ----- -- --- ---- -- --- ---- -- ------ ------<br>--- ----- -- ----,112381.10000002384,112380.40000003576,111847.566,111858.40000003576,111864.112,112397.267,,8,fulfilling
screen,html.Screen,2_1_0_1_9,2022-02-15T16:46:12.767Z,,,,,,,,,,,,,,,,,53,,,,,,,,,,,,,,567.0330000119138,,response,,,,99,,,,,,,Space,keypress(Space),,,,,,,,"---- -- ----- -- ------ - ------- --- ----------<br>relationship, ------ ------ ---- ---- ------- ----- -- ----<br>-------- ------- -- ---------- --- - --- ----- ----- ----<br>---- --- --- ----- --- ---- ---- ------- ----- ---- -------<br>--- --- -- ----- -- --- ---- -- --- ---- -- ------ ------<br>--- ----- -- ----",112964.90000003576,112964.30000001192,112380.556,112381.10000002384,112397.267,112980.266,,9,"relationship,"
screen,html.Screen,2_1_0_1_10,2022-02-15T16:46:13.388Z,,,,,,,,,,,,,,,,,53,,,,,,,,,,,,,,604.4340000476805,,response,,,,99,,,,,,,Space,keypress(Space),,,,,,,,---- -- ----- -- ------ - ------- --- ----------<br>------------- common ------ ---- ---- ------- ----- -- ----<br>-------- ------- -- ---------- --- - --- ----- ----- ----<br>---- --- --- ----- --- ---- ---- ------- ----- ---- -------<br>--- --- -- ----- -- --- ---- -- --- ---- -- ------ ------<br>--- ----- -- ----,113585.20000004768,113584.70000004768,112963.673,112964.90000003576,112980.266,113596.626,,10,common
screen,html.Screen,2_1_0_1_11,2022-02-15T16:46:13.896Z,,,,,,,,,,,,,,,,,53,,,,,,,,,,,,,,496.6740000119171,,response,,,,99,,,,,,,Space,keypress(Space),,,,,,,,---- -- ----- -- ------ - ------- --- ----------<br>------------- ------ wisdom ---- ---- ------- ----- -- ----<br>-------- ------- -- ---------- --- - --- ----- ----- ----<br>---- --- --- ----- --- ---- ---- ------- ----- ---- -------<br>--- --- -- ----- -- --- ---- -- --- ---- -- ------ ------<br>--- ----- -- ----,114093.80000001192,114093.30000001192,113580.045,113585.40000003576,113596.626,114096.352,,11,wisdom
screen,html.Screen,2_1_0_1_12,2022-02-15T16:46:14.335Z,,,,,,,,,,,,,,,,,53,,,,,,,,,,,,,,435.948000011922,,response,,,,99,,,,,,,Space,keypress(Space),,,,,,,,---- -- ----- -- ------ - ------- --- ----------<br>------------- ------ ------ says ---- ------- ----- -- ----<br>-------- ------- -- ---------- --- - --- ----- ----- ----<br>---- --- --- ----- --- ---- ---- ------- ----- ---- -------<br>--- --- -- ----- -- --- ---- -- --- ---- -- ------ ------<br>--- ----- -- ----,114532.90000003576,114532.30000001192,114079.828,114094,114096.352,114546.233,,12,says
screen,html.Screen,2_1_0_1_13,2022-02-15T16:46:14.858Z,,,,,,,,,,,,,,,,,53,,,,,,,,,,,,,,508.86700002384896,,response,,,,99,,,,,,,Space,keypress(Space),,,,,,,,---- -- ----- -- ------ - ------- --- ----------<br>------------- ------ ------ ---- that ------- ----- -- ----<br>-------- ------- -- ---------- --- - --- ----- ----- ----<br>---- --- --- ----- --- ---- ---- ------- ----- ---- -------<br>--- --- -- ----- -- --- ---- -- --- ---- -- ------ ------<br>--- ----- -- ----,115055.60000002384,115055.10000002384,114529.665,114533,114546.233,115062.632,,13,that
screen,html.Screen,2_1_0_1_14,2022-02-15T16:46:15.351Z,,,,,,,,,,,,,,,,,53,,,,,,,,,,,,,,485.16800001192314,,response,,,,99,,,,,,,Space,keypress(Space),,,,,,,,---- -- ----- -- ------ - ------- --- ----------<br>------------- ------ ------ ---- ---- feeling ----- -- ----<br>-------- ------- -- ---------- --- - --- ----- ----- ----<br>---- --- --- ----- --- ---- ---- ------- ----- ---- -------<br>--- --- -- ----- -- --- ---- -- --- ---- -- ------ ------<br>--- ----- -- ----,115548.40000003576,115547.80000001192,115046.004,115055.70000004768,115062.632,115562.477,,14,feeling
screen,html.Screen,2_1_0_1_15,2022-02-15T16:46:15.759Z,,,,,,,,,,,,,,,,,53,,,,,,,,,,,,,,393.42300003576383,,response,,,,99,,,,,,,Space,keypress(Space),,,,,,,,---- -- ----- -- ------ - ------- --- ----------<br>------------- ------ ------ ---- ---- ------- close -- ----<br>-------- ------- -- ---------- --- - --- ----- ----- ----<br>---- --- --- ----- --- ---- ---- ------- ----- ---- -------<br>--- --- -- ----- -- --- ---- -- --- ---- -- ------ ------<br>--- ----- -- ----,115956.5,115955.90000003576,115545.819,115548.40000003576,115562.477,115962.189,,15,close
screen,html.Screen,2_1_0_1_16,2022-02-15T16:46:16.129Z,,,,,,,,,,,,,,,,,53,,,,,,,,,,,,,,363.91100002384337,,response,,,,99,,,,,,,Space,keypress(Space),,,,,,,,---- -- ----- -- ------ - ------- --- ----------<br>------------- ------ ------ ---- ---- ------- ----- to ----<br>-------- ------- -- ---------- --- - --- ----- ----- ----<br>---- --- --- ----- --- ---- ---- ------- ----- ---- -------<br>--- --- -- ----- -- --- ---- -- --- ---- -- ------ ------<br>--- ----- -- ----,116326.5,116326.10000002384,115945.673,115956.60000002384,115962.189,116328.707,,16,to
screen,html.Screen,2_1_0_1_17,2022-02-15T16:46:16.499Z,,,,,,,,,,,,,,,,,53,,,,,,,,,,,,,,367.2930000000051,,response,,,,99,,,,,,,Space,keypress(Space),,,,,,,,---- -- ----- -- ------ - ------- --- ----------<br>------------- ------ ------ ---- ---- ------- ----- -- your<br>-------- ------- -- ---------- --- - --- ----- ----- ----<br>---- --- --- ----- --- ---- ---- ------- ----- ---- -------<br>--- --- -- ----- -- --- ---- -- --- ---- -- ------ ------<br>--- ----- -- ----,116696.60000002384,116696,116312.129,116326.60000002384,116328.707,116711.95,,17,your
screen,html.Screen,2_1_0_1_18,2022-02-15T16:46:16.917Z,,,,,,,,,,,,,,,,,53,,,,,,,,,,,,,,402.0500000000029,,response,,,,99,,,,,,,Space,keypress(Space),,,,,,,,---- -- ----- -- ------ - ------- --- ----------<br>------------- ------ ------ ---- ---- ------- ----- -- ----<br>romantic ------- -- ---------- --- - --- ----- ----- ----<br>---- --- --- ----- --- ---- ---- ------- ----- ---- -------<br>--- --- -- ----- -- --- ---- -- --- ---- -- ------ ------<br>--- ----- -- ----,117114.5,117114,116695.244,116696.60000002384,116711.95,117128.325,,18,romantic
screen,html.Screen,2_1_0_1_19,2022-02-15T16:46:17.363Z,,,,,,,,,,,,,,,,,53,,,,,,,,,,,,,,431.47500001192384,,response,,,,99,,,,,,,Space,keypress(Space),,,,,,,,---- -- ----- -- ------ - ------- --- ----------<br>------------- ------ ------ ---- ---- ------- ----- -- ----<br>-------- partner -- ---------- --- - --- ----- ----- ----<br>---- --- --- ----- --- ---- ---- ------- ----- ---- -------<br>--- --- -- ----- -- --- ---- -- --- ---- -- ------ ------<br>--- ----- -- ----,117560.40000003576,117559.80000001192,117111.769,117114.70000004768,117128.325,117587.541,,19,partner
screen,html.Screen,2_1_0_1_20,2022-02-15T16:46:17.836Z,,,,,,,,,,,,,,,,,53,,,,,,,,,,,,,,445.45900000000256,,response,,,,99,,,,,,,Space,keypress(Space),,,,,,,,---- -- ----- -- ------ - ------- --- ----------<br>------------- ------ ------ ---- ---- ------- ----- -- ----<br>-------- ------- is ---------- --- - --- ----- ----- ----<br>---- --- --- ----- --- ---- ---- ------- ----- ---- -------<br>--- --- -- ----- -- --- ---- -- --- ---- -- ------ ------<br>--- ----- -- ----,118033.60000002384,118033,117544.973,117560.40000003576,117587.541,118044.595,,20,is
screen,html.Screen,2_1_0_1_21,2022-02-15T16:46:18.341Z,,,,,,,,,,,,,,,,,53,,,,,,,,,,,,,,493.70500001191976,,response,,,,99,,,,,,,Space,keypress(Space),,,,,,,,---- -- ----- -- ------ - ------- --- ----------<br>------------- ------ ------ ---- ---- ------- ----- -- ----<br>-------- ------- -- paramount. --- - --- ----- ----- ----<br>---- --- --- ----- --- ---- ---- ------- ----- ---- -------<br>--- --- -- ----- -- --- ---- -- --- ---- -- ------ ------<br>--- ----- -- ----,118538.90000003576,118538.30000001192,118028.081,118033.60000002384,118044.595,118544.406,,21,paramount.
screen,html.Screen,2_1_0_1_22,2022-02-15T16:46:18.783Z,,,,,,,,,,,,,,,,,53,,,,,,,,,,,,,,435.6940000238392,,response,,,,99,,,,,,,Space,keypress(Space),,,,,,,,---- -- ----- -- ------ - ------- --- ----------<br>------------- ------ ------ ---- ---- ------- ----- -- ----<br>-------- ------- -- ---------- But - --- ----- ----- ----<br>---- --- --- ----- --- ---- ---- ------- ----- ---- -------<br>--- --- -- ----- -- --- ---- -- --- ---- -- ------ ------<br>--- ----- -- ----,118980.70000004768,118980.10000002384,118527.674,118539,118544.406,118994.18,,22,But
screen,html.Screen,2_1_0_1_23,2022-02-15T16:46:19.192Z,,,,,,,,,,,,,,,,,53,,,,,,,,,,,,,,395.1200000119279,,response,,,,99,,,,,,,Space,keypress(Space),,,,,,,,---- -- ----- -- ------ - ------- --- ----------<br>------------- ------ ------ ---- ---- ------- ----- -- ----<br>-------- ------- -- ---------- --- a --- ----- ----- ----<br>---- --- --- ----- --- ---- ---- ------- ----- ---- -------<br>--- --- -- ----- -- --- ---- -- --- ---- -- ------ ------<br>--- ----- -- ----,119389.80000001192,119389.30000001192,118977.609,118980.80000001192,118994.18,119393.963,,23,a
screen,html.Screen,2_1_0_1_24,2022-02-15T16:46:19.607Z,,,,,,,,,,,,,,,,,53,,,,,,,,,,,,,,410.5369999999966,,response,,,,99,,,,,,,Space,keypress(Space),,,,,,,,---- -- ----- -- ------ - ------- --- ----------<br>------------- ------ ------ ---- ---- ------- ----- -- ----<br>-------- ------- -- ---------- --- - new ----- ----- ----<br>---- --- --- ----- --- ---- ---- ------- ----- ---- -------<br>--- --- -- ----- -- --- ---- -- --- ---- -- ------ ------<br>--- ----- -- ----,119805.10000002384,119804.5,119377.422,119389.90000003576,119393.963,119810.454,,24,new
screen,html.Screen,2_1_0_1_25,2022-02-15T16:46:20.153Z,,,,,,,,,,,,,,,,,53,,,,,,,,,,,,,,539.346000011923,,response,,,,99,,,,,,,Space,keypress(Space),,,,,,,,---- -- ----- -- ------ - ------- --- ----------<br>------------- ------ ------ ---- ---- ------- ----- -- ----<br>-------- ------- -- ---------- --- - --- study ----- ----<br>---- --- --- ----- --- ---- ---- ------- ----- ---- -------<br>--- --- -- ----- -- --- ---- -- --- ---- -- ------ ------<br>--- ----- -- ----,120350.40000003576,120349.80000001192,119793.881,119805.20000004768,119810.454,120360.295,,25,study
screen,html.Screen,2_1_0_1_26,2022-02-15T16:46:20.611Z,,,,,,,,,,,,,,,,,53,,,,,,,,,,,,,,448.10500003576453,,response,,,,99,,,,,,,Space,keypress(Space),,,,,,,,---- -- ----- -- ------ - ------- --- ----------<br>------------- ------ ------ ---- ---- ------- ----- -- ----<br>-------- ------- -- ---------- --- - --- ----- finds ----<br>---- --- --- ----- --- ---- ---- ------- ----- ---- -------<br>--- --- -- ----- -- --- ---- -- --- ---- -- ------ ------<br>--- ----- -- ----,120809,120808.40000003576,120343.672,120350.5,120360.295,120827.894,,26,finds
screen,html.Screen,2_1_0_1_27,2022-02-15T16:46:21.076Z,,,,,,,,,,,,,,,,,53,,,,,,,,,,,,,,444.9060000119207,,response,,,,99,,,,,,,Space,keypress(Space),,,,,,,,---- -- ----- -- ------ - ------- --- ----------<br>------------- ------ ------ ---- ---- ------- ----- -- ----<br>-------- ------- -- ---------- --- - --- ----- ----- that<br>---- --- --- ----- --- ---- ---- ------- ----- ---- -------<br>--- --- -- ----- -- --- ---- -- --- ---- -- ------ ------<br>--- ----- -- ----,121273.30000001192,121272.80000001192,120793.313,120809.20000004768,120827.894,121276.408,,27,that
screen,html.Screen,2_1_0_1_28,2022-02-15T16:46:21.545Z,,,,,,,,,,,,,,,,,53,,,,,,,,,,,,,,465.19200002384605,,response,,,,99,,,,,,,Space,keypress(Space),,,,,,,,---- -- ----- -- ------ - ------- --- ----------<br>------------- ------ ------ ---- ---- ------- ----- -- ----<br>-------- ------- -- ---------- --- - --- ----- ----- ----<br>it's --- --- ----- --- ---- ---- ------- ----- ---- -------<br>--- --- -- ----- -- --- ---- -- --- ---- -- ------ ------<br>--- ----- -- ----,121742.10000002384,121741.60000002384,121259.898,121273.40000003576,121276.408,121760.795,,28,it's
screen,html.Screen,2_1_0_1_29,2022-02-15T16:46:21.978Z,,,,,,,,,,,,,,,,,53,,,,,,,,,,,,,,413.70500000000175,,response,,,,99,,,,,,,Space,keypress(Space),,,,,,,,---- -- ----- -- ------ - ------- --- ----------<br>------------- ------ ------ ---- ---- ------- ----- -- ----<br>-------- ------- -- ---------- --- - --- ----- ----- ----<br>---- not --- ----- --- ---- ---- ------- ----- ---- -------<br>--- --- -- ----- -- --- ---- -- --- ---- -- ------ ------<br>--- ----- -- ----,122175,122174.5,121726.352,121742.30000001192,121760.795,122196.271,,29,not
screen,html.Screen,2_1_0_1_30,2022-02-15T16:46:22.354Z,,,,,,,,,,,,,,,,,53,,,,,,,,,,,,,,354.1290000357694,,response,,,,99,,,,,,,Space,keypress(Space),,,,,,,,---- -- ----- -- ------ - ------- --- ----------<br>------------- ------ ------ ---- ---- ------- ----- -- ----<br>-------- ------- -- ---------- --- - --- ----- ----- ----<br>---- --- how ----- --- ---- ---- ------- ----- ---- -------<br>--- --- -- ----- -- --- ---- -- --- ---- -- ------ ------<br>--- ----- -- ----,122551.10000002384,122550.40000003576,122159.485,122175.10000002384,122196.271,122559.261,,30,how
screen,html.Screen,2_1_0_1_31,2022-02-15T16:46:22.787Z,,,,,,,,,,,,,,,,,53,,,,,,,,,,,,,,423.83900002384325,,response,,,,99,,,,,,,Space,keypress(Space),,,,,,,,---- -- ----- -- ------ - ------- --- ----------<br>------------- ------ ------ ---- ---- ------- ----- -- ----<br>-------- ------- -- ---------- --- - --- ----- ----- ----<br>---- --- --- close --- ---- ---- ------- ----- ---- -------<br>--- --- -- ----- -- --- ---- -- --- ---- -- ------ ------<br>--- ----- -- ----,122983.60000002384,122983.10000002384,122542.544,122551.10000002384,122559.261,122992.401,,31,close
screen,html.Screen,2_1_0_1_32,2022-02-15T16:46:23.152Z,,,,,,,,,,,,,,,,,53,,,,,,,,,,,,,,355.7990000476857,,response,,,,99,,,,,,,Space,keypress(Space),,,,,,,,---- -- ----- -- ------ - ------- --- ----------<br>------------- ------ ------ ---- ---- ------- ----- -- ----<br>-------- ------- -- ---------- --- - --- ----- ----- ----<br>---- --- --- ----- you ---- ---- ------- ----- ---- -------<br>--- --- -- ----- -- --- ---- -- --- ---- -- ------ ------<br>--- ----- -- ----,123348.70000004768,123348.20000004768,122975.752,122983.60000002384,122992.401,123358.865,,32,you
screen,html.Screen,2_1_0_1_33,2022-02-15T16:46:23.561Z,,,,,,,,,,,,,,,,,53,,,,,,,,,,,,,,398.2350000238366,,response,,,,99,,,,,,,Space,keypress(Space),,,,,,,,---- -- ----- -- ------ - ------- --- ----------<br>------------- ------ ------ ---- ---- ------- ----- -- ----<br>-------- ------- -- ---------- --- - --- ----- ----- ----<br>---- --- --- ----- --- feel ---- ------- ----- ---- -------<br>--- --- -- ----- -- --- ---- -- --- ---- -- ------ ------<br>--- ----- -- ----,123757.80000001192,123757.10000002384,123342.246,123348.80000001192,123358.865,123783.388,,33,feel
screen,html.Screen,2_1_0_1_34,2022-02-15T16:46:24.065Z,,,,,,,,,,,,,,,,,53,,,,,,,,,,,,,,478.6119999999937,,response,,,,99,,,,,,,Space,keypress(Space),,,,,,,,---- -- ----- -- ------ - ------- --- ----------<br>------------- ------ ------ ---- ---- ------- ----- -- ----<br>-------- ------- -- ---------- --- - --- ----- ----- ----<br>---- --- --- ----- --- ---- that ------- ----- ---- -------<br>--- --- -- ----- -- --- ---- -- --- ---- -- ------ ------<br>--- ----- -- ----,124262.5,124262,123742.013,123757.80000001192,123783.388,124275.164,,34,that
screen,html.Screen,2_1_0_1_35,2022-02-15T16:46:24.589Z,,,,,,,,,,,,,,,,,53,,,,,,,,,,,,,,510.6360000119166,,response,,,,99,,,,,,,Space,keypress(Space),,,,,,,,---- -- ----- -- ------ - ------- --- ----------<br>------------- ------ ------ ---- ---- ------- ----- -- ----<br>-------- ------- -- ---------- --- - --- ----- ----- ----<br>---- --- --- ----- --- ---- ---- matters ----- ---- -------<br>--- --- -- ----- -- --- ---- -- --- ---- -- ------ ------<br>--- ----- -- ----,124786.40000003576,124785.80000001192,124258.524,124262.70000004768,124275.164,124791.487,,35,matters
screen,html.Screen,2_1_0_1_36,2022-02-15T16:46:25.097Z,,,,,,,,,,,,,,,,,53,,,,,,,,,,,,,,501.9130000357691,,response,,,,99,,,,,,,Space,keypress(Space),,,,,,,,"---- -- ----- -- ------ - ------- --- ----------<br>------------- ------ ------ ---- ---- ------- ----- -- ----<br>-------- ------- -- ---------- --- - --- ----- ----- ----<br>---- --- --- ----- --- ---- ---- ------- most, ---- -------<br>--- --- -- ----- -- --- ---- -- --- ---- -- ------ ------<br>--- ----- -- ----",125294.10000002384,125293.40000003576,124774.939,124786.5,124791.487,125308.011,,36,"most,"
screen,html.Screen,2_1_0_1_37,2022-02-15T16:46:25.621Z,,,,,,,,,,,,,,,,,53,,,,,,,,,,,,,,509.08900002384325,,response,,,,99,,,,,,,Space,keypress(Space),,,,,,,,---- -- ----- -- ------ - ------- --- ----------<br>------------- ------ ------ ---- ---- ------- ----- -- ----<br>-------- ------- -- ---------- --- - --- ----- ----- ----<br>---- --- --- ----- --- ---- ---- ------- ----- it's -------<br>--- --- -- ----- -- --- ---- -- --- ---- -- ------ ------<br>--- ----- -- ----,125817.70000004768,125817.10000002384,125291.298,125294.20000004768,125308.011,125824.446,,37,it's
screen,html.Screen,2_1_0_1_38,2022-02-15T16:46:26.118Z,,,,,,,,,,,,,,,,,53,,,,,,,,,,,,,,489.5540000000037,,response,,,,99,,,,,,,Space,keypress(Space),,,,,,,,---- -- ----- -- ------ - ------- --- ----------<br>------------- ------ ------ ---- ---- ------- ----- -- ----<br>-------- ------- -- ---------- --- - --- ----- ----- ----<br>---- --- --- ----- --- ---- ---- ------- ----- ---- whether<br>--- --- -- ----- -- --- ---- -- --- ---- -- ------ ------<br>--- ----- -- ----,126314.60000002384,126314,125807.832,125817.80000001192,125824.446,126324.219,,38,whether
screen,html.Screen,2_1_0_1_39,2022-02-15T16:46:26.540Z,,,,,,,,,,,,,,,,,53,,,,,,,,,,,,,,412.68100003576546,,response,,,,99,,,,,,,Space,keypress(Space),,,,,,,,---- -- ----- -- ------ - ------- --- ----------<br>------------- ------ ------ ---- ---- ------- ----- -- ----<br>-------- ------- -- ---------- --- - --- ----- ----- ----<br>---- --- --- ----- --- ---- ---- ------- ----- ---- -------<br>you --- -- ----- -- --- ---- -- --- ---- -- ------ ------<br>--- ----- -- ----,126737.20000004768,126736.90000003576,126307.568,126314.70000004768,126324.219,126740.66,,39,you
screen,html.Screen,2_1_0_1_40,2022-02-15T16:46:27.050Z,,,,,,,,,,,,,,,,,53,,,,,,,,,,,,,,505.8399999999965,,response,,,,99,,,,,,,Space,keypress(Space),,,,,,,,---- -- ----- -- ------ - ------- --- ----------<br>------------- ------ ------ ---- ---- ------- ----- -- ----<br>-------- ------- -- ---------- --- - --- ----- ----- ----<br>---- --- --- ----- --- ---- ---- ------- ----- ---- -------<br>--- are -- ----- -- --- ---- -- --- ---- -- ------ ------<br>--- ----- -- ----,127247.20000004768,127246.5,126724.042,126737.30000001192,126740.66,127257.19,,40,are
screen,html.Screen,2_1_0_1_41,2022-02-15T16:46:27.572Z,,,,,,,,,,,,,,,,,53,,,,,,,,,,,,,,511.3099999999977,,response,,,,99,,,,,,,Space,keypress(Space),,,,,,,,---- -- ----- -- ------ - ------- --- ----------<br>------------- ------ ------ ---- ---- ------- ----- -- ----<br>-------- ------- -- ---------- --- - --- ----- ----- ----<br>---- --- --- ----- --- ---- ---- ------- ----- ---- -------<br>--- --- as ----- -- --- ---- -- --- ---- -- ------ ------<br>--- ----- -- ----,127769.10000002384,127768.5,127240.497,127247.20000004768,127257.19,127773.462,,41,as
screen,html.Screen,2_1_0_1_42,2022-02-15T16:46:28.093Z,,,,,,,,,,,,,,,,,53,,,,,,,,,,,,,,516.1380000238423,,response,,,,99,,,,,,,Space,keypress(Space),,,,,,,,---- -- ----- -- ------ - ------- --- ----------<br>------------- ------ ------ ---- ---- ------- ----- -- ----<br>-------- ------- -- ---------- --- - --- ----- ----- ----<br>---- --- --- ----- --- ---- ---- ------- ----- ---- -------<br>--- --- -- close -- --- ---- -- --- ---- -- ------ ------<br>--- ----- -- ----,128290.20000004768,128289.60000002384,127756.908,127769.10000002384,127773.462,128306.655,,42,close
screen,html.Screen,2_1_0_1_43,2022-02-15T16:46:28.569Z,,,,,,,,,,,,,,,,,53,,,,,,,,,,,,,,458.945000023843,,response,,,,99,,,,,,,Space,keypress(Space),,,,,,,,---- -- ----- -- ------ - ------- --- ----------<br>------------- ------ ------ ---- ---- ------- ----- -- ----<br>-------- ------- -- ---------- --- - --- ----- ----- ----<br>---- --- --- ----- --- ---- ---- ------- ----- ---- -------<br>--- --- -- ----- as --- ---- -- --- ---- -- ------ ------<br>--- ----- -- ----,128766.20000004768,128765.60000002384,128290.022,128290.30000001192,128306.655,128773.136,,43,as
screen,html.Screen,2_1_0_1_44,2022-02-15T16:46:29.049Z,,,,,,,,,,,,,,,,,53,,,,,,,,,,,,,,472.5640000476851,,response,,,,99,,,,,,,Space,keypress(Space),,,,,,,,---- -- ----- -- ------ - ------- --- ----------<br>------------- ------ ------ ---- ---- ------- ----- -- ----<br>-------- ------- -- ---------- --- - --- ----- ----- ----<br>---- --- --- ----- --- ---- ---- ------- ----- ---- -------<br>--- --- -- ----- -- you ---- -- --- ---- -- ------ ------<br>--- ----- -- ----,129246.30000001192,129245.70000004768,128756.561,128766.30000001192,128773.136,129256.285,,44,you
screen,html.Screen,2_1_0_1_45,2022-02-15T16:46:29.530Z,,,,,,,,,,,,,,,,,53,,,,,,,,,,,,,,470.31500002383837,,response,,,,99,,,,,,,Space,keypress(Space),,,,,,,,---- -- ----- -- ------ - ------- --- ----------<br>------------- ------ ------ ---- ---- ------- ----- -- ----<br>-------- ------- -- ---------- --- - --- ----- ----- ----<br>---- --- --- ----- --- ---- ---- ------- ----- ---- -------<br>--- --- -- ----- -- --- want -- --- ---- -- ------ ------<br>--- ----- -- ----,129727,129726.60000002384,129239.636,129246.30000001192,129256.285,129739.386,,45,want
screen,html.Screen,2_1_0_1_46,2022-02-15T16:46:29.930Z,,,,,,,,,,,,,,,,,53,,,,,,,,,,,,,,387.0140000357642,,response,,,,99,,,,,,,Space,keypress(Space),,,,,,,,---- -- ----- -- ------ - ------- --- ----------<br>------------- ------ ------ ---- ---- ------- ----- -- ----<br>-------- ------- -- ---------- --- - --- ----- ----- ----<br>---- --- --- ----- --- ---- ---- ------- ----- ---- -------<br>--- --- -- ----- -- --- ---- to --- ---- -- ------ ------<br>--- ----- -- ----,130126.90000003576,130126.40000003576,129722.682,129727.20000004768,129739.386,130139.117,,46,to
screen,html.Screen,2_1_0_1_47,2022-02-15T16:46:30.337Z,,,,,,,,,,,,,,,,,53,,,,,,,,,,,,,,394.38300000000163,,response,,,,99,,,,,,,Space,keypress(Space),,,,,,,,"---- -- ----- -- ------ - ------- --- ----------<br>------------- ------ ------ ---- ---- ------- ----- -- ----<br>-------- ------- -- ---------- --- - --- ----- ----- ----<br>---- --- --- ----- --- ---- ---- ------- ----- ---- -------<br>--- --- -- ----- -- --- ---- -- be, ---- -- ------ ------<br>--- ----- -- ----",130534.10000002384,130533.5,130122.391,130127,130139.117,130538.958,,47,"be,"
screen,html.Screen,2_1_0_1_48,2022-02-15T16:46:30.856Z,,,,,,,,,,,,,,,,,53,,,,,,,,,,,,,,513.242000047685,,response,,,,99,,,,,,,Space,keypress(Space),,,,,,,,---- -- ----- -- ------ - ------- --- ----------<br>------------- ------ ------ ---- ---- ------- ----- -- ----<br>-------- ------- -- ---------- --- - --- ----- ----- ----<br>---- --- --- ----- --- ---- ---- ------- ----- ---- -------<br>--- --- -- ----- -- --- ---- -- --- even -- ------ ------<br>--- ----- -- ----,131052.70000004768,131052.20000004768,130522.28,130534.20000004768,130538.958,131055.297,,48,even
screen,html.Screen,2_1_0_1_49,2022-02-15T16:46:31.264Z,,,,,,,,,,,,,,,,,53,,,,,,,,,,,,,,405.503000011915,,response,,,,99,,,,,,,Space,keypress(Space),,,,,,,,---- -- ----- -- ------ - ------- --- ----------<br>------------- ------ ------ ---- ---- ------- ----- -- ----<br>-------- ------- -- ---------- --- - --- ----- ----- ----<br>---- --- --- ----- --- ---- ---- ------- ----- ---- -------<br>--- --- -- ----- -- --- ---- -- --- ---- if ------ ------<br>--- ----- -- ----,131461.40000003576,131460.80000001192,131038.68,131052.80000001192,131055.297,131471.784,,49,if
screen,html.Screen,2_1_0_1_50,2022-02-15T16:46:31.681Z,,,,,,,,,,,,,,,,,53,,,,,,,,,,,,,,405.7159999999858,,response,,,,99,,,,,,,Space,keypress(Space),,,,,,,,---- -- ----- -- ------ - ------- --- ----------<br>------------- ------ ------ ---- ---- ------- ----- -- ----<br>-------- ------- -- ---------- --- - --- ----- ----- ----<br>---- --- --- ----- --- ---- ---- ------- ----- ---- -------<br>--- --- -- ----- -- --- ---- -- --- ---- -- that's ------<br>--- ----- -- ----,131878,131877.5,131455.308,131461.40000003576,131471.784,131888.374,,50,that's
screen,html.Screen,2_1_0_1_51,2022-02-15T16:46:32.078Z,,,,,,,,,,,,,,,,,53,,,,,,,,,,,,,,386.5260000357521,,response,,,,99,,,,,,,Space,keypress(Space),,,,,,,,---- -- ----- -- ------ - ------- --- ----------<br>------------- ------ ------ ---- ---- ------- ----- -- ----<br>-------- ------- -- ---------- --- - --- ----- ----- ----<br>---- --- --- ----- --- ---- ---- ------- ----- ---- -------<br>--- --- -- ----- -- --- ---- -- --- ---- -- ------ really<br>--- ----- -- ----,132275.40000003576,132274.90000003576,131871.727,131878.10000002384,131888.374,132288.17,,51,really
screen,html.Screen,2_1_0_1_52,2022-02-15T16:46:32.434Z,,,,,,,,,,,,,,,,,53,,,,,,,,,,,,,,342.1300000119081,,response,,,,99,,,,,,,Space,keypress(Space),,,,,,,,---- -- ----- -- ------ - ------- --- ----------<br>------------- ------ ------ ---- ---- ------- ----- -- ----<br>-------- ------- -- ---------- --- - --- ----- ----- ----<br>---- --- --- ----- --- ---- ---- ------- ----- ---- -------<br>--- --- -- ----- -- --- ---- -- --- ---- -- ------ ------<br>not ----- -- ----,132630.90000003576,132630.30000001192,132271.52,132275.5,132288.17,132637.949,,52,not
screen,html.Screen,2_1_0_1_53,2022-02-15T16:46:32.794Z,,,,,,,,,,,,,,,,,53,,,,,,,,,,,,,,352.25100004769047,,response,,,,99,,,,,,,Space,keypress(Space),,,,,,,,---- -- ----- -- ------ - ------- --- ----------<br>------------- ------ ------ ---- ---- ------- ----- -- ----<br>-------- ------- -- ---------- --- - --- ----- ----- ----<br>---- --- --- ----- --- ---- ---- ------- ----- ---- -------<br>--- --- -- ----- -- --- ---- -- --- ---- -- ------ ------<br>--- close -- ----,132990.80000001192,132990.20000004768,132621.347,132630.90000003576,132637.949,133004.449,,53,close
screen,html.Screen,2_1_0_1_54,2022-02-15T16:46:33.187Z,,,,,,,,,,,,,,,,,53,,,,,,,,,,,,,,378.95100003576954,,response,,,,99,,,,,,,Space,keypress(Space),,,,,,,,---- -- ----- -- ------ - ------- --- ----------<br>------------- ------ ------ ---- ---- ------- ----- -- ----<br>-------- ------- -- ---------- --- - --- ----- ----- ----<br>---- --- --- ----- --- ---- ---- ------- ----- ---- -------<br>--- --- -- ----- -- --- ---- -- --- ---- -- ------ ------<br>--- ----- at ----,133383.80000001192,133383.40000003576,132987.88,132990.80000001192,133004.449,133387.686,,54,at
screen,html.Screen,2_1_0_1_55,2022-02-15T16:46:33.715Z,,,,,,,,,,,,,,,,,53,,,,,,,,,,,,,,523.614000011934,,response,,,,99,,,,,,,Space,keypress(Space),,,,,,,,---- -- ----- -- ------ - ------- --- ----------<br>------------- ------ ------ ---- ---- ------- ----- -- ----<br>-------- ------- -- ---------- --- - --- ----- ----- ----<br>---- --- --- ----- --- ---- ---- ------- ----- ---- -------<br>--- --- -- ----- -- --- ---- -- --- ---- -- ------ ------<br>--- ----- -- all.,133912,133911.30000001192,133370.989,133384,133387.686,133920.723,,55,all.
Item 99,flow.Loop,2_1_0_1,2022-02-15T16:46:33.715Z,,,,,,,,,,,,,,,,,,,,,,,,,,,,,,,27694.616000011927,,completion,,,,,B,,,,,,,,,,,silence,,,,,133912.10000002384,133911.30000001192,106200.068,106200.90000003576,106216.684,133920.723,,,
Question 1,html.Screen,2_1_0_2,2022-02-15T16:46:37.012Z,,,,,,,,,,,,,,,,,,,,,,,,,,,,true,FALSE,,3287.277000000002,,response,,,,99,B,,,,,,FALSE,click #choice-2,,,,silence,,,,,137208.90000003576,137208,133904.199,133912.20000004768,133920.723,137219.245,,,
Question 2,html.Screen,2_1_0_3,2022-02-15T16:46:44.284Z,,,,,,,,,,,,,,,,,,,,,,,,,,,,true,TRUE,,7260.655000035767,,response,,,,99,B,,,,,,TRUE,click #choice-1,,,,silence,,,,,144480.80000001192,144479.90000003576,137202.465,137208.90000003576,137219.245,144482.461,,,
Item 99,flow.Sequence,2_1_0,2022-02-15T16:46:44.284Z,,,,,,,,,,,,,,,,,,,,,,,,,,,,,,,48258.65300003576,,completion,,,,,,,,,,,,,,,,,,,,,144480.90000003576,144479.90000003576,96204.608,96209.40000003576,96221.247,144482.461,,,
Holding screen,html.Screen,2_1_1_0,2022-02-15T16:46:54.265Z,,,,,,,,,,,,,,,,,,,,,,,,,,,,,,,9995.527999999991,,timeout,,,,,,,,,,,,,,,,,,,,,154461.90000003576,154461.395,144465.884,144480.90000003576,144482.461,154477.989,,,
screen,html.Screen,2_1_1_1_0,2022-02-15T16:46:54.984Z,,,,,,,,,,,,,,,,,54,,,,,,,,,,,,,,702.9110000357614,,response,,,,100,,,,,,,Space,keypress(Space),,,,,,,,At --- ---- --- ------ ----- ------- ---- -- --- ------- --<br>------- ---------- ------ -- ----- -- ----- -- ---- ------<br>--- ----- --- --- ------ -------- ----- --- ------ ----- --<br>----- ----- ---------- --- --- ------ ------ ---- -- ------<br>------- --- ------ ----- --- ---- ------- -- ---- --- --<br>------- ------,155181.5,155180.90000003576,154461.395,154462.10000002384,154477.989,155194.36,,0,At
screen,html.Screen,2_1_1_1_1,2022-02-15T16:46:55.403Z,,,,,,,,,,,,,,,,,54,,,,,,,,,,,,,,405.04000003577676,,response,,,,100,,,,,,,Space,keypress(Space),,,,,,,,-- the ---- --- ------ ----- ------- ---- -- --- ------- --<br>------- ---------- ------ -- ----- -- ----- -- ---- ------<br>--- ----- --- --- ------ -------- ----- --- ------ ----- --<br>----- ----- ---------- --- --- ------ ------ ---- -- ------<br>------- --- ------ ----- --- ---- ------- -- ---- --- --<br>------- ------,155599.90000003576,155599.40000003576,155177.706,155181.5,155194.36,155610.875,,1,the
screen,html.Screen,2_1_1_1_2,2022-02-15T16:46:55.735Z,,,,,,,,,,,,,,,,,54,,,,,,,,,,,,,,320.3250000476837,,response,,,,100,,,,,,,Space,keypress(Space),,,,,,,,-- --- time --- ------ ----- ------- ---- -- --- ------- --<br>------- ---------- ------ -- ----- -- ----- -- ---- ------<br>--- ----- --- --- ------ -------- ----- --- ------ ----- --<br>----- ----- ---------- --- --- ------ ------ ---- -- ------<br>------- --- ------ ----- --- ---- ------- -- ---- --- --<br>------- ------,155931.70000004768,155931.20000004768,155594.166,155600,155610.875,155944.047,,2,time
screen,html.Screen,2_1_1_1_3,2022-02-15T16:46:56.046Z,,,,,,,,,,,,,,,,,54,,,,,,,,,,,,,,298.0530000238505,,response,,,,100,,,,,,,Space,keypress(Space),,,,,,,,-- --- ---- the ------ ----- ------- ---- -- --- ------- --<br>------- ---------- ------ -- ----- -- ----- -- ---- ------<br>--- ----- --- --- ------ -------- ----- --- ------ ----- --<br>----- ----- ---------- --- --- ------ ------ ---- -- ------<br>------- --- ------ ----- --- ---- ------- -- ---- --- --<br>------- ------,156242.70000004768,156242.10000002384,155927.383,155931.80000001192,155944.047,156263.625,,3,the
screen,html.Screen,2_1_1_1_4,2022-02-15T16:46:56.383Z,,,,,,,,,,,,,,,,,54,,,,,,,,,,,,,,316.17500001192093,,response,,,,100,,,,,,,Space,keypress(Space),,,,,,,,-- --- ---- --- French ----- ------- ---- -- --- ------- --<br>------- ---------- ------ -- ----- -- ----- -- ---- ------<br>--- ----- --- --- ------ -------- ----- --- ------ ----- --<br>----- ----- ---------- --- --- ------ ------ ---- -- ------<br>------- --- ------ ----- --- ---- ------- -- ---- --- --<br>------- ------,156580.40000003576,156579.80000001192,156227.24,156242.80000001192,156263.625,156593.72,,4,French
screen,html.Screen,2_1_1_1_5,2022-02-15T16:46:56.699Z,,,,,,,,,,,,,,,,,54,,,,,,,,,,,,,,301.48000004768255,,response,,,,100,,,,,,,Space,keypress(Space),,,,,,,,-- --- ---- --- ------ crown ------- ---- -- --- ------- --<br>------- ---------- ------ -- ----- -- ----- -- ---- ------<br>--- ----- --- --- ------ -------- ----- --- ------ ----- --<br>----- ----- ---------- --- --- ------ ------ ---- -- ------<br>------- --- ------ ----- --- ---- ------- -- ---- --- --<br>------- ------,156895.70000004768,156895.20000004768,156577.064,156580.60000002384,156593.72,156910.247,,5,crown
screen,html.Screen,2_1_1_1_6,2022-02-15T16:46:57.112Z,,,,,,,,,,,,,,,,,54,,,,,,,,,,,,,,397.752999999997,,response,,,,100,,,,,,,Space,keypress(Space),,,,,,,,-- --- ---- --- ------ ----- secured ---- -- --- ------- --<br>------- ---------- ------ -- ----- -- ----- -- ---- ------<br>--- ----- --- --- ------ -------- ----- --- ------ ----- --<br>----- ----- ---------- --- --- ------ ------ ---- -- ------<br>------- --- ------ ----- --- ---- ------- -- ---- --- --<br>------- ------,157308.5,157308,156893.575,156895.80000001192,156910.247,157310.003,,6,secured
screen,html.Screen,2_1_1_1_7,2022-02-15T16:46:57.757Z,,,,,,,,,,,,,,,,,54,,,,,,,,,,,,,,642.997000000003,,response,,,,100,,,,,,,Space,keypress(Space),,,,,,,,-- --- ---- --- ------ ----- ------- much -- --- ------- --<br>------- ---------- ------ -- ----- -- ----- -- ---- ------<br>--- ----- --- --- ------ -------- ----- --- ------ ----- --<br>----- ----- ---------- --- --- ------ ------ ---- -- ------<br>------- --- ------ ----- --- ---- ------- -- ---- --- --<br>------- ------,157953.60000002384,157953,157293.469,157308.60000002384,157310.003,157959.636,,7,much
screen,html.Screen,2_1_1_1_8,2022-02-15T16:46:58.145Z,,,,,,,,,,,,,,,,,54,,,,,,,,,,,,,,381.6640000119223,,response,,,,100,,,,,,,Space,keypress(Space),,,,,,,,-- --- ---- --- ------ ----- ------- ---- of --- ------- --<br>------- ---------- ------ -- ----- -- ----- -- ---- ------<br>--- ----- --- --- ------ -------- ----- --- ------ ----- --<br>----- ----- ---------- --- --- ------ ------ ---- -- ------<br>------- --- ------ ----- --- ---- ------- -- ---- --- --<br>------- ------,158341.80000001192,158341.30000001192,157943.124,157953.70000004768,157959.636,158362.321,,8,of
screen,html.Screen,2_1_1_1_9,2022-02-15T16:46:58.573Z,,,,,,,,,,,,,,,,,54,,,,,,,,,,,,,,407.1790000000037,,response,,,,100,,,,,,,Space,keypress(Space),,,,,,,,-- --- ---- --- ------ ----- ------- ---- -- its ------- --<br>------- ---------- ------ -- ----- -- ----- -- ---- ------<br>--- ----- --- --- ------ -------- ----- --- ------ ----- --<br>----- ----- ---------- --- --- ------ ------ ---- -- ------<br>------- --- ------ ----- --- ---- ------- -- ---- --- --<br>------- ------,158770.20000004768,158769.5,158326.253,158342,158362.321,158776.04,,9,its
screen,html.Screen,2_1_1_1_10,2022-02-15T16:46:58.986Z,,,,,,,,,,,,,,,,,54,,,,,,,,,,,,,,406.36000003575464,,response,,,,100,,,,,,,Space,keypress(Space),,,,,,,,-- --- ---- --- ------ ----- ------- ---- -- --- revenue --<br>------- ---------- ------ -- ----- -- ----- -- ---- ------<br>--- ----- --- --- ------ -------- ----- --- ------ ----- --<br>----- ----- ---------- --- --- ------ ------ ---- -- ------<br>------- --- ------ ----- --- ---- ------- -- ---- --- --<br>------- ------,159182.90000003576,159182.40000003576,158759.417,158770.20000004768,158776.04,159192.476,,10,revenue
screen,html.Screen,2_1_1_1_11,2022-02-15T16:46:59.733Z,,,,,,,,,,,,,,,,,54,,,,,,,,,,,,,,737.1240000238467,,response,,,,100,,,,,,,Space,keypress(Space),,,,,,,,-- --- ---- --- ------ ----- ------- ---- -- --- ------- by<br>------- ---------- ------ -- ----- -- ----- -- ---- ------<br>--- ----- --- --- ------ -------- ----- --- ------ ----- --<br>----- ----- ---------- --- --- ------ ------ ---- -- ------<br>------- --- ------ ----- --- ---- ------- -- ---- --- --<br>------- ------,159930.20000004768,159929.60000002384,159175.866,159183,159192.476,159942.19,,11,by
screen,html.Screen,2_1_1_1_12,2022-02-15T16:47:00.178Z,,,,,,,,,,,,,,,,,54,,,,,,,,,,,,,,431.8099999999977,,response,,,,100,,,,,,,Space,keypress(Space),,,,,,,,-- --- ---- --- ------ ----- ------- ---- -- --- ------- --<br>issuing ---------- ------ -- ----- -- ----- -- ---- ------<br>--- ----- --- --- ------ -------- ----- --- ------ ----- --<br>----- ----- ---------- --- --- ------ ------ ---- -- ------<br>------- --- ------ ----- --- ---- ------- -- ---- --- --<br>------- ------,160374.5,160374,159925.53,159930.30000001192,159942.19,160394.763,,12,issuing
screen,html.Screen,2_1_1_1_13,2022-02-15T16:47:00.558Z,,,,,,,,,,,,,,,,,54,,,,,,,,,,,,,,359.93700004767743,,response,,,,100,,,,,,,Space,keypress(Space),,,,,,,,-- --- ---- --- ------ ----- ------- ---- -- --- ------- --<br>------- government ------ -- ----- -- ----- -- ---- ------<br>--- ----- --- --- ------ -------- ----- --- ------ ----- --<br>----- ----- ---------- --- --- ------ ------ ---- -- ------<br>------- --- ------ ----- --- ---- ------- -- ---- --- --<br>------- ------,160755.20000004768,160754.70000004768,160358.604,160374.60000002384,160394.763,160758.4,,13,government
screen,html.Screen,2_1_1_1_14,2022-02-15T16:47:00.933Z,,,,,,,,,,,,,,,,,54,,,,,,,,,,,,,,371.30000004768954,,response,,,,100,,,,,,,Space,keypress(Space),,,,,,,,-- --- ---- --- ------ ----- ------- ---- -- --- ------- --<br>------- ---------- bonds. -- ----- -- ----- -- ---- ------<br>--- ----- --- --- ------ -------- ----- --- ------ ----- --<br>----- ----- ---------- --- --- ------ ------ ---- -- ------<br>------- --- ------ ----- --- ---- ------- -- ---- --- --<br>------- ------,161130.30000001192,161129.70000004768,160741.913,160755.40000003576,160758.4,161141.623,,14,bonds.
screen,html.Screen,2_1_1_1_15,2022-02-15T16:47:01.444Z,,,,,,,,,,,,,,,,,54,,,,,,,,,,,,,,498.77700003577047,,response,,,,100,,,,,,,Space,keypress(Space),,,,,,,,-- --- ---- --- ------ ----- ------- ---- -- --- ------- --<br>------- ---------- ------ In ----- -- ----- -- ---- ------<br>--- ----- --- --- ------ -------- ----- --- ------ ----- --<br>----- ----- ---------- --- --- ------ ------ ---- -- ------<br>------- --- ------ ----- --- ---- ------- -- ---- --- --<br>------- ------,161640.90000003576,161640.40000003576,161125,161130.40000003576,161141.623,161658.07,,15,In
screen,html.Screen,2_1_1_1_16,2022-02-15T16:47:02.925Z,,,,,,,,,,,,,,,,,54,,,,,,,,,,,,,,1463.3300000357558,,response,,,,100,,,,,,,Space,keypress(Space),,,,,,,,"-- --- ---- --- ------ ----- ------- ---- -- --- ------- --<br>------- ---------- ------ -- 1727, -- ----- -- ---- ------<br>--- ----- --- --- ------ -------- ----- --- ------ ----- --<br>----- ----- ---------- --- --- ------ ------ ---- -- ------<br>------- --- ------ ----- --- ---- ------- -- ---- --- --<br>------- ------",163122,163121.40000003576,161624.771,161641,161658.07,163123.939,,16,"1727,"
screen,html.Screen,2_1_1_1_17,2022-02-15T16:47:03.393Z,,,,,,,,,,,,,,,,,54,,,,,,,,,,,,,,465.7610000476707,,response,,,,100,,,,,,,Space,keypress(Space),,,,,,,,-- --- ---- --- ------ ----- ------- ---- -- --- ------- --<br>------- ---------- ------ -- ----- in ----- -- ---- ------<br>--- ----- --- --- ------ -------- ----- --- ------ ----- --<br>----- ----- ---------- --- --- ------ ------ ---- -- ------<br>------- --- ------ ----- --- ---- ------- -- ---- --- --<br>------- ------,163590.30000001192,163589.70000004768,163107.477,163122.10000002384,163123.939,163607.19,,17,in
screen,html.Screen,2_1_1_1_18,2022-02-15T16:47:03.858Z,,,,,,,,,,,,,,,,,54,,,,,,,,,,,,,,446.91000002383953,,response,,,,100,,,,,,,Space,keypress(Space),,,,,,,,-- --- ---- --- ------ ----- ------- ---- -- --- ------- --<br>------- ---------- ------ -- ----- -- order -- ---- ------<br>--- ----- --- --- ------ -------- ----- --- ------ ----- --<br>----- ----- ---------- --- --- ------ ------ ---- -- ------<br>------- --- ------ ----- --- ---- ------- -- ---- --- --<br>------- ------,164054.60000002384,164054.10000002384,163590.497,163590.40000003576,163607.19,164056.841,,18,order
screen,html.Screen,2_1_1_1_19,2022-02-15T16:47:04.272Z,,,,,,,,,,,,,,,,,54,,,,,,,,,,,,,,412.059000035777,,response,,,,100,,,,,,,Space,keypress(Space),,,,,,,,-- --- ---- --- ------ ----- ------- ---- -- --- ------- --<br>------- ---------- ------ -- ----- -- ----- to ---- ------<br>--- ----- --- --- ------ -------- ----- --- ------ ----- --<br>----- ----- ---------- --- --- ------ ------ ---- -- ------<br>------- --- ------ ----- --- ---- ------- -- ---- --- --<br>------- ------,164469.30000001192,164468.90000003576,164040.312,164054.70000004768,164056.841,164473.428,,19,to
screen,html.Screen,2_1_1_1_20,2022-02-15T16:47:04.763Z,,,,,,,,,,,,,,,,,54,,,,,,,,,,,,,,486.2720000476693,,response,,,,100,,,,,,,Space,keypress(Space),,,,,,,,-- --- ---- --- ------ ----- ------- ---- -- --- ------- --<br>------- ---------- ------ -- ----- -- ----- -- save ------<br>--- ----- --- --- ------ -------- ----- --- ------ ----- --<br>----- ----- ---------- --- --- ------ ------ ---- -- ------<br>------- --- ------ ----- --- ---- ------- -- ---- --- --<br>------- ------,164960.30000001192,164959.70000004768,164456.796,164469.40000003576,164473.428,164973.207,,20,save
screen,html.Screen,2_1_1_1_21,2022-02-15T16:47:05.222Z,,,,,,,,,,,,,,,,,54,,,,,,,,,,,,,,444.99300004768884,,response,,,,100,,,,,,,Space,keypress(Space),,,,,,,,"-- --- ---- --- ------ ----- ------- ---- -- --- ------- --<br>------- ---------- ------ -- ----- -- ----- -- ---- money,<br>--- ----- --- --- ------ -------- ----- --- ------ ----- --<br>----- ----- ---------- --- --- ------ ------ ---- -- ------<br>------- --- ------ ----- --- ---- ------- -- ---- --- --<br>------- ------",165418.80000001192,165418.20000004768,164956.577,164960.40000003576,164973.207,165422.977,,21,"money,"
screen,html.Screen,2_1_1_1_22,2022-02-15T16:47:05.704Z,,,,,,,,,,,,,,,,,54,,,,,,,,,,,,,,477.12300002382835,,response,,,,100,,,,,,,Space,keypress(Space),,,,,,,,-- --- ---- --- ------ ----- ------- ---- -- --- ------- --<br>------- ---------- ------ -- ----- -- ----- -- ---- ------<br>the ----- --- --- ------ -------- ----- --- ------ ----- --<br>----- ----- ---------- --- --- ------ ------ ---- -- ------<br>------- --- ------ ----- --- ---- ------- -- ---- --- --<br>------- ------,165900.5,165900.10000002384,165406.399,165418.90000003576,165422.977,165906.109,,22,the
screen,html.Screen,2_1_1_1_23,2022-02-15T16:47:06.193Z,,,,,,,,,,,,,,,,,54,,,,,,,,,,,,,,483.79100003576605,,response,,,,100,,,,,,,Space,keypress(Space),,,,,,,,-- --- ---- --- ------ ----- ------- ---- -- --- ------- --<br>------- ---------- ------ -- ----- -- ----- -- ---- ------<br>--- state --- --- ------ -------- ----- --- ------ ----- --<br>----- ----- ---------- --- --- ------ ------ ---- -- ------<br>------- --- ------ ----- --- ---- ------- -- ---- --- --<br>------- ------,166390.40000003576,166389.90000003576,165889.498,165900.60000002384,165906.109,166405.907,,23,state
screen,html.Screen,2_1_1_1_24,2022-02-15T16:47:06.607Z,,,,,,,,,,,,,,,,,54,,,,,,,,,,,,,,397.69300002383534,,response,,,,100,,,,,,,Space,keypress(Space),,,,,,,,-- --- ---- --- ------ ----- ------- ---- -- --- ------- --<br>------- ---------- ------ -- ----- -- ----- -- ---- ------<br>--- ----- cut --- ------ -------- ----- --- ------ ----- --<br>----- ----- ---------- --- --- ------ ------ ---- -- ------<br>------- --- ------ ----- --- ---- ------- -- ---- --- --<br>------- ------,166804.20000004768,166803.60000002384,166389.235,166390.5,166405.907,166830.854,,24,cut
screen,html.Screen,2_1_1_1_25,2022-02-15T16:47:07.026Z,,,,,,,,,,,,,,,,,54,,,,,,,,,,,,,,391.1460000000079,,response,,,,100,,,,,,,Space,keypress(Space),,,,,,,,-- --- ---- --- ------ ----- ------- ---- -- --- ------- --<br>------- ---------- ------ -- ----- -- ----- -- ---- ------<br>--- ----- --- the ------ -------- ----- --- ------ ----- --<br>----- ----- ---------- --- --- ------ ------ ---- -- ------<br>------- --- ------ ----- --- ---- ------- -- ---- --- --<br>------- ------,167222.70000004768,167222,166789.049,166804.30000001192,166830.854,167238.859,,25,the
screen,html.Screen,2_1_1_1_26,2022-02-15T16:47:07.574Z,,,,,,,,,,,,,,,,,54,,,,,,,,,,,,,,531.841000047687,,response,,,,100,,,,,,,Space,keypress(Space),,,,,,,,-- --- ---- --- ------ ----- ------- ---- -- --- ------- --<br>------- ---------- ------ -- ----- -- ----- -- ---- ------<br>--- ----- --- --- bonds' -------- ----- --- ------ ----- --<br>----- ----- ---------- --- --- ------ ------ ---- -- ------<br>------- --- ------ ----- --- ---- ------- -- ---- --- --<br>------- ------,167771.20000004768,167770.70000004768,167222.224,167222.70000004768,167238.859,167788.58,,26,bonds'
screen,html.Screen,2_1_1_1_27,2022-02-15T16:47:08.019Z,,,,,,,,,,,,,,,,,54,,,,,,,,,,,,,,426.8200000357756,,response,,,,100,,,,,,,Space,keypress(Space),,,,,,,,-- --- ---- --- ------ ----- ------- ---- -- --- ------- --<br>------- ---------- ------ -- ----- -- ----- -- ---- ------<br>--- ----- --- --- ------ interest ----- --- ------ ----- --<br>----- ----- ---------- --- --- ------ ------ ---- -- ------<br>------- --- ------ ----- --- ---- ------- -- ---- --- --<br>------- ------,168216,168215.40000003576,167755.232,167771.40000003576,167788.58,168221.67,,27,interest
screen,html.Screen,2_1_1_1_28,2022-02-15T16:47:08.430Z,,,,,,,,,,,,,,,,,54,,,,,,,,,,,,,,404.5300000476709,,response,,,,100,,,,,,,Space,keypress(Space),,,,,,,,-- --- ---- --- ------ ----- ------- ---- -- --- ------- --<br>------- ---------- ------ -- ----- -- ----- -- ---- ------<br>--- ----- --- --- ------ -------- rate. --- ------ ----- --<br>----- ----- ---------- --- --- ------ ------ ---- -- ------<br>------- --- ------ ----- --- ---- ------- -- ---- --- --<br>------- ------,168626.80000001192,168626.20000004768,168205.096,168216.10000002384,168221.67,168638.203,,28,rate.
screen,html.Screen,2_1_1_1_29,2022-02-15T16:47:08.909Z,,,,,,,,,,,,,,,,,54,,,,,,,,,,,,,,466.89700002383324,,response,,,,100,,,,,,,Space,keypress(Space),,,,,,,,-- --- ---- --- ------ ----- ------- ---- -- --- ------- --<br>------- ---------- ------ -- ----- -- ----- -- ---- ------<br>--- ----- --- --- ------ -------- ----- The ------ ----- --<br>----- ----- ---------- --- --- ------ ------ ---- -- ------<br>------- --- ------ ----- --- ---- ------- -- ---- --- --<br>------- ------,169105.60000002384,169105.10000002384,168621.643,168627,168638.203,169121.317,,29,The
screen,html.Screen,2_1_1_1_30,2022-02-15T16:47:09.276Z,,,,,,,,,,,,,,,,,54,,,,,,,,,,,,,,350.9830000119109,,response,,,,100,,,,,,,Space,keypress(Space),,,,,,,,-- --- ---- --- ------ ----- ------- ---- -- --- ------- --<br>------- ---------- ------ -- ----- -- ----- -- ---- ------<br>--- ----- --- --- ------ -------- ----- --- market ----- --<br>----- ----- ---------- --- --- ------ ------ ---- -- ------<br>------- --- ------ ----- --- ---- ------- -- ---- --- --<br>------- ------,169472.80000001192,169472.30000001192,169104.679,169105.70000004768,169121.317,169487.751,,30,market
screen,html.Screen,2_1_1_1_31,2022-02-15T16:47:09.676Z,,,,,,,,,,,,,,,,,54,,,,,,,,,,,,,,384.54900001193164,,response,,,,100,,,,,,,Space,keypress(Space),,,,,,,,-- --- ---- --- ------ ----- ------- ---- -- --- ------- --<br>------- ---------- ------ -- ----- -- ----- -- ---- ------<br>--- ----- --- --- ------ -------- ----- --- ------ value --<br>----- ----- ---------- --- --- ------ ------ ---- -- ------<br>------- --- ------ ----- --- ---- ------- -- ---- --- --<br>------- ------,169872.80000001192,169872.30000001192,169471.081,169472.90000003576,169487.751,169887.646,,31,value
screen,html.Screen,2_1_1_1_32,2022-02-15T16:47:10.045Z,,,,,,,,,,,,,,,,,54,,,,,,,,,,,,,,353.654000011913,,response,,,,100,,,,,,,Space,keypress(Space),,,,,,,,-- --- ---- --- ------ ----- ------- ---- -- --- ------- --<br>------- ---------- ------ -- ----- -- ----- -- ---- ------<br>--- ----- --- --- ------ -------- ----- --- ------ ----- of<br>----- ----- ---------- --- --- ------ ------ ---- -- ------<br>------- --- ------ ----- --- ---- ------- -- ---- --- --<br>------- ------,170241.70000004768,170241.30000001192,169870.971,169873.40000003576,169887.646,170254.149,,32,of
screen,html.Screen,2_1_1_1_33,2022-02-15T16:47:10.386Z,,,,,,,,,,,,,,,,,54,,,,,,,,,,,,,,328.15100001191604,,response,,,,100,,,,,,,Space,keypress(Space),,,,,,,,-- --- ---- --- ------ ----- ------- ---- -- --- ------- --<br>------- ---------- ------ -- ----- -- ----- -- ---- ------<br>--- ----- --- --- ------ -------- ----- --- ------ ----- --<br>these ----- ---------- --- --- ------ ------ ---- -- ------<br>------- --- ------ ----- --- ---- ------- -- ---- --- --<br>------- ------,170583,170582.30000001192,170237.509,170241.90000003576,170254.149,170587.249,,33,these
screen,html.Screen,2_1_1_1_34,2022-02-15T16:47:10.760Z,,,,,,,,,,,,,,,,,54,,,,,,,,,,,,,,369.7509999999893,,response,,,,100,,,,,,,Space,keypress(Space),,,,,,,,-- --- ---- --- ------ ----- ------- ---- -- --- ------- --<br>------- ---------- ------ -- ----- -- ----- -- ---- ------<br>--- ----- --- --- ------ -------- ----- --- ------ ----- --<br>----- bonds ---------- --- --- ------ ------ ---- -- ------<br>------- --- ------ ----- --- ---- ------- -- ---- --- --<br>------- ------,170957.5,170957,170570.551,170583.10000002384,170587.249,170970.491,,34,bonds
screen,html.Screen,2_1_1_1_35,2022-02-15T16:47:11.157Z,,,,,,,,,,,,,,,,,54,,,,,,,,,,,,,,382.70900004767464,,response,,,,100,,,,,,,Space,keypress(Space),,,,,,,,"-- --- ---- --- ------ ----- ------- ---- -- --- ------- --<br>------- ---------- ------ -- ----- -- ----- -- ---- ------<br>--- ----- --- --- ------ -------- ----- --- ------ ----- --<br>----- ----- plummeted, --- --- ------ ------ ---- -- ------<br>------- --- ------ ----- --- ---- ------- -- ---- --- --<br>------- ------",171353.80000001192,171353.20000004768,170953.835,170957.60000002384,170970.491,171370.309,,35,"plummeted,"
screen,html.Screen,2_1_1_1_36,2022-02-15T16:47:11.538Z,,,,,,,,,,,,,,,,,54,,,,,,,,,,,,,,364.5910000357544,,response,,,,100,,,,,,,Space,keypress(Space),,,,,,,,-- --- ---- --- ------ ----- ------- ---- -- --- ------- --<br>------- ---------- ------ -- ----- -- ----- -- ---- ------<br>--- ----- --- --- ------ -------- ----- --- ------ ----- --<br>----- ----- ---------- and --- ------ ------ ---- -- ------<br>------- --- ------ ----- --- ---- ------- -- ---- --- --<br>------- ------,171735.5,171734.90000003576,171353.604,171353.90000003576,171370.309,171766.234,,36,and
screen,html.Screen,2_1_1_1_37,2022-02-15T16:47:11.898Z,,,,,,,,,,,,,,,,,54,,,,,,,,,,,,,,327.76600000000326,,response,,,,100,,,,,,,Space,keypress(Space),,,,,,,,-- --- ---- --- ------ ----- ------- ---- -- --- ------- --<br>------- ---------- ------ -- ----- -- ----- -- ---- ------<br>--- ----- --- --- ------ -------- ----- --- ------ ----- --<br>----- ----- ---------- --- the ------ ------ ---- -- ------<br>------- --- ------ ----- --- ---- ------- -- ---- --- --<br>------- ------,172094.60000002384,172094,171720.101,171735.60000002384,171766.234,172103.286,,37,the
screen,html.Screen,2_1_1_1_38,2022-02-15T16:47:12.277Z,,,,,,,,,,,,,,,,,54,,,,,,,,,,,,,,370.01400001192815,,response,,,,100,,,,,,,Space,keypress(Space),,,,,,,,-- --- ---- --- ------ ----- ------- ---- -- --- ------- --<br>------- ---------- ------ -- ----- -- ----- -- ---- ------<br>--- ----- --- --- ------ -------- ----- --- ------ ----- --<br>----- ----- ---------- --- --- market ------ ---- -- ------<br>------- --- ------ ----- --- ---- ------- -- ---- --- --<br>------- ------,172473.90000003576,172473.30000001192,172086.639,172094.60000002384,172103.286,172486.378,,38,market
screen,html.Screen,2_1_1_1_39,2022-02-15T16:47:12.656Z,,,,,,,,,,,,,,,,,54,,,,,,,,,,,,,,365.7220000238449,,response,,,,100,,,,,,,Space,keypress(Space),,,,,,,,-- --- ---- --- ------ ----- ------- ---- -- --- ------- --<br>------- ---------- ------ -- ----- -- ----- -- ---- ------<br>--- ----- --- --- ------ -------- ----- --- ------ ----- --<br>----- ----- ---------- --- --- ------ became ---- -- ------<br>------- --- ------ ----- --- ---- ------- -- ---- --- --<br>------- ------,172852.60000002384,172852.10000002384,172469.769,172473.90000003576,172486.378,172886.171,,39,became
screen,html.Screen,2_1_1_1_40,2022-02-15T16:47:13.007Z,,,,,,,,,,,,,,,,,54,,,,,,,,,,,,,,317.2290000357607,,response,,,,100,,,,,,,Space,keypress(Space),,,,,,,,-- --- ---- --- ------ ----- ------- ---- -- --- ------- --<br>------- ---------- ------ -- ----- -- ----- -- ---- ------<br>--- ----- --- --- ------ -------- ----- --- ------ ----- --<br>----- ----- ---------- --- --- ------ ------ wary -- ------<br>------- --- ------ ----- --- ---- ------- -- ---- --- --<br>------- ------,173204,173203.40000003576,172869.669,172852.70000004768,172886.171,173219.448,,40,wary
screen,html.Screen,2_1_1_1_41,2022-02-15T16:47:13.383Z,,,,,,,,,,,,,,,,,54,,,,,,,,,,,,,,360.25200004767976,,response,,,,100,,,,,,,Space,keypress(Space),,,,,,,,-- --- ---- --- ------ ----- ------- ---- -- --- ------- --<br>------- ---------- ------ -- ----- -- ----- -- ---- ------<br>--- ----- --- --- ------ -------- ----- --- ------ ----- --<br>----- ----- ---------- --- --- ------ ------ ---- of ------<br>------- --- ------ ----- --- ---- ------- -- ---- --- --<br>------- ------,173580.20000004768,173579.70000004768,173202.769,173204.10000002384,173219.448,173585.882,,41,of
screen,html.Screen,2_1_1_1_42,2022-02-15T16:47:13.726Z,,,,,,,,,,,,,,,,,54,,,,,,,,,,,,,,336.7180000238295,,response,,,,100,,,,,,,Space,keypress(Space),,,,,,,,-- --- ---- --- ------ ----- ------- ---- -- --- ------- --<br>------- ---------- ------ -- ----- -- ----- -- ---- ------<br>--- ----- --- --- ------ -------- ----- --- ------ ----- --<br>----- ----- ---------- --- --- ------ ------ ---- -- French<br>------- --- ------ ----- --- ---- ------- -- ---- --- --<br>------- ------,173923.20000004768,173922.60000002384,173569.267,173580.30000001192,173585.882,173935.725,,42,French
screen,html.Screen,2_1_1_1_43,2022-02-15T16:47:14.135Z,,,,,,,,,,,,,,,,,54,,,,,,,,,,,,,,395.7749999999942,,response,,,,100,,,,,,,Space,keypress(Space),,,,,,,,-- --- ---- --- ------ ----- ------- ---- -- --- ------- --<br>------- ---------- ------ -- ----- -- ----- -- ---- ------<br>--- ----- --- --- ------ -------- ----- --- ------ ----- --<br>----- ----- ---------- --- --- ------ ------ ---- -- ------<br>credit. --- ------ ----- --- ---- ------- -- ---- --- --<br>------- ------,174332,174331.5,173919.157,173923.20000004768,173935.725,174335.612,,43,credit.
screen,html.Screen,2_1_1_1_44,2022-02-15T16:47:14.549Z,,,,,,,,,,,,,,,,,54,,,,,,,,,,,,,,409.58800004769,,response,,,,100,,,,,,,Space,keypress(Space),,,,,,,,-- --- ---- --- ------ ----- ------- ---- -- --- ------- --<br>------- ---------- ------ -- ----- -- ----- -- ---- ------<br>--- ----- --- --- ------ -------- ----- --- ------ ----- --<br>----- ----- ---------- --- --- ------ ------ ---- -- ------<br>------- The ------ ----- --- ---- ------- -- ---- --- --<br>------- ------,174745.80000001192,174745.20000004768,174318.873,174332.10000002384,174335.612,174751.97,,44,The
screen,html.Screen,2_1_1_1_45,2022-02-15T16:47:14.832Z,,,,,,,,,,,,,,,,,54,,,,,,,,,,,,,,276.6300000238407,,response,,,,100,,,,,,,Space,keypress(Space),,,,,,,,-- --- ---- --- ------ ----- ------- ---- -- --- ------- --<br>------- ---------- ------ -- ----- -- ----- -- ---- ------<br>--- ----- --- --- ------ -------- ----- --- ------ ----- --<br>----- ----- ---------- --- --- ------ ------ ---- -- ------<br>------- --- French ----- --- ---- ------- -- ---- --- --<br>------- ------,175029.10000002384,175028.60000002384,174735.398,174745.90000003576,174751.97,175035.244,,45,French
screen,html.Screen,2_1_1_1_46,2022-02-15T16:47:15.201Z,,,,,,,,,,,,,,,,,54,,,,,,,,,,,,,,362.45600004767766,,response,,,,100,,,,,,,Space,keypress(Space),,,,,,,,-- --- ---- --- ------ ----- ------- ---- -- --- ------- --<br>------- ---------- ------ -- ----- -- ----- -- ---- ------<br>--- ----- --- --- ------ -------- ----- --- ------ ----- --<br>----- ----- ---------- --- --- ------ ------ ---- -- ------<br>------- --- ------ state --- ---- ------- -- ---- --- --<br>------- ------,175398.30000001192,175397.70000004768,175018.641,175029.20000004768,175035.244,175401.682,,46,state
screen,html.Screen,2_1_1_1_47,2022-02-15T16:47:15.549Z,,,,,,,,,,,,,,,,,54,,,,,,,,,,,,,,343.518000047683,,response,,,,100,,,,,,,Space,keypress(Space),,,,,,,,-- --- ---- --- ------ ----- ------- ---- -- --- ------- --<br>------- ---------- ------ -- ----- -- ----- -- ---- ------<br>--- ----- --- --- ------ -------- ----- --- ------ ----- --<br>----- ----- ---------- --- --- ------ ------ ---- -- ------<br>------- --- ------ ----- was ---- ------- -- ---- --- --<br>------- ------,175745.90000003576,175745.20000004768,175385.1,175398.30000001192,175401.682,175751.599,,47,was
screen,html.Screen,2_1_1_1_48,2022-02-15T16:47:15.874Z,,,,,,,,,,,,,,,,,54,,,,,,,,,,,,,,318.50100002385443,,response,,,,100,,,,,,,Space,keypress(Space),,,,,,,,-- --- ---- --- ------ ----- ------- ---- -- --- ------- --<br>------- ---------- ------ -- ----- -- ----- -- ---- ------<br>--- ----- --- --- ------ -------- ----- --- ------ ----- --<br>----- ----- ---------- --- --- ------ ------ ---- -- ------<br>------- --- ------ ----- --- left ------- -- ---- --- --<br>------- ------,176070.80000001192,176070.10000002384,175734.975,175745.90000003576,175751.599,176084.841,,48,left
screen,html.Screen,2_1_1_1_49,2022-02-15T16:47:16.198Z,,,,,,,,,,,,,,,,,54,,,,,,,,,,,,,,309.559000035777,,response,,,,100,,,,,,,Space,keypress(Space),,,,,,,,-- --- ---- --- ------ ----- ------- ---- -- --- ------- --<br>------- ---------- ------ -- ----- -- ----- -- ---- ------<br>--- ----- --- --- ------ -------- ----- --- ------ ----- --<br>----- ----- ---------- --- --- ------ ------ ---- -- ------<br>------- --- ------ ----- --- ---- without -- ---- --- --<br>------- ------,176395.10000002384,176394.40000003576,176068.125,176070.80000001192,176084.841,176401.313,,49,without
screen,html.Screen,2_1_1_1_50,2022-02-15T16:47:16.508Z,,,,,,,,,,,,,,,,,54,,,,,,,,,,,,,,302.68700000000536,,response,,,,100,,,,,,,Space,keypress(Space),,,,,,,,-- --- ---- --- ------ ----- ------- ---- -- --- ------- --<br>------- ---------- ------ -- ----- -- ----- -- ---- ------<br>--- ----- --- --- ------ -------- ----- --- ------ ----- --<br>----- ----- ---------- --- --- ------ ------ ---- -- ------<br>------- --- ------ ----- --- ---- ------- an ---- --- --<br>------- ------,176704.60000002384,176704,176384.679,176395.10000002384,176401.313,176717.893,,50,an
screen,html.Screen,2_1_1_1_51,2022-02-15T16:47:16.832Z,,,,,,,,,,,,,,,,,54,,,,,,,,,,,,,,310.10699999998906,,response,,,,100,,,,,,,Space,keypress(Space),,,,,,,,-- --- ---- --- ------ ----- ------- ---- -- --- ------- --<br>------- ---------- ------ -- ----- -- ----- -- ---- ------<br>--- ----- --- --- ------ -------- ----- --- ------ ----- --<br>----- ----- ---------- --- --- ------ ------ ---- -- ------<br>------- --- ------ ----- --- ---- ------- -- easy --- --<br>------- ------,177028.60000002384,177028,176701.156,176704.70000004768,176717.893,177034.346,,51,easy
screen,html.Screen,2_1_1_1_52,2022-02-15T16:47:17.153Z,,,,,,,,,,,,,,,,,54,,,,,,,,,,,,,,315.35400004769326,,response,,,,100,,,,,,,Space,keypress(Space),,,,,,,,-- --- ---- --- ------ ----- ------- ---- -- --- ------- --<br>------- ---------- ------ -- ----- -- ----- -- ---- ------<br>--- ----- --- --- ------ -------- ----- --- ------ ----- --<br>----- ----- ---------- --- --- ------ ------ ---- -- ------<br>------- --- ------ ----- --- ---- ------- -- ---- way --<br>------- ------,177350.20000004768,177349.70000004768,177017.7,177028.70000004768,177034.346,177367.467,,52,way
screen,html.Screen,2_1_1_1_53,2022-02-15T16:47:17.482Z,,,,,,,,,,,,,,,,,54,,,,,,,,,,,,,,310.7330000476795,,response,,,,100,,,,,,,Space,keypress(Space),,,,,,,,-- --- ---- --- ------ ----- ------- ---- -- --- ------- --<br>------- ---------- ------ -- ----- -- ----- -- ---- ------<br>--- ----- --- --- ------ -------- ----- --- ------ ----- --<br>----- ----- ---------- --- --- ------ ------ ---- -- ------<br>------- --- ------ ----- --- ---- ------- -- ---- --- of<br>------- ------,177678.70000004768,177678.20000004768,177334.199,177350.30000001192,177367.467,177684.008,,53,of
screen,html.Screen,2_1_1_1_54,2022-02-15T16:47:17.810Z,,,,,,,,,,,,,,,,,54,,,,,,,,,,,,,,322.89200003576116,,response,,,,100,,,,,,,Space,keypress(Space),,,,,,,,-- --- ---- --- ------ ----- ------- ---- -- --- ------- --<br>------- ---------- ------ -- ----- -- ----- -- ---- ------<br>--- ----- --- --- ------ -------- ----- --- ------ ----- --<br>----- ----- ---------- --- --- ------ ------ ---- -- ------<br>------- --- ------ ----- --- ---- ------- -- ---- --- --<br>raising ------,178007.40000003576,178006.90000003576,177667.5,177678.80000001192,177684.008,178017.161,,54,raising
screen,html.Screen,2_1_1_1_55,2022-02-15T16:47:18.181Z,,,,,,,,,,,,,,,,,54,,,,,,,,,,,,,,360.63900001192815,,response,,,,100,,,,,,,Space,keypress(Space),,,,,,,,-- --- ---- --- ------ ----- ------- ---- -- --- ------- --<br>------- ---------- ------ -- ----- -- ----- -- ---- ------<br>--- ----- --- --- ------ -------- ----- --- ------ ----- --<br>----- ----- ---------- --- --- ------ ------ ---- -- ------<br>------- --- ------ ----- --- ---- ------- -- ---- --- --<br>------- money.,178378.40000003576,178377.80000001192,178000.623,178007.5,178017.161,178383.699,,55,money.
Item 100,flow.Loop,2_1_1_1,2022-02-15T16:47:18.181Z,,,,,,,,,,,,,,,,,,,,,,,,,,,,,,,23899.81100001192,,completion,,,,,B,,,,,,,,,,,silence,,,,,178378.5,178377.80000001192,154461.395,154462,154477.989,178383.699,,,
Question 1,html.Screen,2_1_1_2,2022-02-15T16:47:21.867Z,,,,,,,,,,,,,,,,,,,,,,,,,,,,true,TRUE,,3680.1010000119277,,response,,,,100,B,,,,,,TRUE,click #choice-1,,,,silence,,,,,182064.40000003576,182063.80000001192,178367.077,178378.60000002384,178383.699,182065.29,,,
Question 2,html.Screen,2_1_1_3,2022-02-15T16:47:24.036Z,,,,,,,,,,,,,,,,,,,,,,,,,,,,true,FALSE,,2166.6100000357546,,response,,,,100,B,,,,,,FALSE,click #choice-2,,,,silence,,,,,184232.70000004768,184231.90000003576,182048.738,182064.5,182065.29,184247.734,,,
Item 100,flow.Sequence,2_1_1,2022-02-15T16:47:24.036Z,,,,,,,,,,,,,,,,,,,,,,,,,,,,,,,39749.43900003575,,completion,,,,,,,,,,,,,,,,,,,,,184232.80000001192,184231.90000003576,144465.884,144480.90000003576,144482.461,184247.734,,,
End of Practice,html.Page,2_1_2,2022-02-15T16:47:25.788Z,,,,,,,,,,,,,,,,,,,,,,,,,,,,,,,1737.166000035766,,form submission,,,,,,,,,,,,,,,,,,,,,185985,185984.90000003576,184231.124,184233,184247.734,185996.877,,,
Practice,flow.Sequence,2_1,2022-02-15T16:47:25.788Z,,,,,,,,,,,,,,,,,,,,,,,,,,,,,,,89763.65300003576,,completion,,,,,,,,,,,,,,,,,,,,,185985.20000004768,185984.90000003576,96204.608,96209.40000003576,96221.247,185996.877,,,
Trap_instruction,html.Page,2_2_0,2022-02-15T16:47:28.868Z,,,,,,,,,,,,,,,,,,,,,,,,,,,,,,,3068.023000035755,,form submission,,,,,,,,,,,,,,,,,,,,,189065,189064.90000003576,185980.275,185985.20000004768,185996.877,189078.76,,,
trap_trial,html.Screen,2_2_1,2022-02-15T16:47:31.796Z,,,,,,,,,,,,,,,,,,,,,,,,,,,,true,1,,2913.3400000238325,,response,,,,,,,,,,,1,click #choice-1,,,,,,,,,191992.90000003576,191992.10000002384,189062.105,189065.20000004768,189078.76,191994.1,,,
end of trap trial,html.Page,2_2_2,2022-02-15T16:47:33.116Z,,,,,,,,,,,,,,,,,,,,,,,,,,,,,,,1318.800000035757,,form submission,,,,,,,,,,,,,,,,,,,,,193313.20000004768,193312.90000003576,191977.532,191993,191994.1,193326.984,,,
Trap 1,flow.Sequence,2_2,2022-02-15T16:47:33.116Z,,,,,,,,,,,,,,,,,,,,,,,,,,,,,,,7316.023000035755,,completion,,,,,,,,,,,,,,,,,,,,,193313.30000001192,193312.90000003576,185980.275,185985.20000004768,185996.877,193326.984,,,
Standby,html.Page,2_3_0,2022-02-15T16:47:41.110Z,,,,,,,,,,,,,,,,,,,,,,,,,,,,,,,7996.241000000009,,timeout,,,,,,,,,,,,,,,,,,,,,201307.20000004768,201306.573,193310.272,193313.30000001192,193326.984,201323.225,,,
Holding screen,html.Screen,2_3_1_0_0,2022-02-15T16:47:48.107Z,,,,,,,,,,,,,,,,,,,,,,,,,,,,,,,6996.758000000002,,timeout,,,,,,,,,,,,,,,,,,,,,208303.90000003576,208303.364,201306.573,201307.20000004768,201323.225,208319.983,,,
screen,html.Screen,2_3_1_0_1_0,2022-02-15T16:47:49.444Z,,,,,,,,,,,,,,,,,51,,,,,,,,,,,,,,1320.0169999999925,,response,,,,13,B,,,,,,Space,keypress(Space),,,,lyrical,,,,American -------- --- --- ---- --- --- ------ -- --------<br>---- --------- --- ------- ------------ ---------- ---------<br>--- ---------- ------- ---------- ------- -- -------- ----<br>---- --- ------ ----- ------ -- ---- --- ----- -- - -------<br>-------- -- --- --- -- ----- ----------- ----- -----------<br>---- --- ---------- --- ---- --- -- ----------,209640.70000004768,209640,208303.364,208304,208319.983,209652.783,,0,American
screen,html.Screen,2_3_1_0_1_1,2022-02-15T16:47:50.165Z,,,,,,,,,,,,,,,,,51,,,,,,,,,,,,,,708.317000023846,,response,,,,13,B,,,,,,Space,keypress(Space),,,,lyrical,,,,-------- industry --- --- ---- --- --- ------ -- --------<br>---- --------- --- ------- ------------ ---------- ---------<br>--- ---------- ------- ---------- ------- -- -------- ----<br>---- --- ------ ----- ------ -- ---- --- ----- -- - -------<br>-------- -- --- --- -- ----- ----------- ----- -----------<br>---- --- ---------- --- ---- --- -- ----------,210361.70000004768,210361.10000002384,209636.104,209640.70000004768,209652.783,210369.062,,1,industry
screen,html.Screen,2_3_1_0_1_2,2022-02-15T16:47:50.862Z,,,,,,,,,,,,,,,,,51,,,,,,,,,,,,,,689.6380000476784,,response,,,,13,B,,,,,,Space,keypress(Space),,,,lyrical,,,,-------- -------- may --- ---- --- --- ------ -- --------<br>---- --------- --- ------- ------------ ---------- ---------<br>--- ---------- ------- ---------- ------- -- -------- ----<br>---- --- ------ ----- ------ -- ---- --- ----- -- - -------<br>-------- -- --- --- -- ----- ----------- ----- -----------<br>---- --- ---------- --- ---- --- -- ----------,211059.20000004768,211058.70000004768,210352.496,210361.80000001192,210369.062,211068.748,,2,may
screen,html.Screen,2_3_1_0_1_3,2022-02-15T16:47:51.515Z,,,,,,,,,,,,,,,,,51,,,,,,,,,,,,,,643.0520000119286,,response,,,,13,B,,,,,,Space,keypress(Space),,,,lyrical,,,,-------- -------- --- not ---- --- --- ------ -- --------<br>---- --------- --- ------- ------------ ---------- ---------<br>--- ---------- ------- ---------- ------- -- -------- ----<br>---- --- ------ ----- ------ -- ---- --- ----- -- - -------<br>-------- -- --- --- -- ----- ----------- ----- -----------<br>---- --- ---------- --- ---- --- -- ----------,211712.30000001192,211711.80000001192,211052.185,211059.30000001192,211068.748,211718.443,,3,not
screen,html.Screen,2_3_1_0_1_4,2022-02-15T16:47:52.279Z,,,,,,,,,,,,,,,,,51,,,,,,,,,,,,,,757.2570000476844,,response,,,,13,B,,,,,,Space,keypress(Space),,,,lyrical,,,,-------- -------- --- --- know --- --- ------ -- --------<br>---- --------- --- ------- ------------ ---------- ---------<br>--- ---------- ------- ---------- ------- -- -------- ----<br>---- --- ------ ----- ------ -- ---- --- ----- -- - -------<br>-------- -- --- --- -- ----- ----------- ----- -----------<br>---- --- ---------- --- ---- --- -- ----------,212476.20000004768,212475.70000004768,211701.884,211712.40000003576,211718.443,212484.824,,4,know
screen,html.Screen,2_3_1_0_1_5,2022-02-15T16:47:52.862Z,,,,,,,,,,,,,,,,,51,,,,,,,,,,,,,,573.8760000476905,,response,,,,13,B,,,,,,Space,keypress(Space),,,,lyrical,,,,"-------- -------- --- --- ---- it, --- ------ -- --------<br>---- --------- --- ------- ------------ ---------- ---------<br>--- ---------- ------- ---------- ------- -- -------- ----<br>---- --- ------ ----- ------ -- ---- --- ----- -- - -------<br>-------- -- --- --- -- ----- ----------- ----- -----------<br>---- --- ---------- --- ---- --- -- ----------",213059.40000003576,213058.70000004768,212468.165,212476.30000001192,212484.824,213067.798,,5,"it,"
screen,html.Screen,2_3_1_0_1_6,2022-02-15T16:47:53.355Z,,,,,,,,,,,,,,,,,51,,,,,,,,,,,,,,484.00200001191115,,response,,,,13,B,,,,,,Space,keypress(Space),,,,lyrical,,,,-------- -------- --- --- ---- --- but ------ -- --------<br>---- --------- --- ------- ------------ ---------- ---------<br>--- ---------- ------- ---------- ------- -- -------- ----<br>---- --- ------ ----- ------ -- ---- --- ----- -- - -------<br>-------- -- --- --- -- ----- ----------- ----- -----------<br>---- --- ---------- --- ---- --- -- ----------,213552.30000001192,213551.80000001192,213051.206,213059.40000003576,213067.798,213567.636,,6,but
screen,html.Screen,2_3_1_0_1_7,2022-02-15T16:47:53.820Z,,,,,,,,,,,,,,,,,51,,,,,,,,,,,,,,448.46400002384325,,response,,,,13,B,,,,,,Space,keypress(Space),,,,lyrical,,,,-------- -------- --- --- ---- --- --- debate -- --------<br>---- --------- --- ------- ------------ ---------- ---------<br>--- ---------- ------- ---------- ------- -- -------- ----<br>---- --- ------ ----- ------ -- ---- --- ----- -- - -------<br>-------- -- --- --- -- ----- ----------- ----- -----------<br>---- --- ---------- --- ---- --- -- ----------,214016.60000002384,214016.10000002384,213551.022,213552.5,213567.636,214049.446,,7,debate
screen,html.Screen,2_3_1_0_1_8,2022-02-15T16:47:54.197Z,,,,,,,,,,,,,,,,,51,,,,,,,,,,,,,,343.9540000357665,,response,,,,13,B,,,,,,Space,keypress(Space),,,,lyrical,,,,-------- -------- --- --- ---- --- --- ------ in --------<br>---- --------- --- ------- ------------ ---------- ---------<br>--- ---------- ------- ---------- ------- -- -------- ----<br>---- --- ------ ----- ------ -- ---- --- ----- -- - -------<br>-------- -- --- --- -- ----- ----------- ----- -----------<br>---- --- ---------- --- ---- --- -- ----------,214394.10000002384,214393.40000003576,214000.767,214016.70000004768,214049.446,214400.514,,8,in
screen,html.Screen,2_3_1_0_1_9,2022-02-15T16:47:54.697Z,,,,,,,,,,,,,,,,,51,,,,,,,,,,,,,,492.9860000000044,,response,,,,13,B,,,,,,Space,keypress(Space),,,,lyrical,,,,-------- -------- --- --- ---- --- --- ------ -- Congress<br>---- --------- --- ------- ------------ ---------- ---------<br>--- ---------- ------- ---------- ------- -- -------- ----<br>---- --- ------ ----- ------ -- ---- --- ----- -- - -------<br>-------- -- --- --- -- ----- ----------- ----- -----------<br>---- --- ---------- --- ---- --- -- ----------,214894.20000004768,214893.5,214383.95,214394.10000002384,214400.514,214900.43,,9,Congress
screen,html.Screen,2_3_1_0_1_10,2022-02-15T16:47:55.255Z,,,,,,,,,,,,,,,,,51,,,,,,,,,,,,,,550.6700000238488,,response,,,,13,B,,,,,,Space,keypress(Space),,,,lyrical,,,,-------- -------- --- --- ---- --- --- ------ -- --------<br>over --------- --- ------- ------------ ---------- ---------<br>--- ---------- ------- ---------- ------- -- -------- ----<br>---- --- ------ ----- ------ -- ---- --- ----- -- - -------<br>-------- -- --- --- -- ----- ----------- ----- -----------<br>---- --- ---------- --- ---- --- -- ----------,215451.70000004768,215451.10000002384,214883.703,214894.20000004768,214900.43,215466.779,,10,over
screen,html.Screen,2_3_1_0_1_11,2022-02-15T16:47:55.868Z,,,,,,,,,,,,,,,,,51,,,,,,,,,,,,,,598.2209999999905,,response,,,,13,B,,,,,,Space,keypress(Space),,,,lyrical,,,,-------- -------- --- --- ---- --- --- ------ -- --------<br>---- reforming --- ------- ------------ ---------- ---------<br>--- ---------- ------- ---------- ------- -- -------- ----<br>---- --- ------ ----- ------ -- ---- --- ----- -- - -------<br>-------- -- --- --- -- ----- ----------- ----- -----------<br>---- --- ---------- --- ---- --- -- ----------,216065.60000002384,216065,215450.082,215451.70000004768,215466.779,216088.567,,11,reforming
screen,html.Screen,2_3_1_0_1_12,2022-02-15T16:47:56.395Z,,,,,,,,,,,,,,,,,51,,,,,,,,,,,,,,503.3330000357528,,response,,,,13,B,,,,,,Space,keypress(Space),,,,lyrical,,,,-------- -------- --- --- ---- --- --- ------ -- --------<br>---- --------- the ------- ------------ ---------- ---------<br>--- ---------- ------- ---------- ------- -- -------- ----<br>---- --- ------ ----- ------ -- ---- --- ----- -- - -------<br>-------- -- --- --- -- ----- ----------- ----- -----------<br>---- --- ---------- --- ---- --- -- ----------,216592.5,216591.90000003576,216049.84,216065.60000002384,216088.567,216599.622,,12,the
screen,html.Screen,2_3_1_0_1_13,2022-02-15T16:47:57.184Z,,,,,,,,,,,,,,,,,51,,,,,,,,,,,,,,781.377999999997,,response,,,,13,B,,,,,,Space,keypress(Space),,,,lyrical,,,,-------- -------- --- --- ---- --- --- ------ -- --------<br>---- --------- --- federal ------------ ---------- ---------<br>--- ---------- ------- ---------- ------- -- -------- ----<br>---- --- ------ ----- ------ -- ---- --- ----- -- - -------<br>-------- -- --- --- -- ----- ----------- ----- -----------<br>---- --- ---------- --- ---- --- -- ----------,217381.60000002384,217381,216582.956,216592.60000002384,216599.622,217413.163,,13,federal
screen,html.Screen,2_3_1_0_1_14,2022-02-15T16:47:57.649Z,,,,,,,,,,,,,,,,,51,,,,,,,,,,,,,,432.13700001192046,,response,,,,13,B,,,,,,Space,keypress(Space),,,,lyrical,,,,-------- -------- --- --- ---- --- --- ------ -- --------<br>---- --------- --- ------- government's ---------- ---------<br>--- ---------- ------- ---------- ------- -- -------- ----<br>---- --- ------ ----- ------ -- ---- --- ----- -- - -------<br>-------- -- --- --- -- ----- ----------- ----- -----------<br>---- --- ---------- --- ---- --- -- ----------,217845.80000001192,217845.30000001192,217365.911,217381.70000004768,217413.163,217848.931,,14,government's
screen,html.Screen,2_3_1_0_1_15,2022-02-15T16:47:58.366Z,,,,,,,,,,,,,,,,,51,,,,,,,,,,,,,,713.2690000476723,,response,,,,13,B,,,,,,Space,keypress(Space),,,,lyrical,,,,-------- -------- --- --- ---- --- --- ------ -- --------<br>---- --------- --- ------- ------------ regulatory ---------<br>--- ---------- ------- ---------- ------- -- -------- ----<br>---- --- ------ ----- ------ -- ---- --- ----- -- - -------<br>-------- -- --- --- -- ----- ----------- ----- -----------<br>---- --- ---------- --- ---- --- -- ----------,218562.80000001192,218562.20000004768,217832.388,217846,217848.931,218565.296,,15,regulatory
screen,html.Screen,2_3_1_0_1_16,2022-02-15T16:47:59.011Z,,,,,,,,,,,,,,,,,51,,,,,,,,,,,,,,642.3040000238398,,response,,,,13,B,,,,,,Space,keypress(Space),,,,lyrical,,,,-------- -------- --- --- ---- --- --- ------ -- --------<br>---- --------- --- ------- ------------ ---------- apparatus<br>--- ---------- ------- ---------- ------- -- -------- ----<br>---- --- ------ ----- ------ -- ---- --- ----- -- - -------<br>-------- -- --- --- -- ----- ----------- ----- -----------<br>---- --- ---------- --- ---- --- -- ----------,219208.10000002384,219207.60000002384,218548.762,218562.90000003576,218565.296,219215.057,,16,apparatus
screen,html.Screen,2_3_1_0_1_17,2022-02-15T16:47:59.478Z,,,,,,,,,,,,,,,,,51,,,,,,,,,,,,,,459.3430000357621,,response,,,,13,B,,,,,,Space,keypress(Space),,,,lyrical,,,,-------- -------- --- --- ---- --- --- ------ -- --------<br>---- --------- --- ------- ------------ ---------- ---------<br>may ---------- ------- ---------- ------- -- -------- ----<br>---- --- ------ ----- ------ -- ---- --- ----- -- - -------<br>-------- -- --- --- -- ----- ----------- ----- -----------<br>---- --- ---------- --- ---- --- -- ----------,219675,219674.40000003576,219198.367,219208.20000004768,219215.057,219681.429,,17,may
screen,html.Screen,2_3_1_0_1_18,2022-02-15T16:47:59.986Z,,,,,,,,,,,,,,,,,51,,,,,,,,,,,,,,500.5709999999963,,response,,,,13,B,,,,,,Space,keypress(Space),,,,lyrical,,,,-------- -------- --- --- ---- --- --- ------ -- --------<br>---- --------- --- ------- ------------ ---------- ---------<br>--- profoundly ------- ---------- ------- -- -------- ----<br>---- --- ------ ----- ------ -- ---- --- ----- -- - -------<br>-------- -- --- --- -- ----- ----------- ----- -----------<br>---- --- ---------- --- ---- --- -- ----------,220182.60000002384,220182,219664.862,219675.10000002384,219681.429,220197.94,,18,profoundly
screen,html.Screen,2_3_1_0_1_19,2022-02-15T16:48:00.556Z,,,,,,,,,,,,,,,,,51,,,,,,,,,,,,,,554.9600000357605,,response,,,,13,B,,,,,,Space,keypress(Space),,,,lyrical,,,,-------- -------- --- --- ---- --- --- ------ -- --------<br>---- --------- --- ------- ------------ ---------- ---------<br>--- ---------- improve ---------- ------- -- -------- ----<br>---- --- ------ ----- ------ -- ---- --- ----- -- - -------<br>-------- -- --- --- -- ----- ----------- ----- -----------<br>---- --- ---------- --- ---- --- -- ----------,220753.5,220752.90000003576,220181.315,220182.60000002384,220197.94,220764.354,,19,improve
screen,html.Screen,2_3_1_0_1_20,2022-02-15T16:48:01.008Z,,,,,,,,,,,,,,,,,51,,,,,,,,,,,,,,440.6460000000079,,response,,,,13,B,,,,,,Space,keypress(Space),,,,lyrical,,,,-------- -------- --- --- ---- --- --- ------ -- --------<br>---- --------- --- ------- ------------ ---------- ---------<br>--- ---------- ------- companies' ------- -- -------- ----<br>---- --- ------ ----- ------ -- ---- --- ----- -- - -------<br>-------- -- --- --- -- ----- ----------- ----- -----------<br>---- --- ---------- --- ---- --- -- ----------,221205.60000002384,221205,220747.654,220753.5,220764.354,221214.176,,20,companies'
screen,html.Screen,2_3_1_0_1_21,2022-02-15T16:48:01.446Z,,,,,,,,,,,,,,,,,51,,,,,,,,,,,,,,428.1240000119142,,response,,,,13,B,,,,,,Space,keypress(Space),,,,lyrical,,,,-------- -------- --- --- ---- --- --- ------ -- --------<br>---- --------- --- ------- ------------ ---------- ---------<br>--- ---------- ------- ---------- ability -- -------- ----<br>---- --- ------ ----- ------ -- ---- --- ----- -- - -------<br>-------- -- --- --- -- ----- ----------- ----- -----------<br>---- --- ---------- --- ---- --- -- ----------,221642.80000001192,221642.30000001192,221197.432,221205.70000004768,221214.176,221647.222,,21,ability
screen,html.Screen,2_3_1_0_1_22,2022-02-15T16:48:01.855Z,,,,,,,,,,,,,,,,,51,,,,,,,,,,,,,,403.97800004767487,,response,,,,13,B,,,,,,Space,keypress(Space),,,,lyrical,,,,-------- -------- --- --- ---- --- --- ------ -- --------<br>---- --------- --- ------- ------------ ---------- ---------<br>--- ---------- ------- ---------- ------- to -------- ----<br>---- --- ------ ----- ------ -- ---- --- ----- -- - -------<br>-------- -- --- --- -- ----- ----------- ----- -----------<br>---- --- ---------- --- ---- --- -- ----------,222051.80000001192,222051.20000004768,221630.698,221642.90000003576,221647.222,222063.76,,22,to
screen,html.Screen,2_3_1_0_1_23,2022-02-15T16:48:02.407Z,,,,,,,,,,,,,,,,,51,,,,,,,,,,,,,,540.1400000357535,,response,,,,13,B,,,,,,Space,keypress(Space),,,,lyrical,,,,-------- -------- --- --- ---- --- --- ------ -- --------<br>---- --------- --- ------- ------------ ---------- ---------<br>--- ---------- ------- ---------- ------- -- survive. ----<br>---- --- ------ ----- ------ -- ---- --- ----- -- - -------<br>-------- -- --- --- -- ----- ----------- ----- -----------<br>---- --- ---------- --- ---- --- -- ----------,222604.5,222603.90000003576,222047.099,222051.90000003576,222063.76,222613.537,,23,survive.
screen,html.Screen,2_3_1_0_1_24,2022-02-15T16:48:02.798Z,,,,,,,,,,,,,,,,,51,,,,,,,,,,,,,,380.9629999999888,,response,,,,13,B,,,,,,Space,keypress(Space),,,,lyrical,,,,-------- -------- --- --- ---- --- --- ------ -- --------<br>---- --------- --- ------- ------------ ---------- ---------<br>--- ---------- ------- ---------- ------- -- -------- This<br>---- --- ------ ----- ------ -- ---- --- ----- -- - -------<br>-------- -- --- --- -- ----- ----------- ----- -----------<br>---- --- ---------- --- ---- --- -- ----------,222995.10000002384,222994.5,222596.771,222604.60000002384,222613.537,223025.576,,24,This
screen,html.Screen,2_3_1_0_1_25,2022-02-15T16:48:03.195Z,,,,,,,,,,,,,,,,,51,,,,,,,,,,,,,,365.82400003576186,,response,,,,13,B,,,,,,Space,keypress(Space),,,,lyrical,,,,-------- -------- --- --- ---- --- --- ------ -- --------<br>---- --------- --- ------- ------------ ---------- ---------<br>--- ---------- ------- ---------- ------- -- -------- ----<br>week --- ------ ----- ------ -- ---- --- ----- -- - -------<br>-------- -- --- --- -- ----- ----------- ----- -----------<br>---- --- ---------- --- ---- --- -- ----------,223392,223391.40000003576,222980.003,222995.20000004768,223025.576,223396.369,,25,week
screen,html.Screen,2_3_1_0_1_26,2022-02-15T16:48:03.633Z,,,,,,,,,,,,,,,,,51,,,,,,,,,,,,,,433.7310000238358,,response,,,,13,B,,,,,,Space,keypress(Space),,,,lyrical,,,,-------- -------- --- --- ---- --- --- ------ -- --------<br>---- --------- --- ------- ------------ ---------- ---------<br>--- ---------- ------- ---------- ------- -- -------- ----<br>---- the ------ ----- ------ -- ---- --- ----- -- - -------<br>-------- -- --- --- -- ----- ----------- ----- -----------<br>---- --- ---------- --- ---- --- -- ----------,223830.60000002384,223830.10000002384,223379.859,223392,223396.369,223846.29,,26,the
screen,html.Screen,2_3_1_0_1_27,2022-02-15T16:48:04.022Z,,,,,,,,,,,,,,,,,51,,,,,,,,,,,,,,371.70999999999185,,response,,,,13,B,,,,,,Space,keypress(Space),,,,lyrical,,,,-------- -------- --- --- ---- --- --- ------ -- --------<br>---- --------- --- ------- ------------ ---------- ---------<br>--- ---------- ------- ---------- ------- -- -------- ----<br>---- --- Senate ----- ------ -- ---- --- ----- -- - -------<br>-------- -- --- --- -- ----- ----------- ----- -----------<br>---- --- ---------- --- ---- --- -- ----------,224218.60000002384,224218,223829.643,223830.70000004768,223846.29,224229.342,,27,Senate
screen,html.Screen,2_3_1_0_1_28,2022-02-15T16:48:04.461Z,,,,,,,,,,,,,,,,,51,,,,,,,,,,,,,,428.25800002383767,,response,,,,13,B,,,,,,Space,keypress(Space),,,,lyrical,,,,-------- -------- --- --- ---- --- --- ------ -- --------<br>---- --------- --- ------- ------------ ---------- ---------<br>--- ---------- ------- ---------- ------- -- -------- ----<br>---- --- ------ seems ------ -- ---- --- ----- -- - -------<br>-------- -- --- --- -- ----- ----------- ----- -----------<br>---- --- ---------- --- ---- --- -- ----------,224658.20000004768,224657.60000002384,224212.742,224218.70000004768,224229.342,224662.579,,28,seems
screen,html.Screen,2_3_1_0_1_29,2022-02-15T16:48:04.857Z,,,,,,,,,,,,,,,,,51,,,,,,,,,,,,,,391.221000011923,,response,,,,13,B,,,,,,Space,keypress(Space),,,,lyrical,,,,-------- -------- --- --- ---- --- --- ------ -- --------<br>---- --------- --- ------- ------------ ---------- ---------<br>--- ---------- ------- ---------- ------- -- -------- ----<br>---- --- ------ ----- poised -- ---- --- ----- -- - -------<br>-------- -- --- --- -- ----- ----------- ----- -----------<br>---- --- ---------- --- ---- --- -- ----------,225054.30000001192,225053.80000001192,224645.935,224658.40000003576,224662.579,225062.334,,29,poised
screen,html.Screen,2_3_1_0_1_30,2022-02-15T16:48:05.698Z,,,,,,,,,,,,,,,,,51,,,,,,,,,,,,,,832.5660000357602,,response,,,,13,B,,,,,,Space,keypress(Space),,,,lyrical,,,,-------- -------- --- --- ---- --- --- ------ -- --------<br>---- --------- --- ------- ------------ ---------- ---------<br>--- ---------- ------- ---------- ------- -- -------- ----<br>---- --- ------ ----- ------ to ---- --- ----- -- - -------<br>-------- -- --- --- -- ----- ----------- ----- -----------<br>---- --- ---------- --- ---- --- -- ----------,225895.5,225894.90000003576,225045.747,225054.40000003576,225062.334,225912.009,,30,to
screen,html.Screen,2_3_1_0_1_31,2022-02-15T16:48:06.719Z,,,,,,,,,,,,,,,,,51,,,,,,,,,,,,,,1003.6910000476928,,response,,,,13,B,,,,,,Space,keypress(Space),,,,lyrical,,,,-------- -------- --- --- ---- --- --- ------ -- --------<br>---- --------- --- ------- ------------ ---------- ---------<br>--- ---------- ------- ---------- ------- -- -------- ----<br>---- --- ------ ----- ------ -- join --- ----- -- - -------<br>-------- -- --- --- -- ----- ----------- ----- -----------<br>---- --- ---------- --- ---- --- -- ----------,226916.40000003576,226915.70000004768,225895.403,225895.60000002384,225912.009,226928.228,,31,join
screen,html.Screen,2_3_1_0_1_32,2022-02-15T16:48:07.040Z,,,,,,,,,,,,,,,,,51,,,,,,,,,,,,,,308.17200003576,,response,,,,13,B,,,,,,Space,keypress(Space),,,,lyrical,,,,-------- -------- --- --- ---- --- --- ------ -- --------<br>---- --------- --- ------- ------------ ---------- ---------<br>--- ---------- ------- ---------- ------- -- -------- ----<br>---- --- ------ ----- ------ -- ---- the ----- -- - -------<br>-------- -- --- --- -- ----- ----------- ----- -----------<br>---- --- ---------- --- ---- --- -- ----------,227237,227236.40000003576,226911.573,226916.5,226928.228,227244.622,,32,the
screen,html.Screen,2_3_1_0_1_33,2022-02-15T16:48:07.519Z,,,,,,,,,,,,,,,,,51,,,,,,,,,,,,,,471.1780000119179,,response,,,,13,B,,,,,,Space,keypress(Space),,,,lyrical,,,,-------- -------- --- --- ---- --- --- ------ -- --------<br>---- --------- --- ------- ------------ ---------- ---------<br>--- ---------- ------- ---------- ------- -- -------- ----<br>---- --- ------ ----- ------ -- ---- --- House -- - -------<br>-------- -- --- --- -- ----- ----------- ----- -----------<br>---- --- ---------- --- ---- --- -- ----------,227716.40000003576,227715.80000001192,227228.056,227237.10000002384,227244.622,227727.838,,33,House
screen,html.Screen,2_3_1_0_1_34,2022-02-15T16:48:07.953Z,,,,,,,,,,,,,,,,,51,,,,,,,,,,,,,,421.9620000119321,,response,,,,13,B,,,,,,Space,keypress(Space),,,,lyrical,,,,-------- -------- --- --- ---- --- --- ------ -- --------<br>---- --------- --- ------- ------------ ---------- ---------<br>--- ---------- ------- ---------- ------- -- -------- ----<br>---- --- ------ ----- ------ -- ---- --- ----- in - -------<br>-------- -- --- --- -- ----- ----------- ----- -----------<br>---- --- ---------- --- ---- --- -- ----------,228150.40000003576,228149.80000001192,227711.209,227716.60000002384,227727.838,228160.987,,34,in
screen,html.Screen,2_3_1_0_1_35,2022-02-15T16:48:08.301Z,,,,,,,,,,,,,,,,,51,,,,,,,,,,,,,,336.21300004769,,response,,,,13,B,,,,,,Space,keypress(Space),,,,lyrical,,,,-------- -------- --- --- ---- --- --- ------ -- --------<br>---- --------- --- ------- ------------ ---------- ---------<br>--- ---------- ------- ---------- ------- -- -------- ----<br>---- --- ------ ----- ------ -- ---- --- ----- -- a -------<br>-------- -- --- --- -- ----- ----------- ----- -----------<br>---- --- ---------- --- ---- --- -- ----------,228497.70000004768,228497.20000004768,228144.363,228150.40000003576,228160.987,228510.836,,35,a
screen,html.Screen,2_3_1_0_1_36,2022-02-15T16:48:08.874Z,,,,,,,,,,,,,,,,,51,,,,,,,,,,,,,,559.6639999999898,,response,,,,13,B,,,,,,Space,keypress(Space),,,,lyrical,,,,-------- -------- --- --- ---- --- --- ------ -- --------<br>---- --------- --- ------- ------------ ---------- ---------<br>--- ---------- ------- ---------- ------- -- -------- ----<br>---- --- ------ ----- ------ -- ---- --- ----- -- - massive<br>-------- -- --- --- -- ----- ----------- ----- -----------<br>---- --- ---------- --- ---- --- -- ----------,229071.10000002384,229070.5,228494.144,228497.80000001192,228510.836,229077.213,,36,massive
screen,html.Screen,2_3_1_0_1_37,2022-02-15T16:48:09.410Z,,,,,,,,,,,,,,,,,51,,,,,,,,,,,,,,528.887000023853,,response,,,,13,B,,,,,,Space,keypress(Space),,,,lyrical,,,,-------- -------- --- --- ---- --- --- ------ -- --------<br>---- --------- --- ------- ------------ ---------- ---------<br>--- ---------- ------- ---------- ------- -- -------- ----<br>---- --- ------ ----- ------ -- ---- --- ----- -- - -------<br>overhaul -- --- --- -- ----- ----------- ----- -----------<br>---- --- ---------- --- ---- --- -- ----------,229606.70000004768,229606.10000002384,229060.551,229071.20000004768,229077.213,229610.271,,37,overhaul
screen,html.Screen,2_3_1_0_1_38,2022-02-15T16:48:09.885Z,,,,,,,,,,,,,,,,,51,,,,,,,,,,,,,,471.4290000476758,,response,,,,13,B,,,,,,Space,keypress(Space),,,,lyrical,,,,-------- -------- --- --- ---- --- --- ------ -- --------<br>---- --------- --- ------- ------------ ---------- ---------<br>--- ---------- ------- ---------- ------- -- -------- ----<br>---- --- ------ ----- ------ -- ---- --- ----- -- - -------<br>-------- of --- --- -- ----- ----------- ----- -----------<br>---- --- ---------- --- ---- --- -- ----------,230082.30000001192,230081.70000004768,229593.697,229606.70000004768,229610.271,230093.429,,38,of
