sender,sender_type,sender_id,timestamp,meta,,Blues,Classical,Country,Dance,Electronic,Folk,Gospel,Hip-Hop,Jazz,Latin,Musical/Film,New-age,Pop,Prolific_id,Provo_ID,R&B,Rap,Reggae,Religious,Rock,Soul,Swing,Traditional,age,artist_name,correct,correctResponse,distraction,duration,education,ended_on,familiarity,gender,headphone_check_performance,item,list,music_frequency,offensiveness,pleasantness,position_correct,preference,response,response_action,snippet_file,song_name,song_rating,sound,stimulus_1,stimulus_2,stimulus_3,text,time_commit,time_end,time_render,time_run,time_show,time_switch,url,word,word_ID
Prolific ID,html.Form,0,2022-05-11T12:41:50.183Z,"{""labjs_version"":""20.2.2"",""labjs_build"":{""flavor"":""production"",""commit"":""a25486e0c714a0ae2ce03ff94b7bb6896854dcfa""},""location"":""https://run.pavlovia.org/mvasilev/prolific2_music_d/"",""userAgent"":""Mozilla/5.0 (Macintosh; Intel Mac OS X 10_15_7) AppleWebKit/537.36 (KHTML, like Gecko) Chrome/101.0.4951.54 Safari/537.36"",""platform"":""MacIntel"",""language"":""en-GB"",""locale"":""en-GB"",""timeZone"":""Europe/London"",""timezoneOffset"":-60,""screen_width"":1680,""screen_height"":1050,""scroll_width"":1680,""scroll_height"":851,""window_innerWidth"":1680,""window_innerHeight"":899,""devicePixelRatio"":2}",,,,,,,,,,,,,,,5e66c77e8ebdaf4466e26326,,,,,,,,,,,,,,,7911.35799961853,,form submission,,,,,,,,,,,,,,,,,,,,,14218.099999427795,14217.89999961853,6289.875,6305.299999237061,6306.542,14223.393,{},,
Introduction,html.Screen,1_0,2022-05-11T12:41:52.387Z,,,,,,,,,,,,,,,,,,,,,,,,,,,,,,,2197.107,,response,,,,,,,,,,,continue,click button,,,,,,,,,16421.89999961853,16420.5,14206.726,14218.199999809265,14223.393,16440.104,,,
Volume calibration,html.Screen,1_1,2022-05-11T12:41:55.424Z,,,,,,,,,,,,,,,,,,,,,,,,,,,,,,,3013.095999809266,,response,,,,,,,,,,,continue,click button,,,,,,,,,19459.29999923706,19453.199999809265,16423.437,16422.099999427795,16440.104,19456.831,,,
Task instructions,html.Screen,1_2,2022-05-11T12:41:57.463Z,,,,,,,,,,,,,,,,,,,,,,,,,,,,,,,2040.068999618532,,response,,,,,,,,,,,continue,click button,,,,,,,,,21498.79999923706,21496.89999961853,19440.164,19459.39999961853,19456.831,21523.564,,,
Sounds,html.Screen,1_3_0_0,2022-05-11T12:42:01.726Z,,,,,,,,,,,,,,,,,,,,,,,,,,,,,,,4250.085000000003,,timeout,,,,,,,,,2,,,,,,,,O,S,I,,25761.599999427795,25756.982,21506.897,21499.099999427795,21523.564,25773.649,,,
Judgement,html.Screen,1_3_0_1,2022-05-11T12:42:04.140Z,,,,,,,,,,,,,,,,,,,,,,,,,,,,true,2,,2400.250999618529,,response,,,,,,,,,2,,2,click #choice-2,,,,,O,S,I,,28176.199999809265,28173.89999961853,25756.982,25761.89999961853,25773.649,28190.39,,,
Trial,flow.Sequence,1_3_0,2022-05-11T12:42:04.142Z,,,,,,,,,,,,,,,,,,,,,,,,,,,,,,,6650.335999618532,,completion,,,,,,,,,2,,,,,,,,O,S,I,,28178.29999923706,28173.89999961853,21506.897,21499,21523.564,28190.39,,,
Sounds,html.Screen,1_3_1_0,2022-05-11T12:42:08.391Z,,,,,,,,,,,,,,,,,,,,,,,,,,,,,,,4250.084999999999,,timeout,,,,,,,,,1,,,,,,,,S,O,I,,32426.5,32423.808,28173.723,28178.39999961853,28190.39,32440.475,,,
Judgement,html.Screen,1_3_1_1,2022-05-11T12:42:09.065Z,,,,,,,,,,,,,,,,,,,,,,,,,,,,true,1,,658.5250000000015,,response,,,,,,,,,1,,1,click #choice-1,,,,,S,O,I,,33101.29999923706,33099,32423.808,32426.699999809265,32440.475,33123.822,,,
Trial,flow.Sequence,1_3_1,2022-05-11T12:42:09.066Z,,,,,,,,,,,,,,,,,,,,,,,,,,,,,,,4908.610000000001,,completion,,,,,,,,,1,,,,,,,,S,O,I,,33101.599999427795,33099,28173.723,28178.39999961853,28190.39,33123.822,,,
Sounds,html.Screen,1_3_2_0,2022-05-11T12:42:13.324Z,,,,,,,,,,,,,,,,,,,,,,,,,,,,,,,4250.084999999999,,timeout,,,,,,,,,1,,,,,,,,S,I,O,,37360.5,37357.24,33107.155,33101.89999961853,33123.822,37373.907,,,
Judgement,html.Screen,1_3_2_1,2022-05-11T12:42:13.733Z,,,,,,,,,,,,,,,,,,,,,,,,,,,,true,1,,393.59300000000076,,response,,,,,,,,,1,,1,click #choice-1,,,,,S,I,O,,37769.5,37767.5,37357.24,37360.79999923706,37373.907,37773.915,,,
Trial,flow.Sequence,1_3_2,2022-05-11T12:42:13.734Z,,,,,,,,,,,,,,,,,,,,,,,,,,,,,,,4643.678,,completion,,,,,,,,,1,,,,,,,,S,I,O,,37769.699999809265,37767.5,33107.155,33101.79999923706,33123.822,37773.915,,,
Sounds,html.Screen,1_3_3_0,2022-05-11T12:42:17.974Z,,,,,,,,,,,,,,,,,,,,,,,,,,,,,,,4250.112000000001,,timeout,,,,,,,,,3,,,,,,,,O,I,S,,42009.89999961853,42007.36,37757.248,37769.89999961853,37773.915,42024.027,,,
Judgement,html.Screen,1_3_3_1,2022-05-11T12:42:18.365Z,,,,,,,,,,,,,,,,,,,,,,,,,,,,true,3,,374.97299999999814,,response,,,,,,,,,3,,3,click #choice-3,,,,,O,I,S,,42401.29999923706,42399,42007.36,42010.199999809265,42024.027,42424.035,,,
Trial,flow.Sequence,1_3_3,2022-05-11T12:42:18.365Z,,,,,,,,,,,,,,,,,,,,,,,,,,,,,,,4625.084999999999,,completion,,,,,,,,,3,,,,,,,,O,I,S,,42401.5,42399,37757.248,37769.79999923706,37773.915,42424.035,,,
Sounds,html.Screen,1_3_4_0,2022-05-11T12:42:22.624Z,,,,,,,,,,,,,,,,,,,,,,,,,,,,,,,4250.084999999999,,timeout,,,,,,,,,3,,,,,,,,I,O,S,,46660.199999809265,46657.453,42407.368,42401.699999809265,42424.035,46674.12,,,
Judgement,html.Screen,1_3_4_1,2022-05-11T12:42:23.052Z,,,,,,,,,,,,,,,,,,,,,,,,,,,,true,3,,412.1799992370579,,response,,,,,,,,,3,,3,click #choice-3,,,,,I,O,S,,47088.199999809265,47086.29999923706,46657.453,46660.39999961853,46674.12,47107.462,,,
Trial,flow.Sequence,1_3_4,2022-05-11T12:42:23.052Z,,,,,,,,,,,,,,,,,,,,,,,,,,,,,,,4662.264999237057,,completion,,,,,,,,,3,,,,,,,,I,O,S,,47088.5,47086.29999923706,42407.368,42401.699999809265,42424.035,47107.462,,,
Sounds,html.Screen,1_3_5_0,2022-05-11T12:42:27.307Z,,,,,,,,,,,,,,,,,,,,,,,,,,,,,,,4250.084999999999,,timeout,,,,,,,,,2,,,,,,,,I,S,O,,51343.599999427795,51340.88,47090.795,47088.599999427795,47107.462,51357.547,,,
Judgement,html.Screen,1_3_5_1,2022-05-11T12:42:27.957Z,,,,,,,,,,,,,,,,,,,,,,,,,,,,true,2,,631.9530000000013,,response,,,,,,,,,2,,2,click #choice-2,,,,,I,S,O,,51993.29999923706,51989.5,51340.88,51343.79999923706,51357.547,52007.56,,,
Trial,flow.Sequence,1_3_5,2022-05-11T12:42:27.957Z,,,,,,,,,,,,,,,,,,,,,,,,,,,,,,,4882.0380000000005,,completion,,,,,,,,,2,,,,,,,,I,S,O,,51993.699999809265,51989.5,47090.795,47088.5,47107.462,52007.56,,,
Task,flow.Loop,1_3,2022-05-11T12:42:27.962Z,,,,,,,,,,,,,,,,,,,,,,,,,,,,,,,30465.936,,completion,,,1,,,,,,,,,,,,,,,,,,51998.599999427795,51989.5,21506.897,21499,21523.564,52007.56,,,
Trap,html.Screen,1_4,2022-05-11T12:42:27.963Z,,,,,,,,,,,,,,,,,,,,,,,,,,,,,,,NaN,,skipped,,,,,,,,,,,,,,,,,,,,,51999.699999809265,51989.5,,51999.699999809265,,52007.56,,,
Thanks,html.Screen,1_5,2022-05-11T12:42:30.550Z,,,,,,,,,,,,,,,,,,,,,,,,,,,,,,,2577.3399996185326,,response,,,,,,,,,,,continue,click button,,,,,,,,,54587.099999427795,54584.89999961853,51990.893,51999.699999809265,52007.56,57240.914,,,
Headphone screening,flow.Sequence,1,2022-05-11T12:42:30.551Z,,,,,,,,,,,,,,,,,,,,,,,,,,,,,,,40361.506999618534,,completion,,,,,,,,,,,,,,,,,,,,,54587.39999961853,54584.89999961853,14206.726,14218.199999809265,14223.393,57240.914,,,
Instructions,html.Page,2_0,2022-05-11T12:42:34.902Z,,,,,,,,,,,,,,,,,,,,,,,,,,,,,,,1697.8859992370635,,form submission,,,,,,,,,,,,,,,,,,,,,58939.199999809265,58938.79999923706,57224.247,57239,57240.914,58957.615,,,
Holding screen,html.Screen,2_1_0_0,2022-05-11T12:42:44.906Z,,,,,,,,,,,,,,,,,,,,,,,,,,,,,,,10016.916000000005,,timeout,,,,,,,,,,,,,,,,,,,,,68943.5,68941.197,58940.948,58939.699999809265,58957.615,68974.531,,,
screen,html.Screen,2_1_0_1_0,2022-05-11T12:42:46.399Z,,,,,,,,,,,,,,,,,53,,,,,,,,,,,,,,1450.5689994277927,,response,,,,99,,,,,,,Space,keypress(Space),,,,,,,,When -- ----- -- ------ - ------- --- ----------<br>------------- ------ ------ ---- ---- ------- ----- -- ----<br>-------- ------- -- ---------- --- - --- ----- ----- ----<br>---- --- --- ----- --- ---- ---- ------- ----- ---- -------<br>--- --- -- ----- -- --- ---- -- --- ---- -- ------ ------<br>--- ----- -- ----,70435.89999961853,70425.0999994278,68941.197,68943.89999961853,68974.531,70441.227,,0,When
screen,html.Screen,2_1_0_1_1,2022-05-11T12:42:46.591Z,,,,,,,,,,,,,,,,,53,,,,,,,,,,,,,,181.67299961853132,,response,,,,99,,,,,,,Space,keypress(Space),,,,,,,,---- it ----- -- ------ - ------- --- ----------<br>------------- ------ ------ ---- ---- ------- ----- -- ----<br>-------- ------- -- ---------- --- - --- ----- ----- ----<br>---- --- --- ----- --- ---- ---- ------- ----- ---- -------<br>--- --- -- ----- -- --- ---- -- --- ---- -- ------ ------<br>--- ----- -- ----,70627.89999961853,70622.89999961853,70424.56,70436.0999994278,70441.227,70641.231,,1,it
screen,html.Screen,2_1_0_1_2,2022-05-11T12:42:46.794Z,,,,,,,,,,,,,,,,,53,,,,,,,,,,,,,,183.96899980926537,,response,,,,99,,,,,,,Space,keypress(Space),,,,,,,,---- -- comes -- ------ - ------- --- ----------<br>------------- ------ ------ ---- ---- ------- ----- -- ----<br>-------- ------- -- ---------- --- - --- ----- ----- ----<br>---- --- --- ----- --- ---- ---- ------- ----- ---- -------<br>--- --- -- ----- -- --- ---- -- --- ---- -- ------ ------<br>--- ----- -- ----,70830.69999980927,70825.19999980927,70624.564,70628,70641.231,70841.235,,2,comes
screen,html.Screen,2_1_0_1_3,2022-05-11T12:42:47.004Z,,,,,,,,,,,,,,,,,53,,,,,,,,,,,,,,193.96499980926455,,response,,,,99,,,,,,,Space,keypress(Space),,,,,,,,---- -- ----- to ------ - ------- --- ----------<br>------------- ------ ------ ---- ---- ------- ----- -- ----<br>-------- ------- -- ---------- --- - --- ----- ----- ----<br>---- --- --- ----- --- ---- ---- ------- ----- ---- -------<br>--- --- -- ----- -- --- ---- -- --- ---- -- ------ ------<br>--- ----- -- ----,71041.39999961853,71035.19999980927,70824.568,70832.5999994278,70841.235,71057.906,,3,to
screen,html.Screen,2_1_0_1_4,2022-05-11T12:42:47.197Z,,,,,,,,,,,,,,,,,53,,,,,,,,,,,,,,170.19399942779273,,response,,,,99,,,,,,,Space,keypress(Space),,,,,,,,---- -- ----- -- having - ------- --- ----------<br>------------- ------ ------ ---- ---- ------- ----- -- ----<br>-------- ------- -- ---------- --- - --- ----- ----- ----<br>---- --- --- ----- --- ---- ---- ------- ----- ---- -------<br>--- --- -- ----- -- --- ---- -- --- ---- -- ------ ------<br>--- ----- -- ----,71234.39999961853,71228.0999994278,71041.239,71041.5999994278,71057.906,71241.243,,4,having
screen,html.Screen,2_1_0_1_5,2022-05-11T12:42:47.401Z,,,,,,,,,,,,,,,,,53,,,,,,,,,,,,,,190.55699923705833,,response,,,,99,,,,,,,Space,keypress(Space),,,,,,,,---- -- ----- -- ------ a ------- --- ----------<br>------------- ------ ------ ---- ---- ------- ----- -- ----<br>-------- ------- -- ---------- --- - --- ----- ----- ----<br>---- --- --- ----- --- ---- ---- ------- ----- ---- -------<br>--- --- -- ----- -- --- ---- -- --- ---- -- ------ ------<br>--- ----- -- ----,71438.29999923706,71431.79999923706,71224.576,71234.79999923706,71241.243,71441.247,,5,a
screen,html.Screen,2_1_0_1_6,2022-05-11T12:42:47.609Z,,,,,,,,,,,,,,,,,53,,,,,,,,,,,,,,199.55299923705752,,response,,,,99,,,,,,,Space,keypress(Space),,,,,,,,---- -- ----- -- ------ - lasting --- ----------<br>------------- ------ ------ ---- ---- ------- ----- -- ----<br>-------- ------- -- ---------- --- - --- ----- ----- ----<br>---- --- --- ----- --- ---- ---- ------- ----- ---- -------<br>--- --- -- ----- -- --- ---- -- --- ---- -- ------ ------<br>--- ----- -- ----,71646.29999923706,71640.79999923706,71424.58,71438.69999980927,71441.247,71657.918,,6,lasting
screen,html.Screen,2_1_0_1_7,2022-05-11T12:42:47.816Z,,,,,,,,,,,,,,,,,53,,,,,,,,,,,,,,190.98199961852515,,response,,,,99,,,,,,,Space,keypress(Space),,,,,,,,---- -- ----- -- ------ - ------- and ----------<br>------------- ------ ------ ---- ---- ------- ----- -- ----<br>-------- ------- -- ---------- --- - --- ----- ----- ----<br>---- --- --- ----- --- ---- ---- ------- ----- ---- -------<br>--- --- -- ----- -- --- ---- -- --- ---- -- ------ ------<br>--- ----- -- ----,71853.29999923706,71848.89999961853,71641.251,71646.5999994278,71657.918,71857.922,,7,and
screen,html.Screen,2_1_0_1_8,2022-05-11T12:42:48.039Z,,,,,,,,,,,,,,,,,53,,,,,,,,,,,,,,212.97799961852434,,response,,,,99,,,,,,,Space,keypress(Space),,,,,,,,---- -- ----- -- ------ - ------- --- fulfilling<br>------------- ------ ------ ---- ---- ------- ----- -- ----<br>-------- ------- -- ---------- --- - --- ----- ----- ----<br>---- --- --- ----- --- ---- ---- ------- ----- ---- -------<br>--- --- -- ----- -- --- ---- -- --- ---- -- ------ ------<br>--- ----- -- ----,72075.89999961853,72070.89999961853,71841.255,71853.5999994278,71857.922,72091.26,,8,fulfilling
screen,html.Screen,2_1_0_1_9,2022-05-11T12:42:48.242Z,,,,,,,,,,,,,,,,,53,,,,,,,,,,,,,,183.24000000000524,,response,,,,99,,,,,,,Space,keypress(Space),,,,,,,,"---- -- ----- -- ------ - ------- --- ----------<br>relationship, ------ ------ ---- ---- ------- ----- -- ----<br>-------- ------- -- ---------- --- - --- ----- ----- ----<br>---- --- --- ----- --- ---- ---- ------- ----- ---- -------<br>--- --- -- ----- -- --- ---- -- --- ---- -- ------ ------<br>--- ----- -- ----",72278.89999961853,72274.5,72074.593,72076.0999994278,72091.26,72291.264,,9,"relationship,"
screen,html.Screen,2_1_0_1_10,2022-05-11T12:42:48.440Z,,,,,,,,,,,,,,,,,53,,,,,,,,,,,,,,182.23600000000442,,response,,,,99,,,,,,,Space,keypress(Space),,,,,,,,---- -- ----- -- ------ - ------- --- ----------<br>------------- common ------ ---- ---- ------- ----- -- ----<br>-------- ------- -- ---------- --- - --- ----- ----- ----<br>---- --- --- ----- --- ---- ---- ------- ----- ---- -------<br>--- --- -- ----- -- --- ---- -- --- ---- -- ------ ------<br>--- ----- -- ----,72477,72473.5,72274.597,72279.0999994278,72291.264,72491.293,,10,common
screen,html.Screen,2_1_0_1_11,2022-05-11T12:42:48.649Z,,,,,,,,,,,,,,,,,53,,,,,,,,,,,,,,189.8069994277903,,response,,,,99,,,,,,,Space,keypress(Space),,,,,,,,---- -- ----- -- ------ - ------- --- ----------<br>------------- ------ wisdom ---- ---- ------- ----- -- ----<br>-------- ------- -- ---------- --- - --- ----- ----- ----<br>---- --- --- ----- --- ---- ---- ------- ----- ---- -------<br>--- --- -- ----- -- --- ---- -- --- ---- -- ------ ------<br>--- ----- -- ----,72686.79999923706,72681.0999994278,72474.626,72477.29999923706,72491.293,72691.297,,11,wisdom
screen,html.Screen,2_1_0_1_12,2022-05-11T12:42:48.859Z,,,,,,,,,,,,,,,,,53,,,,,,,,,,,,,,198.9029998092592,,response,,,,99,,,,,,,Space,keypress(Space),,,,,,,,---- -- ----- -- ------ - ------- --- ----------<br>------------- ------ ------ says ---- ------- ----- -- ----<br>-------- ------- -- ---------- --- - --- ----- ----- ----<br>---- --- --- ----- --- ---- ---- ------- ----- ---- -------<br>--- --- -- ----- -- --- ---- -- --- ---- -- ------ ------<br>--- ----- -- ----,72896.19999980927,72890.19999980927,72674.63,72687,72691.297,72907.968,,12,says
screen,html.Screen,2_1_0_1_13,2022-05-11T12:42:49.071Z,,,,,,,,,,,,,,,,,53,,,,,,,,,,,,,,195.4319996185368,,response,,,,99,,,,,,,Space,keypress(Space),,,,,,,,---- -- ----- -- ------ - ------- --- ----------<br>------------- ------ ------ ---- that ------- ----- -- ----<br>-------- ------- -- ---------- --- - --- ----- ----- ----<br>---- --- --- ----- --- ---- ---- ------- ----- ---- -------<br>--- --- -- ----- -- --- ---- -- --- ---- -- ------ ------<br>--- ----- -- ----,73108.5999994278,73103.39999961853,72891.301,72896.5,72907.968,73124.639,,13,that
screen,html.Screen,2_1_0_1_14,2022-05-11T12:42:49.279Z,,,,,,,,,,,,,,,,,53,,,,,,,,,,,,,,184.56099980926956,,response,,,,99,,,,,,,Space,keypress(Space),,,,,,,,---- -- ----- -- ------ - ------- --- ----------<br>------------- ------ ------ ---- ---- feeling ----- -- ----<br>-------- ------- -- ---------- --- - --- ----- ----- ----<br>---- --- --- ----- --- ---- ---- ------- ----- ---- -------<br>--- --- -- ----- -- --- ---- -- --- ---- -- ------ ------<br>--- ----- -- ----,73316.29999923706,73309.19999980927,73107.972,73108.89999961853,73124.639,73324.643,,14,feeling
screen,html.Screen,2_1_0_1_15,2022-05-11T12:42:49.491Z,,,,,,,,,,,,,,,,,53,,,,,,,,,,,,,,197.55699980926875,,response,,,,99,,,,,,,Space,keypress(Space),,,,,,,,---- -- ----- -- ------ - ------- --- ----------<br>------------- ------ ------ ---- ---- ------- close -- ----<br>-------- ------- -- ---------- --- - --- ----- ----- ----<br>---- --- --- ----- --- ---- ---- ------- ----- ---- -------<br>--- --- -- ----- -- --- ---- -- --- ---- -- ------ ------<br>--- ----- -- ----,73528.29999923706,73522.19999980927,73307.976,73316.5,73324.643,73541.314,,15,close
screen,html.Screen,2_1_0_1_16,2022-05-11T12:42:49.680Z,,,,,,,,,,,,,,,,,53,,,,,,,,,,,,,,171.1860000000015,,response,,,,99,,,,,,,Space,keypress(Space),,,,,,,,---- -- ----- -- ------ - ------- --- ----------<br>------------- ------ ------ ---- ---- ------- ----- to ----<br>-------- ------- -- ---------- --- - --- ----- ----- ----<br>---- --- --- ----- --- ---- ---- ------- ----- ---- -------<br>--- --- -- ----- -- --- ---- -- --- ---- -- ------ ------<br>--- ----- -- ----,73717.0999994278,73712.5,73524.647,73528.5,73541.314,73724.651,,16,to
screen,html.Screen,2_1_0_1_17,2022-05-11T12:42:49.909Z,,,,,,,,,,,,,,,,,53,,,,,,,,,,,,,,215.4489994277974,,response,,,,99,,,,,,,Space,keypress(Space),,,,,,,,---- -- ----- -- ------ - ------- --- ----------<br>------------- ------ ------ ---- ---- ------- ----- -- your<br>-------- ------- -- ---------- --- - --- ----- ----- ----<br>---- --- --- ----- --- ---- ---- ------- ----- ---- -------<br>--- --- -- ----- -- --- ---- -- --- ---- -- ------ ------<br>--- ----- -- ----,73945.89999961853,73940.0999994278,73707.984,73717.39999961853,73724.651,73957.989,,17,your
screen,html.Screen,2_1_0_1_18,2022-05-11T12:42:50.124Z,,,,,,,,,,,,,,,,,53,,,,,,,,,,,,,,198.21099980926374,,response,,,,99,,,,,,,Space,keypress(Space),,,,,,,,---- -- ----- -- ------ - ------- --- ----------<br>------------- ------ ------ ---- ---- ------- ----- -- ----<br>romantic ------- -- ---------- --- - --- ----- ----- ----<br>---- --- --- ----- --- ---- ---- ------- ----- ---- -------<br>--- --- -- ----- -- --- ---- -- --- ---- -- ------ ------<br>--- ----- -- ----,74161.69999980927,74156.19999980927,73941.322,73946.39999961853,73957.989,74174.66,,18,romantic
screen,html.Screen,2_1_0_1_19,2022-05-11T12:42:50.336Z,,,,,,,,,,,,,,,,,53,,,,,,,,,,,,,,192.93999942779192,,response,,,,99,,,,,,,Space,keypress(Space),,,,,,,,---- -- ----- -- ------ - ------- --- ----------<br>------------- ------ ------ ---- ---- ------- ----- -- ----<br>-------- partner -- ---------- --- - --- ----- ----- ----<br>---- --- --- ----- --- ---- ---- ------- ----- ---- -------<br>--- --- -- ----- -- --- ---- -- --- ---- -- ------ ------<br>--- ----- -- ----,74373.0999994278,74367.5999994278,74157.993,74161.89999961853,74174.66,74374.664,,19,partner
screen,html.Screen,2_1_0_1_20,2022-05-11T12:42:50.539Z,,,,,,,,,,,,,,,,,53,,,,,,,,,,,,,,195.53599980926083,,response,,,,99,,,,,,,Space,keypress(Space),,,,,,,,---- -- ----- -- ------ - ------- --- ----------<br>------------- ------ ------ ---- ---- ------- ----- -- ----<br>-------- ------- is ---------- --- - --- ----- ----- ----<br>---- --- --- ----- --- ---- ---- ------- ----- ---- -------<br>--- --- -- ----- -- --- ---- -- --- ---- -- ------ ------<br>--- ----- -- ----,74576.29999923706,74570.19999980927,74357.997,74373.29999923706,74374.664,74591.335,,20,is
screen,html.Screen,2_1_0_1_21,2022-05-11T12:42:50.761Z,,,,,,,,,,,,,,,,,53,,,,,,,,,,,,,,201.36499980925873,,response,,,,99,,,,,,,Space,keypress(Space),,,,,,,,---- -- ----- -- ------ - ------- --- ----------<br>------------- ------ ------ ---- ---- ------- ----- -- ----<br>-------- ------- -- paramount. --- - --- ----- ----- ----<br>---- --- --- ----- --- ---- ---- ------- ----- ---- -------<br>--- --- -- ----- -- --- ---- -- --- ---- -- ------ ------<br>--- ----- -- ----,74798.19999980927,74792.69999980927,74574.668,74576.5999994278,74591.335,74808.006,,21,paramount.
screen,html.Screen,2_1_0_1_22,2022-05-11T12:42:50.963Z,,,,,,,,,,,,,,,,,53,,,,,,,,,,,,,,187.49400000000605,,response,,,,99,,,,,,,Space,keypress(Space),,,,,,,,---- -- ----- -- ------ - ------- --- ----------<br>------------- ------ ------ ---- ---- ------- ----- -- ----<br>-------- ------- -- ---------- But - --- ----- ----- ----<br>---- --- --- ----- --- ---- ---- ------- ----- ---- -------<br>--- --- -- ----- -- --- ---- -- --- ---- -- ------ ------<br>--- ----- -- ----,75000.69999980927,74995.5,74791.339,74798.5,74808.006,75008.01,,22,But
screen,html.Screen,2_1_0_1_23,2022-05-11T12:42:51.182Z,,,,,,,,,,,,,,,,,53,,,,,,,,,,,,,,205.58999942780065,,response,,,,99,,,,,,,Space,keypress(Space),,,,,,,,---- -- ----- -- ------ - ------- --- ----------<br>------------- ------ ------ ---- ---- ------- ----- -- ----<br>-------- ------- -- ---------- --- a --- ----- ----- ----<br>---- --- --- ----- --- ---- ---- ------- ----- ---- -------<br>--- --- -- ----- -- --- ---- -- --- ---- -- ------ ------<br>--- ----- -- ----,75219.19999980927,75213.5999994278,74991.343,75001.0999994278,75008.01,75224.681,,23,a
screen,html.Screen,2_1_0_1_24,2022-05-11T12:42:51.387Z,,,,,,,,,,,,,,,,,53,,,,,,,,,,,,,,193.91899942779855,,response,,,,99,,,,,,,Space,keypress(Space),,,,,,,,---- -- ----- -- ------ - ------- --- ----------<br>------------- ------ ------ ---- ---- ------- ----- -- ----<br>-------- ------- -- ---------- --- - new ----- ----- ----<br>---- --- --- ----- --- ---- ---- ------- ----- ---- -------<br>--- --- -- ----- -- --- ---- -- --- ---- -- ------ ------<br>--- ----- -- ----,75423.89999961853,75418.5999994278,75208.014,75219.5,75224.681,75441.352,,24,new
screen,html.Screen,2_1_0_1_25,2022-05-11T12:42:51.590Z,,,,,,,,,,,,,,,,,53,,,,,,,,,,,,,,180.24799942779646,,response,,,,99,,,,,,,Space,keypress(Space),,,,,,,,---- -- ----- -- ------ - ------- --- ----------<br>------------- ------ ------ ---- ---- ------- ----- -- ----<br>-------- ------- -- ---------- --- - --- study ----- ----<br>---- --- --- ----- --- ---- ---- ------- ----- ---- -------<br>--- --- -- ----- -- --- ---- -- --- ---- -- ------ ------<br>--- ----- -- ----,75627.0999994278,75621.5999994278,75424.685,75424.19999980927,75441.352,75641.356,,25,study
screen,html.Screen,2_1_0_1_26,2022-05-11T12:42:51.785Z,,,,,,,,,,,,,,,,,53,,,,,,,,,,,,,,175.64400000000023,,response,,,,99,,,,,,,Space,keypress(Space),,,,,,,,---- -- ----- -- ------ - ------- --- ----------<br>------------- ------ ------ ---- ---- ------- ----- -- ----<br>-------- ------- -- ---------- --- - --- ----- finds ----<br>---- --- --- ----- --- ---- ---- ------- ----- ---- -------<br>--- --- -- ----- -- --- ---- -- --- ---- -- ------ ------<br>--- ----- -- ----,75822.69999980927,75817,75624.689,75627.29999923706,75641.356,75824.693,,26,finds
screen,html.Screen,2_1_0_1_27,2022-05-11T12:42:51.997Z,,,,,,,,,,,,,,,,,53,,,,,,,,,,,,,,203.60699923706125,,response,,,,99,,,,,,,Space,keypress(Space),,,,,,,,---- -- ----- -- ------ - ------- --- ----------<br>------------- ------ ------ ---- ---- ------- ----- -- ----<br>-------- ------- -- ---------- --- - --- ----- ----- that<br>---- --- --- ----- --- ---- ---- ------- ----- ---- -------<br>--- --- -- ----- -- --- ---- -- --- ---- -- ------ ------<br>--- ----- -- ----,76034.39999961853,76028.29999923706,75808.026,75823.19999980927,75824.693,76041.364,,27,that
screen,html.Screen,2_1_0_1_28,2022-05-11T12:42:52.242Z,,,,,,,,,,,,,,,,,53,,,,,,,,,,,,,,232.43599923705915,,response,,,,99,,,,,,,Space,keypress(Space),,,,,,,,---- -- ----- -- ------ - ------- --- ----------<br>------------- ------ ------ ---- ---- ------- ----- -- ----<br>-------- ------- -- ---------- --- - --- ----- ----- ----<br>it's --- --- ----- --- ---- ---- ------- ----- ---- -------<br>--- --- -- ----- -- --- ---- -- --- ---- -- ------ ------<br>--- ----- -- ----,76279.5999994278,76273.79999923706,76024.697,76034.5999994278,76041.364,76291.369,,28,it's
screen,html.Screen,2_1_0_1_29,2022-05-11T12:42:52.460Z,,,,,,,,,,,,,,,,,53,,,,,,,,,,,,,,200.83099980925908,,response,,,,99,,,,,,,Space,keypress(Space),,,,,,,,---- -- ----- -- ------ - ------- --- ----------<br>------------- ------ ------ ---- ---- ------- ----- -- ----<br>-------- ------- -- ---------- --- - --- ----- ----- ----<br>---- not --- ----- --- ---- ---- ------- ----- ---- -------<br>--- --- -- ----- -- --- ---- -- --- ---- -- ------ ------<br>--- ----- -- ----,76497.69999980927,76492.19999980927,76274.702,76280.0999994278,76291.369,76508.04,,29,not
screen,html.Screen,2_1_0_1_30,2022-05-11T12:42:52.668Z,,,,,,,,,,,,,,,,,53,,,,,,,,,,,,,,191.25999923706695,,response,,,,99,,,,,,,Space,keypress(Space),,,,,,,,---- -- ----- -- ------ - ------- --- ----------<br>------------- ------ ------ ---- ---- ------- ----- -- ----<br>-------- ------- -- ---------- --- - --- ----- ----- ----<br>---- --- how ----- --- ---- ---- ------- ----- ---- -------<br>--- --- -- ----- -- --- ---- -- --- ---- -- ------ ------<br>--- ----- -- ----,76704.89999961853,76699.29999923706,76491.373,76497.89999961853,76508.04,76708.044,,30,how
screen,html.Screen,2_1_0_1_31,2022-05-11T12:42:52.877Z,,,,,,,,,,,,,,,,,53,,,,,,,,,,,,,,200.25599923706613,,response,,,,99,,,,,,,Space,keypress(Space),,,,,,,,---- -- ----- -- ------ - ------- --- ----------<br>------------- ------ ------ ---- ---- ------- ----- -- ----<br>-------- ------- -- ---------- --- - --- ----- ----- ----<br>---- --- --- close --- ---- ---- ------- ----- ---- -------<br>--- --- -- ----- -- --- ---- -- --- ---- -- ------ ------<br>--- ----- -- ----,76914,76908.29999923706,76691.377,76705.19999980927,76708.044,76924.715,,31,close
screen,html.Screen,2_1_0_1_32,2022-05-11T12:42:53.072Z,,,,,,,,,,,,,,,,,53,,,,,,,,,,,,,,178.68499961853377,,response,,,,99,,,,,,,Space,keypress(Space),,,,,,,,---- -- ----- -- ------ - ------- --- ----------<br>------------- ------ ------ ---- ---- ------- ----- -- ----<br>-------- ------- -- ---------- --- - --- ----- ----- ----<br>---- --- --- ----- you ---- ---- ------- ----- ---- -------<br>--- --- -- ----- -- --- ---- -- --- ---- -- ------ ------<br>--- ----- -- ----,77109.0999994278,77103.39999961853,76908.048,76914.19999980927,76924.715,77124.719,,32,you
screen,html.Screen,2_1_0_1_33,2022-05-11T12:42:53.296Z,,,,,,,,,,,,,,,,,53,,,,,,,,,,,,,,203.68099961853295,,response,,,,99,,,,,,,Space,keypress(Space),,,,,,,,---- -- ----- -- ------ - ------- --- ----------<br>------------- ------ ------ ---- ---- ------- ----- -- ----<br>-------- ------- -- ---------- --- - --- ----- ----- ----<br>---- --- --- ----- --- feel ---- ------- ----- ---- -------<br>--- --- -- ----- -- --- ---- -- --- ---- -- ------ ------<br>--- ----- -- ----,77333.69999980927,77328.39999961853,77108.052,77109.39999961853,77124.719,77341.39,,33,feel
screen,html.Screen,2_1_0_1_34,2022-05-11T12:42:53.500Z,,,,,,,,,,,,,,,,,53,,,,,,,,,,,,,,189.709999427796,,response,,,,99,,,,,,,Space,keypress(Space),,,,,,,,---- -- ----- -- ------ - ------- --- ----------<br>------------- ------ ------ ---- ---- ------- ----- -- ----<br>-------- ------- -- ---------- --- - --- ----- ----- ----<br>---- --- --- ----- --- ---- that ------- ----- ---- -------<br>--- --- -- ----- -- --- ---- -- --- ---- -- ------ ------<br>--- ----- -- ----,77537,77531.0999994278,77324.723,77334.29999923706,77341.39,77541.394,,34,that
screen,html.Screen,2_1_0_1_35,2022-05-11T12:42:53.667Z,,,,,,,,,,,,,,,,,53,,,,,,,,,,,,,,158.10599999999977,,response,,,,99,,,,,,,Space,keypress(Space),,,,,,,,---- -- ----- -- ------ - ------- --- ----------<br>------------- ------ ------ ---- ---- ------- ----- -- ----<br>-------- ------- -- ---------- --- - --- ----- ----- ----<br>---- --- --- ----- --- ---- ---- matters ----- ---- -------<br>--- --- -- ----- -- --- ---- -- --- ---- -- ------ ------<br>--- ----- -- ----,77704.89999961853,77699.5,77524.727,77537.29999923706,77541.394,77708.064,,35,matters
screen,html.Screen,2_1_0_1_36,2022-05-11T12:42:53.843Z,,,,,,,,,,,,,,,,,53,,,,,,,,,,,,,,166.23599923706206,,response,,,,99,,,,,,,Space,keypress(Space),,,,,,,,"---- -- ----- -- ------ - ------- --- ----------<br>------------- ------ ------ ---- ---- ------- ----- -- ----<br>-------- ------- -- ---------- --- - --- ----- ----- ----<br>---- --- --- ----- --- ---- ---- ------- most, ---- -------<br>--- --- -- ----- -- --- ---- -- --- ---- -- ------ ------<br>--- ----- -- ----",77880.39999961853,77874.29999923706,77691.397,77705.19999980927,77708.064,77891.401,,36,"most,"
screen,html.Screen,2_1_0_1_37,2022-05-11T12:42:54.036Z,,,,,,,,,,,,,,,,,53,,,,,,,,,,,,,,176.6989994277974,,response,,,,99,,,,,,,Space,keypress(Space),,,,,,,,---- -- ----- -- ------ - ------- --- ----------<br>------------- ------ ------ ---- ---- ------- ----- -- ----<br>-------- ------- -- ---------- --- - --- ----- ----- ----<br>---- --- --- ----- --- ---- ---- ------- ----- it's -------<br>--- --- -- ----- -- --- ---- -- --- ---- -- ------ ------<br>--- ----- -- ----,78073.79999923706,78068.0999994278,77874.734,77880.69999980927,77891.401,78091.405,,37,it's
screen,html.Screen,2_1_0_1_38,2022-05-11T12:42:54.254Z,,,,,,,,,,,,,,,,,53,,,,,,,,,,,,,,193.69499942779657,,response,,,,99,,,,,,,Space,keypress(Space),,,,,,,,---- -- ----- -- ------ - ------- --- ----------<br>------------- ------ ------ ---- ---- ------- ----- -- ----<br>-------- ------- -- ---------- --- - --- ----- ----- ----<br>---- --- --- ----- --- ---- ---- ------- ----- ---- whether<br>--- --- -- ----- -- --- ---- -- --- ---- -- ------ ------<br>--- ----- -- ----,78291.29999923706,78285.0999994278,78074.738,78074.19999980927,78091.405,78308.076,,38,whether
screen,html.Screen,2_1_0_1_39,2022-05-11T12:42:54.496Z,,,,,,,,,,,,,,,,,53,,,,,,,,,,,,,,219.02399942779448,,response,,,,99,,,,,,,Space,keypress(Space),,,,,,,,---- -- ----- -- ------ - ------- --- ----------<br>------------- ------ ------ ---- ---- ------- ----- -- ----<br>-------- ------- -- ---------- --- - --- ----- ----- ----<br>---- --- --- ----- --- ---- ---- ------- ----- ---- -------<br>you --- -- ----- -- --- ---- -- --- ---- -- ------ ------<br>--- ----- -- ----,78533.19999980927,78527.0999994278,78291.409,78291.5,78308.076,78541.414,,39,you
screen,html.Screen,2_1_0_1_40,2022-05-11T12:42:54.747Z,,,,,,,,,,,,,,,,,53,,,,,,,,,,,,,,238.28599980926083,,response,,,,99,,,,,,,Space,keypress(Space),,,,,,,,---- -- ----- -- ------ - ------- --- ----------<br>------------- ------ ------ ---- ---- ------- ----- -- ----<br>-------- ------- -- ---------- --- - --- ----- ----- ----<br>---- --- --- ----- --- ---- ---- ------- ----- ---- -------<br>--- are -- ----- -- --- ---- -- --- ---- -- ------ ------<br>--- ----- -- ----,78784.89999961853,78779.69999980927,78524.747,78533.5,78541.414,78791.419,,40,are
screen,html.Screen,2_1_0_1_41,2022-05-11T12:42:54.964Z,,,,,,,,,,,,,,,,,53,,,,,,,,,,,,,,204.28099980927072,,response,,,,99,,,,,,,Space,keypress(Space),,,,,,,,---- -- ----- -- ------ - ------- --- ----------<br>------------- ------ ------ ---- ---- ------- ----- -- ----<br>-------- ------- -- ---------- --- - --- ----- ----- ----<br>---- --- --- ----- --- ---- ---- ------- ----- ---- -------<br>--- --- as ----- -- --- ---- -- --- ---- -- ------ ------<br>--- ----- -- ----,79001.19999980927,78995.69999980927,78774.752,78785.0999994278,78791.419,79008.09,,41,as
screen,html.Screen,2_1_0_1_42,2022-05-11T12:42:55.163Z,,,,,,,,,,,,,,,,,53,,,,,,,,,,,,,,187.20999923706404,,response,,,,99,,,,,,,Space,keypress(Space),,,,,,,,---- -- ----- -- ------ - ------- --- ----------<br>------------- ------ ------ ---- ---- ------- ----- -- ----<br>-------- ------- -- ---------- --- - --- ----- ----- ----<br>---- --- --- ----- --- ---- ---- ------- ----- ---- -------<br>--- --- -- close -- --- ---- -- --- ---- -- ------ ------<br>--- ----- -- ----,79200.69999980927,79195.29999923706,78991.423,79001.5,79008.09,79208.094,,42,close
screen,html.Screen,2_1_0_1_43,2022-05-11T12:42:55.365Z,,,,,,,,,,,,,,,,,53,,,,,,,,,,,,,,190.30599961853295,,response,,,,99,,,,,,,Space,keypress(Space),,,,,,,,---- -- ----- -- ------ - ------- --- ----------<br>------------- ------ ------ ---- ---- ------- ----- -- ----<br>-------- ------- -- ---------- --- - --- ----- ----- ----<br>---- --- --- ----- --- ---- ---- ------- ----- ---- -------<br>--- --- -- ----- as --- ---- -- --- ---- -- ------ ------<br>--- ----- -- ----,79402.39999961853,79398.39999961853,79191.427,79201,79208.094,79408.098,,43,as
screen,html.Screen,2_1_0_1_44,2022-05-11T12:42:55.565Z,,,,,,,,,,,,,,,,,53,,,,,,,,,,,,,,189.00199942779727,,response,,,,99,,,,,,,Space,keypress(Space),,,,,,,,---- -- ----- -- ------ - ------- --- ----------<br>------------- ------ ------ ---- ---- ------- ----- -- ----<br>-------- ------- -- ---------- --- - --- ----- ----- ----<br>---- --- --- ----- --- ---- ---- ------- ----- ---- -------<br>--- --- -- ----- -- you ---- -- --- ---- -- ------ ------<br>--- ----- -- ----,79602.29999923706,79597.0999994278,79391.431,79402.5,79408.098,79608.102,,44,you
screen,html.Screen,2_1_0_1_45,2022-05-11T12:42:55.789Z,,,,,,,,,,,,,,,,,53,,,,,,,,,,,,,,212.99799942779646,,response,,,,99,,,,,,,Space,keypress(Space),,,,,,,,---- -- ----- -- ------ - ------- --- ----------<br>------------- ------ ------ ---- ---- ------- ----- -- ----<br>-------- ------- -- ---------- --- - --- ----- ----- ----<br>---- --- --- ----- --- ---- ---- ------- ----- ---- -------<br>--- --- -- ----- -- --- want -- --- ---- -- ------ ------<br>--- ----- -- ----,79827,79821.0999994278,79591.435,79602.5,79608.102,79841.44,,45,want
screen,html.Screen,2_1_0_1_46,2022-05-11T12:42:55.991Z,,,,,,,,,,,,,,,,,53,,,,,,,,,,,,,,180.85999923705822,,response,,,,99,,,,,,,Space,keypress(Space),,,,,,,,---- -- ----- -- ------ - ------- --- ----------<br>------------- ------ ------ ---- ---- ------- ----- -- ----<br>-------- ------- -- ---------- --- - --- ----- ----- ----<br>---- --- --- ----- --- ---- ---- ------- ----- ---- -------<br>--- --- -- ----- -- --- ---- to --- ---- -- ------ ------<br>--- ----- -- ----,80028.0999994278,80022.29999923706,79824.773,79827.0999994278,79841.44,80041.444,,46,to
screen,html.Screen,2_1_0_1_47,2022-05-11T12:42:56.191Z,,,,,,,,,,,,,,,,,53,,,,,,,,,,,,,,181.05599999999686,,response,,,,99,,,,,,,Space,keypress(Space),,,,,,,,"---- -- ----- -- ------ - ------- --- ----------<br>------------- ------ ------ ---- ---- ------- ----- -- ----<br>-------- ------- -- ---------- --- - --- ----- ----- ----<br>---- --- --- ----- --- ---- ---- ------- ----- ---- -------<br>--- --- -- ----- -- --- ---- -- be, ---- -- ------ ------<br>--- ----- -- ----",80228.5,80222.5,80024.777,80028.39999961853,80041.444,80241.448,,47,"be,"
screen,html.Screen,2_1_0_1_48,2022-05-11T12:42:56.406Z,,,,,,,,,,,,,,,,,53,,,,,,,,,,,,,,196.15199942779145,,response,,,,99,,,,,,,Space,keypress(Space),,,,,,,,---- -- ----- -- ------ - ------- --- ----------<br>------------- ------ ------ ---- ---- ------- ----- -- ----<br>-------- ------- -- ---------- --- - --- ----- ----- ----<br>---- --- --- ----- --- ---- ---- ------- ----- ---- -------<br>--- --- -- ----- -- --- ---- -- --- even -- ------ ------<br>--- ----- -- ----,80443.0999994278,80437.5999994278,80224.781,80228.5999994278,80241.448,80458.119,,48,even
screen,html.Screen,2_1_0_1_49,2022-05-11T12:42:56.627Z,,,,,,,,,,,,,,,,,53,,,,,,,,,,,,,,200.58099980925908,,response,,,,99,,,,,,,Space,keypress(Space),,,,,,,,---- -- ----- -- ------ - ------- --- ----------<br>------------- ------ ------ ---- ---- ------- ----- -- ----<br>-------- ------- -- ---------- --- - --- ----- ----- ----<br>---- --- --- ----- --- ---- ---- ------- ----- ---- -------<br>--- --- -- ----- -- --- ---- -- --- ---- if ------ ------<br>--- ----- -- ----,80664.19999980927,80658.69999980927,80441.452,80443.39999961853,80458.119,80674.79,,49,if
screen,html.Screen,2_1_0_1_50,2022-05-11T12:42:56.845Z,,,,,,,,,,,,,,,,,53,,,,,,,,,,,,,,204.7100000000064,,response,,,,99,,,,,,,Space,keypress(Space),,,,,,,,---- -- ----- -- ------ - ------- --- ----------<br>------------- ------ ------ ---- ---- ------- ----- -- ----<br>-------- ------- -- ---------- --- - --- ----- ----- ----<br>---- --- --- ----- --- ---- ---- ------- ----- ---- -------<br>--- --- -- ----- -- --- ---- -- --- ---- -- that's ------<br>--- ----- -- ----,80882.79999923706,80879.5,80658.123,80664.5,80674.79,80891.461,,50,that's
screen,html.Screen,2_1_0_1_51,2022-05-11T12:42:57.105Z,,,,,,,,,,,,,,,,,53,,,,,,,,,,,,,,237.93899961853458,,response,,,,99,,,,,,,Space,keypress(Space),,,,,,,,---- -- ----- -- ------ - ------- --- ----------<br>------------- ------ ------ ---- ---- ------- ----- -- ----<br>-------- ------- -- ---------- --- - --- ----- ----- ----<br>---- --- --- ----- --- ---- ---- ------- ----- ---- -------<br>--- --- -- ----- -- --- ---- -- --- ---- -- ------ really<br>--- ----- -- ----,81142.19999980927,81129.39999961853,80874.794,80882.89999961853,80891.461,81158.133,,51,really
screen,html.Screen,2_1_0_1_52,2022-05-11T12:42:57.466Z,,,,,,,,,,,,,,,,,53,,,,,,,,,,,,,,342.26699961852864,,response,,,,99,,,,,,,Space,keypress(Space),,,,,,,,---- -- ----- -- ------ - ------- --- ----------<br>------------- ------ ------ ---- ---- ------- ----- -- ----<br>-------- ------- -- ---------- --- - --- ----- ----- ----<br>---- --- --- ----- --- ---- ---- ------- ----- ---- -------<br>--- --- -- ----- -- --- ---- -- --- ---- -- ------ ------<br>not ----- -- ----,81503.69999980927,81500.39999961853,81141.466,81142.5999994278,81158.133,81508.14,,52,not
screen,html.Screen,2_1_0_1_53,2022-05-11T12:42:57.681Z,,,,,,,,,,,,,,,,,53,,,,,,,,,,,,,,205.55999980926572,,response,,,,99,,,,,,,Space,keypress(Space),,,,,,,,---- -- ----- -- ------ - ------- --- ----------<br>------------- ------ ------ ---- ---- ------- ----- -- ----<br>-------- ------- -- ---------- --- - --- ----- ----- ----<br>---- --- --- ----- --- ---- ---- ------- ----- ---- -------<br>--- --- -- ----- -- --- ---- -- --- ---- -- ------ ------<br>--- close -- ----,81718.69999980927,81713.69999980927,81491.473,81503.89999961853,81508.14,81724.811,,53,close
screen,html.Screen,2_1_0_1_54,2022-05-11T12:42:57.882Z,,,,,,,,,,,,,,,,,53,,,,,,,,,,,,,,189.6889999999985,,response,,,,99,,,,,,,Space,keypress(Space),,,,,,,,---- -- ----- -- ------ - ------- --- ----------<br>------------- ------ ------ ---- ---- ------- ----- -- ----<br>-------- ------- -- ---------- --- - --- ----- ----- ----<br>---- --- --- ----- --- ---- ---- ------- ----- ---- -------<br>--- --- -- ----- -- --- ---- -- --- ---- -- ------ ------<br>--- ----- at ----,81919.29999923706,81914.5,81708.144,81718.79999923706,81724.811,81924.815,,54,at
screen,html.Screen,2_1_0_1_55,2022-05-11T12:42:58.178Z,,,,,,,,,,,,,,,,,53,,,,,,,,,,,,,,285.1849999999977,,response,,,,99,,,,,,,Space,keypress(Space),,,,,,,,---- -- ----- -- ------ - ------- --- ----------<br>------------- ------ ------ ---- ---- ------- ----- -- ----<br>-------- ------- -- ---------- --- - --- ----- ----- ----<br>---- --- --- ----- --- ---- ---- ------- ----- ---- -------<br>--- --- -- ----- -- --- ---- -- --- ---- -- ------ ------<br>--- ----- -- all.,82215.69999980927,82210,81908.148,81919.5999994278,81924.815,82224.821,,55,all.
Item 99,flow.Loop,2_1_0_1,2022-05-11T12:42:58.179Z,,,,,,,,,,,,,,,,,,,,,,,,,,,,,,,13235.468999999997,,completion,,,,,D,,,,,,,,,,,silence,,,,,82216.5,82210,68941.197,68943.69999980927,68974.531,82224.821,,,
Question 1,html.Screen,2_1_0_2,2022-05-11T12:43:05.451Z,,,,,,,,,,,,,,,,,,,,,,,,,,,,true,FALSE,,7261.578999618534,,response,,,,99,D,,,,,,FALSE,click #choice-2,,,,silence,,,,,89488.29999923706,89486.39999961853,82208.154,82216.5999994278,82224.821,89508.351,,,
Question 2,html.Screen,2_1_0_3,2022-05-11T12:43:06.913Z,,,,,,,,,,,,,,,,,,,,,,,,,,,,true,TRUE,,1440.34899980927,,response,,,,99,D,,,,,,TRUE,click #choice-1,,,,silence,,,,,90950.39999961853,90948.69999980927,89491.684,89488.39999961853,89508.351,90975.047,,,
Item 99,flow.Sequence,2_1_0,2022-05-11T12:43:06.913Z,,,,,,,,,,,,,,,,,,,,,,,,,,,,,,,31991.084999809267,,completion,,,,,,,,,,,,,,,,,,,,,90950.5999994278,90948.69999980927,58940.948,58939.599999427795,58957.615,90975.047,,,
Holding screen,html.Screen,2_1_1_0,2022-05-11T12:43:17.036Z,,,,,,,,,,,,,,,,,,,,,,,,,,,,,,,10000.202999999994,,timeout,,,,,,,,,,,,,,,,,,,,,100963.0999994278,100958.583,90958.38,90950.79999923706,90975.047,100975.25,,,
screen,html.Screen,2_1_1_1_0,2022-05-11T12:43:17.985Z,,,,,,,,,,,,,,,,,54,,,,,,,,,,,,,,924.5499992370605,,response,,,,100,,,,,,,Space,keypress(Space),,,,,,,,At --- ---- --- ------ ----- ------- ---- -- --- ------- --<br>------- ---------- ------ -- ----- -- ----- -- ---- ------<br>--- ----- --- --- ------ -------- ----- --- ------ ----- --<br>----- ----- ---------- --- --- ------ ------ ---- -- ------<br>------- --- ------ ----- --- ---- ------- -- ---- --- --<br>------- ------,101912.5,101899.79999923706,100958.583,100963.5999994278,100975.25,101925.269,,0,At
screen,html.Screen,2_1_1_1_1,2022-05-11T12:43:18.125Z,,,,,,,,,,,,,,,,,54,,,,,,,,,,,,,,120.73099999999977,,response,,,,100,,,,,,,Space,keypress(Space),,,,,,,,-- the ---- --- ------ ----- ------- ---- -- --- ------- --<br>------- ---------- ------ -- ----- -- ----- -- ---- ------<br>--- ----- --- --- ------ -------- ----- --- ------ ----- --<br>----- ----- ---------- --- --- ------ ------ ---- -- ------<br>------- --- ------ ----- --- ---- ------- -- ---- --- --<br>------- ------,102052.69999980927,102046,101908.602,101912.5999994278,101925.269,102058.605,,1,the
screen,html.Screen,2_1_1_1_2,2022-05-11T12:43:18.270Z,,,,,,,,,,,,,,,,,54,,,,,,,,,,,,,,132.89500000000407,,response,,,,100,,,,,,,Space,keypress(Space),,,,,,,,-- --- time --- ------ ----- ------- ---- -- --- ------- --<br>------- ---------- ------ -- ----- -- ----- -- ---- ------<br>--- ----- --- --- ------ -------- ----- --- ------ ----- --<br>----- ----- ---------- --- --- ------ ------ ---- -- ------<br>------- --- ------ ----- --- ---- ------- -- ---- --- --<br>------- ------,102197.69999980927,102191.5,102041.938,102052.89999961853,102058.605,102208.608,,2,time
screen,html.Screen,2_1_1_1_3,2022-05-11T12:43:18.410Z,,,,,,,,,,,,,,,,,54,,,,,,,,,,,,,,123.49199942780251,,response,,,,100,,,,,,,Space,keypress(Space),,,,,,,,-- --- ---- the ------ ----- ------- ---- -- --- ------- --<br>------- ---------- ------ -- ----- -- ----- -- ---- ------<br>--- ----- --- --- ------ -------- ----- --- ------ ----- --<br>----- ----- ---------- --- --- ------ ------ ---- -- ------<br>------- --- ------ ----- --- ---- ------- -- ---- --- --<br>------- ------,102337.5999994278,102332.0999994278,102191.941,102197.89999961853,102208.608,102341.944,,3,the
screen,html.Screen,2_1_1_1_4,2022-05-11T12:43:18.562Z,,,,,,,,,,,,,,,,,54,,,,,,,,,,,,,,141.45599961852713,,response,,,,100,,,,,,,Space,keypress(Space),,,,,,,,-- --- ---- --- French ----- ------- ---- -- --- ------- --<br>------- ---------- ------ -- ----- -- ----- -- ---- ------<br>--- ----- --- --- ------ -------- ----- --- ------ ----- --<br>----- ----- ---------- --- --- ------ ------ ---- -- ------<br>------- --- ------ ----- --- ---- ------- -- ---- --- --<br>------- ------,102489.5,102483.39999961853,102325.277,102337.79999923706,102341.944,102491.947,,4,French
screen,html.Screen,2_1_1_1_5,2022-05-11T12:43:18.712Z,,,,,,,,,,,,,,,,,54,,,,,,,,,,,,,,142.45299961853016,,response,,,,100,,,,,,,Space,keypress(Space),,,,,,,,-- --- ---- --- ------ crown ------- ---- -- --- ------- --<br>------- ---------- ------ -- ----- -- ----- -- ---- ------<br>--- ----- --- --- ------ -------- ----- --- ------ ----- --<br>----- ----- ---------- --- --- ------ ------ ---- -- ------<br>------- --- ------ ----- --- ---- ------- -- ---- --- --<br>------- ------,102640,102634.39999961853,102475.28,102489.69999980927,102491.947,102641.95,,5,crown
screen,html.Screen,2_1_1_1_6,2022-05-11T12:43:18.848Z,,,,,,,,,,,,,,,,,54,,,,,,,,,,,,,,127.64999942779832,,response,,,,100,,,,,,,Space,keypress(Space),,,,,,,,-- --- ---- --- ------ ----- secured ---- -- --- ------- --<br>------- ---------- ------ -- ----- -- ----- -- ---- ------<br>--- ----- --- --- ------ -------- ----- --- ------ ----- --<br>----- ----- ---------- --- --- ------ ------ ---- -- ------<br>------- --- ------ ----- --- ---- ------- -- ---- --- --<br>------- ------,102775.0999994278,102769.5999994278,102625.283,102640.39999961853,102641.95,102791.953,,6,secured
screen,html.Screen,2_1_1_1_7,2022-05-11T12:43:18.985Z,,,,,,,,,,,,,,,,,54,,,,,,,,,,,,,,113.84699923706648,,response,,,,100,,,,,,,Space,keypress(Space),,,,,,,,-- --- ---- --- ------ ----- ------- much -- --- ------- --<br>------- ---------- ------ -- ----- -- ----- -- ---- ------<br>--- ----- --- --- ------ -------- ----- --- ------ ----- --<br>----- ----- ---------- --- --- ------ ------ ---- -- ------<br>------- --- ------ ----- --- ---- ------- -- ---- --- --<br>------- ------,102912.0999994278,102905.79999923706,102775.286,102775.29999923706,102791.953,102925.289,,7,much
screen,html.Screen,2_1_1_1_8,2022-05-11T12:43:19.139Z,,,,,,,,,,,,,,,,,54,,,,,,,,,,,,,,136.11099961852597,,response,,,,100,,,,,,,Space,keypress(Space),,,,,,,,-- --- ---- --- ------ ----- ------- ---- of --- ------- --<br>------- ---------- ------ -- ----- -- ----- -- ---- ------<br>--- ----- --- --- ------ -------- ----- --- ------ ----- --<br>----- ----- ---------- --- --- ------ ------ ---- -- ------<br>------- --- ------ ----- --- ---- ------- -- ---- --- --<br>------- ------,103067,103061.39999961853,102908.622,102912.39999961853,102925.289,103075.292,,8,of
screen,html.Screen,2_1_1_1_9,2022-05-11T12:43:19.298Z,,,,,,,,,,,,,,,,,54,,,,,,,,,,,,,,144.20799999999872,,response,,,,100,,,,,,,Space,keypress(Space),,,,,,,,-- --- ---- --- ------ ----- ------- ---- -- its ------- --<br>------- ---------- ------ -- ----- -- ----- -- ---- ------<br>--- ----- --- --- ------ -------- ----- --- ------ ----- --<br>----- ----- ---------- --- --- ------ ------ ---- -- ------<br>------- --- ------ ----- --- ---- ------- -- ---- --- --<br>------- ------,103225.29999923706,103219.5,103058.625,103067.19999980927,103075.292,103241.962,,9,its
screen,html.Screen,2_1_1_1_10,2022-05-11T12:43:19.451Z,,,,,,,,,,,,,,,,,54,,,,,,,,,,,,,,130.93799961853074,,response,,,,100,,,,,,,Space,keypress(Space),,,,,,,,-- --- ---- --- ------ ----- ------- ---- -- --- revenue --<br>------- ---------- ------ -- ----- -- ----- -- ---- ------<br>--- ----- --- --- ------ -------- ----- --- ------ ----- --<br>----- ----- ---------- --- --- ------ ------ ---- -- ------<br>------- --- ------ ----- --- ---- ------- -- ---- --- --<br>------- ------,103378.19999980927,103372.89999961853,103225.295,103225.5,103241.962,103391.986,,10,revenue
screen,html.Screen,2_1_1_1_11,2022-05-11T12:43:19.774Z,,,,,,,,,,,,,,,,,54,,,,,,,,,,,,,,301.41399961852585,,response,,,,100,,,,,,,Space,keypress(Space),,,,,,,,-- --- ---- --- ------ ----- ------- ---- -- --- ------- by<br>------- ---------- ------ -- ----- -- ----- -- ---- ------<br>--- ----- --- --- ------ -------- ----- --- ------ ----- --<br>----- ----- ---------- --- --- ------ ------ ---- -- ------<br>------- --- ------ ----- --- ---- ------- -- ---- --- --<br>------- ------,103701.5,103693.39999961853,103375.319,103378.39999961853,103391.986,103708.659,,11,by
screen,html.Screen,2_1_1_1_12,2022-05-11T12:43:19.938Z,,,,,,,,,,,,,,,,,54,,,,,,,,,,,,,,151.6409992370609,,response,,,,100,,,,,,,Space,keypress(Space),,,,,,,,-- --- ---- --- ------ ----- ------- ---- -- --- ------- --<br>issuing ---------- ------ -- ----- -- ----- -- ---- ------<br>--- ----- --- --- ------ -------- ----- --- ------ ----- --<br>----- ----- ---------- --- --- ------ ------ ---- -- ------<br>------- --- ------ ----- --- ---- ------- -- ---- --- --<br>------- ------,103865.69999980927,103860.29999923706,103691.992,103701.69999980927,103708.659,103875.329,,12,issuing
screen,html.Screen,2_1_1_1_13,2022-05-11T12:43:20.091Z,,,,,,,,,,,,,,,,,54,,,,,,,,,,,,,,137.87099980926723,,response,,,,100,,,,,,,Space,keypress(Space),,,,,,,,-- --- ---- --- ------ ----- ------- ---- -- --- ------- --<br>------- government ------ -- ----- -- ----- -- ---- ------<br>--- ----- --- --- ------ -------- ----- --- ------ ----- --<br>----- ----- ---------- --- --- ------ ------ ---- -- ------<br>------- --- ------ ----- --- ---- ------- -- ---- --- --<br>------- ------,104018.79999923706,104013.19999980927,103858.662,103866,103875.329,104025.332,,13,government
screen,html.Screen,2_1_1_1_14,2022-05-11T12:43:20.260Z,,,,,,,,,,,,,,,,,54,,,,,,,,,,,,,,156.16800000000512,,response,,,,100,,,,,,,Space,keypress(Space),,,,,,,,-- --- ---- --- ------ ----- ------- ---- -- --- ------- --<br>------- ---------- bonds. -- ----- -- ----- -- ---- ------<br>--- ----- --- --- ------ -------- ----- --- ------ ----- --<br>----- ----- ---------- --- --- ------ ------ ---- -- ------<br>------- --- ------ ----- --- ---- ------- -- ---- --- --<br>------- ------,104187.29999923706,104181.5,104008.665,104019.0999994278,104025.332,104192.002,,14,bonds.
screen,html.Screen,2_1_1_1_15,2022-05-11T12:43:20.430Z,,,,,,,,,,,,,,,,,54,,,,,,,,,,,,,,160.39799961853714,,response,,,,100,,,,,,,Space,keypress(Space),,,,,,,,-- --- ---- --- ------ ----- ------- ---- -- --- ------- --<br>------- ---------- ------ In ----- -- ----- -- ---- ------<br>--- ----- --- --- ------ -------- ----- --- ------ ----- --<br>----- ----- ---------- --- --- ------ ------ ---- -- ------<br>------- --- ------ ----- --- ---- ------- -- ---- --- --<br>------- ------,104357.5,104352.39999961853,104175.335,104187.39999961853,104192.002,104358.672,,15,In
screen,html.Screen,2_1_1_1_16,2022-05-11T12:43:20.574Z,,,,,,,,,,,,,,,,,54,,,,,,,,,,,,,,137.82799999999406,,response,,,,100,,,,,,,Space,keypress(Space),,,,,,,,"-- --- ---- --- ------ ----- ------- ---- -- --- ------- --<br>------- ---------- ------ -- 1727, -- ----- -- ---- ------<br>--- ----- --- --- ------ -------- ----- --- ------ ----- --<br>----- ----- ---------- --- --- ------ ------ ---- -- ------<br>------- --- ------ ----- --- ---- ------- -- ---- --- --<br>------- ------",104501.69999980927,104496.5,104342.005,104357.69999980927,104358.672,104508.675,,16,"1727,"
screen,html.Screen,2_1_1_1_17,2022-05-11T12:43:20.737Z,,,,,,,,,,,,,,,,,54,,,,,,,,,,,,,,149.8249999999971,,response,,,,100,,,,,,,Space,keypress(Space),,,,,,,,-- --- ---- --- ------ ----- ------- ---- -- --- ------- --<br>------- ---------- ------ -- ----- in ----- -- ---- ------<br>--- ----- --- --- ------ -------- ----- --- ------ ----- --<br>----- ----- ---------- --- --- ------ ------ ---- -- ------<br>------- --- ------ ----- --- ---- ------- -- ---- --- --<br>------- ------,104664.19999980927,104658.5,104492.008,104502,104508.675,104675.345,,17,in
screen,html.Screen,2_1_1_1_18,2022-05-11T12:43:20.921Z,,,,,,,,,,,,,,,,,54,,,,,,,,,,,,,,168.5549996185291,,response,,,,100,,,,,,,Space,keypress(Space),,,,,,,,-- --- ---- --- ------ ----- ------- ---- -- --- ------- --<br>------- ---------- ------ -- ----- -- order -- ---- ------<br>--- ----- --- --- ------ -------- ----- --- ------ ----- --<br>----- ----- ---------- --- --- ------ ------ ---- -- ------<br>------- --- ------ ----- --- ---- ------- -- ---- --- --<br>------- ------,104849,104843.89999961853,104658.678,104664.39999961853,104675.345,104858.682,,18,order
screen,html.Screen,2_1_1_1_19,2022-05-11T12:43:21.081Z,,,,,,,,,,,,,,,,,54,,,,,,,,,,,,,,143.9179994277947,,response,,,,100,,,,,,,Space,keypress(Space),,,,,,,,-- --- ---- --- ------ ----- ------- ---- -- --- ------- --<br>------- ---------- ------ -- ----- -- ----- to ---- ------<br>--- ----- --- --- ------ -------- ----- --- ------ ----- --<br>----- ----- ---------- --- --- ------ ------ ---- -- ------<br>------- --- ------ ----- --- ---- ------- -- ---- --- --<br>------- ------,105008.29999923706,105002.5999994278,104842.015,104849.29999923706,104858.682,105025.352,,19,to
screen,html.Screen,2_1_1_1_20,2022-05-11T12:43:21.238Z,,,,,,,,,,,,,,,,,54,,,,,,,,,,,,,,134.54799961853132,,response,,,,100,,,,,,,Space,keypress(Space),,,,,,,,-- --- ---- --- ------ ----- ------- ---- -- --- ------- --<br>------- ---------- ------ -- ----- -- ----- -- save ------<br>--- ----- --- --- ------ -------- ----- --- ------ ----- --<br>----- ----- ---------- --- --- ------ ------ ---- -- ------<br>------- --- ------ ----- --- ---- ------- -- ---- --- --<br>------- ------,105165.5,105159.89999961853,105008.685,105008.5999994278,105025.352,105175.355,,20,save
screen,html.Screen,2_1_1_1_21,2022-05-11T12:43:21.410Z,,,,,,,,,,,,,,,,,54,,,,,,,,,,,,,,156.44499923706462,,response,,,,100,,,,,,,Space,keypress(Space),,,,,,,,"-- --- ---- --- ------ ----- ------- ---- -- --- ------- --<br>------- ---------- ------ -- ----- -- ----- -- ---- money,<br>--- ----- --- --- ------ -------- ----- --- ------ ----- --<br>----- ----- ---------- --- --- ------ ------ ---- -- ------<br>------- --- ------ ----- --- ---- ------- -- ---- --- --<br>------- ------",105337.5,105331.79999923706,105158.688,105166.0999994278,105175.355,105342.025,,21,"money,"
screen,html.Screen,2_1_1_1_22,2022-05-11T12:43:21.590Z,,,,,,,,,,,,,,,,,54,,,,,,,,,,,,,,170.47500000000582,,response,,,,100,,,,,,,Space,keypress(Space),,,,,,,,-- --- ---- --- ------ ----- ------- ---- -- --- ------- --<br>------- ---------- ------ -- ----- -- ----- -- ---- ------<br>the ----- --- --- ------ -------- ----- --- ------ ----- --<br>----- ----- ---------- --- --- ------ ------ ---- -- ------<br>------- --- ------ ----- --- ---- ------- -- ---- --- --<br>------- ------,105517.79999923706,105512.5,105325.358,105337.69999980927,105342.025,105525.362,,22,the
screen,html.Screen,2_1_1_1_23,2022-05-11T12:43:21.731Z,,,,,,,,,,,,,,,,,54,,,,,,,,,,,,,,128.33799980927142,,response,,,,100,,,,,,,Space,keypress(Space),,,,,,,,-- --- ---- --- ------ ----- ------- ---- -- --- ------- --<br>------- ---------- ------ -- ----- -- ----- -- ---- ------<br>--- state --- --- ------ -------- ----- --- ------ ----- --<br>----- ----- ---------- --- --- ------ ------ ---- -- ------<br>------- --- ------ ----- --- ---- ------- -- ---- --- --<br>------- ------,105658.69999980927,105653.69999980927,105508.695,105518,105525.362,105675.365,,23,state
screen,html.Screen,2_1_1_1_24,2022-05-11T12:43:21.899Z,,,,,,,,,,,,,,,,,54,,,,,,,,,,,,,,146.13499999999476,,response,,,,100,,,,,,,Space,keypress(Space),,,,,,,,-- --- ---- --- ------ ----- ------- ---- -- --- ------- --<br>------- ---------- ------ -- ----- -- ----- -- ---- ------<br>--- ----- cut --- ------ -------- ----- --- ------ ----- --<br>----- ----- ---------- --- --- ------ ------ ---- -- ------<br>------- --- ------ ----- --- ---- ------- -- ---- --- --<br>------- ------,105826.79999923706,105821.5,105658.698,105658.89999961853,105675.365,105842.035,,24,cut
screen,html.Screen,2_1_1_1_25,2022-05-11T12:43:22.058Z,,,,,,,,,,,,,,,,,54,,,,,,,,,,,,,,137.76499923705705,,response,,,,100,,,,,,,Space,keypress(Space),,,,,,,,-- --- ---- --- ------ ----- ------- ---- -- --- ------- --<br>------- ---------- ------ -- ----- -- ----- -- ---- ------<br>--- ----- --- the ------ -------- ----- --- ------ ----- --<br>----- ----- ---------- --- --- ------ ------ ---- -- ------<br>------- --- ------ ----- --- ---- ------- -- ---- --- --<br>------- ------,105985.5,105979.79999923706,105825.368,105827.0999994278,105842.035,105992.038,,25,the
screen,html.Screen,2_1_1_1_26,2022-05-11T12:43:22.227Z,,,,,,,,,,,,,,,,,54,,,,,,,,,,,,,,156.56199942779494,,response,,,,100,,,,,,,Space,keypress(Space),,,,,,,,-- --- ---- --- ------ ----- ------- ---- -- --- ------- --<br>------- ---------- ------ -- ----- -- ----- -- ---- ------<br>--- ----- --- --- bonds' -------- ----- --- ------ ----- --<br>----- ----- ---------- --- --- ------ ------ ---- -- ------<br>------- --- ------ ----- --- ---- ------- -- ---- --- --<br>------- ------,106154.19999980927,106148.5999994278,105975.371,105985.79999923706,105992.038,106158.708,,26,bonds'
screen,html.Screen,2_1_1_1_27,2022-05-11T12:43:22.388Z,,,,,,,,,,,,,,,,,54,,,,,,,,,,,,,,151.29200000000128,,response,,,,100,,,,,,,Space,keypress(Space),,,,,,,,-- --- ---- --- ------ ----- ------- ---- -- --- ------- --<br>------- ---------- ------ -- ----- -- ----- -- ---- ------<br>--- ----- --- --- ------ interest ----- --- ------ ----- --<br>----- ----- ---------- --- --- ------ ------ ---- -- ------<br>------- --- ------ ----- --- ---- ------- -- ---- --- --<br>------- ------,106315.69999980927,106310,106142.041,106154.5999994278,106158.708,106325.378,,27,interest
screen,html.Screen,2_1_1_1_28,2022-05-11T12:43:22.546Z,,,,,,,,,,,,,,,,,54,,,,,,,,,,,,,,143.0219996185333,,response,,,,100,,,,,,,Space,keypress(Space),,,,,,,,-- --- ---- --- ------ ----- ------- ---- -- --- ------- --<br>------- ---------- ------ -- ----- -- ----- -- ---- ------<br>--- ----- --- --- ------ -------- rate. --- ------ ----- --<br>----- ----- ---------- --- --- ------ ------ ---- -- ------<br>------- --- ------ ----- --- ---- ------- -- ---- --- --<br>------- ------,106473.29999923706,106468.39999961853,106308.711,106316,106325.378,106475.381,,28,rate.
screen,html.Screen,2_1_1_1_29,2022-05-11T12:43:22.719Z,,,,,,,,,,,,,,,,,54,,,,,,,,,,,,,,165.3189998092712,,response,,,,100,,,,,,,Space,keypress(Space),,,,,,,,-- --- ---- --- ------ ----- ------- ---- -- --- ------- --<br>------- ---------- ------ -- ----- -- ----- -- ---- ------<br>--- ----- --- --- ------ -------- ----- The ------ ----- --<br>----- ----- ---------- --- --- ------ ------ ---- -- ------<br>------- --- ------ ----- --- ---- ------- -- ---- --- --<br>------- ------,106646.29999923706,106640.69999980927,106458.714,106473.5999994278,106475.381,106658.718,,29,The
screen,html.Screen,2_1_1_1_30,2022-05-11T12:43:22.899Z,,,,,,,,,,,,,,,,,54,,,,,,,,,,,,,,162.6819996185368,,response,,,,100,,,,,,,Space,keypress(Space),,,,,,,,-- --- ---- --- ------ ----- ------- ---- -- --- ------- --<br>------- ---------- ------ -- ----- -- ----- -- ---- ------<br>--- ----- --- --- ------ -------- ----- --- market ----- --<br>----- ----- ---------- --- --- ------ ------ ---- -- ------<br>------- --- ------ ----- --- ---- ------- -- ---- --- --<br>------- ------,106826.79999923706,106821.39999961853,106642.051,106646.5999994278,106658.718,106842.055,,30,market
screen,html.Screen,2_1_1_1_31,2022-05-11T12:43:23.092Z,,,,,,,,,,,,,,,,,54,,,,,,,,,,,,,,171.74499923706753,,response,,,,100,,,,,,,Space,keypress(Space),,,,,,,,-- --- ---- --- ------ ----- ------- ---- -- --- ------- --<br>------- ---------- ------ -- ----- -- ----- -- ---- ------<br>--- ----- --- --- ------ -------- ----- --- ------ value --<br>----- ----- ---------- --- --- ------ ------ ---- -- ------<br>------- --- ------ ----- --- ---- ------- -- ---- --- --<br>------- ------,107019.5,107013.79999923706,106825.388,106827,106842.055,107025.392,,31,value
screen,html.Screen,2_1_1_1_32,2022-05-11T12:43:23.386Z,,,,,,,,,,,,,,,,,54,,,,,,,,,,,,,,283.1079999999929,,response,,,,100,,,,,,,Space,keypress(Space),,,,,,,,-- --- ---- --- ------ ----- ------- ---- -- --- ------- --<br>------- ---------- ------ -- ----- -- ----- -- ---- ------<br>--- ----- --- --- ------ -------- ----- --- ------ ----- of<br>----- ----- ---------- --- --- ------ ------ ---- -- ------<br>------- --- ------ ----- --- ---- ------- -- ---- --- --<br>------- ------,107313.19999980927,107308.5,107008.725,107019.5999994278,107025.392,107325.398,,32,of
screen,html.Screen,2_1_1_1_33,2022-05-11T12:43:23.639Z,,,,,,,,,,,,,,,,,54,,,,,,,,,,,,,,236.4019992370595,,response,,,,100,,,,,,,Space,keypress(Space),,,,,,,,-- --- ---- --- ------ ----- ------- ---- -- --- ------- --<br>------- ---------- ------ -- ----- -- ----- -- ---- ------<br>--- ----- --- --- ------ -------- ----- --- ------ ----- --<br>these ----- ---------- --- --- ------ ------ ---- -- ------<br>------- --- ------ ----- --- ---- ------- -- ---- --- --<br>------- ------,107566.79999923706,107561.79999923706,107308.731,107313.5,107325.398,107575.403,,33,these
screen,html.Screen,2_1_1_1_34,2022-05-11T12:43:23.833Z,,,,,,,,,,,,,,,,,54,,,,,,,,,,,,,,180.39699923705484,,response,,,,100,,,,,,,Space,keypress(Space),,,,,,,,-- --- ---- --- ------ ----- ------- ---- -- --- ------- --<br>------- ---------- ------ -- ----- -- ----- -- ---- ------<br>--- ----- --- --- ------ -------- ----- --- ------ ----- --<br>----- bonds ---------- --- --- ------ ------ ---- -- ------<br>------- --- ------ ----- --- ---- ------- -- ---- --- --<br>------- ------,107761,107755.79999923706,107558.736,107567,107575.403,107775.407,,34,bonds
screen,html.Screen,2_1_1_1_35,2022-05-11T12:43:24.081Z,,,,,,,,,,,,,,,,,54,,,,,,,,,,,,,,227.89299923705403,,response,,,,100,,,,,,,Space,keypress(Space),,,,,,,,"-- --- ---- --- ------ ----- ------- ---- -- --- ------- --<br>------- ---------- ------ -- ----- -- ----- -- ---- ------<br>--- ----- --- --- ------ -------- ----- --- ------ ----- --<br>----- ----- plummeted, --- --- ------ ------ ---- -- ------<br>------- --- ------ ----- --- ---- ------- -- ---- --- --<br>------- ------",108009,108003.29999923706,107758.74,107761.19999980927,107775.407,108025.412,,35,"plummeted,"
screen,html.Screen,2_1_1_1_36,2022-05-11T12:43:24.348Z,,,,,,,,,,,,,,,,,54,,,,,,,,,,,,,,245.7879998092685,,response,,,,100,,,,,,,Space,keypress(Space),,,,,,,,-- --- ---- --- ------ ----- ------- ---- -- --- ------- --<br>------- ---------- ------ -- ----- -- ----- -- ---- ------<br>--- ----- --- --- ------ -------- ----- --- ------ ----- --<br>----- ----- ---------- and --- ------ ------ ---- -- ------<br>------- --- ------ ----- --- ---- ------- -- ---- --- --<br>------- ------,108275.69999980927,108271.19999980927,108008.745,108009.29999923706,108025.412,108292.084,,36,and
screen,html.Screen,2_1_1_1_37,2022-05-11T12:43:24.518Z,,,,,,,,,,,,,,,,,54,,,,,,,,,,,,,,147.91599999999744,,response,,,,100,,,,,,,Space,keypress(Space),,,,,,,,-- --- ---- --- ------ ----- ------- ---- -- --- ------- --<br>------- ---------- ------ -- ----- -- ----- -- ---- ------<br>--- ----- --- --- ------ -------- ----- --- ------ ----- --<br>----- ----- ---------- --- the ------ ------ ---- -- ------<br>------- --- ------ ----- --- ---- ------- -- ---- --- --<br>------- ------,108445.5999994278,108440,108275.417,108275.89999961853,108292.084,108458.754,,37,the
screen,html.Screen,2_1_1_1_38,2022-05-11T12:43:24.675Z,,,,,,,,,,,,,,,,,54,,,,,,,,,,,,,,139.24599999999919,,response,,,,100,,,,,,,Space,keypress(Space),,,,,,,,-- --- ---- --- ------ ----- ------- ---- -- --- ------- --<br>------- ---------- ------ -- ----- -- ----- -- ---- ------<br>--- ----- --- --- ------ -------- ----- --- ------ ----- --<br>----- ----- ---------- --- --- market ------ ---- -- ------<br>------- --- ------ ----- --- ---- ------- -- ---- --- --<br>------- ------,108602.79999923706,108598,108442.087,108445.79999923706,108458.754,108608.757,,38,market
screen,html.Screen,2_1_1_1_39,2022-05-11T12:43:24.850Z,,,,,,,,,,,,,,,,,54,,,,,,,,,,,,,,163.04299923706276,,response,,,,100,,,,,,,Space,keypress(Space),,,,,,,,-- --- ---- --- ------ ----- ------- ---- -- --- ------- --<br>------- ---------- ------ -- ----- -- ----- -- ---- ------<br>--- ----- --- --- ------ -------- ----- --- ------ ----- --<br>----- ----- ---------- --- --- ------ became ---- -- ------<br>------- --- ------ ----- --- ---- ------- -- ---- --- --<br>------- ------,108777.5999994278,108771.79999923706,108592.09,108603,108608.757,108792.094,,39,became
screen,html.Screen,2_1_1_1_40,2022-05-11T12:43:25.120Z,,,,,,,,,,,,,,,,,54,,,,,,,,,,,,,,250.70599923706322,,response,,,,100,,,,,,,Space,keypress(Space),,,,,,,,-- --- ---- --- ------ ----- ------- ---- -- --- ------- --<br>------- ---------- ------ -- ----- -- ----- -- ---- ------<br>--- ----- --- --- ------ -------- ----- --- ------ ----- --<br>----- ----- ---------- --- --- ------ ------ wary -- ------<br>------- --- ------ ----- --- ---- ------- -- ---- --- --<br>------- ------,109048,109042.79999923706,108775.427,108777.69999980927,108792.094,109058.766,,40,wary
screen,html.Screen,2_1_1_1_41,2022-05-11T12:43:25.357Z,,,,,,,,,,,,,,,,,54,,,,,,,,,,,,,,220.93399980926188,,response,,,,100,,,,,,,Space,keypress(Space),,,,,,,,-- --- ---- --- ------ ----- ------- ---- -- --- ------- --<br>------- ---------- ------ -- ----- -- ----- -- ---- ------<br>--- ----- --- --- ------ -------- ----- --- ------ ----- --<br>----- ----- ---------- --- --- ------ ------ ---- of ------<br>------- --- ------ ----- --- ---- ------- -- ---- --- --<br>------- ------,109284.69999980927,109279.69999980927,109042.099,109048.0999994278,109058.766,109292.104,,41,of
screen,html.Screen,2_1_1_1_42,2022-05-11T12:43:25.543Z,,,,,,,,,,,,,,,,,54,,,,,,,,,,,,,,173.49599942778877,,response,,,,100,,,,,,,Space,keypress(Space),,,,,,,,-- --- ---- --- ------ ----- ------- ---- -- --- ------- --<br>------- ---------- ------ -- ----- -- ----- -- ---- ------<br>--- ----- --- --- ------ -------- ----- --- ------ ----- --<br>----- ----- ---------- --- --- ------ ------ ---- -- French<br>------- --- ------ ----- --- ---- ------- -- ---- --- --<br>------- ------,109470.89999961853,109465.5999994278,109275.437,109284.89999961853,109292.104,109475.441,,42,French
screen,html.Screen,2_1_1_1_43,2022-05-11T12:43:25.750Z,,,,,,,,,,,,,,,,,54,,,,,,,,,,,,,,196.35899923705438,,response,,,,100,,,,,,,Space,keypress(Space),,,,,,,,-- --- ---- --- ------ ----- ------- ---- -- --- ------- --<br>------- ---------- ------ -- ----- -- ----- -- ---- ------<br>--- ----- --- --- ------ -------- ----- --- ------ ----- --<br>----- ----- ---------- --- --- ------ ------ ---- -- ------<br>credit. --- ------ ----- --- ---- ------- -- ---- --- --<br>------- ------,109677.19999980927,109671.79999923706,109458.774,109471.19999980927,109475.441,109692.112,,43,credit.
screen,html.Screen,2_1_1_1_44,2022-05-11T12:43:25.991Z,,,,,,,,,,,,,,,,,54,,,,,,,,,,,,,,221.58799980927142,,response,,,,100,,,,,,,Space,keypress(Space),,,,,,,,-- --- ---- --- ------ ----- ------- ---- -- --- ------- --<br>------- ---------- ------ -- ----- -- ----- -- ---- ------<br>--- ----- --- --- ------ -------- ----- --- ------ ----- --<br>----- ----- ---------- --- --- ------ ------ ---- -- ------<br>------- The ------ ----- --- ---- ------- -- ---- --- --<br>------- ------,109918.69999980927,109913.69999980927,109675.445,109677.29999923706,109692.112,109925.45,,44,The
screen,html.Screen,2_1_1_1_45,2022-05-11T12:43:26.198Z,,,,,,,,,,,,,,,,,54,,,,,,,,,,,,,,194.44999961853318,,response,,,,100,,,,,,,Space,keypress(Space),,,,,,,,-- --- ---- --- ------ ----- ------- ---- -- --- ------- --<br>------- ---------- ------ -- ----- -- ----- -- ---- ------<br>--- ----- --- --- ------ -------- ----- --- ------ ----- --<br>----- ----- ---------- --- --- ------ ------ ---- -- ------<br>------- --- French ----- --- ---- ------- -- ---- --- --<br>------- ------,110125.39999961853,110119.89999961853,109908.783,109918.89999961853,109925.45,110142.121,,45,French
screen,html.Screen,2_1_1_1_46,2022-05-11T12:43:26.428Z,,,,,,,,,,,,,,,,,54,,,,,,,,,,,,,,207.87900000000081,,response,,,,100,,,,,,,Space,keypress(Space),,,,,,,,-- --- ---- --- ------ ----- ------- ---- -- --- ------- --<br>------- ---------- ------ -- ----- -- ----- -- ---- ------<br>--- ----- --- --- ------ -------- ----- --- ------ ----- --<br>----- ----- ---------- --- --- ------ ------ ---- -- ------<br>------- --- ------ state --- ---- ------- -- ---- --- --<br>------- ------,110355.39999961853,110350,110125.454,110125.5999994278,110142.121,110358.792,,46,state
screen,html.Screen,2_1_1_1_47,2022-05-11T12:43:26.668Z,,,,,,,,,,,,,,,,,54,,,,,,,,,,,,,,231.50799923705927,,response,,,,100,,,,,,,Space,keypress(Space),,,,,,,,-- --- ---- --- ------ ----- ------- ---- -- --- ------- --<br>------- ---------- ------ -- ----- -- ----- -- ---- ------<br>--- ----- --- --- ------ -------- ----- --- ------ ----- --<br>----- ----- ---------- --- --- ------ ------ ---- -- ------<br>------- --- ------ ----- was ---- ------- -- ---- --- --<br>------- ------,110595.5,110590.29999923706,110342.125,110355.79999923706,110358.792,110608.797,,47,was
screen,html.Screen,2_1_1_1_48,2022-05-11T12:43:26.890Z,,,,,,,,,,,,,,,,,54,,,,,,,,,,,,,,203.70299999999406,,response,,,,100,,,,,,,Space,keypress(Space),,,,,,,,-- --- ---- --- ------ ----- ------- ---- -- --- ------- --<br>------- ---------- ------ -- ----- -- ----- -- ---- ------<br>--- ----- --- --- ------ -------- ----- --- ------ ----- --<br>----- ----- ---------- --- --- ------ ------ ---- -- ------<br>------- --- ------ ----- --- left ------- -- ---- --- --<br>------- ------,110817.69999980927,110812.5,110592.13,110595.69999980927,110608.797,110825.468,,48,left
screen,html.Screen,2_1_1_1_49,2022-05-11T12:43:27.105Z,,,,,,,,,,,,,,,,,54,,,,,,,,,,,,,,202.73199980927166,,response,,,,100,,,,,,,Space,keypress(Space),,,,,,,,-- --- ---- --- ------ ----- ------- ---- -- --- ------- --<br>------- ---------- ------ -- ----- -- ----- -- ---- ------<br>--- ----- --- --- ------ -------- ----- --- ------ ----- --<br>----- ----- ---------- --- --- ------ ------ ---- -- ------<br>------- --- ------ ----- --- ---- without -- ---- --- --<br>------- ------,111033,111028.19999980927,110808.801,110817.89999961853,110825.468,111042.139,,49,without
screen,html.Screen,2_1_1_1_50,2022-05-11T12:43:27.335Z,,,,,,,,,,,,,,,,,54,,,,,,,,,,,,,,214.66099923706497,,response,,,,100,,,,,,,Space,keypress(Space),,,,,,,,-- --- ---- --- ------ ----- ------- ---- -- --- ------- --<br>------- ---------- ------ -- ----- -- ----- -- ---- ------<br>--- ----- --- --- ------ -------- ----- --- ------ ----- --<br>----- ----- ---------- --- --- ------ ------ ---- -- ------<br>------- --- ------ ----- --- ---- ------- an ---- --- --<br>------- ------,111262.29999923706,111256.79999923706,111025.472,111033.39999961853,111042.139,111275.477,,50,an
screen,html.Screen,2_1_1_1_51,2022-05-11T12:43:27.559Z,,,,,,,,,,,,,,,,,54,,,,,,,,,,,,,,205.8229992370616,,response,,,,100,,,,,,,Space,keypress(Space),,,,,,,,-- --- ---- --- ------ ----- ------- ---- -- --- ------- --<br>------- ---------- ------ -- ----- -- ----- -- ---- ------<br>--- ----- --- --- ------ -------- ----- --- ------ ----- --<br>----- ----- ---------- --- --- ------ ------ ---- -- ------<br>------- --- ------ ----- --- ---- ------- -- easy --- --<br>------- ------,111486.69999980927,111481.29999923706,111258.81,111262.5,111275.477,111492.148,,51,easy
screen,html.Screen,2_1_1_1_52,2022-05-11T12:43:27.802Z,,,,,,,,,,,,,,,,,54,,,,,,,,,,,,,,231.6519992370595,,response,,,,100,,,,,,,Space,keypress(Space),,,,,,,,-- --- ---- --- ------ ----- ------- ---- -- --- ------- --<br>------- ---------- ------ -- ----- -- ----- -- ---- ------<br>--- ----- --- --- ------ -------- ----- --- ------ ----- --<br>----- ----- ---------- --- --- ------ ------ ---- -- ------<br>------- --- ------ ----- --- ---- ------- -- ---- way --<br>------- ------,111729.69999980927,111723.79999923706,111475.481,111487,111492.148,111742.153,,52,way
screen,html.Screen,2_1_1_1_53,2022-05-11T12:43:28.087Z,,,,,,,,,,,,,,,,,54,,,,,,,,,,,,,,265.64699923705484,,response,,,,100,,,,,,,Space,keypress(Space),,,,,,,,-- --- ---- --- ------ ----- ------- ---- -- --- ------- --<br>------- ---------- ------ -- ----- -- ----- -- ---- ------<br>--- ----- --- --- ------ -------- ----- --- ------ ----- --<br>----- ----- ---------- --- --- ------ ------ ---- -- ------<br>------- --- ------ ----- --- ---- ------- -- ---- --- of<br>------- ------,112014.39999961853,112007.79999923706,111725.486,111730,111742.153,112025.492,,53,of
screen,html.Screen,2_1_1_1_54,2022-05-11T12:43:28.390Z,,,,,,,,,,,,,,,,,54,,,,,,,,,,,,,,287.3079992370622,,response,,,,100,,,,,,,Space,keypress(Space),,,,,,,,-- --- ---- --- ------ ----- ------- ---- -- --- ------- --<br>------- ---------- ------ -- ----- -- ----- -- ---- ------<br>--- ----- --- --- ------ -------- ----- --- ------ ----- --<br>----- ----- ---------- --- --- ------ ------ ---- -- ------<br>------- --- ------ ----- --- ---- ------- -- ---- --- --<br>raising ------,112318,112312.79999923706,112008.825,112014.5,112025.492,112325.498,,54,raising
screen,html.Screen,2_1_1_1_55,2022-05-11T12:43:28.715Z,,,,,,,,,,,,,,,,,54,,,,,,,,,,,,,,312.3019992370537,,response,,,,100,,,,,,,Space,keypress(Space),,,,,,,,-- --- ---- --- ------ ----- ------- ---- -- --- ------- --<br>------- ---------- ------ -- ----- -- ----- -- ---- ------<br>--- ----- --- --- ------ -------- ----- --- ------ ----- --<br>----- ----- ---------- --- --- ------ ------ ---- -- ------<br>------- --- ------ ----- --- ---- ------- -- ---- --- --<br>------- money.,112642.89999961853,112637.79999923706,112308.831,112318.29999923706,112325.498,112658.838,,55,money.
Item 100,flow.Loop,2_1_1_1,2022-05-11T12:43:28.716Z,,,,,,,,,,,,,,,,,,,,,,,,,,,,,,,11662.54999923706,,completion,,,,,D,,,,,,,,,,,silence,,,,,112643.29999923706,112637.79999923706,100958.583,100963.5,100975.25,112658.838,,,
Question 1,html.Screen,2_1_1_2,2022-05-11T12:43:30.560Z,,,,,,,,,,,,,,,,,,,,,,,,,,,,true,TRUE,,1826.6619999999966,,response,,,,100,D,,,,,,TRUE,click #choice-1,,,,silence,,,,,114487.29999923706,114485.5,112642.171,112643.39999961853,112658.838,114508.901,,,
Question 2,html.Screen,2_1_1_3,2022-05-11T12:43:32.403Z,,,,,,,,,,,,,,,,,,,,,,,,,,,,false,FALSE,,1820.1989994277974,,response,,,,100,D,,,,,,TRUE,click #choice-1,,,,silence,,,,,116331,116329.0999994278,114492.234,114487.5,114508.901,116342.271,,,
Item 100,flow.Sequence,2_1_1,2022-05-11T12:43:32.404Z,,,,,,,,,,,,,,,,,,,,,,,,,,,,,,,25354.05299942779,,completion,,,,,,,,,,,,,,,,,,,,,116331.29999923706,116329.0999994278,90958.38,90950.69999980927,90975.047,116342.271,,,
End of Practice,html.Page,2_1_2,2022-05-11T12:43:35.241Z,,,,,,,,,,,,,,,,,,,,,,,,,,,,,,,2825.528999237067,,form submission,,,,,,,,,,,,,,,,,,,,,119168.39999961853,119167.79999923706,116325.604,116331.39999961853,116342.271,119192.328,,,
Practice,flow.Sequence,2_1,2022-05-11T12:43:35.241Z,,,,,,,,,,,,,,,,,,,,,,,,,,,,,,,60210.18499923706,,completion,,,,,,,,,,,,,,,,,,,,,119168.5999994278,119167.79999923706,58940.948,58939.5,58957.615,119192.328,,,
Trap_instruction,html.Page,2_2_0,2022-05-11T12:43:38.505Z,,,,,,,,,,,,,,,,,,,,,,,,,,,,,,,3239.7719994278013,,form submission,,,,,,,,,,,,,,,,,,,,,122432.39999961853,122432.0999994278,119175.661,119168.79999923706,119192.328,122459.06,,,
trap_trial,html.Screen,2_2_1,2022-05-11T12:43:40.934Z,,,,,,,,,,,,,,,,,,,,,,,,,,,,true,1,,2400.4400000000023,,response,,,,,,,,,,,1,click #choice-1,,,,,,,,,124861.39999961853,124859.5,122442.393,122432.5,122459.06,124875.775,,,
end of trap trial,html.Page,2_2_2,2022-05-11T12:43:42.908Z,,,,,,,,,,,,,,,,,,,,,,,,,,,,,,,1960.0249992370664,,form submission,,,,,,,,,,,,,,,,,,,,,126836.29999923706,126835.79999923706,124859.108,124861.5999994278,124875.775,126859.191,,,
Trap 1,flow.Sequence,2_2,2022-05-11T12:43:42.909Z,,,,,,,,,,,,,,,,,,,,,,,,,,,,,,,7643.4719992370665,,completion,,,,,,,,,,,,,,,,,,,,,126836.5999994278,126835.79999923706,119175.661,119168.5999994278,119192.328,126859.191,,,
Standby,html.Page,2_3_0,2022-05-11T12:43:50.917Z,,,,,,,,,,,,,,,,,,,,,,,,,,,,,,,8000.159999999989,,timeout,,,,,,,,,,,,,,,,,,,,,134844.69999980927,134842.684,126842.524,126836.69999980927,126859.191,134859.351,,,
Holding screen,html.Screen,2_3_1_0_0,2022-05-11T12:43:57.916Z,,,,,,,,,,,,,,,,,,,,,,,,,,,,,,,7000.165999999997,,timeout,,,,,,,,,,,,,,,,,,,,,141844.19999980927,141842.85,134842.684,134845.0999994278,134859.351,141859.517,,,
screen,html.Screen,2_3_1_0_1_0,2022-05-11T12:43:58.686Z,,,,,,,,,,,,,,,,,2,,,,,,,,,,,,,,747.782999237068,,response,,,,1,D,,,,,,Space,keypress(Space),,,,silence,,,,Two ---- ------ --- ------- ---------- ------- ----------<br>--- --------- --- ----------- ------- ----- ------- ---<br>--------- ---- -- --- ---- -- --------- -- ---- -------<br>-- --------- ------ --- ----- ------ ---- --- --------- --<br>------ - ---- -- --- ----------- ------- ---- ----- -----<br>--- -------- - ------ ---- -- ----- ---- --- --- -----------<br>-- -------,142613.69999980927,142607.29999923706,141842.85,141844.5,141859.517,142626.199,,0,Two
screen,html.Screen,2_3_1_0_1_1,2022-05-11T12:43:59.231Z,,,,,,,,,,,,,,,,,2,,,,,,,,,,,,,,528.1009992370673,,response,,,,1,D,,,,,,Space,keypress(Space),,,,silence,,,,--- days ------ --- ------- ---------- ------- ----------<br>--- --------- --- ----------- ------- ----- ------- ---<br>--------- ---- -- --- ---- -- --------- -- ---- -------<br>-- --------- ------ --- ----- ------ ---- --- --------- --<br>------ - ---- -- --- ----------- ------- ---- ----- -----<br>--- -------- - ------ ---- -- ----- ---- --- --- -----------<br>-- -------,143159.39999961853,143154.29999923706,142609.532,142614.0999994278,142626.199,143176.21,,1,days
screen,html.Screen,2_3_1_0_1_2,2022-05-11T12:43:59.411Z,,,,,,,,,,,,,,,,,2,,,,,,,,,,,,,,157.88999942780356,,response,,,,1,D,,,,,,Space,keypress(Space),,,,silence,,,,"--- ---- later, --- ------- ---------- ------- ----------<br>--- --------- --- ----------- ------- ----- ------- ---<br>--------- ---- -- --- ---- -- --------- -- ---- -------<br>-- --------- ------ --- ----- ------ ---- --- --------- --<br>------ - ---- -- --- ----------- ------- ---- ----- -----<br>--- -------- - ------ ---- -- ----- ---- --- --- -----------<br>-- -------",143339.0999994278,143334.0999994278,143159.543,143159.5999994278,143176.21,143342.88,,2,"later,"
screen,html.Screen,2_3_1_0_1_3,2022-05-11T12:43:59.587Z,,,,,,,,,,,,,,,,,2,,,,,,,,,,,,,,167.01999961852562,,response,,,,1,D,,,,,,Space,keypress(Space),,,,silence,,,,--- ---- ------ the ------- ---------- ------- ----------<br>--- --------- --- ----------- ------- ----- ------- ---<br>--------- ---- -- --- ---- -- --------- -- ---- -------<br>-- --------- ------ --- ----- ------ ---- --- --------- --<br>------ - ---- -- --- ----------- ------- ---- ----- -----<br>--- -------- - ------ ---- -- ----- ---- --- --- -----------<br>-- -------,143515.39999961853,143509.89999961853,143326.213,143339.29999923706,143342.88,143526.217,,3,the
screen,html.Screen,2_3_1_0_1_4,2022-05-11T12:43:59.794Z,,,,,,,,,,,,,,,,,2,,,,,,,,,,,,,,190.58299923705636,,response,,,,1,D,,,,,,Space,keypress(Space),,,,silence,,,,--- ---- ------ --- British ---------- ------- ----------<br>--- --------- --- ----------- ------- ----- ------- ---<br>--------- ---- -- --- ---- -- --------- -- ---- -------<br>-- --------- ------ --- ----- ------ ---- --- --------- --<br>------ - ---- -- --- ----------- ------- ---- ----- -----<br>--- -------- - ------ ---- -- ----- ---- --- --- -----------<br>-- -------,143722.39999961853,143716.79999923706,143509.55,143515.69999980927,143526.217,143726.221,,4,British
screen,html.Screen,2_3_1_0_1_5,2022-05-11T12:44:00.028Z,,,,,,,,,,,,,,,,,2,,,,,,,,,,,,,,224.37899942780496,,response,,,,1,D,,,,,,Space,keypress(Space),,,,silence,,,,--- ---- ------ --- ------- astronomer ------- ----------<br>--- --------- --- ----------- ------- ----- ------- ---<br>--------- ---- -- --- ---- -- --------- -- ---- -------<br>-- --------- ------ --- ----- ------ ---- --- --------- --<br>------ - ---- -- --- ----------- ------- ---- ----- -----<br>--- -------- - ------ ---- -- ----- ---- --- --- -----------<br>-- -------,143956.39999961853,143950.5999994278,143709.554,143722.69999980927,143726.221,143959.559,,5,astronomer
screen,html.Screen,2_3_1_0_1_6,2022-05-11T12:44:00.246Z,,,,,,,,,,,,,,,,,2,,,,,,,,,,,,,,209.74099923705216,,response,,,,1,D,,,,,,Space,keypress(Space),,,,silence,,,,--- ---- ------ --- ------- ---------- Richard ----------<br>--- --------- --- ----------- ------- ----- ------- ---<br>--------- ---- -- --- ---- -- --------- -- ---- -------<br>-- --------- ------ --- ----- ------ ---- --- --------- --<br>------ - ---- -- --- ----------- ------- ---- ----- -----<br>--- -------- - ------ ---- -- ----- ---- --- --- -----------<br>-- -------,144174.39999961853,144169.29999923706,143942.892,143956.79999923706,143959.559,144176.23,,6,Richard
screen,html.Screen,2_3_1_0_1_7,2022-05-11T12:44:00.500Z,,,,,,,,,,,,,,,,,2,,,,,,,,,,,,,,247.46999980925466,,response,,,,1,D,,,,,,Space,keypress(Space),,,,silence,,,,--- ---- ------ --- ------- ---------- ------- Carrington<br>--- --------- --- ----------- ------- ----- ------- ---<br>--------- ---- -- --- ---- -- --------- -- ---- -------<br>-- --------- ------ --- ----- ------ ---- --- --------- --<br>------ - ---- -- --- ----------- ------- ---- ----- -----<br>--- -------- - ------ ---- -- ----- ---- --- --- -----------<br>-- -------,144428.0999994278,144423.69999980927,144159.563,144174.69999980927,144176.23,144442.902,,7,Carrington
screen,html.Screen,2_3_1_0_1_8,2022-05-11T12:44:00.818Z,,,,,,,,,,,,,,,,,2,,,,,,,,,,,,,,297.19799942779355,,response,,,,1,D,,,,,,Space,keypress(Space),,,,silence,,,,--- ---- ------ --- ------- ---------- ------- ----------<br>was --------- --- ----------- ------- ----- ------- ---<br>--------- ---- -- --- ---- -- --------- -- ---- -------<br>-- --------- ------ --- ----- ------ ---- --- --------- --<br>------ - ---- -- --- ----------- ------- ---- ----- -----<br>--- -------- - ------ ---- -- ----- ---- --- --- -----------<br>-- -------,144745.69999980927,144740.0999994278,144426.235,144428.29999923706,144442.902,144759.575,,8,was
screen,html.Screen,2_3_1_0_1_9,2022-05-11T12:44:01.023Z,,,,,,,,,,,,,,,,,2,,,,,,,,,,,,,,186.32499961851863,,response,,,,1,D,,,,,,Space,keypress(Space),,,,silence,,,,--- ---- ------ --- ------- ---------- ------- ----------<br>--- observing --- ----------- ------- ----- ------- ---<br>--------- ---- -- --- ---- -- --------- -- ---- -------<br>-- --------- ------ --- ----- ------ ---- --- --------- --<br>------ - ---- -- --- ----------- ------- ---- ----- -----<br>--- -------- - ------ ---- -- ----- ---- --- --- -----------<br>-- -------,144951,144945.89999961853,144742.908,144746,144759.575,144959.579,,9,observing
screen,html.Screen,2_3_1_0_1_10,2022-05-11T12:44:01.222Z,,,,,,,,,,,,,,,,,2,,,,,,,,,,,,,,185.72099923706264,,response,,,,1,D,,,,,,Space,keypress(Space),,,,silence,,,,--- ---- ------ --- ------- ---------- ------- ----------<br>--- --------- the ----------- ------- ----- ------- ---<br>--------- ---- -- --- ---- -- --------- -- ---- -------<br>-- --------- ------ --- ----- ------ ---- --- --------- --<br>------ - ---- -- --- ----------- ------- ---- ----- -----<br>--- -------- - ------ ---- -- ----- ---- --- --- -----------<br>-- -------,145150.5999994278,145145.29999923706,144942.912,144951.0999994278,144959.579,145159.583,,10,the
screen,html.Screen,2_3_1_0_1_11,2022-05-11T12:44:01.443Z,,,,,,,,,,,,,,,,,2,,,,,,,,,,,,,,206.61699980925187,,response,,,,1,D,,,,,,Space,keypress(Space),,,,silence,,,,--- ---- ------ --- ------- ---------- ------- ----------<br>--- --------- --- interesting ------- ----- ------- ---<br>--------- ---- -- --- ---- -- --------- -- ---- -------<br>-- --------- ------ --- ----- ------ ---- --- --------- --<br>------ - ---- -- --- ----------- ------- ---- ----- -----<br>--- -------- - ------ ---- -- ----- ---- --- --- -----------<br>-- -------,145371.39999961853,145366.19999980927,145142.916,145150.79999923706,145159.583,145376.254,,11,interesting
screen,html.Screen,2_3_1_0_1_12,2022-05-11T12:44:01.920Z,,,,,,,,,,,,,,,,,2,,,,,,,,,,,,,,466.645999618544,,response,,,,1,D,,,,,,Space,keypress(Space),,,,silence,,,,--- ---- ------ --- ------- ---------- ------- ----------<br>--- --------- --- ----------- sunspot ----- ------- ---<br>--------- ---- -- --- ---- -- --------- -- ---- -------<br>-- --------- ------ --- ----- ------ ---- --- --------- --<br>------ - ---- -- --- ----------- ------- ---- ----- -----<br>--- -------- - ------ ---- -- ----- ---- --- --- -----------<br>-- -------,145848.0999994278,145842.89999961853,145359.587,145371.69999980927,145376.254,145859.597,,12,sunspot
screen,html.Screen,2_3_1_0_1_13,2022-05-11T12:44:02.192Z,,,,,,,,,,,,,,,,,2,,,,,,,,,,,,,,254.6029998092563,,response,,,,1,D,,,,,,Space,keypress(Space),,,,silence,,,,--- ---- ------ --- ------- ---------- ------- ----------<br>--- --------- --- ----------- ------- group ------- ---<br>--------- ---- -- --- ---- -- --------- -- ---- -------<br>-- --------- ------ --- ----- ------ ---- --- --------- --<br>------ - ---- -- --- ----------- ------- ---- ----- -----<br>--- -------- - ------ ---- -- ----- ---- --- --- -----------<br>-- -------,146119.69999980927,146114.19999980927,145842.93,145848.29999923706,145859.597,146126.269,,13,group
screen,html.Screen,2_3_1_0_1_14,2022-05-11T12:44:02.411Z,,,,,,,,,,,,,,,,,2,,,,,,,,,,,,,,207.9309998092649,,response,,,,1,D,,,,,,Space,keypress(Space),,,,silence,,,,--- ---- ------ --- ------- ---------- ------- ----------<br>--- --------- --- ----------- ------- ----- through ---<br>--------- ---- -- --- ---- -- --------- -- ---- -------<br>-- --------- ------ --- ----- ------ ---- --- --------- --<br>------ - ---- -- --- ----------- ------- ---- ----- -----<br>--- -------- - ------ ---- -- ----- ---- --- --- -----------<br>-- -------,146339.29999923706,146334.19999980927,146109.602,146120,146126.269,146342.94,,14,through
screen,html.Screen,2_3_1_0_1_15,2022-05-11T12:44:02.674Z,,,,,,,,,,,,,,,,,2,,,,,,,,,,,,,,254.15999942779308,,response,,,,1,D,,,,,,Space,keypress(Space),,,,silence,,,,--- ---- ------ --- ------- ---------- ------- ----------<br>--- --------- --- ----------- ------- ----- ------- his<br>--------- ---- -- --- ---- -- --------- -- ---- -------<br>-- --------- ------ --- ----- ------ ---- --- --------- --<br>------ - ---- -- --- ----------- ------- ---- ----- -----<br>--- -------- - ------ ---- -- ----- ---- --- --- -----------<br>-- -------,146602.5999994278,146597.0999994278,146326.273,146339.5,146342.94,146609.663,,15,his
screen,html.Screen,2_3_1_0_1_16,2022-05-11T12:44:02.957Z,,,,,,,,,,,,,,,,,2,,,,,,,,,,,,,,270.6369992370601,,response,,,,1,D,,,,,,Space,keypress(Space),,,,silence,,,,--- ---- ------ --- ------- ---------- ------- ----------<br>--- --------- --- ----------- ------- ----- ------- ---<br>telescope ---- -- --- ---- -- --------- -- ---- -------<br>-- --------- ------ --- ----- ------ ---- --- --------- --<br>------ - ---- -- --- ----------- ------- ---- ----- -----<br>--- -------- - ------ ---- -- ----- ---- --- --- -----------<br>-- -------,146885.19999980927,146880.29999923706,146592.996,146603.0999994278,146609.663,146893.002,,16,telescope
screen,html.Screen,2_3_1_0_1_17,2022-05-11T12:44:03.213Z,,,,,,,,,,,,,,,,,2,,,,,,,,,,,,,,242.49799999999232,,response,,,,1,D,,,,,,Space,keypress(Space),,,,silence,,,,--- ---- ------ --- ------- ---------- ------- ----------<br>--- --------- --- ----------- ------- ----- ------- ---<br>--------- when -- --- ---- -- --------- -- ---- -------<br>-- --------- ------ --- ----- ------ ---- --- --------- --<br>------ - ---- -- --- ----------- ------- ---- ----- -----<br>--- -------- - ------ ---- -- ----- ---- --- --- -----------<br>-- -------,147140.79999923706,147135.5,146876.335,146885.5,146893.002,147143.007,,17,when
screen,html.Screen,2_3_1_0_1_18,2022-05-11T12:44:03.462Z,,,,,,,,,,,,,,,,,2,,,,,,,,,,,,,,242.39299961851793,,response,,,,1,D,,,,,,Space,keypress(Space),,,,silence,,,,--- ---- ------ --- ------- ---------- ------- ----------<br>--- --------- --- ----------- ------- ----- ------- ---<br>--------- ---- he --- ---- -- --------- -- ---- -------<br>-- --------- ------ --- ----- ------ ---- --- --------- --<br>------ - ---- -- --- ----------- ------- ---- ----- -----<br>--- -------- - ------ ---- -- ----- ---- --- --- -----------<br>-- -------,147390.19999980927,147385.39999961853,147126.34,147141,147143.007,147393.012,,18,he
screen,html.Screen,2_3_1_0_1_19,2022-05-11T12:44:03.696Z,,,,,,,,,,,,,,,,,2,,,,,,,,,,,,,,227.68799980927724,,response,,,,1,D,,,,,,Space,keypress(Space),,,,silence,,,,--- ---- ------ --- ------- ---------- ------- ----------<br>--- --------- --- ----------- ------- ----- ------- ---<br>--------- ---- -- saw ---- -- --------- -- ---- -------<br>-- --------- ------ --- ----- ------ ---- --- --------- --<br>------ - ---- -- --- ----------- ------- ---- ----- -----<br>--- -------- - ------ ---- -- ----- ---- --- --- -----------<br>-- -------,147624.5999994278,147620.69999980927,147376.345,147390.39999961853,147393.012,147626.35,,19,saw
screen,html.Screen,2_3_1_0_1_20,2022-05-11T12:44:03.944Z,,,,,,,,,,,,,,,,,2,,,,,,,,,,,,,,241.54999961852445,,response,,,,1,D,,,,,,Space,keypress(Space),,,,silence,,,,--- ---- ------ --- ------- ---------- ------- ----------<br>--- --------- --- ----------- ------- ----- ------- ---<br>--------- ---- -- --- what -- --------- -- ---- -------<br>-- --------- ------ --- ----- ------ ---- --- --------- --<br>------ - ---- -- --- ----------- ------- ---- ----- -----<br>--- -------- - ------ ---- -- ----- ---- --- --- -----------<br>-- -------,147872.39999961853,147867.89999961853,147609.683,147624.79999923706,147626.35,147893.022,,20,what
screen,html.Screen,2_3_1_0_1_21,2022-05-11T12:44:04.204Z,,,,,,,,,,,,,,,,,2,,,,,,,,,,,,,,233.37799961853307,,response,,,,1,D,,,,,,Space,keypress(Space),,,,silence,,,,--- ---- ------ --- ------- ---------- ------- ----------<br>--- --------- --- ----------- ------- ----- ------- ---<br>--------- ---- -- --- ---- he --------- -- ---- -------<br>-- --------- ------ --- ----- ------ ---- --- --------- --<br>------ - ---- -- --- ----------- ------- ---- ----- -----<br>--- -------- - ------ ---- -- ----- ---- --- --- -----------<br>-- -------,148131.89999961853,148126.39999961853,147859.688,147872.89999961853,147893.022,148143.027,,21,he
screen,html.Screen,2_3_1_0_1_22,2022-05-11T12:44:04.437Z,,,,,,,,,,,,,,,,,2,,,,,,,,,,,,,,216.3729996185284,,response,,,,1,D,,,,,,Space,keypress(Space),,,,silence,,,,--- ---- ------ --- ------- ---------- ------- ----------<br>--- --------- --- ----------- ------- ----- ------- ---<br>--------- ---- -- --- ---- -- described -- ---- -------<br>-- --------- ------ --- ----- ------ ---- --- --------- --<br>------ - ---- -- --- ----------- ------- ---- ----- -----<br>--- -------- - ------ ---- -- ----- ---- --- --- -----------<br>-- -------,148364.69999980927,148359.39999961853,148126.36,148132.0999994278,148143.027,148376.365,,22,described
screen,html.Screen,2_3_1_0_1_23,2022-05-11T12:44:04.703Z,,,,,,,,,,,,,,,,,2,,,,,,,,,,,,,,248.0349996185396,,response,,,,1,D,,,,,,Space,keypress(Space),,,,silence,,,,--- ---- ------ --- ------- ---------- ------- ----------<br>--- --------- --- ----------- ------- ----- ------- ---<br>--------- ---- -- --- ---- -- --------- as ---- -------<br>-- --------- ------ --- ----- ------ ---- --- --------- --<br>------ - ---- -- --- ----------- ------- ---- ----- -----<br>--- -------- - ------ ---- -- ----- ---- --- --- -----------<br>-- -------,148630.69999980927,148624.39999961853,148359.698,148365,148376.365,148643.037,,23,as
screen,html.Screen,2_3_1_0_1_24,2022-05-11T12:44:04.961Z,,,,,,,,,,,,,,,,,2,,,,,,,,,,,,,,240.96299999998882,,response,,,,1,D,,,,,,Space,keypress(Space),,,,silence,,,,"--- ---- ------ --- ------- ---------- ------- ----------<br>--- --------- --- ----------- ------- ----- ------- ---<br>--------- ---- -- --- ---- -- --------- -- ""two -------<br>-- --------- ------ --- ----- ------ ---- --- --------- --<br>------ - ---- -- --- ----------- ------- ---- ----- -----<br>--- -------- - ------ ---- -- ----- ---- --- --- -----------<br>-- -------",148888.89999961853,148884,148626.37,148630.89999961853,148643.037,148893.042,,24,"""two"
screen,html.Screen,2_3_1_0_1_25,2022-05-11T12:44:05.280Z,,,,,,,,,,,,,,,,,2,,,,,,,,,,,,,,309.6579998092784,,response,,,,1,D,,,,,,Space,keypress(Space),,,,silence,,,,--- ---- ------ --- ------- ---------- ------- ----------<br>--- --------- --- ----------- ------- ----- ------- ---<br>--------- ---- -- --- ---- -- --------- -- ---- patches<br>-- --------- ------ --- ----- ------ ---- --- --------- --<br>------ - ---- -- --- ----------- ------- ---- ----- -----<br>--- -------- - ------ ---- -- ----- ---- --- --- -----------<br>-- -------,149208.19999980927,149202.69999980927,148876.375,148889.0999994278,148893.042,149209.715,,25,patches
screen,html.Screen,2_3_1_0_1_26,2022-05-11T12:44:05.600Z,,,,,,,,,,,,,,,,,2,,,,,,,,,,,,,,313.18499961853377,,response,,,,1,D,,,,,,Space,keypress(Space),,,,silence,,,,--- ---- ------ --- ------- ---------- ------- ----------<br>--- --------- --- ----------- ------- ----- ------- ---<br>--------- ---- -- --- ---- -- --------- -- ---- -------<br>of --------- ------ --- ----- ------ ---- --- --------- --<br>------ - ---- -- --- ----------- ------- ---- ----- -----<br>--- -------- - ------ ---- -- ----- ---- --- --- -----------<br>-- -------,149528.5,149522.89999961853,149193.048,149208.5,149209.715,149543.055,,26,of
screen,html.Screen,2_3_1_0_1_27,2022-05-11T12:44:05.820Z,,,,,,,,,,,,,,,,,2,,,,,,,,,,,,,,200.24499923706753,,response,,,,1,D,,,,,,Space,keypress(Space),,,,silence,,,,--- ---- ------ --- ------- ---------- ------- ----------<br>--- --------- --- ----------- ------- ----- ------- ---<br>--------- ---- -- --- ---- -- --------- -- ---- -------<br>-- intensely ------ --- ----- ------ ---- --- --------- --<br>------ - ---- -- --- ----------- ------- ---- ----- -----<br>--- -------- - ------ ---- -- ----- ---- --- --- -----------<br>-- -------,149748.69999980927,149743.29999923706,149526.388,149528.79999923706,149543.055,149759.726,,27,intensely
screen,html.Screen,2_3_1_0_1_28,2022-05-11T12:44:06.030Z,,,,,,,,,,,,,,,,,2,,,,,,,,,,,,,,193.07399923706544,,response,,,,1,D,,,,,,Space,keypress(Space),,,,silence,,,,--- ---- ------ --- ------- ---------- ------- ----------<br>--- --------- --- ----------- ------- ----- ------- ---<br>--------- ---- -- --- ---- -- --------- -- ---- -------<br>-- --------- bright --- ----- ------ ---- --- --------- --<br>------ - ---- -- --- ----------- ------- ---- ----- -----<br>--- -------- - ------ ---- -- ----- ---- --- --- -----------<br>-- -------,149958.0999994278,149952.79999923706,149743.059,149748.79999923706,149759.726,149959.73,,28,bright
screen,html.Screen,2_3_1_0_1_29,2022-05-11T12:44:06.279Z,,,,,,,,,,,,,,,,,2,,,,,,,,,,,,,,242.46999980925466,,response,,,,1,D,,,,,,Space,keypress(Space),,,,silence,,,,--- ---- ------ --- ------- ---------- ------- ----------<br>--- --------- --- ----------- ------- ----- ------- ---<br>--------- ---- -- --- ---- -- --------- -- ---- -------<br>-- --------- ------ and ----- ------ ---- --- --------- --<br>------ - ---- -- --- ----------- ------- ---- ----- -----<br>--- -------- - ------ ---- -- ----- ---- --- --- -----------<br>-- -------,150207.39999961853,150202.19999980927,149943.063,149958.5,149959.73,150209.735,,29,and
screen,html.Screen,2_3_1_0_1_30,2022-05-11T12:44:06.534Z,,,,,,,,,,,,,,,,,2,,,,,,,,,,,,,,247.06499923707452,,response,,,,1,D,,,,,,Space,keypress(Space),,,,silence,,,,--- ---- ------ --- ------- ---------- ------- ----------<br>--- --------- --- ----------- ------- ----- ------- ---<br>--------- ---- -- --- ---- -- --------- -- ---- -------<br>-- --------- ------ --- white ------ ---- --- --------- --<br>------ - ---- -- --- ----------- ------- ---- ----- -----<br>--- -------- - ------ ---- -- ----- ---- --- --- -----------<br>-- -------,150462.19999980927,150456.79999923706,150193.068,150207.5,150209.735,150476.407,,30,white
screen,html.Screen,2_3_1_0_1_31,2022-05-11T12:44:06.768Z,,,,,,,,,,,,,,,,,2,,,,,,,,,,,,,,215.29299980925862,,response,,,,1,D,,,,,,Space,keypress(Space),,,,silence,,,,"--- ---- ------ --- ------- ---------- ------- ----------<br>--- --------- --- ----------- ------- ----- ------- ---<br>--------- ---- -- --- ---- -- --------- -- ---- -------<br>-- --------- ------ --- ----- light"" ---- --- --------- --<br>------ - ---- -- --- ----------- ------- ---- ----- -----<br>--- -------- - ------ ---- -- ----- ---- --- --- -----------<br>-- -------",150696.5999994278,150691.69999980927,150459.74,150462.39999961853,150476.407,150709.745,,31,"light"""
screen,html.Screen,2_3_1_0_1_32,2022-05-11T12:44:07.019Z,,,,,,,,,,,,,,,,,2,,,,,,,,,,,,,,231.4549998092698,,response,,,,1,D,,,,,,Space,keypress(Space),,,,silence,,,,--- ---- ------ --- ------- ---------- ------- ----------<br>--- --------- --- ----------- ------- ----- ------- ---<br>--------- ---- -- --- ---- -- --------- -- ---- -------<br>-- --------- ------ --- ----- ------ over --- --------- --<br>------ - ---- -- --- ----------- ------- ---- ----- -----<br>--- -------- - ------ ---- -- ----- ---- --- --- -----------<br>-- -------,150947.29999923706,150941.19999980927,150693.078,150696.69999980927,150709.745,150959.75,,32,over
screen,html.Screen,2_3_1_0_1_33,2022-05-11T12:44:07.253Z,,,,,,,,,,,,,,,,,2,,,,,,,,,,,,,,216.94999980926514,,response,,,,1,D,,,,,,Space,keypress(Space),,,,silence,,,,--- ---- ------ --- ------- ---------- ------- ----------<br>--- --------- --- ----------- ------- ----- ------- ---<br>--------- ---- -- --- ---- -- --------- -- ---- -------<br>-- --------- ------ --- ----- ------ ---- the --------- --<br>------ - ---- -- --- ----------- ------- ---- ----- -----<br>--- -------- - ------ ---- -- ----- ---- --- --- -----------<br>-- -------,151181.69999980927,151176.69999980927,150943.083,150947.5999994278,150959.75,151193.088,,33,the
screen,html.Screen,2_3_1_0_1_34,2022-05-11T12:44:07.489Z,,,,,,,,,,,,,,,,,2,,,,,,,,,,,,,,219.41200000001118,,response,,,,1,D,,,,,,Space,keypress(Space),,,,silence,,,,--- ---- ------ --- ------- ---------- ------- ----------<br>--- --------- --- ----------- ------- ----- ------- ---<br>--------- ---- -- --- ---- -- --------- -- ---- -------<br>-- --------- ------ --- ----- ------ ---- --- sunspots. --<br>------ - ---- -- --- ----------- ------- ---- ----- -----<br>--- -------- - ------ ---- -- ----- ---- --- --- -----------<br>-- -------,151416.89999961853,151412.5,151176.421,151182,151193.088,151426.426,,34,sunspots.
screen,html.Screen,2_3_1_0_1_35,2022-05-11T12:44:07.768Z,,,,,,,,,,,,,,,,,2,,,,,,,,,,,,,,263.9739996185235,,response,,,,1,D,,,,,,Space,keypress(Space),,,,silence,,,,--- ---- ------ --- ------- ---------- ------- ----------<br>--- --------- --- ----------- ------- ----- ------- ---<br>--------- ---- -- --- ---- -- --------- -- ---- -------<br>-- --------- ------ --- ----- ------ ---- --- --------- He<br>------ - ---- -- --- ----------- ------- ---- ----- -----<br>--- -------- - ------ ---- -- ----- ---- --- --- -----------<br>-- -------,151695.79999923706,151690.39999961853,151409.759,151417,151426.426,151709.765,,35,He
screen,html.Screen,2_3_1_0_1_36,2022-05-11T12:44:08.039Z,,,,,,,,,,,,,,,,,2,,,,,,,,,,,,,,251.6349996185163,,response,,,,1,D,,,,,,Space,keypress(Space),,,,silence,,,,--- ---- ------ --- ------- ---------- ------- ----------<br>--- --------- --- ----------- ------- ----- ------- ---<br>--------- ---- -- --- ---- -- --------- -- ---- -------<br>-- --------- ------ --- ----- ------ ---- --- --------- --<br>jotted - ---- -- --- ----------- ------- ---- ----- -----<br>--- -------- - ------ ---- -- ----- ---- --- --- -----------<br>-- -------,151966.89999961853,151961.39999961853,151693.098,151696.0999994278,151709.765,151976.437,,36,jotted
screen,html.Screen,2_3_1_0_1_37,2022-05-11T12:44:08.251Z,,,,,,,,,,,,,,,,,2,,,,,,,,,,,,,,197.3629992370552,,response,,,,1,D,,,,,,Space,keypress(Space),,,,silence,,,,--- ---- ------ --- ------- ---------- ------- ----------<br>--- --------- --- ----------- ------- ----- ------- ---<br>--------- ---- -- --- ---- -- --------- -- ---- -------<br>-- --------- ------ --- ----- ------ ---- --- --------- --<br>------ a ---- -- --- ----------- ------- ---- ----- -----<br>--- -------- - ------ ---- -- ----- ---- --- --- -----------<br>-- -------,152179.39999961853,152173.79999923706,151959.77,151967.0999994278,151976.437,152193.108,,37,a
screen,html.Screen,2_3_1_0_1_38,2022-05-11T12:44:08.454Z,,,,,,,,,,,,,,,,,2,,,,,,,,,,,,,,183.79199961852282,,response,,,,1,D,,,,,,Space,keypress(Space),,,,silence,,,,--- ---- ------ --- ------- ---------- ------- ----------<br>--- --------- --- ----------- ------- ----- ------- ---<br>--------- ---- -- --- ---- -- --------- -- ---- -------<br>-- --------- ------ --- ----- ------ ---- --- --------- --<br>------ - note -- --- ----------- ------- ---- ----- -----<br>--- -------- - ------ ---- -- ----- ---- --- --- -----------<br>-- -------,152382.69999980927,152376.89999961853,152176.441,152179.5999994278,152193.108,152393.112,,38,note
