sender,sender_type,sender_id,timestamp,meta,,Blues,Classical,Country,Dance,Electronic,Folk,Gospel,Hip-Hop,Jazz,Latin,Musical/Film,New-age,Pop,Prolific_id,Provo_ID,R&B,Rap,Reggae,Religious,Rock,Soul,Swing,Traditional,age,artist_name,correct,correctResponse,distraction,duration,education,ended_on,familiarity,gender,headphone_check_performance,item,list,music_frequency,offensiveness,pleasantness,position_correct,preference,response,response_action,snippet_file,song_name,song_rating,sound,stimulus_1,stimulus_2,stimulus_3,text,time_commit,time_end,time_render,time_run,time_show,time_switch,url,word,word_ID
Prolific ID,html.Form,0,2022-02-04T11:37:07.228Z,"{""labjs_version"":""20.2.2"",""labjs_build"":{""flavor"":""production"",""commit"":""a25486e0c714a0ae2ce03ff94b7bb6896854dcfa""},""location"":""https://run.pavlovia.org/mvasilev/prolific2_music_c/"",""userAgent"":""Mozilla/5.0 (Macintosh; Intel Mac OS X 10_13_6) AppleWebKit/537.36 (KHTML, like Gecko) Chrome/97.0.4692.71 Safari/537.36"",""platform"":""MacIntel"",""language"":""en-US"",""locale"":""en-GB"",""timeZone"":""Europe/London"",""timezoneOffset"":0,""screen_width"":1440,""screen_height"":900,""scroll_width"":1436,""scroll_height"":669,""window_innerWidth"":1436,""window_innerHeight"":717,""devicePixelRatio"":1}",,,,,,,,,,,,,,,614ce29d78ae25eced10ede1,,,,,,,,,,,,,,,3162.7120000059604,,form submission,,,,,,,,,,,,,,,,,,,,,13668.300000011921,13667.40000000596,10487.977,8278.90000000596,10504.688,13679.96,{},,
Introduction,html.Screen,1_0,2022-02-04T11:37:10.187Z,,,,,,,,,,,,,,,,,,,,,,,,,,,,,,,2942.4400000059613,,response,,,,,,,,,,,continue,click button,,,,,,,,,16627.19999998808,16622.40000000596,13663.249,13668.90000000596,13679.96,16637.807,,,
Volume calibration,html.Screen,1_1,2022-02-04T11:37:22.852Z,,,,,,,,,,,,,,,,,,,,,,,,,,,,,,,12647.693,,response,,,,,,,,,,,continue,click button,,,,,,,,,29292.5,29285.5,16621.096,16627.5,16637.807,29288.221,,,
Task instructions,html.Screen,1_2,2022-02-04T11:37:27.675Z,,,,,,,,,,,,,,,,,,,,,,,,,,,,,,,4824.278999999999,,response,,,,,,,,,,,continue,click button,,,,,,,,,34114.80000001192,34112.5,29271.51,29292.69999998808,29288.221,34117.7,,,
Sounds,html.Screen,1_3_0_0,2022-02-04T11:37:31.911Z,,,,,,,,,,,,,,,,,,,,,,,,,,,,,,,4244.791000000005,,timeout,,,,,,,,,1,,,,,,,,S,O,I,,38351,38345.78,34100.989,34115.09999999404,34117.7,38362.491,,,
Judgement,html.Screen,1_3_0_1,2022-02-04T11:37:33.101Z,,,,,,,,,,,,,,,,,,,,,,,,,,,,true,1,,1175.2089999880773,,response,,,,,,,,,1,,1,click #choice-1,,,,,S,O,I,,39540.59999999404,39537.69999998808,38345.78,38351.19999998808,38362.491,39548.972,,,
Trial,flow.Sequence,1_3_0,2022-02-04T11:37:33.101Z,,,,,,,,,,,,,,,,,,,,,,,,,,,,,,,5419.999999988082,,completion,,,,,,,,,1,,,,,,,,S,O,I,,39541.09999999404,39537.69999998808,34100.989,34115,34117.7,39548.972,,,
Sounds,html.Screen,1_3_1_0,2022-02-04T11:37:37.339Z,,,,,,,,,,,,,,,,,,,,,,,,,,,,,,,4244.593999999997,,timeout,,,,,,,,,2,,,,,,,,I,S,O,,43778.40000000596,43776.855,39532.261,39541.30000001192,39548.972,43793.566,,,
Judgement,html.Screen,1_3_1_1,2022-02-04T11:37:38.093Z,,,,,,,,,,,,,,,,,,,,,,,,,,,,true,2,,736.3340000059616,,response,,,,,,,,,2,,2,click #choice-2,,,,,I,S,O,,44532.69999998808,44529.90000000596,43776.855,43778.59999999404,43793.566,44545.561,,,
Trial,flow.Sequence,1_3_1,2022-02-04T11:37:38.093Z,,,,,,,,,,,,,,,,,,,,,,,,,,,,,,,4980.928000005959,,completion,,,,,,,,,2,,,,,,,,I,S,O,,44533.09999999404,44529.90000000596,39532.261,39541.19999998808,39548.972,44545.561,,,
Sounds,html.Screen,1_3_2_0,2022-02-04T11:37:42.337Z,,,,,,,,,,,,,,,,,,,,,,,,,,,,,,,4244.886999999995,,timeout,,,,,,,,,3,,,,,,,,I,O,S,,48776.40000000596,48773.737,44528.85,44533.40000000596,44545.561,48790.448,,,
Judgement,html.Screen,1_3_2_1,2022-02-04T11:37:42.906Z,,,,,,,,,,,,,,,,,,,,,,,,,,,,true,3,,552.0520000000033,,response,,,,,,,,,3,,3,click #choice-3,,,,,I,O,S,,49345.30000001192,49342.5,48773.737,48776.59999999404,48790.448,49358.622,,,
Trial,flow.Sequence,1_3_2,2022-02-04T11:37:42.906Z,,,,,,,,,,,,,,,,,,,,,,,,,,,,,,,4796.9389999999985,,completion,,,,,,,,,3,,,,,,,,I,O,S,,49345.69999998808,49342.5,44528.85,44533.30000001192,44545.561,49358.622,,,
Sounds,html.Screen,1_3_3_0,2022-02-04T11:37:47.150Z,,,,,,,,,,,,,,,,,,,,,,,,,,,,,,,4244.593999999997,,timeout,,,,,,,,,2,,,,,,,,O,S,I,,53589.69999998808,53586.505,49341.911,49345.90000000596,49358.622,53603.216,,,
Judgement,html.Screen,1_3_3_1,2022-02-04T11:37:47.624Z,,,,,,,,,,,,,,,,,,,,,,,,,,,,true,2,,457.4839999880787,,response,,,,,,,,,2,,2,click #choice-2,,,,,O,S,I,,54063.19999998808,54060.69999998808,53586.505,53590,53603.216,54071.124,,,
Trial,flow.Sequence,1_3_3,2022-02-04T11:37:47.624Z,,,,,,,,,,,,,,,,,,,,,,,,,,,,,,,4702.077999988076,,completion,,,,,,,,,2,,,,,,,,O,S,I,,54063.69999998808,54060.69999998808,49341.911,49345.80000001192,49358.622,54071.124,,,
Sounds,html.Screen,1_3_4_0,2022-02-04T11:37:51.863Z,,,,,,,,,,,,,,,,,,,,,,,,,,,,,,,4244.593999999997,,timeout,,,,,,,,,1,,,,,,,,S,I,O,,58302.19999998808,58299.007,54054.413,54063.90000000596,54071.124,58315.718,,,
Judgement,html.Screen,1_3_4_1,2022-02-04T11:37:52.549Z,,,,,,,,,,,,,,,,,,,,,,,,,,,,true,1,,670.2819999999992,,response,,,,,,,,,1,,1,click #choice-1,,,,,S,I,O,,58988.59999999404,58986,58299.007,58302.40000000596,58315.718,59000.974,,,
Trial,flow.Sequence,1_3_4,2022-02-04T11:37:52.550Z,,,,,,,,,,,,,,,,,,,,,,,,,,,,,,,4914.875999999997,,completion,,,,,,,,,1,,,,,,,,S,I,O,,58988.80000001192,58986,54054.413,54063.90000000596,54071.124,59000.974,,,
Sounds,html.Screen,1_3_5_0,2022-02-04T11:37:56.792Z,,,,,,,,,,,,,,,,,,,,,,,,,,,,,,,4244.593999999997,,timeout,,,,,,,,,3,,,,,,,,O,I,S,,63231,63228.857,58984.263,58988.90000000596,59000.974,63245.568,,,
Judgement,html.Screen,1_3_5_1,2022-02-04T11:37:57.373Z,,,,,,,,,,,,,,,,,,,,,,,,,,,,true,3,,564.0319999940402,,response,,,,,,,,,3,,3,click #choice-3,,,,,O,I,S,,63811.80000001192,63809.59999999404,63228.857,63231.09999999404,63245.568,63813.742,,,
Trial,flow.Sequence,1_3_5,2022-02-04T11:37:57.373Z,,,,,,,,,,,,,,,,,,,,,,,,,,,,,,,4808.625999994038,,completion,,,,,,,,,3,,,,,,,,O,I,S,,63812,63809.59999999404,58984.263,58988.90000000596,59000.974,63813.742,,,
Task,flow.Loop,1_3,2022-02-04T11:37:57.377Z,,,,,,,,,,,,,,,,,,,,,,,,,,,,,,,29691.899999994042,,completion,,,1,,,,,,,,,,,,,,,,,,63816.40000000596,63809.59999999404,34100.989,34114.90000000596,34117.7,63813.742,,,
Trap,html.Screen,1_4,2022-02-04T11:37:57.378Z,,,,,,,,,,,,,,,,,,,,,,,,,,,,,,,NaN,,skipped,,,,,,,,,,,,,,,,,,,,,63817.40000000596,63809.59999999404,,63817.30000001192,,63813.742,,,
Thanks,html.Screen,1_5,2022-02-04T11:38:00.308Z,,,,,,,,,,,,,,,,,,,,,,,,,,,,,,,2930.5580000119226,,response,,,,,,,,,,,continue,click button,,,,,,,,,66746.69999998808,66744.30000001192,63797.031,63817.5,63813.742,69278.523,,,
Headphone screening,flow.Sequence,1,2022-02-04T11:38:00.308Z,,,,,,,,,,,,,,,,,,,,,,,,,,,,,,,53064.34000001192,,completion,,,,,,,,,,,,,,,,,,,,,66747,66744.30000001192,13663.249,13668.800000011921,13679.96,69278.523,,,
Instructions,html.Page,2_0,2022-02-04T11:38:16.271Z,,,,,,,,,,,,,,,,,,,,,,,,,,,,,,,13430.076999994038,,form submission,,,,,,,,,,,,,,,,,,,,,82709.09999999404,82708.59999999404,69261.812,69285.69999998808,69278.523,82714.167,,,
Holding screen,html.Screen,2_1_0_0,2022-02-04T11:38:26.255Z,,,,,,,,,,,,,,,,,,,,,,,,,,,,,,,9993.467999999993,,timeout,,,,,,,,,,,,,,,,,,,,,92693.5,92690.924,82697.456,82709.40000000596,82714.167,92707.635,,,
screen,html.Screen,2_1_0_1_0,2022-02-04T11:38:27.133Z,,,,,,,,,,,,,,,,,53,,,,,,,,,,,,,,855.1650000119262,,response,,,,99,,,,,,,Space,keypress(Space),,,,,,,,When -- ----- -- ------ - ------- --- ----------<br>------------- ------ ------ ---- ---- ------- ----- -- ----<br>-------- ------- -- ---------- --- - --- ----- ----- ----<br>---- --- --- ----- --- ---- ---- ------- ----- ---- -------<br>--- --- -- ----- -- --- ---- -- --- ---- -- ------ ------<br>--- ----- -- ----,93571.30000001192,93562.80000001192,92690.924,92693.80000001192,92707.635,93576.607,,0,When
screen,html.Screen,2_1_0_1_1,2022-02-04T11:38:27.491Z,,,,,,,,,,,,,,,,,53,,,,,,,,,,,,,,349.4929999940359,,response,,,,99,,,,,,,Space,keypress(Space),,,,,,,,---- it ----- -- ------ - ------- --- ----------<br>------------- ------ ------ ---- ---- ------- ----- -- ----<br>-------- ------- -- ---------- --- - --- ----- ----- ----<br>---- --- --- ----- --- ---- ---- ------- ----- ---- -------<br>--- --- -- ----- -- --- ---- -- --- ---- -- ------ ------<br>--- ----- -- ----,93929.40000000596,93926.09999999404,93559.896,93571.5,93576.607,93944.368,,1,it
screen,html.Screen,2_1_0_1_2,2022-02-04T11:38:27.957Z,,,,,,,,,,,,,,,,,53,,,,,,,,,,,,,,447.83199998807686,,response,,,,99,,,,,,,Space,keypress(Space),,,,,,,,---- -- comes -- ------ - ------- --- ----------<br>------------- ------ ------ ---- ---- ------- ----- -- ----<br>-------- ------- -- ---------- --- - --- ----- ----- ----<br>---- --- --- ----- --- ---- ---- ------- ----- ---- -------<br>--- --- -- ----- -- --- ---- -- --- ---- -- ------ ------<br>--- ----- -- ----,94395.19999998808,94392.19999998808,93927.657,93929.5,93944.368,94412.276,,2,comes
screen,html.Screen,2_1_0_1_3,2022-02-04T11:38:28.292Z,,,,,,,,,,,,,,,,,53,,,,,,,,,,,,,,314.8239999940415,,response,,,,99,,,,,,,Space,keypress(Space),,,,,,,,---- -- ----- to ------ - ------- --- ----------<br>------------- ------ ------ ---- ---- ------- ----- -- ----<br>-------- ------- -- ---------- --- - --- ----- ----- ----<br>---- --- --- ----- --- ---- ---- ------- ----- ---- -------<br>--- --- -- ----- -- --- ---- -- --- ---- -- ------ ------<br>--- ----- -- ----,94730.19999998808,94727.09999999404,94395.565,94395.40000000596,94412.276,94746.496,,3,to
screen,html.Screen,2_1_0_1_4,2022-02-04T11:38:28.694Z,,,,,,,,,,,,,,,,,53,,,,,,,,,,,,,,382.5040000000008,,response,,,,99,,,,,,,Space,keypress(Space),,,,,,,,---- -- ----- -- having - ------- --- ----------<br>------------- ------ ------ ---- ---- ------- ----- -- ----<br>-------- ------- -- ---------- --- - --- ----- ----- ----<br>---- --- --- ----- --- ---- ---- ------- ----- ---- -------<br>--- --- -- ----- -- --- ---- -- --- ---- -- ------ ------<br>--- ----- -- ----,95132.40000000596,95129,94729.785,94730.5,94746.496,95147.56,,4,having
screen,html.Screen,2_1_0_1_5,2022-02-04T11:38:29.050Z,,,,,,,,,,,,,,,,,53,,,,,,,,,,,,,,337.4400000000023,,response,,,,99,,,,,,,Space,keypress(Space),,,,,,,,---- -- ----- -- ------ a ------- --- ----------<br>------------- ------ ------ ---- ---- ------- ----- -- ----<br>-------- ------- -- ---------- --- - --- ----- ----- ----<br>---- --- --- ----- --- ---- ---- ------- ----- ---- -------<br>--- --- -- ----- -- --- ---- -- --- ---- -- ------ ------<br>--- ----- -- ----,95488.19999998808,95485,95130.849,95132.59999999404,95147.56,95498.491,,5,a
screen,html.Screen,2_1_0_1_6,2022-02-04T11:38:29.424Z,,,,,,,,,,,,,,,,,53,,,,,,,,,,,,,,360.50900000000547,,response,,,,99,,,,,,,Space,keypress(Space),,,,,,,,---- -- ----- -- ------ - lasting --- ----------<br>------------- ------ ------ ---- ---- ------- ----- -- ----<br>-------- ------- -- ---------- --- - --- ----- ----- ----<br>---- --- --- ----- --- ---- ---- ------- ----- ---- -------<br>--- --- -- ----- -- --- ---- -- --- ---- -- ------ ------<br>--- ----- -- ----,95862.19999998808,95859,95481.78,95488.40000000596,95498.491,95866.133,,6,lasting
screen,html.Screen,2_1_0_1_7,2022-02-04T11:38:29.771Z,,,,,,,,,,,,,,,,,53,,,,,,,,,,,,,,339.86699999999837,,response,,,,99,,,,,,,Space,keypress(Space),,,,,,,,---- -- ----- -- ------ - ------- and ----------<br>------------- ------ ------ ---- ---- ------- ----- -- ----<br>-------- ------- -- ---------- --- - --- ----- ----- ----<br>---- --- --- ----- --- ---- ---- ------- ----- ---- -------<br>--- --- -- ----- -- --- ---- -- --- ---- -- ------ ------<br>--- ----- -- ----,96209.30000001192,96206,95849.422,95862.30000001192,95866.133,96217.064,,7,and
screen,html.Screen,2_1_0_1_8,2022-02-04T11:38:30.164Z,,,,,,,,,,,,,,,,,53,,,,,,,,,,,,,,381.9360000000015,,response,,,,99,,,,,,,Space,keypress(Space),,,,,,,,---- -- ----- -- ------ - ------- --- fulfilling<br>------------- ------ ------ ---- ---- ------- ----- -- ----<br>-------- ------- -- ---------- --- - --- ----- ----- ----<br>---- --- --- ----- --- ---- ---- ------- ----- ---- -------<br>--- --- -- ----- -- --- ---- -- --- ---- -- ------ ------<br>--- ----- -- ----,96602.30000001192,96599,96200.353,96209.5,96217.064,96618.128,,8,fulfilling
screen,html.Screen,2_1_0_1_9,2022-02-04T11:38:30.546Z,,,,,,,,,,,,,,,,,53,,,,,,,,,,,,,,362.7720000059635,,response,,,,99,,,,,,,Space,keypress(Space),,,,,,,,"---- -- ----- -- ------ - ------- --- ----------<br>relationship, ------ ------ ---- ---- ------- ----- -- ----<br>-------- ------- -- ---------- --- - --- ----- ----- ----<br>---- --- --- ----- --- ---- ---- ------- ----- ---- -------<br>--- --- -- ----- -- --- ---- -- --- ---- -- ------ ------<br>--- ----- -- ----",96984.40000000596,96980.90000000596,96601.417,96602.5,96618.128,96985.77,,9,"relationship,"
screen,html.Screen,2_1_0_1_10,2022-02-04T11:38:30.904Z,,,,,,,,,,,,,,,,,53,,,,,,,,,,,,,,353.1300000059564,,response,,,,99,,,,,,,Space,keypress(Space),,,,,,,,---- -- ----- -- ------ - ------- --- ----------<br>------------- common ------ ---- ---- ------- ----- -- ----<br>-------- ------- -- ---------- --- - --- ----- ----- ----<br>---- --- --- ----- --- ---- ---- ------- ----- ---- -------<br>--- --- -- ----- -- --- ---- -- --- ---- -- ------ ------<br>--- ----- -- ----,97342.09999999404,97338.90000000596,96969.059,96984.5,96985.77,97353.412,,10,common
screen,html.Screen,2_1_0_1_11,2022-02-04T11:38:31.201Z,,,,,,,,,,,,,,,,,53,,,,,,,,,,,,,,282.48800000596384,,response,,,,99,,,,,,,Space,keypress(Space),,,,,,,,---- -- ----- -- ------ - ------- --- ----------<br>------------- ------ wisdom ---- ---- ------- ----- -- ----<br>-------- ------- -- ---------- --- - --- ----- ----- ----<br>---- --- --- ----- --- ---- ---- ------- ----- ---- -------<br>--- --- -- ----- -- --- ---- -- --- ---- -- ------ ------<br>--- ----- -- ----,97639.19999998808,97635.90000000596,97336.701,97342.30000001192,97353.412,97654.21,,11,wisdom
screen,html.Screen,2_1_0_1_12,2022-02-04T11:38:31.511Z,,,,,,,,,,,,,,,,,53,,,,,,,,,,,,,,291.69000000595406,,response,,,,99,,,,,,,Space,keypress(Space),,,,,,,,---- -- ----- -- ------ - ------- --- ----------<br>------------- ------ ------ says ---- ------- ----- -- ----<br>-------- ------- -- ---------- --- - --- ----- ----- ----<br>---- --- --- ----- --- ---- ---- ------- ----- ---- -------<br>--- --- -- ----- -- --- ---- -- --- ---- -- ------ ------<br>--- ----- -- ----,97948.90000000596,97945.90000000596,97637.499,97639.30000001192,97654.21,97955.008,,12,says
screen,html.Screen,2_1_0_1_13,2022-02-04T11:38:31.825Z,,,,,,,,,,,,,,,,,53,,,,,,,,,,,,,,304.7920000119193,,response,,,,99,,,,,,,Space,keypress(Space),,,,,,,,---- -- ----- -- ------ - ------- --- ----------<br>------------- ------ ------ ---- that ------- ----- -- ----<br>-------- ------- -- ---------- --- - --- ----- ----- ----<br>---- --- --- ----- --- ---- ---- ------- ----- ---- -------<br>--- --- -- ----- -- --- ---- -- --- ---- -- ------ ------<br>--- ----- -- ----,98263,98259.80000001192,97938.297,97949.09999999404,97955.008,98272.517,,13,that
screen,html.Screen,2_1_0_1_14,2022-02-04T11:38:32.089Z,,,,,,,,,,,,,,,,,53,,,,,,,,,,,,,,251.28300001191383,,response,,,,99,,,,,,,Space,keypress(Space),,,,,,,,---- -- ----- -- ------ - ------- --- ----------<br>------------- ------ ------ ---- ---- feeling ----- -- ----<br>-------- ------- -- ---------- --- - --- ----- ----- ----<br>---- --- --- ----- --- ---- ---- ------- ----- ---- -------<br>--- --- -- ----- -- --- ---- -- --- ---- -- ------ ------<br>--- ----- -- ----,98527.19999998808,98523.80000001192,98255.806,98263.30000001192,98272.517,98539.893,,14,feeling
screen,html.Screen,2_1_0_1_15,2022-02-04T11:38:32.410Z,,,,,,,,,,,,,,,,,53,,,,,,,,,,,,,,304.90700001192454,,response,,,,99,,,,,,,Space,keypress(Space),,,,,,,,---- -- ----- -- ------ - ------- --- ----------<br>------------- ------ ------ ---- ---- ------- close -- ----<br>-------- ------- -- ---------- --- - --- ----- ----- ----<br>---- --- --- ----- --- ---- ---- ------- ----- ---- -------<br>--- --- -- ----- -- --- ---- -- --- ---- -- ------ ------<br>--- ----- -- ----,98847.90000000596,98844.80000001192,98523.182,98527.40000000596,98539.893,98857.402,,15,close
screen,html.Screen,2_1_0_1_16,2022-02-04T11:38:32.697Z,,,,,,,,,,,,,,,,,53,,,,,,,,,,,,,,274.39800001191907,,response,,,,99,,,,,,,Space,keypress(Space),,,,,,,,---- -- ----- -- ------ - ------- --- ----------<br>------------- ------ ------ ---- ---- ------- ----- to ----<br>-------- ------- -- ---------- --- - --- ----- ----- ----<br>---- --- --- ----- --- ---- ---- ------- ----- ---- -------<br>--- --- -- ----- -- --- ---- -- --- ---- -- ------ ------<br>--- ----- -- ----,99134.90000000596,99131.80000001192,98840.691,98848.09999999404,98857.402,99141.489,,16,to
screen,html.Screen,2_1_0_1_17,2022-02-04T11:38:33.044Z,,,,,,,,,,,,,,,,,53,,,,,,,,,,,,,,337.31100001191953,,response,,,,99,,,,,,,Space,keypress(Space),,,,,,,,---- -- ----- -- ------ - ------- --- ----------<br>------------- ------ ------ ---- ---- ------- ----- -- your<br>-------- ------- -- ---------- --- - --- ----- ----- ----<br>---- --- --- ----- --- ---- ---- ------- ----- ---- -------<br>--- --- -- ----- -- --- ---- -- --- ---- -- ------ ------<br>--- ----- -- ----,99482,99478.80000001192,99124.778,99135.09999999404,99141.489,99492.42,,17,your
screen,html.Screen,2_1_0_1_18,2022-02-04T11:38:33.342Z,,,,,,,,,,,,,,,,,53,,,,,,,,,,,,,,284.2799999880808,,response,,,,99,,,,,,,Space,keypress(Space),,,,,,,,---- -- ----- -- ------ - ------- --- ----------<br>------------- ------ ------ ---- ---- ------- ----- -- ----<br>romantic ------- -- ---------- --- - --- ----- ----- ----<br>---- --- --- ----- --- ---- ---- ------- ----- ---- -------<br>--- --- -- ----- -- --- ---- -- --- ---- -- ------ ------<br>--- ----- -- ----,99780.09999999404,99776.69999998808,99475.709,99482.09999999404,99492.42,99793.218,,18,romantic
screen,html.Screen,2_1_0_1_19,2022-02-04T11:38:33.667Z,,,,,,,,,,,,,,,,,53,,,,,,,,,,,,,,308.58200001192745,,response,,,,99,,,,,,,Space,keypress(Space),,,,,,,,---- -- ----- -- ------ - ------- --- ----------<br>------------- ------ ------ ---- ---- ------- ----- -- ----<br>-------- partner -- ---------- --- - --- ----- ----- ----<br>---- --- --- ----- --- ---- ---- ------- ----- ---- -------<br>--- --- -- ----- -- --- ---- -- --- ---- -- ------ ------<br>--- ----- -- ----,100104.90000000596,100101.80000001192,99776.507,99780.19999998808,99793.218,100110.727,,19,partner
screen,html.Screen,2_1_0_1_20,2022-02-04T11:38:33.957Z,,,,,,,,,,,,,,,,,53,,,,,,,,,,,,,,280.9729999880801,,response,,,,99,,,,,,,Space,keypress(Space),,,,,,,,---- -- ----- -- ------ - ------- --- ----------<br>------------- ------ ------ ---- ---- ------- ----- -- ----<br>-------- ------- is ---------- --- - --- ----- ----- ----<br>---- --- --- ----- --- ---- ---- ------- ----- ---- -------<br>--- --- -- ----- -- --- ---- -- --- ---- -- ------ ------<br>--- ----- -- ----,100394.90000000596,100391.69999998808,100094.016,100105.09999999404,100110.727,100411.525,,20,is
screen,html.Screen,2_1_0_1_21,2022-02-04T11:38:34.239Z,,,,,,,,,,,,,,,,,53,,,,,,,,,,,,,,262.07499999404536,,response,,,,99,,,,,,,Space,keypress(Space),,,,,,,,---- -- ----- -- ------ - ------- --- ----------<br>------------- ------ ------ ---- ---- ------- ----- -- ----<br>-------- ------- -- paramount. --- - --- ----- ----- ----<br>---- --- --- ----- --- ---- ---- ------- ----- ---- -------<br>--- --- -- ----- -- --- ---- -- --- ---- -- ------ ------<br>--- ----- -- ----,100676.59999999404,100673.59999999404,100394.814,100395.09999999404,100411.525,100678.901,,21,paramount.
screen,html.Screen,2_1_0_1_22,2022-02-04T11:38:34.690Z,,,,,,,,,,,,,,,,,53,,,,,,,,,,,,,,445.6989999940415,,response,,,,99,,,,,,,Space,keypress(Space),,,,,,,,---- -- ----- -- ------ - ------- --- ----------<br>------------- ------ ------ ---- ---- ------- ----- -- ----<br>-------- ------- -- ---------- But - --- ----- ----- ----<br>---- --- --- ----- --- ---- ---- ------- ----- ---- -------<br>--- --- -- ----- -- --- ---- -- --- ---- -- ------ ------<br>--- ----- -- ----,101127.69999998808,101124.59999999404,100662.19,100676.80000001192,100678.901,101130.098,,22,But
screen,html.Screen,2_1_0_1_23,2022-02-04T11:38:35.019Z,,,,,,,,,,,,,,,,,53,,,,,,,,,,,,,,323.60199998808093,,response,,,,99,,,,,,,Space,keypress(Space),,,,,,,,---- -- ----- -- ------ - ------- --- ----------<br>------------- ------ ------ ---- ---- ------- ----- -- ----<br>-------- ------- -- ---------- --- a --- ----- ----- ----<br>---- --- --- ----- --- ---- ---- ------- ----- ---- -------<br>--- --- -- ----- -- --- ---- -- --- ---- -- ------ ------<br>--- ----- -- ----,101456.80000001192,101453.69999998808,101113.387,101127.80000001192,101130.098,101464.318,,23,a
screen,html.Screen,2_1_0_1_24,2022-02-04T11:38:35.302Z,,,,,,,,,,,,,,,,,53,,,,,,,,,,,,,,272.28199999404023,,response,,,,99,,,,,,,Space,keypress(Space),,,,,,,,---- -- ----- -- ------ - ------- --- ----------<br>------------- ------ ------ ---- ---- ------- ----- -- ----<br>-------- ------- -- ---------- --- - new ----- ----- ----<br>---- --- --- ----- --- ---- ---- ------- ----- ---- -------<br>--- --- -- ----- -- --- ---- -- --- ---- -- ------ ------<br>--- ----- -- ----,101739.80000001192,101736.59999999404,101447.607,101457,101464.318,101748.405,,24,new
screen,html.Screen,2_1_0_1_25,2022-02-04T11:38:35.568Z,,,,,,,,,,,,,,,,,53,,,,,,,,,,,,,,254.59500000000116,,response,,,,99,,,,,,,Space,keypress(Space),,,,,,,,---- -- ----- -- ------ - ------- --- ----------<br>------------- ------ ------ ---- ---- ------- ----- -- ----<br>-------- ------- -- ---------- --- - --- study ----- ----<br>---- --- --- ----- --- ---- ---- ------- ----- ---- -------<br>--- --- -- ----- -- --- ---- -- --- ---- -- ------ ------<br>--- ----- -- ----,102006.19999998808,102003,101731.694,101740,101748.405,102015.781,,25,study
screen,html.Screen,2_1_0_1_26,2022-02-04T11:38:35.868Z,,,,,,,,,,,,,,,,,53,,,,,,,,,,,,,,286.81899999403686,,response,,,,99,,,,,,,Space,keypress(Space),,,,,,,,---- -- ----- -- ------ - ------- --- ----------<br>------------- ------ ------ ---- ---- ------- ----- -- ----<br>-------- ------- -- ---------- --- - --- ----- finds ----<br>---- --- --- ----- --- ---- ---- ------- ----- ---- -------<br>--- --- -- ----- -- --- ---- -- --- ---- -- ------ ------<br>--- ----- -- ----,102305.80000001192,102302.59999999404,101999.07,102006.30000001192,102015.781,102316.579,,26,finds
screen,html.Screen,2_1_0_1_27,2022-02-04T11:38:36.152Z,,,,,,,,,,,,,,,,,53,,,,,,,,,,,,,,269.9210000000021,,response,,,,99,,,,,,,Space,keypress(Space),,,,,,,,---- -- ----- -- ------ - ------- --- ----------<br>------------- ------ ------ ---- ---- ------- ----- -- ----<br>-------- ------- -- ---------- --- - --- ----- ----- that<br>---- --- --- ----- --- ---- ---- ------- ----- ---- -------<br>--- --- -- ----- -- --- ---- -- --- ---- -- ------ ------<br>--- ----- -- ----,102589.69999998808,102586.5,102299.868,102306,102316.579,102600.666,,27,that
screen,html.Screen,2_1_0_1_28,2022-02-04T11:38:36.417Z,,,,,,,,,,,,,,,,,53,,,,,,,,,,,,,,250.9339999940421,,response,,,,99,,,,,,,Space,keypress(Space),,,,,,,,---- -- ----- -- ------ - ------- --- ----------<br>------------- ------ ------ ---- ---- ------- ----- -- ----<br>-------- ------- -- ---------- --- - --- ----- ----- ----<br>it's --- --- ----- --- ---- ---- ------- ----- ---- -------<br>--- --- -- ----- -- --- ---- -- --- ---- -- ------ ------<br>--- ----- -- ----,102854.80000001192,102851.59999999404,102583.955,102589.90000000596,102600.666,102868.042,,28,it's
screen,html.Screen,2_1_0_1_29,2022-02-04T11:38:36.693Z,,,,,,,,,,,,,,,,,53,,,,,,,,,,,,,,259.4579999999987,,response,,,,99,,,,,,,Space,keypress(Space),,,,,,,,---- -- ----- -- ------ - ------- --- ----------<br>------------- ------ ------ ---- ---- ------- ----- -- ----<br>-------- ------- -- ---------- --- - --- ----- ----- ----<br>---- not --- ----- --- ---- ---- ------- ----- ---- -------<br>--- --- -- ----- -- --- ---- -- --- ---- -- ------ ------<br>--- ----- -- ----,103130.69999998808,103127.5,102851.331,102854.90000000596,102868.042,103135.418,,29,not
screen,html.Screen,2_1_0_1_30,2022-02-04T11:38:36.963Z,,,,,,,,,,,,,,,,,53,,,,,,,,,,,,,,262.1819999940344,,response,,,,99,,,,,,,Space,keypress(Space),,,,,,,,---- -- ----- -- ------ - ------- --- ----------<br>------------- ------ ------ ---- ---- ------- ----- -- ----<br>-------- ------- -- ---------- --- - --- ----- ----- ----<br>---- --- how ----- --- ---- ---- ------- ----- ---- -------<br>--- --- -- ----- -- --- ---- -- --- ---- -- ------ ------<br>--- ----- -- ----,103400.80000001192,103397.59999999404,103118.707,103130.80000001192,103135.418,103403.05,,30,how
screen,html.Screen,2_1_0_1_31,2022-02-04T11:38:37.238Z,,,,,,,,,,,,,,,,,53,,,,,,,,,,,,,,269.35000000595755,,response,,,,99,,,,,,,Space,keypress(Space),,,,,,,,---- -- ----- -- ------ - ------- --- ----------<br>------------- ------ ------ ---- ---- ------- ----- -- ----<br>-------- ------- -- ---------- --- - --- ----- ----- ----<br>---- --- --- close --- ---- ---- ------- ----- ---- -------<br>--- --- -- ----- -- --- ---- -- --- ---- -- ------ ------<br>--- ----- -- ----,103676.30000001192,103672.40000000596,103386.339,103400.90000000596,103403.05,103687.137,,31,close
screen,html.Screen,2_1_0_1_32,2022-02-04T11:38:37.505Z,,,,,,,,,,,,,,,,,53,,,,,,,,,,,,,,252.36299999999756,,response,,,,99,,,,,,,Space,keypress(Space),,,,,,,,---- -- ----- -- ------ - ------- --- ----------<br>------------- ------ ------ ---- ---- ------- ----- -- ----<br>-------- ------- -- ---------- --- - --- ----- ----- ----<br>---- --- --- ----- you ---- ---- ------- ----- ---- -------<br>--- --- -- ----- -- --- ---- -- --- ---- -- ------ ------<br>--- ----- -- ----,103942.59999999404,103939.5,103670.426,103676.40000000596,103687.137,103954.513,,32,you
screen,html.Screen,2_1_0_1_33,2022-02-04T11:38:37.763Z,,,,,,,,,,,,,,,,,53,,,,,,,,,,,,,,242.78700001191464,,response,,,,99,,,,,,,Space,keypress(Space),,,,,,,,---- -- ----- -- ------ - ------- --- ----------<br>------------- ------ ------ ---- ---- ------- ----- -- ----<br>-------- ------- -- ---------- --- - --- ----- ----- ----<br>---- --- --- ----- --- feel ---- ------- ----- ---- -------<br>--- --- -- ----- -- --- ---- -- --- ---- -- ------ ------<br>--- ----- -- ----,104200.5,104197.30000001192,103937.802,103942.80000001192,103954.513,104205.178,,33,feel
screen,html.Screen,2_1_0_1_34,2022-02-04T11:38:38.020Z,,,,,,,,,,,,,,,,,53,,,,,,,,,,,,,,249.22200000596058,,response,,,,99,,,,,,,Space,keypress(Space),,,,,,,,---- -- ----- -- ------ - ------- --- ----------<br>------------- ------ ------ ---- ---- ------- ----- -- ----<br>-------- ------- -- ---------- --- - --- ----- ----- ----<br>---- --- --- ----- --- ---- that ------- ----- ---- -------<br>--- --- -- ----- -- --- ---- -- --- ---- -- ------ ------<br>--- ----- -- ----,104457.69999998808,104454.40000000596,104188.467,104200.69999998808,104205.178,104472.554,,34,that
screen,html.Screen,2_1_0_1_35,2022-02-04T11:38:38.309Z,,,,,,,,,,,,,,,,,53,,,,,,,,,,,,,,270.9459999999963,,response,,,,99,,,,,,,Space,keypress(Space),,,,,,,,---- -- ----- -- ------ - ------- --- ----------<br>------------- ------ ------ ---- ---- ------- ----- -- ----<br>-------- ------- -- ---------- --- - --- ----- ----- ----<br>---- --- --- ----- --- ---- ---- matters ----- ---- -------<br>--- --- -- ----- -- --- ---- -- --- ---- -- ------ ------<br>--- ----- -- ----,104746.5,104743.5,104455.843,104458,104472.554,104756.641,,35,matters
screen,html.Screen,2_1_0_1_36,2022-02-04T11:38:38.549Z,,,,,,,,,,,,,,,,,53,,,,,,,,,,,,,,226.7590000059572,,response,,,,99,,,,,,,Space,keypress(Space),,,,,,,,"---- -- ----- -- ------ - ------- --- ----------<br>------------- ------ ------ ---- ---- ------- ----- -- ----<br>-------- ------- -- ---------- --- - --- ----- ----- ----<br>---- --- --- ----- --- ---- ---- ------- most, ---- -------<br>--- --- -- ----- -- --- ---- -- --- ---- -- ------ ------<br>--- ----- -- ----",104986.69999998808,104983.40000000596,104739.93,104746.69999998808,104756.641,104990.595,,36,"most,"
screen,html.Screen,2_1_0_1_37,2022-02-04T11:38:38.877Z,,,,,,,,,,,,,,,,,53,,,,,,,,,,,,,,320.8050000059593,,response,,,,99,,,,,,,Space,keypress(Space),,,,,,,,---- -- ----- -- ------ - ------- --- ----------<br>------------- ------ ------ ---- ---- ------- ----- -- ----<br>-------- ------- -- ---------- --- - --- ----- ----- ----<br>---- --- --- ----- --- ---- ---- ------- ----- it's -------<br>--- --- -- ----- -- --- ---- -- --- ---- -- ------ ------<br>--- ----- -- ----,105314.5,105311.40000000596,104973.884,104986.90000000596,104990.595,105324.815,,37,it's
screen,html.Screen,2_1_0_1_38,2022-02-04T11:38:39.139Z,,,,,,,,,,,,,,,,,53,,,,,,,,,,,,,,248.4850000119186,,response,,,,99,,,,,,,Space,keypress(Space),,,,,,,,---- -- ----- -- ------ - ------- --- ----------<br>------------- ------ ------ ---- ---- ------- ----- -- ----<br>-------- ------- -- ---------- --- - --- ----- ----- ----<br>---- --- --- ----- --- ---- ---- ------- ----- ---- whether<br>--- --- -- ----- -- --- ---- -- --- ---- -- ------ ------<br>--- ----- -- ----,105576.5,105573.30000001192,105308.104,105314.59999999404,105324.815,105592.191,,38,whether
screen,html.Screen,2_1_0_1_39,2022-02-04T11:38:39.415Z,,,,,,,,,,,,,,,,,53,,,,,,,,,,,,,,257.2090000059543,,response,,,,99,,,,,,,Space,keypress(Space),,,,,,,,---- -- ----- -- ------ - ------- --- ----------<br>------------- ------ ------ ---- ---- ------- ----- -- ----<br>-------- ------- -- ---------- --- - --- ----- ----- ----<br>---- --- --- ----- --- ---- ---- ------- ----- ---- -------<br>you --- -- ----- -- --- ---- -- --- ---- -- ------ ------<br>--- ----- -- ----,105852.5,105849.40000000596,105575.48,105576.59999999404,105592.191,105859.567,,39,you
screen,html.Screen,2_1_0_1_40,2022-02-04T11:38:39.664Z,,,,,,,,,,,,,,,,,53,,,,,,,,,,,,,,238.73300001192547,,response,,,,99,,,,,,,Space,keypress(Space),,,,,,,,---- -- ----- -- ------ - ------- --- ----------<br>------------- ------ ------ ---- ---- ------- ----- -- ----<br>-------- ------- -- ---------- --- - --- ----- ----- ----<br>---- --- --- ----- --- ---- ---- ------- ----- ---- -------<br>--- are -- ----- -- --- ---- -- --- ---- -- ------ ------<br>--- ----- -- ----,106101.5,106098.30000001192,105842.856,105852.69999998808,105859.567,106110.232,,40,are
screen,html.Screen,2_1_0_1_41,2022-02-04T11:38:39.930Z,,,,,,,,,,,,,,,,,53,,,,,,,,,,,,,,254.06800001191732,,response,,,,99,,,,,,,Space,keypress(Space),,,,,,,,---- -- ----- -- ------ - ------- --- ----------<br>------------- ------ ------ ---- ---- ------- ----- -- ----<br>-------- ------- -- ---------- --- - --- ----- ----- ----<br>---- --- --- ----- --- ---- ---- ------- ----- ---- -------<br>--- --- as ----- -- --- ---- -- --- ---- -- ------ ------<br>--- ----- -- ----,106367.5,106364.30000001192,106093.521,106101.69999998808,106110.232,106377.608,,41,as
screen,html.Screen,2_1_0_1_42,2022-02-04T11:38:40.174Z,,,,,,,,,,,,,,,,,53,,,,,,,,,,,,,,230.69200001192803,,response,,,,99,,,,,,,Space,keypress(Space),,,,,,,,---- -- ----- -- ------ - ------- --- ----------<br>------------- ------ ------ ---- ---- ------- ----- -- ----<br>-------- ------- -- ---------- --- - --- ----- ----- ----<br>---- --- --- ----- --- ---- ---- ------- ----- ---- -------<br>--- --- -- close -- --- ---- -- --- ---- -- ------ ------<br>--- ----- -- ----,106611.40000000596,106608.30000001192,106360.897,106367.59999999404,106377.608,106628.273,,42,close
screen,html.Screen,2_1_0_1_43,2022-02-04T11:38:40.442Z,,,,,,,,,,,,,,,,,53,,,,,,,,,,,,,,248.02700001191988,,response,,,,99,,,,,,,Space,keypress(Space),,,,,,,,---- -- ----- -- ------ - ------- --- ----------<br>------------- ------ ------ ---- ---- ------- ----- -- ----<br>-------- ------- -- ---------- --- - --- ----- ----- ----<br>---- --- --- ----- --- ---- ---- ------- ----- ---- -------<br>--- --- -- ----- as --- ---- -- --- ---- -- ------ ------<br>--- ----- -- ----,106879.40000000596,106876.30000001192,106611.562,106611.5,106628.273,106895.649,,43,as
screen,html.Screen,2_1_0_1_44,2022-02-04T11:38:40.709Z,,,,,,,,,,,,,,,,,53,,,,,,,,,,,,,,247.65100001191604,,response,,,,99,,,,,,,Space,keypress(Space),,,,,,,,---- -- ----- -- ------ - ------- --- ----------<br>------------- ------ ------ ---- ---- ------- ----- -- ----<br>-------- ------- -- ---------- --- - --- ----- ----- ----<br>---- --- --- ----- --- ---- ---- ------- ----- ---- -------<br>--- --- -- ----- -- you ---- -- --- ---- -- ------ ------<br>--- ----- -- ----,107146.69999998808,107143.30000001192,106878.938,106879.59999999404,106895.649,107163.025,,44,you
screen,html.Screen,2_1_0_1_45,2022-02-04T11:38:40.981Z,,,,,,,,,,,,,,,,,53,,,,,,,,,,,,,,252.27500001192675,,response,,,,99,,,,,,,Space,keypress(Space),,,,,,,,---- -- ----- -- ------ - ------- --- ----------<br>------------- ------ ------ ---- ---- ------- ----- -- ----<br>-------- ------- -- ---------- --- - --- ----- ----- ----<br>---- --- --- ----- --- ---- ---- ------- ----- ---- -------<br>--- --- -- ----- -- --- want -- --- ---- -- ------ ------<br>--- ----- -- ----,107418.40000000596,107415.30000001192,107146.314,107146.80000001192,107163.025,107430.401,,45,want
screen,html.Screen,2_1_0_1_46,2022-02-04T11:38:41.265Z,,,,,,,,,,,,,,,,,53,,,,,,,,,,,,,,268.8990000119229,,response,,,,99,,,,,,,Space,keypress(Space),,,,,,,,---- -- ----- -- ------ - ------- --- ----------<br>------------- ------ ------ ---- ---- ------- ----- -- ----<br>-------- ------- -- ---------- --- - --- ----- ----- ----<br>---- --- --- ----- --- ---- ---- ------- ----- ---- -------<br>--- --- -- ----- -- --- ---- to --- ---- -- ------ ------<br>--- ----- -- ----,107702.40000000596,107699.30000001192,107413.69,107418.5,107430.401,107714.488,,46,to
screen,html.Screen,2_1_0_1_47,2022-02-04T11:38:41.533Z,,,,,,,,,,,,,,,,,53,,,,,,,,,,,,,,252.71199998808152,,response,,,,99,,,,,,,Space,keypress(Space),,,,,,,,"---- -- ----- -- ------ - ------- --- ----------<br>------------- ------ ------ ---- ---- ------- ----- -- ----<br>-------- ------- -- ---------- --- - --- ----- ----- ----<br>---- --- --- ----- --- ---- ---- ------- ----- ---- -------<br>--- --- -- ----- -- --- ---- -- be, ---- -- ------ ------<br>--- ----- -- ----",107970.59999999404,107967.19999998808,107697.777,107702.5,107714.488,107981.864,,47,"be,"
screen,html.Screen,2_1_0_1_48,2022-02-04T11:38:41.843Z,,,,,,,,,,,,,,,,,53,,,,,,,,,,,,,,296.23599999403814,,response,,,,99,,,,,,,Space,keypress(Space),,,,,,,,---- -- ----- -- ------ - ------- --- ----------<br>------------- ------ ------ ---- ---- ------- ----- -- ----<br>-------- ------- -- ---------- --- - --- ----- ----- ----<br>---- --- --- ----- --- ---- ---- ------- ----- ---- -------<br>--- --- -- ----- -- --- ---- -- --- even -- ------ ------<br>--- ----- -- ----,108281.30000001192,108278.09999999404,107965.153,107970.80000001192,107981.864,108282.662,,48,even
screen,html.Screen,2_1_0_1_49,2022-02-04T11:38:42.131Z,,,,,,,,,,,,,,,,,53,,,,,,,,,,,,,,282.53799998808245,,response,,,,99,,,,,,,Space,keypress(Space),,,,,,,,---- -- ----- -- ------ - ------- --- ----------<br>------------- ------ ------ ---- ---- ------- ----- -- ----<br>-------- ------- -- ---------- --- - --- ----- ----- ----<br>---- --- --- ----- --- ---- ---- ------- ----- ---- -------<br>--- --- -- ----- -- --- ---- -- --- ---- if ------ ------<br>--- ----- -- ----,108568.40000000596,108565.19999998808,108265.951,108281.40000000596,108282.662,108583.46,,49,if
screen,html.Screen,2_1_0_1_50,2022-02-04T11:38:42.395Z,,,,,,,,,,,,,,,,,53,,,,,,,,,,,,,,245.73999998807267,,response,,,,99,,,,,,,Space,keypress(Space),,,,,,,,---- -- ----- -- ------ - ------- --- ----------<br>------------- ------ ------ ---- ---- ------- ----- -- ----<br>-------- ------- -- ---------- --- - --- ----- ----- ----<br>---- --- --- ----- --- ---- ---- ------- ----- ---- -------<br>--- --- -- ----- -- --- ---- -- --- ---- -- that's ------<br>--- ----- -- ----,108832.30000001192,108829.19999998808,108566.749,108568.59999999404,108583.46,108834.125,,50,that's
screen,html.Screen,2_1_0_1_51,2022-02-04T11:38:42.697Z,,,,,,,,,,,,,,,,,53,,,,,,,,,,,,,,296.97499999403954,,response,,,,99,,,,,,,Space,keypress(Space),,,,,,,,---- -- ----- -- ------ - ------- --- ----------<br>------------- ------ ------ ---- ---- ------- ----- -- ----<br>-------- ------- -- ---------- --- - --- ----- ----- ----<br>---- --- --- ----- --- ---- ---- ------- ----- ---- -------<br>--- --- -- ----- -- --- ---- -- --- ---- -- ------ really<br>--- ----- -- ----,109134.30000001192,109131.09999999404,108817.414,108832.5,108834.125,109151.634,,51,really
screen,html.Screen,2_1_0_1_52,2022-02-04T11:38:42.972Z,,,,,,,,,,,,,,,,,53,,,,,,,,,,,,,,254.46599999403406,,response,,,,99,,,,,,,Space,keypress(Space),,,,,,,,---- -- ----- -- ------ - ------- --- ----------<br>------------- ------ ------ ---- ---- ------- ----- -- ----<br>-------- ------- -- ---------- --- - --- ----- ----- ----<br>---- --- --- ----- --- ---- ---- ------- ----- ---- -------<br>--- --- -- ----- -- --- ---- -- --- ---- -- ------ ------<br>not ----- -- ----,109409.30000001192,109406.09999999404,109134.923,109134.40000000596,109151.634,109419.01,,52,not
screen,html.Screen,2_1_0_1_53,2022-02-04T11:38:43.252Z,,,,,,,,,,,,,,,,,53,,,,,,,,,,,,,,267.0899999940448,,response,,,,99,,,,,,,Space,keypress(Space),,,,,,,,---- -- ----- -- ------ - ------- --- ----------<br>------------- ------ ------ ---- ---- ------- ----- -- ----<br>-------- ------- -- ---------- --- - --- ----- ----- ----<br>---- --- --- ----- --- ---- ---- ------- ----- ---- -------<br>--- --- -- ----- -- --- ---- -- --- ---- -- ------ ------<br>--- close -- ----,109689.30000001192,109686.09999999404,109402.299,109409.40000000596,109419.01,109703.097,,53,close
screen,html.Screen,2_1_0_1_54,2022-02-04T11:38:43.520Z,,,,,,,,,,,,,,,,,53,,,,,,,,,,,,,,251.00299999404524,,response,,,,99,,,,,,,Space,keypress(Space),,,,,,,,---- -- ----- -- ------ - ------- --- ----------<br>------------- ------ ------ ---- ---- ------- ----- -- ----<br>-------- ------- -- ---------- --- - --- ----- ----- ----<br>---- --- --- ----- --- ---- ---- ------- ----- ---- -------<br>--- --- -- ----- -- --- ---- -- --- ---- -- ------ ------<br>--- ----- at ----,109957.5,109954.09999999404,109686.386,109689.40000000596,109703.097,109970.473,,54,at
screen,html.Screen,2_1_0_1_55,2022-02-04T11:38:43.774Z,,,,,,,,,,,,,,,,,53,,,,,,,,,,,,,,238.6269999940414,,response,,,,99,,,,,,,Space,keypress(Space),,,,,,,,---- -- ----- -- ------ - ------- --- ----------<br>------------- ------ ------ ---- ---- ------- ----- -- ----<br>-------- ------- -- ---------- --- - --- ----- ----- ----<br>---- --- --- ----- --- ---- ---- ------- ----- ---- -------<br>--- --- -- ----- -- --- ---- -- --- ---- -- ------ ------<br>--- ----- -- all.,110212.09999999404,110209.09999999404,109953.762,109957.59999999404,109970.473,110221.138,,55,all.
Item 99,flow.Loop,2_1_0_1,2022-02-04T11:38:43.775Z,,,,,,,,,,,,,,,,,,,,,,,,,,,,,,,17501.464999994045,,completion,,,,,C,,,,,,,,,,,silence,,,,,110212.5,110209.09999999404,92690.924,92693.59999999404,92707.635,110221.138,,,
Question 1,html.Screen,2_1_0_2,2022-02-04T11:38:47.181Z,,,,,,,,,,,,,,,,,,,,,,,,,,,,true,FALSE,,3395.262000005954,,response,,,,99,C,,,,,,FALSE,click #choice-2,,,,silence,,,,,113618.90000000596,113616.40000000596,110204.427,110212.69999998808,110221.138,113630.371,,,
Question 2,html.Screen,2_1_0_3,2022-02-04T11:38:50.124Z,,,,,,,,,,,,,,,,,,,,,,,,,,,,true,TRUE,,2928.5290000059613,,response,,,,99,C,,,,,,TRUE,click #choice-1,,,,silence,,,,,116561.30000001192,116558.90000000596,113613.66,113619,113630.371,116571.507,,,
Item 99,flow.Sequence,2_1_0,2022-02-04T11:38:50.124Z,,,,,,,,,,,,,,,,,,,,,,,,,,,,,,,33844.73300000596,,completion,,,,,,,,,,,,,,,,,,,,,116561.59999999404,116558.90000000596,82697.456,82709.30000001192,82714.167,116571.507,,,
Holding screen,html.Screen,2_1_1_0,2022-02-04T11:39:00.113Z,,,,,,,,,,,,,,,,,,,,,,,,,,,,,,,9993.358000000007,,timeout,,,,,,,,,,,,,,,,,,,,,126550.69999998808,126548.154,116554.796,116561.69999998808,116571.507,126564.865,,,
screen,html.Screen,2_1_1_1_0,2022-02-04T11:39:01.338Z,,,,,,,,,,,,,,,,,54,,,,,,,,,,,,,,1203.6349999999948,,response,,,,100,,,,,,,Space,keypress(Space),,,,,,,,At --- ---- --- ------ ----- ------- ---- -- --- ------- --<br>------- ---------- ------ -- ----- -- ----- -- ---- ------<br>--- ----- --- --- ------ -------- ----- --- ------ ----- --<br>----- ----- ---------- --- --- ------ ------ ---- -- ------<br>------- --- ------ ----- --- ---- ------- -- ---- --- --<br>------- ------,127774.69999998808,127768.5,126548.154,126550.90000000596,126564.865,127784.768,,0,At
screen,html.Screen,2_1_1_1_1,2022-02-04T11:39:01.673Z,,,,,,,,,,,,,,,,,54,,,,,,,,,,,,,,321.6320000059641,,response,,,,100,,,,,,,Space,keypress(Space),,,,,,,,-- the ---- --- ------ ----- ------- ---- -- --- ------- --<br>------- ---------- ------ -- ----- -- ----- -- ---- ------<br>--- ----- --- --- ------ -------- ----- --- ------ ----- --<br>----- ----- ---------- --- --- ------ ------ ---- -- ------<br>------- --- ------ ----- --- ---- ------- -- ---- --- --<br>------- ------,128109.80000001192,128106.40000000596,127768.057,127774.90000000596,127784.768,128118.988,,1,the
screen,html.Screen,2_1_1_1_2,2022-02-04T11:39:01.917Z,,,,,,,,,,,,,,,,,54,,,,,,,,,,,,,,232.21199998808152,,response,,,,100,,,,,,,Space,keypress(Space),,,,,,,,-- --- time --- ------ ----- ------- ---- -- --- ------- --<br>------- ---------- ------ -- ----- -- ----- -- ---- ------<br>--- ----- --- --- ------ -------- ----- --- ------ ----- --<br>----- ----- ---------- --- --- ------ ------ ---- -- ------<br>------- --- ------ ----- --- ---- ------- -- ---- --- --<br>------- ------,128354.30000001192,128351.19999998808,128102.277,128110.09999999404,128118.988,128369.653,,2,time
screen,html.Screen,2_1_1_1_3,2022-02-04T11:39:02.227Z,,,,,,,,,,,,,,,,,54,,,,,,,,,,,,,,291.74700000595476,,response,,,,100,,,,,,,Space,keypress(Space),,,,,,,,-- --- ---- the ------ ----- ------- ---- -- --- ------- --<br>------- ---------- ------ -- ----- -- ----- -- ---- ------<br>--- ----- --- --- ------ -------- ----- --- ------ ----- --<br>----- ----- ---------- --- --- ------ ------ ---- -- ------<br>------- --- ------ ----- --- ---- ------- -- ---- --- --<br>------- ------,128664.59999999404,128661.40000000596,128352.942,128354.40000000596,128369.653,128670.451,,3,the
screen,html.Screen,2_1_1_1_4,2022-02-04T11:39:02.517Z,,,,,,,,,,,,,,,,,54,,,,,,,,,,,,,,278.84900001192,,response,,,,100,,,,,,,Space,keypress(Space),,,,,,,,-- --- ---- --- French ----- ------- ---- -- --- ------- --<br>------- ---------- ------ -- ----- -- ----- -- ---- ------<br>--- ----- --- --- ------ -------- ----- --- ------ ----- --<br>----- ----- ---------- --- --- ------ ------ ---- -- ------<br>------- --- ------ ----- --- ---- ------- -- ---- --- --<br>------- ------,128954.59999999404,128949.30000001192,128653.74,128664.69999998808,128670.451,128971.249,,4,French
screen,html.Screen,2_1_1_1_5,2022-02-04T11:39:02.819Z,,,,,,,,,,,,,,,,,54,,,,,,,,,,,,,,281.05100001192477,,response,,,,100,,,,,,,Space,keypress(Space),,,,,,,,-- --- ---- --- ------ crown ------- ---- -- --- ------- --<br>------- ---------- ------ -- ----- -- ----- -- ---- ------<br>--- ----- --- --- ------ -------- ----- --- ------ ----- --<br>----- ----- ---------- --- --- ------ ------ ---- -- ------<br>------- --- ------ ----- --- ---- ------- -- ---- --- --<br>------- ------,129255.80000001192,129252.30000001192,128954.538,128954.80000001192,128971.249,129272.047,,5,crown
screen,html.Screen,2_1_1_1_6,2022-02-04T11:39:03.088Z,,,,,,,,,,,,,,,,,54,,,,,,,,,,,,,,250.253000011915,,response,,,,100,,,,,,,Space,keypress(Space),,,,,,,,-- --- ---- --- ------ ----- secured ---- -- --- ------- --<br>------- ---------- ------ -- ----- -- ----- -- ---- ------<br>--- ----- --- --- ------ -------- ----- --- ------ ----- --<br>----- ----- ---------- --- --- ------ ------ ---- -- ------<br>------- --- ------ ----- --- ---- ------- -- ---- --- --<br>------- ------,129525.5,129522.30000001192,129255.336,129255.90000000596,129272.047,129539.423,,6,secured
screen,html.Screen,2_1_1_1_7,2022-02-04T11:39:03.379Z,,,,,,,,,,,,,,,,,54,,,,,,,,,,,,,,273.77699998808384,,response,,,,100,,,,,,,Space,keypress(Space),,,,,,,,-- --- ---- --- ------ ----- ------- much -- --- ------- --<br>------- ---------- ------ -- ----- -- ----- -- ---- ------<br>--- ----- --- --- ------ -------- ----- --- ------ ----- --<br>----- ----- ---------- --- --- ------ ------ ---- -- ------<br>------- --- ------ ----- --- ---- ------- -- ---- --- --<br>------- ------,129816.40000000596,129813.19999998808,129522.712,129525.59999999404,129539.423,129823.51,,7,much
screen,html.Screen,2_1_1_1_8,2022-02-04T11:39:03.650Z,,,,,,,,,,,,,,,,,54,,,,,,,,,,,,,,258.6899999880843,,response,,,,100,,,,,,,Space,keypress(Space),,,,,,,,-- --- ---- --- ------ ----- ------- ---- of --- ------- --<br>------- ---------- ------ -- ----- -- ----- -- ---- ------<br>--- ----- --- --- ------ -------- ----- --- ------ ----- --<br>----- ----- ---------- --- --- ------ ------ ---- -- ------<br>------- --- ------ ----- --- ---- ------- -- ---- --- --<br>------- ------,130087.59999999404,130082.19999998808,129806.799,129816.59999999404,129823.51,130090.886,,8,of
screen,html.Screen,2_1_1_1_9,2022-02-04T11:39:03.938Z,,,,,,,,,,,,,,,,,54,,,,,,,,,,,,,,281.21399999404093,,response,,,,100,,,,,,,Space,keypress(Space),,,,,,,,-- --- ---- --- ------ ----- ------- ---- -- its ------- --<br>------- ---------- ------ -- ----- -- ----- -- ---- ------<br>--- ----- --- --- ------ -------- ----- --- ------ ----- --<br>----- ----- ---------- --- --- ------ ------ ---- -- ------<br>------- --- ------ ----- --- ---- ------- -- ---- --- --<br>------- ------,130375.30000001192,130372.09999999404,130074.175,130087.69999998808,130090.886,130391.684,,9,its
screen,html.Screen,2_1_1_1_10,2022-02-04T11:39:04.187Z,,,,,,,,,,,,,,,,,54,,,,,,,,,,,,,,229.6160000119271,,response,,,,100,,,,,,,Space,keypress(Space),,,,,,,,-- --- ---- --- ------ ----- ------- ---- -- --- revenue --<br>------- ---------- ------ -- ----- -- ----- -- ---- ------<br>--- ----- --- --- ------ -------- ----- --- ------ ----- --<br>----- ----- ---------- --- --- ------ ------ ---- -- ------<br>------- --- ------ ----- --- ---- ------- -- ---- --- --<br>------- ------,130624.40000000596,130621.30000001192,130374.973,130375.40000000596,130391.684,130625.638,,10,revenue
screen,html.Screen,2_1_1_1_11,2022-02-04T11:39:04.587Z,,,,,,,,,,,,,,,,,54,,,,,,,,,,,,,,394.46199999403325,,response,,,,100,,,,,,,Space,keypress(Space),,,,,,,,-- --- ---- --- ------ ----- ------- ---- -- --- ------- by<br>------- ---------- ------ -- ----- -- ----- -- ---- ------<br>--- ----- --- --- ------ -------- ----- --- ------ ----- --<br>----- ----- ---------- --- --- ------ ------ ---- -- ------<br>------- --- ------ ----- --- ---- ------- -- ---- --- --<br>------- ------,131023.69999998808,131020.09999999404,130608.927,130624.5,130625.638,131026.702,,11,by
screen,html.Screen,2_1_1_1_12,2022-02-04T11:39:04.896Z,,,,,,,,,,,,,,,,,54,,,,,,,,,,,,,,303.39799999403476,,response,,,,100,,,,,,,Space,keypress(Space),,,,,,,,-- --- ---- --- ------ ----- ------- ---- -- --- ------- --<br>issuing ---------- ------ -- ----- -- ----- -- ---- ------<br>--- ----- --- --- ------ -------- ----- --- ------ ----- --<br>----- ----- ---------- --- --- ------ ------ ---- -- ------<br>------- --- ------ ----- --- ---- ------- -- ---- --- --<br>------- ------,131333.09999999404,131330.09999999404,131009.991,131023.90000000596,131026.702,131344.211,,12,issuing
screen,html.Screen,2_1_1_1_13,2022-02-04T11:39:05.348Z,,,,,,,,,,,,,,,,,54,,,,,,,,,,,,,,437.9889999880688,,response,,,,100,,,,,,,Space,keypress(Space),,,,,,,,-- --- ---- --- ------ ----- ------- ---- -- --- ------- --<br>------- government ------ -- ----- -- ----- -- ---- ------<br>--- ----- --- --- ------ -------- ----- --- ------ ----- --<br>----- ----- ---------- --- --- ------ ------ ---- -- ------<br>------- --- ------ ----- --- ---- ------- -- ---- --- --<br>------- ------,131785.30000001192,131782.19999998808,131327.5,131333.30000001192,131344.211,131795.408,,13,government
screen,html.Screen,2_1_1_1_14,2022-02-04T11:39:05.702Z,,,,,,,,,,,,,,,,,54,,,,,,,,,,,,,,339.6919999940437,,response,,,,100,,,,,,,Space,keypress(Space),,,,,,,,-- --- ---- --- ------ ----- ------- ---- -- --- ------- --<br>------- ---------- bonds. -- ----- -- ----- -- ---- ------<br>--- ----- --- --- ------ -------- ----- --- ------ ----- --<br>----- ----- ---------- --- --- ------ ------ ---- -- ------<br>------- --- ------ ----- --- ---- ------- -- ---- --- --<br>------- ------,132138.59999999404,132135.09999999404,131778.697,131785.5,131795.408,132146.339,,14,bonds.
screen,html.Screen,2_1_1_1_15,2022-02-04T11:39:06.025Z,,,,,,,,,,,,,,,,,54,,,,,,,,,,,,,,312.7609999940323,,response,,,,100,,,,,,,Space,keypress(Space),,,,,,,,-- --- ---- --- ------ ----- ------- ---- -- --- ------- --<br>------- ---------- ------ In ----- -- ----- -- ---- ------<br>--- ----- --- --- ------ -------- ----- --- ------ ----- --<br>----- ----- ---------- --- --- ------ ------ ---- -- ------<br>------- --- ------ ----- --- ---- ------- -- ---- --- --<br>------- ------,132462.19999998808,132459.09999999404,132129.628,132138.80000001192,132146.339,132463.848,,15,In
screen,html.Screen,2_1_1_1_16,2022-02-04T11:39:06.288Z,,,,,,,,,,,,,,,,,54,,,,,,,,,,,,,,258.2519999940414,,response,,,,100,,,,,,,Space,keypress(Space),,,,,,,,"-- --- ---- --- ------ ----- ------- ---- -- --- ------- --<br>------- ---------- ------ -- 1727, -- ----- -- ---- ------<br>--- ----- --- --- ------ -------- ----- --- ------ ----- --<br>----- ----- ---------- --- --- ------ ------ ---- -- ------<br>------- --- ------ ----- --- ---- ------- -- ---- --- --<br>------- ------",132725.19999998808,132722.09999999404,132447.137,132462.5,132463.848,132731.224,,16,"1727,"
screen,html.Screen,2_1_1_1_17,2022-02-04T11:39:07.076Z,,,,,,,,,,,,,,,,,54,,,,,,,,,,,,,,778.7760000000126,,response,,,,100,,,,,,,Space,keypress(Space),,,,,,,,-- --- ---- --- ------ ----- ------- ---- -- --- ------- --<br>------- ---------- ------ -- ----- in ----- -- ---- ------<br>--- ----- --- --- ------ -------- ----- --- ------ ----- --<br>----- ----- ---------- --- --- ------ ------ ---- -- ------<br>------- --- ------ ----- --- ---- ------- -- ---- --- --<br>------- ------,133513.19999998808,133510,132714.513,132725.30000001192,132731.224,133516.641,,17,in
screen,html.Screen,2_1_1_1_18,2022-02-04T11:39:07.438Z,,,,,,,,,,,,,,,,,54,,,,,,,,,,,,,,355.35899999999674,,response,,,,100,,,,,,,Space,keypress(Space),,,,,,,,-- --- ---- --- ------ ----- ------- ---- -- --- ------- --<br>------- ---------- ------ -- ----- -- order -- ---- ------<br>--- ----- --- --- ------ -------- ----- --- ------ ----- --<br>----- ----- ---------- --- --- ------ ------ ---- -- ------<br>------- --- ------ ----- --- ---- ------- -- ---- --- --<br>------- ------,133875.09999999404,133872,133499.93,133513.40000000596,133516.641,133884.283,,18,order
screen,html.Screen,2_1_1_1_19,2022-02-04T11:39:07.720Z,,,,,,,,,,,,,,,,,54,,,,,,,,,,,,,,269.7170000000042,,response,,,,100,,,,,,,Space,keypress(Space),,,,,,,,-- --- ---- --- ------ ----- ------- ---- -- --- ------- --<br>------- ---------- ------ -- ----- -- ----- to ---- ------<br>--- ----- --- --- ------ -------- ----- --- ------ ----- --<br>----- ----- ---------- --- --- ------ ------ ---- -- ------<br>------- --- ------ ----- --- ---- ------- -- ---- --- --<br>------- ------,134157.09999999404,134154,133867.572,133875.19999998808,133884.283,134168.37,,19,to
screen,html.Screen,2_1_1_1_20,2022-02-04T11:39:07.951Z,,,,,,,,,,,,,,,,,54,,,,,,,,,,,,,,216.63000000000466,,response,,,,100,,,,,,,Space,keypress(Space),,,,,,,,-- --- ---- --- ------ ----- ------- ---- -- --- ------- --<br>------- ---------- ------ -- ----- -- ----- -- save ------<br>--- ----- --- --- ------ -------- ----- --- ------ ----- --<br>----- ----- ---------- --- --- ------ ------ ---- -- ------<br>------- --- ------ ----- --- ---- ------- -- ---- --- --<br>------- ------,134388.09999999404,134385,134151.659,134157.19999998808,134168.37,134402.468,,20,save
screen,html.Screen,2_1_1_1_21,2022-02-04T11:39:08.213Z,,,,,,,,,,,,,,,,,54,,,,,,,,,,,,,,244.43200000596698,,response,,,,100,,,,,,,Space,keypress(Space),,,,,,,,"-- --- ---- --- ------ ----- ------- ---- -- --- ------- --<br>------- ---------- ------ -- ----- -- ----- -- ---- money,<br>--- ----- --- --- ------ -------- ----- --- ------ ----- --<br>----- ----- ---------- --- --- ------ ------ ---- -- ------<br>------- --- ------ ----- --- ---- ------- -- ---- --- --<br>------- ------",134650.09999999404,134646.90000000596,134385.757,134388.19999998808,134402.468,134653.133,,21,"money,"
screen,html.Screen,2_1_1_1_22,2022-02-04T11:39:08.531Z,,,,,,,,,,,,,,,,,54,,,,,,,,,,,,,,311.76700000595883,,response,,,,100,,,,,,,Space,keypress(Space),,,,,,,,-- --- ---- --- ------ ----- ------- ---- -- --- ------- --<br>------- ---------- ------ -- ----- -- ----- -- ---- ------<br>the ----- --- --- ------ -------- ----- --- ------ ----- --<br>----- ----- ---------- --- --- ------ ------ ---- -- ------<br>------- --- ------ ----- --- ---- ------- -- ---- --- --<br>------- ------,134968.09999999404,134964.90000000596,134636.422,134650.30000001192,134653.133,134970.642,,22,the
screen,html.Screen,2_1_1_1_23,2022-02-04T11:39:08.799Z,,,,,,,,,,,,,,,,,54,,,,,,,,,,,,,,262.2580000059679,,response,,,,100,,,,,,,Space,keypress(Space),,,,,,,,-- --- ---- --- ------ ----- ------- ---- -- --- ------- --<br>------- ---------- ------ -- ----- -- ----- -- ---- ------<br>--- state --- --- ------ -------- ----- --- ------ ----- --<br>----- ----- ---------- --- --- ------ ------ ---- -- ------<br>------- --- ------ ----- --- ---- ------- -- ---- --- --<br>------- ------,135236.19999998808,135232.90000000596,134953.931,134968.19999998808,134970.642,135238.018,,23,state
screen,html.Screen,2_1_1_1_24,2022-02-04T11:39:09.068Z,,,,,,,,,,,,,,,,,54,,,,,,,,,,,,,,263.8820000059495,,response,,,,100,,,,,,,Space,keypress(Space),,,,,,,,-- --- ---- --- ------ ----- ------- ---- -- --- ------- --<br>------- ---------- ------ -- ----- -- ----- -- ---- ------<br>--- ----- cut --- ------ -------- ----- --- ------ ----- --<br>----- ----- ---------- --- --- ------ ------ ---- -- ------<br>------- --- ------ ----- --- ---- ------- -- ---- --- --<br>------- ------,135505.09999999404,135501.90000000596,135221.307,135236.40000000596,135238.018,135522.105,,24,cut
screen,html.Screen,2_1_1_1_25,2022-02-04T11:39:09.349Z,,,,,,,,,,,,,,,,,54,,,,,,,,,,,,,,260.79500000595,,response,,,,100,,,,,,,Space,keypress(Space),,,,,,,,-- --- ---- --- ------ ----- ------- ---- -- --- ------- --<br>------- ---------- ------ -- ----- -- ----- -- ---- ------<br>--- ----- --- the ------ -------- ----- --- ------ ----- --<br>----- ----- ---------- --- --- ------ ------ ---- -- ------<br>------- --- ------ ----- --- ---- ------- -- ---- --- --<br>------- ------,135786,135782.90000000596,135505.394,135505.30000001192,135522.105,135789.481,,25,the
screen,html.Screen,2_1_1_1_26,2022-02-04T11:39:09.595Z,,,,,,,,,,,,,,,,,54,,,,,,,,,,,,,,239.4190000059607,,response,,,,100,,,,,,,Space,keypress(Space),,,,,,,,-- --- ---- --- ------ ----- ------- ---- -- --- ------- --<br>------- ---------- ------ -- ----- -- ----- -- ---- ------<br>--- ----- --- --- bonds' -------- ----- --- ------ ----- --<br>----- ----- ---------- --- --- ------ ------ ---- -- ------<br>------- --- ------ ----- --- ---- ------- -- ---- --- --<br>------- ------,136032.09999999404,136028.90000000596,135772.77,135786.19999998808,135789.481,136040.146,,26,bonds'
screen,html.Screen,2_1_1_1_27,2022-02-04T11:39:09.876Z,,,,,,,,,,,,,,,,,54,,,,,,,,,,,,,,269.75400000595255,,response,,,,100,,,,,,,Space,keypress(Space),,,,,,,,-- --- ---- --- ------ ----- ------- ---- -- --- ------- --<br>------- ---------- ------ -- ----- -- ----- -- ---- ------<br>--- ----- --- --- ------ interest ----- --- ------ ----- --<br>----- ----- ---------- --- --- ------ ------ ---- -- ------<br>------- --- ------ ----- --- ---- ------- -- ---- --- --<br>------- ------,136313,136309.90000000596,136023.435,136032.19999998808,136040.146,136324.233,,27,interest
screen,html.Screen,2_1_1_1_28,2022-02-04T11:39:10.170Z,,,,,,,,,,,,,,,,,54,,,,,,,,,,,,,,279.667000005953,,response,,,,100,,,,,,,Space,keypress(Space),,,,,,,,-- --- ---- --- ------ ----- ------- ---- -- --- ------- --<br>------- ---------- ------ -- ----- -- ----- -- ---- ------<br>--- ----- --- --- ------ -------- rate. --- ------ ----- --<br>----- ----- ---------- --- --- ------ ------ ---- -- ------<br>------- --- ------ ----- --- ---- ------- -- ---- --- --<br>------- ------,136607,136603.90000000596,136307.522,136313.09999999404,136324.233,136608.32,,28,rate.
screen,html.Screen,2_1_1_1_29,2022-02-04T11:39:10.576Z,,,,,,,,,,,,,,,,,54,,,,,,,,,,,,,,401.48000001191394,,response,,,,100,,,,,,,Space,keypress(Space),,,,,,,,-- --- ---- --- ------ ----- ------- ---- -- --- ------- --<br>------- ---------- ------ -- ----- -- ----- -- ---- ------<br>--- ----- --- --- ------ -------- ----- The ------ ----- --<br>----- ----- ---------- --- --- ------ ------ ---- -- ------<br>------- --- ------ ----- --- ---- ------- -- ---- --- --<br>------- ------,137013,137009.80000001192,136591.609,136607.09999999404,136608.32,137026.095,,29,The
screen,html.Screen,2_1_1_1_30,2022-02-04T11:39:10.911Z,,,,,,,,,,,,,,,,,54,,,,,,,,,,,,,,318.6049999880779,,response,,,,100,,,,,,,Space,keypress(Space),,,,,,,,-- --- ---- --- ------ ----- ------- ---- -- --- ------- --<br>------- ---------- ------ -- ----- -- ----- -- ---- ------<br>--- ----- --- --- ------ -------- ----- --- market ----- --<br>----- ----- ---------- --- --- ------ ------ ---- -- ------<br>------- --- ------ ----- --- ---- ------- -- ---- --- --<br>------- ------,137347.90000000596,137344.69999998808,137009.384,137013.09999999404,137026.095,137360.315,,30,market
screen,html.Screen,2_1_1_1_31,2022-02-04T11:39:11.222Z,,,,,,,,,,,,,,,,,54,,,,,,,,,,,,,,295.38499998807674,,response,,,,100,,,,,,,Space,keypress(Space),,,,,,,,-- --- ---- --- ------ ----- ------- ---- -- --- ------- --<br>------- ---------- ------ -- ----- -- ----- -- ---- ------<br>--- ----- --- --- ------ -------- ----- --- ------ value --<br>----- ----- ---------- --- --- ------ ------ ---- -- ------<br>------- --- ------ ----- --- ---- ------- -- ---- --- --<br>------- ------,137659,137655.69999998808,137343.604,137348.09999999404,137360.315,137661.113,,31,value
screen,html.Screen,2_1_1_1_32,2022-02-04T11:39:11.534Z,,,,,,,,,,,,,,,,,54,,,,,,,,,,,,,,305.6870000119088,,response,,,,100,,,,,,,Space,keypress(Space),,,,,,,,-- --- ---- --- ------ ----- ------- ---- -- --- ------- --<br>------- ---------- ------ -- ----- -- ----- -- ---- ------<br>--- ----- --- --- ------ -------- ----- --- ------ ----- of<br>----- ----- ---------- --- --- ------ ------ ---- -- ------<br>------- --- ------ ----- --- ---- ------- -- ---- --- --<br>------- ------,137970.59999999404,137966.80000001192,137644.402,137659,137661.113,137978.622,,32,of
screen,html.Screen,2_1_1_1_33,2022-02-04T11:39:11.970Z,,,,,,,,,,,,,,,,,54,,,,,,,,,,,,,,425.1780000119179,,response,,,,100,,,,,,,Space,keypress(Space),,,,,,,,-- --- ---- --- ------ ----- ------- ---- -- --- ------- --<br>------- ---------- ------ -- ----- -- ----- -- ---- ------<br>--- ----- --- --- ------ -------- ----- --- ------ ----- --<br>these ----- ---------- --- --- ------ ------ ---- -- ------<br>------- --- ------ ----- --- ---- ------- -- ---- --- --<br>------- ------,138406.80000001192,138403.80000001192,137961.911,137970.59999999404,137978.622,138413.108,,33,these
screen,html.Screen,2_1_1_1_34,2022-02-04T11:39:12.289Z,,,,,,,,,,,,,,,,,54,,,,,,,,,,,,,,309.5919999880716,,response,,,,100,,,,,,,Space,keypress(Space),,,,,,,,-- --- ---- --- ------ ----- ------- ---- -- --- ------- --<br>------- ---------- ------ -- ----- -- ----- -- ---- ------<br>--- ----- --- --- ------ -------- ----- --- ------ ----- --<br>----- bonds ---------- --- --- ------ ------ ---- -- ------<br>------- --- ------ ----- --- ---- ------- -- ---- --- --<br>------- ------,138725.80000001192,138722.69999998808,138396.397,138407,138413.108,138730.617,,34,bonds
screen,html.Screen,2_1_1_1_35,2022-02-04T11:39:12.605Z,,,,,,,,,,,,,,,,,54,,,,,,,,,,,,,,307.7830000059621,,response,,,,100,,,,,,,Space,keypress(Space),,,,,,,,"-- --- ---- --- ------ ----- ------- ---- -- --- ------- --<br>------- ---------- ------ -- ----- -- ----- -- ---- ------<br>--- ----- --- --- ------ -------- ----- --- ------ ----- --<br>----- ----- plummeted, --- --- ------ ------ ---- -- ------<br>------- --- ------ ----- --- ---- ------- -- ---- --- --<br>------- ------",139041.59999999404,139038.40000000596,138713.906,138725.90000000596,138730.617,139048.126,,35,"plummeted,"
screen,html.Screen,2_1_1_1_36,2022-02-04T11:39:12.927Z,,,,,,,,,,,,,,,,,54,,,,,,,,,,,,,,312.5739999880898,,response,,,,100,,,,,,,Space,keypress(Space),,,,,,,,-- --- ---- --- ------ ----- ------- ---- -- --- ------- --<br>------- ---------- ------ -- ----- -- ----- -- ---- ------<br>--- ----- --- --- ------ -------- ----- --- ------ ----- --<br>----- ----- ---------- and --- ------ ------ ---- -- ------<br>------- --- ------ ----- --- ---- ------- -- ---- --- --<br>------- ------,139364,139360.69999998808,139031.415,139041.69999998808,139048.126,139365.635,,36,and
screen,html.Screen,2_1_1_1_37,2022-02-04T11:39:13.245Z,,,,,,,,,,,,,,,,,54,,,,,,,,,,,,,,313.06499998806976,,response,,,,100,,,,,,,Space,keypress(Space),,,,,,,,-- --- ---- --- ------ ----- ------- ---- -- --- ------- --<br>------- ---------- ------ -- ----- -- ----- -- ---- ------<br>--- ----- --- --- ------ -------- ----- --- ------ ----- --<br>----- ----- ---------- --- the ------ ------ ---- -- ------<br>------- --- ------ ----- --- ---- ------- -- ---- --- --<br>------- ------,139681.80000001192,139678.69999998808,139348.924,139364.09999999404,139365.635,139683.144,,37,the
screen,html.Screen,2_1_1_1_38,2022-02-04T11:39:13.505Z,,,,,,,,,,,,,,,,,54,,,,,,,,,,,,,,255.35599999999977,,response,,,,100,,,,,,,Space,keypress(Space),,,,,,,,-- --- ---- --- ------ ----- ------- ---- -- --- ------- --<br>------- ---------- ------ -- ----- -- ----- -- ---- ------<br>--- ----- --- --- ------ -------- ----- --- ------ ----- --<br>----- ----- ---------- --- --- market ------ ---- -- ------<br>------- --- ------ ----- --- ---- ------- -- ---- --- --<br>------- ------,139941.59999999404,139938.5,139666.433,139681.90000000596,139683.144,139950.52,,38,market
screen,html.Screen,2_1_1_1_39,2022-02-04T11:39:13.792Z,,,,,,,,,,,,,,,,,54,,,,,,,,,,,,,,275.07999999405,,response,,,,100,,,,,,,Space,keypress(Space),,,,,,,,-- --- ---- --- ------ ----- ------- ---- -- --- ------- --<br>------- ---------- ------ -- ----- -- ----- -- ---- ------<br>--- ----- --- --- ------ -------- ----- --- ------ ----- --<br>----- ----- ---------- --- --- ------ became ---- -- ------<br>------- --- ------ ----- --- ---- ------- -- ---- --- --<br>------- ------,140228.80000001192,140225.59999999404,139933.809,139941.69999998808,139950.52,140234.607,,39,became
screen,html.Screen,2_1_1_1_40,2022-02-04T11:39:14.065Z,,,,,,,,,,,,,,,,,54,,,,,,,,,,,,,,263.9929999940505,,response,,,,100,,,,,,,Space,keypress(Space),,,,,,,,-- --- ---- --- ------ ----- ------- ---- -- --- ------- --<br>------- ---------- ------ -- ----- -- ----- -- ---- ------<br>--- ----- --- --- ------ -------- ----- --- ------ ----- --<br>----- ----- ---------- --- --- ------ ------ wary -- ------<br>------- --- ------ ----- --- ---- ------- -- ---- --- --<br>------- ------,140501.80000001192,140498.59999999404,140217.896,140228.90000000596,140234.607,140518.694,,40,wary
screen,html.Screen,2_1_1_1_41,2022-02-04T11:39:14.352Z,,,,,,,,,,,,,,,,,54,,,,,,,,,,,,,,264.90599999405094,,response,,,,100,,,,,,,Space,keypress(Space),,,,,,,,-- --- ---- --- ------ ----- ------- ---- -- --- ------- --<br>------- ---------- ------ -- ----- -- ----- -- ---- ------<br>--- ----- --- --- ------ -------- ----- --- ------ ----- --<br>----- ----- ---------- --- --- ------ ------ ---- of ------<br>------- --- ------ ----- --- ---- ------- -- ---- --- --<br>------- ------,140788.90000000596,140783.59999999404,140501.983,140502,140518.694,140802.781,,41,of
screen,html.Screen,2_1_1_1_42,2022-02-04T11:39:14.638Z,,,,,,,,,,,,,,,,,54,,,,,,,,,,,,,,268.7190000000119,,response,,,,100,,,,,,,Space,keypress(Space),,,,,,,,-- --- ---- --- ------ ----- ------- ---- -- --- ------- --<br>------- ---------- ------ -- ----- -- ----- -- ---- ------<br>--- ----- --- --- ------ -------- ----- --- ------ ----- --<br>----- ----- ---------- --- --- ------ ------ ---- -- French<br>------- --- ------ ----- --- ---- ------- -- ---- --- --<br>------- ------,141074.59999999404,141071.5,140786.07,140789,140802.781,141086.868,,42,French
screen,html.Screen,2_1_1_1_43,2022-02-04T11:39:14.979Z,,,,,,,,,,,,,,,,,54,,,,,,,,,,,,,,325.63200000001234,,response,,,,100,,,,,,,Space,keypress(Space),,,,,,,,-- --- ---- --- ------ ----- ------- ---- -- --- ------- --<br>------- ---------- ------ -- ----- -- ----- -- ---- ------<br>--- ----- --- --- ------ -------- ----- --- ------ ----- --<br>----- ----- ---------- --- --- ------ ------ ---- -- ------<br>credit. --- ------ ----- --- ---- ------- -- ---- --- --<br>------- ------,141415.80000001192,141412.5,141070.157,141074.80000001192,141086.868,141421.088,,43,credit.
screen,html.Screen,2_1_1_1_44,2022-02-04T11:39:15.302Z,,,,,,,,,,,,,,,,,54,,,,,,,,,,,,,,314.4120000000112,,response,,,,100,,,,,,,Space,keypress(Space),,,,,,,,-- --- ---- --- ------ ----- ------- ---- -- --- ------- --<br>------- ---------- ------ -- ----- -- ----- -- ---- ------<br>--- ----- --- --- ------ -------- ----- --- ------ ----- --<br>----- ----- ---------- --- --- ------ ------ ---- -- ------<br>------- The ------ ----- --- ---- ------- -- ---- --- --<br>------- ------,141738.59999999404,141735.5,141404.377,141415.90000000596,141421.088,141755.308,,44,The
screen,html.Screen,2_1_1_1_45,2022-02-04T11:39:15.594Z,,,,,,,,,,,,,,,,,54,,,,,,,,,,,,,,272.19200000001,,response,,,,100,,,,,,,Space,keypress(Space),,,,,,,,-- --- ---- --- ------ ----- ------- ---- -- --- ------- --<br>------- ---------- ------ -- ----- -- ----- -- ---- ------<br>--- ----- --- --- ------ -------- ----- --- ------ ----- --<br>----- ----- ---------- --- --- ------ ------ ---- -- ------<br>------- --- French ----- --- ---- ------- -- ---- --- --<br>------- ------,142030.59999999404,142027.5,141738.597,141739,141755.308,142039.395,,45,French
screen,html.Screen,2_1_1_1_46,2022-02-04T11:39:15.878Z,,,,,,,,,,,,,,,,,54,,,,,,,,,,,,,,272.1050000000105,,response,,,,100,,,,,,,Space,keypress(Space),,,,,,,,-- --- ---- --- ------ ----- ------- ---- -- --- ------- --<br>------- ---------- ------ -- ----- -- ----- -- ---- ------<br>--- ----- --- --- ------ -------- ----- --- ------ ----- --<br>----- ----- ---------- --- --- ------ ------ ---- -- ------<br>------- --- ------ state --- ---- ------- -- ---- --- --<br>------- ------,142314.90000000596,142311.5,142022.684,142030.80000001192,142039.395,142323.482,,46,state
screen,html.Screen,2_1_1_1_47,2022-02-04T11:39:16.193Z,,,,,,,,,,,,,,,,,54,,,,,,,,,,,,,,302.8180000119319,,response,,,,100,,,,,,,Space,keypress(Space),,,,,,,,-- --- ---- --- ------ ----- ------- ---- -- --- ------- --<br>------- ---------- ------ -- ----- -- ----- -- ---- ------<br>--- ----- --- --- ------ -------- ----- --- ------ ----- --<br>----- ----- ---------- --- --- ------ ------ ---- -- ------<br>------- --- ------ ----- was ---- ------- -- ---- --- --<br>------- ------,142629.40000000596,142626.30000001192,142306.771,142315,142323.482,142640.991,,47,was
screen,html.Screen,2_1_1_1_48,2022-02-04T11:39:16.464Z,,,,,,,,,,,,,,,,,54,,,,,,,,,,,,,,256.4090000059514,,response,,,,100,,,,,,,Space,keypress(Space),,,,,,,,-- --- ---- --- ------ ----- ------- ---- -- --- ------- --<br>------- ---------- ------ -- ----- -- ----- -- ---- ------<br>--- ----- --- --- ------ -------- ----- --- ------ ----- --<br>----- ----- ---------- --- --- ------ ------ ---- -- ------<br>------- --- ------ ----- --- left ------- -- ---- --- --<br>------- ------,142900.59999999404,142897.40000000596,142624.28,142629.5,142640.991,142908.367,,48,left
screen,html.Screen,2_1_1_1_49,2022-02-04T11:39:16.746Z,,,,,,,,,,,,,,,,,54,,,,,,,,,,,,,,271.13300000000163,,response,,,,100,,,,,,,Space,keypress(Space),,,,,,,,-- --- ---- --- ------ ----- ------- ---- -- --- ------- --<br>------- ---------- ------ -- ----- -- ----- -- ---- ------<br>--- ----- --- --- ------ -------- ----- --- ------ ----- --<br>----- ----- ---------- --- --- ------ ------ ---- -- ------<br>------- --- ------ ----- --- ---- without -- ---- --- --<br>------- ------,143182.59999999404,143179.5,142891.656,142900.69999998808,142908.367,143192.454,,49,without
screen,html.Screen,2_1_1_1_50,2022-02-04T11:39:17.024Z,,,,,,,,,,,,,,,,,54,,,,,,,,,,,,,,264.94600000596256,,response,,,,100,,,,,,,Space,keypress(Space),,,,,,,,-- --- ---- --- ------ ----- ------- ---- -- --- ------- --<br>------- ---------- ------ -- ----- -- ----- -- ---- ------<br>--- ----- --- --- ------ -------- ----- --- ------ ----- --<br>----- ----- ---------- --- --- ------ ------ ---- -- ------<br>------- --- ------ ----- --- ---- ------- an ---- --- --<br>------- ------,143460.5,143457.40000000596,143175.743,143182.69999998808,143192.454,143476.541,,50,an
screen,html.Screen,2_1_1_1_51,2022-02-04T11:39:17.277Z,,,,,,,,,,,,,,,,,54,,,,,,,,,,,,,,233.85900000596303,,response,,,,100,,,,,,,Space,keypress(Space),,,,,,,,-- --- ---- --- ------ ----- ------- ---- -- --- ------- --<br>------- ---------- ------ -- ----- -- ----- -- ---- ------<br>--- ----- --- --- ------ -------- ----- --- ------ ----- --<br>----- ----- ---------- --- --- ------ ------ ---- -- ------<br>------- --- ------ ----- --- ---- ------- -- easy --- --<br>------- ------,143713.59999999404,143710.40000000596,143459.83,143460.59999999404,143476.541,143727.206,,51,easy
screen,html.Screen,2_1_1_1_52,2022-02-04T11:39:17.571Z,,,,,,,,,,,,,,,,,54,,,,,,,,,,,,,,277.1940000059549,,response,,,,100,,,,,,,Space,keypress(Space),,,,,,,,-- --- ---- --- ------ ----- ------- ---- -- --- ------- --<br>------- ---------- ------ -- ----- -- ----- -- ---- ------<br>--- ----- --- --- ------ -------- ----- --- ------ ----- --<br>----- ----- ---------- --- --- ------ ------ ---- -- ------<br>------- --- ------ ----- --- ---- ------- -- ---- way --<br>------- ------,144007.5,144004.40000000596,143710.495,143713.69999998808,143727.206,144011.293,,52,way
screen,html.Screen,2_1_1_1_53,2022-02-04T11:39:17.840Z,,,,,,,,,,,,,,,,,54,,,,,,,,,,,,,,262.10700000595534,,response,,,,100,,,,,,,Space,keypress(Space),,,,,,,,-- --- ---- --- ------ ----- ------- ---- -- --- ------- --<br>------- ---------- ------ -- ----- -- ----- -- ---- ------<br>--- ----- --- --- ------ -------- ----- --- ------ ----- --<br>----- ----- ---------- --- --- ------ ------ ---- -- ------<br>------- --- ------ ----- --- ---- ------- -- ---- --- of<br>------- ------,144276.40000000596,144273.40000000596,143994.582,144007.59999999404,144011.293,144278.669,,53,of
screen,html.Screen,2_1_1_1_54,2022-02-04T11:39:18.187Z,,,,,,,,,,,,,,,,,54,,,,,,,,,,,,,,341.6310000119265,,response,,,,100,,,,,,,Space,keypress(Space),,,,,,,,-- --- ---- --- ------ ----- ------- ---- -- --- ------- --<br>------- ---------- ------ -- ----- -- ----- -- ---- ------<br>--- ----- --- --- ------ -------- ----- --- ------ ----- --<br>----- ----- ---------- --- --- ------ ------ ---- -- ------<br>------- --- ------ ----- --- ---- ------- -- ---- --- --<br>raising ------,144623.69999998808,144620.30000001192,144261.958,144276.59999999404,144278.669,144629.772,,54,raising
screen,html.Screen,2_1_1_1_55,2022-02-04T11:39:18.551Z,,,,,,,,,,,,,,,,,54,,,,,,,,,,,,,,354.5280000119237,,response,,,,100,,,,,,,Space,keypress(Space),,,,,,,,-- --- ---- --- ------ ----- ------- ---- -- --- ------- --<br>------- ---------- ------ -- ----- -- ----- -- ---- ------<br>--- ----- --- --- ------ -------- ----- --- ------ ----- --<br>----- ----- ---------- --- --- ------ ------ ---- -- ------<br>------- --- ------ ----- --- ---- ------- -- ---- --- --<br>------- money.,144987.5,144984.30000001192,144613.061,144623.90000000596,144629.772,144997.414,,55,money.
Item 100,flow.Loop,2_1_1_1,2022-02-04T11:39:18.551Z,,,,,,,,,,,,,,,,,,,,,,,,,,,,,,,18419.435000011916,,completion,,,,,C,,,,,,,,,,,silence,,,,,144987.80000001192,144984.30000001192,126548.154,126550.80000001192,126564.865,144997.414,,,
Question 1,html.Screen,2_1_1_2,2022-02-04T11:39:21.037Z,,,,,,,,,,,,,,,,,,,,,,,,,,,,true,TRUE,,2473.0860000000102,,response,,,,100,C,,,,,,TRUE,click #choice-1,,,,silence,,,,,147473.19999998808,147470.5,144980.703,144987.90000000596,144997.414,147487.353,,,
Question 2,html.Screen,2_1_1_3,2022-02-04T11:39:22.754Z,,,,,,,,,,,,,,,,,,,,,,,,,,,,true,FALSE,,1700.8469999880763,,response,,,,100,C,,,,,,FALSE,click #choice-2,,,,silence,,,,,149190.80000001192,149188.19999998808,147470.642,147473.40000000596,147487.353,149191.875,,,
Item 100,flow.Sequence,2_1_1,2022-02-04T11:39:22.755Z,,,,,,,,,,,,,,,,,,,,,,,,,,,,,,,32616.69299998808,,completion,,,,,,,,,,,,,,,,,,,,,149191.09999999404,149188.19999998808,116554.796,116561.69999998808,116571.507,149191.875,,,
End of Practice,html.Page,2_1_2,2022-02-04T11:39:26.199Z,,,,,,,,,,,,,,,,,,,,,,,,,,,,,,,3442.925000011921,,form submission,,,,,,,,,,,,,,,,,,,,,152635.40000000596,152634.80000001192,149175.164,149191.19999998808,149191.875,152634.341,,,
Practice,flow.Sequence,2_1,2022-02-04T11:39:26.199Z,,,,,,,,,,,,,,,,,,,,,,,,,,,,,,,69920.63300001192,,completion,,,,,,,,,,,,,,,,,,,,,152635.80000001192,152634.80000001192,82697.456,82709.19999998808,82714.167,152634.341,,,
Trap_instruction,html.Page,2_2_0,2022-02-04T11:39:28.493Z,,,,,,,,,,,,,,,,,,,,,,,,,,,,,,,2294.8589999880933,,form submission,,,,,,,,,,,,,,,,,,,,,154929.59999999404,154929.19999998808,152617.63,152635.90000000596,152634.341,154940.459,,,
trap_trial,html.Screen,2_2_1,2022-02-04T11:39:33.237Z,,,,,,,,,,,,,,,,,,,,,,,,,,,,true,1,,4730.441000005958,,response,,,,,,,,,,,1,click #choice-1,,,,,,,,,159673.30000001192,159670.90000000596,154923.748,154929.90000000596,154940.459,159686.575,,,
end of trap trial,html.Page,2_2_2,2022-02-04T11:39:34.772Z,,,,,,,,,,,,,,,,,,,,,,,,,,,,,,,1521.2250000119093,,form submission,,,,,,,,,,,,,,,,,,,,,161208.30000001192,161207.80000001192,159669.864,159673.5,159686.575,161223.987,,,
Trap 1,flow.Sequence,2_2,2022-02-04T11:39:34.772Z,,,,,,,,,,,,,,,,,,,,,,,,,,,,,,,8573.459000011935,,completion,,,,,,,,,,,,,,,,,,,,,161208.59999999404,161207.80000001192,152617.63,152635.90000000596,152634.341,161223.987,,,
Standby,html.Page,2_3_0,2022-02-04T11:39:42.778Z,,,,,,,,,,,,,,,,,,,,,,,,,,,,,,,8004.569000000018,,timeout,,,,,,,,,,,,,,,,,,,,,169213.90000000596,169211.845,161207.276,161208.80000001192,161223.987,169228.556,,,
Holding screen,html.Screen,2_3_1_0_0,2022-02-04T11:39:49.781Z,,,,,,,,,,,,,,,,,,,,,,,,,,,,,,,7002.231999999989,,timeout,,,,,,,,,,,,,,,,,,,,,176216.5,176214.077,169211.845,169214.09999999404,169228.556,176230.788,,,
screen,html.Screen,2_3_1_0_1_0,2022-02-04T11:39:50.468Z,,,,,,,,,,,,,,,,,15,,,,,,,,,,,,,,668.2119999999995,,response,,,,7,C,,,,,,Space,keypress(Space),,,,instrumental,,,,Greg --------- ---------- - --- ------- -- --- ------------<br>----- -- -------- ------- ---- ------ - -------- ---- -----<br>--- ------- ---- -- --- -------- --- - ----- ------ ---- --<br>-------- --- -------- -------- --- -------- ---- -- ----- -<br>-------- ---- --- ---------- --------- -- ------- ------ -<br>--------- ----- -----,176904,176899,176214.077,176216.69999998808,176230.788,176915.939,,0,Greg
screen,html.Screen,2_3_1_0_1_1,2022-02-04T11:39:50.818Z,,,,,,,,,,,,,,,,,15,,,,,,,,,,,,,,334.6609999940265,,response,,,,7,C,,,,,,Space,keypress(Space),,,,instrumental,,,,"---- Anderson, ---------- - --- ------- -- --- ------------<br>----- -- -------- ------- ---- ------ - -------- ---- -----<br>--- ------- ---- -- --- -------- --- - ----- ------ ---- --<br>-------- --- -------- -------- --- -------- ---- -- ----- -<br>-------- ---- --- ---------- --------- -- ------- ------ -<br>--------- ----- -----",177253.90000000596,177250.59999999404,176899.228,176904.19999998808,176915.939,177266.87,,1,"Anderson,"
screen,html.Screen,2_3_1_0_1_2,2022-02-04T11:39:51.258Z,,,,,,,,,,,,,,,,,15,,,,,,,,,,,,,,423.7299999940442,,response,,,,7,C,,,,,,Space,keypress(Space),,,,instrumental,,,,---- --------- considered - --- ------- -- --- ------------<br>----- -- -------- ------- ---- ------ - -------- ---- -----<br>--- ------- ---- -- --- -------- --- - ----- ------ ---- --<br>-------- --- -------- -------- --- -------- ---- -- ----- -<br>-------- ---- --- ---------- --------- -- ------- ------ -<br>--------- ----- -----,177693.80000001192,177690.59999999404,177250.159,177254.09999999404,177266.87,177701.356,,2,considered
screen,html.Screen,2_3_1_0_1_3,2022-02-04T11:39:51.627Z,,,,,,,,,,,,,,,,,15,,,,,,,,,,,,,,358.24399999403977,,response,,,,7,C,,,,,,Space,keypress(Space),,,,instrumental,,,,---- --------- ---------- a --- ------- -- --- ------------<br>----- -- -------- ------- ---- ------ - -------- ---- -----<br>--- ------- ---- -- --- -------- --- - ----- ------ ---- --<br>-------- --- -------- -------- --- -------- ---- -- ----- -<br>-------- ---- --- ---------- --------- -- ------- ------ -<br>--------- ----- -----,178063.09999999404,178059.59999999404,177684.645,177693.90000000596,177701.356,178068.998,,3,a
screen,html.Screen,2_3_1_0_1_4,2022-02-04T11:39:51.932Z,,,,,,,,,,,,,,,,,15,,,,,,,,,,,,,,295.6019999940472,,response,,,,7,C,,,,,,Space,keypress(Space),,,,instrumental,,,,---- --------- ---------- - key ------- -- --- ------------<br>----- -- -------- ------- ---- ------ - -------- ---- -----<br>--- ------- ---- -- --- -------- --- - ----- ------ ---- --<br>-------- --- -------- -------- --- -------- ---- -- ----- -<br>-------- ---- --- ---------- --------- -- ------- ------ -<br>--------- ----- -----,178368.09999999404,178364.59999999404,178052.287,178063.19999998808,178068.998,178369.796,,4,key
screen,html.Screen,2_3_1_0_1_5,2022-02-04T11:39:52.279Z,,,,,,,,,,,,,,,,,15,,,,,,,,,,,,,,341.80399999403744,,response,,,,7,C,,,,,,Space,keypress(Space),,,,instrumental,,,,---- --------- ---------- - --- witness -- --- ------------<br>----- -- -------- ------- ---- ------ - -------- ---- -----<br>--- ------- ---- -- --- -------- --- - ----- ------ ---- --<br>-------- --- -------- -------- --- -------- ---- -- ----- -<br>-------- ---- --- ---------- --------- -- ------- ------ -<br>--------- ----- -----,178714.80000001192,178711.59999999404,178353.085,178368.30000001192,178369.796,178720.727,,5,witness
screen,html.Screen,2_3_1_0_1_6,2022-02-04T11:39:52.607Z,,,,,,,,,,,,,,,,,15,,,,,,,,,,,,,,318.87299999402603,,response,,,,7,C,,,,,,Space,keypress(Space),,,,instrumental,,,,---- --------- ---------- - --- ------- by --- ------------<br>----- -- -------- ------- ---- ------ - -------- ---- -----<br>--- ------- ---- -- --- -------- --- - ----- ------ ---- --<br>-------- --- -------- -------- --- -------- ---- -- ----- -<br>-------- ---- --- ---------- --------- -- ------- ------ -<br>--------- ----- -----,179042.90000000596,179039.59999999404,178704.016,178714.90000000596,178720.727,179054.947,,6,by
screen,html.Screen,2_3_1_0_1_7,2022-02-04T11:39:52.864Z,,,,,,,,,,,,,,,,,15,,,,,,,,,,,,,,241.65299999405397,,response,,,,7,C,,,,,,Space,keypress(Space),,,,instrumental,,,,---- --------- ---------- - --- ------- -- the ------------<br>----- -- -------- ------- ---- ------ - -------- ---- -----<br>--- ------- ---- -- --- -------- --- - ----- ------ ---- --<br>-------- --- -------- -------- --- -------- ---- -- ----- -<br>-------- ---- --- ---------- --------- -- ------- ------ -<br>--------- ----- -----,179299.80000001192,179296.59999999404,179038.236,179043,179054.947,179305.612,,7,the
screen,html.Screen,2_3_1_0_1_8,2022-02-04T11:39:53.339Z,,,,,,,,,,,,,,,,,15,,,,,,,,,,,,,,465.8880000000063,,response,,,,7,C,,,,,,Space,keypress(Space),,,,instrumental,,,,"---- --------- ---------- - --- ------- -- --- prosecution,<br>----- -- -------- ------- ---- ------ - -------- ---- -----<br>--- ------- ---- -- --- -------- --- - ----- ------ ---- --<br>-------- --- -------- -------- --- -------- ---- -- ----- -<br>-------- ---- --- ---------- --------- -- ------- ------ -<br>--------- ----- -----",179774.90000000596,179771.5,179288.901,179300,179305.612,179790.231,,8,"prosecution,"
screen,html.Screen,2_3_1_0_1_9,2022-02-04T11:39:53.774Z,,,,,,,,,,,,,,,,,15,,,,,,,,,,,,,,416.26900000000023,,response,,,,7,C,,,,,,Space,keypress(Space),,,,instrumental,,,,---- --------- ---------- - --- ------- -- --- ------------<br>vowed -- -------- ------- ---- ------ - -------- ---- -----<br>--- ------- ---- -- --- -------- --- - ----- ------ ---- --<br>-------- --- -------- -------- --- -------- ---- -- ----- -<br>-------- ---- --- ---------- --------- -- ------- ------ -<br>--------- ----- -----,180210,180206.5,179773.52,179775,179790.231,180224.892,,9,vowed
screen,html.Screen,2_3_1_0_1_10,2022-02-04T11:39:54.152Z,,,,,,,,,,,,,,,,,15,,,,,,,,,,,,,,359.5080000059679,,response,,,,7,C,,,,,,Space,keypress(Space),,,,instrumental,,,,---- --------- ---------- - --- ------- -- --- ------------<br>----- he -------- ------- ---- ------ - -------- ---- -----<br>--- ------- ---- -- --- -------- --- - ----- ------ ---- --<br>-------- --- -------- -------- --- -------- ---- -- ----- -<br>-------- ---- --- ---------- --------- -- ------- ------ -<br>--------- ----- -----,180588,180584.40000000596,180208.181,180210.09999999404,180224.892,180592.534,,10,he
screen,html.Screen,2_3_1_0_1_11,2022-02-04T11:39:54.491Z,,,,,,,,,,,,,,,,,15,,,,,,,,,,,,,,330.86600000594626,,response,,,,7,C,,,,,,Space,keypress(Space),,,,instrumental,,,,---- --------- ---------- - --- ------- -- --- ------------<br>----- -- wouldn't ------- ---- ------ - -------- ---- -----<br>--- ------- ---- -- --- -------- --- - ----- ------ ---- --<br>-------- --- -------- -------- --- -------- ---- -- ----- -<br>-------- ---- --- ---------- --------- -- ------- ------ -<br>--------- ----- -----,180926.59999999404,180923.40000000596,180575.823,180588.09999999404,180592.534,180943.465,,11,wouldn't
screen,html.Screen,2_3_1_0_1_12,2022-02-04T11:39:54.824Z,,,,,,,,,,,,,,,,,15,,,,,,,,,,,,,,312.93500000596396,,response,,,,7,C,,,,,,Space,keypress(Space),,,,instrumental,,,,---- --------- ---------- - --- ------- -- --- ------------<br>----- -- -------- testify ---- ------ - -------- ---- -----<br>--- ------- ---- -- --- -------- --- - ----- ------ ---- --<br>-------- --- -------- -------- --- -------- ---- -- ----- -<br>-------- ---- --- ---------- --------- -- ------- ------ -<br>--------- ----- -----,181259.59999999404,181256.40000000596,180926.754,180926.80000001192,180943.465,181260.974,,12,testify
screen,html.Screen,2_3_1_0_1_13,2022-02-04T11:39:55.180Z,,,,,,,,,,,,,,,,,15,,,,,,,,,,,,,,351.42600000597304,,response,,,,7,C,,,,,,Space,keypress(Space),,,,instrumental,,,,---- --------- ---------- - --- ------- -- --- ------------<br>----- -- -------- ------- when ------ - -------- ---- -----<br>--- ------- ---- -- --- -------- --- - ----- ------ ---- --<br>-------- --- -------- -------- --- -------- ---- -- ----- -<br>-------- ---- --- ---------- --------- -- ------- ------ -<br>--------- ----- -----,181615.80000001192,181612.40000000596,181244.263,181259.80000001192,181260.974,181628.616,,13,when
screen,html.Screen,2_3_1_0_1_14,2022-02-04T11:39:55.534Z,,,,,,,,,,,,,,,,,15,,,,,,,,,,,,,,337.7840000059514,,response,,,,7,C,,,,,,Space,keypress(Space),,,,instrumental,,,,---- --------- ---------- - --- ------- -- --- ------------<br>----- -- -------- ------- ---- served - -------- ---- -----<br>--- ------- ---- -- --- -------- --- - ----- ------ ---- --<br>-------- --- -------- -------- --- -------- ---- -- ----- -<br>-------- ---- --- ---------- --------- -- ------- ------ -<br>--------- ----- -----,181969.59999999404,181966.40000000596,181611.905,181615.90000000596,181628.616,181979.547,,14,served
screen,html.Screen,2_3_1_0_1_15,2022-02-04T11:39:55.855Z,,,,,,,,,,,,,,,,,15,,,,,,,,,,,,,,307.8530000059691,,response,,,,7,C,,,,,,Space,keypress(Space),,,,instrumental,,,,---- --------- ---------- - --- ------- -- --- ------------<br>----- -- -------- ------- ---- ------ a -------- ---- -----<br>--- ------- ---- -- --- -------- --- - ----- ------ ---- --<br>-------- --- -------- -------- --- -------- ---- -- ----- -<br>-------- ---- --- ---------- --------- -- ------- ------ -<br>--------- ----- -----,182290.5,182287.40000000596,181962.836,181969.69999998808,181979.547,182297.056,,15,a
screen,html.Screen,2_3_1_0_1_16,2022-02-04T11:39:56.228Z,,,,,,,,,,,,,,,,,15,,,,,,,,,,,,,,363.34400000594906,,response,,,,7,C,,,,,,Space,keypress(Space),,,,instrumental,,,,---- --------- ---------- - --- ------- -- --- ------------<br>----- -- -------- ------- ---- ------ - subpoena ---- -----<br>--- ------- ---- -- --- -------- --- - ----- ------ ---- --<br>-------- --- -------- -------- --- -------- ---- -- ----- -<br>-------- ---- --- ---------- --------- -- ------- ------ -<br>--------- ----- -----,182663.59999999404,182660.40000000596,182280.345,182290.69999998808,182297.056,182664.698,,16,subpoena
screen,html.Screen,2_3_1_0_1_17,2022-02-04T11:39:56.758Z,,,,,,,,,,,,,,,,,15,,,,,,,,,,,,,,525.5019999880751,,response,,,,7,C,,,,,,Space,keypress(Space),,,,instrumental,,,,---- --------- ---------- - --- ------- -- --- ------------<br>----- -- -------- ------- ---- ------ - -------- last -----<br>--- ------- ---- -- --- -------- --- - ----- ------ ---- --<br>-------- --- -------- -------- --- -------- ---- -- ----- -<br>-------- ---- --- ---------- --------- -- ------- ------ -<br>--------- ----- -----,183193.5,183190.19999998808,182647.987,182663.69999998808,182664.698,183199.45,,17,last
screen,html.Screen,2_3_1_0_1_18,2022-02-04T11:39:57.236Z,,,,,,,,,,,,,,,,,15,,,,,,,,,,,,,,468.6499999940279,,response,,,,7,C,,,,,,Space,keypress(Space),,,,instrumental,,,,---- --------- ---------- - --- ------- -- --- ------------<br>----- -- -------- ------- ---- ------ - -------- ---- week.<br>--- ------- ---- -- --- -------- --- - ----- ------ ---- --<br>-------- --- -------- -------- --- -------- ---- -- ----- -<br>-------- ---- --- ---------- --------- -- ------- ------ -<br>--------- ----- -----,183671.40000000596,183668.09999999404,183182.739,183193.59999999404,183199.45,183684.069,,18,week.
screen,html.Screen,2_3_1_0_1_19,2022-02-04T11:39:57.775Z,,,,,,,,,,,,,,,,,15,,,,,,,,,,,,,,523.1309999880905,,response,,,,7,C,,,,,,Space,keypress(Space),,,,instrumental,,,,---- --------- ---------- - --- ------- -- --- ------------<br>----- -- -------- ------- ---- ------ - -------- ---- -----<br>His ------- ---- -- --- -------- --- - ----- ------ ---- --<br>-------- --- -------- -------- --- -------- ---- -- ----- -<br>-------- ---- --- ---------- --------- -- ------- ------ -<br>--------- ----- -----,184210.5,184207.19999998808,183667.358,183671.59999999404,183684.069,184218.821,,19,His
screen,html.Screen,2_3_1_0_1_20,2022-02-04T11:39:58.153Z,,,,,,,,,,,,,,,,,15,,,,,,,,,,,,,,366.47900001192465,,response,,,,7,C,,,,,,Space,keypress(Space),,,,instrumental,,,,---- --------- ---------- - --- ------- -- --- ------------<br>----- -- -------- ------- ---- ------ - -------- ---- -----<br>--- lawyers ---- -- --- -------- --- - ----- ------ ---- --<br>-------- --- -------- -------- --- -------- ---- -- ----- -<br>-------- ---- --- ---------- --------- -- ------- ------ -<br>--------- ----- -----,184588.5,184585.30000001192,184202.11,184210.59999999404,184218.821,184603.174,,20,lawyers
screen,html.Screen,2_3_1_0_1_21,2022-02-04T11:39:58.461Z,,,,,,,,,,,,,,,,,15,,,,,,,,,,,,,,289.92599999404047,,response,,,,7,C,,,,,,Space,keypress(Space),,,,instrumental,,,,---- --------- ---------- - --- ------- -- --- ------------<br>----- -- -------- ------- ---- ------ - -------- ---- -----<br>--- ------- said -- --- -------- --- - ----- ------ ---- --<br>-------- --- -------- -------- --- -------- ---- -- ----- -<br>-------- ---- --- ---------- --------- -- ------- ------ -<br>--------- ----- -----,184896.19999998808,184893.09999999404,184586.463,184588.69999998808,184603.174,184903.972,,21,said
screen,html.Screen,2_3_1_0_1_22,2022-02-04T11:39:58.750Z,,,,,,,,,,,,,,,,,15,,,,,,,,,,,,,,278.2279999880702,,response,,,,7,C,,,,,,Space,keypress(Space),,,,instrumental,,,,---- --------- ---------- - --- ------- -- --- ------------<br>----- -- -------- ------- ---- ------ - -------- ---- -----<br>--- ------- ---- he --- -------- --- - ----- ------ ---- --<br>-------- --- -------- -------- --- -------- ---- -- ----- -<br>-------- ---- --- ---------- --------- -- ------- ------ -<br>--------- ----- -----,185185.59999999404,185182.19999998808,184887.261,184896.40000000596,184903.972,185188.059,,22,he
screen,html.Screen,2_3_1_0_1_23,2022-02-04T11:39:59.055Z,,,,,,,,,,,,,,,,,15,,,,,,,,,,,,,,299.1409999880707,,response,,,,7,C,,,,,,Space,keypress(Space),,,,instrumental,,,,---- --------- ---------- - --- ------- -- --- ------------<br>----- -- -------- ------- ---- ------ - -------- ---- -----<br>--- ------- ---- -- was -------- --- - ----- ------ ---- --<br>-------- --- -------- -------- --- -------- ---- -- ----- -<br>-------- ---- --- ---------- --------- -- ------- ------ -<br>--------- ----- -----,185490.59999999404,185487.19999998808,185171.348,185185.69999998808,185188.059,185505.568,,23,was
screen,html.Screen,2_3_1_0_1_24,2022-02-04T11:39:59.350Z,,,,,,,,,,,,,,,,,15,,,,,,,,,,,,,,276.63199998807977,,response,,,,7,C,,,,,,Space,keypress(Space),,,,instrumental,,,,---- --------- ---------- - --- ------- -- --- ------------<br>----- -- -------- ------- ---- ------ - -------- ---- -----<br>--- ------- ---- -- --- prepared --- - ----- ------ ---- --<br>-------- --- -------- -------- --- -------- ---- -- ----- -<br>-------- ---- --- ---------- --------- -- ------- ------ -<br>--------- ----- -----,185785.30000001192,185782.19999998808,185488.857,185490.80000001192,185505.568,185789.655,,24,prepared
screen,html.Screen,2_3_1_0_1_25,2022-02-04T11:39:59.668Z,,,,,,,,,,,,,,,,,15,,,,,,,,,,,,,,310.54499998808024,,response,,,,7,C,,,,,,Space,keypress(Space),,,,instrumental,,,,---- --------- ---------- - --- ------- -- --- ------------<br>----- -- -------- ------- ---- ------ - -------- ---- -----<br>--- ------- ---- -- --- -------- for - ----- ------ ---- --<br>-------- --- -------- -------- --- -------- ---- -- ----- -<br>-------- ---- --- ---------- --------- -- ------- ------ -<br>--------- ----- -----,186103.40000000596,186100.19999998808,185772.944,185785.5,185789.655,186107.164,,25,for
screen,html.Screen,2_3_1_0_1_26,2022-02-04T11:40:00.045Z,,,,,,,,,,,,,,,,,15,,,,,,,,,,,,,,370.0359999880893,,response,,,,7,C,,,,,,Space,keypress(Space),,,,instrumental,,,,---- --------- ---------- - --- ------- -- --- ------------<br>----- -- -------- ------- ---- ------ - -------- ---- -----<br>--- ------- ---- -- --- -------- --- a ----- ------ ---- --<br>-------- --- -------- -------- --- -------- ---- -- ----- -<br>-------- ---- --- ---------- --------- -- ------- ------ -<br>--------- ----- -----,186480.40000000596,186477.19999998808,186090.453,186103.5,186107.164,186491.517,,26,a
screen,html.Screen,2_3_1_0_1_27,2022-02-04T11:40:00.448Z,,,,,,,,,,,,,,,,,15,,,,,,,,,,,,,,388.48300000000745,,response,,,,7,C,,,,,,Space,keypress(Space),,,,instrumental,,,,---- --------- ---------- - --- ------- -- --- ------------<br>----- -- -------- ------- ---- ------ - -------- ---- -----<br>--- ------- ---- -- --- -------- --- - third ------ ---- --<br>-------- --- -------- -------- --- -------- ---- -- ----- -<br>-------- ---- --- ---------- --------- -- ------- ------ -<br>--------- ----- -----,186883.19999998808,186880,186474.806,186480.5,186491.517,186892.581,,27,third
screen,html.Screen,2_3_1_0_1_28,2022-02-04T11:40:00.794Z,,,,,,,,,,,,,,,,,15,,,,,,,,,,,,,,332.51899999403395,,response,,,,7,C,,,,,,Space,keypress(Space),,,,instrumental,,,,---- --------- ---------- - --- ------- -- --- ------------<br>----- -- -------- ------- ---- ------ - -------- ---- -----<br>--- ------- ---- -- --- -------- --- - ----- prison ---- --<br>-------- --- -------- -------- --- -------- ---- -- ----- -<br>-------- ---- --- ---------- --------- -- ------- ------ -<br>--------- ----- -----,187229.19999998808,187225.09999999404,186875.87,186883.30000001192,186892.581,187243.512,,28,prison
screen,html.Screen,2_3_1_0_1_29,2022-02-04T11:40:01.122Z,,,,,,,,,,,,,,,,,15,,,,,,,,,,,,,,310.4880000000121,,response,,,,7,C,,,,,,Space,keypress(Space),,,,instrumental,,,,---- --------- ---------- - --- ------- -- --- ------------<br>----- -- -------- ------- ---- ------ - -------- ---- -----<br>--- ------- ---- -- --- -------- --- - ----- ------ stay --<br>-------- --- -------- -------- --- -------- ---- -- ----- -<br>-------- ---- --- ---------- --------- -- ------- ------ -<br>--------- ----- -----,187557.40000000596,187554,187226.801,187229.40000000596,187243.512,187561.021,,29,stay
screen,html.Screen,2_3_1_0_1_30,2022-02-04T11:40:01.483Z,,,,,,,,,,,,,,,,,15,,,,,,,,,,,,,,353.9789999999921,,response,,,,7,C,,,,,,Space,keypress(Space),,,,instrumental,,,,---- --------- ---------- - --- ------- -- --- ------------<br>----- -- -------- ------- ---- ------ - -------- ---- -----<br>--- ------- ---- -- --- -------- --- - ----- ------ ---- to<br>-------- --- -------- -------- --- -------- ---- -- ----- -<br>-------- ---- --- ---------- --------- -- ------- ------ -<br>--------- ----- -----,187918.40000000596,187915,187544.31,187557.5,187561.021,187928.663,,30,to
screen,html.Screen,2_3_1_0_1_31,2022-02-04T11:40:01.823Z,,,,,,,,,,,,,,,,,15,,,,,,,,,,,,,,325.33699999999953,,response,,,,7,C,,,,,,Space,keypress(Space),,,,instrumental,,,,---- --------- ---------- - --- ------- -- --- ------------<br>----- -- -------- ------- ---- ------ - -------- ---- -----<br>--- ------- ---- -- --- -------- --- - ----- ------ ---- --<br>maintain --- -------- -------- --- -------- ---- -- ----- -<br>-------- ---- --- ---------- --------- -- ------- ------ -<br>--------- ----- -----,188258.09999999404,188254,187911.952,187918.5,187928.663,188262.883,,31,maintain
screen,html.Screen,2_3_1_0_1_32,2022-02-04T11:40:02.150Z,,,,,,,,,,,,,,,,,15,,,,,,,,,,,,,,319.11699999999837,,response,,,,7,C,,,,,,Space,keypress(Space),,,,instrumental,,,,---- --------- ---------- - --- ------- -- --- ------------<br>----- -- -------- ------- ---- ------ - -------- ---- -----<br>--- ------- ---- -- --- -------- --- - ----- ------ ---- --<br>-------- his -------- -------- --- -------- ---- -- ----- -<br>-------- ---- --- ---------- --------- -- ------- ------ -<br>--------- ----- -----,188585.30000001192,188582,188246.172,188258.30000001192,188262.883,188597.103,,32,his
screen,html.Screen,2_3_1_0_1_33,2022-02-04T11:40:02.527Z,,,,,,,,,,,,,,,,,15,,,,,,,,,,,,,,361.79700000595767,,response,,,,7,C,,,,,,Space,keypress(Space),,,,instrumental,,,,---- --------- ---------- - --- ------- -- --- ------------<br>----- -- -------- ------- ---- ------ - -------- ---- -----<br>--- ------- ---- -- --- -------- --- - ----- ------ ---- --<br>-------- --- silence. -------- --- -------- ---- -- ----- -<br>-------- ---- --- ---------- --------- -- ------- ------ -<br>--------- ----- -----,188962.30000001192,188958.90000000596,188580.392,188585.5,188597.103,188964.745,,33,silence.
screen,html.Screen,2_3_1_0_1_34,2022-02-04T11:40:03.142Z,,,,,,,,,,,,,,,,,15,,,,,,,,,,,,,,609.9549999880837,,response,,,,7,C,,,,,,Space,keypress(Space),,,,instrumental,,,,---- --------- ---------- - --- ------- -- --- ------------<br>----- -- -------- ------- ---- ------ - -------- ---- -----<br>--- ------- ---- -- --- -------- --- - ----- ------ ---- --<br>-------- --- -------- Anderson --- -------- ---- -- ----- -<br>-------- ---- --- ---------- --------- -- ------- ------ -<br>--------- ----- -----,189577.5,189574.69999998808,188948.034,188962.40000000596,188964.745,189583.052,,34,Anderson
screen,html.Screen,2_3_1_0_1_35,2022-02-04T11:40:03.517Z,,,,,,,,,,,,,,,,,15,,,,,,,,,,,,,,366.0479999940435,,response,,,,7,C,,,,,,Space,keypress(Space),,,,instrumental,,,,---- --------- ---------- - --- ------- -- --- ------------<br>----- -- -------- ------- ---- ------ - -------- ---- -----<br>--- ------- ---- -- --- -------- --- - ----- ------ ---- --<br>-------- --- -------- -------- was -------- ---- -- ----- -<br>-------- ---- --- ---------- --------- -- ------- ------ -<br>--------- ----- -----,189952.30000001192,189949.09999999404,189566.341,189577.59999999404,189583.052,189967.405,,35,was
screen,html.Screen,2_3_1_0_1_36,2022-02-04T11:40:03.829Z,,,,,,,,,,,,,,,,,15,,,,,,,,,,,,,,293.3950000119221,,response,,,,7,C,,,,,,Space,keypress(Space),,,,instrumental,,,,---- --------- ---------- - --- ------- -- --- ------------<br>----- -- -------- ------- ---- ------ - -------- ---- -----<br>--- ------- ---- -- --- -------- --- - ----- ------ ---- --<br>-------- --- -------- -------- --- released ---- -- ----- -<br>-------- ---- --- ---------- --------- -- ------- ------ -<br>--------- ----- -----,190264.80000001192,190260.80000001192,189950.694,189952.40000000596,189967.405,190268.376,,36,released
screen,html.Screen,2_3_1_0_1_37,2022-02-04T11:40:04.191Z,,,,,,,,,,,,,,,,,15,,,,,,,,,,,,,,354.3239999880898,,response,,,,7,C,,,,,,Space,keypress(Space),,,,instrumental,,,,---- --------- ---------- - --- ------- -- --- ------------<br>----- -- -------- ------- ---- ------ - -------- ---- -----<br>--- ------- ---- -- --- -------- --- - ----- ------ ---- --<br>-------- --- -------- -------- --- -------- July -- ----- -<br>-------- ---- --- ---------- --------- -- ------- ------ -<br>--------- ----- -----,190625.90000000596,190622.69999998808,190251.665,190264.90000000596,190268.376,190636.018,,37,July
screen,html.Screen,2_3_1_0_1_38,2022-02-04T11:40:04.600Z,,,,,,,,,,,,,,,,,15,,,,,,,,,,,,,,395.78200001191,,response,,,,7,C,,,,,,Space,keypress(Space),,,,instrumental,,,,---- --------- ---------- - --- ------- -- --- ------------<br>----- -- -------- ------- ---- ------ - -------- ---- -----<br>--- ------- ---- -- --- -------- --- - ----- ------ ---- --<br>-------- --- -------- -------- --- -------- ---- 20 ----- -<br>-------- ---- --- ---------- --------- -- ------- ------ -<br>--------- ----- -----,191035,191031.80000001192,190619.307,190626,190636.018,191037.082,,38,20
screen,html.Screen,2_3_1_0_1_39,2022-02-04T11:40:05.415Z,,,,,,,,,,,,,,,,,15,,,,,,,,,,,,,,809.718000011926,,response,,,,7,C,,,,,,Space,keypress(Space),,,,instrumental,,,,---- --------- ---------- - --- ------- -- --- ------------<br>----- -- -------- ------- ---- ------ - -------- ---- -----<br>--- ------- ---- -- --- -------- --- - ----- ------ ---- --<br>-------- --- -------- -------- --- -------- ---- -- after -<br>-------- ---- --- ---------- --------- -- ------- ------ -<br>--------- ----- -----,191850.30000001192,191846.80000001192,191020.371,191035.09999999404,191037.082,191855.921,,39,after
screen,html.Screen,2_3_1_0_1_40,2022-02-04T11:40:05.831Z,,,,,,,,,,,,,,,,,15,,,,,,,,,,,,,,406.778999988077,,response,,,,7,C,,,,,,Space,keypress(Space),,,,instrumental,,,,---- --------- ---------- - --- ------- -- --- ------------<br>----- -- -------- ------- ---- ------ - -------- ---- -----<br>--- ------- ---- -- --- -------- --- - ----- ------ ---- --<br>-------- --- -------- -------- --- -------- ---- -- ----- a<br>-------- ---- --- ---------- --------- -- ------- ------ -<br>--------- ----- -----,192265.90000000596,192262.69999998808,191839.21,191850.40000000596,191855.921,192273.696,,40,a
