sender,sender_type,sender_id,timestamp,meta,,Blues,Classical,Country,Dance,Electronic,Folk,Gospel,Hip-Hop,Jazz,Latin,Musical/Film,New-age,Pop,Prolific_id,Provo_ID,R&B,Rap,Reggae,Religious,Rock,Soul,Swing,Traditional,age,artist_name,correct,correctResponse,distraction,duration,education,ended_on,familiarity,gender,headphone_check_performance,item,list,music_frequency,offensiveness,pleasantness,position_correct,preference,response,response_action,snippet_file,song_name,song_rating,sound,stimulus_1,stimulus_2,stimulus_3,text,time_commit,time_end,time_render,time_run,time_show,time_switch,url,word,word_ID
Prolific ID,html.Form,0,2022-02-15T14:08:00.325Z,"{""labjs_version"":""20.2.2"",""labjs_build"":{""flavor"":""production"",""commit"":""a25486e0c714a0ae2ce03ff94b7bb6896854dcfa""},""location"":""https://run.pavlovia.org/mvasilev/prolific2_music_f/"",""userAgent"":""Mozilla/5.0 (Windows NT 10.0; Win64; x64) AppleWebKit/537.36 (KHTML, like Gecko) Chrome/98.0.4758.82 Safari/537.36"",""platform"":""Win32"",""language"":""en-US"",""locale"":""en-US"",""timeZone"":""Europe/London"",""timezoneOffset"":0,""screen_width"":1366,""screen_height"":768,""scroll_width"":1366,""scroll_height"":577,""window_innerWidth"":1366,""window_innerHeight"":625,""devicePixelRatio"":1}",,,,,,,,,,,,,,,5f6091647826e603c6451677,,,,,,,,,,,,,,,8911.07300001192,,form submission,,,,,,,,,,,,,,,,,,,,,17991.5,17990.80000001192,9063.356,9064.199999988079,9079.727,17994.96,{},,
Introduction,html.Screen,1_0,2022-02-15T14:08:05.940Z,,,,,,,,,,,,,,,,,,,,,,,,,,,,,,,5609.23999998808,,response,,,,,,,,,,,continue,click button,,,,,,,,,23606.599999964237,23604.19999998808,17978.355,17991.899999976158,17994.96,23610.747,,,
Volume calibration,html.Screen,1_1,2022-02-15T14:10:39.867Z,,,,,,,,,,,,,,,,,,,,,,,,,,,,,,,153919.15299997616,,response,,,,,,,,,,,continue,click button,,,,,,,,,177533.09999996424,177529.89999997616,23594.221,23606.80000001192,23610.747,177535.407,,,
Task instructions,html.Screen,1_2,2022-02-15T14:11:10.354Z,,,,,,,,,,,,,,,,,,,,,,,,,,,,,,,30483.99299997615,,response,,,,,,,,,,,continue,click button,,,,,,,,,208020.19999998808,208019.39999997616,177518.788,177533.30000001192,177535.407,208030.575,,,
Sounds,html.Screen,1_3_0_0,2022-02-15T14:11:14.599Z,,,,,,,,,,,,,,,,,,,,,,,,,,,,,,,4249.178999999975,,timeout,,,,,,,,,2,,,,,,,,I,S,O,,212265.19999998808,212263.062,208013.82,208020.39999997616,208030.575,212279.754,,,
Judgement,html.Screen,1_3_0_1,2022-02-15T14:11:16.460Z,,,,,,,,,,,,,,,,,,,,,,,,,,,,true,2,,1846.0460000119347,,response,,,,,,,,,2,,2,click #choice-2,,,,,I,S,O,,214126.69999998808,214125.80000001192,212263.062,212265.30000001192,212279.754,214129.406,,,
Trial,flow.Sequence,1_3_0,2022-02-15T14:11:16.461Z,,,,,,,,,,,,,,,,,,,,,,,,,,,,,,,6095.225000011909,,completion,,,,,,,,,2,,,,,,,,I,S,O,,214126.89999997616,214125.80000001192,208013.82,208020.39999997616,208030.575,214129.406,,,
Sounds,html.Screen,1_3_1_0,2022-02-15T14:11:20.696Z,,,,,,,,,,,,,,,,,,,,,,,,,,,,,,,4249.334000000003,,timeout,,,,,,,,,2,,,,,,,,O,S,I,,218362.5,218362.063,214112.788,214127.19999998808,214129.406,218378.74,,,
Judgement,html.Screen,1_3_1_1,2022-02-15T14:11:21.300Z,,,,,,,,,,,,,,,,,,,,,,,,,,,,true,2,,587.1599999761675,,response,,,,,,,,,2,,2,click #choice-2,,,,,O,S,I,,218966.80000001192,218965.89999997616,218362.063,218362.59999996424,218378.74,218978.704,,,
Trial,flow.Sequence,1_3_1,2022-02-15T14:11:21.301Z,,,,,,,,,,,,,,,,,,,,,,,,,,,,,,,4836.49399997617,,completion,,,,,,,,,2,,,,,,,,O,S,I,,218967,218965.89999997616,214112.788,214127.09999996424,214129.406,218978.704,,,
Sounds,html.Screen,1_3_2_0,2022-02-15T14:11:25.546Z,,,,,,,,,,,,,,,,,,,,,,,,,,,,,,,4249.236000000004,,timeout,,,,,,,,,1,,,,,,,,S,I,O,,223212.19999998808,223211.265,218961.988,218967.09999996424,218978.704,223227.94,,,
Judgement,html.Screen,1_3_2_1,2022-02-15T14:11:26.090Z,,,,,,,,,,,,,,,,,,,,,,,,,,,,true,1,,527.7599999880767,,response,,,,,,,,,1,,1,click #choice-1,,,,,S,I,O,,223756.69999998808,223755.69999998808,223211.265,223212.39999997616,223227.94,223761.172,,,
Trial,flow.Sequence,1_3_2,2022-02-15T14:11:26.090Z,,,,,,,,,,,,,,,,,,,,,,,,,,,,,,,4776.995999988081,,completion,,,,,,,,,1,,,,,,,,S,I,O,,223756.89999997616,223755.69999998808,218961.988,218967.09999996424,218978.704,223761.172,,,
Sounds,html.Screen,1_3_3_0,2022-02-15T14:11:30.329Z,,,,,,,,,,,,,,,,,,,,,,,,,,,,,,,4249.52900000001,,timeout,,,,,,,,,3,,,,,,,,I,O,S,,227995.5,227993.846,223744.524,223757.09999996424,223761.172,228010.701,,,
Judgement,html.Screen,1_3_3_1,2022-02-15T14:11:31.370Z,,,,,,,,,,,,,,,,,,,,,,,,,,,,true,3,,1024.8989999642363,,response,,,,,,,,,3,,3,click #choice-3,,,,,I,O,S,,229036.39999997616,229035.59999996424,227993.846,227995.59999996424,228010.701,229043.623,,,
Trial,flow.Sequence,1_3_3,2022-02-15T14:11:31.370Z,,,,,,,,,,,,,,,,,,,,,,,,,,,,,,,5274.427999964246,,completion,,,,,,,,,3,,,,,,,,I,O,S,,229036.59999996424,229035.59999996424,223744.524,223757,223761.172,229043.623,,,
Sounds,html.Screen,1_3_4_0,2022-02-15T14:11:35.612Z,,,,,,,,,,,,,,,,,,,,,,,,,,,,,,,4249.519,,timeout,,,,,,,,,3,,,,,,,,O,I,S,,233278.09999996424,233276.282,229027.218,229036.59999996424,229043.623,233293.142,,,
Judgement,html.Screen,1_3_4_1,2022-02-15T14:11:36.161Z,,,,,,,,,,,,,,,,,,,,,,,,,,,,true,3,,532.8580000000075,,response,,,,,,,,,3,,3,click #choice-3,,,,,O,I,S,,233827.09999996424,233826,233276.282,233278.19999998808,233293.142,233842.897,,,
Trial,flow.Sequence,1_3_4,2022-02-15T14:11:36.161Z,,,,,,,,,,,,,,,,,,,,,,,,,,,,,,,4782.377000000008,,completion,,,,,,,,,3,,,,,,,,O,I,S,,233827.19999998808,233826,229027.218,229036.59999996424,229043.623,233842.897,,,
Sounds,html.Screen,1_3_5_0,2022-02-15T14:11:40.412Z,,,,,,,,,,,,,,,,,,,,,,,,,,,,,,,4249.440999999992,,timeout,,,,,,,,,1,,,,,,,,S,O,I,,238078.09999996424,238075.54,233826.403,233827.39999997616,233842.897,238092.338,,,
Judgement,html.Screen,1_3_5_1,2022-02-15T14:11:41.361Z,,,,,,,,,,,,,,,,,,,,,,,,,,,,true,1,,933.6620000000112,,response,,,,,,,,,1,,1,click #choice-1,,,,,S,O,I,,239026.80000001192,239026,238075.54,238078.30000001192,238092.338,239042.094,,,
Trial,flow.Sequence,1_3_5,2022-02-15T14:11:41.361Z,,,,,,,,,,,,,,,,,,,,,,,,,,,,,,,5183.103000000003,,completion,,,,,,,,,1,,,,,,,,S,O,I,,239027,239026,233826.403,233827.39999997616,233842.897,239042.094,,,
Task,flow.Loop,1_3,2022-02-15T14:11:41.365Z,,,,,,,,,,,,,,,,,,,,,,,,,,,,,,,30995.42499999999,,completion,,,1,,,,,,,,,,,,,,,,,,239031.19999998808,239026,208013.82,208020.30000001192,208030.575,239042.094,,,
Trap,html.Screen,1_4,2022-02-15T14:11:41.366Z,,,,,,,,,,,,,,,,,,,,,,,,,,,,,,,NaN,,skipped,,,,,,,,,,,,,,,,,,,,,239032.30000001192,239026,,239032.19999998808,,239042.094,,,
Thanks,html.Screen,1_5,2022-02-15T14:11:44.781Z,,,,,,,,,,,,,,,,,,,,,,,,,,,,,,,3403.905999999988,,response,,,,,,,,,,,continue,click button,,,,,,,,,242446.69999998808,242446,239025.51,239032.30000001192,239042.094,245157.659,,,
Headphone screening,flow.Sequence,1,2022-02-15T14:11:44.781Z,,,,,,,,,,,,,,,,,,,,,,,,,,,,,,,224451.04,,completion,,,,,,,,,,,,,,,,,,,,,242446.89999997616,242446,17978.355,17991.80000001192,17994.96,245157.659,,,
Instructions,html.Page,2_0,2022-02-15T14:12:14.430Z,,,,,,,,,,,,,,,,,,,,,,,,,,,,,,,26937.440999964223,,form submission,,,,,,,,,,,,,,,,,,,,,272095.39999997616,272095.09999996424,245124.318,245161.80000001192,245157.659,272103.275,,,
Holding screen,html.Screen,2_1_0_0,2022-02-15T14:12:24.420Z,,,,,,,,,,,,,,,,,,,,,,,,,,,,,,,10081.652000000002,,timeout,,,,,,,,,,,,,,,,,,,,,282085.6999999881,282085.157,272086.603,272095.59999996424,272103.275,282184.927,,,
screen,html.Screen,2_1_0_1_0,2022-02-15T14:12:25.945Z,,,,,,,,,,,,,,,,,53,,,,,,,,,,,,,,1423.8730000118958,,response,,,,99,,,,,,,Space,keypress(Space),,,,,,,,When -- ----- -- ------ - ------- --- ----------<br>------------- ------ ------ ---- ---- ------- ----- -- ----<br>-------- ------- -- ---------- --- - --- ----- ----- ----<br>---- --- --- ----- --- ---- ---- ------- ----- ---- -------<br>--- --- -- ----- -- --- ---- -- --- ---- -- ------ ------<br>--- ----- -- ----,283610.89999997616,283608.8000000119,282085.157,282085.8000000119,282184.927,283634.807,,0,When
screen,html.Screen,2_1_0_1_1,2022-02-15T14:12:26.830Z,,,,,,,,,,,,,,,,,53,,,,,,,,,,,,,,860.8929999881075,,response,,,,99,,,,,,,Space,keypress(Space),,,,,,,,---- it ----- -- ------ - ------- --- ----------<br>------------- ------ ------ ---- ---- ------- ----- -- ----<br>-------- ------- -- ---------- --- - --- ----- ----- ----<br>---- --- --- ----- --- ---- ---- ------- ----- ---- -------<br>--- --- -- ----- -- --- ---- -- --- ---- -- ------ ------<br>--- ----- -- ----,284496.09999996424,284495.6999999881,283618.208,283611,283634.807,284501.243,,1,it
screen,html.Screen,2_1_0_1_2,2022-02-15T14:12:27.643Z,,,,,,,,,,,,,,,,,53,,,,,,,,,,,,,,807.1569999761414,,response,,,,99,,,,,,,Space,keypress(Space),,,,,,,,---- -- comes -- ------ - ------- --- ----------<br>------------- ------ ------ ---- ---- ------- ----- -- ----<br>-------- ------- -- ---------- --- - --- ----- ----- ----<br>---- --- --- ----- --- ---- ---- ------- ----- ---- -------<br>--- --- -- ----- -- --- ---- -- --- ---- -- ------ ------<br>--- ----- -- ----,285308.89999997616,285308.39999997616,284484.838,284496.3000000119,284501.243,285317.74,,2,comes
screen,html.Screen,2_1_0_1_3,2022-02-15T14:12:28.361Z,,,,,,,,,,,,,,,,,53,,,,,,,,,,,,,,708.3599999642465,,response,,,,99,,,,,,,Space,keypress(Space),,,,,,,,---- -- ----- to ------ - ------- --- ----------<br>------------- ------ ------ ---- ---- ------- ----- -- ----<br>-------- ------- -- ---------- --- - --- ----- ----- ----<br>---- --- --- ----- --- ---- ---- ------- ----- ---- -------<br>--- --- -- ----- -- --- ---- -- --- ---- -- ------ ------<br>--- ----- -- ----,286026.6999999881,286026.09999996424,285301.284,285309,285317.74,286034.476,,3,to
screen,html.Screen,2_1_0_1_4,2022-02-15T14:12:29.002Z,,,,,,,,,,,,,,,,,53,,,,,,,,,,,,,,633.0239999999758,,response,,,,99,,,,,,,Space,keypress(Space),,,,,,,,---- -- ----- -- having - ------- --- ----------<br>------------- ------ ------ ---- ---- ------- ----- -- ----<br>-------- ------- -- ---------- --- - --- ----- ----- ----<br>---- --- --- ----- --- ---- ---- ------- ----- ---- -------<br>--- --- -- ----- -- --- ---- -- --- ---- -- ------ ------<br>--- ----- -- ----,286668.09999996424,286667.5,286017.878,286026.8000000119,286034.476,286684.297,,4,having
screen,html.Screen,2_1_0_1_5,2022-02-15T14:12:29.539Z,,,,,,,,,,,,,,,,,53,,,,,,,,,,,,,,519.9029999880586,,response,,,,99,,,,,,,Space,keypress(Space),,,,,,,,---- -- ----- -- ------ a ------- --- ----------<br>------------- ------ ------ ---- ---- ------- ----- -- ----<br>-------- ------- -- ---------- --- - --- ----- ----- ----<br>---- --- --- ----- --- ---- ---- ------- ----- ---- -------<br>--- --- -- ----- -- --- ---- -- --- ---- -- ------ ------<br>--- ----- -- ----,287204.59999996424,287204.1999999881,286667.722,286668.09999996424,286684.297,287217.498,,5,a
screen,html.Screen,2_1_0_1_6,2022-02-15T14:12:30.238Z,,,,,,,,,,,,,,,,,53,,,,,,,,,,,,,,685.7019999880577,,response,,,,99,,,,,,,Space,keypress(Space),,,,,,,,---- -- ----- -- ------ - lasting --- ----------<br>------------- ------ ------ ---- ---- ------- ----- -- ----<br>-------- ------- -- ---------- --- - --- ----- ----- ----<br>---- --- --- ----- --- ---- ---- ------- ----- ---- -------<br>--- --- -- ----- -- --- ---- -- --- ---- -- ------ ------<br>--- ----- -- ----,287903.6999999881,287903.1999999881,287200.985,287204.6999999881,287217.498,287917.445,,6,lasting
screen,html.Screen,2_1_0_1_7,2022-02-15T14:12:30.923Z,,,,,,,,,,,,,,,,,53,,,,,,,,,,,,,,671.054999999993,,response,,,,99,,,,,,,Space,keypress(Space),,,,,,,,---- -- ----- -- ------ - ------- and ----------<br>------------- ------ ------ ---- ---- ------- ----- -- ----<br>-------- ------- -- ---------- --- - --- ----- ----- ----<br>---- --- --- ----- --- ---- ---- ------- ----- ---- -------<br>--- --- -- ----- -- --- ---- -- --- ---- -- ------ ------<br>--- ----- -- ----,288589,288588.5,287900.865,287903.8000000119,287917.445,288600.754,,7,and
screen,html.Screen,2_1_0_1_8,2022-02-15T14:12:31.637Z,,,,,,,,,,,,,,,,,53,,,,,,,,,,,,,,701.8459999642218,,response,,,,99,,,,,,,Space,keypress(Space),,,,,,,,---- -- ----- -- ------ - ------- --- fulfilling<br>------------- ------ ------ ---- ---- ------- ----- -- ----<br>-------- ------- -- ---------- --- - --- ----- ----- ----<br>---- --- --- ----- --- ---- ---- ------- ----- ---- -------<br>--- --- -- ----- -- --- ---- -- --- ---- -- ------ ------<br>--- ----- -- ----,289303,289302.59999996424,288584.129,288589.09999996424,288600.754,289317.152,,8,fulfilling
screen,html.Screen,2_1_0_1_9,2022-02-15T14:12:32.562Z,,,,,,,,,,,,,,,,,53,,,,,,,,,,,,,,909.5479999880772,,response,,,,99,,,,,,,Space,keypress(Space),,,,,,,,"---- -- ----- -- ------ - ------- --- ----------<br>relationship, ------ ------ ---- ---- ------- ----- -- ----<br>-------- ------- -- ---------- --- - --- ----- ----- ----<br>---- --- --- ----- --- ---- ---- ------- ----- ---- -------<br>--- --- -- ----- -- --- ---- -- --- ---- -- ------ ------<br>--- ----- -- ----",290227.3000000119,290226.6999999881,289300.472,289303.1999999881,289317.152,290233.592,,9,"relationship,"
screen,html.Screen,2_1_0_1_10,2022-02-15T14:12:33.256Z,,,,,,,,,,,,,,,,,53,,,,,,,,,,,,,,687.1079999880749,,response,,,,99,,,,,,,Space,keypress(Space),,,,,,,,---- -- ----- -- ------ - ------- --- ----------<br>------------- common ------ ---- ---- ------- ----- -- ----<br>-------- ------- -- ---------- --- - --- ----- ----- ----<br>---- --- --- ----- --- ---- ---- ------- ----- ---- -------<br>--- --- -- ----- -- --- ---- -- --- ---- -- ------ ------<br>--- ----- -- ----,290921.39999997616,290920.6999999881,290217.112,290227.39999997616,290233.592,290933.677,,10,common
screen,html.Screen,2_1_0_1_11,2022-02-15T14:12:33.833Z,,,,,,,,,,,,,,,,,53,,,,,,,,,,,,,,564.8229999999749,,response,,,,99,,,,,,,Space,keypress(Space),,,,,,,,---- -- ----- -- ------ - ------- --- ----------<br>------------- ------ wisdom ---- ---- ------- ----- -- ----<br>-------- ------- -- ---------- --- - --- ----- ----- ----<br>---- --- --- ----- --- ---- ---- ------- ----- ---- -------<br>--- --- -- ----- -- --- ---- -- --- ---- -- ------ ------<br>--- ----- -- ----,291499.09999996424,291498.5,290917.065,290921.5,290933.677,291526.403,,11,wisdom
screen,html.Screen,2_1_0_1_12,2022-02-15T14:12:34.493Z,,,,,,,,,,,,,,,,,53,,,,,,,,,,,,,,631.8970000119298,,response,,,,99,,,,,,,Space,keypress(Space),,,,,,,,---- -- ----- -- ------ - ------- --- ----------<br>------------- ------ ------ says ---- ------- ----- -- ----<br>-------- ------- -- ---------- --- - --- ----- ----- ----<br>---- --- --- ----- --- ---- ---- ------- ----- ---- -------<br>--- --- -- ----- -- --- ---- -- --- ---- -- ------ ------<br>--- ----- -- ----,292158.89999997616,292158.3000000119,291483.654,291499.09999996424,291526.403,292166.791,,12,says
screen,html.Screen,2_1_0_1_13,2022-02-15T14:12:35.141Z,,,,,,,,,,,,,,,,,53,,,,,,,,,,,,,,639.1089999761316,,response,,,,99,,,,,,,Space,keypress(Space),,,,,,,,---- -- ----- -- ------ - ------- --- ----------<br>------------- ------ ------ ---- that ------- ----- -- ----<br>-------- ------- -- ---------- --- - --- ----- ----- ----<br>---- --- --- ----- --- ---- ---- ------- ----- ---- -------<br>--- --- -- ----- -- --- ---- -- --- ---- -- ------ ------<br>--- ----- -- ----,292806.39999997616,292805.89999997616,292150.062,292159,292166.791,292816.549,,13,that
screen,html.Screen,2_1_0_1_14,2022-02-15T14:12:35.734Z,,,,,,,,,,,,,,,,,53,,,,,,,,,,,,,,583.0509999642381,,response,,,,99,,,,,,,Space,keypress(Space),,,,,,,,---- -- ----- -- ------ - ------- --- ----------<br>------------- ------ ------ ---- ---- feeling ----- -- ----<br>-------- ------- -- ---------- --- - --- ----- ----- ----<br>---- --- --- ----- --- ---- ---- ------- ----- ---- -------<br>--- --- -- ----- -- --- ---- -- --- ---- -- ------ ------<br>--- ----- -- ----,293400,293399.59999996424,292800.03,292806.5,292816.549,293416.43,,14,feeling
screen,html.Screen,2_1_0_1_15,2022-02-15T14:12:36.365Z,,,,,,,,,,,,,,,,,53,,,,,,,,,,,,,,614.1699999642442,,response,,,,99,,,,,,,Space,keypress(Space),,,,,,,,---- -- ----- -- ------ - ------- --- ----------<br>------------- ------ ------ ---- ---- ------- close -- ----<br>-------- ------- -- ---------- --- - --- ----- ----- ----<br>---- --- --- ----- --- ---- ---- ------- ----- ---- -------<br>--- --- -- ----- -- --- ---- -- --- ---- -- ------ ------<br>--- ----- -- ----,294031.09999996424,294030.59999996424,293399.96,293400.09999996424,293416.43,294032.997,,15,close
screen,html.Screen,2_1_0_1_16,2022-02-15T14:12:36.931Z,,,,,,,,,,,,,,,,,53,,,,,,,,,,,,,,563.2029999881051,,response,,,,99,,,,,,,Space,keypress(Space),,,,,,,,---- -- ----- -- ------ - ------- --- ----------<br>------------- ------ ------ ---- ---- ------- ----- to ----<br>-------- ------- -- ---------- --- - --- ----- ----- ----<br>---- --- --- ----- --- ---- ---- ------- ----- ---- -------<br>--- --- -- ----- -- --- ---- -- --- ---- -- ------ ------<br>--- ----- -- ----,294596.89999997616,294596.1999999881,294016.506,294031.1999999881,294032.997,294599.555,,16,to
screen,html.Screen,2_1_0_1_17,2022-02-15T14:12:37.659Z,,,,,,,,,,,,,,,,,53,,,,,,,,,,,,,,724.644999988086,,response,,,,99,,,,,,,Space,keypress(Space),,,,,,,,---- -- ----- -- ------ - ------- --- ----------<br>------------- ------ ------ ---- ---- ------- ----- -- your<br>-------- ------- -- ---------- --- - --- ----- ----- ----<br>---- --- --- ----- --- ---- ---- ------- ----- ---- -------<br>--- --- -- ----- -- --- ---- -- --- ---- -- ------ ------<br>--- ----- -- ----,295324.8000000119,295324.1999999881,294583.088,294596.89999997616,294599.555,295332.94,,17,your
screen,html.Screen,2_1_0_1_18,2022-02-15T14:12:38.290Z,,,,,,,,,,,,,,,,,53,,,,,,,,,,,,,,622.2599999880767,,response,,,,99,,,,,,,Space,keypress(Space),,,,,,,,---- -- ----- -- ------ - ------- --- ----------<br>------------- ------ ------ ---- ---- ------- ----- -- ----<br>romantic ------- -- ---------- --- - --- ----- ----- ----<br>---- --- --- ----- --- ---- ---- ------- ----- ---- -------<br>--- --- -- ----- -- --- ---- -- --- ---- -- ------ ------<br>--- ----- -- ----,295955.8000000119,295955.1999999881,295316.298,295324.8000000119,295332.94,295966.066,,18,romantic
screen,html.Screen,2_1_0_1_19,2022-02-15T14:12:38.867Z,,,,,,,,,,,,,,,,,53,,,,,,,,,,,,,,565.5339999642456,,response,,,,99,,,,,,,Space,keypress(Space),,,,,,,,---- -- ----- -- ------ - ------- --- ----------<br>------------- ------ ------ ---- ---- ------- ----- -- ----<br>-------- partner -- ---------- --- - --- ----- ----- ----<br>---- --- --- ----- --- ---- ---- ------- ----- ---- -------<br>--- --- -- ----- -- --- ---- -- --- ---- -- ------ ------<br>--- ----- -- ----,296532.09999996424,296531.59999996424,295949.501,295955.89999997616,295966.066,296549.415,,19,partner
screen,html.Screen,2_1_0_1_20,2022-02-15T14:12:39.363Z,,,,,,,,,,,,,,,,,53,,,,,,,,,,,,,,478.8850000119419,,response,,,,99,,,,,,,Space,keypress(Space),,,,,,,,---- -- ----- -- ------ - ------- --- ----------<br>------------- ------ ------ ---- ---- ------- ----- -- ----<br>-------- ------- is ---------- --- - --- ----- ----- ----<br>---- --- --- ----- --- ---- ---- ------- ----- ---- -------<br>--- --- -- ----- -- --- ---- -- --- ---- -- ------ ------<br>--- ----- -- ----,297028.8000000119,297028.3000000119,296516.156,296532.3000000119,296549.415,297032.49,,20,is
screen,html.Screen,2_1_0_1_21,2022-02-15T14:12:39.934Z,,,,,,,,,,,,,,,,,53,,,,,,,,,,,,,,566.7099999880884,,response,,,,99,,,,,,,Space,keypress(Space),,,,,,,,---- -- ----- -- ------ - ------- --- ----------<br>------------- ------ ------ ---- ---- ------- ----- -- ----<br>-------- ------- -- paramount. --- - --- ----- ----- ----<br>---- --- --- ----- --- ---- ---- ------- ----- ---- -------<br>--- --- -- ----- -- --- ---- -- --- ---- -- ------ ------<br>--- ----- -- ----,297599.6999999881,297599.1999999881,297016.077,297028.89999997616,297032.49,297615.806,,21,paramount.
screen,html.Screen,2_1_0_1_22,2022-02-15T14:12:40.575Z,,,,,,,,,,,,,,,,,53,,,,,,,,,,,,,,624.3939999880968,,response,,,,99,,,,,,,Space,keypress(Space),,,,,,,,---- -- ----- -- ------ - ------- --- ----------<br>------------- ------ ------ ---- ---- ------- ----- -- ----<br>-------- ------- -- ---------- But - --- ----- ----- ----<br>---- --- --- ----- --- ---- ---- ------- ----- ---- -------<br>--- --- -- ----- -- --- ---- -- --- ---- -- ------ ------<br>--- ----- -- ----,298240.6999999881,298240.1999999881,297599.071,297599.8000000119,297615.806,298249.161,,22,But
screen,html.Screen,2_1_0_1_23,2022-02-15T14:12:40.991Z,,,,,,,,,,,,,,,,,53,,,,,,,,,,,,,,407.0389999880572,,response,,,,99,,,,,,,Space,keypress(Space),,,,,,,,---- -- ----- -- ------ - ------- --- ----------<br>------------- ------ ------ ---- ---- ------- ----- -- ----<br>-------- ------- -- ---------- --- a --- ----- ----- ----<br>---- --- --- ----- --- ---- ---- ------- ----- ---- -------<br>--- --- -- ----- -- --- ---- -- --- ---- -- ------ ------<br>--- ----- -- ----,298656.8000000119,298656.1999999881,298232.561,298240.8000000119,298249.161,298665.776,,23,a
screen,html.Screen,2_1_0_1_24,2022-02-15T14:12:41.562Z,,,,,,,,,,,,,,,,,53,,,,,,,,,,,,,,561.6239999761456,,response,,,,99,,,,,,,Space,keypress(Space),,,,,,,,---- -- ----- -- ------ - ------- --- ----------<br>------------- ------ ------ ---- ---- ------- ----- -- ----<br>-------- ------- -- ---------- --- - new ----- ----- ----<br>---- --- --- ----- --- ---- ---- ------- ----- ---- -------<br>--- --- -- ----- -- --- ---- -- --- ---- -- ------ ------<br>--- ----- -- ----,299228,299227.39999997616,298649.055,298656.89999997616,298665.776,299232.181,,24,new
screen,html.Screen,2_1_0_1_25,2022-02-15T14:12:42.111Z,,,,,,,,,,,,,,,,,53,,,,,,,,,,,,,,544.0189999880968,,response,,,,99,,,,,,,Space,keypress(Space),,,,,,,,---- -- ----- -- ------ - ------- --- ----------<br>------------- ------ ------ ---- ---- ------- ----- -- ----<br>-------- ------- -- ---------- --- - --- study ----- ----<br>---- --- --- ----- --- ---- ---- ------- ----- ---- -------<br>--- --- -- ----- -- --- ---- -- --- ---- -- ------ ------<br>--- ----- -- ----,299776.6999999881,299776.1999999881,299215.605,299228,299232.181,299782.083,,25,study
screen,html.Screen,2_1_0_1_26,2022-02-15T14:12:42.683Z,,,,,,,,,,,,,,,,,53,,,,,,,,,,,,,,566.2170000119368,,response,,,,99,,,,,,,Space,keypress(Space),,,,,,,,---- -- ----- -- ------ - ------- --- ----------<br>------------- ------ ------ ---- ---- ------- ----- -- ----<br>-------- ------- -- ---------- --- - --- ----- finds ----<br>---- --- --- ----- --- ---- ---- ------- ----- ---- -------<br>--- --- -- ----- -- --- ---- -- --- ---- -- ------ ------<br>--- ----- -- ----,300348.8000000119,300348.3000000119,299765.623,299776.8000000119,299782.083,300365.293,,26,finds
screen,html.Screen,2_1_0_1_27,2022-02-15T14:12:43.256Z,,,,,,,,,,,,,,,,,53,,,,,,,,,,,,,,555.606999976153,,response,,,,99,,,,,,,Space,keypress(Space),,,,,,,,---- -- ----- -- ------ - ------- --- ----------<br>------------- ------ ------ ---- ---- ------- ----- -- ----<br>-------- ------- -- ---------- --- - --- ----- ----- that<br>---- --- --- ----- --- ---- ---- ------- ----- ---- -------<br>--- --- -- ----- -- --- ---- -- --- ---- -- ------ ------<br>--- ----- -- ----,300921.5,300920.89999997616,300348.659,300348.89999997616,300365.293,300931.966,,27,that
screen,html.Screen,2_1_0_1_28,2022-02-15T14:12:43.749Z,,,,,,,,,,,,,,,,,53,,,,,,,,,,,,,,482.23399998806417,,response,,,,99,,,,,,,Space,keypress(Space),,,,,,,,---- -- ----- -- ------ - ------- --- ----------<br>------------- ------ ------ ---- ---- ------- ----- -- ----<br>-------- ------- -- ---------- --- - --- ----- ----- ----<br>it's --- --- ----- --- ---- ---- ------- ----- ---- -------<br>--- --- -- ----- -- --- ---- -- --- ---- -- ------ ------<br>--- ----- -- ----,301414.8000000119,301414.1999999881,300915.407,300921.59999996424,300931.966,301431.903,,28,it's
screen,html.Screen,2_1_0_1_29,2022-02-15T14:12:44.326Z,,,,,,,,,,,,,,,,,53,,,,,,,,,,,,,,559.2969999880879,,response,,,,99,,,,,,,Space,keypress(Space),,,,,,,,---- -- ----- -- ------ - ------- --- ----------<br>------------- ------ ------ ---- ---- ------- ----- -- ----<br>-------- ------- -- ---------- --- - --- ----- ----- ----<br>---- not --- ----- --- ---- ---- ------- ----- ---- -------<br>--- --- -- ----- -- --- ---- -- --- ---- -- ------ ------<br>--- ----- -- ----,301991.59999996424,301991.1999999881,301415.262,301414.8000000119,301431.903,301998.473,,29,not
screen,html.Screen,2_1_0_1_30,2022-02-15T14:12:44.803Z,,,,,,,,,,,,,,,,,53,,,,,,,,,,,,,,469.6269999642391,,response,,,,99,,,,,,,Space,keypress(Space),,,,,,,,---- -- ----- -- ------ - ------- --- ----------<br>------------- ------ ------ ---- ---- ------- ----- -- ----<br>-------- ------- -- ---------- --- - --- ----- ----- ----<br>---- --- how ----- --- ---- ---- ------- ----- ---- -------<br>--- --- -- ----- -- --- ---- -- --- ---- -- ------ ------<br>--- ----- -- ----,302468.6999999881,302468.09999996424,301981.939,301991.8000000119,301998.473,302481.59,,30,how
screen,html.Screen,2_1_0_1_31,2022-02-15T14:12:45.290Z,,,,,,,,,,,,,,,,,53,,,,,,,,,,,,,,473.9099999999744,,response,,,,99,,,,,,,Space,keypress(Space),,,,,,,,---- -- ----- -- ------ - ------- --- ----------<br>------------- ------ ------ ---- ---- ------- ----- -- ----<br>-------- ------- -- ---------- --- - --- ----- ----- ----<br>---- --- --- close --- ---- ---- ------- ----- ---- -------<br>--- --- -- ----- -- --- ---- -- --- ---- -- ------ ------<br>--- ----- -- ----,302956,302955.5,302465.095,302468.8000000119,302481.59,302965.004,,31,close
screen,html.Screen,2_1_0_1_32,2022-02-15T14:12:45.873Z,,,,,,,,,,,,,,,,,53,,,,,,,,,,,,,,572.8959999761428,,response,,,,99,,,,,,,Space,keypress(Space),,,,,,,,---- -- ----- -- ------ - ------- --- ----------<br>------------- ------ ------ ---- ---- ------- ----- -- ----<br>-------- ------- -- ---------- --- - --- ----- ----- ----<br>---- --- --- ----- you ---- ---- ------- ----- ---- -------<br>--- --- -- ----- -- --- ---- -- --- ---- -- ------ ------<br>--- ----- -- ----,303538.39999997616,303537.89999997616,302948.261,302956.1999999881,302965.004,303548.218,,32,you
screen,html.Screen,2_1_0_1_33,2022-02-15T14:12:46.389Z,,,,,,,,,,,,,,,,,53,,,,,,,,,,,,,,505.38199996424373,,response,,,,99,,,,,,,Space,keypress(Space),,,,,,,,---- -- ----- -- ------ - ------- --- ----------<br>------------- ------ ------ ---- ---- ------- ----- -- ----<br>-------- ------- -- ---------- --- - --- ----- ----- ----<br>---- --- --- ----- --- feel ---- ------- ----- ---- -------<br>--- --- -- ----- -- --- ---- -- --- ---- -- ------ ------<br>--- ----- -- ----,304054.09999996424,304053.59999996424,303531.468,303538.5,303548.218,304064.881,,33,feel
screen,html.Screen,2_1_0_1_34,2022-02-15T14:12:46.918Z,,,,,,,,,,,,,,,,,53,,,,,,,,,,,,,,518.2189999642433,,response,,,,99,,,,,,,Space,keypress(Space),,,,,,,,---- -- ----- -- ------ - ------- --- ----------<br>------------- ------ ------ ---- ---- ------- ----- -- ----<br>-------- ------- -- ---------- --- - --- ----- ----- ----<br>---- --- --- ----- --- ---- that ------- ----- ---- -------<br>--- --- -- ----- -- --- ---- -- --- ---- -- ------ ------<br>--- ----- -- ----,304583.59999996424,304583.09999996424,304048.288,304054.3000000119,304064.881,304598.008,,34,that
screen,html.Screen,2_1_0_1_35,2022-02-15T14:12:47.494Z,,,,,,,,,,,,,,,,,53,,,,,,,,,,,,,,560.9920000000275,,response,,,,99,,,,,,,Space,keypress(Space),,,,,,,,---- -- ----- -- ------ - ------- --- ----------<br>------------- ------ ------ ---- ---- ------- ----- -- ----<br>-------- ------- -- ---------- --- - --- ----- ----- ----<br>---- --- --- ----- --- ---- ---- matters ----- ---- -------<br>--- --- -- ----- -- --- ---- -- --- ---- -- ------ ------<br>--- ----- -- ----,305159.59999996424,305159,304581.285,304583.6999999881,304598.008,305164.633,,35,matters
screen,html.Screen,2_1_0_1_36,2022-02-15T14:12:48.128Z,,,,,,,,,,,,,,,,,53,,,,,,,,,,,,,,628.2669999761856,,response,,,,99,,,,,,,Space,keypress(Space),,,,,,,,"---- -- ----- -- ------ - ------- --- ----------<br>------------- ------ ------ ---- ---- ------- ----- -- ----<br>-------- ------- -- ---------- --- - --- ----- ----- ----<br>---- --- --- ----- --- ---- ---- ------- most, ---- -------<br>--- --- -- ----- -- --- ---- -- --- ---- -- ------ ------<br>--- ----- -- ----",305793.59999996424,305792.89999997616,305148.097,305159.6999999881,305164.633,305797.772,,36,"most,"
screen,html.Screen,2_1_0_1_37,2022-02-15T14:12:48.668Z,,,,,,,,,,,,,,,,,53,,,,,,,,,,,,,,535.4279999880819,,response,,,,99,,,,,,,Space,keypress(Space),,,,,,,,---- -- ----- -- ------ - ------- --- ----------<br>------------- ------ ------ ---- ---- ------- ----- -- ----<br>-------- ------- -- ---------- --- - --- ----- ----- ----<br>---- --- --- ----- --- ---- ---- ------- ----- it's -------<br>--- --- -- ----- -- --- ---- -- --- ---- -- ------ ------<br>--- ----- -- ----,306333.8000000119,306333.1999999881,305781.063,305793.8000000119,305797.772,306347.773,,37,it's
screen,html.Screen,2_1_0_1_38,2022-02-15T14:12:49.221Z,,,,,,,,,,,,,,,,,53,,,,,,,,,,,,,,538.7270000000135,,response,,,,99,,,,,,,Space,keypress(Space),,,,,,,,---- -- ----- -- ------ - ------- --- ----------<br>------------- ------ ------ ---- ---- ------- ----- -- ----<br>-------- ------- -- ---------- --- - --- ----- ----- ----<br>---- --- --- ----- --- ---- ---- ------- ----- ---- whether<br>--- --- -- ----- -- --- ---- -- --- ---- -- ------ ------<br>--- ----- -- ----,306887,306886.5,306331.213,306333.89999997616,306347.773,306897.526,,38,whether
screen,html.Screen,2_1_0_1_39,2022-02-15T14:12:49.718Z,,,,,,,,,,,,,,,,,53,,,,,,,,,,,,,,485.57399996422464,,response,,,,99,,,,,,,Space,keypress(Space),,,,,,,,---- -- ----- -- ------ - ------- --- ----------<br>------------- ------ ------ ---- ---- ------- ----- -- ----<br>-------- ------- -- ---------- --- - --- ----- ----- ----<br>---- --- --- ----- --- ---- ---- ------- ----- ---- -------<br>you --- -- ----- -- --- ---- -- --- ---- -- ------ ------<br>--- ----- -- ----,307383.5,307383.09999996424,306881.064,306887.1999999881,306897.526,307397.459,,39,you
screen,html.Screen,2_1_0_1_40,2022-02-15T14:12:50.161Z,,,,,,,,,,,,,,,,,53,,,,,,,,,,,,,,428.7409999881056,,response,,,,99,,,,,,,Space,keypress(Space),,,,,,,,---- -- ----- -- ------ - ------- --- ----------<br>------------- ------ ------ ---- ---- ------- ----- -- ----<br>-------- ------- -- ---------- --- - --- ----- ----- ----<br>---- --- --- ----- --- ---- ---- ------- ----- ---- -------<br>--- are -- ----- -- --- ---- -- --- ---- -- ------ ------<br>--- ----- -- ----,307826.6999999881,307826.1999999881,307380.901,307383.6999999881,307397.459,307830.688,,40,are
screen,html.Screen,2_1_0_1_41,2022-02-15T14:12:50.709Z,,,,,,,,,,,,,,,,,53,,,,,,,,,,,,,,543.5119999880553,,response,,,,99,,,,,,,Space,keypress(Space),,,,,,,,---- -- ----- -- ------ - ------- --- ----------<br>------------- ------ ------ ---- ---- ------- ----- -- ----<br>-------- ------- -- ---------- --- - --- ----- ----- ----<br>---- --- --- ----- --- ---- ---- ------- ----- ---- -------<br>--- --- as ----- -- --- ---- -- --- ---- -- ------ ------<br>--- ----- -- ----,308374.6999999881,308374.1999999881,307814.298,307826.8000000119,307830.688,308380.771,,41,as
screen,html.Screen,2_1_0_1_42,2022-02-15T14:12:51.217Z,,,,,,,,,,,,,,,,,53,,,,,,,,,,,,,,501.029000011913,,response,,,,99,,,,,,,Space,keypress(Space),,,,,,,,---- -- ----- -- ------ - ------- --- ----------<br>------------- ------ ------ ---- ---- ------- ----- -- ----<br>-------- ------- -- ---------- --- - --- ----- ----- ----<br>---- --- --- ----- --- ---- ---- ------- ----- ---- -------<br>--- --- -- close -- --- ---- -- --- ---- -- ------ ------<br>--- ----- -- ----,308882.3000000119,308881.8000000119,308364.125,308374.8000000119,308380.771,308897.334,,42,close
screen,html.Screen,2_1_0_1_43,2022-02-15T14:12:51.677Z,,,,,,,,,,,,,,,,,53,,,,,,,,,,,,,,444.76599996426376,,response,,,,99,,,,,,,Space,keypress(Space),,,,,,,,---- -- ----- -- ------ - ------- --- ----------<br>------------- ------ ------ ---- ---- ------- ----- -- ----<br>-------- ------- -- ---------- --- - --- ----- ----- ----<br>---- --- --- ----- --- ---- ---- ------- ----- ---- -------<br>--- --- -- ----- as --- ---- -- --- ---- -- ------ ------<br>--- ----- -- ----,309342.6999999881,309342.09999996424,308880.765,308882.39999997616,308897.334,309347.205,,43,as
screen,html.Screen,2_1_0_1_44,2022-02-15T14:12:52.171Z,,,,,,,,,,,,,,,,,53,,,,,,,,,,,,,,489.09500001190463,,response,,,,99,,,,,,,Space,keypress(Space),,,,,,,,---- -- ----- -- ------ - ------- --- ----------<br>------------- ------ ------ ---- ---- ------- ----- -- ----<br>-------- ------- -- ---------- --- - --- ----- ----- ----<br>---- --- --- ----- --- ---- ---- ------- ----- ---- -------<br>--- --- -- ----- -- you ---- -- --- ---- -- ------ ------<br>--- ----- -- ----,309836.89999997616,309836.3000000119,309330.468,309342.8000000119,309347.205,309847.132,,44,you
screen,html.Screen,2_1_0_1_45,2022-02-15T14:12:52.571Z,,,,,,,,,,,,,,,,,53,,,,,,,,,,,,,,388.36800000001676,,response,,,,99,,,,,,,Space,keypress(Space),,,,,,,,---- -- ----- -- ------ - ------- --- ----------<br>------------- ------ ------ ---- ---- ------- ----- -- ----<br>-------- ------- -- ---------- --- - --- ----- ----- ----<br>---- --- --- ----- --- ---- ---- ------- ----- ---- -------<br>--- --- -- ----- -- --- want -- --- ---- -- ------ ------<br>--- ----- -- ----,310236.09999996424,310235.5,309830.555,309837,309847.132,310247.044,,45,want
screen,html.Screen,2_1_0_1_46,2022-02-15T14:12:53.040Z,,,,,,,,,,,,,,,,,53,,,,,,,,,,,,,,457.9560000000056,,response,,,,99,,,,,,,Space,keypress(Space),,,,,,,,---- -- ----- -- ------ - ------- --- ----------<br>------------- ------ ------ ---- ---- ------- ----- -- ----<br>-------- ------- -- ---------- --- - --- ----- ----- ----<br>---- --- --- ----- --- ---- ---- ------- ----- ---- -------<br>--- --- -- ----- -- --- ---- to --- ---- -- ------ ------<br>--- ----- -- ----,310705.59999996424,310705,310230.329,310236.1999999881,310247.044,310713.611,,46,to
screen,html.Screen,2_1_0_1_47,2022-02-15T14:12:53.415Z,,,,,,,,,,,,,,,,,53,,,,,,,,,,,,,,365.9889999642619,,response,,,,99,,,,,,,Space,keypress(Space),,,,,,,,"---- -- ----- -- ------ - ------- --- ----------<br>------------- ------ ------ ---- ---- ------- ----- -- ----<br>-------- ------- -- ---------- --- - --- ----- ----- ----<br>---- --- --- ----- --- ---- ---- ------- ----- ---- -------<br>--- --- -- ----- -- --- ---- -- be, ---- -- ------ ------<br>--- ----- -- ----",311080.1999999881,311079.59999996424,310697.173,310705.6999999881,310713.611,311096.964,,47,"be,"
screen,html.Screen,2_1_0_1_48,2022-02-15T14:12:53.842Z,,,,,,,,,,,,,,,,,53,,,,,,,,,,,,,,409.73599998810096,,response,,,,99,,,,,,,Space,keypress(Space),,,,,,,,---- -- ----- -- ------ - ------- --- ----------<br>------------- ------ ------ ---- ---- ------- ----- -- ----<br>-------- ------- -- ---------- --- - --- ----- ----- ----<br>---- --- --- ----- --- ---- ---- ------- ----- ---- -------<br>--- --- -- ----- -- --- ---- -- --- even -- ------ ------<br>--- ----- -- ----,311507.5,311506.6999999881,311080.257,311080.3000000119,311096.964,311513.439,,48,even
screen,html.Screen,2_1_0_1_49,2022-02-15T14:12:54.325Z,,,,,,,,,,,,,,,,,53,,,,,,,,,,,,,,476.06099999998696,,response,,,,99,,,,,,,Space,keypress(Space),,,,,,,,---- -- ----- -- ------ - ------- --- ----------<br>------------- ------ ------ ---- ---- ------- ----- -- ----<br>-------- ------- -- ---------- --- - --- ----- ----- ----<br>---- --- --- ----- --- ---- ---- ------- ----- ---- -------<br>--- --- -- ----- -- --- ---- -- --- ---- if ------ ------<br>--- ----- -- ----,311990.09999996424,311989.5,311496.961,311507.59999996424,311513.439,311996.763,,49,if
screen,html.Screen,2_1_0_1_50,2022-02-15T14:12:54.863Z,,,,,,,,,,,,,,,,,53,,,,,,,,,,,,,,531.7370000000228,,response,,,,99,,,,,,,Space,keypress(Space),,,,,,,,---- -- ----- -- ------ - ------- --- ----------<br>------------- ------ ------ ---- ---- ------- ----- -- ----<br>-------- ------- -- ---------- --- - --- ----- ----- ----<br>---- --- --- ----- --- ---- ---- ------- ----- ---- -------<br>--- --- -- ----- -- --- ---- -- --- ---- -- that's ------<br>--- ----- -- ----,312529,312528.5,311980.219,311990.1999999881,311996.763,312555.644,,50,that's
screen,html.Screen,2_1_0_1_51,2022-02-15T14:12:55.417Z,,,,,,,,,,,,,,,,,53,,,,,,,,,,,,,,526.5559999881079,,response,,,,99,,,,,,,Space,keypress(Space),,,,,,,,---- -- ----- -- ------ - ------- --- ----------<br>------------- ------ ------ ---- ---- ------- ----- -- ----<br>-------- ------- -- ---------- --- - --- ----- ----- ----<br>---- --- --- ----- --- ---- ---- ------- ----- ---- -------<br>--- --- -- ----- -- --- ---- -- --- ---- -- ------ really<br>--- ----- -- ----,313082.8000000119,313082.1999999881,312513.525,312529.09999996424,312555.644,313096.654,,51,really
screen,html.Screen,2_1_0_1_52,2022-02-15T14:12:55.890Z,,,,,,,,,,,,,,,,,53,,,,,,,,,,,,,,458.04599998809863,,response,,,,99,,,,,,,Space,keypress(Space),,,,,,,,---- -- ----- -- ------ - ------- --- ----------<br>------------- ------ ------ ---- ---- ------- ----- -- ----<br>-------- ------- -- ---------- --- - --- ----- ----- ----<br>---- --- --- ----- --- ---- ---- ------- ----- ---- -------<br>--- --- -- ----- -- --- ---- -- --- ---- -- ------ ------<br>not ----- -- ----,313555.1999999881,313554.6999999881,313080.076,313082.89999997616,313096.654,313563.339,,52,not
screen,html.Screen,2_1_0_1_53,2022-02-15T14:12:56.443Z,,,,,,,,,,,,,,,,,53,,,,,,,,,,,,,,544.4610000119428,,response,,,,99,,,,,,,Space,keypress(Space),,,,,,,,---- -- ----- -- ------ - ------- --- ----------<br>------------- ------ ------ ---- ---- ------- ----- -- ----<br>-------- ------- -- ---------- --- - --- ----- ----- ----<br>---- --- --- ----- --- ---- ---- ------- ----- ---- -------<br>--- --- -- ----- -- --- ---- -- --- ---- -- ------ ------<br>--- close -- ----,314108.3000000119,314107.8000000119,313546.641,313555.3000000119,313563.339,314113.08,,53,close
screen,html.Screen,2_1_0_1_54,2022-02-15T14:12:57.019Z,,,,,,,,,,,,,,,,,53,,,,,,,,,,,,,,571.1199999880628,,response,,,,99,,,,,,,Space,keypress(Space),,,,,,,,---- -- ----- -- ------ - ------- --- ----------<br>------------- ------ ------ ---- ---- ------- ----- -- ----<br>-------- ------- -- ---------- --- - --- ----- ----- ----<br>---- --- --- ----- --- ---- ---- ------- ----- ---- -------<br>--- --- -- ----- -- --- ---- -- --- ---- -- ------ ------<br>--- ----- at ----,314684.59999996424,314684.1999999881,314096.618,314108.39999997616,314113.08,314696.438,,54,at
screen,html.Screen,2_1_0_1_55,2022-02-15T14:12:57.684Z,,,,,,,,,,,,,,,,,53,,,,,,,,,,,,,,652.1619999642135,,response,,,,99,,,,,,,Space,keypress(Space),,,,,,,,---- -- ----- -- ------ - ------- --- ----------<br>------------- ------ ------ ---- ---- ------- ----- -- ----<br>-------- ------- -- ---------- --- - --- ----- ----- ----<br>---- --- --- ----- --- ---- ---- ------- ----- ---- -------<br>--- --- -- ----- -- --- ---- -- --- ---- -- ------ ------<br>--- ----- -- all.,315349.3000000119,315348.59999996424,314679.798,314684.8000000119,314696.438,315362.802,,55,all.
Item 99,flow.Loop,2_1_0_1,2022-02-15T14:12:57.684Z,,,,,,,,,,,,,,,,,,,,,,,,,,,,,,,33163.67299996421,,completion,,,,,F,,,,,,,,,,,silence,,,,,315349.5,315348.59999996424,282085.157,282085.8000000119,282184.927,315362.802,,,
Question 1,html.Screen,2_1_0_2,2022-02-15T14:13:07.626Z,,,,,,,,,,,,,,,,,,,,,,,,,,,,true,FALSE,,9928.097999976133,,response,,,,99,F,,,,,,FALSE,click #choice-2,,,,silence,,,,,325291.59999996424,325290.89999997616,315346.339,315349.59999996424,315362.802,325294.525,,,
Question 2,html.Screen,2_1_0_3,2022-02-15T14:13:12.217Z,,,,,,,,,,,,,,,,,,,,,,,,,,,,true,TRUE,,4587.275000011898,,response,,,,99,F,,,,,,TRUE,click #choice-1,,,,silence,,,,,329882.39999997616,329881.8000000119,325277.867,325291.6999999881,325294.525,329893.993,,,
Item 99,flow.Sequence,2_1_0,2022-02-15T14:13:12.217Z,,,,,,,,,,,,,,,,,,,,,,,,,,,,,,,57778.5250000119,,completion,,,,,,,,,,,,,,,,,,,,,329882.59999996424,329881.8000000119,272086.603,272095.5,272103.275,329893.993,,,
Holding screen,html.Screen,2_1_1_0,2022-02-15T14:13:22.210Z,,,,,,,,,,,,,,,,,,,,,,,,,,,,,,,9998.141000000003,,timeout,,,,,,,,,,,,,,,,,,,,,339875.89999997616,339875.479,329877.281,329882.6999999881,329893.993,339892.134,,,
screen,html.Screen,2_1_1_1_0,2022-02-15T14:13:25.627Z,,,,,,,,,,,,,,,,,54,,,,,,,,,,,,,,3400.265999976138,,response,,,,100,,,,,,,Space,keypress(Space),,,,,,,,At --- ---- --- ------ ----- ------- ---- -- --- ------- --<br>------- ---------- ------ -- ----- -- ----- -- ---- ------<br>--- ----- --- --- ------ -------- ----- --- ------ ----- --<br>----- ----- ---------- --- --- ------ ------ ---- -- ------<br>------- --- ------ ----- --- ---- ------- -- ---- --- --<br>------- ------,343293.09999996424,343292.39999997616,339875.479,339876,339892.134,343308.42,,0,At
screen,html.Screen,2_1_1_1_1,2022-02-15T14:13:26.142Z,,,,,,,,,,,,,,,,,54,,,,,,,,,,,,,,498.1799999642535,,response,,,,100,,,,,,,Space,keypress(Space),,,,,,,,-- the ---- --- ------ ----- ------- ---- -- --- ------- --<br>------- ---------- ------ -- ----- -- ----- -- ---- ------<br>--- ----- --- --- ------ -------- ----- --- ------ ----- --<br>----- ----- ---------- --- --- ------ ------ ---- -- ------<br>------- --- ------ ----- --- ---- ------- -- ---- --- --<br>------- ------,343807.1999999881,343806.59999996424,343291.741,343293.09999996424,343308.42,343825.541,,1,the
screen,html.Screen,2_1_1_1_2,2022-02-15T14:13:26.674Z,,,,,,,,,,,,,,,,,54,,,,,,,,,,,,,,513.8589999761316,,response,,,,100,,,,,,,Space,keypress(Space),,,,,,,,-- --- time --- ------ ----- ------- ---- -- --- ------- --<br>------- ---------- ------ -- ----- -- ----- -- ---- ------<br>--- ----- --- --- ------ -------- ----- --- ------ ----- --<br>----- ----- ---------- --- --- ------ ------ ---- -- ------<br>------- --- ------ ----- --- ---- ------- -- ---- --- --<br>------- ------,344339.89999997616,344339.39999997616,343791.638,343807.1999999881,343825.541,344341.377,,2,time
screen,html.Screen,2_1_1_1_3,2022-02-15T14:13:27.174Z,,,,,,,,,,,,,,,,,54,,,,,,,,,,,,,,498.22299996425863,,response,,,,100,,,,,,,Space,keypress(Space),,,,,,,,-- --- ---- the ------ ----- ------- ---- -- --- ------- --<br>------- ---------- ------ -- ----- -- ----- -- ---- ------<br>--- ----- --- --- ------ -------- ----- --- ------ ----- --<br>----- ----- ---------- --- --- ------ ------ ---- -- ------<br>------- --- ------ ----- --- ---- ------- -- ---- --- --<br>------- ------,344840,344839.59999996424,344324.923,344340.09999996424,344341.377,344864.723,,3,the
screen,html.Screen,2_1_1_1_4,2022-02-15T14:13:27.733Z,,,,,,,,,,,,,,,,,54,,,,,,,,,,,,,,533.5770000119228,,response,,,,100,,,,,,,Space,keypress(Space),,,,,,,,-- --- ---- --- French ----- ------- ---- -- --- ------- --<br>------- ---------- ------ -- ----- -- ----- -- ---- ------<br>--- ----- --- --- ------ -------- ----- --- ------ ----- --<br>----- ----- ---------- --- --- ------ ------ ---- -- ------<br>------- --- ------ ----- --- ---- ------- -- ---- --- --<br>------- ------,345398.8000000119,345398.3000000119,344824.816,344840.09999996424,344864.723,345408.024,,4,French
screen,html.Screen,2_1_1_1_5,2022-02-15T14:13:28.291Z,,,,,,,,,,,,,,,,,54,,,,,,,,,,,,,,547.6759999881033,,response,,,,100,,,,,,,Space,keypress(Space),,,,,,,,-- --- ---- --- ------ crown ------- ---- -- --- ------- --<br>------- ---------- ------ -- ----- -- ----- -- ---- ------<br>--- ----- --- --- ------ -------- ----- --- ------ ----- --<br>----- ----- ---------- --- --- ------ ------ ---- -- ------<br>------- --- ------ ----- --- ---- ------- -- ---- --- --<br>------- ------,345956.1999999881,345955.6999999881,345391.371,345398.8000000119,345408.024,345957.78,,5,crown
screen,html.Screen,2_1_1_1_6,2022-02-15T14:13:28.899Z,,,,,,,,,,,,,,,,,54,,,,,,,,,,,,,,606.020000011893,,response,,,,100,,,,,,,Space,keypress(Space),,,,,,,,-- --- ---- --- ------ ----- secured ---- -- --- ------- --<br>------- ---------- ------ -- ----- -- ----- -- ---- ------<br>--- ----- --- --- ------ -------- ----- --- ------ ----- --<br>----- ----- ---------- --- --- ------ ------ ---- -- ------<br>------- --- ------ ----- --- ---- ------- -- ---- --- --<br>------- ------,346564.3000000119,346563.8000000119,345941.293,345956.3000000119,345957.78,346574.578,,6,secured
screen,html.Screen,2_1_1_1_7,2022-02-15T14:13:29.433Z,,,,,,,,,,,,,,,,,54,,,,,,,,,,,,,,523.3219999761786,,response,,,,100,,,,,,,Space,keypress(Space),,,,,,,,-- --- ---- --- ------ ----- ------- much -- --- ------- --<br>------- ---------- ------ -- ----- -- ----- -- ---- ------<br>--- ----- --- --- ------ -------- ----- --- ------ ----- --<br>----- ----- ---------- --- --- ------ ------ ---- -- ------<br>------- --- ------ ----- --- ---- ------- -- ---- --- --<br>------- ------,347098.3000000119,347097.89999997616,346557.859,346564.39999997616,346574.578,347107.719,,7,much
screen,html.Screen,2_1_1_1_8,2022-02-15T14:13:29.898Z,,,,,,,,,,,,,,,,,54,,,,,,,,,,,,,,454.9809999880963,,response,,,,100,,,,,,,Space,keypress(Space),,,,,,,,-- --- ---- --- ------ ----- ------- ---- of --- ------- --<br>------- ---------- ------ -- ----- -- ----- -- ---- ------<br>--- ----- --- --- ------ -------- ----- --- ------ ----- --<br>----- ----- ---------- --- --- ------ ------ ---- -- ------<br>------- --- ------ ----- --- ---- ------- -- ---- --- --<br>------- ------,347563.3000000119,347562.6999999881,347091.024,347098.39999997616,347107.719,347574.272,,8,of
screen,html.Screen,2_1_1_1_9,2022-02-15T14:13:30.432Z,,,,,,,,,,,,,,,,,54,,,,,,,,,,,,,,522.6279999761609,,response,,,,100,,,,,,,Space,keypress(Space),,,,,,,,-- --- ---- --- ------ ----- ------- ---- -- its ------- --<br>------- ---------- ------ -- ----- -- ----- -- ---- ------<br>--- ----- --- --- ------ -------- ----- --- ------ ----- --<br>----- ----- ---------- --- --- ------ ------ ---- -- ------<br>------- --- ------ ----- --- ---- ------- -- ---- --- --<br>------- ------,348097.39999997616,348096.89999997616,347557.681,347563.3000000119,347574.272,348107.46,,9,its
screen,html.Screen,2_1_1_1_10,2022-02-15T14:13:30.944Z,,,,,,,,,,,,,,,,,54,,,,,,,,,,,,,,501.2399999880581,,response,,,,100,,,,,,,Space,keypress(Space),,,,,,,,-- --- ---- --- ------ ----- ------- ---- -- --- revenue --<br>------- ---------- ------ -- ----- -- ----- -- ---- ------<br>--- ----- --- --- ------ -------- ----- --- ------ ----- --<br>----- ----- ---------- --- --- ------ ------ ---- -- ------<br>------- --- ------ ----- --- ---- ------- -- ---- --- --<br>------- ------,348609.39999997616,348608.6999999881,348090.889,348097.5,348107.46,348624.228,,10,revenue
screen,html.Screen,2_1_1_1_11,2022-02-15T14:13:31.481Z,,,,,,,,,,,,,,,,,54,,,,,,,,,,,,,,521.4719999880763,,response,,,,100,,,,,,,Space,keypress(Space),,,,,,,,-- --- ---- --- ------ ----- ------- ---- -- --- ------- by<br>------- ---------- ------ -- ----- -- ----- -- ---- ------<br>--- ----- --- --- ------ -------- ----- --- ------ ----- --<br>----- ----- ---------- --- --- ------ ------ ---- -- ------<br>------- --- ------ ----- --- ---- ------- -- ---- --- --<br>------- ------,349146.09999996424,349145.6999999881,348607.52,348609.59999996424,348624.228,349157.292,,11,by
screen,html.Screen,2_1_1_1_12,2022-02-15T14:13:32.037Z,,,,,,,,,,,,,,,,,54,,,,,,,,,,,,,,544.9079999880632,,response,,,,100,,,,,,,Space,keypress(Space),,,,,,,,-- --- ---- --- ------ ----- ------- ---- -- --- ------- --<br>issuing ---------- ------ -- ----- -- ----- -- ---- ------<br>--- ----- --- --- ------ -------- ----- --- ------ ----- --<br>----- ----- ---------- --- --- ------ ------ ---- -- ------<br>------- --- ------ ----- --- ---- ------- -- ---- --- --<br>------- ------,349702.8000000119,349702.1999999881,349140.618,349146.1999999881,349157.292,349707.198,,12,issuing
screen,html.Screen,2_1_1_1_13,2022-02-15T14:13:32.658Z,,,,,,,,,,,,,,,,,54,,,,,,,,,,,,,,616.1020000119461,,response,,,,100,,,,,,,Space,keypress(Space),,,,,,,,-- --- ---- --- ------ ----- ------- ---- -- --- ------- --<br>------- government ------ -- ----- -- ----- -- ---- ------<br>--- ----- --- --- ------ -------- ----- --- ------ ----- --<br>----- ----- ---------- --- --- ------ ------ ---- -- ------<br>------- --- ------ ----- --- ---- ------- -- ---- --- --<br>------- ------,350323.89999997616,350323.3000000119,349690.625,349702.89999997616,349707.198,350340.556,,13,government
screen,html.Screen,2_1_1_1_14,2022-02-15T14:13:33.299Z,,,,,,,,,,,,,,,,,54,,,,,,,,,,,,,,622.9440000000177,,response,,,,100,,,,,,,Space,keypress(Space),,,,,,,,-- --- ---- --- ------ ----- ------- ---- -- --- ------- --<br>------- ---------- bonds. -- ----- -- ----- -- ---- ------<br>--- ----- --- --- ------ -------- ----- --- ------ ----- --<br>----- ----- ---------- --- --- ------ ------ ---- -- ------<br>------- --- ------ ----- --- ---- ------- -- ---- --- --<br>------- ------,350964,350963.5,350323.775,350323.89999997616,350340.556,350973.704,,14,bonds.
screen,html.Screen,2_1_1_1_15,2022-02-15T14:13:33.785Z,,,,,,,,,,,,,,,,,54,,,,,,,,,,,,,,476.69599997613113,,response,,,,100,,,,,,,Space,keypress(Space),,,,,,,,-- --- ---- --- ------ ----- ------- ---- -- --- ------- --<br>------- ---------- ------ In ----- -- ----- -- ---- ------<br>--- ----- --- --- ------ -------- ----- --- ------ ----- --<br>----- ----- ---------- --- --- ------ ------ ---- -- ------<br>------- --- ------ ----- --- ---- ------- -- ---- --- --<br>------- ------,351450.89999997616,351450.39999997616,350957.009,350964.09999996424,350973.704,351456.958,,15,In
screen,html.Screen,2_1_1_1_16,2022-02-15T14:13:34.854Z,,,,,,,,,,,,,,,,,54,,,,,,,,,,,,,,1062.0420000000158,,response,,,,100,,,,,,,Space,keypress(Space),,,,,,,,"-- --- ---- --- ------ ----- ------- ---- -- --- ------- --<br>------- ---------- ------ -- 1727, -- ----- -- ---- ------<br>--- ----- --- --- ------ -------- ----- --- ------ ----- --<br>----- ----- ---------- --- --- ------ ------ ---- -- ------<br>------- --- ------ ----- --- ---- ------- -- ---- --- --<br>------- ------",352519.59999996424,352519,351440.269,351451,351456.958,352523.365,,16,"1727,"
screen,html.Screen,2_1_1_1_17,2022-02-15T14:13:35.396Z,,,,,,,,,,,,,,,,,54,,,,,,,,,,,,,,537.4350000119302,,response,,,,100,,,,,,,Space,keypress(Space),,,,,,,,-- --- ---- --- ------ ----- ------- ---- -- --- ------- --<br>------- ---------- ------ -- ----- in ----- -- ---- ------<br>--- ----- --- --- ------ -------- ----- --- ------ ----- --<br>----- ----- ---------- --- --- ------ ------ ---- -- ------<br>------- --- ------ ----- --- ---- ------- -- ---- --- --<br>------- ------,353061.3000000119,353060.8000000119,352506.93,352519.6999999881,352523.365,353073.489,,17,in
screen,html.Screen,2_1_1_1_18,2022-02-15T14:13:35.970Z,,,,,,,,,,,,,,,,,54,,,,,,,,,,,,,,562.1109999642358,,response,,,,100,,,,,,,Space,keypress(Space),,,,,,,,-- --- ---- --- ------ ----- ------- ---- -- --- ------- --<br>------- ---------- ------ -- ----- -- order -- ---- ------<br>--- ----- --- --- ------ -------- ----- --- ------ ----- --<br>----- ----- ---------- --- --- ------ ------ ---- -- ------<br>------- --- ------ ----- --- ---- ------- -- ---- --- --<br>------- ------,353636,353635.59999996424,353056.675,353061.39999997616,353073.489,353639.873,,18,order
screen,html.Screen,2_1_1_1_19,2022-02-15T14:13:36.498Z,,,,,,,,,,,,,,,,,54,,,,,,,,,,,,,,523.5269999761367,,response,,,,100,,,,,,,Space,keypress(Space),,,,,,,,-- --- ---- --- ------ ----- ------- ---- -- --- ------- --<br>------- ---------- ------ -- ----- -- ----- to ---- ------<br>--- ----- --- --- ------ -------- ----- --- ------ ----- --<br>----- ----- ---------- --- --- ------ ------ ---- -- ------<br>------- --- ------ ----- --- ---- ------- -- ---- --- --<br>------- ------,354164.09999996424,354163.39999997616,353623.39,353636.09999996424,353639.873,354173.335,,19,to
screen,html.Screen,2_1_1_1_20,2022-02-15T14:13:36.994Z,,,,,,,,,,,,,,,,,54,,,,,,,,,,,,,,485.16499999997905,,response,,,,100,,,,,,,Space,keypress(Space),,,,,,,,-- --- ---- --- ------ ----- ------- ---- -- --- ------- --<br>------- ---------- ------ -- ----- -- ----- -- save ------<br>--- ----- --- --- ------ -------- ----- --- ------ ----- --<br>----- ----- ---------- --- --- ------ ------ ---- -- ------<br>------- --- ------ ----- --- ---- ------- -- ---- --- --<br>------- ------,354659.09999996424,354658.5,354156.692,354164.09999996424,354173.335,354673.108,,20,save
screen,html.Screen,2_1_1_1_21,2022-02-15T14:13:37.551Z,,,,,,,,,,,,,,,,,54,,,,,,,,,,,,,,543.1920000119135,,response,,,,100,,,,,,,Space,keypress(Space),,,,,,,,"-- --- ---- --- ------ ----- ------- ---- -- --- ------- --<br>------- ---------- ------ -- ----- -- ----- -- ---- money,<br>--- ----- --- --- ------ -------- ----- --- ------ ----- --<br>----- ----- ---------- --- --- ------ ------ ---- -- ------<br>------- --- ------ ----- --- ---- ------- -- ---- --- --<br>------- ------",355217,355216.3000000119,354656.52,354659.1999999881,354673.108,355223.098,,21,"money,"
screen,html.Screen,2_1_1_1_22,2022-02-15T14:13:38.113Z,,,,,,,,,,,,,,,,,54,,,,,,,,,,,,,,555.4020000000019,,response,,,,100,,,,,,,Space,keypress(Space),,,,,,,,-- --- ---- --- ------ ----- ------- ---- -- --- ------- --<br>------- ---------- ------ -- ----- -- ----- -- ---- ------<br>the ----- --- --- ------ -------- ----- --- ------ ----- --<br>----- ----- ---------- --- --- ------ ------ ---- -- ------<br>------- --- ------ ----- --- ---- ------- -- ---- --- --<br>------- ------,355779,355778.5,355206.547,355217.09999996424,355223.098,355789.647,,22,the
screen,html.Screen,2_1_1_1_23,2022-02-15T14:13:38.615Z,,,,,,,,,,,,,,,,,54,,,,,,,,,,,,,,490.3530000000028,,response,,,,100,,,,,,,Space,keypress(Space),,,,,,,,-- --- ---- --- ------ ----- ------- ---- -- --- ------- --<br>------- ---------- ------ -- ----- -- ----- -- ---- ------<br>--- state --- --- ------ -------- ----- --- ------ ----- --<br>----- ----- ---------- --- --- ------ ------ ---- -- ------<br>------- --- ------ ----- --- ---- ------- -- ---- --- --<br>------- ------,356280.59999996424,356280,355773.067,355779.09999996424,355789.647,356289.42,,23,state
screen,html.Screen,2_1_1_1_24,2022-02-15T14:13:39.120Z,,,,,,,,,,,,,,,,,54,,,,,,,,,,,,,,495.77999998809537,,response,,,,100,,,,,,,Space,keypress(Space),,,,,,,,-- --- ---- --- ------ ----- ------- ---- -- --- ------- --<br>------- ---------- ------ -- ----- -- ----- -- ---- ------<br>--- ----- cut --- ------ -------- ----- --- ------ ----- --<br>----- ----- ---------- --- --- ------ ------ ---- -- ------<br>------- --- ------ ----- --- ---- ------- -- ---- --- --<br>------- ------,356785.6999999881,356785.1999999881,356272.99,356280.59999996424,356289.42,356789.387,,24,cut
screen,html.Screen,2_1_1_1_25,2022-02-15T14:13:39.652Z,,,,,,,,,,,,,,,,,54,,,,,,,,,,,,,,527.913000011933,,response,,,,100,,,,,,,Space,keypress(Space),,,,,,,,-- --- ---- --- ------ ----- ------- ---- -- --- ------- --<br>------- ---------- ------ -- ----- -- ----- -- ---- ------<br>--- ----- --- the ------ -------- ----- --- ------ ----- --<br>----- ----- ---------- --- --- ------ ------ ---- -- ------<br>------- --- ------ ----- --- ---- ------- -- ---- --- --<br>------- ------,357317.8000000119,357317.3000000119,356772.958,356785.8000000119,356789.387,357322.63,,25,the
screen,html.Screen,2_1_1_1_26,2022-02-15T14:13:40.197Z,,,,,,,,,,,,,,,,,54,,,,,,,,,,,,,,539.5699999880744,,response,,,,100,,,,,,,Space,keypress(Space),,,,,,,,-- --- ---- --- ------ ----- ------- ---- -- --- ------- --<br>------- ---------- ------ -- ----- -- ----- -- ---- ------<br>--- ----- --- --- bonds' -------- ----- --- ------ ----- --<br>----- ----- ---------- --- --- ------ ------ ---- -- ------<br>------- --- ------ ----- --- ---- ------- -- ---- --- --<br>------- ------,357862.8000000119,357862.1999999881,357306.163,357317.89999997616,357322.63,357872.698,,26,bonds'
screen,html.Screen,2_1_1_1_27,2022-02-15T14:13:40.865Z,,,,,,,,,,,,,,,,,54,,,,,,,,,,,,,,657.6020000119461,,response,,,,100,,,,,,,Space,keypress(Space),,,,,,,,-- --- ---- --- ------ ----- ------- ---- -- --- ------- --<br>------- ---------- ------ -- ----- -- ----- -- ---- ------<br>--- ----- --- --- ------ interest ----- --- ------ ----- --<br>----- ----- ---------- --- --- ------ ------ ---- -- ------<br>------- --- ------ ----- --- ---- ------- -- ---- --- --<br>------- ------,358530.8000000119,358530.3000000119,357856.014,357862.89999997616,357872.698,358539.209,,27,interest
screen,html.Screen,2_1_1_1_28,2022-02-15T14:13:41.486Z,,,,,,,,,,,,,,,,,54,,,,,,,,,,,,,,611.5910000119475,,response,,,,100,,,,,,,Space,keypress(Space),,,,,,,,-- --- ---- --- ------ ----- ------- ---- -- --- ------- --<br>------- ---------- ------ -- ----- -- ----- -- ---- ------<br>--- ----- --- --- ------ -------- rate. --- ------ ----- --<br>----- ----- ---------- --- --- ------ ------ ---- -- ------<br>------- --- ------ ----- --- ---- ------- -- ---- --- --<br>------- ------,359151.1999999881,359150.8000000119,358522.442,358531,358539.209,359155.674,,28,rate.
screen,html.Screen,2_1_1_1_29,2022-02-15T14:13:41.992Z,,,,,,,,,,,,,,,,,54,,,,,,,,,,,,,,501.02599998808,,response,,,,100,,,,,,,Space,keypress(Space),,,,,,,,-- --- ---- --- ------ ----- ------- ---- -- --- ------- --<br>------- ---------- ------ -- ----- -- ----- -- ---- ------<br>--- ----- --- --- ------ -------- ----- The ------ ----- --<br>----- ----- ---------- --- --- ------ ------ ---- -- ------<br>------- --- ------ ----- --- ---- ------- -- ---- --- --<br>------- ------,359657.09999996424,359656.6999999881,359139.002,359151.39999997616,359155.674,359672.453,,29,The
screen,html.Screen,2_1_1_1_30,2022-02-15T14:13:42.662Z,,,,,,,,,,,,,,,,,54,,,,,,,,,,,,,,654.3470000119414,,response,,,,100,,,,,,,Space,keypress(Space),,,,,,,,-- --- ---- --- ------ ----- ------- ---- -- --- ------- --<br>------- ---------- ------ -- ----- -- ----- -- ---- ------<br>--- ----- --- --- ------ -------- ----- --- market ----- --<br>----- ----- ---------- --- --- ------ ------ ---- -- ------<br>------- --- ------ ----- --- ---- ------- -- ---- --- --<br>------- ------,360327.3000000119,360326.8000000119,359655.73,359657.1999999881,359672.453,360338.938,,30,market
screen,html.Screen,2_1_1_1_31,2022-02-15T14:13:43.303Z,,,,,,,,,,,,,,,,,54,,,,,,,,,,,,,,629.2619999880553,,response,,,,100,,,,,,,Space,keypress(Space),,,,,,,,-- --- ---- --- ------ ----- ------- ---- -- --- ------- --<br>------- ---------- ------ -- ----- -- ----- -- ---- ------<br>--- ----- --- --- ------ -------- ----- --- ------ value --<br>----- ----- ---------- --- --- ------ ------ ---- -- ------<br>------- --- ------ ----- --- ---- ------- -- ---- --- --<br>------- ------,360968.6999999881,360968.1999999881,360322.299,360327.5,360338.938,360972.055,,31,value
screen,html.Screen,2_1_1_1_32,2022-02-15T14:13:43.838Z,,,,,,,,,,,,,,,,,54,,,,,,,,,,,,,,530.7450000119279,,response,,,,100,,,,,,,Space,keypress(Space),,,,,,,,-- --- ---- --- ------ ----- ------- ---- -- --- ------- --<br>------- ---------- ------ -- ----- -- ----- -- ---- ------<br>--- ----- --- --- ------ -------- ----- --- ------ ----- of<br>----- ----- ---------- --- --- ------ ------ ---- -- ------<br>------- --- ------ ----- --- ---- ------- -- ---- --- --<br>------- ------,361503.3000000119,361502.8000000119,360955.589,360968.8000000119,360972.055,361505.224,,32,of
screen,html.Screen,2_1_1_1_33,2022-02-15T14:13:44.417Z,,,,,,,,,,,,,,,,,54,,,,,,,,,,,,,,576.5760000119335,,response,,,,100,,,,,,,Space,keypress(Space),,,,,,,,-- --- ---- --- ------ ----- ------- ---- -- --- ------- --<br>------- ---------- ------ -- ----- -- ----- -- ---- ------<br>--- ----- --- --- ------ -------- ----- --- ------ ----- --<br>these ----- ---------- --- --- ------ ------ ---- -- ------<br>------- --- ------ ----- --- ---- ------- -- ---- --- --<br>------- ------,362082.5,362081.8000000119,361488.779,361503.39999997616,361505.224,362088.492,,33,these
screen,html.Screen,2_1_1_1_34,2022-02-15T14:13:45.043Z,,,,,,,,,,,,,,,,,54,,,,,,,,,,,,,,619.2079999880516,,response,,,,100,,,,,,,Space,keypress(Space),,,,,,,,-- --- ---- --- ------ ----- ------- ---- -- --- ------- --<br>------- ---------- ------ -- ----- -- ----- -- ---- ------<br>--- ----- --- --- ------ -------- ----- --- ------ ----- --<br>----- bonds ---------- --- --- ------ ------ ---- -- ------<br>------- --- ------ ----- --- ---- ------- -- ---- --- --<br>------- ------,362708.39999997616,362707.6999999881,362072.036,362082.5,362088.492,362721.79,,34,bonds
screen,html.Screen,2_1_1_1_35,2022-02-15T14:13:45.739Z,,,,,,,,,,,,,,,,,54,,,,,,,,,,,,,,682.3099999642582,,response,,,,100,,,,,,,Space,keypress(Space),,,,,,,,"-- --- ---- --- ------ ----- ------- ---- -- --- ------- --<br>------- ---------- ------ -- ----- -- ----- -- ---- ------<br>--- ----- --- --- ------ -------- ----- --- ------ ----- --<br>----- ----- plummeted, --- --- ------ ------ ---- -- ------<br>------- --- ------ ----- --- ---- ------- -- ---- --- --<br>------- ------",363404.59999996424,363404.09999996424,362705.103,362708.39999997616,362721.79,363438.424,,35,"plummeted,"
screen,html.Screen,2_1_1_1_36,2022-02-15T14:13:46.277Z,,,,,,,,,,,,,,,,,54,,,,,,,,,,,,,,504.07600000000093,,response,,,,100,,,,,,,Space,keypress(Space),,,,,,,,-- --- ---- --- ------ ----- ------- ---- -- --- ------- --<br>------- ---------- ------ -- ----- -- ----- -- ---- ------<br>--- ----- --- --- ------ -------- ----- --- ------ ----- --<br>----- ----- ---------- and --- ------ ------ ---- -- ------<br>------- --- ------ ----- --- ---- ------- -- ---- --- --<br>------- ------,363943,363942.5,363421.817,363404.6999999881,363438.424,363954.934,,36,and
screen,html.Screen,2_1_1_1_37,2022-02-15T14:13:46.794Z,,,,,,,,,,,,,,,,,54,,,,,,,,,,,,,,504.46599997614976,,response,,,,100,,,,,,,Space,keypress(Space),,,,,,,,-- --- ---- --- ------ ----- ------- ---- -- --- ------- --<br>------- ---------- ------ -- ----- -- ----- -- ---- ------<br>--- ----- --- --- ------ -------- ----- --- ------ ----- --<br>----- ----- ---------- --- the ------ ------ ---- -- ------<br>------- --- ------ ----- --- ---- ------- -- ---- --- --<br>------- ------,364460,364459.39999997616,363938.327,363943,363954.934,364471.534,,37,the
screen,html.Screen,2_1_1_1_38,2022-02-15T14:13:47.464Z,,,,,,,,,,,,,,,,,54,,,,,,,,,,,,,,657.665999988094,,response,,,,100,,,,,,,Space,keypress(Space),,,,,,,,-- --- ---- --- ------ ----- ------- ---- -- --- ------- --<br>------- ---------- ------ -- ----- -- ----- -- ---- ------<br>--- ----- --- --- ------ -------- ----- --- ------ ----- --<br>----- ----- ---------- --- --- market ------ ---- -- ------<br>------- --- ------ ----- --- ---- ------- -- ---- --- --<br>------- ------,365129.8000000119,365129.1999999881,364454.949,364460.09999996424,364471.534,365138.135,,38,market
screen,html.Screen,2_1_1_1_39,2022-02-15T14:13:48.079Z,,,,,,,,,,,,,,,,,54,,,,,,,,,,,,,,605.6650000119116,,response,,,,100,,,,,,,Space,keypress(Space),,,,,,,,-- --- ---- --- ------ ----- ------- ---- -- --- ------- --<br>------- ---------- ------ -- ----- -- ----- -- ---- ------<br>--- ----- --- --- ------ -------- ----- --- ------ ----- --<br>----- ----- ---------- --- --- ------ became ---- -- ------<br>------- --- ------ ----- --- ---- ------- -- ---- --- --<br>------- ------,365744.39999997616,365743.8000000119,365121.519,365129.89999997616,365138.135,365754.73,,39,became
screen,html.Screen,2_1_1_1_40,2022-02-15T14:13:48.718Z,,,,,,,,,,,,,,,,,54,,,,,,,,,,,,,,628.1699999761768,,response,,,,100,,,,,,,Space,keypress(Space),,,,,,,,-- --- ---- --- ------ ----- ------- ---- -- --- ------- --<br>------- ---------- ------ -- ----- -- ----- -- ---- ------<br>--- ----- --- --- ------ -------- ----- --- ------ ----- --<br>----- ----- ---------- --- --- ------ ------ wary -- ------<br>------- --- ------ ----- --- ---- ------- -- ---- --- --<br>------- ------,366383.5,366382.89999997616,365738.115,365744.5,365754.73,366387.913,,40,wary
screen,html.Screen,2_1_1_1_41,2022-02-15T14:13:49.316Z,,,,,,,,,,,,,,,,,54,,,,,,,,,,,,,,593.0869999999995,,response,,,,100,,,,,,,Space,keypress(Space),,,,,,,,-- --- ---- --- ------ ----- ------- ---- -- --- ------- --<br>------- ---------- ------ -- ----- -- ----- -- ---- ------<br>--- ----- --- --- ------ -------- ----- --- ------ ----- --<br>----- ----- ---------- --- --- ------ ------ ---- of ------<br>------- --- ------ ----- --- ---- ------- -- ---- --- --<br>------- ------,366981.5,366981,366371.363,366383.59999996424,366387.913,366987.658,,41,of
screen,html.Screen,2_1_1_1_42,2022-02-15T14:13:49.992Z,,,,,,,,,,,,,,,,,54,,,,,,,,,,,,,,669.4419999642414,,response,,,,100,,,,,,,Space,keypress(Space),,,,,,,,-- --- ---- --- ------ ----- ------- ---- -- --- ------- --<br>------- ---------- ------ -- ----- -- ----- -- ---- ------<br>--- ----- --- --- ------ -------- ----- --- ------ ----- --<br>----- ----- ---------- --- --- ------ ------ ---- -- French<br>------- --- ------ ----- --- ---- ------- -- ---- --- --<br>------- ------,367657.59999996424,367657.09999996424,366971.03,366981.6999999881,366987.658,367671.157,,42,French
screen,html.Screen,2_1_1_1_43,2022-02-15T14:13:50.709Z,,,,,,,,,,,,,,,,,54,,,,,,,,,,,,,,703.2429999761516,,response,,,,100,,,,,,,Space,keypress(Space),,,,,,,,-- --- ---- --- ------ ----- ------- ---- -- --- ------- --<br>------- ---------- ------ -- ----- -- ----- -- ---- ------<br>--- ----- --- --- ------ -------- ----- --- ------ ----- --<br>----- ----- ---------- --- --- ------ ------ ---- -- ------<br>credit. --- ------ ----- --- ---- ------- -- ---- --- --<br>------- ------,368374.89999997616,368374.39999997616,367654.282,367657.6999999881,367671.157,368387.631,,43,credit.
screen,html.Screen,2_1_1_1_44,2022-02-15T14:13:51.288Z,,,,,,,,,,,,,,,,,54,,,,,,,,,,,,,,565.4689999642433,,response,,,,100,,,,,,,Space,keypress(Space),,,,,,,,-- --- ---- --- ------ ----- ------- ---- -- --- ------- --<br>------- ---------- ------ -- ----- -- ----- -- ---- ------<br>--- ----- --- --- ------ -------- ----- --- ------ ----- --<br>----- ----- ---------- --- --- ------ ------ ---- -- ------<br>------- The ------ ----- --- ---- ------- -- ---- --- --<br>------- ------,368953.5,368953.09999996424,368370.912,368375,368387.631,368970.7,,44,The
screen,html.Screen,2_1_1_1_45,2022-02-15T14:13:51.881Z,,,,,,,,,,,,,,,,,54,,,,,,,,,,,,,,575.8999999642256,,response,,,,100,,,,,,,Space,keypress(Space),,,,,,,,-- --- ---- --- ------ ----- ------- ---- -- --- ------- --<br>------- ---------- ------ -- ----- -- ----- -- ---- ------<br>--- ----- --- --- ------ -------- ----- --- ------ ----- --<br>----- ----- ---------- --- --- ------ ------ ---- -- ------<br>------- --- French ----- --- ---- ------- -- ---- --- --<br>------- ------,369547,369546.59999996424,368937.576,368953.59999996424,368970.7,369553.932,,45,French
screen,html.Screen,2_1_1_1_46,2022-02-15T14:13:52.462Z,,,,,,,,,,,,,,,,,54,,,,,,,,,,,,,,572.8680000119493,,response,,,,100,,,,,,,Space,keypress(Space),,,,,,,,-- --- ---- --- ------ ----- ------- ---- -- --- ------- --<br>------- ---------- ------ -- ----- -- ----- -- ---- ------<br>--- ----- --- --- ------ -------- ----- --- ------ ----- --<br>----- ----- ---------- --- --- ------ ------ ---- -- ------<br>------- --- ------ state --- ---- ------- -- ---- --- --<br>------- ------,370127.3000000119,370126.8000000119,369537.294,369547.1999999881,369553.932,370137.182,,46,state
screen,html.Screen,2_1_1_1_47,2022-02-15T14:13:52.972Z,,,,,,,,,,,,,,,,,54,,,,,,,,,,,,,,499.3180000000284,,response,,,,100,,,,,,,Space,keypress(Space),,,,,,,,-- --- ---- --- ------ ----- ------- ---- -- --- ------- --<br>------- ---------- ------ -- ----- -- ----- -- ---- ------<br>--- ----- --- --- ------ -------- ----- --- ------ ----- --<br>----- ----- ---------- --- --- ------ ------ ---- -- ------<br>------- --- ------ ----- was ---- ------- -- ---- --- --<br>------- ------,370637.09999996424,370636.5,370120.73,370127.39999997616,370137.182,370653.909,,47,was
screen,html.Screen,2_1_1_1_48,2022-02-15T14:13:53.518Z,,,,,,,,,,,,,,,,,54,,,,,,,,,,,,,,528.6909999642521,,response,,,,100,,,,,,,Space,keypress(Space),,,,,,,,-- --- ---- --- ------ ----- ------- ---- -- --- ------- --<br>------- ---------- ------ -- ----- -- ----- -- ---- ------<br>--- ----- --- --- ------ -------- ----- --- ------ ----- --<br>----- ----- ---------- --- --- ------ ------ ---- -- ------<br>------- --- ------ ----- --- left ------- -- ---- --- --<br>------- ------,371183.09999996424,371182.59999996424,370637.126,370637.1999999881,370653.909,371186.997,,48,left
screen,html.Screen,2_1_1_1_49,2022-02-15T14:13:54.160Z,,,,,,,,,,,,,,,,,54,,,,,,,,,,,,,,638.4029999761842,,response,,,,100,,,,,,,Space,keypress(Space),,,,,,,,-- --- ---- --- ------ ----- ------- ---- -- --- ------- --<br>------- ---------- ------ -- ----- -- ----- -- ---- ------<br>--- ----- --- --- ------ -------- ----- --- ------ ----- --<br>----- ----- ---------- --- --- ------ ------ ---- -- ------<br>------- --- ------ ----- --- ---- without -- ---- --- --<br>------- ------,371825.89999997616,371825.39999997616,371170.339,371183.1999999881,371186.997,371837.002,,49,without
screen,html.Screen,2_1_1_1_50,2022-02-15T14:13:54.893Z,,,,,,,,,,,,,,,,,54,,,,,,,,,,,,,,721.2980000119423,,response,,,,100,,,,,,,Space,keypress(Space),,,,,,,,-- --- ---- --- ------ ----- ------- ---- -- --- ------- --<br>------- ---------- ------ -- ----- -- ----- -- ---- ------<br>--- ----- --- --- ------ -------- ----- --- ------ ----- --<br>----- ----- ---------- --- --- ------ ------ ---- -- ------<br>------- --- ------ ----- --- ---- ------- an ---- --- --<br>------- ------,372558.8000000119,372558.3000000119,371820.278,371826,371837.002,372570.266,,50,an
screen,html.Screen,2_1_1_1_51,2022-02-15T14:13:55.537Z,,,,,,,,,,,,,,,,,54,,,,,,,,,,,,,,632.1339999761549,,response,,,,100,,,,,,,Space,keypress(Space),,,,,,,,-- --- ---- --- ------ ----- ------- ---- -- --- ------- --<br>------- ---------- ------ -- ----- -- ----- -- ---- ------<br>--- ----- --- --- ------ -------- ----- --- ------ ----- --<br>----- ----- ---------- --- --- ------ ------ ---- -- ------<br>------- --- ------ ----- --- ---- ------- -- easy --- --<br>------- ------,373203,373202.39999997616,372553.492,372558.89999997616,372570.266,373236.692,,51,easy
screen,html.Screen,2_1_1_1_52,2022-02-15T14:13:56.068Z,,,,,,,,,,,,,,,,,54,,,,,,,,,,,,,,496.20799997617723,,response,,,,100,,,,,,,Space,keypress(Space),,,,,,,,-- --- ---- --- ------ ----- ------- ---- -- --- ------- --<br>------- ---------- ------ -- ----- -- ----- -- ---- ------<br>--- ----- --- --- ------ -------- ----- --- ------ ----- --<br>----- ----- ---------- --- --- ------ ------ ---- -- ------<br>------- --- ------ ----- --- ---- ------- -- ---- way --<br>------- ------,373733.39999997616,373732.89999997616,373220.184,373203,373236.692,373736.544,,52,way
screen,html.Screen,2_1_1_1_53,2022-02-15T14:13:56.599Z,,,,,,,,,,,,,,,,,54,,,,,,,,,,,,,,527.7560000119265,,response,,,,100,,,,,,,Space,keypress(Space),,,,,,,,-- --- ---- --- ------ ----- ------- ---- -- --- ------- --<br>------- ---------- ------ -- ----- -- ----- -- ---- ------<br>--- ----- --- --- ------ -------- ----- --- ------ ----- --<br>----- ----- ---------- --- --- ------ ------ ---- -- ------<br>------- --- ------ ----- --- ---- ------- -- ---- --- of<br>------- ------,374264.89999997616,374264.3000000119,373720.136,373733.5,373736.544,374269.93,,53,of
screen,html.Screen,2_1_1_1_54,2022-02-15T14:13:57.284Z,,,,,,,,,,,,,,,,,54,,,,,,,,,,,,,,679.1699999642442,,response,,,,100,,,,,,,Space,keypress(Space),,,,,,,,-- --- ---- --- ------ ----- ------- ---- -- --- ------- --<br>------- ---------- ------ -- ----- -- ----- -- ---- ------<br>--- ----- --- --- ------ -------- ----- --- ------ ----- --<br>----- ----- ---------- --- --- ------ ------ ---- -- ------<br>------- --- ------ ----- --- ---- ------- -- ---- --- --<br>raising ------,374949.59999996424,374949.09999996424,374253.403,374265,374269.93,374969.876,,54,raising
screen,html.Screen,2_1_1_1_55,2022-02-15T14:13:59.415Z,,,,,,,,,,,,,,,,,54,,,,,,,,,,,,,,2110.523999976169,,response,,,,100,,,,,,,Space,keypress(Space),,,,,,,,-- --- ---- --- ------ ----- ------- ---- -- --- ------- --<br>------- ---------- ------ -- ----- -- ----- -- ---- ------<br>--- ----- --- --- ------ -------- ----- --- ------ ----- --<br>----- ----- ---------- --- --- ------ ------ ---- -- ------<br>------- --- ------ ----- --- ---- ------- -- ---- --- --<br>------- money.,377081,377080.39999997616,374953.196,374949.6999999881,374969.876,377086.034,,55,money.
Item 100,flow.Loop,2_1_1_1,2022-02-15T14:13:59.416Z,,,,,,,,,,,,,,,,,,,,,,,,,,,,,,,37188.26599997614,,completion,,,,,F,,,,,,,,,,,silence,,,,,377081.09999996424,377080.39999997616,339875.479,339876,339892.134,377086.034,,,
Question 1,html.Screen,2_1_1_2,2022-02-15T14:14:02.147Z,,,,,,,,,,,,,,,,,,,,,,,,,,,,true,TRUE,,2725.766000011936,,response,,,,100,F,,,,,,TRUE,click #choice-1,,,,silence,,,,,379812.5,379811.8000000119,377069.53,377081.3000000119,377086.034,379819.017,,,
Question 2,html.Screen,2_1_1_3,2022-02-15T14:14:04.676Z,,,,,,,,,,,,,,,,,,,,,,,,,,,,false,FALSE,,2522.2830000119284,,response,,,,100,F,,,,,,TRUE,click #choice-1,,,,silence,,,,,382341.89999997616,382341.3000000119,379802.438,379812.59999996424,379819.017,382352.06,,,
Item 100,flow.Sequence,2_1_1,2022-02-15T14:14:04.677Z,,,,,,,,,,,,,,,,,,,,,,,,,,,,,,,52447.307000011904,,completion,,,,,,,,,,,,,,,,,,,,,382342.1999999881,382341.3000000119,329877.281,329882.6999999881,329893.993,382352.06,,,
End of Practice,html.Page,2_1_2,2022-02-15T14:14:24.667Z,,,,,,,,,,,,,,,,,,,,,,,,,,,,,,,19996.50199999998,,timeout,,,,,,,,,,,,,,,,,,,,,402332.39999997616,402331.901,382335.319,382342.1999999881,382352.06,402348.562,,,
Practice,flow.Sequence,2_1,2022-02-15T14:14:24.667Z,,,,,,,,,,,,,,,,,,,,,,,,,,,,,,,130228.62599999999,,completion,,,,,,,,,,,,,,,,,,,,,402332.59999996424,402331.901,272086.603,272095.5,272103.275,402348.562,,,
Trap_instruction,html.Page,2_2_0,2022-02-15T14:14:44.663Z,,,,,,,,,,,,,,,,,,,,,,,,,,,,,,,19996.697000000044,,timeout,,,,,,,,,,,,,,,,,,,,,422329.3000000119,422328.769,402331.901,402332.6999999881,402348.562,422345.259,,,
trap_trial,html.Screen,2_2_1,2022-02-15T14:14:48.693Z,,,,,,,,,,,,,,,,,,,,,,,,,,,,true,1,,4013.140999976138,,response,,,,,,,,,,,1,click #choice-1,,,,,,,,,426359.1999999881,426358.39999997616,422328.769,422329.5,422345.259,426361.272,,,
end of trap trial,html.Page,2_2_2,2022-02-15T14:14:58.678Z,,,,,,,,,,,,,,,,,,,,,,,,,,,,,,,9998.38300000003,,timeout,,,,,,,,,,,,,,,,,,,,,436343.6999999881,436343.179,426344.767,426359.1999999881,426361.272,436359.655,,,
Trap 1,flow.Sequence,2_2,2022-02-15T14:14:58.678Z,,,,,,,,,,,,,,,,,,,,,,,,,,,,,,,33994.61700000003,,completion,,,,,,,,,,,,,,,,,,,,,436343.89999997616,436343.179,402331.901,402332.6999999881,402348.562,436359.655,,,
Standby,html.Page,2_3_0,2022-02-15T14:15:06.676Z,,,,,,,,,,,,,,,,,,,,,,,,,,,,,,,7998.878999999957,,timeout,,,,,,,,,,,,,,,,,,,,,444342.39999997616,444341.864,436343.179,436343.89999997616,436359.655,444358.534,,,
Holding screen,html.Screen,2_3_1_0_0,2022-02-15T14:15:13.675Z,,,,,,,,,,,,,,,,,,,,,,,,,,,,,,,6998.813000000024,,timeout,,,,,,,,,,,,,,,,,,,,,451341.09999996424,451340.689,444341.864,444342.6999999881,444358.534,451357.347,,,
screen,html.Screen,2_3_1_0_1_0,2022-02-15T14:15:15.953Z,,,,,,,,,,,,,,,,,15,,,,,,,,,,,,,,2260.7529999642284,,response,,,,7,F,,,,,,Space,keypress(Space),,,,instrumental,,,,Greg --------- ---------- - --- ------- -- --- ------------<br>----- -- -------- ------- ---- ------ - -------- ---- -----<br>--- ------- ---- -- --- -------- --- - ----- ------ ---- --<br>-------- --- -------- -------- --- -------- ---- -- ----- -<br>-------- ---- --- ---------- --------- -- ------- ------ -<br>--------- ----- -----,453618.6999999881,453618.09999996424,451340.689,451341.3000000119,451357.347,453623.533,,0,Greg
screen,html.Screen,2_3_1_0_1_1,2022-02-15T14:15:22.940Z,,,,,,,,,,,,,,,,,15,,,,,,,,,,,,,,6998.963999999978,,timeout,,,,7,F,,,,,,,,,,,instrumental,,,,"---- Anderson, ---------- - --- ------- -- --- ------------<br>----- -- -------- ------- ---- ------ - -------- ---- -----<br>--- ------- ---- -- --- -------- --- - ----- ------ ---- --<br>-------- --- -------- -------- --- -------- ---- -- ----- -<br>-------- ---- --- ---------- --------- -- ------- ------ -<br>--------- ----- -----",460606.39999997616,460605.812,453607.027,453618.6999999881,453623.533,460622.497,,1,"Anderson,"
screen,html.Screen,2_3_1_0_1_2,2022-02-15T14:15:24.277Z,,,,,,,,,,,,,,,,,15,,,,,,,,,,,,,,1320.2029999881051,,response,,,,7,F,,,,,,Space,keypress(Space),,,,instrumental,,,,---- --------- considered - --- ------- -- --- ------------<br>----- -- -------- ------- ---- ------ - -------- ---- -----<br>--- ------- ---- -- --- -------- --- - ----- ------ ---- --<br>-------- --- -------- -------- --- -------- ---- -- ----- -<br>-------- ---- --- ---------- --------- -- ------- ------ -<br>--------- ----- -----,461943.09999996424,461942.6999999881,460605.812,460606.5,460622.497,461955.445,,2,considered
screen,html.Screen,2_3_1_0_1_3,2022-02-15T14:15:24.787Z,,,,,,,,,,,,,,,,,15,,,,,,,,,,,,,,496.85500001191394,,response,,,,7,F,,,,,,Space,keypress(Space),,,,instrumental,,,,---- --------- ---------- a --- ------- -- --- ------------<br>----- -- -------- ------- ---- ------ - -------- ---- -----<br>--- ------- ---- -- --- -------- --- - ----- ------ ---- --<br>-------- --- -------- -------- --- -------- ---- -- ----- -<br>-------- ---- --- ---------- --------- -- ------- ------ -<br>--------- ----- -----,462452.6999999881,462452.3000000119,461938.793,461943.1999999881,461955.445,462472.17,,3,a
screen,html.Screen,2_3_1_0_1_4,2022-02-15T14:15:25.515Z,,,,,,,,,,,,,,,,,15,,,,,,,,,,,,,,708.6300000119372,,response,,,,7,F,,,,,,Space,keypress(Space),,,,instrumental,,,,---- --------- ---------- - key ------- -- --- ------------<br>----- -- -------- ------- ---- ------ - -------- ---- -----<br>--- ------- ---- -- --- -------- --- - ----- ------ ---- --<br>-------- --- -------- -------- --- -------- ---- -- ----- -<br>-------- ---- --- ---------- --------- -- ------- ------ -<br>--------- ----- -----,463181.1999999881,463180.8000000119,462455.506,462452.8000000119,462472.17,463188.742,,4,key
screen,html.Screen,2_3_1_0_1_5,2022-02-15T14:15:26.195Z,,,,,,,,,,,,,,,,,15,,,,,,,,,,,,,,672.1579999761307,,response,,,,7,F,,,,,,Space,keypress(Space),,,,instrumental,,,,---- --------- ---------- - --- witness -- --- ------------<br>----- -- -------- ------- ---- ------ - -------- ---- -----<br>--- ------- ---- -- --- -------- --- - ----- ------ ---- --<br>-------- --- -------- -------- --- -------- ---- -- ----- -<br>-------- ---- --- ---------- --------- -- ------- ------ -<br>--------- ----- -----,463861.3000000119,463860.89999997616,463172.155,463181.3000000119,463188.742,463872.042,,5,witness
screen,html.Screen,2_3_1_0_1_6,2022-02-15T14:15:28.429Z,,,,,,,,,,,,,,,,,15,,,,,,,,,,,,,,2222.6579999880632,,response,,,,7,F,,,,,,Space,keypress(Space),,,,instrumental,,,,---- --------- ---------- - --- ------- by --- ------------<br>----- -- -------- ------- ---- ------ - -------- ---- -----<br>--- ------- ---- -- --- -------- --- - ----- ------ ---- --<br>-------- --- -------- -------- --- -------- ---- -- ----- -<br>-------- ---- --- ---------- --------- -- ------- ------ -<br>--------- ----- -----,466095.1999999881,466094.6999999881,463855.375,463861.39999997616,463872.042,466104.963,,6,by
screen,html.Screen,2_3_1_0_1_7,2022-02-15T14:15:29.049Z,,,,,,,,,,,,,,,,,15,,,,,,,,,,,,,,610.1369999642484,,response,,,,7,F,,,,,,Space,keypress(Space),,,,instrumental,,,,---- --------- ---------- - --- ------- -- the ------------<br>----- -- -------- ------- ---- ------ - -------- ---- -----<br>--- ------- ---- -- --- -------- --- - ----- ------ ---- --<br>-------- --- -------- -------- --- -------- ---- -- ----- -<br>-------- ---- --- ---------- --------- -- ------- ------ -<br>--------- ----- -----,466715.59999996424,466715.09999996424,466088.328,466095.3000000119,466104.963,466738.096,,7,the
screen,html.Screen,2_3_1_0_1_8,2022-02-15T14:15:29.579Z,,,,,,,,,,,,,,,,,15,,,,,,,,,,,,,,506.8039999761386,,response,,,,7,F,,,,,,Space,keypress(Space),,,,instrumental,,,,"---- --------- ---------- - --- ------- -- --- prosecution,<br>----- -- -------- ------- ---- ------ - -------- ---- -----<br>--- ------- ---- -- --- -------- --- - ----- ------ ---- --<br>-------- --- -------- -------- --- -------- ---- -- ----- -<br>-------- ---- --- ---------- --------- -- ------- ------ -<br>--------- ----- -----",467245.3000000119,467244.89999997616,466721.515,466715.6999999881,466738.096,467254.786,,8,"prosecution,"
screen,html.Screen,2_3_1_0_1_9,2022-02-15T14:15:30.144Z,,,,,,,,,,,,,,,,,15,,,,,,,,,,,,,,554.7139999999781,,response,,,,7,F,,,,,,Space,keypress(Space),,,,instrumental,,,,---- --------- ---------- - --- ------- -- --- ------------<br>vowed -- -------- ------- ---- ------ - -------- ---- -----<br>--- ------- ---- -- --- -------- --- - ----- ------ ---- --<br>-------- --- -------- -------- --- -------- ---- -- ----- -<br>-------- ---- --- ---------- --------- -- ------- ------ -<br>--------- ----- -----,467809.89999997616,467809.5,467238.085,467245.39999997616,467254.786,467821.315,,9,vowed
screen,html.Screen,2_3_1_0_1_10,2022-02-15T14:15:30.747Z,,,,,,,,,,,,,,,,,15,,,,,,,,,,,,,,591.5849999761558,,response,,,,7,F,,,,,,Space,keypress(Space),,,,instrumental,,,,---- --------- ---------- - --- ------- -- --- ------------<br>----- he -------- ------- ---- ------ - -------- ---- -----<br>--- ------- ---- -- --- -------- --- - ----- ------ ---- --<br>-------- --- -------- -------- --- -------- ---- -- ----- -<br>-------- ---- --- ---------- --------- -- ------- ------ -<br>--------- ----- -----,468413.39999997616,468412.89999997616,467804.651,467810,467821.315,468421.22,,10,he
screen,html.Screen,2_3_1_0_1_11,2022-02-15T14:15:31.336Z,,,,,,,,,,,,,,,,,15,,,,,,,,,,,,,,580.5800000119489,,response,,,,7,F,,,,,,Space,keypress(Space),,,,instrumental,,,,---- --------- ---------- - --- ------- -- --- ------------<br>----- -- wouldn't ------- ---- ------ - -------- ---- -----<br>--- ------- ---- -- --- -------- --- - ----- ------ ---- --<br>-------- --- -------- -------- --- -------- ---- -- ----- -<br>-------- ---- --- ---------- --------- -- ------- ------ -<br>--------- ----- -----,469002.3000000119,469001.8000000119,468404.55,468413.5,468421.22,469004.25,,11,wouldn't
screen,html.Screen,2_3_1_0_1_12,2022-02-15T14:15:31.987Z,,,,,,,,,,,,,,,,,15,,,,,,,,,,,,,,648.5500000119209,,response,,,,7,F,,,,,,Space,keypress(Space),,,,instrumental,,,,---- --------- ---------- - --- ------- -- --- ------------<br>----- -- -------- testify ---- ------ - -------- ---- -----<br>--- ------- ---- -- --- -------- --- - ----- ------ ---- --<br>-------- --- -------- -------- --- -------- ---- -- ----- -<br>-------- ---- --- ---------- --------- -- ------- ------ -<br>--------- ----- -----,469653.39999997616,469652.8000000119,468987.806,469002.3000000119,469004.25,469674.227,,12,testify
screen,html.Screen,2_3_1_0_1_13,2022-02-15T14:15:32.539Z,,,,,,,,,,,,,,,,,15,,,,,,,,,,,,,,530.5730000119074,,response,,,,7,F,,,,,,Space,keypress(Space),,,,instrumental,,,,---- --------- ---------- - --- ------- -- --- ------------<br>----- -- -------- ------- when ------ - -------- ---- -----<br>--- ------- ---- -- --- -------- --- - ----- ------ ---- --<br>-------- --- -------- -------- --- -------- ---- -- ----- -<br>-------- ---- --- ---------- --------- -- ------- ------ -<br>--------- ----- -----,470205.3000000119,470204.8000000119,469637.69,469653.39999997616,469674.227,470221.001,,13,when
screen,html.Screen,2_3_1_0_1_14,2022-02-15T14:15:33.149Z,,,,,,,,,,,,,,,,,15,,,,,,,,,,,,,,599.3989999761689,,response,,,,7,F,,,,,,Space,keypress(Space),,,,instrumental,,,,---- --------- ---------- - --- ------- -- --- ------------<br>----- -- -------- ------- ---- served - -------- ---- -----<br>--- ------- ---- -- --- -------- --- - ----- ------ ---- --<br>-------- --- -------- -------- --- -------- ---- -- ----- -<br>-------- ---- --- ---------- --------- -- ------- ------ -<br>--------- ----- -----,470821.09999996424,470820.39999997616,470204.252,470205.39999997616,470221.001,470837.456,,14,served
screen,html.Screen,2_3_1_0_1_15,2022-02-15T14:15:33.555Z,,,,,,,,,,,,,,,,,15,,,,,,,,,,,,,,389.2439999880735,,response,,,,7,F,,,,,,Space,keypress(Space),,,,instrumental,,,,---- --------- ---------- - --- ------- -- --- ------------<br>----- -- -------- ------- ---- ------ a -------- ---- -----<br>--- ------- ---- -- --- -------- --- - ----- ------ ---- --<br>-------- --- -------- -------- --- -------- ---- -- ----- -<br>-------- ---- --- ---------- --------- -- ------- ------ -<br>--------- ----- -----,471227.3000000119,471226.6999999881,470820.882,470821.09999996424,470837.456,471237.249,,15,a
screen,html.Screen,2_3_1_0_1_16,2022-02-15T14:15:34.295Z,,,,,,,,,,,,,,,,,15,,,,,,,,,,,,,,729.8509999642265,,response,,,,7,F,,,,,,Space,keypress(Space),,,,instrumental,,,,---- --------- ---------- - --- ------- -- --- ------------<br>----- -- -------- ------- ---- ------ - subpoena ---- -----<br>--- ------- ---- -- --- -------- --- - ----- ------ ---- --<br>-------- --- -------- -------- --- -------- ---- -- ----- -<br>-------- ---- --- ---------- --------- -- ------- ------ -<br>--------- ----- -----,471967.6999999881,471967.09999996424,471220.771,471227.39999997616,471237.249,471970.425,,16,subpoena
screen,html.Screen,2_3_1_0_1_17,2022-02-15T14:15:34.919Z,,,,,,,,,,,,,,,,,15,,,,,,,,,,,,,,620.4749999761698,,response,,,,7,F,,,,,,Space,keypress(Space),,,,instrumental,,,,---- --------- ---------- - --- ------- -- --- ------------<br>----- -- -------- ------- ---- ------ - -------- last -----<br>--- ------- ---- -- --- -------- --- - ----- ------ ---- --<br>-------- --- -------- -------- --- -------- ---- -- ----- -<br>-------- ---- --- ---------- --------- -- ------- ------ -<br>--------- ----- -----,472591.39999997616,472590.89999997616,471953.884,471967.6999999881,471970.425,472603.859,,17,last
screen,html.Screen,2_3_1_0_1_18,2022-02-15T14:15:35.627Z,,,,,,,,,,,,,,,,,15,,,,,,,,,,,,,,695.0409999761614,,response,,,,7,F,,,,,,Space,keypress(Space),,,,instrumental,,,,---- --------- ---------- - --- ------- -- --- ------------<br>----- -- -------- ------- ---- ------ - -------- ---- week.<br>--- ------- ---- -- --- -------- --- - ----- ------ ---- --<br>-------- --- -------- -------- --- -------- ---- -- ----- -<br>-------- ---- --- ---------- --------- -- ------- ------ -<br>--------- ----- -----,473299.5,473298.89999997616,472587.275,472591.5,472603.859,473303.562,,18,week.
screen,html.Screen,2_3_1_0_1_19,2022-02-15T14:15:36.490Z,,,,,,,,,,,,,,,,,15,,,,,,,,,,,,,,858.4380000000237,,response,,,,7,F,,,,,,Space,keypress(Space),,,,instrumental,,,,---- --------- ---------- - --- ------- -- --- ------------<br>----- -- -------- ------- ---- ------ - -------- ---- -----<br>His ------- ---- -- --- -------- --- - ----- ------ ---- --<br>-------- --- -------- -------- --- -------- ---- -- ----- -<br>-------- ---- --- ---------- --------- -- ------- ------ -<br>--------- ----- -----,474162.39999997616,474162,473287.133,473299.59999996424,473303.562,474170.271,,19,His
screen,html.Screen,2_3_1_0_1_20,2022-02-15T14:15:37.165Z,,,,,,,,,,,,,,,,,15,,,,,,,,,,,,,,666.6289999761502,,response,,,,7,F,,,,,,Space,keypress(Space),,,,instrumental,,,,---- --------- ---------- - --- ------- -- --- ------------<br>----- -- -------- ------- ---- ------ - -------- ---- -----<br>--- lawyers ---- -- --- -------- --- - ----- ------ ---- --<br>-------- --- -------- -------- --- -------- ---- -- ----- -<br>-------- ---- --- ---------- --------- -- ------- ------ -<br>--------- ----- -----,474837.39999997616,474836.89999997616,474153.714,474162.5,474170.271,474853.432,,20,lawyers
screen,html.Screen,2_3_1_0_1_21,2022-02-15T14:15:37.818Z,,,,,,,,,,,,,,,,,15,,,,,,,,,,,,,,636.4679999761865,,response,,,,7,F,,,,,,Space,keypress(Space),,,,instrumental,,,,---- --------- ---------- - --- ------- -- --- ------------<br>----- -- -------- ------- ---- ------ - -------- ---- -----<br>--- ------- said -- --- -------- --- - ----- ------ ---- --<br>-------- --- -------- -------- --- -------- ---- -- ----- -<br>-------- ---- --- ---------- --------- -- ------- ------ -<br>--------- ----- -----,475490.5,475489.89999997616,474836.86,474837.5,474853.432,475503.47,,21,said
screen,html.Screen,2_3_1_0_1_22,2022-02-15T14:15:38.555Z,,,,,,,,,,,,,,,,,15,,,,,,,,,,,,,,722.729999988107,,response,,,,7,F,,,,,,Space,keypress(Space),,,,instrumental,,,,---- --------- ---------- - --- ------- -- --- ------------<br>----- -- -------- ------- ---- ------ - -------- ---- -----<br>--- ------- ---- he --- -------- --- - ----- ------ ---- --<br>-------- --- -------- -------- --- -------- ---- -- ----- -<br>-------- ---- --- ---------- --------- -- ------- ------ -<br>--------- ----- -----,476226.8000000119,476226.1999999881,475486.795,475490.5,475503.47,476253.271,,22,he
screen,html.Screen,2_3_1_0_1_23,2022-02-15T14:15:39.218Z,,,,,,,,,,,,,,,,,15,,,,,,,,,,,,,,636.029000011913,,response,,,,7,F,,,,,,Space,keypress(Space),,,,instrumental,,,,---- --------- ---------- - --- ------- -- --- ------------<br>----- -- -------- ------- ---- ------ - -------- ---- -----<br>--- ------- ---- -- was -------- --- - ----- ------ ---- --<br>-------- --- -------- -------- --- -------- ---- -- ----- -<br>-------- ---- --- ---------- --------- -- ------- ------ -<br>--------- ----- -----,476889.8000000119,476889.3000000119,476236.596,476226.8000000119,476253.271,476902.999,,23,was
screen,html.Screen,2_3_1_0_1_24,2022-02-15T14:15:39.974Z,,,,,,,,,,,,,,,,,15,,,,,,,,,,,,,,743.1009999642265,,response,,,,7,F,,,,,,Space,keypress(Space),,,,instrumental,,,,---- --------- ---------- - --- ------- -- --- ------------<br>----- -- -------- ------- ---- ------ - -------- ---- -----<br>--- ------- ---- -- --- prepared --- - ----- ------ ---- --<br>-------- --- -------- -------- --- -------- ---- -- ----- -<br>-------- ---- --- ---------- --------- -- ------- ------ -<br>--------- ----- -----,477646.6999999881,477646.09999996424,476886.411,476890,476902.999,477652.905,,24,prepared
screen,html.Screen,2_3_1_0_1_25,2022-02-15T14:15:40.527Z,,,,,,,,,,,,,,,,,15,,,,,,,,,,,,,,546.395000011893,,response,,,,7,F,,,,,,Space,keypress(Space),,,,instrumental,,,,---- --------- ---------- - --- ------- -- --- ------------<br>----- -- -------- ------- ---- ------ - -------- ---- -----<br>--- ------- ---- -- --- -------- for - ----- ------ ---- --<br>-------- --- -------- -------- --- -------- ---- -- ----- -<br>-------- ---- --- ---------- --------- -- ------- ------ -<br>--------- ----- -----,478199.6999999881,478199.3000000119,477636.392,477646.6999999881,477652.905,478202.74,,25,for
screen,html.Screen,2_3_1_0_1_26,2022-02-15T14:15:41.106Z,,,,,,,,,,,,,,,,,15,,,,,,,,,,,,,,574.6599999761675,,response,,,,7,F,,,,,,Space,keypress(Space),,,,instrumental,,,,---- --------- ---------- - --- ------- -- --- ------------<br>----- -- -------- ------- ---- ------ - -------- ---- -----<br>--- ------- ---- -- --- -------- --- a ----- ------ ---- --<br>-------- --- -------- -------- --- -------- ---- -- ----- -<br>-------- ---- --- ---------- --------- -- ------- ------ -<br>--------- ----- -----,478778,478777.39999997616,478186.36,478199.8000000119,478202.74,478786.177,,26,a
screen,html.Screen,2_3_1_0_1_27,2022-02-15T14:15:41.782Z,,,,,,,,,,,,,,,,,15,,,,,,,,,,,,,,667.222999976133,,response,,,,7,F,,,,,,Space,keypress(Space),,,,instrumental,,,,---- --------- ---------- - --- ------- -- --- ------------<br>----- -- -------- ------- ---- ------ - -------- ---- -----<br>--- ------- ---- -- --- -------- --- - third ------ ---- --<br>-------- --- -------- -------- --- -------- ---- -- ----- -<br>-------- ---- --- ---------- --------- -- ------- ------ -<br>--------- ----- -----,479453.89999997616,479453.39999997616,478769.427,478778.09999996424,478786.177,479469.232,,27,third
screen,html.Screen,2_3_1_0_1_28,2022-02-15T14:15:42.456Z,,,,,,,,,,,,,,,,,15,,,,,,,,,,,,,,658.66799997614,,response,,,,7,F,,,,,,Space,keypress(Space),,,,instrumental,,,,---- --------- ---------- - --- ------- -- --- ------------<br>----- -- -------- ------- ---- ------ - -------- ---- -----<br>--- ------- ---- -- --- -------- --- - ----- prison ---- --<br>-------- --- -------- -------- --- -------- ---- -- ----- -<br>-------- ---- --- ---------- --------- -- ------- ------ -<br>--------- ----- -----,480128.39999997616,480127.89999997616,479452.737,479454.09999996424,479469.232,480135.96,,28,prison
screen,html.Screen,2_3_1_0_1_29,2022-02-15T14:15:43.115Z,,,,,,,,,,,,,,,,,15,,,,,,,,,,,,,,650.6399999642163,,response,,,,7,F,,,,,,Space,keypress(Space),,,,instrumental,,,,---- --------- ---------- - --- ------- -- --- ------------<br>----- -- -------- ------- ---- ------ - -------- ---- -----<br>--- ------- ---- -- --- -------- --- - ----- ------ stay --<br>-------- --- -------- -------- --- -------- ---- -- ----- -<br>-------- ---- --- ---------- --------- -- ------- ------ -<br>--------- ----- -----,480787.09999996424,480786.59999996424,480119.267,480128.5,480135.96,480802.539,,29,stay
screen,html.Screen,2_3_1_0_1_30,2022-02-15T14:15:43.743Z,,,,,,,,,,,,,,,,,15,,,,,,,,,,,,,,612.2610000119312,,response,,,,7,F,,,,,,Space,keypress(Space),,,,instrumental,,,,---- --------- ---------- - --- ------- -- --- ------------<br>----- -- -------- ------- ---- ------ - -------- ---- -----<br>--- ------- ---- -- --- -------- --- - ----- ------ ---- to<br>-------- --- -------- -------- --- -------- ---- -- ----- -<br>-------- ---- --- ---------- --------- -- ------- ------ -<br>--------- ----- -----,481415.39999997616,481414.8000000119,480785.771,480787.1999999881,480802.539,481418.962,,30,to
screen,html.Screen,2_3_1_0_1_31,2022-02-15T14:15:44.411Z,,,,,,,,,,,,,,,,,15,,,,,,,,,,,,,,663.2379999880795,,response,,,,7,F,,,,,,Space,keypress(Space),,,,instrumental,,,,---- --------- ---------- - --- ------- -- --- ------------<br>----- -- -------- ------- ---- ------ - -------- ---- -----<br>--- ------- ---- -- --- -------- --- - ----- ------ ---- --<br>maintain --- -------- -------- --- -------- ---- -- ----- -<br>-------- ---- --- ---------- --------- -- ------- ------ -<br>--------- ----- -----,482082.8000000119,482082.1999999881,481402.421,481415.39999997616,481418.962,482085.48,,31,maintain
screen,html.Screen,2_3_1_0_1_32,2022-02-15T14:15:45.028Z,,,,,,,,,,,,,,,,,15,,,,,,,,,,,,,,614.0200000000186,,response,,,,7,F,,,,,,Space,keypress(Space),,,,instrumental,,,,---- --------- ---------- - --- ------- -- --- ------------<br>----- -- -------- ------- ---- ------ - -------- ---- -----<br>--- ------- ---- -- --- -------- --- - ----- ------ ---- --<br>-------- his -------- -------- --- -------- ---- -- ----- -<br>-------- ---- --- ---------- --------- -- ------- ------ -<br>--------- ----- -----,482700,482699.5,482068.923,482082.89999997616,482085.48,482702.004,,32,his
screen,html.Screen,2_3_1_0_1_33,2022-02-15T14:15:46.069Z,,,,,,,,,,,,,,,,,15,,,,,,,,,,,,,,1038.5959999642218,,response,,,,7,F,,,,,,Space,keypress(Space),,,,instrumental,,,,---- --------- ---------- - --- ------- -- --- ------------<br>----- -- -------- ------- ---- ------ - -------- ---- -----<br>--- ------- ---- -- --- -------- --- - ----- ------ ---- --<br>-------- --- silence. -------- --- -------- ---- -- ----- -<br>-------- ---- --- ---------- --------- -- ------- ------ -<br>--------- ----- -----,483741.09999996424,483740.59999996424,482685.497,482700.09999996424,482702.004,483751.965,,33,silence.
screen,html.Screen,2_3_1_0_1_34,2022-02-15T14:15:46.743Z,,,,,,,,,,,,,,,,,15,,,,,,,,,,,,,,662.7349999880535,,response,,,,7,F,,,,,,Space,keypress(Space),,,,instrumental,,,,---- --------- ---------- - --- ------- -- --- ------------<br>----- -- -------- ------- ---- ------ - -------- ---- -----<br>--- ------- ---- -- --- -------- --- - ----- ------ ---- --<br>-------- --- -------- Anderson --- -------- ---- -- ----- -<br>-------- ---- --- ---------- --------- -- ------- ------ -<br>--------- ----- -----,484415.1999999881,484414.6999999881,483735.213,483741.1999999881,483751.965,484418.422,,34,Anderson
screen,html.Screen,2_3_1_0_1_35,2022-02-15T14:15:47.275Z,,,,,,,,,,,,,,,,,15,,,,,,,,,,,,,,528.4779999761377,,response,,,,7,F,,,,,,Space,keypress(Space),,,,instrumental,,,,---- --------- ---------- - --- ------- -- --- ------------<br>----- -- -------- ------- ---- ------ - -------- ---- -----<br>--- ------- ---- -- --- -------- --- - ----- ------ ---- --<br>-------- --- -------- -------- was -------- ---- -- ----- -<br>-------- ---- --- ---------- --------- -- ------- ------ -<br>--------- ----- -----,484947.39999997616,484946.89999997616,484401.795,484415.3000000119,484418.422,484951.7,,35,was
screen,html.Screen,2_3_1_0_1_36,2022-02-15T14:15:47.918Z,,,,,,,,,,,,,,,,,15,,,,,,,,,,,,,,638.1000000119093,,response,,,,7,F,,,,,,Space,keypress(Space),,,,instrumental,,,,---- --------- ---------- - --- ------- -- --- ------------<br>----- -- -------- ------- ---- ------ - -------- ---- -----<br>--- ------- ---- -- --- -------- --- - ----- ------ ---- --<br>-------- --- -------- -------- --- released ---- -- ----- -<br>-------- ---- --- ---------- --------- -- ------- ------ -<br>--------- ----- -----,485590.3000000119,485589.8000000119,484935.073,484947.5,484951.7,485601.827,,36,released
screen,html.Screen,2_3_1_0_1_37,2022-02-15T14:15:48.572Z,,,,,,,,,,,,,,,,,15,,,,,,,,,,,,,,641.3729999880888,,response,,,,7,F,,,,,,Space,keypress(Space),,,,instrumental,,,,---- --------- ---------- - --- ------- -- --- ------------<br>----- -- -------- ------- ---- ------ - -------- ---- -----<br>--- ------- ---- -- --- -------- --- - ----- ------ ---- --<br>-------- --- -------- -------- --- -------- July -- ----- -<br>-------- ---- --- ---------- --------- -- ------- ------ -<br>--------- ----- -----,486243.6999999881,486243.1999999881,485585.043,485590.39999997616,485601.827,486251.571,,37,July
screen,html.Screen,2_3_1_0_1_38,2022-02-15T14:15:49.170Z,,,,,,,,,,,,,,,,,15,,,,,,,,,,,,,,590.4290000000037,,response,,,,7,F,,,,,,Space,keypress(Space),,,,instrumental,,,,---- --------- ---------- - --- ------- -- --- ------------<br>----- -- -------- ------- ---- ------ - -------- ---- -----<br>--- ------- ---- -- --- -------- --- - ----- ------ ---- --<br>-------- --- -------- -------- --- -------- ---- 20 ----- -<br>-------- ---- --- ---------- --------- -- ------- ------ -<br>--------- ----- -----,486842.39999997616,486842,486235.014,486243.8000000119,486251.571,486868.234,,38,20
screen,html.Screen,2_3_1_0_1_39,2022-02-15T14:15:49.984Z,,,,,,,,,,,,,,,,,15,,,,,,,,,,,,,,787.8659999642405,,response,,,,7,F,,,,,,Space,keypress(Space),,,,instrumental,,,,---- --------- ---------- - --- ------- -- --- ------------<br>----- -- -------- ------- ---- ------ - -------- ---- -----<br>--- ------- ---- -- --- -------- --- - ----- ------ ---- --<br>-------- --- -------- -------- --- -------- ---- -- after -<br>-------- ---- --- ---------- --------- -- ------- ------ -<br>--------- ----- -----,487656.6999999881,487656.09999996424,486851.333,486842.5,486868.234,487668.071,,39,after
screen,html.Screen,2_3_1_0_1_40,2022-02-15T14:15:50.581Z,,,,,,,,,,,,,,,,,15,,,,,,,,,,,,,,584.6289999880828,,response,,,,7,F,,,,,,Space,keypress(Space),,,,instrumental,,,,---- --------- ---------- - --- ------- -- --- ------------<br>----- -- -------- ------- ---- ------ - -------- ---- -----<br>--- ------- ---- -- --- -------- --- - ----- ------ ---- --<br>-------- --- -------- -------- --- -------- ---- -- ----- a<br>-------- ---- --- ---------- --------- -- ------- ------ -<br>--------- ----- -----,488253.1999999881,488252.6999999881,487651.449,487657.3000000119,487668.071,488268.012,,40,a
