sender,sender_type,sender_id,timestamp,meta,,Blues,Classical,Country,Dance,Electronic,Folk,Gospel,Hip-Hop,Jazz,Latin,Musical/Film,New-age,Pop,Prolific_id,Provo_ID,R&B,Rap,Reggae,Religious,Rock,Soul,Swing,Traditional,age,artist_name,correct,correctResponse,distraction,duration,education,ended_on,familiarity,gender,headphone_check_performance,item,list,music_frequency,offensiveness,pleasantness,position_correct,preference,response,response_action,snippet_file,song_name,song_rating,sound,stimulus_1,stimulus_2,stimulus_3,text,time_commit,time_end,time_render,time_run,time_show,time_switch,url,word,word_ID
Prolific ID,html.Form,0,2022-02-17T14:52:27.700Z,"{""labjs_version"":""20.2.2"",""labjs_build"":{""flavor"":""production"",""commit"":""a25486e0c714a0ae2ce03ff94b7bb6896854dcfa""},""location"":""https://run.pavlovia.org/mvasilev/prolific2_music_e/"",""userAgent"":""Mozilla/5.0 (Windows NT 10.0; Win64; x64) AppleWebKit/537.36 (KHTML, like Gecko) Chrome/97.0.4692.99 Safari/537.36 OPR/83.0.4254.62"",""platform"":""Win32"",""language"":""en-GB"",""locale"":""en-GB"",""timeZone"":""Europe/London"",""timezoneOffset"":0,""screen_width"":1536,""screen_height"":864,""scroll_width"":1536,""scroll_height"":675,""window_innerWidth"":1536,""window_innerHeight"":723,""devicePixelRatio"":1.25}",,,,,,,,,,,,,,,5c9a698bd40ce2001423396e,,,,,,,,,,,,,,,3314.3400000014917,,form submission,,,,,,,,,,,,,,,,,,,,,20808.89999999851,20808.60000000149,17477.32,17482.39999999851,17494.26,20827.563,{},,
Introduction,html.Screen,1_0,2022-02-17T14:52:35.100Z,,,,,,,,,,,,,,,,,,,,,,,,,,,,,,,7379.537000001492,,response,,,,,,,,,,,continue,click button,,,,,,,,,28209,28207.10000000149,20810.892,20809,20827.563,28210.888,,,
Volume calibration,html.Screen,1_1,2022-02-17T14:52:54.804Z,,,,,,,,,,,,,,,,,,,,,,,,,,,,,,,19699.51199999851,,response,,,,,,,,,,,continue,click button,,,,,,,,,47912.70000000298,47910.39999999851,28194.562,28209,28210.888,47927.583,,,
Task instructions,html.Screen,1_2,2022-02-17T14:53:00.147Z,,,,,,,,,,,,,,,,,,,,,,,,,,,,,,,5327.217000004472,,response,,,,,,,,,,,continue,click button,,,,,,,,,53255.70000000298,53254.80000000447,47910.853,47912.89999999851,47927.583,53260.84,,,
Sounds,html.Screen,1_3_0_0,2022-02-17T14:53:04.389Z,,,,,,,,,,,,,,,,,,,,,,,,,,,,,,,4250.036,,timeout,,,,,,,,,1,,,,,,,,S,I,O,,57497.39999999851,57494.506,53244.258,53255.89999999851,53260.84,57510.876,,,
Judgement,html.Screen,1_3_0_1,2022-02-17T14:53:05.012Z,,,,,,,,,,,,,,,,,,,,,,,,,,,,true,1,,608.3240000029837,,response,,,,,,,,,1,,1,click #choice-1,,,,,S,I,O,,58120.5,58119.20000000298,57494.506,57497.5,57510.876,58127.78,,,
Trial,flow.Sequence,1_3_0,2022-02-17T14:53:05.012Z,,,,,,,,,,,,,,,,,,,,,,,,,,,,,,,4858.360000002984,,completion,,,,,,,,,1,,,,,,,,S,I,O,,58120.60000000149,58119.20000000298,53244.258,53255.89999999851,53260.84,58127.78,,,
Sounds,html.Screen,1_3_1_0,2022-02-17T14:53:09.253Z,,,,,,,,,,,,,,,,,,,,,,,,,,,,,,,4249.733,,timeout,,,,,,,,,2,,,,,,,,O,S,I,,62361.5,62360.882,58110.879,58120.60000000149,58127.78,62377.513,,,
Judgement,html.Screen,1_3_1_1,2022-02-17T14:53:09.755Z,,,,,,,,,,,,,,,,,,,,,,,,,,,,true,2,,485.5870000014911,,response,,,,,,,,,2,,2,click #choice-2,,,,,O,S,I,,62863.89999999851,62863.10000000149,62360.882,62361.60000000149,62377.513,62877.577,,,
Trial,flow.Sequence,1_3_1,2022-02-17T14:53:09.755Z,,,,,,,,,,,,,,,,,,,,,,,,,,,,,,,4735.320000001491,,completion,,,,,,,,,2,,,,,,,,O,S,I,,62864.20000000298,62863.10000000149,58110.879,58120.60000000149,58127.78,62877.577,,,
Sounds,html.Screen,1_3_2_0,2022-02-17T14:53:14.003Z,,,,,,,,,,,,,,,,,,,,,,,,,,,,,,,4249.998,,timeout,,,,,,,,,3,,,,,,,,O,I,S,,67111.70000000298,67110.866,62861.217,62864.30000000447,62877.577,67127.575,,,
Judgement,html.Screen,1_3_2_1,2022-02-17T14:53:14.451Z,,,,,,,,,,,,,,,,,,,,,,,,,,,,true,3,,431.525000001493,,response,,,,,,,,,3,,3,click #choice-3,,,,,O,I,S,,67560.10000000149,67559.10000000149,67110.866,67111.80000000447,67127.575,67560.87,,,
Trial,flow.Sequence,1_3_2,2022-02-17T14:53:14.451Z,,,,,,,,,,,,,,,,,,,,,,,,,,,,,,,4681.523000001493,,completion,,,,,,,,,3,,,,,,,,O,I,S,,67560.20000000298,67559.10000000149,62861.217,62864.20000000298,62877.577,67560.87,,,
Sounds,html.Screen,1_3_3_0,2022-02-17T14:53:18.687Z,,,,,,,,,,,,,,,,,,,,,,,,,,,,,,,4250.017000000007,,timeout,,,,,,,,,2,,,,,,,,I,S,O,,71795.5,71794.531,67544.249,67560.30000000447,67560.87,71810.887,,,
Judgement,html.Screen,1_3_3_1,2022-02-17T14:53:19.083Z,,,,,,,,,,,,,,,,,,,,,,,,,,,,true,2,,379.9130000044679,,response,,,,,,,,,2,,2,click #choice-2,,,,,I,S,O,,72191.5,72190.80000000447,71794.531,71795.60000000149,71810.887,72194.175,,,
Trial,flow.Sequence,1_3_3,2022-02-17T14:53:19.083Z,,,,,,,,,,,,,,,,,,,,,,,,,,,,,,,4629.930000004475,,completion,,,,,,,,,2,,,,,,,,I,S,O,,72191.70000000298,72190.80000000447,67544.249,67560.20000000298,67560.87,72194.175,,,
Sounds,html.Screen,1_3_4_0,2022-02-17T14:53:23.320Z,,,,,,,,,,,,,,,,,,,,,,,,,,,,,,,4250.076000000001,,timeout,,,,,,,,,1,,,,,,,,S,O,I,,76428.89999999851,76427.77,72177.528,72191.70000000298,72194.175,76444.251,,,
Judgement,html.Screen,1_3_4_1,2022-02-17T14:53:23.707Z,,,,,,,,,,,,,,,,,,,,,,,,,,,,true,1,,370.74899999999616,,response,,,,,,,,,1,,1,click #choice-1,,,,,S,O,I,,76815.70000000298,76815,76427.77,76429,76444.251,76827.56,,,
Trial,flow.Sequence,1_3_4,2022-02-17T14:53:23.707Z,,,,,,,,,,,,,,,,,,,,,,,,,,,,,,,4620.824999999997,,completion,,,,,,,,,1,,,,,,,,S,O,I,,76815.80000000447,76815,72177.528,72191.70000000298,72194.175,76827.56,,,
Sounds,html.Screen,1_3_5_0,2022-02-17T14:53:27.953Z,,,,,,,,,,,,,,,,,,,,,,,,,,,,,,,4250.3139999999985,,timeout,,,,,,,,,3,,,,,,,,I,O,S,,81061.80000000447,81060.866,76810.964,76815.89999999851,76827.56,81077.874,,,
Judgement,html.Screen,1_3_5_1,2022-02-17T14:53:28.259Z,,,,,,,,,,,,,,,,,,,,,,,,,,,,true,3,,289.22600000149396,,response,,,,,,,,,3,,3,click #choice-3,,,,,I,O,S,,81368.10000000149,81367.10000000149,81060.866,81062,81077.874,81377.47,,,
Trial,flow.Sequence,1_3_5,2022-02-17T14:53:28.259Z,,,,,,,,,,,,,,,,,,,,,,,,,,,,,,,4539.540000001492,,completion,,,,,,,,,3,,,,,,,,I,O,S,,81368.30000000447,81367.10000000149,76810.964,76815.80000000447,76827.56,81377.47,,,
Task,flow.Loop,1_3,2022-02-17T14:53:28.262Z,,,,,,,,,,,,,,,,,,,,,,,,,,,,,,,28106.260000001494,,completion,,,1,,,,,,,,,,,,,,,,,,81370.5,81367.10000000149,53244.258,53255.80000000447,53260.84,81377.47,,,
Trap,html.Screen,1_4,2022-02-17T14:53:28.262Z,,,,,,,,,,,,,,,,,,,,,,,,,,,,,,,NaN,,skipped,,,,,,,,,,,,,,,,,,,,,81371.10000000149,81367.10000000149,,81371.10000000149,,81377.47,,,
Thanks,html.Screen,1_5,2022-02-17T14:53:31.651Z,,,,,,,,,,,,,,,,,,,,,,,,,,,,,,,3381.630000001489,,response,,,,,,,,,,,continue,click button,,,,,,,,,84760,84759.10000000149,81360.95,81371.20000000298,81377.47,88660.82,,,
Headphone screening,flow.Sequence,1,2022-02-17T14:53:31.651Z,,,,,,,,,,,,,,,,,,,,,,,,,,,,,,,63931.537000001495,,completion,,,,,,,,,,,,,,,,,,,,,84760.10000000149,84759.10000000149,20810.892,20809,20827.563,88660.82,,,
Instructions,html.Page,2_0,2022-02-17T14:53:49.588Z,,,,,,,,,,,,,,,,,,,,,,,,,,,,,,,14035.480000004463,,form submission,,,,,,,,,,,,,,,,,,,,,102696.70000000298,102696.30000000447,88644.193,88654.70000000298,88660.82,102710.775,,,
Holding screen,html.Screen,2_1_0_0,2022-02-17T14:53:59.586Z,,,,,,,,,,,,,,,,,,,,,,,,,,,,,,,10000.040000000008,,timeout,,,,,,,,,,,,,,,,,,,,,112695.10000000149,112694.251,102694.213,102696.70000000298,102710.775,112710.815,,,
screen,html.Screen,2_1_0_1_0,2022-02-17T14:54:00.329Z,,,,,,,,,,,,,,,,,53,,,,,,,,,,,,,,724.0849999985076,,response,,,,99,,,,,,,Space,keypress(Space),,,,,,,,When -- ----- -- ------ - ------- --- ----------<br>------------- ------ ------ ---- ---- ------- ----- -- ----<br>-------- ------- -- ---------- --- - --- ----- ----- ----<br>---- --- --- ----- --- ---- ---- ------- ----- ---- -------<br>--- --- -- ----- -- --- ---- -- --- ---- -- ------ ------<br>--- ----- -- ----,113437.39999999851,113434.89999999851,112694.251,112695.39999999851,112710.815,113444.117,,0,When
screen,html.Screen,2_1_0_1_1,2022-02-17T14:54:00.794Z,,,,,,,,,,,,,,,,,53,,,,,,,,,,,,,,457.683000004472,,response,,,,99,,,,,,,Space,keypress(Space),,,,,,,,---- it ----- -- ------ - ------- --- ----------<br>------------- ------ ------ ---- ---- ------- ----- -- ----<br>-------- ------- -- ---------- --- - --- ----- ----- ----<br>---- --- --- ----- --- ---- ---- ------- ----- ---- -------<br>--- --- -- ----- -- --- ---- -- --- ---- -- ------ ------<br>--- ----- -- ----,113902.5,113901.80000000447,113427.555,113437.60000000149,113444.117,113910.837,,1,it
screen,html.Screen,2_1_0_1_2,2022-02-17T14:54:01.248Z,,,,,,,,,,,,,,,,,53,,,,,,,,,,,,,,444.8630000029807,,response,,,,99,,,,,,,Space,keypress(Space),,,,,,,,---- -- comes -- ------ - ------- --- ----------<br>------------- ------ ------ ---- ---- ------- ----- -- ----<br>-------- ------- -- ---------- --- - --- ----- ----- ----<br>---- --- --- ----- --- ---- ---- ------- ----- ---- -------<br>--- --- -- ----- -- --- ---- -- --- ---- -- ------ ------<br>--- ----- -- ----,114356.30000000447,114355.70000000298,113894.155,113902.60000000149,113910.837,114360.842,,2,comes
screen,html.Screen,2_1_0_1_3,2022-02-17T14:54:01.763Z,,,,,,,,,,,,,,,,,53,,,,,,,,,,,,,,510.85800000297604,,response,,,,99,,,,,,,Space,keypress(Space),,,,,,,,---- -- ----- to ------ - ------- --- ----------<br>------------- ------ ------ ---- ---- ------- ----- -- ----<br>-------- ------- -- ---------- --- - --- ----- ----- ----<br>---- --- --- ----- --- ---- ---- ------- ----- ---- -------<br>--- --- -- ----- -- --- ---- -- --- ---- -- ------ ------<br>--- ----- -- ----,114872.10000000149,114871.70000000298,114344.465,114356.39999999851,114360.842,114877.479,,3,to
screen,html.Screen,2_1_0_1_4,2022-02-17T14:54:02.245Z,,,,,,,,,,,,,,,,,53,,,,,,,,,,,,,,475.1210000014835,,response,,,,99,,,,,,,Space,keypress(Space),,,,,,,,---- -- ----- -- having - ------- --- ----------<br>------------- ------ ------ ---- ---- ------- ----- -- ----<br>-------- ------- -- ---------- --- - --- ----- ----- ----<br>---- --- --- ----- --- ---- ---- ------- ----- ---- -------<br>--- --- -- ----- -- --- ---- -- --- ---- -- ------ ------<br>--- ----- -- ----,115353.39999999851,115352.60000000149,114861.16,114872.10000000149,114877.479,115360.811,,4,having
screen,html.Screen,2_1_0_1_5,2022-02-17T14:54:02.674Z,,,,,,,,,,,,,,,,,53,,,,,,,,,,,,,,420.8890000029787,,response,,,,99,,,,,,,Space,keypress(Space),,,,,,,,---- -- ----- -- ------ a ------- --- ----------<br>------------- ------ ------ ---- ---- ------- ----- -- ----<br>-------- ------- -- ---------- --- - --- ----- ----- ----<br>---- --- --- ----- --- ---- ---- ------- ----- ---- -------<br>--- --- -- ----- -- --- ---- -- --- ---- -- ------ ------<br>--- ----- -- ----,115782.89999999851,115781.70000000298,115344.224,115353.5,115360.811,115794.478,,5,a
screen,html.Screen,2_1_0_1_6,2022-02-17T14:54:03.126Z,,,,,,,,,,,,,,,,,53,,,,,,,,,,,,,,439.1220000014873,,response,,,,99,,,,,,,Space,keypress(Space),,,,,,,,---- -- ----- -- ------ - lasting --- ----------<br>------------- ------ ------ ---- ---- ------- ----- -- ----<br>-------- ------- -- ---------- --- - --- ----- ----- ----<br>---- --- --- ----- --- ---- ---- ------- ----- ---- -------<br>--- --- -- ----- -- --- ---- -- --- ---- -- ------ ------<br>--- ----- -- ----,116234.39999999851,116233.60000000149,115777.87,115783,115794.478,116244.181,,6,lasting
screen,html.Screen,2_1_0_1_7,2022-02-17T14:54:03.574Z,,,,,,,,,,,,,,,,,53,,,,,,,,,,,,,,438.1190000044735,,response,,,,99,,,,,,,Space,keypress(Space),,,,,,,,---- -- ----- -- ------ - ------- and ----------<br>------------- ------ ------ ---- ---- ------- ----- -- ----<br>-------- ------- -- ---------- --- - --- ----- ----- ----<br>---- --- --- ----- --- ---- ---- ------- ----- ---- -------<br>--- --- -- ----- -- --- ---- -- --- ---- -- ------ ------<br>--- ----- -- ----,116683.20000000298,116682.30000000447,116227.514,116234.5,116244.181,116694.65,,7,and
screen,html.Screen,2_1_0_1_8,2022-02-17T14:54:03.987Z,,,,,,,,,,,,,,,,,53,,,,,,,,,,,,,,399.95000000149594,,response,,,,99,,,,,,,Space,keypress(Space),,,,,,,,---- -- ----- -- ------ - ------- --- fulfilling<br>------------- ------ ------ ---- ---- ------- ----- -- ----<br>-------- ------- -- ---------- --- - --- ----- ----- ----<br>---- --- --- ----- --- ---- ---- ------- ----- ---- -------<br>--- --- -- ----- -- --- ---- -- --- ---- -- ------ ------<br>--- ----- -- ----,117095.70000000298,117094.60000000149,116677.807,116683.20000000298,116694.65,117110.943,,8,fulfilling
screen,html.Screen,2_1_0_1_9,2022-02-17T14:54:04.376Z,,,,,,,,,,,,,,,,,53,,,,,,,,,,,,,,373.0570000000007,,response,,,,99,,,,,,,Space,keypress(Space),,,,,,,,"---- -- ----- -- ------ - ------- --- ----------<br>relationship, ------ ------ ---- ---- ------- ----- -- ----<br>-------- ------- -- ---------- --- - --- ----- ----- ----<br>---- --- --- ----- --- ---- ---- ------- ----- ---- -------<br>--- --- -- ----- -- --- ---- -- --- ---- -- ------ ------<br>--- ----- -- ----",117484.89999999851,117484,117094.214,117095.89999999851,117110.943,117494.289,,9,"relationship,"
screen,html.Screen,2_1_0_1_10,2022-02-17T14:54:04.821Z,,,,,,,,,,,,,,,,,53,,,,,,,,,,,,,,432.8110000014858,,response,,,,99,,,,,,,Space,keypress(Space),,,,,,,,---- -- ----- -- ------ - ------- --- ----------<br>------------- common ------ ---- ---- ------- ----- -- ----<br>-------- ------- -- ---------- --- - --- ----- ----- ----<br>---- --- --- ----- --- ---- ---- ------- ----- ---- -------<br>--- --- -- ----- -- --- ---- -- --- ---- -- ------ ------<br>--- ----- -- ----,117929.30000000447,117927.10000000149,117477.715,117485,117494.289,117944.434,,10,common
screen,html.Screen,2_1_0_1_11,2022-02-17T14:54:05.215Z,,,,,,,,,,,,,,,,,53,,,,,,,,,,,,,,378.1660000014963,,response,,,,99,,,,,,,Space,keypress(Space),,,,,,,,---- -- ----- -- ------ - ------- --- ----------<br>------------- ------ wisdom ---- ---- ------- ----- -- ----<br>-------- ------- -- ---------- --- - --- ----- ----- ----<br>---- --- --- ----- --- ---- ---- ------- ----- ---- -------<br>--- --- -- ----- -- --- ---- -- --- ---- -- ------ ------<br>--- ----- -- ----,118323.30000000447,118322.60000000149,117927.812,117929.39999999851,117944.434,118327.488,,11,wisdom
screen,html.Screen,2_1_0_1_12,2022-02-17T14:54:05.595Z,,,,,,,,,,,,,,,,,53,,,,,,,,,,,,,,375.8120000044728,,response,,,,99,,,,,,,Space,keypress(Space),,,,,,,,---- -- ----- -- ------ - ------- --- ----------<br>------------- ------ ------ says ---- ------- ----- -- ----<br>-------- ------- -- ---------- --- - --- ----- ----- ----<br>---- --- --- ----- --- ---- ---- ------- ----- ---- -------<br>--- --- -- ----- -- --- ---- -- --- ---- -- ------ ------<br>--- ----- -- ----,118704.10000000149,118703.30000000447,118311.253,118323.39999999851,118327.488,118710.816,,12,says
screen,html.Screen,2_1_0_1_13,2022-02-17T14:54:06.003Z,,,,,,,,,,,,,,,,,53,,,,,,,,,,,,,,400.4840000044642,,response,,,,99,,,,,,,Space,keypress(Space),,,,,,,,---- -- ----- -- ------ - ------- --- ----------<br>------------- ------ ------ ---- that ------- ----- -- ----<br>-------- ------- -- ---------- --- - --- ----- ----- ----<br>---- --- --- ----- --- ---- ---- ------- ----- ---- -------<br>--- --- -- ----- -- --- ---- -- --- ---- -- ------ ------<br>--- ----- -- ----,119112.20000000298,119111.30000000447,118694.186,118704.30000000447,118710.816,119127.757,,13,that
screen,html.Screen,2_1_0_1_14,2022-02-17T14:54:06.397Z,,,,,,,,,,,,,,,,,53,,,,,,,,,,,,,,377.54300000447256,,response,,,,99,,,,,,,Space,keypress(Space),,,,,,,,---- -- ----- -- ------ - ------- --- ----------<br>------------- ------ ------ ---- ---- feeling ----- -- ----<br>-------- ------- -- ---------- --- - --- ----- ----- ----<br>---- --- --- ----- --- ---- ---- ------- ----- ---- -------<br>--- --- -- ----- -- --- ---- -- --- ---- -- ------ ------<br>--- ----- -- ----,119505.80000000447,119505.30000000447,119110.837,119112.30000000447,119127.757,119510.829,,14,feeling
screen,html.Screen,2_1_0_1_15,2022-02-17T14:54:06.796Z,,,,,,,,,,,,,,,,,53,,,,,,,,,,,,,,393.2710000014922,,response,,,,99,,,,,,,Space,keypress(Space),,,,,,,,---- -- ----- -- ------ - ------- --- ----------<br>------------- ------ ------ ---- ---- ------- close -- ----<br>-------- ------- -- ---------- --- - --- ----- ----- ----<br>---- --- --- ----- --- ---- ---- ------- ----- ---- -------<br>--- --- -- ----- -- --- ---- -- --- ---- -- ------ ------<br>--- ----- -- ----,119904.89999999851,119904.10000000149,119494.224,119505.89999999851,119510.829,119910.786,,15,close
screen,html.Screen,2_1_0_1_16,2022-02-17T14:54:07.192Z,,,,,,,,,,,,,,,,,53,,,,,,,,,,,,,,389.51400000447757,,response,,,,99,,,,,,,Space,keypress(Space),,,,,,,,---- -- ----- -- ------ - ------- --- ----------<br>------------- ------ ------ ---- ---- ------- ----- to ----<br>-------- ------- -- ---------- --- - --- ----- ----- ----<br>---- --- --- ----- --- ---- ---- ------- ----- ---- -------<br>--- --- -- ----- -- --- ---- -- --- ---- -- ------ ------<br>--- ----- -- ----,120301.10000000149,120300.30000000447,119894.126,119905,119910.786,120310.747,,16,to
screen,html.Screen,2_1_0_1_17,2022-02-17T14:54:07.608Z,,,,,,,,,,,,,,,,,53,,,,,,,,,,,,,,405.4530000029772,,response,,,,99,,,,,,,Space,keypress(Space),,,,,,,,---- -- ----- -- ------ - ------- --- ----------<br>------------- ------ ------ ---- ---- ------- ----- -- your<br>-------- ------- -- ---------- --- - --- ----- ----- ----<br>---- --- --- ----- --- ---- ---- ------- ----- ---- -------<br>--- --- -- ----- -- --- ---- -- --- ---- -- ------ ------<br>--- ----- -- ----,120716.89999999851,120716.20000000298,120294.628,120301.20000000298,120310.747,120727.527,,17,your
screen,html.Screen,2_1_0_1_18,2022-02-17T14:54:08.098Z,,,,,,,,,,,,,,,,,53,,,,,,,,,,,,,,477.97299999999814,,response,,,,99,,,,,,,Space,keypress(Space),,,,,,,,---- -- ----- -- ------ - ------- --- ----------<br>------------- ------ ------ ---- ---- ------- ----- -- ----<br>romantic ------- -- ---------- --- - --- ----- ----- ----<br>---- --- --- ----- --- ---- ---- ------- ----- ---- -------<br>--- --- -- ----- -- --- ---- -- --- ---- -- ------ ------<br>--- ----- -- ----,121206.30000000447,121205.5,120711.019,120717.10000000149,120727.527,121210.75,,18,romantic
screen,html.Screen,2_1_0_1_19,2022-02-17T14:54:08.534Z,,,,,,,,,,,,,,,,,53,,,,,,,,,,,,,,431.1499999985099,,response,,,,99,,,,,,,Space,keypress(Space),,,,,,,,---- -- ----- -- ------ - ------- --- ----------<br>------------- ------ ------ ---- ---- ------- ----- -- ----<br>-------- partner -- ---------- --- - --- ----- ----- ----<br>---- --- --- ----- --- ---- ---- ------- ----- ---- -------<br>--- --- -- ----- -- --- ---- -- --- ---- -- ------ ------<br>--- ----- -- ----,121643.10000000149,121641.89999999851,121194.208,121206.39999999851,121210.75,121661.881,,19,partner
screen,html.Screen,2_1_0_1_20,2022-02-17T14:54:08.922Z,,,,,,,,,,,,,,,,,53,,,,,,,,,,,,,,368.21900000149617,,response,,,,99,,,,,,,Space,keypress(Space),,,,,,,,---- -- ----- -- ------ - ------- --- ----------<br>------------- ------ ------ ---- ---- ------- ----- -- ----<br>-------- ------- is ---------- --- - --- ----- ----- ----<br>---- --- --- ----- --- ---- ---- ------- ----- ---- -------<br>--- --- -- ----- -- --- ---- -- --- ---- -- ------ ------<br>--- ----- -- ----,122031,122030.10000000149,121627.558,121643.20000000298,121661.881,122044.28,,20,is
screen,html.Screen,2_1_0_1_21,2022-02-17T14:54:09.324Z,,,,,,,,,,,,,,,,,53,,,,,,,,,,,,,,387.4200000029814,,response,,,,99,,,,,,,Space,keypress(Space),,,,,,,,---- -- ----- -- ------ - ------- --- ----------<br>------------- ------ ------ ---- ---- ------- ----- -- ----<br>-------- ------- -- paramount. --- - --- ----- ----- ----<br>---- --- --- ----- --- ---- ---- ------- ----- ---- -------<br>--- --- -- ----- -- --- ---- -- --- ---- -- ------ ------<br>--- ----- -- ----,122432.80000000447,122431.70000000298,122027.489,122031.20000000298,122044.28,122444.352,,21,paramount.
screen,html.Screen,2_1_0_1_22,2022-02-17T14:54:09.715Z,,,,,,,,,,,,,,,,,53,,,,,,,,,,,,,,377.8480000029813,,response,,,,99,,,,,,,Space,keypress(Space),,,,,,,,---- -- ----- -- ------ - ------- --- ----------<br>------------- ------ ------ ---- ---- ------- ----- -- ----<br>-------- ------- -- ---------- But - --- ----- ----- ----<br>---- --- --- ----- --- ---- ---- ------- ----- ---- -------<br>--- --- -- ----- -- --- ---- -- --- ---- -- ------ ------<br>--- ----- -- ----,122823.30000000447,122822.20000000298,122427.475,122433,122444.352,122827.824,,22,But
screen,html.Screen,2_1_0_1_23,2022-02-17T14:54:10.116Z,,,,,,,,,,,,,,,,,53,,,,,,,,,,,,,,396.07599999851664,,response,,,,99,,,,,,,Space,keypress(Space),,,,,,,,---- -- ----- -- ------ - ------- --- ----------<br>------------- ------ ------ ---- ---- ------- ----- -- ----<br>-------- ------- -- ---------- --- a --- ----- ----- ----<br>---- --- --- ----- --- ---- ---- ------- ----- ---- -------<br>--- --- -- ----- -- --- ---- -- --- ---- -- ------ ------<br>--- ----- -- ----,123224.70000000298,123223.89999999851,122810.869,122823.5,122827.824,123227.517,,23,a
screen,html.Screen,2_1_0_1_24,2022-02-17T14:54:10.453Z,,,,,,,,,,,,,,,,,53,,,,,,,,,,,,,,333.68300000297313,,response,,,,99,,,,,,,Space,keypress(Space),,,,,,,,---- -- ----- -- ------ - ------- --- ----------<br>------------- ------ ------ ---- ---- ------- ----- -- ----<br>-------- ------- -- ---------- --- - new ----- ----- ----<br>---- --- --- ----- --- ---- ---- ------- ----- ---- -------<br>--- --- -- ----- -- --- ---- -- --- ---- -- ------ ------<br>--- ----- -- ----,123562,123561.20000000298,123210.868,123224.89999999851,123227.517,123577.529,,24,new
screen,html.Screen,2_1_0_1_25,2022-02-17T14:54:10.838Z,,,,,,,,,,,,,,,,,53,,,,,,,,,,,,,,368.471000000005,,response,,,,99,,,,,,,Space,keypress(Space),,,,,,,,---- -- ----- -- ------ - ------- --- ----------<br>------------- ------ ------ ---- ---- ------- ----- -- ----<br>-------- ------- -- ---------- --- - --- study ----- ----<br>---- --- --- ----- --- ---- ---- ------- ----- ---- -------<br>--- --- -- ----- -- --- ---- -- --- ---- -- ------ ------<br>--- ----- -- ----,123947.10000000149,123946,123560.898,123562.10000000149,123577.529,123960.779,,25,study
screen,html.Screen,2_1_0_1_26,2022-02-17T14:54:11.209Z,,,,,,,,,,,,,,,,,53,,,,,,,,,,,,,,355.1209999985149,,response,,,,99,,,,,,,Space,keypress(Space),,,,,,,,---- -- ----- -- ------ - ------- --- ----------<br>------------- ------ ------ ---- ---- ------- ----- -- ----<br>-------- ------- -- ---------- --- - --- ----- finds ----<br>---- --- --- ----- --- ---- ---- ------- ----- ---- -------<br>--- --- -- ----- -- --- ---- -- --- ---- -- ------ ------<br>--- ----- -- ----,124317.70000000298,124315.89999999851,123944.19,123947.20000000298,123960.779,124327.484,,26,finds
screen,html.Screen,2_1_0_1_27,2022-02-17T14:54:11.579Z,,,,,,,,,,,,,,,,,53,,,,,,,,,,,,,,359.1160000014934,,response,,,,99,,,,,,,Space,keypress(Space),,,,,,,,---- -- ----- -- ------ - ------- --- ----------<br>------------- ------ ------ ---- ---- ------- ----- -- ----<br>-------- ------- -- ---------- --- - --- ----- ----- that<br>---- --- --- ----- --- ---- ---- ------- ----- ---- -------<br>--- --- -- ----- -- --- ---- -- --- ---- -- ------ ------<br>--- ----- -- ----,124687.70000000298,124686.60000000149,124311.126,124318,124327.484,124694.098,,27,that
screen,html.Screen,2_1_0_1_28,2022-02-17T14:54:11.991Z,,,,,,,,,,,,,,,,,53,,,,,,,,,,,,,,405.1020000029821,,response,,,,99,,,,,,,Space,keypress(Space),,,,,,,,---- -- ----- -- ------ - ------- --- ----------<br>------------- ------ ------ ---- ---- ------- ----- -- ----<br>-------- ------- -- ---------- --- - --- ----- ----- ----<br>it's --- --- ----- --- ---- ---- ------- ----- ---- -------<br>--- --- -- ----- -- --- ---- -- --- ---- -- ------ ------<br>--- ----- -- ----,125100.10000000149,125099.20000000298,124677.789,124687.89999999851,124694.098,125110.903,,28,it's
screen,html.Screen,2_1_0_1_29,2022-02-17T14:54:12.343Z,,,,,,,,,,,,,,,,,53,,,,,,,,,,,,,,339.7970000029745,,response,,,,99,,,,,,,Space,keypress(Space),,,,,,,,---- -- ----- -- ------ - ------- --- ----------<br>------------- ------ ------ ---- ---- ------- ----- -- ----<br>-------- ------- -- ---------- --- - --- ----- ----- ----<br>---- not --- ----- --- ---- ---- ------- ----- ---- -------<br>--- --- -- ----- -- --- ---- -- --- ---- -- ------ ------<br>--- ----- -- ----,125451.39999999851,125450.70000000298,125094.459,125100.20000000298,125110.903,125460.853,,29,not
screen,html.Screen,2_1_0_1_30,2022-02-17T14:54:12.710Z,,,,,,,,,,,,,,,,,53,,,,,,,,,,,,,,356.84700000297744,,response,,,,99,,,,,,,Space,keypress(Space),,,,,,,,---- -- ----- -- ------ - ------- --- ----------<br>------------- ------ ------ ---- ---- ------- ----- -- ----<br>-------- ------- -- ---------- --- - --- ----- ----- ----<br>---- --- how ----- --- ---- ---- ------- ----- ---- -------<br>--- --- -- ----- -- --- ---- -- --- ---- -- ------ ------<br>--- ----- -- ----,125818.89999999851,125817.70000000298,125444.546,125451.5,125460.853,125827.516,,30,how
screen,html.Screen,2_1_0_1_31,2022-02-17T14:54:13.075Z,,,,,,,,,,,,,,,,,53,,,,,,,,,,,,,,354.98399999999674,,response,,,,99,,,,,,,Space,keypress(Space),,,,,,,,---- -- ----- -- ------ - ------- --- ----------<br>------------- ------ ------ ---- ---- ------- ----- -- ----<br>-------- ------- -- ---------- --- - --- ----- ----- ----<br>---- --- --- close --- ---- ---- ------- ----- ---- -------<br>--- --- -- ----- -- --- ---- -- --- ---- -- ------ ------<br>--- ----- -- ----,126183.60000000149,126182.5,125811.126,125819.10000000149,125827.516,126194.577,,31,close
screen,html.Screen,2_1_0_1_32,2022-02-17T14:54:13.450Z,,,,,,,,,,,,,,,,,53,,,,,,,,,,,,,,363.8229999985051,,response,,,,99,,,,,,,Space,keypress(Space),,,,,,,,---- -- ----- -- ------ - ------- --- ----------<br>------------- ------ ------ ---- ---- ------- ----- -- ----<br>-------- ------- -- ---------- --- - --- ----- ----- ----<br>---- --- --- ----- you ---- ---- ------- ----- ---- -------<br>--- --- -- ----- -- --- ---- -- --- ---- -- ------ ------<br>--- ----- -- ----,126559.10000000149,126558.39999999851,126177.519,126183.80000000447,126194.577,126560.81,,32,you
screen,html.Screen,2_1_0_1_33,2022-02-17T14:54:13.805Z,,,,,,,,,,,,,,,,,53,,,,,,,,,,,,,,352.29000000149244,,response,,,,99,,,,,,,Space,keypress(Space),,,,,,,,---- -- ----- -- ------ - ------- --- ----------<br>------------- ------ ------ ---- ---- ------- ----- -- ----<br>-------- ------- -- ---------- --- - --- ----- ----- ----<br>---- --- --- ----- --- feel ---- ------- ----- ---- -------<br>--- --- -- ----- -- --- ---- -- --- ---- -- ------ ------<br>--- ----- -- ----,126913.70000000298,126913.10000000149,126544.286,126559.20000000298,126560.81,126927.853,,33,feel
screen,html.Screen,2_1_0_1_34,2022-02-17T14:54:14.190Z,,,,,,,,,,,,,,,,,53,,,,,,,,,,,,,,369.84700000297744,,response,,,,99,,,,,,,Space,keypress(Space),,,,,,,,---- -- ----- -- ------ - ------- --- ----------<br>------------- ------ ------ ---- ---- ------- ----- -- ----<br>-------- ------- -- ---------- --- - --- ----- ----- ----<br>---- --- --- ----- --- ---- that ------- ----- ---- -------<br>--- --- -- ----- -- --- ---- -- --- ---- -- ------ ------<br>--- ----- -- ----,127298.39999999851,127297.70000000298,126911.129,126913.89999999851,126927.853,127311.156,,34,that
screen,html.Screen,2_1_0_1_35,2022-02-17T14:54:14.599Z,,,,,,,,,,,,,,,,,53,,,,,,,,,,,,,,395.44400000148744,,response,,,,99,,,,,,,Space,keypress(Space),,,,,,,,---- -- ----- -- ------ - ------- --- ----------<br>------------- ------ ------ ---- ---- ------- ----- -- ----<br>-------- ------- -- ---------- --- - --- ----- ----- ----<br>---- --- --- ----- --- ---- ---- matters ----- ---- -------<br>--- --- -- ----- -- --- ---- -- --- ---- -- ------ ------<br>--- ----- -- ----,127707.39999999851,127706.60000000149,127294.482,127298.60000000149,127311.156,127710.918,,35,matters
screen,html.Screen,2_1_0_1_36,2022-02-17T14:54:15.049Z,,,,,,,,,,,,,,,,,53,,,,,,,,,,,,,,445.3820000044652,,response,,,,99,,,,,,,Space,keypress(Space),,,,,,,,"---- -- ----- -- ------ - ------- --- ----------<br>------------- ------ ------ ---- ---- ------- ----- -- ----<br>-------- ------- -- ---------- --- - --- ----- ----- ----<br>---- --- --- ----- --- ---- ---- ------- most, ---- -------<br>--- --- -- ----- -- --- ---- -- --- ---- -- ------ ------<br>--- ----- -- ----",128157.60000000149,128156.30000000447,127694.501,127707.60000000149,127710.918,128160.822,,36,"most,"
screen,html.Screen,2_1_0_1_37,2022-02-17T14:54:15.455Z,,,,,,,,,,,,,,,,,53,,,,,,,,,,,,,,402.3780000029801,,response,,,,99,,,,,,,Space,keypress(Space),,,,,,,,---- -- ----- -- ------ - ------- --- ----------<br>------------- ------ ------ ---- ---- ------- ----- -- ----<br>-------- ------- -- ---------- --- - --- ----- ----- ----<br>---- --- --- ----- --- ---- ---- ------- ----- it's -------<br>--- --- -- ----- -- --- ---- -- --- ---- -- ------ ------<br>--- ----- -- ----,128564.10000000149,128563.20000000298,128144.527,128157.70000000298,128160.822,128577.912,,37,it's
screen,html.Screen,2_1_0_1_38,2022-02-17T14:54:15.839Z,,,,,,,,,,,,,,,,,53,,,,,,,,,,,,,,368.1880000014935,,response,,,,99,,,,,,,Space,keypress(Space),,,,,,,,---- -- ----- -- ------ - ------- --- ----------<br>------------- ------ ------ ---- ---- ------- ----- -- ----<br>-------- ------- -- ---------- --- - --- ----- ----- ----<br>---- --- --- ----- --- ---- ---- ------- ----- ---- whether<br>--- --- -- ----- -- --- ---- -- --- ---- -- ------ ------<br>--- ----- -- ----,128947.89999999851,128946.10000000149,128561.127,128564.20000000298,128577.912,128960.926,,38,whether
screen,html.Screen,2_1_0_1_39,2022-02-17T14:54:16.199Z,,,,,,,,,,,,,,,,,53,,,,,,,,,,,,,,345.3740000044636,,response,,,,99,,,,,,,Space,keypress(Space),,,,,,,,---- -- ----- -- ------ - ------- --- ----------<br>------------- ------ ------ ---- ---- ------- ----- -- ----<br>-------- ------- -- ---------- --- - --- ----- ----- ----<br>---- --- --- ----- --- ---- ---- ------- ----- ---- -------<br>you --- -- ----- -- --- ---- -- --- ---- -- ------ ------<br>--- ----- -- ----,129308.10000000149,129306.30000000447,128944.085,128948.10000000149,128960.926,129310.767,,39,you
screen,html.Screen,2_1_0_1_40,2022-02-17T14:54:16.559Z,,,,,,,,,,,,,,,,,53,,,,,,,,,,,,,,355.2329999999929,,response,,,,99,,,,,,,Space,keypress(Space),,,,,,,,---- -- ----- -- ------ - ------- --- ----------<br>------------- ------ ------ ---- ---- ------- ----- -- ----<br>-------- ------- -- ---------- --- - --- ----- ----- ----<br>---- --- --- ----- --- ---- ---- ------- ----- ---- -------<br>--- are -- ----- -- --- ---- -- --- ---- -- ------ ------<br>--- ----- -- ----,129667.5,129666,129294.44,129308.30000000447,129310.767,129677.533,,40,are
screen,html.Screen,2_1_0_1_41,2022-02-17T14:54:16.907Z,,,,,,,,,,,,,,,,,53,,,,,,,,,,,,,,336.8669999985141,,response,,,,99,,,,,,,Space,keypress(Space),,,,,,,,---- -- ----- -- ------ - ------- --- ----------<br>------------- ------ ------ ---- ---- ------- ----- -- ----<br>-------- ------- -- ---------- --- - --- ----- ----- ----<br>---- --- --- ----- --- ---- ---- ------- ----- ---- -------<br>--- --- as ----- -- --- ---- -- --- ---- -- ------ ------<br>--- ----- -- ----,130015.70000000298,130014.39999999851,129661.249,129667.70000000298,129677.533,130027.594,,41,as
screen,html.Screen,2_1_0_1_42,2022-02-17T14:54:17.257Z,,,,,,,,,,,,,,,,,53,,,,,,,,,,,,,,337.0060000014928,,response,,,,99,,,,,,,Space,keypress(Space),,,,,,,,---- -- ----- -- ------ - ------- --- ----------<br>------------- ------ ------ ---- ---- ------- ----- -- ----<br>-------- ------- -- ---------- --- - --- ----- ----- ----<br>---- --- --- ----- --- ---- ---- ------- ----- ---- -------<br>--- --- -- close -- --- ---- -- --- ---- -- ------ ------<br>--- ----- -- ----,130365.20000000298,130364.60000000149,130010.857,130015.80000000447,130027.594,130377.77,,42,close
screen,html.Screen,2_1_0_1_43,2022-02-17T14:54:17.626Z,,,,,,,,,,,,,,,,,53,,,,,,,,,,,,,,355.33000000148604,,response,,,,99,,,,,,,Space,keypress(Space),,,,,,,,---- -- ----- -- ------ - ------- --- ----------<br>------------- ------ ------ ---- ---- ------- ----- -- ----<br>-------- ------- -- ---------- --- - --- ----- ----- ----<br>---- --- --- ----- --- ---- ---- ------- ----- ---- -------<br>--- --- -- ----- as --- ---- -- --- ---- -- ------ ------<br>--- ----- -- ----,130734.20000000298,130733.10000000149,130360.755,130365.30000000447,130377.77,130744.399,,43,as
screen,html.Screen,2_1_0_1_44,2022-02-17T14:54:17.972Z,,,,,,,,,,,,,,,,,53,,,,,,,,,,,,,,335.6009999999951,,response,,,,99,,,,,,,Space,keypress(Space),,,,,,,,---- -- ----- -- ------ - ------- --- ----------<br>------------- ------ ------ ---- ---- ------- ----- -- ----<br>-------- ------- -- ---------- --- - --- ----- ----- ----<br>---- --- --- ----- --- ---- ---- ------- ----- ---- -------<br>--- --- -- ----- -- you ---- -- --- ---- -- ------ ------<br>--- ----- -- ----,131080.6000000015,131080,130727.51,130734.39999999851,130744.399,131094.234,,44,you
screen,html.Screen,2_1_0_1_45,2022-02-17T14:54:18.357Z,,,,,,,,,,,,,,,,,53,,,,,,,,,,,,,,371.16599999851314,,response,,,,99,,,,,,,Space,keypress(Space),,,,,,,,---- -- ----- -- ------ - ------- --- ----------<br>------------- ------ ------ ---- ---- ------- ----- -- ----<br>-------- ------- -- ---------- --- - --- ----- ----- ----<br>---- --- --- ----- --- ---- ---- ------- ----- ---- -------<br>--- --- -- ----- -- --- want -- --- ---- -- ------ ------<br>--- ----- -- ----,131466,131465.3999999985,131077.783,131080.70000000298,131094.234,131477.6,,45,want
screen,html.Screen,2_1_0_1_46,2022-02-17T14:54:18.728Z,,,,,,,,,,,,,,,,,53,,,,,,,,,,,,,,357.8999999999942,,response,,,,99,,,,,,,Space,keypress(Space),,,,,,,,---- -- ----- -- ------ - ------- --- ----------<br>------------- ------ ------ ---- ---- ------- ----- -- ----<br>-------- ------- -- ---------- --- - --- ----- ----- ----<br>---- --- --- ----- --- ---- ---- ------- ----- ---- -------<br>--- --- -- ----- -- --- ---- to --- ---- -- ------ ------<br>--- ----- -- ----,131836.30000000447,131835.5,131461.183,131466.1000000015,131477.6,131844.153,,46,to
screen,html.Screen,2_1_0_1_47,2022-02-17T14:54:19.083Z,,,,,,,,,,,,,,,,,53,,,,,,,,,,,,,,346.5470000029891,,response,,,,99,,,,,,,Space,keypress(Space),,,,,,,,"---- -- ----- -- ------ - ------- --- ----------<br>------------- ------ ------ ---- ---- ------- ----- -- ----<br>-------- ------- -- ---------- --- - --- ----- ----- ----<br>---- --- --- ----- --- ---- ---- ------- ----- ---- -------<br>--- --- -- ----- -- --- ---- -- be, ---- -- ------ ------<br>--- ----- -- ----",132191.6000000015,132190.70000000298,131827.701,131836.3999999985,131844.153,132194.155,,47,"be,"
screen,html.Screen,2_1_0_1_48,2022-02-17T14:54:19.518Z,,,,,,,,,,,,,,,,,53,,,,,,,,,,,,,,432.0450000029814,,response,,,,99,,,,,,,Space,keypress(Space),,,,,,,,---- -- ----- -- ------ - ------- --- ----------<br>------------- ------ ------ ---- ---- ------- ----- -- ----<br>-------- ------- -- ---------- --- - --- ----- ----- ----<br>---- --- --- ----- --- ---- ---- ------- ----- ---- -------<br>--- --- -- ----- -- --- ---- -- --- even -- ------ ------<br>--- ----- -- ----,132627.1000000015,132626.20000000298,132177.793,132191.80000000447,132194.155,132644.726,,48,even
screen,html.Screen,2_1_0_1_49,2022-02-17T14:54:19.882Z,,,,,,,,,,,,,,,,,53,,,,,,,,,,,,,,344.6739999985148,,response,,,,99,,,,,,,Space,keypress(Space),,,,,,,,---- -- ----- -- ------ - ------- --- ----------<br>------------- ------ ------ ---- ---- ------- ----- -- ----<br>-------- ------- -- ---------- --- - --- ----- ----- ----<br>---- --- --- ----- --- ---- ---- ------- ----- ---- -------<br>--- --- -- ----- -- --- ---- -- --- ---- if ------ ------<br>--- ----- -- ----,132990.30000000447,132989.3999999985,132627.47,132627.30000000447,132644.726,132994.273,,49,if
screen,html.Screen,2_1_0_1_50,2022-02-17T14:54:20.273Z,,,,,,,,,,,,,,,,,53,,,,,,,,,,,,,,386.7270000000135,,response,,,,99,,,,,,,Space,keypress(Space),,,,,,,,---- -- ----- -- ------ - ------- --- ----------<br>------------- ------ ------ ---- ---- ------- ----- -- ----<br>-------- ------- -- ---------- --- - --- ----- ----- ----<br>---- --- --- ----- --- ---- ---- ------- ----- ---- -------<br>--- --- -- ----- -- --- ---- -- --- ---- -- that's ------<br>--- ----- -- ----,133381.5,133381,132977.788,132990.5,132994.273,133394.391,,50,that's
screen,html.Screen,2_1_0_1_51,2022-02-17T14:54:20.656Z,,,,,,,,,,,,,,,,,53,,,,,,,,,,,,,,369.20900000148686,,response,,,,99,,,,,,,Space,keypress(Space),,,,,,,,---- -- ----- -- ------ - ------- --- ----------<br>------------- ------ ------ ---- ---- ------- ----- -- ----<br>-------- ------- -- ---------- --- - --- ----- ----- ----<br>---- --- --- ----- --- ---- ---- ------- ----- ---- -------<br>--- --- -- ----- -- --- ---- -- --- ---- -- ------ really<br>--- ----- -- ----,133764.3999999985,133763.6000000015,133377.862,133381.6000000015,133394.391,133777.528,,51,really
screen,html.Screen,2_1_0_1_52,2022-02-17T14:54:21.059Z,,,,,,,,,,,,,,,,,53,,,,,,,,,,,,,,389.47200000000885,,response,,,,99,,,,,,,Space,keypress(Space),,,,,,,,---- -- ----- -- ------ - ------- --- ----------<br>------------- ------ ------ ---- ---- ------- ----- -- ----<br>-------- ------- -- ---------- --- - --- ----- ----- ----<br>---- --- --- ----- --- ---- ---- ------- ----- ---- -------<br>--- --- -- ----- -- --- ---- -- --- ---- -- ------ ------<br>not ----- -- ----,134167.5,134167,133761.173,133764.6000000015,133777.528,134177.618,,52,not
screen,html.Screen,2_1_0_1_53,2022-02-17T14:54:21.424Z,,,,,,,,,,,,,,,,,53,,,,,,,,,,,,,,353.98200000150246,,response,,,,99,,,,,,,Space,keypress(Space),,,,,,,,---- -- ----- -- ------ - ------- --- ----------<br>------------- ------ ------ ---- ---- ------- ----- -- ----<br>-------- ------- -- ---------- --- - --- ----- ----- ----<br>---- --- --- ----- --- ---- ---- ------- ----- ---- -------<br>--- --- -- ----- -- --- ---- -- --- ---- -- ------ ------<br>--- close -- ----,134532.5,134531.6000000015,134160.873,134167.6000000015,134177.618,134544.182,,53,close
screen,html.Screen,2_1_0_1_54,2022-02-17T14:54:21.811Z,,,,,,,,,,,,,,,,,53,,,,,,,,,,,,,,374.9180000014894,,response,,,,99,,,,,,,Space,keypress(Space),,,,,,,,---- -- ----- -- ------ - ------- --- ----------<br>------------- ------ ------ ---- ---- ------- ----- -- ----<br>-------- ------- -- ---------- --- - --- ----- ----- ----<br>---- --- --- ----- --- ---- ---- ------- ----- ---- -------<br>--- --- -- ----- -- --- ---- -- --- ---- -- ------ ------<br>--- ----- at ----,134919.70000000298,134919.1000000015,134527.774,134532.5,134544.182,134927.517,,54,at
screen,html.Screen,2_1_0_1_55,2022-02-17T14:54:22.147Z,,,,,,,,,,,,,,,,,53,,,,,,,,,,,,,,327.48300000000745,,response,,,,99,,,,,,,Space,keypress(Space),,,,,,,,---- -- ----- -- ------ - ------- --- ----------<br>------------- ------ ------ ---- ---- ------- ----- -- ----<br>-------- ------- -- ---------- --- - --- ----- ----- ----<br>---- --- --- ----- --- ---- ---- ------- ----- ---- -------<br>--- --- -- ----- -- --- ---- -- --- ---- -- ------ ------<br>--- ----- -- all.,135255.6000000015,135255,134911.11,134919.80000000447,134927.517,135260.788,,55,all.
Item 99,flow.Loop,2_1_0_1,2022-02-17T14:54:22.147Z,,,,,,,,,,,,,,,,,,,,,,,,,,,,,,,22544.184999999998,,completion,,,,,E,,,,,,,,,,,silence,,,,,135255.80000000447,135255,112694.251,112695.30000000447,112710.815,135260.788,,,
Question 1,html.Screen,2_1_0_2,2022-02-17T14:54:32.979Z,,,,,,,,,,,,,,,,,,,,,,,,,,,,false,FALSE,,10826.212,,response,,,,99,E,,,,,,TRUE,click #choice-1,,,,silence,,,,,146088,146087,135244.123,135255.8999999985,135260.788,146094.073,,,
Question 2,html.Screen,2_1_0_3,2022-02-17T14:54:38.683Z,,,,,,,,,,,,,,,,,,,,,,,,,,,,true,TRUE,,5696.826999998506,,response,,,,99,E,,,,,,TRUE,click #choice-1,,,,silence,,,,,151791.8999999985,151790.8999999985,146077.982,146088.80000000447,146094.073,151794.679,,,
Item 99,flow.Sequence,2_1_0,2022-02-17T14:54:38.683Z,,,,,,,,,,,,,,,,,,,,,,,,,,,,,,,49080.124999998516,,completion,,,,,,,,,,,,,,,,,,,,,151792,151790.8999999985,102694.213,102696.70000000298,102710.775,151794.679,,,
Holding screen,html.Screen,2_1_1_0,2022-02-17T14:54:48.670Z,,,,,,,,,,,,,,,,,,,,,,,,,,,,,,,9999.476999999984,,timeout,,,,,,,,,,,,,,,,,,,,,161778.3999999985,161777.765,151777.862,151792,151794.679,161794.156,,,
screen,html.Screen,2_1_1_1_0,2022-02-17T14:54:49.265Z,,,,,,,,,,,,,,,,,54,,,,,,,,,,,,,,578.3440000000119,,response,,,,100,,,,,,,Space,keypress(Space),,,,,,,,At --- ---- --- ------ ----- ------- ---- -- --- ------- --<br>------- ---------- ------ -- ----- -- ----- -- ---- ------<br>--- ----- --- --- ------ -------- ----- --- ------ ----- --<br>----- ----- ---------- --- --- ------ ------ ---- -- ------<br>------- --- ------ ----- --- ---- ------- -- ---- --- --<br>------- ------,162373.70000000298,162372.5,161777.765,161778.6000000015,161794.156,162377.53,,0,At
screen,html.Screen,2_1_1_1_1,2022-02-17T14:54:49.545Z,,,,,,,,,,,,,,,,,54,,,,,,,,,,,,,,275.1700000029814,,response,,,,100,,,,,,,Space,keypress(Space),,,,,,,,-- the ---- --- ------ ----- ------- ---- -- --- ------- --<br>------- ---------- ------ -- ----- -- ----- -- ---- ------<br>--- ----- --- --- ------ -------- ----- --- ------ ----- --<br>----- ----- ---------- --- --- ------ ------ ---- -- ------<br>------- --- ------ ----- --- ---- ------- -- ---- --- --<br>------- ------,162653.70000000298,162652.70000000298,162361.132,162373.70000000298,162377.53,162660.778,,1,the
screen,html.Screen,2_1_1_1_2,2022-02-17T14:54:49.810Z,,,,,,,,,,,,,,,,,54,,,,,,,,,,,,,,257.0220000044792,,response,,,,100,,,,,,,Space,keypress(Space),,,,,,,,-- --- time --- ------ ----- ------- ---- -- --- ------- --<br>------- ---------- ------ -- ----- -- ----- -- ---- ------<br>--- ----- --- --- ------ -------- ----- --- ------ ----- --<br>----- ----- ---------- --- --- ------ ------ ---- -- ------<br>------- --- ------ ----- --- ---- ------- -- ---- --- --<br>------- ------,162918.6000000015,162917.80000000447,162644.063,162653.80000000447,162660.778,162927.448,,2,time
screen,html.Screen,2_1_1_1_3,2022-02-17T14:54:50.104Z,,,,,,,,,,,,,,,,,54,,,,,,,,,,,,,,284.2520000029763,,response,,,,100,,,,,,,Space,keypress(Space),,,,,,,,-- --- ---- the ------ ----- ------- ---- -- --- ------- --<br>------- ---------- ------ -- ----- -- ----- -- ---- ------<br>--- ----- --- --- ------ -------- ----- --- ------ ----- --<br>----- ----- ---------- --- --- ------ ------ ---- -- ------<br>------- --- ------ ----- --- ---- ------- -- ---- --- --<br>------- ------,163212.80000000447,163211.70000000298,162911.083,162918.80000000447,162927.448,163227.803,,3,the
screen,html.Screen,2_1_1_1_4,2022-02-17T14:54:50.402Z,,,,,,,,,,,,,,,,,54,,,,,,,,,,,,,,281.8970000029658,,response,,,,100,,,,,,,Space,keypress(Space),,,,,,,,-- --- ---- --- French ----- ------- ---- -- --- ------- --<br>------- ---------- ------ -- ----- -- ----- -- ---- ------<br>--- ----- --- --- ------ -------- ----- --- ------ ----- --<br>----- ----- ---------- --- --- ------ ------ ---- -- ------<br>------- --- ------ ----- --- ---- ------- -- ---- --- --<br>------- ------,163510.5,163509.70000000298,163211.283,163213,163227.803,163527.454,,4,French
screen,html.Screen,2_1_1_1_5,2022-02-17T14:54:50.686Z,,,,,,,,,,,,,,,,,54,,,,,,,,,,,,,,266.5460000000021,,response,,,,100,,,,,,,Space,keypress(Space),,,,,,,,-- --- ---- --- ------ crown ------- ---- -- --- ------- --<br>------- ---------- ------ -- ----- -- ----- -- ---- ------<br>--- ----- --- --- ------ -------- ----- --- ------ ----- --<br>----- ----- ---------- --- --- ------ ------ ---- -- ------<br>------- --- ------ ----- --- ---- ------- -- ---- --- --<br>------- ------,163795,163794,163510.77,163510.70000000298,163527.454,163810.823,,5,crown
screen,html.Screen,2_1_1_1_6,2022-02-17T14:54:50.992Z,,,,,,,,,,,,,,,,,54,,,,,,,,,,,,,,289.17699999999604,,response,,,,100,,,,,,,Space,keypress(Space),,,,,,,,-- --- ---- --- ------ ----- secured ---- -- --- ------- --<br>------- ---------- ------ -- ----- -- ----- -- ---- ------<br>--- ----- --- --- ------ -------- ----- --- ------ ----- --<br>----- ----- ---------- --- --- ------ ------ ---- -- ------<br>------- --- ------ ----- --- ---- ------- -- ---- --- --<br>------- ------,164100.8999999985,164100,163794.182,163795.20000000298,163810.823,164110.701,,6,secured
screen,html.Screen,2_1_1_1_7,2022-02-17T14:54:51.276Z,,,,,,,,,,,,,,,,,54,,,,,,,,,,,,,,273.0990000044694,,response,,,,100,,,,,,,Space,keypress(Space),,,,,,,,-- --- ---- --- ------ ----- ------- much -- --- ------- --<br>------- ---------- ------ -- ----- -- ----- -- ---- ------<br>--- ----- --- --- ------ -------- ----- --- ------ ----- --<br>----- ----- ---------- --- --- ------ ------ ---- -- ------<br>------- --- ------ ----- --- ---- ------- -- ---- --- --<br>------- ------,164384.8999999985,164383.80000000447,164094.409,164101,164110.701,164394.12,,7,much
screen,html.Screen,2_1_1_1_8,2022-02-17T14:54:51.560Z,,,,,,,,,,,,,,,,,54,,,,,,,,,,,,,,273.5800000029849,,response,,,,100,,,,,,,Space,keypress(Space),,,,,,,,-- --- ---- --- ------ ----- ------- ---- of --- ------- --<br>------- ---------- ------ -- ----- -- ----- -- ---- ------<br>--- ----- --- --- ------ -------- ----- --- ------ ----- --<br>----- ----- ---------- --- --- ------ ------ ---- -- ------<br>------- --- ------ ----- --- ---- ------- -- ---- --- --<br>------- ------,164668.20000000298,164667.70000000298,164377.745,164385,164394.12,164677.773,,8,of
screen,html.Screen,2_1_1_1_9,2022-02-17T14:54:51.828Z,,,,,,,,,,,,,,,,,54,,,,,,,,,,,,,,258.3270000015036,,response,,,,100,,,,,,,Space,keypress(Space),,,,,,,,-- --- ---- --- ------ ----- ------- ---- -- its ------- --<br>------- ---------- ------ -- ----- -- ----- -- ---- ------<br>--- ----- --- --- ------ -------- ----- --- ------ ----- --<br>----- ----- ---------- --- --- ------ ------ ---- -- ------<br>------- --- ------ ----- --- ---- ------- -- ---- --- --<br>------- ------,164936.8999999985,164936.1000000015,164660.746,164668.20000000298,164677.773,164944.111,,9,its
screen,html.Screen,2_1_1_1_10,2022-02-17T14:54:52.100Z,,,,,,,,,,,,,,,,,54,,,,,,,,,,,,,,263.78899999850546,,response,,,,100,,,,,,,Space,keypress(Space),,,,,,,,-- --- ---- --- ------ ----- ------- ---- -- --- revenue --<br>------- ---------- ------ -- ----- -- ----- -- ---- ------<br>--- ----- --- --- ------ -------- ----- --- ------ ----- --<br>----- ----- ---------- --- --- ------ ------ ---- -- ------<br>------- --- ------ ----- --- ---- ------- -- ---- --- --<br>------- ------,165208.70000000298,165207.8999999985,164927.448,164937,164944.111,165210.785,,10,revenue
screen,html.Screen,2_1_1_1_11,2022-02-17T14:54:52.404Z,,,,,,,,,,,,,,,,,54,,,,,,,,,,,,,,300.8150000014866,,response,,,,100,,,,,,,Space,keypress(Space),,,,,,,,-- --- ---- --- ------ ----- ------- ---- -- --- ------- by<br>------- ---------- ------ -- ----- -- ----- -- ---- ------<br>--- ----- --- --- ------ -------- ----- --- ------ ----- --<br>----- ----- ---------- --- --- ------ ------ ---- -- ------<br>------- --- ------ ----- --- ---- ------- -- ---- --- --<br>------- ------,165512.30000000447,165511.6000000015,165194.5,165208.80000000447,165210.785,165527.551,,11,by
screen,html.Screen,2_1_1_1_12,2022-02-17T14:54:52.748Z,,,,,,,,,,,,,,,,,54,,,,,,,,,,,,,,327.7490000044636,,response,,,,100,,,,,,,Space,keypress(Space),,,,,,,,-- --- ---- --- ------ ----- ------- ---- -- --- ------- --<br>issuing ---------- ------ -- ----- -- ----- -- ---- ------<br>--- ----- --- --- ------ -------- ----- --- ------ ----- --<br>----- ----- ---------- --- --- ------ ------ ---- -- ------<br>------- --- ------ ----- --- ---- ------- -- ---- --- --<br>------- ------,165856.20000000298,165855.30000000447,165511.03,165512.3999999985,165527.551,165860.929,,12,issuing
screen,html.Screen,2_1_1_1_13,2022-02-17T14:54:53.038Z,,,,,,,,,,,,,,,,,54,,,,,,,,,,,,,,284.97099999850616,,response,,,,100,,,,,,,Space,keypress(Space),,,,,,,,-- --- ---- --- ------ ----- ------- ---- -- --- ------- --<br>------- government ------ -- ----- -- ----- -- ---- ------<br>--- ----- --- --- ------ -------- ----- --- ------ ----- --<br>----- ----- ---------- --- --- ------ ------ ---- -- ------<br>------- --- ------ ----- --- ---- ------- -- ---- --- --<br>------- ------,166147.1000000015,166145.8999999985,165844.477,165856.30000000447,165860.929,166160.82,,13,government
screen,html.Screen,2_1_1_1_14,2022-02-17T14:54:53.359Z,,,,,,,,,,,,,,,,,54,,,,,,,,,,,,,,305.78000000148313,,response,,,,100,,,,,,,Space,keypress(Space),,,,,,,,-- --- ---- --- ------ ----- ------- ---- -- --- ------- --<br>------- ---------- bonds. -- ----- -- ----- -- ---- ------<br>--- ----- --- --- ------ -------- ----- --- ------ ----- --<br>----- ----- ---------- --- --- ------ ------ ---- -- ------<br>------- --- ------ ----- --- ---- ------- -- ---- --- --<br>------- ------,166467.30000000447,166466.6000000015,166144.541,166147.30000000447,166160.82,166477.451,,14,bonds.
screen,html.Screen,2_1_1_1_15,2022-02-17T14:54:53.674Z,,,,,,,,,,,,,,,,,54,,,,,,,,,,,,,,304.6490000014892,,response,,,,100,,,,,,,Space,keypress(Space),,,,,,,,-- --- ---- --- ------ ----- ------- ---- -- --- ------- --<br>------- ---------- ------ In ----- -- ----- -- ---- ------<br>--- ----- --- --- ------ -------- ----- --- ------ ----- --<br>----- ----- ---------- --- --- ------ ------ ---- -- ------<br>------- --- ------ ----- --- ---- ------- -- ---- --- --<br>------- ------,166782.8999999985,166782.1000000015,166461.07,166467.5,166477.451,166794.156,,15,In
screen,html.Screen,2_1_1_1_16,2022-02-17T14:54:53.959Z,,,,,,,,,,,,,,,,,54,,,,,,,,,,,,,,273.0440000029921,,response,,,,100,,,,,,,Space,keypress(Space),,,,,,,,"-- --- ---- --- ------ ----- ------- ---- -- --- ------- --<br>------- ---------- ------ -- 1727, -- ----- -- ---- ------<br>--- ----- --- --- ------ -------- ----- --- ------ ----- --<br>----- ----- ---------- --- --- ------ ------ ---- -- ------<br>------- --- ------ ----- --- ---- ------- -- ---- --- --<br>------- ------",167068,167067.20000000298,166777.465,166783.1000000015,166794.156,167077.981,,16,"1727,"
screen,html.Screen,2_1_1_1_17,2022-02-17T14:54:54.351Z,,,,,,,,,,,,,,,,,54,,,,,,,,,,,,,,380.51900000000023,,response,,,,100,,,,,,,Space,keypress(Space),,,,,,,,-- --- ---- --- ------ ----- ------- ---- -- --- ------- --<br>------- ---------- ------ -- ----- in ----- -- ---- ------<br>--- ----- --- --- ------ -------- ----- --- ------ ----- --<br>----- ----- ---------- --- --- ------ ------ ---- -- ------<br>------- --- ------ ----- --- ---- ------- -- ---- --- --<br>------- ------,167459.20000000298,167458.5,167060.831,167068.1000000015,167077.981,167484.018,,17,in
screen,html.Screen,2_1_1_1_18,2022-02-17T14:54:54.688Z,,,,,,,,,,,,,,,,,54,,,,,,,,,,,,,,311.5820000014792,,response,,,,100,,,,,,,Space,keypress(Space),,,,,,,,-- --- ---- --- ------ ----- ------- ---- -- --- ------- --<br>------- ---------- ------ -- ----- -- order -- ---- ------<br>--- ----- --- --- ------ -------- ----- --- ------ ----- --<br>----- ----- ---------- --- --- ------ ------ ---- -- ------<br>------- --- ------ ----- --- ---- ------- -- ---- --- --<br>------- ------,167796.3999999985,167795.6000000015,167444.144,167459.3999999985,167484.018,167810.777,,18,order
screen,html.Screen,2_1_1_1_19,2022-02-17T14:54:55.050Z,,,,,,,,,,,,,,,,,54,,,,,,,,,,,,,,347.0230000044685,,response,,,,100,,,,,,,Space,keypress(Space),,,,,,,,-- --- ---- --- ------ ----- ------- ---- -- --- ------- --<br>------- ---------- ------ -- ----- -- ----- to ---- ------<br>--- ----- --- --- ------ -------- ----- --- ------ ----- --<br>----- ----- ---------- --- --- ------ ------ ---- -- ------<br>------- --- ------ ----- --- ---- ------- -- ---- --- --<br>------- ------,168158.6000000015,168157.80000000447,167794.114,167796.5,167810.777,168160.714,,19,to
screen,html.Screen,2_1_1_1_20,2022-02-17T14:54:55.379Z,,,,,,,,,,,,,,,,,54,,,,,,,,,,,,,,326.68599999850267,,response,,,,100,,,,,,,Space,keypress(Space),,,,,,,,-- --- ---- --- ------ ----- ------- ---- -- --- ------- --<br>------- ---------- ------ -- ----- -- ----- -- save ------<br>--- ----- --- --- ------ -------- ----- --- ------ ----- --<br>----- ----- ---------- --- --- ------ ------ ---- -- ------<br>------- --- ------ ----- --- ---- ------- -- ---- --- --<br>------- ------,168488,168487.3999999985,168144.111,168158.70000000298,168160.714,168494.383,,20,save
screen,html.Screen,2_1_1_1_21,2022-02-17T14:54:55.686Z,,,,,,,,,,,,,,,,,54,,,,,,,,,,,,,,300.01699999850825,,response,,,,100,,,,,,,Space,keypress(Space),,,,,,,,"-- --- ---- --- ------ ----- ------- ---- -- --- ------- --<br>------- ---------- ------ -- ----- -- ----- -- ---- money,<br>--- ----- --- --- ------ -------- ----- --- ------ ----- --<br>----- ----- ---------- --- --- ------ ------ ---- -- ------<br>------- --- ------ ----- --- ---- ------- -- ---- --- --<br>------- ------",168795.1000000015,168794.3999999985,168477.746,168488,168494.383,168810.792,,21,"money,"
screen,html.Screen,2_1_1_1_22,2022-02-17T14:54:56.080Z,,,,,,,,,,,,,,,,,54,,,,,,,,,,,,,,376.9080000029935,,response,,,,100,,,,,,,Space,keypress(Space),,,,,,,,-- --- ---- --- ------ ----- ------- ---- -- --- ------- --<br>------- ---------- ------ -- ----- -- ----- -- ---- ------<br>the ----- --- --- ------ -------- ----- --- ------ ----- --<br>----- ----- ---------- --- --- ------ ------ ---- -- ------<br>------- --- ------ ----- --- ---- ------- -- ---- --- --<br>------- ------,169188.6000000015,169187.70000000298,168794.409,168795.20000000298,168810.792,169194.136,,22,the
screen,html.Screen,2_1_1_1_23,2022-02-17T14:54:56.401Z,,,,,,,,,,,,,,,,,54,,,,,,,,,,,,,,315.06400000298163,,response,,,,100,,,,,,,Space,keypress(Space),,,,,,,,-- --- ---- --- ------ ----- ------- ---- -- --- ------- --<br>------- ---------- ------ -- ----- -- ----- -- ---- ------<br>--- state --- --- ------ -------- ----- --- ------ ----- --<br>----- ----- ---------- --- --- ------ ------ ---- -- ------<br>------- --- ------ ----- --- ---- ------- -- ---- --- --<br>------- ------,169510,169509.20000000298,169177.733,169188.70000000298,169194.136,169527.641,,23,state
screen,html.Screen,2_1_1_1_24,2022-02-17T14:54:56.717Z,,,,,,,,,,,,,,,,,54,,,,,,,,,,,,,,297.559000002977,,response,,,,100,,,,,,,Space,keypress(Space),,,,,,,,-- --- ---- --- ------ ----- ------- ---- -- --- ------- --<br>------- ---------- ------ -- ----- -- ----- -- ---- ------<br>--- ----- cut --- ------ -------- ----- --- ------ ----- --<br>----- ----- ---------- --- --- ------ ------ ---- -- ------<br>------- --- ------ ----- --- ---- ------- -- ---- --- --<br>------- ------,169825.8999999985,169825.20000000298,169510.774,169510.20000000298,169527.641,169853.359,,24,cut
screen,html.Screen,2_1_1_1_25,2022-02-17T14:54:57.045Z,,,,,,,,,,,,,,,,,54,,,,,,,,,,,,,,299.14100000000326,,response,,,,100,,,,,,,Space,keypress(Space),,,,,,,,-- --- ---- --- ------ ----- ------- ---- -- --- ------- --<br>------- ---------- ------ -- ----- -- ----- -- ---- ------<br>--- ----- --- the ------ -------- ----- --- ------ ----- --<br>----- ----- ---------- --- --- ------ ------ ---- -- ------<br>------- --- ------ ----- --- ---- ------- -- ---- --- --<br>------- ------,170153.6000000015,170152.5,169811.022,169826.1000000015,169853.359,170160.792,,25,the
screen,html.Screen,2_1_1_1_26,2022-02-17T14:54:57.376Z,,,,,,,,,,,,,,,,,54,,,,,,,,,,,,,,323.20800000001327,,response,,,,100,,,,,,,Space,keypress(Space),,,,,,,,-- --- ---- --- ------ ----- ------- ---- -- --- ------- --<br>------- ---------- ------ -- ----- -- ----- -- ---- ------<br>--- ----- --- --- bonds' -------- ----- --- ------ ----- --<br>----- ----- ---------- --- --- ------ ------ ---- -- ------<br>------- --- ------ ----- --- ---- ------- -- ---- --- --<br>------- ------,170484.80000000447,170484,170144.104,170153.70000000298,170160.792,170494.142,,26,bonds'
screen,html.Screen,2_1_1_1_27,2022-02-17T14:54:57.688Z,,,,,,,,,,,,,,,,,54,,,,,,,,,,,,,,301.35800000000745,,response,,,,100,,,,,,,Space,keypress(Space),,,,,,,,-- --- ---- --- ------ ----- ------- ---- -- --- ------- --<br>------- ---------- ------ -- ----- -- ----- -- ---- ------<br>--- ----- --- --- ------ interest ----- --- ------ ----- --<br>----- ----- ---------- --- --- ------ ------ ---- -- ------<br>------- --- ------ ----- --- ---- ------- -- ---- --- --<br>------- ------,170796.30000000447,170795.5,170477.77,170484.8999999985,170494.142,170810.818,,27,interest
screen,html.Screen,2_1_1_1_28,2022-02-17T14:54:58.023Z,,,,,,,,,,,,,,,,,54,,,,,,,,,,,,,,319.98200000447105,,response,,,,100,,,,,,,Space,keypress(Space),,,,,,,,-- --- ---- --- ------ ----- ------- ---- -- --- ------- --<br>------- ---------- ------ -- ----- -- ----- -- ---- ------<br>--- ----- --- --- ------ -------- rate. --- ------ ----- --<br>----- ----- ---------- --- --- ------ ------ ---- -- ------<br>------- --- ------ ----- --- ---- ------- -- ---- --- --<br>------- ------,171131.5,171130.80000000447,170794.336,170796.3999999985,170810.818,171144.464,,28,rate.
screen,html.Screen,2_1_1_1_29,2022-02-17T14:54:58.348Z,,,,,,,,,,,,,,,,,54,,,,,,,,,,,,,,311.5359999999928,,response,,,,100,,,,,,,Space,keypress(Space),,,,,,,,-- --- ---- --- ------ ----- ------- ---- -- --- ------- --<br>------- ---------- ------ -- ----- -- ----- -- ---- ------<br>--- ----- --- --- ------ -------- ----- The ------ ----- --<br>----- ----- ---------- --- --- ------ ------ ---- -- ------<br>------- --- ------ ----- --- ---- ------- -- ---- --- --<br>------- ------,171456.80000000447,171456,171127.73,171131.6000000015,171144.464,171460.745,,29,The
screen,html.Screen,2_1_1_1_30,2022-02-17T14:54:58.720Z,,,,,,,,,,,,,,,,,54,,,,,,,,,,,,,,366.4550000029849,,response,,,,100,,,,,,,Space,keypress(Space),,,,,,,,-- --- ---- --- ------ ----- ------- ---- -- --- ------- --<br>------- ---------- ------ -- ----- -- ----- -- ---- ------<br>--- ----- --- --- ------ -------- ----- --- market ----- --<br>----- ----- ---------- --- --- ------ ------ ---- -- ------<br>------- --- ------ ----- --- ---- ------- -- ---- --- --<br>------- ------,171828.20000000298,171827.20000000298,171444.401,171456.8999999985,171460.745,171844.356,,30,market
screen,html.Screen,2_1_1_1_31,2022-02-17T14:54:59.086Z,,,,,,,,,,,,,,,,,54,,,,,,,,,,,,,,349.0439999985101,,response,,,,100,,,,,,,Space,keypress(Space),,,,,,,,-- --- ---- --- ------ ----- ------- ---- -- --- ------- --<br>------- ---------- ------ -- ----- -- ----- -- ---- ------<br>--- ----- --- --- ------ -------- ----- --- ------ value --<br>----- ----- ---------- --- --- ------ ------ ---- -- ------<br>------- --- ------ ----- --- ---- ------- -- ---- --- --<br>------- ------,172194.3999999985,172193.3999999985,171827.48,171828.30000000447,171844.356,172211.54,,31,value
screen,html.Screen,2_1_1_1_32,2022-02-17T14:54:59.455Z,,,,,,,,,,,,,,,,,54,,,,,,,,,,,,,,351.56000000148197,,response,,,,100,,,,,,,Space,keypress(Space),,,,,,,,-- --- ---- --- ------ ----- ------- ---- -- --- ------- --<br>------- ---------- ------ -- ----- -- ----- -- ---- ------<br>--- ----- --- --- ------ -------- ----- --- ------ ----- of<br>----- ----- ---------- --- --- ------ ------ ---- -- ------<br>------- --- ------ ----- --- ---- ------- -- ---- --- --<br>------- ------,172564,172563.1000000015,172194.375,172194.5,172211.54,172577.808,,32,of
screen,html.Screen,2_1_1_1_33,2022-02-17T14:54:59.804Z,,,,,,,,,,,,,,,,,54,,,,,,,,,,,,,,334.49200000448036,,response,,,,100,,,,,,,Space,keypress(Space),,,,,,,,-- --- ---- --- ------ ----- ------- ---- -- --- ------- --<br>------- ---------- ------ -- ----- -- ----- -- ---- ------<br>--- ----- --- --- ------ -------- ----- --- ------ ----- --<br>these ----- ---------- --- --- ------ ------ ---- -- ------<br>------- --- ------ ----- --- ---- ------- -- ---- --- --<br>------- ------,172913.1000000015,172912.30000000447,172561.051,172564,172577.808,172927.494,,33,these
screen,html.Screen,2_1_1_1_34,2022-02-17T14:55:00.105Z,,,,,,,,,,,,,,,,,54,,,,,,,,,,,,,,285.7060000029742,,response,,,,100,,,,,,,Space,keypress(Space),,,,,,,,-- --- ---- --- ------ ----- ------- ---- -- --- ------- --<br>------- ---------- ------ -- ----- -- ----- -- ---- ------<br>--- ----- --- --- ------ -------- ----- --- ------ ----- --<br>----- bonds ---------- --- --- ------ ------ ---- -- ------<br>------- --- ------ ----- --- ---- ------- -- ---- --- --<br>------- ------,173214,173213.20000000298,172910.872,172913.30000000447,172927.494,173227.563,,34,bonds
screen,html.Screen,2_1_1_1_35,2022-02-17T14:55:00.432Z,,,,,,,,,,,,,,,,,54,,,,,,,,,,,,,,312.93700000000536,,response,,,,100,,,,,,,Space,keypress(Space),,,,,,,,"-- --- ---- --- ------ ----- ------- ---- -- --- ------- --<br>------- ---------- ------ -- ----- -- ----- -- ---- ------<br>--- ----- --- --- ------ -------- ----- --- ------ ----- --<br>----- ----- plummeted, --- --- ------ ------ ---- -- ------<br>------- --- ------ ----- --- ---- ------- -- ---- --- --<br>------- ------",173541.1000000015,173540.5,173210.812,173214.1000000015,173227.563,173544.046,,35,"plummeted,"
screen,html.Screen,2_1_1_1_36,2022-02-17T14:55:00.737Z,,,,,,,,,,,,,,,,,54,,,,,,,,,,,,,,301.15400000297814,,response,,,,100,,,,,,,Space,keypress(Space),,,,,,,,-- --- ---- --- ------ ----- ------- ---- -- --- ------- --<br>------- ---------- ------ -- ----- -- ----- -- ---- ------<br>--- ----- --- --- ------ -------- ----- --- ------ ----- --<br>----- ----- ---------- and --- ------ ------ ---- -- ------<br>------- --- ------ ----- --- ---- ------- -- ---- --- --<br>------- ------,173845.8999999985,173845.20000000298,173527.462,173541.20000000298,173544.046,173860.799,,36,and
screen,html.Screen,2_1_1_1_37,2022-02-17T14:55:01.007Z,,,,,,,,,,,,,,,,,54,,,,,,,,,,,,,,254.00100000447128,,response,,,,100,,,,,,,Space,keypress(Space),,,,,,,,-- --- ---- --- ------ ----- ------- ---- -- --- ------- --<br>------- ---------- ------ -- ----- -- ----- -- ---- ------<br>--- ----- --- --- ------ -------- ----- --- ------ ----- --<br>----- ----- ---------- --- the ------ ------ ---- -- ------<br>------- --- ------ ----- --- ---- ------- -- ---- --- --<br>------- ------,174115.5,174114.80000000447,173844.036,173846.1000000015,173860.799,174127.723,,37,the
screen,html.Screen,2_1_1_1_38,2022-02-17T14:55:01.326Z,,,,,,,,,,,,,,,,,54,,,,,,,,,,,,,,306.27700000000186,,response,,,,100,,,,,,,Space,keypress(Space),,,,,,,,-- --- ---- --- ------ ----- ------- ---- -- --- ------- --<br>------- ---------- ------ -- ----- -- ----- -- ---- ------<br>--- ----- --- --- ------ -------- ----- --- ------ ----- --<br>----- ----- ---------- --- --- market ------ ---- -- ------<br>------- --- ------ ----- --- ---- ------- -- ---- --- --<br>------- ------,174434.70000000298,174434,174111.071,174115.70000000298,174127.723,174444.14,,38,market
screen,html.Screen,2_1_1_1_39,2022-02-17T14:55:01.651Z,,,,,,,,,,,,,,,,,54,,,,,,,,,,,,,,314.35999999998603,,response,,,,100,,,,,,,Space,keypress(Space),,,,,,,,-- --- ---- --- ------ ----- ------- ---- -- --- ------- --<br>------- ---------- ------ -- ----- -- ----- -- ---- ------<br>--- ----- --- --- ------ -------- ----- --- ------ ----- --<br>----- ----- ---------- --- --- ------ became ---- -- ------<br>------- --- ------ ----- --- ---- ------- -- ---- --- --<br>------- ------,174759.5,174758.5,174427.638,174434.80000000447,174444.14,174792.08,,39,became
screen,html.Screen,2_1_1_1_40,2022-02-17T14:55:02.107Z,,,,,,,,,,,,,,,,,54,,,,,,,,,,,,,,422.3199999985227,,response,,,,100,,,,,,,Space,keypress(Space),,,,,,,,-- --- ---- --- ------ ----- ------- ---- -- --- ------- --<br>------- ---------- ------ -- ----- -- ----- -- ---- ------<br>--- ----- --- --- ------ -------- ----- --- ------ ----- --<br>----- ----- ---------- --- --- ------ ------ wary -- ------<br>------- --- ------ ----- --- ---- ------- -- ---- --- --<br>------- ------,175215.30000000447,175214.3999999985,174744.01,174759.70000000298,174792.08,175227.448,,40,wary
screen,html.Screen,2_1_1_1_41,2022-02-17T14:55:02.445Z,,,,,,,,,,,,,,,,,54,,,,,,,,,,,,,,325.55199999999604,,response,,,,100,,,,,,,Space,keypress(Space),,,,,,,,-- --- ---- --- ------ ----- ------- ---- -- --- ------- --<br>------- ---------- ------ -- ----- -- ----- -- ---- ------<br>--- ----- --- --- ------ -------- ----- --- ------ ----- --<br>----- ----- ---------- --- --- ------ ------ ---- of ------<br>------- --- ------ ----- --- ---- ------- -- ---- --- --<br>------- ------,175554,175553,175211.059,175215.3999999985,175227.448,175560.758,,41,of
screen,html.Screen,2_1_1_1_42,2022-02-17T14:55:02.832Z,,,,,,,,,,,,,,,,,54,,,,,,,,,,,,,,378.64199999850825,,response,,,,100,,,,,,,Space,keypress(Space),,,,,,,,-- --- ---- --- ------ ----- ------- ---- -- --- ------- --<br>------- ---------- ------ -- ----- -- ----- -- ---- ------<br>--- ----- --- --- ------ -------- ----- --- ------ ----- --<br>----- ----- ---------- --- --- ------ ------ ---- -- French<br>------- --- ------ ----- --- ---- ------- -- ---- --- --<br>------- ------,175940.20000000298,175939.3999999985,175544.084,175554.20000000298,175560.758,175944.095,,42,French
screen,html.Screen,2_1_1_1_43,2022-02-17T14:55:03.182Z,,,,,,,,,,,,,,,,,54,,,,,,,,,,,,,,345.90499999999884,,response,,,,100,,,,,,,Space,keypress(Space),,,,,,,,-- --- ---- --- ------ ----- ------- ---- -- --- ------- --<br>------- ---------- ------ -- ----- -- ----- -- ---- ------<br>--- ----- --- --- ------ -------- ----- --- ------ ----- --<br>----- ----- ---------- --- --- ------ ------ ---- -- ------<br>credit. --- ------ ----- --- ---- ------- -- ---- --- --<br>------- ------,176290.8999999985,176290,175927.429,175940.3999999985,175944.095,176294.462,,43,credit.
screen,html.Screen,2_1_1_1_44,2022-02-17T14:55:03.557Z,,,,,,,,,,,,,,,,,54,,,,,,,,,,,,,,369.93799999851035,,response,,,,100,,,,,,,Space,keypress(Space),,,,,,,,-- --- ---- --- ------ ----- ------- ---- -- --- ------- --<br>------- ---------- ------ -- ----- -- ----- -- ---- ------<br>--- ----- --- --- ------ -------- ----- --- ------ ----- --<br>----- ----- ---------- --- --- ------ ------ ---- -- ------<br>------- The ------ ----- --- ---- ------- -- ---- --- --<br>------- ------,176665.3999999985,176664.3999999985,176277.446,176291,176294.462,176677.512,,44,The
screen,html.Screen,2_1_1_1_45,2022-02-17T14:55:03.899Z,,,,,,,,,,,,,,,,,54,,,,,,,,,,,,,,329.78800000448246,,response,,,,100,,,,,,,Space,keypress(Space),,,,,,,,-- --- ---- --- ------ ----- ------- ---- -- --- ------- --<br>------- ---------- ------ -- ----- -- ----- -- ---- ------<br>--- ----- --- --- ------ -------- ----- --- ------ ----- --<br>----- ----- ---------- --- --- ------ ------ ---- -- ------<br>------- --- French ----- --- ---- ------- -- ---- --- --<br>------- ------,177008,177007.30000000447,176660.741,176665.5,176677.512,177010.748,,45,French
screen,html.Screen,2_1_1_1_46,2022-02-17T14:55:04.217Z,,,,,,,,,,,,,,,,,54,,,,,,,,,,,,,,313.9520000029879,,response,,,,100,,,,,,,Space,keypress(Space),,,,,,,,-- --- ---- --- ------ ----- ------- ---- -- --- ------- --<br>------- ---------- ------ -- ----- -- ----- -- ---- ------<br>--- ----- --- --- ------ -------- ----- --- ------ ----- --<br>----- ----- ---------- --- --- ------ ------ ---- -- ------<br>------- --- ------ state --- ---- ------- -- ---- --- --<br>------- ------,177325.70000000298,177324.70000000298,176994.143,177008.1000000015,177010.748,177327.43,,46,state
screen,html.Screen,2_1_1_1_47,2022-02-17T14:55:04.571Z,,,,,,,,,,,,,,,,,54,,,,,,,,,,,,,,351.96999999851687,,response,,,,100,,,,,,,Space,keypress(Space),,,,,,,,-- --- ---- --- ------ ----- ------- ---- -- --- ------- --<br>------- ---------- ------ -- ----- -- ----- -- ---- ------<br>--- ----- --- --- ------ -------- ----- --- ------ ----- --<br>----- ----- ---------- --- --- ------ ------ ---- -- ------<br>------- --- ------ ----- was ---- ------- -- ---- --- --<br>------- ------,177680.1000000015,177679.3999999985,177310.793,177325.80000000447,177327.43,177694.226,,47,was
screen,html.Screen,2_1_1_1_48,2022-02-17T14:55:04.920Z,,,,,,,,,,,,,,,,,54,,,,,,,,,,,,,,333.7740000000049,,response,,,,100,,,,,,,Space,keypress(Space),,,,,,,,-- --- ---- --- ------ ----- ------- ---- -- --- ------- --<br>------- ---------- ------ -- ----- -- ----- -- ---- ------<br>--- ----- --- --- ------ -------- ----- --- ------ ----- --<br>----- ----- ---------- --- --- ------ ------ ---- -- ------<br>------- --- ------ ----- --- left ------- -- ---- --- --<br>------- ------,178028.80000000447,178028,177677.488,177680.20000000298,177694.226,178044.214,,48,left
screen,html.Screen,2_1_1_1_49,2022-02-17T14:55:05.270Z,,,,,,,,,,,,,,,,,54,,,,,,,,,,,,,,333.486000002973,,response,,,,100,,,,,,,Space,keypress(Space),,,,,,,,-- --- ---- --- ------ ----- ------- ---- -- --- ------- --<br>------- ---------- ------ -- ----- -- ----- -- ---- ------<br>--- ----- --- --- ------ -------- ----- --- ------ ----- --<br>----- ----- ---------- --- --- ------ ------ ---- -- ------<br>------- --- ------ ----- --- ---- without -- ---- --- --<br>------- ------,178378.70000000298,178377.70000000298,178027.421,178028.8999999985,178044.214,178394.299,,49,without
screen,html.Screen,2_1_1_1_50,2022-02-17T14:55:05.618Z,,,,,,,,,,,,,,,,,54,,,,,,,,,,,,,,331.70100000000093,,response,,,,100,,,,,,,Space,keypress(Space),,,,,,,,-- --- ---- --- ------ ----- ------- ---- -- --- ------- --<br>------- ---------- ------ -- ----- -- ----- -- ---- ------<br>--- ----- --- --- ------ -------- ----- --- ------ ----- --<br>----- ----- ---------- --- --- ------ ------ ---- -- ------<br>------- --- ------ ----- --- ---- ------- an ---- --- --<br>------- ------,178726.70000000298,178726,178377.414,178378.80000000447,178394.299,178745.054,,50,an
screen,html.Screen,2_1_1_1_51,2022-02-17T14:55:05.940Z,,,,,,,,,,,,,,,,,54,,,,,,,,,,,,,,302.9459999999963,,response,,,,100,,,,,,,Space,keypress(Space),,,,,,,,-- --- ---- --- ------ ----- ------- ---- -- --- ------- --<br>------- ---------- ------ -- ----- -- ----- -- ---- ------<br>--- ----- --- --- ------ -------- ----- --- ------ ----- --<br>----- ----- ---------- --- --- ------ ------ ---- -- ------<br>------- --- ------ ----- --- ---- ------- -- easy --- --<br>------- ------,179048.70000000298,179048,178711.048,178726.80000000447,178745.054,179060.754,,51,easy
screen,html.Screen,2_1_1_1_52,2022-02-17T14:55:06.270Z,,,,,,,,,,,,,,,,,54,,,,,,,,,,,,,,316.5460000044841,,response,,,,100,,,,,,,Space,keypress(Space),,,,,,,,-- --- ---- --- ------ ----- ------- ---- -- --- ------- --<br>------- ---------- ------ -- ----- -- ----- -- ---- ------<br>--- ----- --- --- ------ -------- ----- --- ------ ----- --<br>----- ----- ---------- --- --- ------ ------ ---- -- ------<br>------- --- ------ ----- --- ---- ------- -- ---- way --<br>------- ------,179378.5,179377.30000000447,179044.391,179048.70000000298,179060.754,179394.591,,52,way
screen,html.Screen,2_1_1_1_53,2022-02-17T14:55:06.588Z,,,,,,,,,,,,,,,,,54,,,,,,,,,,,,,,301.10900000299443,,response,,,,100,,,,,,,Space,keypress(Space),,,,,,,,-- --- ---- --- ------ ----- ------- ---- -- --- ------- --<br>------- ---------- ------ -- ----- -- ----- -- ---- ------<br>--- ----- --- --- ------ -------- ----- --- ------ ----- --<br>----- ----- ---------- --- --- ------ ------ ---- -- ------<br>------- --- ------ ----- --- ---- ------- -- ---- --- of<br>------- ------,179696.20000000298,179695.70000000298,179377.556,179378.6000000015,179394.591,179710.774,,53,of
screen,html.Screen,2_1_1_1_54,2022-02-17T14:55:06.955Z,,,,,,,,,,,,,,,,,54,,,,,,,,,,,,,,351.52600000446546,,response,,,,100,,,,,,,Space,keypress(Space),,,,,,,,-- --- ---- --- ------ ----- ------- ---- -- --- ------- --<br>------- ---------- ------ -- ----- -- ----- -- ---- ------<br>--- ----- --- --- ------ -------- ----- --- ------ ----- --<br>----- ----- ---------- --- --- ------ ------ ---- -- ------<br>------- --- ------ ----- --- ---- ------- -- ---- --- --<br>raising ------,180063.20000000298,180062.30000000447,179694.378,179696.3999999985,179710.774,180077.798,,54,raising
screen,html.Screen,2_1_1_1_55,2022-02-17T14:55:07.271Z,,,,,,,,,,,,,,,,,54,,,,,,,,,,,,,,300.7019999999902,,response,,,,100,,,,,,,Space,keypress(Space),,,,,,,,-- --- ---- --- ------ ----- ------- ---- -- --- ------- --<br>------- ---------- ------ -- ----- -- ----- -- ---- ------<br>--- ----- --- --- ------ -------- ----- --- ------ ----- --<br>----- ----- ---------- --- --- ------ ------ ---- -- ------<br>------- --- ------ ----- --- ---- ------- -- ---- --- --<br>------- money.,180379.80000000447,180378.5,180061.042,180063.3999999985,180077.798,180394.103,,55,money.
Item 100,flow.Loop,2_1_1_1,2022-02-17T14:55:07.271Z,,,,,,,,,,,,,,,,,,,,,,,,,,,,,,,18584.344000000012,,completion,,,,,E,,,,,,,,,,,silence,,,,,180380,180378.5,161777.765,161778.5,161794.156,180394.103,,,
Question 1,html.Screen,2_1_1_2,2022-02-17T14:55:09.403Z,,,,,,,,,,,,,,,,,,,,,,,,,,,,true,TRUE,,2116.296999998507,,response,,,,100,E,,,,,,TRUE,click #choice-1,,,,silence,,,,,182511.1000000015,182510.3999999985,180377.605,180380,180394.103,182544.095,,,
Question 2,html.Screen,2_1_1_3,2022-02-17T14:55:11.363Z,,,,,,,,,,,,,,,,,,,,,,,,,,,,true,FALSE,,1926.605000002979,,response,,,,100,E,,,,,,FALSE,click #choice-2,,,,silence,,,,,184471.5,184470.70000000298,182527.486,182511.20000000298,182544.095,184477.336,,,
Item 100,flow.Sequence,2_1_1,2022-02-17T14:55:11.363Z,,,,,,,,,,,,,,,,,,,,,,,,,,,,,,,32676.021000002977,,completion,,,,,,,,,,,,,,,,,,,,,184471.5,184470.70000000298,151777.862,151792,151794.679,184477.336,,,
End of Practice,html.Page,2_1_2,2022-02-17T14:55:16.851Z,,,,,,,,,,,,,,,,,,,,,,,,,,,,,,,5482.36400000297,,form submission,,,,,,,,,,,,,,,,,,,,,189959.8999999985,189959.70000000298,184460.756,184471.5,184477.336,189960.682,,,
Practice,flow.Sequence,2_1,2022-02-17T14:55:16.852Z,,,,,,,,,,,,,,,,,,,,,,,,,,,,,,,87248.92500000299,,completion,,,,,,,,,,,,,,,,,,,,,189960.1000000015,189959.70000000298,102694.213,102696.70000000298,102710.775,189960.682,,,
Trap_instruction,html.Page,2_2_0,2022-02-17T14:55:20.180Z,,,,,,,,,,,,,,,,,,,,,,,,,,,,,,,3327.217999998509,,form submission,,,,,,,,,,,,,,,,,,,,,193288.20000000298,193287.8999999985,189944.101,189960.1000000015,189960.682,193294.051,,,
trap_trial,html.Screen,2_2_1,2022-02-17T14:55:23.915Z,,,,,,,,,,,,,,,,,,,,,,,,,,,,true,1,,3728.6490000029735,,response,,,,,,,,,,,1,click #choice-1,,,,,,,,,197023.5,197022.70000000298,193277.467,193288.20000000298,193294.051,197027.444,,,
end of trap trial,html.Page,2_2_2,2022-02-17T14:55:25.291Z,,,,,,,,,,,,,,,,,,,,,,,,,,,,,,,1372.1560000015015,,form submission,,,,,,,,,,,,,,,,,,,,,198399.8999999985,198399.6000000015,197010.743,197023.6000000015,197027.444,198410.726,,,
Trap 1,flow.Sequence,2_2,2022-02-17T14:55:25.292Z,,,,,,,,,,,,,,,,,,,,,,,,,,,,,,,8438.91800000149,,completion,,,,,,,,,,,,,,,,,,,,,198400.1000000015,198399.6000000015,189944.101,189960.1000000015,189960.682,198410.726,,,
Standby,html.Page,2_3_0,2022-02-17T14:55:33.287Z,,,,,,,,,,,,,,,,,,,,,,,,,,,,,,,7999.9770000000135,,timeout,,,,,,,,,,,,,,,,,,,,,206395.30000000447,206394.325,198394.103,198400.20000000298,198410.726,206410.703,,,
Holding screen,html.Screen,2_3_1_0_0,2022-02-17T14:55:40.287Z,,,,,,,,,,,,,,,,,,,,,,,,,,,,,,,7000.008999999991,,timeout,,,,,,,,,,,,,,,,,,,,,213395.3999999985,213394.525,206394.325,206395.5,206410.703,213410.712,,,
screen,html.Screen,2_3_1_0_1_0,2022-02-17T14:55:40.960Z,,,,,,,,,,,,,,,,,48,,,,,,,,,,,,,,657.0880000044708,,response,,,,10,E,,,,,,Space,keypress(Space),,,,lyrical,,,,As -- --- ------ ------- --------- ----------- --------<br>--------- -------- --- ------- -- ------- ---- -- ------<br>-- --- -------- -------- ---------- ---- ---- ---- ------<br>-- --------- -- ---- -- --- -- --- ------- -- - -----<br>---------- -- -- -- ---- ----- -- ------ -- --- ------<br>-------,214068.80000000447,214067.80000000447,213394.525,213395.6000000015,213410.712,214077.411,,0,As
screen,html.Screen,2_3_1_0_1_1,2022-02-17T14:55:41.357Z,,,,,,,,,,,,,,,,,48,,,,,,,,,,,,,,387.38900000447757,,response,,,,10,E,,,,,,Space,keypress(Space),,,,lyrical,,,,-- in --- ------ ------- --------- ----------- --------<br>--------- -------- --- ------- -- ------- ---- -- ------<br>-- --- -------- -------- ---------- ---- ---- ---- ------<br>-- --------- -- ---- -- --- -- --- ------- -- - -----<br>---------- -- -- -- ---- ----- -- ------ -- --- ------<br>-------,214465.3999999985,214464.80000000447,214060.878,214068.8999999985,214077.411,214477.588,,1,in
screen,html.Screen,2_3_1_0_1_2,2022-02-17T14:55:41.730Z,,,,,,,,,,,,,,,,,48,,,,,,,,,,,,,,359.5120000015013,,response,,,,10,E,,,,,,Space,keypress(Space),,,,lyrical,,,,-- -- the ------ ------- --------- ----------- --------<br>--------- -------- --- ------- -- ------- ---- -- ------<br>-- --- -------- -------- ---------- ---- ---- ---- ------<br>-- --------- -- ---- -- --- -- --- ------- -- - -----<br>---------- -- -- -- ---- ----- -- ------ -- --- ------<br>-------,214838,214837.1000000015,214460.713,214465.70000000298,214477.588,214843.984,,2,the
screen,html.Screen,2_3_1_0_1_3,2022-02-17T14:55:42.079Z,,,,,,,,,,,,,,,,,48,,,,,,,,,,,,,,342.2160000029835,,response,,,,10,E,,,,,,Space,keypress(Space),,,,lyrical,,,,-- -- --- United ------- --------- ----------- --------<br>--------- -------- --- ------- -- ------- ---- -- ------<br>-- --- -------- -------- ---------- ---- ---- ---- ------<br>-- --------- -- ---- -- --- -- --- ------- -- - -----<br>---------- -- -- -- ---- ----- -- ------ -- --- ------<br>-------,215187.20000000298,215186.20000000298,214827.377,214838.20000000298,214843.984,215194.091,,3,United
screen,html.Screen,2_3_1_0_1_4,2022-02-17T14:55:42.457Z,,,,,,,,,,,,,,,,,48,,,,,,,,,,,,,,370.5090000015043,,response,,,,10,E,,,,,,Space,keypress(Space),,,,lyrical,,,,"-- -- --- ------ States, --------- ----------- --------<br>--------- -------- --- ------- -- ------- ---- -- ------<br>-- --- -------- -------- ---------- ---- ---- ---- ------<br>-- --------- -- ---- -- --- -- --- ------- -- - -----<br>---------- -- -- -- ---- ----- -- ------ -- --- ------<br>-------",215565.5,215564.6000000015,215177.616,215187.30000000447,215194.091,215577.463,,4,"States,"
screen,html.Screen,2_3_1_0_1_5,2022-02-17T14:55:42.826Z,,,,,,,,,,,,,,,,,48,,,,,,,,,,,,,,356.2370000029914,,response,,,,10,E,,,,,,Space,keypress(Space),,,,lyrical,,,,-- -- --- ------ ------- Colombian ----------- --------<br>--------- -------- --- ------- -- ------- ---- -- ------<br>-- --- -------- -------- ---------- ---- ---- ---- ------<br>-- --------- -- ---- -- --- -- --- ------- -- - -----<br>---------- -- -- -- ---- ----- -- ------ -- --- ------<br>-------,215934.5,215933.70000000298,215560.77,215565.6000000015,215577.463,215944.194,,5,Colombian
screen,html.Screen,2_3_1_0_1_6,2022-02-17T14:55:43.225Z,,,,,,,,,,,,,,,,,48,,,,,,,,,,,,,,388.9060000015015,,response,,,,10,E,,,,,,Space,keypress(Space),,,,lyrical,,,,-- -- --- ------ ------- --------- legislation --------<br>--------- -------- --- ------- -- ------- ---- -- ------<br>-- --- -------- -------- ---------- ---- ---- ---- ------<br>-- --------- -- ---- -- --- -- --- ------- -- - -----<br>---------- -- -- -- ---- ----- -- ------ -- --- ------<br>-------,216333.6000000015,216333.1000000015,215927.412,215934.6000000015,215944.194,216344.078,,6,legislation
screen,html.Screen,2_3_1_0_1_7,2022-02-17T14:55:43.596Z,,,,,,,,,,,,,,,,,48,,,,,,,,,,,,,,359.72200000446173,,response,,,,10,E,,,,,,Space,keypress(Space),,,,lyrical,,,,-- -- --- ------ ------- --------- ----------- requires<br>--------- -------- --- ------- -- ------- ---- -- ------<br>-- --- -------- -------- ---------- ---- ---- ---- ------<br>-- --------- -- ---- -- --- -- --- ------- -- - -----<br>---------- -- -- -- ---- ----- -- ------ -- --- ------<br>-------,216704.8999999985,216703.80000000447,216327.396,216333.70000000298,216344.078,216710.682,,7,requires
screen,html.Screen,2_3_1_0_1_8,2022-02-17T14:55:44.017Z,,,,,,,,,,,,,,,,,48,,,,,,,,,,,,,,414.2179999985092,,response,,,,10,E,,,,,,Space,keypress(Space),,,,lyrical,,,,-- -- --- ------ ------- --------- ----------- --------<br>travelers -------- --- ------- -- ------- ---- -- ------<br>-- --- -------- -------- ---------- ---- ---- ---- ------<br>-- --------- -- ---- -- --- -- --- ------- -- - -----<br>---------- -- -- -- ---- ----- -- ------ -- --- ------<br>-------,217125.70000000298,217124.8999999985,216694.087,216705,216710.682,217127.388,,8,travelers
screen,html.Screen,2_3_1_0_1_9,2022-02-17T14:55:44.507Z,,,,,,,,,,,,,,,,,48,,,,,,,,,,,,,,486.91200000446406,,response,,,,10,E,,,,,,Space,keypress(Space),,,,lyrical,,,,-- -- --- ------ ------- --------- ----------- --------<br>--------- entering --- ------- -- ------- ---- -- ------<br>-- --- -------- -------- ---------- ---- ---- ---- ------<br>-- --------- -- ---- -- --- -- --- ------- -- - -----<br>---------- -- -- -- ---- ----- -- ------ -- --- ------<br>-------,217615.3999999985,217614.30000000447,217111.008,217125.80000000447,217127.388,217627.705,,9,entering
screen,html.Screen,2_3_1_0_1_10,2022-02-17T14:55:44.889Z,,,,,,,,,,,,,,,,,48,,,,,,,,,,,,,,369.3950000015029,,response,,,,10,E,,,,,,Space,keypress(Space),,,,lyrical,,,,-- -- --- ------ ------- --------- ----------- --------<br>--------- -------- the ------- -- ------- ---- -- ------<br>-- --- -------- -------- ---------- ---- ---- ---- ------<br>-- --------- -- ---- -- --- -- --- ------- -- - -----<br>---------- -- -- -- ---- ----- -- ------ -- --- ------<br>-------,217997.80000000447,217997.1000000015,217610.735,217615.6000000015,217627.705,218010.771,,10,the
screen,html.Screen,2_3_1_0_1_11,2022-02-17T14:55:45.319Z,,,,,,,,,,,,,,,,,48,,,,,,,,,,,,,,416.2289999999921,,response,,,,10,E,,,,,,Space,keypress(Space),,,,lyrical,,,,-- -- --- ------ ------- --------- ----------- --------<br>--------- -------- --- country -- ------- ---- -- ------<br>-- --- -------- -------- ---------- ---- ---- ---- ------<br>-- --------- -- ---- -- --- -- --- ------- -- - -----<br>---------- -- -- -- ---- ----- -- ------ -- --- ------<br>-------,218427.6000000015,218427,217994.034,217997.8999999985,218010.771,218444.166,,11,country
screen,html.Screen,2_3_1_0_1_12,2022-02-17T14:55:45.838Z,,,,,,,,,,,,,,,,,48,,,,,,,,,,,,,,501.33400000000256,,response,,,,10,E,,,,,,Space,keypress(Space),,,,lyrical,,,,-- -- --- ------ ------- --------- ----------- --------<br>--------- -------- --- ------- to ------- ---- -- ------<br>-- --- -------- -------- ---------- ---- ---- ---- ------<br>-- --------- -- ---- -- --- -- --- ------- -- - -----<br>---------- -- -- -- ---- ----- -- ------ -- --- ------<br>-------,218946.5,218945.5,218427.738,218427.70000000298,218444.166,218960.733,,12,to
screen,html.Screen,2_3_1_0_1_13,2022-02-17T14:55:46.176Z,,,,,,,,,,,,,,,,,48,,,,,,,,,,,,,,323.0670000044629,,response,,,,10,E,,,,,,Space,keypress(Space),,,,lyrical,,,,-- -- --- ------ ------- --------- ----------- --------<br>--------- -------- --- ------- -- declare ---- -- ------<br>-- --- -------- -------- ---------- ---- ---- ---- ------<br>-- --------- -- ---- -- --- -- --- ------- -- - -----<br>---------- -- -- -- ---- ----- -- ------ -- --- ------<br>-------,219284.70000000298,219283.80000000447,218944.028,218946.6000000015,218960.733,219293.982,,13,declare
screen,html.Screen,2_3_1_0_1_14,2022-02-17T14:55:46.493Z,,,,,,,,,,,,,,,,,48,,,,,,,,,,,,,,306.7180000029912,,response,,,,10,E,,,,,,Space,keypress(Space),,,,lyrical,,,,-- -- --- ------ ------- --------- ----------- --------<br>--------- -------- --- ------- -- ------- cash -- ------<br>-- --- -------- -------- ---------- ---- ---- ---- ------<br>-- --------- -- ---- -- --- -- --- ------- -- - -----<br>---------- -- -- -- ---- ----- -- ------ -- --- ------<br>-------,219601.6000000015,219600.70000000298,219277.629,219284.8999999985,219293.982,219610.738,,14,cash
screen,html.Screen,2_3_1_0_1_15,2022-02-17T14:55:46.816Z,,,,,,,,,,,,,,,,,48,,,,,,,,,,,,,,313.2619999999879,,response,,,,10,E,,,,,,Space,keypress(Space),,,,lyrical,,,,-- -- --- ------ ------- --------- ----------- --------<br>--------- -------- --- ------- -- ------- ---- in ------<br>-- --- -------- -------- ---------- ---- ---- ---- ------<br>-- --------- -- ---- -- --- -- --- ------- -- - -----<br>---------- -- -- -- ---- ----- -- ------ -- --- ------<br>-------,219924.70000000298,219924,219594.465,219601.6000000015,219610.738,219927.332,,15,in
screen,html.Screen,2_3_1_0_1_16,2022-02-17T14:55:47.103Z,,,,,,,,,,,,,,,,,48,,,,,,,,,,,,,,282.26800000149524,,response,,,,10,E,,,,,,Space,keypress(Space),,,,lyrical,,,,-- -- --- ------ ------- --------- ----------- --------<br>--------- -------- --- ------- -- ------- ---- -- excess<br>-- --- -------- -------- ---------- ---- ---- ---- ------<br>-- --------- -- ---- -- --- -- --- ------- -- - -----<br>---------- -- -- -- ---- ----- -- ------ -- --- ------<br>-------,220211.1000000015,220209.6000000015,219911.106,219924.8999999985,219927.332,220227.357,,16,excess
screen,html.Screen,2_3_1_0_1_17,2022-02-17T14:55:47.588Z,,,,,,,,,,,,,,,,,48,,,,,,,,,,,,,,468.64300000001094,,response,,,,10,E,,,,,,Space,keypress(Space),,,,lyrical,,,,-- -- --- ------ ------- --------- ----------- --------<br>--------- -------- --- ------- -- ------- ---- -- ------<br>of --- -------- -------- ---------- ---- ---- ---- ------<br>-- --------- -- ---- -- --- -- --- ------- -- - -----<br>---------- -- -- -- ---- ----- -- ------ -- --- ------<br>-------,220696.8999999985,220696,220210.739,220211.1000000015,220227.357,220710.657,,17,of
screen,html.Screen,2_3_1_0_1_18,2022-02-17T14:55:47.907Z,,,,,,,,,,,,,,,,,48,,,,,,,,,,,,,,303.9430000014836,,response,,,,10,E,,,,,,Space,keypress(Space),,,,lyrical,,,,-- -- --- ------ ------- --------- ----------- --------<br>--------- -------- --- ------- -- ------- ---- -- ------<br>-- ten -------- -------- ---------- ---- ---- ---- ------<br>-- --------- -- ---- -- --- -- --- ------- -- - -----<br>---------- -- -- -- ---- ----- -- ------ -- --- ------<br>-------,221015.3999999985,221014.6000000015,220694.045,220697,220710.657,221027.394,,18,ten
screen,html.Screen,2_3_1_0_1_19,2022-02-17T14:55:48.293Z,,,,,,,,,,,,,,,,,48,,,,,,,,,,,,,,373.30600000298,,response,,,,10,E,,,,,,Space,keypress(Space),,,,lyrical,,,,-- -- --- ------ ------- --------- ----------- --------<br>--------- -------- --- ------- -- ------- ---- -- ------<br>-- --- thousand -------- ---------- ---- ---- ---- ------<br>-- --------- -- ---- -- --- -- --- ------- -- - -----<br>---------- -- -- -- ---- ----- -- ------ -- --- ------<br>-------,221401.3999999985,221400.70000000298,221011.133,221015.6000000015,221027.394,221410.724,,19,thousand
screen,html.Screen,2_3_1_0_1_20,2022-02-17T14:55:48.617Z,,,,,,,,,,,,,,,,,48,,,,,,,,,,,,,,313.67599999852246,,response,,,,10,E,,,,,,Space,keypress(Space),,,,lyrical,,,,-- -- --- ------ ------- --------- ----------- --------<br>--------- -------- --- ------- -- ------- ---- -- ------<br>-- --- -------- dollars. ---------- ---- ---- ---- ------<br>-- --------- -- ---- -- --- -- --- ------- -- - -----<br>---------- -- -- -- ---- ----- -- ------ -- --- ------<br>-------,221725.5,221724.3999999985,221394.041,221401.6000000015,221410.724,221727.359,,20,dollars.
screen,html.Screen,2_3_1_0_1_21,2022-02-17T14:55:49.079Z,,,,,,,,,,,,,,,,,48,,,,,,,,,,,,,,458.9410000044736,,response,,,,10,E,,,,,,Space,keypress(Space),,,,lyrical,,,,-- -- --- ------ ------- --------- ----------- --------<br>--------- -------- --- ------- -- ------- ---- -- ------<br>-- --- -------- -------- Concealing ---- ---- ---- ------<br>-- --------- -- ---- -- --- -- --- ------- -- - -----<br>---------- -- -- -- ---- ----- -- ------ -- --- ------<br>-------,222187.1000000015,222186.30000000447,221710.982,221725.6000000015,221727.359,222194.14,,21,Concealing
screen,html.Screen,2_3_1_0_1_22,2022-02-17T14:55:49.540Z,,,,,,,,,,,,,,,,,48,,,,,,,,,,,,,,452.56000000296626,,response,,,,10,E,,,,,,Space,keypress(Space),,,,lyrical,,,,-- -- --- ------ ------- --------- ----------- --------<br>--------- -------- --- ------- -- ------- ---- -- ------<br>-- --- -------- -------- ---------- more ---- ---- ------<br>-- --------- -- ---- -- --- -- --- ------- -- - -----<br>---------- -- -- -- ---- ----- -- ------ -- --- ------<br>-------,222648.1000000015,222646.70000000298,222177.378,222187.30000000447,222194.14,222660.648,,22,more
screen,html.Screen,2_3_1_0_1_23,2022-02-17T14:55:49.884Z,,,,,,,,,,,,,,,,,48,,,,,,,,,,,,,,330.65200000448385,,response,,,,10,E,,,,,,Space,keypress(Space),,,,lyrical,,,,-- -- --- ------ ------- --------- ----------- --------<br>--------- -------- --- ------- -- ------- ---- -- ------<br>-- --- -------- -------- ---------- ---- than ---- ------<br>-- --------- -- ---- -- --- -- --- ------- -- - -----<br>---------- -- -- -- ---- ----- -- ------ -- --- ------<br>-------,222992.20000000298,222991.30000000447,222644.02,222648.20000000298,222660.648,222994.072,,23,than
screen,html.Screen,2_3_1_0_1_24,2022-02-17T14:55:50.211Z,,,,,,,,,,,,,,,,,48,,,,,,,,,,,,,,324.12800000299467,,response,,,,10,E,,,,,,Space,keypress(Space),,,,lyrical,,,,-- -- --- ------ ------- --------- ----------- --------<br>--------- -------- --- ------- -- ------- ---- -- ------<br>-- --- -------- -------- ---------- ---- ---- that ------<br>-- --------- -- ---- -- --- -- --- ------- -- - -----<br>---------- -- -- -- ---- ----- -- ------ -- --- ------<br>-------,223319.1000000015,223318.20000000298,222977.559,222992.20000000298,222994.072,223327.318,,24,that
screen,html.Screen,2_3_1_0_1_25,2022-02-17T14:55:50.499Z,,,,,,,,,,,,,,,,,48,,,,,,,,,,,,,,278.7820000014908,,response,,,,10,E,,,,,,Space,keypress(Space),,,,lyrical,,,,-- -- --- ------ ------- --------- ----------- --------<br>--------- -------- --- ------- -- ------- ---- -- ------<br>-- --- -------- -------- ---------- ---- ---- ---- amount<br>-- --------- -- ---- -- --- -- --- ------- -- - -----<br>---------- -- -- -- ---- ----- -- ------ -- --- ------<br>-------,223607.20000000298,223606.1000000015,223311.009,223319.20000000298,223327.318,223610.708,,25,amount
screen,html.Screen,2_3_1_0_1_26,2022-02-17T14:55:50.868Z,,,,,,,,,,,,,,,,,48,,,,,,,,,,,,,,365.0920000044571,,response,,,,10,E,,,,,,Space,keypress(Space),,,,lyrical,,,,-- -- --- ------ ------- --------- ----------- --------<br>--------- -------- --- ------- -- ------- ---- -- ------<br>-- --- -------- -------- ---------- ---- ---- ---- ------<br>to --------- -- ---- -- --- -- --- ------- -- - -----<br>---------- -- -- -- ---- ----- -- ------ -- --- ------<br>-------,223977,223975.80000000447,223594.043,223607.3999999985,223610.708,223994.103,,26,to
screen,html.Screen,2_3_1_0_1_27,2022-02-17T14:55:51.214Z,,,,,,,,,,,,,,,,,48,,,,,,,,,,,,,,327.8969999999972,,response,,,,10,E,,,,,,Space,keypress(Space),,,,lyrical,,,,-- -- --- ------ ------- --------- ----------- --------<br>--------- -------- --- ------- -- ------- ---- -- ------<br>-- --- -------- -------- ---------- ---- ---- ---- ------<br>-- transport -- ---- -- --- -- --- ------- -- - -----<br>---------- -- -- -- ---- ----- -- ------ -- --- ------<br>-------,224322.80000000447,224322,223977.364,223977.20000000298,223994.103,224327.327,,27,transport
screen,html.Screen,2_3_1_0_1_28,2022-02-17T14:55:51.984Z,,,,,,,,,,,,,,,,,48,,,,,,,,,,,,,,764.7730000014999,,response,,,,10,E,,,,,,Space,keypress(Space),,,,lyrical,,,,-- -- --- ------ ------- --------- ----------- --------<br>--------- -------- --- ------- -- ------- ---- -- ------<br>-- --- -------- -------- ---------- ---- ---- ---- ------<br>-- --------- it ---- -- --- -- --- ------- -- - -----<br>---------- -- -- -- ---- ----- -- ------ -- --- ------<br>-------,225092.8999999985,225092.1000000015,224311.083,224322.8999999985,224327.327,225129.273,,28,it
screen,html.Screen,2_3_1_0_1_29,2022-02-17T14:55:52.600Z,,,,,,,,,,,,,,,,,48,,,,,,,,,,,,,,577.7270000000135,,response,,,,10,E,,,,,,Space,keypress(Space),,,,lyrical,,,,-- -- --- ------ ------- --------- ----------- --------<br>--------- -------- --- ------- -- ------- ---- -- ------<br>-- --- -------- -------- ---------- ---- ---- ---- ------<br>-- --------- -- into -- --- -- --- ------- -- - -----<br>---------- -- -- -- ---- ----- -- ------ -- --- ------<br>-------,225708,225707,225077.378,225093,225129.273,225710.668,,29,into
screen,html.Screen,2_3_1_0_1_30,2022-02-17T14:55:53.018Z,,,,,,,,,,,,,,,,,48,,,,,,,,,,,,,,414.932000001485,,response,,,,10,E,,,,,,Space,keypress(Space),,,,lyrical,,,,-- -- --- ------ ------- --------- ----------- --------<br>--------- -------- --- ------- -- ------- ---- -- ------<br>-- --- -------- -------- ---------- ---- ---- ---- ------<br>-- --------- -- ---- or --- -- --- ------- -- - -----<br>---------- -- -- -- ---- ----- -- ------ -- --- ------<br>-------,226126.80000000447,226125.6000000015,225694.049,225708.20000000298,225710.668,226160.822,,30,or
screen,html.Screen,2_3_1_0_1_31,2022-02-17T14:55:53.397Z,,,,,,,,,,,,,,,,,48,,,,,,,,,,,,,,343.4780000044848,,response,,,,10,E,,,,,,Space,keypress(Space),,,,lyrical,,,,-- -- --- ------ ------- --------- ----------- --------<br>--------- -------- --- ------- -- ------- ---- -- ------<br>-- --- -------- -------- ---------- ---- ---- ---- ------<br>-- --------- -- ---- -- out -- --- ------- -- - -----<br>---------- -- -- -- ---- ----- -- ------ -- --- ------<br>-------,226505.20000000298,226504.30000000447,226144.336,226126.8999999985,226160.822,226510.634,,31,out
screen,html.Screen,2_3_1_0_1_32,2022-02-17T14:55:53.744Z,,,,,,,,,,,,,,,,,48,,,,,,,,,,,,,,340.8660000000091,,response,,,,10,E,,,,,,Space,keypress(Space),,,,lyrical,,,,-- -- --- ------ ------- --------- ----------- --------<br>--------- -------- --- ------- -- ------- ---- -- ------<br>-- --- -------- -------- ---------- ---- ---- ---- ------<br>-- --------- -- ---- -- --- of --- ------- -- - -----<br>---------- -- -- -- ---- ----- -- ------ -- --- ------<br>-------,226852.30000000447,226851.5,226494.021,226505.3999999985,226510.634,226860.758,,32,of
screen,html.Screen,2_3_1_0_1_33,2022-02-17T14:55:54.158Z,,,,,,,,,,,,,,,,,48,,,,,,,,,,,,,,404.74199999999837,,response,,,,10,E,,,,,,Space,keypress(Space),,,,lyrical,,,,-- -- --- ------ ------- --------- ----------- --------<br>--------- -------- --- ------- -- ------- ---- -- ------<br>-- --- -------- -------- ---------- ---- ---- ---- ------<br>-- --------- -- ---- -- --- -- the ------- -- - -----<br>---------- -- -- -- ---- ----- -- ------ -- --- ------<br>-------,227266.70000000298,227265.5,226844.061,226852.3999999985,226860.758,227277.714,,33,the
screen,html.Screen,2_3_1_0_1_34,2022-02-17T14:55:54.630Z,,,,,,,,,,,,,,,,,48,,,,,,,,,,,,,,459.7859999999928,,response,,,,10,E,,,,,,Space,keypress(Space),,,,lyrical,,,,-- -- --- ------ ------- --------- ----------- --------<br>--------- -------- --- ------- -- ------- ---- -- ------<br>-- --- -------- -------- ---------- ---- ---- ---- ------<br>-- --------- -- ---- -- --- -- --- country -- - -----<br>---------- -- -- -- ---- ----- -- ------ -- --- ------<br>-------,227738.70000000298,227737.5,227260.991,227266.80000000447,227277.714,227744.013,,34,country
screen,html.Screen,2_3_1_0_1_35,2022-02-17T14:55:54.972Z,,,,,,,,,,,,,,,,,48,,,,,,,,,,,,,,336.28700000446406,,response,,,,10,E,,,,,,Space,keypress(Space),,,,lyrical,,,,-- -- --- ------ ------- --------- ----------- --------<br>--------- -------- --- ------- -- ------- ---- -- ------<br>-- --- -------- -------- ---------- ---- ---- ---- ------<br>-- --------- -- ---- -- --- -- --- ------- is - -----<br>---------- -- -- -- ---- ----- -- ------ -- --- ------<br>-------,228081,228080.30000000447,227727.587,227738.80000000447,227744.013,228094.066,,35,is
screen,html.Screen,2_3_1_0_1_36,2022-02-17T14:55:55.265Z,,,,,,,,,,,,,,,,,48,,,,,,,,,,,,,,278.4340000000084,,response,,,,10,E,,,,,,Space,keypress(Space),,,,lyrical,,,,-- -- --- ------ ------- --------- ----------- --------<br>--------- -------- --- ------- -- ------- ---- -- ------<br>-- --- -------- -------- ---------- ---- ---- ---- ------<br>-- --------- -- ---- -- --- -- --- ------- -- a -----<br>---------- -- -- -- ---- ----- -- ------ -- --- ------<br>-------,228373.30000000447,228372.5,228077.656,228081,228094.066,228377.343,,36,a
screen,html.Screen,2_3_1_0_1_37,2022-02-17T14:55:55.631Z,,,,,,,,,,,,,,,,,48,,,,,,,,,,,,,,361.6570000000065,,response,,,,10,E,,,,,,Space,keypress(Space),,,,lyrical,,,,-- -- --- ------ ------- --------- ----------- --------<br>--------- -------- --- ------- -- ------- ---- -- ------<br>-- --- -------- -------- ---------- ---- ---- ---- ------<br>-- --------- -- ---- -- --- -- --- ------- -- - crime<br>---------- -- -- -- ---- ----- -- ------ -- --- ------<br>-------,228739.80000000447,228739,228360.691,228373.5,228377.343,228743.987,,37,crime
screen,html.Screen,2_3_1_0_1_38,2022-02-17T14:55:55.941Z,,,,,,,,,,,,,,,,,48,,,,,,,,,,,,,,304.91299999851617,,response,,,,10,E,,,,,,Space,keypress(Space),,,,lyrical,,,,-- -- --- ------ ------- --------- ----------- --------<br>--------- -------- --- ------- -- ------- ---- -- ------<br>-- --- -------- -------- ---------- ---- ---- ---- ------<br>-- --------- -- ---- -- --- -- --- ------- -- - -----<br>punishable -- -- -- ---- ----- -- ------ -- --- ------<br>-------,229049.70000000298,229048.8999999985,228727.414,228739.8999999985,228743.987,229060.675,,38,punishable
screen,html.Screen,2_3_1_0_1_39,2022-02-17T14:55:56.247Z,,,,,,,,,,,,,,,,,48,,,,,,,,,,,,,,294.32500000001164,,response,,,,10,E,,,,,,Space,keypress(Space),,,,lyrical,,,,-- -- --- ------ ------- --------- ----------- --------<br>--------- -------- --- ------- -- ------- ---- -- ------<br>-- --- -------- -------- ---------- ---- ---- ---- ------<br>-- --------- -- ---- -- --- -- --- ------- -- - -----<br>---------- by -- -- ---- ----- -- ------ -- --- ------<br>-------,229355.8999999985,229355,229044.055,229049.8999999985,229060.675,229360.904,,39,by
screen,html.Screen,2_3_1_0_1_40,2022-02-17T14:55:56.554Z,,,,,,,,,,,,,,,,,48,,,,,,,,,,,,,,301.09599999999045,,response,,,,10,E,,,,,,Space,keypress(Space),,,,lyrical,,,,-- -- --- ------ ------- --------- ----------- --------<br>--------- -------- --- ------- -- ------- ---- -- ------<br>-- --- -------- -------- ---------- ---- ---- ---- ------<br>-- --------- -- ---- -- --- -- --- ------- -- - -----<br>---------- -- up -- ---- ----- -- ------ -- --- ------<br>-------,229662.6000000015,229662,229344.436,229356,229360.904,229677.591,,40,up
screen,html.Screen,2_3_1_0_1_41,2022-02-17T14:55:56.811Z,,,,,,,,,,,,,,,,,48,,,,,,,,,,,,,,240.3089999985241,,response,,,,10,E,,,,,,Space,keypress(Space),,,,lyrical,,,,-- -- --- ------ ------- --------- ----------- --------<br>--------- -------- --- ------- -- ------- ---- -- ------<br>-- --- -------- -------- ---------- ---- ---- ---- ------<br>-- --------- -- ---- -- --- -- --- ------- -- - -----<br>---------- -- -- to ---- ----- -- ------ -- --- ------<br>-------,229919.1000000015,229917.8999999985,229660.996,229662.80000000447,229677.591,229927.364,,41,to
screen,html.Screen,2_3_1_0_1_42,2022-02-17T14:55:57.034Z,,,,,,,,,,,,,,,,,48,,,,,,,,,,,,,,214.1359999999986,,response,,,,10,E,,,,,,Space,keypress(Space),,,,lyrical,,,,-- -- --- ------ ------- --------- ----------- --------<br>--------- -------- --- ------- -- ------- ---- -- ------<br>-- --- -------- -------- ---------- ---- ---- ---- ------<br>-- --------- -- ---- -- --- -- --- ------- -- - -----<br>---------- -- -- -- five ----- -- ------ -- --- ------<br>-------,230142.5,230141.5,229910.849,229919.30000000447,229927.364,230144.001,,42,five
screen,html.Screen,2_3_1_0_1_43,2022-02-17T14:55:57.348Z,,,,,,,,,,,,,,,,,48,,,,,,,,,,,,,,311.8989999985206,,response,,,,10,E,,,,,,Space,keypress(Space),,,,lyrical,,,,-- -- --- ------ ------- --------- ----------- --------<br>--------- -------- --- ------- -- ------- ---- -- ------<br>-- --- -------- -------- ---------- ---- ---- ---- ------<br>-- --------- -- ---- -- --- -- --- ------- -- - -----<br>---------- -- -- -- ---- years -- ------ -- --- ------<br>-------,230456.3999999985,230455.8999999985,230127.373,230142.6000000015,230144.001,230460.617,,43,years
