sender,sender_type,sender_id,timestamp,meta,,Blues,Classical,Country,Dance,Electronic,Folk,Gospel,Hip-Hop,Jazz,Latin,Musical/Film,New-age,Pop,Prolific_id,Provo_ID,R&B,Rap,Reggae,Religious,Rock,Soul,Swing,Traditional,age,artist_name,correct,correctResponse,distraction,duration,education,ended_on,familiarity,gender,headphone_check_performance,item,list,music_frequency,offensiveness,pleasantness,position_correct,preference,response,response_action,snippet_file,song_name,song_rating,sound,stimulus_1,stimulus_2,stimulus_3,text,time_commit,time_end,time_render,time_run,time_show,time_switch,url,word,word_ID
Prolific ID,html.Form,0,2022-02-21T16:49:40.886Z,"{""labjs_version"":""20.2.2"",""labjs_build"":{""flavor"":""production"",""commit"":""a25486e0c714a0ae2ce03ff94b7bb6896854dcfa""},""location"":""https://run.pavlovia.org/mvasilev/prolific2_music_e/"",""userAgent"":""Mozilla/5.0 (Windows NT 10.0; Win64; x64) AppleWebKit/537.36 (KHTML, like Gecko) Chrome/98.0.4758.102 Safari/537.36"",""platform"":""Win32"",""language"":""en-US"",""locale"":""en-GB"",""timeZone"":""Europe/London"",""timezoneOffset"":0,""screen_width"":1600,""screen_height"":900,""scroll_width"":1455,""scroll_height"":641,""window_innerWidth"":1455,""window_innerHeight"":688,""devicePixelRatio"":1.100000023841858}",,,,,,,,,,,,,,,5e9430cc1ed15800084ffbb0,,,,,,,,,,,,,,,6657.683000000001,,form submission,,,,,,,,,,,,,,,,,,,,,39247.300000000745,39247,32539.782,32551,32589.317,39255.031,{},,
Introduction,html.Screen,1_0,2022-02-21T16:49:48.791Z,,,,,,,,,,,,,,,,,,,,,,,,,,,,,,,7894.468999999997,,response,,,,,,,,,,,continue,click button,,,,,,,,,47151.89999999851,47149.5,39238.471,39247.60000000149,39255.031,47153.898,,,
Volume calibration,html.Screen,1_1,2022-02-21T16:50:36.028Z,,,,,,,,,,,,,,,,,,,,,,,,,,,,,,,47231.70200000149,,response,,,,,,,,,,,continue,click button,,,,,,,,,94389.30000000075,94385.60000000149,47137.317,47152.10000000149,47153.898,94397.162,,,
Task instructions,html.Screen,1_2,2022-02-21T16:50:48.209Z,,,,,,,,,,,,,,,,,,,,,,,,,,,,,,,12172.638000000748,,response,,,,,,,,,,,continue,click button,,,,,,,,,106570.80000000075,106569.80000000075,94380.588,94389.5,94397.162,106578.718,,,
Sounds,html.Screen,1_3_0_0,2022-02-21T16:50:52.456Z,,,,,,,,,,,,,,,,,,,,,,,,,,,,,,,4249.4800000000105,,timeout,,,,,,,,,2,,,,,,,,O,S,I,,110817.60000000149,110811.57,106562.2,106571.10000000149,106578.718,110828.198,,,
Judgement,html.Screen,1_3_0_1,2022-02-21T16:51:02.884Z,,,,,,,,,,,,,,,,,,,,,,,,,,,,true,2,,10415.801999999996,,response,,,,,,,,,2,,2,click #choice-2,,,,,O,S,I,,121245,121244,110811.57,110817.89999999851,110828.198,121259.927,,,
Trial,flow.Sequence,1_3_0,2022-02-21T16:51:02.886Z,,,,,,,,,,,,,,,,,,,,,,,,,,,,,,,14665.282000000007,,completion,,,,,,,,,2,,,,,,,,O,S,I,,121246.69999999925,121244,106562.2,106571,106578.718,121259.927,,,
Sounds,html.Screen,1_3_1_0,2022-02-21T16:51:07.133Z,,,,,,,,,,,,,,,,,,,,,,,,,,,,,,,4249.451000000001,,timeout,,,,,,,,,2,,,,,,,,I,S,O,,125493.80000000075,125492.726,121243.417,121246.80000000075,121259.927,125509.378,,,
Judgement,html.Screen,1_3_1_1,2022-02-21T16:51:08.090Z,,,,,,,,,,,,,,,,,,,,,,,,,,,,true,2,,940.622000000003,,response,,,,,,,,,2,,2,click #choice-2,,,,,I,S,O,,126451,126450,125492.726,125494.10000000149,125509.378,126459.253,,,
Trial,flow.Sequence,1_3_1,2022-02-21T16:51:08.091Z,,,,,,,,,,,,,,,,,,,,,,,,,,,,,,,5190.073000000004,,completion,,,,,,,,,2,,,,,,,,I,S,O,,126451.30000000075,126450,121243.417,121246.80000000075,121259.927,126459.253,,,
Sounds,html.Screen,1_3_2_0,2022-02-21T16:51:12.333Z,,,,,,,,,,,,,,,,,,,,,,,,,,,,,,,4249.358999999997,,timeout,,,,,,,,,3,,,,,,,,O,I,S,,130693.80000000075,130691.99,126442.651,126451.5,126459.253,130708.612,,,
Judgement,html.Screen,1_3_2_1,2022-02-21T16:51:12.955Z,,,,,,,,,,,,,,,,,,,,,,,,,,,,true,3,,605.5879999992612,,response,,,,,,,,,3,,3,click #choice-3,,,,,O,I,S,,131315.19999999925,131314.19999999925,130691.99,130694.39999999851,130708.612,131325.201,,,
Trial,flow.Sequence,1_3_2,2022-02-21T16:51:12.955Z,,,,,,,,,,,,,,,,,,,,,,,,,,,,,,,4854.946999999258,,completion,,,,,,,,,3,,,,,,,,O,I,S,,131315.5,131314.19999999925,126442.651,126451.39999999851,126459.253,131325.201,,,
Sounds,html.Screen,1_3_3_0,2022-02-21T16:51:17.198Z,,,,,,,,,,,,,,,,,,,,,,,,,,,,,,,4249.4100000000035,,timeout,,,,,,,,,3,,,,,,,,I,O,S,,135559.19999999925,135557.982,131308.574,131315.6000000015,131325.201,135574.611,,,
Judgement,html.Screen,1_3_3_1,2022-02-21T16:51:18.881Z,,,,,,,,,,,,,,,,,,,,,,,,,,,,true,3,,1665.5889999992505,,response,,,,,,,,,3,,3,click #choice-3,,,,,I,O,S,,137241.3999999985,137240.19999999925,135557.982,135559.3999999985,135574.611,137257.747,,,
Trial,flow.Sequence,1_3_3,2022-02-21T16:51:18.881Z,,,,,,,,,,,,,,,,,,,,,,,,,,,,,,,5914.998999999254,,completion,,,,,,,,,3,,,,,,,,I,O,S,,137241.69999999925,137240.19999999925,131308.574,131315.6000000015,131325.201,137257.747,,,
Sounds,html.Screen,1_3_4_0,2022-02-21T16:51:23.131Z,,,,,,,,,,,,,,,,,,,,,,,,,,,,,,,4249.334000000003,,timeout,,,,,,,,,1,,,,,,,,S,I,O,,141491.6000000015,141490.505,137224.396,137241.69999999925,137257.747,141507.081,,,
Judgement,html.Screen,1_3_4_1,2022-02-21T16:51:23.793Z,,,,,,,,,,,,,,,,,,,,,,,,,,,,true,1,,645.2190000007395,,response,,,,,,,,,1,,1,click #choice-1,,,,,S,I,O,,142153.3999999985,142152.30000000075,141490.505,141491.8999999985,141507.081,142156.905,,,
Trial,flow.Sequence,1_3_4,2022-02-21T16:51:23.793Z,,,,,,,,,,,,,,,,,,,,,,,,,,,,,,,4894.553000000742,,completion,,,,,,,,,1,,,,,,,,S,I,O,,142153.5,142152.30000000075,137224.396,137241.69999999925,137257.747,142156.905,,,
Sounds,html.Screen,1_3_5_0,2022-02-21T16:51:28.031Z,,,,,,,,,,,,,,,,,,,,,,,,,,,,,,,4249.540999999997,,timeout,,,,,,,,,1,,,,,,,,S,O,I,,146391.6000000015,146389.74,142140.43,142153.69999999925,142156.905,146406.446,,,
Judgement,html.Screen,1_3_5_1,2022-02-21T16:51:28.619Z,,,,,,,,,,,,,,,,,,,,,,,,,,,,true,1,,571.8540000007488,,response,,,,,,,,,1,,1,click #choice-1,,,,,S,O,I,,146979.3999999985,146978.30000000075,146389.74,146392,146406.446,146989.642,,,
Trial,flow.Sequence,1_3_5,2022-02-21T16:51:28.619Z,,,,,,,,,,,,,,,,,,,,,,,,,,,,,,,4821.395000000746,,completion,,,,,,,,,1,,,,,,,,S,O,I,,146979.5,146978.30000000075,142140.43,142153.69999999925,142156.905,146989.642,,,
Task,flow.Loop,1_3,2022-02-21T16:51:28.623Z,,,,,,,,,,,,,,,,,,,,,,,,,,,,,,,40399.58200000075,,completion,,,1,,,,,,,,,,,,,,,,,,146983.3999999985,146978.30000000075,106562.2,106571,106578.718,146989.642,,,
Trap,html.Screen,1_4,2022-02-21T16:51:28.624Z,,,,,,,,,,,,,,,,,,,,,,,,,,,,,,,NaN,,skipped,,,,,,,,,,,,,,,,,,,,,146984.30000000075,146978.30000000075,,146984.19999999925,,146989.642,,,
Thanks,html.Screen,1_5,2022-02-21T16:51:34.559Z,,,,,,,,,,,,,,,,,,,,,,,,,,,,,,,5928.6580000007525,,response,,,,,,,,,,,continue,click button,,,,,,,,,152919.30000000075,152918.30000000075,146972.976,146984.3999999985,146989.642,158588.201,,,
Headphone screening,flow.Sequence,1,2022-02-21T16:51:34.559Z,,,,,,,,,,,,,,,,,,,,,,,,,,,,,,,113663.26900000074,,completion,,,,,,,,,,,,,,,,,,,,,152919.6000000015,152918.30000000075,39238.471,39247.60000000149,39255.031,158588.201,,,
Instructions,html.Page,2_0,2022-02-21T16:52:03.787Z,,,,,,,,,,,,,,,,,,,,,,,,,,,,,,,23559.599000000744,,form submission,,,,,,,,,,,,,,,,,,,,,182148,182147.80000000075,158554.579,158581.19999999925,158588.201,182151.183,,,
Holding screen,html.Screen,2_1_0_0,2022-02-21T16:52:13.773Z,,,,,,,,,,,,,,,,,,,,,,,,,,,,,,,10015.315000000002,,timeout,,,,,,,,,,,,,,,,,,,,,192134.30000000075,192133.257,182134.69,182148.19999999925,182151.183,192166.498,,,
screen,html.Screen,2_1_0_1_0,2022-02-21T16:52:14.796Z,,,,,,,,,,,,,,,,,53,,,,,,,,,,,,,,985.1020000014978,,response,,,,99,,,,,,,Space,keypress(Space),,,,,,,,When -- ----- -- ------ - ------- --- ----------<br>------------- ------ ------ ---- ---- ------- ----- -- ----<br>-------- ------- -- ---------- --- - --- ----- ----- ----<br>---- --- --- ----- --- ---- ---- ------- ----- ---- -------<br>--- --- -- ----- -- --- ---- -- --- ---- -- ------ ------<br>--- ----- -- ----,193157.69999999925,193151.6000000015,192133.257,192134.69999999925,192166.498,193166.419,,0,When
screen,html.Screen,2_1_0_1_1,2022-02-21T16:52:15.292Z,,,,,,,,,,,,,,,,,53,,,,,,,,,,,,,,486.1810000014957,,response,,,,99,,,,,,,Space,keypress(Space),,,,,,,,---- it ----- -- ------ - ------- --- ----------<br>------------- ------ ------ ---- ---- ------- ----- -- ----<br>-------- ------- -- ---------- --- - --- ----- ----- ----<br>---- --- --- ----- --- ---- ---- ------- ----- ---- -------<br>--- --- -- ----- -- --- ---- -- --- ---- -- ------ ------<br>--- ----- -- ----,193653.69999999925,193652.6000000015,193149.85,193158,193166.419,193666.253,,1,it
screen,html.Screen,2_1_0_1_2,2022-02-21T16:52:15.745Z,,,,,,,,,,,,,,,,,53,,,,,,,,,,,,,,439.5470000007481,,response,,,,99,,,,,,,Space,keypress(Space),,,,,,,,---- -- comes -- ------ - ------- --- ----------<br>------------- ------ ------ ---- ---- ------- ----- -- ----<br>-------- ------- -- ---------- --- - --- ----- ----- ----<br>---- --- --- ----- --- ---- ---- ------- ----- ---- -------<br>--- --- -- ----- -- --- ---- -- --- ---- -- ------ ------<br>--- ----- -- ----,194106.8999999985,194105.80000000075,193649.765,193654,193666.253,194116.227,,2,comes
screen,html.Screen,2_1_0_1_3,2022-02-21T16:52:16.177Z,,,,,,,,,,,,,,,,,53,,,,,,,,,,,,,,420.8730000014766,,response,,,,99,,,,,,,Space,keypress(Space),,,,,,,,---- -- ----- to ------ - ------- --- ----------<br>------------- ------ ------ ---- ---- ------- ----- -- ----<br>-------- ------- -- ---------- --- - --- ----- ----- ----<br>---- --- --- ----- --- ---- ---- ------- ----- ---- -------<br>--- --- -- ----- -- --- ---- -- --- ---- -- ------ ------<br>--- ----- -- ----,194538.19999999925,194537.1000000015,194099.654,194107.19999999925,194116.227,194549.554,,3,to
screen,html.Screen,2_1_0_1_4,2022-02-21T16:52:16.579Z,,,,,,,,,,,,,,,,,53,,,,,,,,,,,,,,389.84599999850616,,response,,,,99,,,,,,,Space,keypress(Space),,,,,,,,---- -- ----- -- having - ------- --- ----------<br>------------- ------ ------ ---- ---- ------- ----- -- ----<br>-------- ------- -- ---------- --- - --- ----- ----- ----<br>---- --- --- ----- --- ---- ---- ------- ----- ---- -------<br>--- --- -- ----- -- --- ---- -- --- ---- -- ------ ------<br>--- ----- -- ----,194940.69999999925,194939.3999999985,194532.944,194538.3999999985,194549.554,194949.442,,4,having
screen,html.Screen,2_1_0_1_5,2022-02-21T16:52:17.037Z,,,,,,,,,,,,,,,,,53,,,,,,,,,,,,,,447.85800000073505,,response,,,,99,,,,,,,Space,keypress(Space),,,,,,,,---- -- ----- -- ------ a ------- --- ----------<br>------------- ------ ------ ---- ---- ------- ----- -- ----<br>-------- ------- -- ---------- --- - --- ----- ----- ----<br>---- --- --- ----- --- ---- ---- ------- ----- ---- -------<br>--- --- -- ----- -- --- ---- -- --- ---- -- ------ ------<br>--- ----- -- ----,195398.5,195397.30000000075,194932.908,194940.80000000075,194949.442,195416.131,,5,a
screen,html.Screen,2_1_0_1_6,2022-02-21T16:52:17.574Z,,,,,,,,,,,,,,,,,53,,,,,,,,,,,,,,518.369000000006,,response,,,,99,,,,,,,Space,keypress(Space),,,,,,,,---- -- ----- -- ------ - lasting --- ----------<br>------------- ------ ------ ---- ---- ------- ----- -- ----<br>-------- ------- -- ---------- --- - --- ----- ----- ----<br>---- --- --- ----- --- ---- ---- ------- ----- ---- -------<br>--- --- -- ----- -- --- ---- -- --- ---- -- ------ ------<br>--- ----- -- ----,195935.80000000075,195934.5,195382.84,195398.69999999925,195416.131,195949.357,,6,lasting
screen,html.Screen,2_1_0_1_7,2022-02-21T16:52:18.207Z,,,,,,,,,,,,,,,,,53,,,,,,,,,,,,,,617.6430000000109,,response,,,,99,,,,,,,Space,keypress(Space),,,,,,,,---- -- ----- -- ------ - ------- and ----------<br>------------- ------ ------ ---- ---- ------- ----- -- ----<br>-------- ------- -- ---------- --- - --- ----- ----- ----<br>---- --- --- ----- --- ---- ---- ------- ----- ---- -------<br>--- --- -- ----- -- --- ---- -- --- ---- -- ------ ------<br>--- ----- -- ----,196568.30000000075,196567,195932.819,195936,195949.357,196582.657,,7,and
screen,html.Screen,2_1_0_1_8,2022-02-21T16:52:18.715Z,,,,,,,,,,,,,,,,,53,,,,,,,,,,,,,,492.5429999992484,,response,,,,99,,,,,,,Space,keypress(Space),,,,,,,,---- -- ----- -- ------ - ------- --- fulfilling<br>------------- ------ ------ ---- ---- ------- ----- -- ----<br>-------- ------- -- ---------- --- - --- ----- ----- ----<br>---- --- --- ----- --- ---- ---- ------- ----- ---- -------<br>--- --- -- ----- -- --- ---- -- --- ---- -- ------ ------<br>--- ----- -- ----,197076.3999999985,197075.19999999925,196565.987,196568.6000000015,196582.657,197082.482,,8,fulfilling
screen,html.Screen,2_1_0_1_9,2022-02-21T16:52:19.301Z,,,,,,,,,,,,,,,,,53,,,,,,,,,,,,,,578.0180000000109,,response,,,,99,,,,,,,Space,keypress(Space),,,,,,,,"---- -- ----- -- ------ - ------- --- ----------<br>relationship, ------ ------ ---- ---- ------- ----- -- ----<br>-------- ------- -- ---------- --- - --- ----- ----- ----<br>---- --- --- ----- --- ---- ---- ------- ----- ---- -------<br>--- --- -- ----- -- --- ---- -- --- ---- -- ------ ------<br>--- ----- -- ----",197662.1000000015,197660.5,197065.924,197076.69999999925,197082.482,197665.719,,9,"relationship,"
screen,html.Screen,2_1_0_1_10,2022-02-21T16:52:19.768Z,,,,,,,,,,,,,,,,,53,,,,,,,,,,,,,,462.48099999924307,,response,,,,99,,,,,,,Space,keypress(Space),,,,,,,,---- -- ----- -- ------ - ------- --- ----------<br>------------- common ------ ---- ---- ------- ----- -- ----<br>-------- ------- -- ---------- --- - --- ----- ----- ----<br>---- --- --- ----- --- ---- ---- ------- ----- ---- -------<br>--- --- -- ----- -- --- ---- -- --- ---- -- ------ ------<br>--- ----- -- ----,198129.3999999985,198128.19999999925,197649.169,197662.3999999985,197665.719,198132.327,,10,common
screen,html.Screen,2_1_0_1_11,2022-02-21T16:52:20.199Z,,,,,,,,,,,,,,,,,53,,,,,,,,,,,,,,427.2730000014999,,response,,,,99,,,,,,,Space,keypress(Space),,,,,,,,---- -- ----- -- ------ - ------- --- ----------<br>------------- ------ wisdom ---- ---- ------- ----- -- ----<br>-------- ------- -- ---------- --- - --- ----- ----- ----<br>---- --- --- ----- --- ---- ---- ------- ----- ---- -------<br>--- --- -- ----- -- --- ---- -- --- ---- -- ------ ------<br>--- ----- -- ----,198560.8999999985,198559.6000000015,198115.779,198129.69999999925,198132.327,198565.563,,11,wisdom
screen,html.Screen,2_1_0_1_12,2022-02-21T16:52:20.656Z,,,,,,,,,,,,,,,,,53,,,,,,,,,,,,,,450.83699999851524,,response,,,,99,,,,,,,Space,keypress(Space),,,,,,,,---- -- ----- -- ------ - ------- --- ----------<br>------------- ------ ------ says ---- ------- ----- -- ----<br>-------- ------- -- ---------- --- - --- ----- ----- ----<br>---- --- --- ----- --- ---- ---- ------- ----- ---- -------<br>--- --- -- ----- -- --- ---- -- --- ---- -- ------ ------<br>--- ----- -- ----,199017.69999999925,199016.3999999985,198549.063,198561.19999999925,198565.563,199032.239,,12,says
screen,html.Screen,2_1_0_1_13,2022-02-21T16:52:21.055Z,,,,,,,,,,,,,,,,,53,,,,,,,,,,,,,,382.6609999985085,,response,,,,99,,,,,,,Space,keypress(Space),,,,,,,,---- -- ----- -- ------ - ------- --- ----------<br>------------- ------ ------ ---- that ------- ----- -- ----<br>-------- ------- -- ---------- --- - --- ----- ----- ----<br>---- --- --- ----- --- ---- ---- ------- ----- ---- -------<br>--- --- -- ----- -- --- ---- -- --- ---- -- ------ ------<br>--- ----- -- ----,199416.30000000075,199414.8999999985,199015.645,199017.8999999985,199032.239,199432.206,,13,that
screen,html.Screen,2_1_0_1_14,2022-02-21T16:52:21.473Z,,,,,,,,,,,,,,,,,53,,,,,,,,,,,,,,400.7939999999944,,response,,,,99,,,,,,,Space,keypress(Space),,,,,,,,---- -- ----- -- ------ - ------- --- ----------<br>------------- ------ ------ ---- ---- feeling ----- -- ----<br>-------- ------- -- ---------- --- - --- ----- ----- ----<br>---- --- --- ----- --- ---- ---- ------- ----- ---- -------<br>--- --- -- ----- -- --- ---- -- --- ---- -- ------ ------<br>--- ----- -- ----,199834.30000000075,199833,199415.583,199416.6000000015,199432.206,199848.845,,14,feeling
screen,html.Screen,2_1_0_1_15,2022-02-21T16:52:21.912Z,,,,,,,,,,,,,,,,,53,,,,,,,,,,,,,,423.5549999985087,,response,,,,99,,,,,,,Space,keypress(Space),,,,,,,,---- -- ----- -- ------ - ------- --- ----------<br>------------- ------ ------ ---- ---- ------- close -- ----<br>-------- ------- -- ---------- --- - --- ----- ----- ----<br>---- --- --- ----- --- ---- ---- ------- ----- ---- -------<br>--- --- -- ----- -- --- ---- -- --- ---- -- ------ ------<br>--- ----- -- ----,200273.6000000015,200272.3999999985,199832.157,199834.5,199848.845,200281.963,,15,close
screen,html.Screen,2_1_0_1_16,2022-02-21T16:52:22.309Z,,,,,,,,,,,,,,,,,53,,,,,,,,,,,,,,387.33700000075623,,response,,,,99,,,,,,,Space,keypress(Space),,,,,,,,---- -- ----- -- ------ - ------- --- ----------<br>------------- ------ ------ ---- ---- ------- ----- to ----<br>-------- ------- -- ---------- --- - --- ----- ----- ----<br>---- --- --- ----- --- ---- ---- ------- ----- ---- -------<br>--- --- -- ----- -- --- ---- -- --- ---- -- ------ ------<br>--- ----- -- ----,200670.5,200669.30000000075,200265.452,200273.8999999985,200281.963,200682.046,,16,to
screen,html.Screen,2_1_0_1_17,2022-02-21T16:52:22.709Z,,,,,,,,,,,,,,,,,53,,,,,,,,,,,,,,387.25400000074296,,response,,,,99,,,,,,,Space,keypress(Space),,,,,,,,---- -- ----- -- ------ - ------- --- ----------<br>------------- ------ ------ ---- ---- ------- ----- -- your<br>-------- ------- -- ---------- --- - --- ----- ----- ----<br>---- --- --- ----- --- ---- ---- ------- ----- ---- -------<br>--- --- -- ----- -- --- ---- -- --- ---- -- ------ ------<br>--- ----- -- ----,201070.5,201069.30000000075,200665.315,200670.80000000075,200682.046,201082.028,,17,your
screen,html.Screen,2_1_0_1_18,2022-02-21T16:52:23.079Z,,,,,,,,,,,,,,,,,53,,,,,,,,,,,,,,357.37199999851873,,response,,,,99,,,,,,,Space,keypress(Space),,,,,,,,---- -- ----- -- ------ - ------- --- ----------<br>------------- ------ ------ ---- ---- ------- ----- -- ----<br>romantic ------- -- ---------- --- - --- ----- ----- ----<br>---- --- --- ----- --- ---- ---- ------- ----- ---- -------<br>--- --- -- ----- -- --- ---- -- --- ---- -- ------ ------<br>--- ----- -- ----,201440.80000000075,201439.3999999985,201065.327,201070.80000000075,201082.028,201448.508,,18,romantic
screen,html.Screen,2_1_0_1_19,2022-02-21T16:52:23.447Z,,,,,,,,,,,,,,,,,53,,,,,,,,,,,,,,359.0920000014885,,response,,,,99,,,,,,,Space,keypress(Space),,,,,,,,---- -- ----- -- ------ - ------- --- ----------<br>------------- ------ ------ ---- ---- ------- ----- -- ----<br>-------- partner -- ---------- --- - --- ----- ----- ----<br>---- --- --- ----- --- ---- ---- ------- ----- ---- -------<br>--- --- -- ----- -- --- ---- -- --- ---- -- ------ ------<br>--- ----- -- ----,201808.80000000075,201807.6000000015,201431.877,201441.1000000015,201448.508,201815.102,,19,partner
screen,html.Screen,2_1_0_1_20,2022-02-21T16:52:23.776Z,,,,,,,,,,,,,,,,,53,,,,,,,,,,,,,,320.4980000014766,,response,,,,99,,,,,,,Space,keypress(Space),,,,,,,,---- -- ----- -- ------ - ------- --- ----------<br>------------- ------ ------ ---- ---- ------- ----- -- ----<br>-------- ------- is ---------- --- - --- ----- ----- ----<br>---- --- --- ----- --- ---- ---- ------- ----- ---- -------<br>--- --- -- ----- -- --- ---- -- --- ---- -- ------ ------<br>--- ----- -- ----,202137,202135.6000000015,201798.591,201809,201815.102,202148.505,,20,is
screen,html.Screen,2_1_0_1_21,2022-02-21T16:52:24.138Z,,,,,,,,,,,,,,,,,53,,,,,,,,,,,,,,349.59500000148546,,response,,,,99,,,,,,,Space,keypress(Space),,,,,,,,---- -- ----- -- ------ - ------- --- ----------<br>------------- ------ ------ ---- ---- ------- ----- -- ----<br>-------- ------- -- paramount. --- - --- ----- ----- ----<br>---- --- --- ----- --- ---- ---- ------- ----- ---- -------<br>--- --- -- ----- -- --- ---- -- --- ---- -- ------ ------<br>--- ----- -- ----,202499.6000000015,202498.1000000015,202131.75,202137.19999999925,202148.505,202515.1,,21,paramount.
screen,html.Screen,2_1_0_1_22,2022-02-21T16:52:24.725Z,,,,,,,,,,,,,,,,,53,,,,,,,,,,,,,,570.0999999992491,,response,,,,99,,,,,,,Space,keypress(Space),,,,,,,,---- -- ----- -- ------ - ------- --- ----------<br>------------- ------ ------ ---- ---- ------- ----- -- ----<br>-------- ------- -- ---------- But - --- ----- ----- ----<br>---- --- --- ----- --- ---- ---- ------- ----- ---- -------<br>--- --- -- ----- -- --- ---- -- --- ---- -- ------ ------<br>--- ----- -- ----,203086.3999999985,203085.19999999925,202498.467,202500,202515.1,203098.367,,22,But
screen,html.Screen,2_1_0_1_23,2022-02-21T16:52:25.050Z,,,,,,,,,,,,,,,,,53,,,,,,,,,,,,,,311.9330000007467,,response,,,,99,,,,,,,Space,keypress(Space),,,,,,,,---- -- ----- -- ------ - ------- --- ----------<br>------------- ------ ------ ---- ---- ------- ----- -- ----<br>-------- ------- -- ---------- --- a --- ----- ----- ----<br>---- --- --- ----- --- ---- ---- ------- ----- ---- -------<br>--- --- -- ----- -- --- ---- -- --- ---- -- ------ ------<br>--- ----- -- ----,203411.5,203410.30000000075,203081.672,203086.6000000015,203098.367,203414.903,,23,a
screen,html.Screen,2_1_0_1_24,2022-02-21T16:52:25.284Z,,,,,,,,,,,,,,,,,53,,,,,,,,,,,,,,229.59700000000885,,response,,,,99,,,,,,,Space,keypress(Space),,,,,,,,---- -- ----- -- ------ - ------- --- ----------<br>------------- ------ ------ ---- ---- ------- ----- -- ----<br>-------- ------- -- ---------- --- - new ----- ----- ----<br>---- --- --- ----- --- ---- ---- ------- ----- ---- -------<br>--- --- -- ----- -- --- ---- -- --- ---- -- ------ ------<br>--- ----- -- ----,203645.69999999925,203644.5,203398.287,203411.69999999925,203414.903,203648.167,,24,new
screen,html.Screen,2_1_0_1_25,2022-02-21T16:52:25.533Z,,,,,,,,,,,,,,,,,53,,,,,,,,,,,,,,245.0329999992682,,response,,,,99,,,,,,,Space,keypress(Space),,,,,,,,---- -- ----- -- ------ - ------- --- ----------<br>------------- ------ ------ ---- ---- ------- ----- -- ----<br>-------- ------- -- ---------- --- - --- study ----- ----<br>---- --- --- ----- --- ---- ---- ------- ----- ---- -------<br>--- --- -- ----- -- --- ---- -- --- ---- -- ------ ------<br>--- ----- -- ----,203894.19999999925,203893.19999999925,203631.562,203646,203648.167,203898.102,,25,study
screen,html.Screen,2_1_0_1_26,2022-02-21T16:52:25.843Z,,,,,,,,,,,,,,,,,53,,,,,,,,,,,,,,304.8979999999865,,response,,,,99,,,,,,,Space,keypress(Space),,,,,,,,---- -- ----- -- ------ - ------- --- ----------<br>------------- ------ ------ ---- ---- ------- ----- -- ----<br>-------- ------- -- ---------- --- - --- ----- finds ----<br>---- --- --- ----- --- ---- ---- ------- ----- ---- -------<br>--- --- -- ----- -- --- ---- -- --- ---- -- ------ ------<br>--- ----- -- ----,204204.19999999925,204203,203881.599,203894.3999999985,203898.102,204214.828,,26,finds
screen,html.Screen,2_1_0_1_27,2022-02-21T16:52:25.980Z,,,,,,,,,,,,,,,,,53,,,,,,,,,,,,,,124.67199999999139,,response,,,,99,,,,,,,Space,keypress(Space),,,,,,,,---- -- ----- -- ------ - ------- --- ----------<br>------------- ------ ------ ---- ---- ------- ----- -- ----<br>-------- ------- -- ---------- --- - --- ----- ----- that<br>---- --- --- ----- --- ---- ---- ------- ----- ---- -------<br>--- --- -- ----- -- --- ---- -- --- ---- -- ------ ------<br>--- ----- -- ----,204340.8999999985,204339.5,204198.226,204204.6000000015,204214.828,204348.099,,27,that
screen,html.Screen,2_1_0_1_28,2022-02-21T16:52:26.954Z,,,,,,,,,,,,,,,,,53,,,,,,,,,,,,,,966.5010000015027,,response,,,,99,,,,,,,Space,keypress(Space),,,,,,,,---- -- ----- -- ------ - ------- --- ----------<br>------------- ------ ------ ---- ---- ------- ----- -- ----<br>-------- ------- -- ---------- --- - --- ----- ----- ----<br>it's --- --- ----- --- ---- ---- ------- ----- ---- -------<br>--- --- -- ----- -- --- ---- -- --- ---- -- ------ ------<br>--- ----- -- ----,205315.80000000075,205314.6000000015,204331.522,204341.19999999925,204348.099,205331.392,,28,it's
screen,html.Screen,2_1_0_1_29,2022-02-21T16:52:27.387Z,,,,,,,,,,,,,,,,,53,,,,,,,,,,,,,,415.70800000149757,,response,,,,99,,,,,,,Space,keypress(Space),,,,,,,,---- -- ----- -- ------ - ------- --- ----------<br>------------- ------ ------ ---- ---- ------- ----- -- ----<br>-------- ------- -- ---------- --- - --- ----- ----- ----<br>---- not --- ----- --- ---- ---- ------- ----- ---- -------<br>--- --- -- ----- -- --- ---- -- --- ---- -- ------ ------<br>--- ----- -- ----,205748.3999999985,205747.1000000015,205314.732,205316.19999999925,205331.392,205764.6,,29,not
screen,html.Screen,2_1_0_1_30,2022-02-21T16:52:27.810Z,,,,,,,,,,,,,,,,,53,,,,,,,,,,,,,,405.70000000073924,,response,,,,99,,,,,,,Space,keypress(Space),,,,,,,,---- -- ----- -- ------ - ------- --- ----------<br>------------- ------ ------ ---- ---- ------- ----- -- ----<br>-------- ------- -- ---------- --- - --- ----- ----- ----<br>---- --- how ----- --- ---- ---- ------- ----- ---- -------<br>--- --- -- ----- -- --- ---- -- --- ---- -- ------ ------<br>--- ----- -- ----,206171.69999999925,206170.30000000075,205747.996,205748.69999999925,205764.6,206181.199,,30,how
screen,html.Screen,2_1_0_1_31,2022-02-21T16:52:28.307Z,,,,,,,,,,,,,,,,,53,,,,,,,,,,,,,,486.30100000000675,,response,,,,99,,,,,,,Space,keypress(Space),,,,,,,,---- -- ----- -- ------ - ------- --- ----------<br>------------- ------ ------ ---- ---- ------- ----- -- ----<br>-------- ------- -- ---------- --- - --- ----- ----- ----<br>---- --- --- close --- ---- ---- ------- ----- ---- -------<br>--- --- -- ----- -- --- ---- -- --- ---- -- ------ ------<br>--- ----- -- ----,206668.80000000075,206667.5,206164.625,206171.8999999985,206181.199,206681.106,,31,close
screen,html.Screen,2_1_0_1_32,2022-02-21T16:52:28.745Z,,,,,,,,,,,,,,,,,53,,,,,,,,,,,,,,422.5939999992552,,response,,,,99,,,,,,,Space,keypress(Space),,,,,,,,---- -- ----- -- ------ - ------- --- ----------<br>------------- ------ ------ ---- ---- ------- ----- -- ----<br>-------- ------- -- ---------- --- - --- ----- ----- ----<br>---- --- --- ----- you ---- ---- ------- ----- ---- -------<br>--- --- -- ----- -- --- ---- -- --- ---- -- ------ ------<br>--- ----- -- ----,207106.19999999925,207103.69999999925,206664.563,206669,206681.106,207114.458,,32,you
screen,html.Screen,2_1_0_1_33,2022-02-21T16:52:29.083Z,,,,,,,,,,,,,,,,,53,,,,,,,,,,,,,,328.54199999998673,,response,,,,99,,,,,,,Space,keypress(Space),,,,,,,,---- -- ----- -- ------ - ------- --- ----------<br>------------- ------ ------ ---- ---- ------- ----- -- ----<br>-------- ------- -- ---------- --- - --- ----- ----- ----<br>---- --- --- ----- --- feel ---- ------- ----- ---- -------<br>--- --- -- ----- -- --- ---- -- --- ---- -- ------ ------<br>--- ----- -- ----,207444.19999999925,207443,207097.783,207106.5,207114.458,207447.66,,33,feel
screen,html.Screen,2_1_0_1_34,2022-02-21T16:52:29.601Z,,,,,,,,,,,,,,,,,53,,,,,,,,,,,,,,513.8399999999965,,response,,,,99,,,,,,,Space,keypress(Space),,,,,,,,---- -- ----- -- ------ - ------- --- ----------<br>------------- ------ ------ ---- ---- ------- ----- -- ----<br>-------- ------- -- ---------- --- - --- ----- ----- ----<br>---- --- --- ----- --- ---- that ------- ----- ---- -------<br>--- --- -- ----- -- --- ---- -- --- ---- -- ------ ------<br>--- ----- -- ----,207962.69999999925,207961.5,207431.038,207444.3999999985,207447.66,207983.077,,34,that
screen,html.Screen,2_1_0_1_35,2022-02-21T16:52:30.078Z,,,,,,,,,,,,,,,,,53,,,,,,,,,,,,,,455.1229999992647,,response,,,,99,,,,,,,Space,keypress(Space),,,,,,,,---- -- ----- -- ------ - ------- --- ----------<br>------------- ------ ------ ---- ---- ------- ----- -- ----<br>-------- ------- -- ---------- --- - --- ----- ----- ----<br>---- --- --- ----- --- ---- ---- matters ----- ---- -------<br>--- --- -- ----- -- --- ---- -- --- ---- -- ------ ------<br>--- ----- -- ----,208439.5,208438.19999999925,207947.727,207962.8999999985,207983.077,208447.488,,35,matters
screen,html.Screen,2_1_0_1_36,2022-02-21T16:52:30.501Z,,,,,,,,,,,,,,,,,53,,,,,,,,,,,,,,413.9119999984978,,response,,,,99,,,,,,,Space,keypress(Space),,,,,,,,"---- -- ----- -- ------ - ------- --- ----------<br>------------- ------ ------ ---- ---- ------- ----- -- ----<br>-------- ------- -- ---------- --- - --- ----- ----- ----<br>---- --- --- ----- --- ---- ---- ------- most, ---- -------<br>--- --- -- ----- -- --- ---- -- --- ---- -- ------ ------<br>--- ----- -- ----",208862.8999999985,208861.3999999985,208430.892,208439.8999999985,208447.488,208885.177,,36,"most,"
screen,html.Screen,2_1_0_1_37,2022-02-21T16:52:30.914Z,,,,,,,,,,,,,,,,,53,,,,,,,,,,,,,,388.72299999851384,,response,,,,99,,,,,,,Space,keypress(Space),,,,,,,,---- -- ----- -- ------ - ------- --- ----------<br>------------- ------ ------ ---- ---- ------- ----- -- ----<br>-------- ------- -- ---------- --- - --- ----- ----- ----<br>---- --- --- ----- --- ---- ---- ------- ----- it's -------<br>--- --- -- ----- -- --- ---- -- --- ---- -- ------ ------<br>--- ----- -- ----,209275.19999999925,209273.8999999985,208847.514,208863.19999999925,208885.177,209280.75,,37,it's
screen,html.Screen,2_1_0_1_38,2022-02-21T16:52:31.869Z,,,,,,,,,,,,,,,,,53,,,,,,,,,,,,,,948.3500000014901,,response,,,,99,,,,,,,Space,keypress(Space),,,,,,,,---- -- ----- -- ------ - ------- --- ----------<br>------------- ------ ------ ---- ---- ------- ----- -- ----<br>-------- ------- -- ---------- --- - --- ----- ----- ----<br>---- --- --- ----- --- ---- ---- ------- ----- ---- whether<br>--- --- -- ----- -- --- ---- -- --- ---- -- ------ ------<br>--- ----- -- ----,210230.5,210229.1000000015,209264.163,209275.5,209280.75,210247.277,,38,whether
screen,html.Screen,2_1_0_1_39,2022-02-21T16:52:32.497Z,,,,,,,,,,,,,,,,,53,,,,,,,,,,,,,,609.3230000014883,,response,,,,99,,,,,,,Space,keypress(Space),,,,,,,,---- -- ----- -- ------ - ------- --- ----------<br>------------- ------ ------ ---- ---- ------- ----- -- ----<br>-------- ------- -- ---------- --- - --- ----- ----- ----<br>---- --- --- ----- --- ---- ---- ------- ----- ---- -------<br>you --- -- ----- -- --- ---- -- --- ---- -- ------ ------<br>--- ----- -- ----,210858.5,210856.6000000015,210230.764,210230.69999999925,210247.277,210863.8,,39,you
screen,html.Screen,2_1_0_1_40,2022-02-21T16:52:32.856Z,,,,,,,,,,,,,,,,,53,,,,,,,,,,,,,,352.0999999985215,,response,,,,99,,,,,,,Space,keypress(Space),,,,,,,,---- -- ----- -- ------ - ------- --- ----------<br>------------- ------ ------ ---- ---- ------- ----- -- ----<br>-------- ------- -- ---------- --- - --- ----- ----- ----<br>---- --- --- ----- --- ---- ---- ------- ----- ---- -------<br>--- are -- ----- -- --- ---- -- --- ---- -- ------ ------<br>--- ----- -- ----,211217.19999999925,211215.8999999985,210847.32,210859,210863.8,211230.525,,40,are
screen,html.Screen,2_1_0_1_41,2022-02-21T16:52:33.146Z,,,,,,,,,,,,,,,,,53,,,,,,,,,,,,,,275.3749999985157,,response,,,,99,,,,,,,Space,keypress(Space),,,,,,,,---- -- ----- -- ------ - ------- --- ----------<br>------------- ------ ------ ---- ---- ------- ----- -- ----<br>-------- ------- -- ---------- --- - --- ----- ----- ----<br>---- --- --- ----- --- ---- ---- ------- ----- ---- -------<br>--- --- as ----- -- --- ---- -- --- ---- -- ------ ------<br>--- ----- -- ----,211507.30000000075,211505.8999999985,211213.797,211217.5,211230.525,211513.745,,41,as
screen,html.Screen,2_1_0_1_42,2022-02-21T16:52:33.560Z,,,,,,,,,,,,,,,,,53,,,,,,,,,,,,,,406.65499999851454,,response,,,,99,,,,,,,Space,keypress(Space),,,,,,,,---- -- ----- -- ------ - ------- --- ----------<br>------------- ------ ------ ---- ---- ------- ----- -- ----<br>-------- ------- -- ---------- --- - --- ----- ----- ----<br>---- --- --- ----- --- ---- ---- ------- ----- ---- -------<br>--- --- -- close -- --- ---- -- --- ---- -- ------ ------<br>--- ----- -- ----,211921.69999999925,211920.3999999985,211497.156,211507.3999999985,211513.745,211930.441,,42,close
screen,html.Screen,2_1_0_1_43,2022-02-21T16:52:33.893Z,,,,,,,,,,,,,,,,,53,,,,,,,,,,,,,,323.0590000000084,,response,,,,99,,,,,,,Space,keypress(Space),,,,,,,,---- -- ----- -- ------ - ------- --- ----------<br>------------- ------ ------ ---- ---- ------- ----- -- ----<br>-------- ------- -- ---------- --- - --- ----- ----- ----<br>---- --- --- ----- --- ---- ---- ------- ----- ---- -------<br>--- --- -- ----- as --- ---- -- --- ---- -- ------ ------<br>--- ----- -- ----,212254.80000000075,212253.5,211913.824,211921.8999999985,211930.441,212263.605,,43,as
screen,html.Screen,2_1_0_1_44,2022-02-21T16:52:34.238Z,,,,,,,,,,,,,,,,,53,,,,,,,,,,,,,,334.2949999984994,,response,,,,99,,,,,,,Space,keypress(Space),,,,,,,,---- -- ----- -- ------ - ------- --- ----------<br>------------- ------ ------ ---- ---- ------- ----- -- ----<br>-------- ------- -- ---------- --- - --- ----- ----- ----<br>---- --- --- ----- --- ---- ---- ------- ----- ---- -------<br>--- --- -- ----- -- you ---- -- --- ---- -- ------ ------<br>--- ----- -- ----,212599.1000000015,212597.8999999985,212246.963,212255.1000000015,212263.605,212613.663,,44,you
screen,html.Screen,2_1_0_1_45,2022-02-21T16:52:34.563Z,,,,,,,,,,,,,,,,,53,,,,,,,,,,,,,,310.0369999992545,,response,,,,99,,,,,,,Space,keypress(Space),,,,,,,,---- -- ----- -- ------ - ------- --- ----------<br>------------- ------ ------ ---- ---- ------- ----- -- ----<br>-------- ------- -- ---------- --- - --- ----- ----- ----<br>---- --- --- ----- --- ---- ---- ------- ----- ---- -------<br>--- --- -- ----- -- --- want -- --- ---- -- ------ ------<br>--- ----- -- ----,212924.8999999985,212923.69999999925,212597.04,212599.3999999985,212613.663,212930.188,,45,want
screen,html.Screen,2_1_0_1_46,2022-02-21T16:52:34.900Z,,,,,,,,,,,,,,,,,53,,,,,,,,,,,,,,329.6120000007504,,response,,,,99,,,,,,,Space,keypress(Space),,,,,,,,---- -- ----- -- ------ - ------- --- ----------<br>------------- ------ ------ ---- ---- ------- ----- -- ----<br>-------- ------- -- ---------- --- - --- ----- ----- ----<br>---- --- --- ----- --- ---- ---- ------- ----- ---- -------<br>--- --- -- ----- -- --- ---- to --- ---- -- ------ ------<br>--- ----- -- ----,213261.1000000015,213259.80000000075,212913.634,212925.1000000015,212930.188,213263.483,,46,to
screen,html.Screen,2_1_0_1_47,2022-02-21T16:52:35.213Z,,,,,,,,,,,,,,,,,53,,,,,,,,,,,,,,309.7169999992475,,response,,,,99,,,,,,,Space,keypress(Space),,,,,,,,"---- -- ----- -- ------ - ------- --- ----------<br>------------- ------ ------ ---- ---- ------- ----- -- ----<br>-------- ------- -- ---------- --- - --- ----- ----- ----<br>---- --- --- ----- --- ---- ---- ------- ----- ---- -------<br>--- --- -- ----- -- --- ---- -- be, ---- -- ------ ------<br>--- ----- -- ----",213574.6000000015,213573.19999999925,213246.933,213261.30000000075,213263.483,213580.104,,47,"be,"
screen,html.Screen,2_1_0_1_48,2022-02-21T16:52:35.611Z,,,,,,,,,,,,,,,,,53,,,,,,,,,,,,,,391.3960000000079,,response,,,,99,,,,,,,Space,keypress(Space),,,,,,,,---- -- ----- -- ------ - ------- --- ----------<br>------------- ------ ------ ---- ---- ------- ----- -- ----<br>-------- ------- -- ---------- --- - --- ----- ----- ----<br>---- --- --- ----- --- ---- ---- ------- ----- ---- -------<br>--- --- -- ----- -- --- ---- -- --- even -- ------ ------<br>--- ----- -- ----,213972.80000000075,213971.5,213563.567,213574.8999999985,213580.104,213980.021,,48,even
screen,html.Screen,2_1_0_1_49,2022-02-21T16:52:36.003Z,,,,,,,,,,,,,,,,,53,,,,,,,,,,,,,,383.178999999247,,response,,,,99,,,,,,,Space,keypress(Space),,,,,,,,---- -- ----- -- ------ - ------- --- ----------<br>------------- ------ ------ ---- ---- ------- ----- -- ----<br>-------- ------- -- ---------- --- - --- ----- ----- ----<br>---- --- --- ----- --- ---- ---- ------- ----- ---- -------<br>--- --- -- ----- -- --- ---- -- --- ---- if ------ ------<br>--- ----- -- ----,214364.3999999985,214363.19999999925,213963.517,213973,213980.021,214380.102,,49,if
screen,html.Screen,2_1_0_1_50,2022-02-21T16:52:36.305Z,,,,,,,,,,,,,,,,,53,,,,,,,,,,,,,,284.7979999984964,,response,,,,99,,,,,,,Space,keypress(Space),,,,,,,,---- -- ----- -- ------ - ------- --- ----------<br>------------- ------ ------ ---- ---- ------- ----- -- ----<br>-------- ------- -- ---------- --- - --- ----- ----- ----<br>---- --- --- ----- --- ---- ---- ------- ----- ---- -------<br>--- --- -- ----- -- --- ---- -- --- ---- -- that's ------<br>--- ----- -- ----,214666.19999999925,214664.8999999985,214363.447,214364.6000000015,214380.102,214680.072,,50,that's
screen,html.Screen,2_1_0_1_51,2022-02-21T16:52:36.716Z,,,,,,,,,,,,,,,,,53,,,,,,,,,,,,,,396.3279999985243,,response,,,,99,,,,,,,Space,keypress(Space),,,,,,,,---- -- ----- -- ------ - ------- --- ----------<br>------------- ------ ------ ---- ---- ------- ----- -- ----<br>-------- ------- -- ---------- --- - --- ----- ----- ----<br>---- --- --- ----- --- ---- ---- ------- ----- ---- -------<br>--- --- -- ----- -- --- ---- -- --- ---- -- ------ really<br>--- ----- -- ----,215077.69999999925,215076.3999999985,214663.353,214666.3999999985,214680.072,215079.854,,51,really
screen,html.Screen,2_1_0_1_52,2022-02-21T16:52:37.196Z,,,,,,,,,,,,,,,,,53,,,,,,,,,,,,,,476.6460000000079,,response,,,,99,,,,,,,Space,keypress(Space),,,,,,,,---- -- ----- -- ------ - ------- --- ----------<br>------------- ------ ------ ---- ---- ------- ----- -- ----<br>-------- ------- -- ---------- --- - --- ----- ----- ----<br>---- --- --- ----- --- ---- ---- ------- ----- ---- -------<br>--- --- -- ----- -- --- ---- -- --- ---- -- ------ ------<br>not ----- -- ----,215557.69999999925,215556.5,215063.364,215077.8999999985,215079.854,215563.136,,52,not
screen,html.Screen,2_1_0_1_53,2022-02-21T16:52:37.583Z,,,,,,,,,,,,,,,,,53,,,,,,,,,,,,,,380.2639999985113,,response,,,,99,,,,,,,Space,keypress(Space),,,,,,,,---- -- ----- -- ------ - ------- --- ----------<br>------------- ------ ------ ---- ---- ------- ----- -- ----<br>-------- ------- -- ---------- --- - --- ----- ----- ----<br>---- --- --- ----- --- ---- ---- ------- ----- ---- -------<br>--- --- -- ----- -- --- ---- -- --- ---- -- ------ ------<br>--- close -- ----,215944.5,215943.3999999985,215546.566,215557.8999999985,215563.136,215966.18,,53,close
screen,html.Screen,2_1_0_1_54,2022-02-21T16:52:37.919Z,,,,,,,,,,,,,,,,,53,,,,,,,,,,,,,,313.0199999992619,,response,,,,99,,,,,,,Space,keypress(Space),,,,,,,,---- -- ----- -- ------ - ------- --- ----------<br>------------- ------ ------ ---- ---- ------- ----- -- ----<br>-------- ------- -- ---------- --- - --- ----- ----- ----<br>---- --- --- ----- --- ---- ---- ------- ----- ---- -------<br>--- --- -- ----- -- --- ---- -- --- ---- -- ------ ------<br>--- ----- at ----,216280.6000000015,216279.19999999925,215929.898,215944.80000000075,215966.18,216296.51,,54,at
screen,html.Screen,2_1_0_1_55,2022-02-21T16:52:38.432Z,,,,,,,,,,,,,,,,,53,,,,,,,,,,,,,,495.88999999850057,,response,,,,99,,,,,,,Space,keypress(Space),,,,,,,,---- -- ----- -- ------ - ------- --- ----------<br>------------- ------ ------ ---- ---- ------- ----- -- ----<br>-------- ------- -- ---------- --- - --- ----- ----- ----<br>---- --- --- ----- --- ---- ---- ------- ----- ---- -------<br>--- --- -- ----- -- --- ---- -- --- ---- -- ------ ------<br>--- ----- -- all.,216793.69999999925,216792.3999999985,216279.85,216280.80000000075,216296.51,216820.507,,55,all.
Item 99,flow.Loop,2_1_0_1,2022-02-21T16:52:38.433Z,,,,,,,,,,,,,,,,,,,,,,,,,,,,,,,24625.901999998518,,completion,,,,,E,,,,,,,,,,,silence,,,,,216794.19999999925,216792.3999999985,192133.257,192134.5,192166.498,216820.507,,,
Question 1,html.Screen,2_1_0_2,2022-02-21T16:52:48.997Z,,,,,,,,,,,,,,,,,,,,,,,,,,,,true,FALSE,,10536.692999999243,,response,,,,99,E,,,,,,FALSE,click #choice-2,,,,silence,,,,,227358.19999999925,227357.19999999925,216779.777,216794.5,216820.507,227361.428,,,
Question 2,html.Screen,2_1_0_3,2022-02-21T16:52:56.843Z,,,,,,,,,,,,,,,,,,,,,,,,,,,,true,TRUE,,7841.872000000731,,response,,,,99,E,,,,,,TRUE,click #choice-1,,,,silence,,,,,235204.3999999985,235203.30000000075,227344.851,227358.3999999985,227361.428,235210.301,,,
Item 99,flow.Sequence,2_1_0,2022-02-21T16:52:56.843Z,,,,,,,,,,,,,,,,,,,,,,,,,,,,,,,53052.117000000755,,completion,,,,,,,,,,,,,,,,,,,,,235204.6000000015,235203.30000000075,182134.69,182148.19999999925,182151.183,235210.301,,,
Holding screen,html.Screen,2_1_1_0,2022-02-21T16:53:06.832Z,,,,,,,,,,,,,,,,,,,,,,,,,,,,,,,9998.606,,timeout,,,,,,,,,,,,,,,,,,,,,245193.30000000075,245192.344,235193.823,235204.69999999925,235210.301,245208.907,,,
screen,html.Screen,2_1_1_1_0,2022-02-21T16:53:07.603Z,,,,,,,,,,,,,,,,,54,,,,,,,,,,,,,,753.6930000014836,,response,,,,100,,,,,,,Space,keypress(Space),,,,,,,,At --- ---- --- ------ ----- ------- ---- -- --- ------- --<br>------- ---------- ------ -- ----- -- ----- -- ---- ------<br>--- ----- --- --- ------ -------- ----- --- ------ ----- --<br>----- ----- ---------- --- --- ------ ------ ---- -- ------<br>------- --- ------ ----- --- ---- ------- -- ---- --- --<br>------- ------,245964,245962.6000000015,245192.344,245193.5,245208.907,245975.573,,0,At
screen,html.Screen,2_1_1_1_1,2022-02-21T16:53:08.015Z,,,,,,,,,,,,,,,,,54,,,,,,,,,,,,,,399.02700000148616,,response,,,,100,,,,,,,Space,keypress(Space),,,,,,,,-- the ---- --- ------ ----- ------- ---- -- --- ------- --<br>------- ---------- ------ -- ----- -- ----- -- ---- ------<br>--- ----- --- --- ------ -------- ----- --- ------ ----- --<br>----- ----- ---------- --- --- ------ ------ ---- -- ------<br>------- --- ------ ----- --- ---- ------- -- ---- --- --<br>------- ------,246375.80000000075,246374.6000000015,245958.89,245964.30000000075,245975.573,246392.144,,1,the
screen,html.Screen,2_1_1_1_2,2022-02-21T16:53:08.380Z,,,,,,,,,,,,,,,,,54,,,,,,,,,,,,,,347.5559999992547,,response,,,,100,,,,,,,Space,keypress(Space),,,,,,,,-- --- time --- ------ ----- ------- ---- -- --- ------- --<br>------- ---------- ------ -- ----- -- ----- -- ---- ------<br>--- ----- --- --- ------ -------- ----- --- ------ ----- --<br>----- ----- ---------- --- --- ------ ------ ---- -- ------<br>------- --- ------ ----- --- ---- ------- -- ---- --- --<br>------- ------,246740.69999999925,246739.69999999925,246375.596,246376.1000000015,246392.144,246763.357,,2,time
screen,html.Screen,2_1_1_1_3,2022-02-21T16:53:08.952Z,,,,,,,,,,,,,,,,,54,,,,,,,,,,,,,,548.2430000015011,,response,,,,100,,,,,,,Space,keypress(Space),,,,,,,,-- --- ---- the ------ ----- ------- ---- -- --- ------- --<br>------- ---------- ------ -- ----- -- ----- -- ---- ------<br>--- ----- --- --- ------ -------- ----- --- ------ ----- --<br>----- ----- ---------- --- --- ------ ------ ---- -- ------<br>------- --- ------ ----- --- ---- ------- -- ---- --- --<br>------- ------,247312.69999999925,247311.6000000015,246725.474,246741,246763.357,247325.349,,3,the
screen,html.Screen,2_1_1_1_4,2022-02-21T16:53:09.303Z,,,,,,,,,,,,,,,,,54,,,,,,,,,,,,,,337.2510000015027,,response,,,,100,,,,,,,Space,keypress(Space),,,,,,,,-- --- ---- --- French ----- ------- ---- -- --- ------- --<br>------- ---------- ------ -- ----- -- ----- -- ---- ------<br>--- ----- --- --- ------ -------- ----- --- ------ ----- --<br>----- ----- ---------- --- --- ------ ------ ---- -- ------<br>------- --- ------ ----- --- ---- ------- -- ---- --- --<br>------- ------,247664.1000000015,247662.6000000015,247308.743,247313,247325.349,247675.402,,4,French
screen,html.Screen,2_1_1_1_5,2022-02-21T16:53:09.933Z,,,,,,,,,,,,,,,,,54,,,,,,,,,,,,,,617.5979999999981,,response,,,,100,,,,,,,Space,keypress(Space),,,,,,,,-- --- ---- --- ------ crown ------- ---- -- --- ------- --<br>------- ---------- ------ -- ----- -- ----- -- ---- ------<br>--- ----- --- --- ------ -------- ----- --- ------ ----- --<br>----- ----- ---------- --- --- ------ ------ ---- -- ------<br>------- --- ------ ----- --- ---- ------- -- ---- --- --<br>------- ------,248294.19999999925,248293,247658.676,247664.3999999985,247675.402,248308.518,,5,crown
screen,html.Screen,2_1_1_1_6,2022-02-21T16:53:10.338Z,,,,,,,,,,,,,,,,,54,,,,,,,,,,,,,,388.98199999998906,,response,,,,100,,,,,,,Space,keypress(Space),,,,,,,,-- --- ---- --- ------ ----- secured ---- -- --- ------- --<br>------- ---------- ------ -- ----- -- ----- -- ---- ------<br>--- ----- --- --- ------ -------- ----- --- ------ ----- --<br>----- ----- ---------- --- --- ------ ------ ---- -- ------<br>------- --- ------ ----- --- ---- ------- -- ---- --- --<br>------- ------,248698.6000000015,248697.5,248291.903,248294.3999999985,248308.518,248708.394,,6,secured
screen,html.Screen,2_1_1_1_7,2022-02-21T16:53:10.982Z,,,,,,,,,,,,,,,,,54,,,,,,,,,,,,,,633.0059999985097,,response,,,,100,,,,,,,Space,keypress(Space),,,,,,,,-- --- ---- --- ------ ----- ------- much -- --- ------- --<br>------- ---------- ------ -- ----- -- ----- -- ---- ------<br>--- ----- --- --- ------ -------- ----- --- ------ ----- --<br>----- ----- ---------- --- --- ------ ------ ---- -- ------<br>------- --- ------ ----- --- ---- ------- -- ---- --- --<br>------- ------,249342.69999999925,249341.3999999985,248691.887,248698.80000000075,248708.394,249358.395,,7,much
screen,html.Screen,2_1_1_1_8,2022-02-21T16:53:11.451Z,,,,,,,,,,,,,,,,,54,,,,,,,,,,,,,,450.3049999992654,,response,,,,100,,,,,,,Space,keypress(Space),,,,,,,,-- --- ---- --- ------ ----- ------- ---- of --- ------- --<br>------- ---------- ------ -- ----- -- ----- -- ---- ------<br>--- ----- --- --- ------ -------- ----- --- ------ ----- --<br>----- ----- ---------- --- --- ------ ------ ---- -- ------<br>------- --- ------ ----- --- ---- ------- -- ---- --- --<br>------- ------,249812.1000000015,249808.69999999925,249341.775,249343.1000000015,249358.395,249824.993,,8,of
screen,html.Screen,2_1_1_1_9,2022-02-21T16:53:11.860Z,,,,,,,,,,,,,,,,,54,,,,,,,,,,,,,,394.00700000001234,,response,,,,100,,,,,,,Space,keypress(Space),,,,,,,,-- --- ---- --- ------ ----- ------- ---- -- its ------- --<br>------- ---------- ------ -- ----- -- ----- -- ---- ------<br>--- ----- --- --- ------ -------- ----- --- ------ ----- --<br>----- ----- ---------- --- --- ------ ------ ---- -- ------<br>------- --- ------ ----- --- ---- ------- -- ---- --- --<br>------- ------,250220.3999999985,250219,249808.399,249812.3999999985,249824.993,250224.874,,9,its
screen,html.Screen,2_1_1_1_10,2022-02-21T16:53:12.307Z,,,,,,,,,,,,,,,,,54,,,,,,,,,,,,,,442.32599999924423,,response,,,,100,,,,,,,Space,keypress(Space),,,,,,,,-- --- ---- --- ------ ----- ------- ---- -- --- revenue --<br>------- ---------- ------ -- ----- -- ----- -- ---- ------<br>--- ----- --- --- ------ -------- ----- --- ------ ----- --<br>----- ----- ---------- --- --- ------ ------ ---- -- ------<br>------- --- ------ ----- --- ---- ------- -- ---- --- --<br>------- ------,250668.3999999985,250667.19999999925,250208.254,250220.69999999925,250224.874,250674.813,,10,revenue
screen,html.Screen,2_1_1_1_11,2022-02-21T16:53:12.703Z,,,,,,,,,,,,,,,,,54,,,,,,,,,,,,,,388.08699999851524,,response,,,,100,,,,,,,Space,keypress(Space),,,,,,,,-- --- ---- --- ------ ----- ------- ---- -- --- ------- by<br>------- ---------- ------ -- ----- -- ----- -- ---- ------<br>--- ----- --- --- ------ -------- ----- --- ------ ----- --<br>----- ----- ---------- --- --- ------ ------ ---- -- ------<br>------- --- ------ ----- --- ---- ------- -- ---- --- --<br>------- ------,251064.19999999925,251062.8999999985,250658.299,250668.6000000015,250674.813,251074.784,,11,by
screen,html.Screen,2_1_1_1_12,2022-02-21T16:53:13.444Z,,,,,,,,,,,,,,,,,54,,,,,,,,,,,,,,728.9159999992407,,response,,,,100,,,,,,,Space,keypress(Space),,,,,,,,-- --- ---- --- ------ ----- ------- ---- -- --- ------- --<br>issuing ---------- ------ -- ----- -- ----- -- ---- ------<br>--- ----- --- --- ------ -------- ----- --- ------ ----- --<br>----- ----- ---------- --- --- ------ ------ ---- -- ------<br>------- --- ------ ----- --- ---- ------- -- ---- --- --<br>------- ------,251804.80000000075,251803.69999999925,251058.27,251064.3999999985,251074.784,251807.984,,12,issuing
screen,html.Screen,2_1_1_1_13,2022-02-21T16:53:13.809Z,,,,,,,,,,,,,,,,,54,,,,,,,,,,,,,,360.6160000014934,,response,,,,100,,,,,,,Space,keypress(Space),,,,,,,,-- --- ---- --- ------ ----- ------- ---- -- --- ------- --<br>------- government ------ -- ----- -- ----- -- ---- ------<br>--- ----- --- --- ------ -------- ----- --- ------ ----- --<br>----- ----- ---------- --- --- ------ ------ ---- -- ------<br>------- --- ------ ----- --- ---- ------- -- ---- --- --<br>------- ------,252169.8999999985,252168.6000000015,251791.471,251805.1000000015,251807.984,252174.614,,13,government
screen,html.Screen,2_1_1_1_14,2022-02-21T16:53:14.235Z,,,,,,,,,,,,,,,,,54,,,,,,,,,,,,,,419.3859999999986,,response,,,,100,,,,,,,Space,keypress(Space),,,,,,,,-- --- ---- --- ------ ----- ------- ---- -- --- ------- --<br>------- ---------- bonds. -- ----- -- ----- -- ---- ------<br>--- ----- --- --- ------ -------- ----- --- ------ ----- --<br>----- ----- ---------- --- --- ------ ------ ---- -- ------<br>------- --- ------ ----- --- ---- ------- -- ---- --- --<br>------- ------,252595.3999999985,252594,252158.069,252170.19999999925,252174.614,252607.817,,14,bonds.
screen,html.Screen,2_1_1_1_15,2022-02-21T16:53:14.716Z,,,,,,,,,,,,,,,,,54,,,,,,,,,,,,,,468.38299999924493,,response,,,,100,,,,,,,Space,keypress(Space),,,,,,,,-- --- ---- --- ------ ----- ------- ---- -- --- ------- --<br>------- ---------- ------ In ----- -- ----- -- ---- ------<br>--- ----- --- --- ------ -------- ----- --- ------ ----- --<br>----- ----- ---------- --- --- ------ ------ ---- -- ------<br>------- --- ------ ----- --- ---- ------- -- ---- --- --<br>------- ------,253077.3999999985,253076.19999999925,252591.337,252595.6000000015,252607.817,253091.262,,15,In
screen,html.Screen,2_1_1_1_16,2022-02-21T16:53:15.917Z,,,,,,,,,,,,,,,,,54,,,,,,,,,,,,,,1185.437999999267,,response,,,,100,,,,,,,Space,keypress(Space),,,,,,,,"-- --- ---- --- ------ ----- ------- ---- -- --- ------- --<br>------- ---------- ------ -- 1727, -- ----- -- ---- ------<br>--- ----- --- --- ------ -------- ----- --- ------ ----- --<br>----- ----- ---------- --- --- ------ ------ ---- -- ------<br>------- --- ------ ----- --- ---- ------- -- ---- --- --<br>------- ------",254278,254276.69999999925,253074.56,253077.6000000015,253091.262,254291.017,,16,"1727,"
screen,html.Screen,2_1_1_1_17,2022-02-21T16:53:17.174Z,,,,,,,,,,,,,,,,,54,,,,,,,,,,,,,,1242.4830000000075,,response,,,,100,,,,,,,Space,keypress(Space),,,,,,,,-- --- ---- --- ------ ----- ------- ---- -- --- ------- --<br>------- ---------- ------ -- ----- in ----- -- ---- ------<br>--- ----- --- --- ------ -------- ----- --- ------ ----- --<br>----- ----- ---------- --- --- ------ ------ ---- -- ------<br>------- --- ------ ----- --- ---- ------- -- ---- --- --<br>------- ------,255534.8999999985,255533.5,254274.507,254278.30000000075,254291.017,255540.767,,17,in
screen,html.Screen,2_1_1_1_18,2022-02-21T16:53:17.608Z,,,,,,,,,,,,,,,,,54,,,,,,,,,,,,,,426.5330000007525,,response,,,,100,,,,,,,Space,keypress(Space),,,,,,,,-- --- ---- --- ------ ----- ------- ---- -- --- ------- --<br>------- ---------- ------ -- ----- -- order -- ---- ------<br>--- ----- --- --- ------ -------- ----- --- ------ ----- --<br>----- ----- ---------- --- --- ------ ------ ---- -- ------<br>------- --- ------ ----- --- ---- ------- -- ---- --- --<br>------- ------,255968.5,255967.30000000075,255524.306,255535.1000000015,255540.767,255974.027,,18,order
screen,html.Screen,2_1_1_1_19,2022-02-21T16:53:17.908Z,,,,,,,,,,,,,,,,,54,,,,,,,,,,,,,,293.07300000148825,,response,,,,100,,,,,,,Space,keypress(Space),,,,,,,,-- --- ---- --- ------ ----- ------- ---- -- --- ------- --<br>------- ---------- ------ -- ----- -- ----- to ---- ------<br>--- ----- --- --- ------ -------- ----- --- ------ ----- --<br>----- ----- ---------- --- --- ------ ------ ---- -- ------<br>------- --- ------ ----- --- ---- ------- -- ---- --- --<br>------- ------,256268.3999999985,256267.1000000015,255957.521,255968.80000000075,255974.027,256274.008,,19,to
screen,html.Screen,2_1_1_1_20,2022-02-21T16:53:18.335Z,,,,,,,,,,,,,,,,,54,,,,,,,,,,,,,,420.7920000007434,,response,,,,100,,,,,,,Space,keypress(Space),,,,,,,,-- --- ---- --- ------ ----- ------- ---- -- --- ------- --<br>------- ---------- ------ -- ----- -- ----- -- save ------<br>--- ----- --- --- ------ -------- ----- --- ------ ----- --<br>----- ----- ---------- --- --- ------ ------ ---- -- ------<br>------- --- ------ ----- --- ---- ------- -- ---- --- --<br>------- ------,256696,256694.80000000075,256257.46,256268.6000000015,256274.008,256707.384,,20,save
screen,html.Screen,2_1_1_1_21,2022-02-21T16:53:18.708Z,,,,,,,,,,,,,,,,,54,,,,,,,,,,,,,,360.1160000000091,,response,,,,100,,,,,,,Space,keypress(Space),,,,,,,,"-- --- ---- --- ------ ----- ------- ---- -- --- ------- --<br>------- ---------- ------ -- ----- -- ----- -- ---- money,<br>--- ----- --- --- ------ -------- ----- --- ------ ----- --<br>----- ----- ---------- --- --- ------ ------ ---- -- ------<br>------- --- ------ ----- --- ---- ------- -- ---- --- --<br>------- ------",257068.69999999925,257067.5,256690.713,256696.19999999925,256707.384,257073.886,,21,"money,"
screen,html.Screen,2_1_1_1_22,2022-02-21T16:53:19.109Z,,,,,,,,,,,,,,,,,54,,,,,,,,,,,,,,395.0139999985113,,response,,,,100,,,,,,,Space,keypress(Space),,,,,,,,-- --- ---- --- ------ ----- ------- ---- -- --- ------- --<br>------- ---------- ------ -- ----- -- ----- -- ---- ------<br>the ----- --- --- ------ -------- ----- --- ------ ----- --<br>----- ----- ---------- --- --- ------ ------ ---- -- ------<br>------- --- ------ ----- --- ---- ------- -- ---- --- --<br>------- ------,257470.19999999925,257468.8999999985,257057.338,257069,257073.886,257473.86,,22,the
screen,html.Screen,2_1_1_1_23,2022-02-21T16:53:19.625Z,,,,,,,,,,,,,,,,,54,,,,,,,,,,,,,,511.03999999852385,,response,,,,100,,,,,,,Space,keypress(Space),,,,,,,,-- --- ---- --- ------ ----- ------- ---- -- --- ------- --<br>------- ---------- ------ -- ----- -- ----- -- ---- ------<br>--- state --- --- ------ -------- ----- --- ------ ----- --<br>----- ----- ---------- --- --- ------ ------ ---- -- ------<br>------- --- ------ ----- --- ---- ------- -- ---- --- --<br>------- ------,257986.19999999925,257984.8999999985,257457.316,257470.5,257473.86,257990.451,,23,state
screen,html.Screen,2_1_1_1_24,2022-02-21T16:53:19.964Z,,,,,,,,,,,,,,,,,54,,,,,,,,,,,,,,332.748999999254,,response,,,,100,,,,,,,Space,keypress(Space),,,,,,,,-- --- ---- --- ------ ----- ------- ---- -- --- ------- --<br>------- ---------- ------ -- ----- -- ----- -- ---- ------<br>--- ----- cut --- ------ -------- ----- --- ------ ----- --<br>----- ----- ---------- --- --- ------ ------ ---- -- ------<br>------- --- ------ ----- --- ---- ------- -- ---- --- --<br>------- ------,258324.6000000015,258323.19999999925,257973.923,257986.5,257990.451,258340.493,,24,cut
screen,html.Screen,2_1_1_1_25,2022-02-21T16:53:20.294Z,,,,,,,,,,,,,,,,,54,,,,,,,,,,,,,,313.00700000001234,,response,,,,100,,,,,,,Space,keypress(Space),,,,,,,,-- --- ---- --- ------ ----- ------- ---- -- --- ------- --<br>------- ---------- ------ -- ----- -- ----- -- ---- ------<br>--- ----- --- the ------ -------- ----- --- ------ ----- --<br>----- ----- ---------- --- --- ------ ------ ---- -- ------<br>------- --- ------ ----- --- ---- ------- -- ---- --- --<br>------- ------,258654.69999999925,258653.5,258323.827,258324.8999999985,258340.493,258657.007,,25,the
screen,html.Screen,2_1_1_1_26,2022-02-21T16:53:20.664Z,,,,,,,,,,,,,,,,,54,,,,,,,,,,,,,,366.7930000007327,,response,,,,100,,,,,,,Space,keypress(Space),,,,,,,,-- --- ---- --- ------ ----- ------- ---- -- --- ------- --<br>------- ---------- ------ -- ----- -- ----- -- ---- ------<br>--- ----- --- --- bonds' -------- ----- --- ------ ----- --<br>----- ----- ---------- --- --- ------ ------ ---- -- ------<br>------- --- ------ ----- --- ---- ------- -- ---- --- --<br>------- ------,259025,259023.80000000075,258640.415,258655,258657.007,259040.374,,26,bonds'
screen,html.Screen,2_1_1_1_27,2022-02-21T16:53:21.257Z,,,,,,,,,,,,,,,,,54,,,,,,,,,,,,,,575.8259999992442,,response,,,,100,,,,,,,Space,keypress(Space),,,,,,,,-- --- ---- --- ------ ----- ------- ---- -- --- ------- --<br>------- ---------- ------ -- ----- -- ----- -- ---- ------<br>--- ----- --- --- ------ interest ----- --- ------ ----- --<br>----- ----- ---------- --- --- ------ ------ ---- -- ------<br>------- --- ------ ----- --- ---- ------- -- ---- --- --<br>------- ------,259617.3999999985,259616.19999999925,259023.792,259025.30000000075,259040.374,259623.537,,27,interest
screen,html.Screen,2_1_1_1_28,2022-02-21T16:53:21.678Z,,,,,,,,,,,,,,,,,54,,,,,,,,,,,,,,414.9629999999888,,response,,,,100,,,,,,,Space,keypress(Space),,,,,,,,-- --- ---- --- ------ ----- ------- ---- -- --- ------- --<br>------- ---------- ------ -- ----- -- ----- -- ---- ------<br>--- ----- --- --- ------ -------- rate. --- ------ ----- --<br>----- ----- ---------- --- --- ------ ------ ---- -- ------<br>------- --- ------ ----- --- ---- ------- -- ---- --- --<br>------- ------,260039.1000000015,260038.5,259606.993,259617.6000000015,259623.537,260061.158,,28,rate.
screen,html.Screen,2_1_1_1_29,2022-02-21T16:53:22.136Z,,,,,,,,,,,,,,,,,54,,,,,,,,,,,,,,434.54199999925913,,response,,,,100,,,,,,,Space,keypress(Space),,,,,,,,-- --- ---- --- ------ ----- ------- ---- -- --- ------- --<br>------- ---------- ------ -- ----- -- ----- -- ---- ------<br>--- ----- --- --- ------ -------- ----- The ------ ----- --<br>----- ----- ---------- --- --- ------ ------ ---- -- ------<br>------- --- ------ ----- --- ---- ------- -- ---- --- --<br>------- ------,260496.8999999985,260495.69999999925,260023.59,260039.30000000075,260061.158,260506.8,,29,The
screen,html.Screen,2_1_1_1_30,2022-02-21T16:53:22.486Z,,,,,,,,,,,,,,,,,54,,,,,,,,,,,,,,338.8999999992666,,response,,,,100,,,,,,,Space,keypress(Space),,,,,,,,-- --- ---- --- ------ ----- ------- ---- -- --- ------- --<br>------- ---------- ------ -- ----- -- ----- -- ---- ------<br>--- ----- --- --- ------ -------- ----- --- market ----- --<br>----- ----- ---------- --- --- ------ ------ ---- -- ------<br>------- --- ------ ----- --- ---- ------- -- ---- --- --<br>------- ------,260846.8999999985,260845.69999999925,260490.167,260497.30000000075,260506.8,260856.687,,30,market
screen,html.Screen,2_1_1_1_31,2022-02-21T16:53:22.735Z,,,,,,,,,,,,,,,,,54,,,,,,,,,,,,,,238.31299999999464,,response,,,,100,,,,,,,Space,keypress(Space),,,,,,,,-- --- ---- --- ------ ----- ------- ---- -- --- ------- --<br>------- ---------- ------ -- ----- -- ----- -- ---- ------<br>--- ----- --- --- ------ -------- ----- --- ------ value --<br>----- ----- ---------- --- --- ------ ------ ---- -- ------<br>------- --- ------ ----- --- ---- ------- -- ---- --- --<br>------- ------,261096.19999999925,261095,260840.156,260847.19999999925,260856.687,261106.672,,31,value
screen,html.Screen,2_1_1_1_32,2022-02-21T16:53:23.110Z,,,,,,,,,,,,,,,,,54,,,,,,,,,,,,,,362.8280000000086,,response,,,,100,,,,,,,Space,keypress(Space),,,,,,,,-- --- ---- --- ------ ----- ------- ---- -- --- ------- --<br>------- ---------- ------ -- ----- -- ----- -- ---- ------<br>--- ----- --- --- ------ -------- ----- --- ------ ----- of<br>----- ----- ---------- --- --- ------ ------ ---- -- ------<br>------- --- ------ ----- --- ---- ------- -- ---- --- --<br>------- ------,261470.69999999925,261469.5,261090.092,261096.5,261106.672,261473.264,,32,of
screen,html.Screen,2_1_1_1_33,2022-02-21T16:53:23.520Z,,,,,,,,,,,,,,,,,54,,,,,,,,,,,,,,406.33600000149454,,response,,,,100,,,,,,,Space,keypress(Space),,,,,,,,-- --- ---- --- ------ ----- ------- ---- -- --- ------- --<br>------- ---------- ------ -- ----- -- ----- -- ---- ------<br>--- ----- --- --- ------ -------- ----- --- ------ ----- --<br>these ----- ---------- --- --- ------ ------ ---- -- ------<br>------- --- ------ ----- --- ---- ------- -- ---- --- --<br>------- ------,261880.80000000075,261879.6000000015,261456.619,261471,261473.264,261889.932,,33,these
screen,html.Screen,2_1_1_1_34,2022-02-21T16:53:23.848Z,,,,,,,,,,,,,,,,,54,,,,,,,,,,,,,,317.26799999925424,,response,,,,100,,,,,,,Space,keypress(Space),,,,,,,,-- --- ---- --- ------ ----- ------- ---- -- --- ------- --<br>------- ---------- ------ -- ----- -- ----- -- ---- ------<br>--- ----- --- --- ------ -------- ----- --- ------ ----- --<br>----- bonds ---------- --- --- ------ ------ ---- -- ------<br>------- --- ------ ----- --- ---- ------- -- ---- --- --<br>------- ------,262208.3999999985,262207.19999999925,261873.35,261881,261889.932,262223.257,,34,bonds
screen,html.Screen,2_1_1_1_35,2022-02-21T16:53:24.192Z,,,,,,,,,,,,,,,,,54,,,,,,,,,,,,,,327.9429999992717,,response,,,,100,,,,,,,Space,keypress(Space),,,,,,,,"-- --- ---- --- ------ ----- ------- ---- -- --- ------- --<br>------- ---------- ------ -- ----- -- ----- -- ---- ------<br>--- ----- --- --- ------ -------- ----- --- ------ ----- --<br>----- ----- plummeted, --- --- ------ ------ ---- -- ------<br>------- --- ------ ----- --- ---- ------- -- ---- --- --<br>------- ------",262552.6000000015,262551.19999999925,262206.63,262208.69999999925,262223.257,262556.437,,35,"plummeted,"
screen,html.Screen,2_1_1_1_36,2022-02-21T16:53:24.597Z,,,,,,,,,,,,,,,,,54,,,,,,,,,,,,,,399.96299999853363,,response,,,,100,,,,,,,Space,keypress(Space),,,,,,,,-- --- ---- --- ------ ----- ------- ---- -- --- ------- --<br>------- ---------- ------ -- ----- -- ----- -- ---- ------<br>--- ----- --- --- ------ -------- ----- --- ------ ----- --<br>----- ----- ---------- and --- ------ ------ ---- -- ------<br>------- --- ------ ----- --- ---- ------- -- ---- --- --<br>------- ------,262957.6000000015,262956.3999999985,262539.901,262552.8999999985,262556.437,262973.098,,36,and
screen,html.Screen,2_1_1_1_37,2022-02-21T16:53:24.922Z,,,,,,,,,,,,,,,,,54,,,,,,,,,,,,,,308.40200000000186,,response,,,,100,,,,,,,Space,keypress(Space),,,,,,,,-- --- ---- --- ------ ----- ------- ---- -- --- ------- --<br>------- ---------- ------ -- ----- -- ----- -- ---- ------<br>--- ----- --- --- ------ -------- ----- --- ------ ----- --<br>----- ----- ---------- --- the ------ ------ ---- -- ------<br>------- --- ------ ----- --- ---- ------- -- ---- --- --<br>------- ------,263282.69999999925,263281.5,262956.522,262957.8999999985,262973.098,263289.688,,37,the
screen,html.Screen,2_1_1_1_38,2022-02-21T16:53:25.265Z,,,,,,,,,,,,,,,,,54,,,,,,,,,,,,,,335.41200000146637,,response,,,,100,,,,,,,Space,keypress(Space),,,,,,,,-- --- ---- --- ------ ----- ------- ---- -- --- ------- --<br>------- ---------- ------ -- ----- -- ----- -- ---- ------<br>--- ----- --- --- ------ -------- ----- --- ------ ----- --<br>----- ----- ---------- --- --- market ------ ---- -- ------<br>------- --- ------ ----- --- ---- ------- -- ---- --- --<br>------- ------,263626.30000000075,263625.1000000015,263273.016,263282.8999999985,263289.688,263639.67,,38,market
screen,html.Screen,2_1_1_1_39,2022-02-21T16:53:25.595Z,,,,,,,,,,,,,,,,,54,,,,,,,,,,,,,,314.7299999985262,,response,,,,100,,,,,,,Space,keypress(Space),,,,,,,,-- --- ---- --- ------ ----- ------- ---- -- --- ------- --<br>------- ---------- ------ -- ----- -- ----- -- ---- ------<br>--- ----- --- --- ------ -------- ----- --- ------ ----- --<br>----- ----- ---------- --- --- ------ became ---- -- ------<br>------- --- ------ ----- --- ---- ------- -- ---- --- --<br>------- ------,263955.69999999925,263954.3999999985,263623.086,263626.6000000015,263639.67,263973.026,,39,became
screen,html.Screen,2_1_1_1_40,2022-02-21T16:53:25.964Z,,,,,,,,,,,,,,,,,54,,,,,,,,,,,,,,350.3739999984973,,response,,,,100,,,,,,,Space,keypress(Space),,,,,,,,-- --- ---- --- ------ ----- ------- ---- -- --- ------- --<br>------- ---------- ------ -- ----- -- ----- -- ---- ------<br>--- ----- --- --- ------ -------- ----- --- ------ ----- --<br>----- ----- ---------- --- --- ------ ------ wary -- ------<br>------- --- ------ ----- --- ---- ------- -- ---- --- --<br>------- ------,264324.6000000015,264323.3999999985,263956.291,263956,263973.026,264339.66,,40,wary
screen,html.Screen,2_1_1_1_41,2022-02-21T16:53:26.443Z,,,,,,,,,,,,,,,,,54,,,,,,,,,,,,,,462.64000000077067,,response,,,,100,,,,,,,Space,keypress(Space),,,,,,,,-- --- ---- --- ------ ----- ------- ---- -- --- ------- --<br>------- ---------- ------ -- ----- -- ----- -- ---- ------<br>--- ----- --- --- ------ -------- ----- --- ------ ----- --<br>----- ----- ---------- --- --- ------ ------ ---- of ------<br>------- --- ------ ----- --- ---- ------- -- ---- --- --<br>------- ------,264803.5,264802.30000000075,264322.982,264324.8999999985,264339.66,264806.129,,41,of
screen,html.Screen,2_1_1_1_42,2022-02-21T16:53:26.783Z,,,,,,,,,,,,,,,,,54,,,,,,,,,,,,,,336.5709999992396,,response,,,,100,,,,,,,Space,keypress(Space),,,,,,,,-- --- ---- --- ------ ----- ------- ---- -- --- ------- --<br>------- ---------- ------ -- ----- -- ----- -- ---- ------<br>--- ----- --- --- ------ -------- ----- --- ------ ----- --<br>----- ----- ---------- --- --- ------ ------ ---- -- French<br>------- --- ------ ----- --- ---- ------- -- ---- --- --<br>------- ------,265143.8999999985,265142.69999999925,264789.588,264803.69999999925,264806.129,265156.126,,42,French
screen,html.Screen,2_1_1_1_43,2022-02-21T16:53:27.181Z,,,,,,,,,,,,,,,,,54,,,,,,,,,,,,,,384.17400000075577,,response,,,,100,,,,,,,Space,keypress(Space),,,,,,,,-- --- ---- --- ------ ----- ------- ---- -- --- ------- --<br>------- ---------- ------ -- ----- -- ----- -- ---- ------<br>--- ----- --- --- ------ -------- ----- --- ------ ----- --<br>----- ----- ---------- --- --- ------ ------ ---- -- ------<br>credit. --- ------ ----- --- ---- ------- -- ---- --- --<br>------- ------,265541.5,265540.30000000075,265139.486,265144.19999999925,265156.126,265556.054,,43,credit.
screen,html.Screen,2_1_1_1_44,2022-02-21T16:53:27.667Z,,,,,,,,,,,,,,,,,54,,,,,,,,,,,,,,470.34599999850616,,response,,,,100,,,,,,,Space,keypress(Space),,,,,,,,-- --- ---- --- ------ ----- ------- ---- -- --- ------- --<br>------- ---------- ------ -- ----- -- ----- -- ---- ------<br>--- ----- --- --- ------ -------- ----- --- ------ ----- --<br>----- ----- ---------- --- --- ------ ------ ---- -- ------<br>------- The ------ ----- --- ---- ------- -- ---- --- --<br>------- ------,266027.80000000075,266026.3999999985,265539.488,265541.80000000075,265556.054,266039.384,,44,The
screen,html.Screen,2_1_1_1_45,2022-02-21T16:53:28.158Z,,,,,,,,,,,,,,,,,54,,,,,,,,,,,,,,477.7160000014701,,response,,,,100,,,,,,,Space,keypress(Space),,,,,,,,-- --- ---- --- ------ ----- ------- ---- -- --- ------- --<br>------- ---------- ------ -- ----- -- ----- -- ---- ------<br>--- ----- --- --- ------ -------- ----- --- ------ ----- --<br>----- ----- ---------- --- --- ------ ------ ---- -- ------<br>------- --- French ----- --- ---- ------- -- ---- --- --<br>------- ------,266518.5,266517.1000000015,266022.75,266027.8999999985,266039.384,266548.398,,45,French
screen,html.Screen,2_1_1_1_46,2022-02-21T16:53:28.523Z,,,,,,,,,,,,,,,,,54,,,,,,,,,,,,,,334.7020000015036,,response,,,,100,,,,,,,Space,keypress(Space),,,,,,,,-- --- ---- --- ------ ----- ------- ---- -- --- ------- --<br>------- ---------- ------ -- ----- -- ----- -- ---- ------<br>--- ----- --- --- ------ -------- ----- --- ------ ----- --<br>----- ----- ---------- --- --- ------ ------ ---- -- ------<br>------- --- ------ state --- ---- ------- -- ---- --- --<br>------- ------,266883.8999999985,266883.1000000015,266505.952,266520.6000000015,266548.398,266889.246,,46,state
screen,html.Screen,2_1_1_1_47,2022-02-21T16:53:28.855Z,,,,,,,,,,,,,,,,,54,,,,,,,,,,,,,,324.65399999852525,,response,,,,100,,,,,,,Space,keypress(Space),,,,,,,,-- --- ---- --- ------ ----- ------- ---- -- --- ------- --<br>------- ---------- ------ -- ----- -- ----- -- ---- ------<br>--- ----- --- --- ------ -------- ----- --- ------ ----- --<br>----- ----- ---------- --- --- ------ ------ ---- -- ------<br>------- --- ------ ----- was ---- ------- -- ---- --- --<br>------- ------,267215.6000000015,267213.8999999985,266872.607,266884,266889.246,267222.454,,47,was
screen,html.Screen,2_1_1_1_48,2022-02-21T16:53:29.180Z,,,,,,,,,,,,,,,,,54,,,,,,,,,,,,,,317.045999999973,,response,,,,100,,,,,,,Space,keypress(Space),,,,,,,,-- --- ---- --- ------ ----- ------- ---- -- --- ------- --<br>------- ---------- ------ -- ----- -- ----- -- ---- ------<br>--- ----- --- --- ------ -------- ----- --- ------ ----- --<br>----- ----- ---------- --- --- ------ ------ ---- -- ------<br>------- --- ------ ----- --- left ------- -- ---- --- --<br>------- ------,267540.80000000075,267539.5,267205.844,267215.80000000075,267222.454,267555.894,,48,left
screen,html.Screen,2_1_1_1_49,2022-02-21T16:53:29.519Z,,,,,,,,,,,,,,,,,54,,,,,,,,,,,,,,322.3059999992838,,response,,,,100,,,,,,,Space,keypress(Space),,,,,,,,-- --- ---- --- ------ ----- ------- ---- -- --- ------- --<br>------- ---------- ------ -- ----- -- ----- -- ---- ------<br>--- ----- --- --- ------ -------- ----- --- ------ ----- --<br>----- ----- ---------- --- --- ------ ------ ---- -- ------<br>------- --- ------ ----- --- ---- without -- ---- --- --<br>------- ------,267880,267878.19999999925,267539.114,267541,267555.894,267889.036,,49,without
screen,html.Screen,2_1_1_1_50,2022-02-21T16:53:29.849Z,,,,,,,,,,,,,,,,,54,,,,,,,,,,,,,,319.863999998488,,response,,,,100,,,,,,,Space,keypress(Space),,,,,,,,-- --- ---- --- ------ ----- ------- ---- -- --- ------- --<br>------- ---------- ------ -- ----- -- ----- -- ---- ------<br>--- ----- --- --- ------ -------- ----- --- ------ ----- --<br>----- ----- ---------- --- --- ------ ------ ---- -- ------<br>------- --- ------ ----- --- ---- ------- an ---- --- --<br>------- ------,268210.1000000015,268208.8999999985,267872.374,267880.30000000075,267889.036,268222.428,,50,an
screen,html.Screen,2_1_1_1_51,2022-02-21T16:53:30.208Z,,,,,,,,,,,,,,,,,54,,,,,,,,,,,,,,345.6720000014757,,response,,,,100,,,,,,,Space,keypress(Space),,,,,,,,-- --- ---- --- ------ ----- ------- ---- -- --- ------- --<br>------- ---------- ------ -- ----- -- ----- -- ---- ------<br>--- ----- --- --- ------ -------- ----- --- ------ ----- --<br>----- ----- ---------- --- --- ------ ------ ---- -- ------<br>------- --- ------ ----- --- ---- ------- -- easy --- --<br>------- ------,268569.3999999985,268568.1000000015,268205.632,268210.3999999985,268222.428,268572.243,,51,easy
screen,html.Screen,2_1_1_1_52,2022-02-21T16:53:30.663Z,,,,,,,,,,,,,,,,,54,,,,,,,,,,,,,,450.25699999998324,,response,,,,100,,,,,,,Space,keypress(Space),,,,,,,,-- --- ---- --- ------ ----- ------- ---- -- --- ------- --<br>------- ---------- ------ -- ----- -- ----- -- ---- ------<br>--- ----- --- --- ------ -------- ----- --- ------ ----- --<br>----- ----- ---------- --- --- ------ ------ ---- -- ------<br>------- --- ------ ----- --- ---- ------- -- ---- way --<br>------- ------,269023.80000000075,269022.5,268555.626,268569.6000000015,268572.243,269038.908,,52,way
screen,html.Screen,2_1_1_1_53,2022-02-21T16:53:31.045Z,,,,,,,,,,,,,,,,,54,,,,,,,,,,,,,,365.39200000074925,,response,,,,100,,,,,,,Space,keypress(Space),,,,,,,,-- --- ---- --- ------ ----- ------- ---- -- --- ------- --<br>------- ---------- ------ -- ----- -- ----- -- ---- ------<br>--- ----- --- --- ------ -------- ----- --- ------ ----- --<br>----- ----- ---------- --- --- ------ ------ ---- -- ------<br>------- --- ------ ----- --- ---- ------- -- ---- --- of<br>------- ------,269405.5,269404.30000000075,269022.331,269024.1000000015,269038.908,269422.192,,53,of
screen,html.Screen,2_1_1_1_54,2022-02-21T16:53:31.455Z,,,,,,,,,,,,,,,,,54,,,,,,,,,,,,,,392.00799999927403,,response,,,,100,,,,,,,Space,keypress(Space),,,,,,,,-- --- ---- --- ------ ----- ------- ---- -- --- ------- --<br>------- ---------- ------ -- ----- -- ----- -- ---- ------<br>--- ----- --- --- ------ -------- ----- --- ------ ----- --<br>----- ----- ---------- --- --- ------ ------ ---- -- ------<br>------- --- ------ ----- --- ---- ------- -- ---- --- --<br>raising ------,269815.5,269814.19999999925,269405.578,269405.80000000075,269422.192,269822.087,,54,raising
screen,html.Screen,2_1_1_1_55,2022-02-21T16:53:31.910Z,,,,,,,,,,,,,,,,,54,,,,,,,,,,,,,,447.1129999992554,,response,,,,100,,,,,,,Space,keypress(Space),,,,,,,,-- --- ---- --- ------ ----- ------- ---- -- --- ------- --<br>------- ---------- ------ -- ----- -- ----- -- ---- ------<br>--- ----- --- --- ------ -------- ----- --- ------ ----- --<br>----- ----- ---------- --- --- ------ ------ ---- -- ------<br>------- --- ------ ----- --- ---- ------- -- ---- --- --<br>------- money.,270270.5,270269.19999999925,269805.461,269815.80000000075,269822.087,270288.658,,55,money.
Item 100,flow.Loop,2_1_1_1,2022-02-21T16:53:31.910Z,,,,,,,,,,,,,,,,,,,,,,,,,,,,,,,25060.29299999925,,completion,,,,,E,,,,,,,,,,,silence,,,,,270271,270269.19999999925,245192.344,245193.5,245208.907,270288.658,,,
Question 1,html.Screen,2_1_1_2,2022-02-21T16:53:37.302Z,,,,,,,,,,,,,,,,,,,,,,,,,,,,true,TRUE,,5373.041999999259,,response,,,,100,E,,,,,,TRUE,click #choice-1,,,,silence,,,,,275662.69999999925,275661.69999999925,270272.066,270271.19999999925,270288.658,275671.19,,,
Question 2,html.Screen,2_1_1_3,2022-02-21T16:53:40.020Z,,,,,,,,,,,,,,,,,,,,,,,,,,,,true,FALSE,,2708.6100000007427,,response,,,,100,E,,,,,,FALSE,click #choice-2,,,,silence,,,,,278380.80000000075,278379.80000000075,275654.56,275662.8999999985,275671.19,278387.448,,,
Item 100,flow.Sequence,2_1_1,2022-02-21T16:53:40.020Z,,,,,,,,,,,,,,,,,,,,,,,,,,,,,,,43169.49900000074,,completion,,,,,,,,,,,,,,,,,,,,,278380.8999999985,278379.80000000075,235193.823,235204.69999999925,235210.301,278387.448,,,
End of Practice,html.Page,2_1_2,2022-02-21T16:53:44.009Z,,,,,,,,,,,,,,,,,,,,,,,,,,,,,,,3981.451999998535,,form submission,,,,,,,,,,,,,,,,,,,,,282369.3999999985,282368.8999999985,278370.957,278381.1000000015,278387.448,282370.222,,,
Practice,flow.Sequence,2_1,2022-02-21T16:53:44.009Z,,,,,,,,,,,,,,,,,,,,,,,,,,,,,,,100217.71699999852,,completion,,,,,,,,,,,,,,,,,,,,,282369.69999999925,282368.8999999985,182134.69,182148.19999999925,182151.183,282370.222,,,
Trap_instruction,html.Page,2_2_0,2022-02-21T16:53:51.940Z,,,,,,,,,,,,,,,,,,,,,,,,,,,,,,,7930.777999999991,,form submission,,,,,,,,,,,,,,,,,,,,,290301.3999999985,290301,282353.719,282369.80000000075,282370.222,290319.233,,,
trap_trial,html.Screen,2_2_1,2022-02-21T16:53:57.248Z,,,,,,,,,,,,,,,,,,,,,,,,,,,,true,1,,5288.567000000738,,response,,,,,,,,,,,1,click #choice-1,,,,,,,,,295608.8999999985,295607.80000000075,290285.904,290301.5,290319.233,295618.563,,,
end of trap trial,html.Page,2_2_2,2022-02-21T16:54:00.704Z,,,,,,,,,,,,,,,,,,,,,,,,,,,,,,,3446.4369999999763,,form submission,,,,,,,,,,,,,,,,,,,,,299065.19999999925,299065,295601.713,295609.1000000015,295618.563,299067.81,,,
Trap 1,flow.Sequence,2_2,2022-02-21T16:54:00.705Z,,,,,,,,,,,,,,,,,,,,,,,,,,,,,,,16694.77799999999,,completion,,,,,,,,,,,,,,,,,,,,,299065.3999999985,299065,282353.719,282369.80000000075,282370.222,299067.81,,,
Standby,html.Page,2_3_0,2022-02-21T16:54:08.690Z,,,,,,,,,,,,,,,,,,,,,,,,,,,,,,,7998.963999999978,,timeout,,,,,,,,,,,,,,,,,,,,,307051.19999999925,307050.128,299051.294,299065.5,299067.81,307066.774,,,
Holding screen,html.Screen,2_3_1_0_0,2022-02-21T16:54:15.689Z,,,,,,,,,,,,,,,,,,,,,,,,,,,,,,,6998.978000000003,,timeout,,,,,,,,,,,,,,,,,,,,,314050.3999999985,314049.179,307050.128,307051.5,307066.774,314065.752,,,
screen,html.Screen,2_3_1_0_1_0,2022-02-21T16:54:16.357Z,,,,,,,,,,,,,,,,,15,,,,,,,,,,,,,,651.9479999992764,,response,,,,7,E,,,,,,Space,keypress(Space),,,,lyrical,,,,Greg --------- ---------- - --- ------- -- --- ------------<br>----- -- -------- ------- ---- ------ - -------- ---- -----<br>--- ------- ---- -- --- -------- --- - ----- ------ ---- --<br>-------- --- -------- -------- --- -------- ---- -- ----- -<br>-------- ---- --- ---------- --------- -- ------- ------ -<br>--------- ----- -----,314719,314717.69999999925,314049.179,314050.80000000075,314065.752,314732.375,,0,Greg
screen,html.Screen,2_3_1_0_1_1,2022-02-21T16:54:17.130Z,,,,,,,,,,,,,,,,,15,,,,,,,,,,,,,,757.8249999992549,,response,,,,7,E,,,,,,Space,keypress(Space),,,,lyrical,,,,"---- Anderson, ---------- - --- ------- -- --- ------------<br>----- -- -------- ------- ---- ------ - -------- ---- -----<br>--- ------- ---- -- --- -------- --- - ----- ------ ---- --<br>-------- --- -------- -------- --- -------- ---- -- ----- -<br>-------- ---- --- ---------- --------- -- ------- ------ -<br>--------- ----- -----",315491.6000000015,315490.19999999925,314715.729,314719.30000000075,314732.375,315498.872,,1,"Anderson,"
screen,html.Screen,2_3_1_0_1_2,2022-02-21T16:54:17.772Z,,,,,,,,,,,,,,,,,15,,,,,,,,,,,,,,633.827999999281,,response,,,,7,E,,,,,,Space,keypress(Space),,,,lyrical,,,,---- --------- considered - --- ------- -- --- ------------<br>----- -- -------- ------- ---- ------ - -------- ---- -----<br>--- ------- ---- -- --- -------- --- - ----- ------ ---- --<br>-------- --- -------- -------- --- -------- ---- -- ----- -<br>-------- ---- --- ---------- --------- -- ------- ------ -<br>--------- ----- -----,316133.80000000075,316132.69999999925,315482.32,315491.8999999985,315498.872,316148.841,,2,considered
screen,html.Screen,2_3_1_0_1_3,2022-02-21T16:54:18.409Z,,,,,,,,,,,,,,,,,15,,,,,,,,,,,,,,620.4590000007302,,response,,,,7,E,,,,,,Space,keypress(Space),,,,lyrical,,,,---- --------- ---------- a --- ------- -- --- ------------<br>----- -- -------- ------- ---- ------ - -------- ---- -----<br>--- ------- ---- -- --- -------- --- - ----- ------ ---- --<br>-------- --- -------- -------- --- -------- ---- -- ----- -<br>-------- ---- --- ---------- --------- -- ------- ------ -<br>--------- ----- -----,316770.6000000015,316769.30000000075,316132.215,316134,316148.841,316782.063,,3,a
screen,html.Screen,2_3_1_0_1_4,2022-02-21T16:54:19.205Z,,,,,,,,,,,,,,,,,15,,,,,,,,,,,,,,783.8369999984861,,response,,,,7,E,,,,,,Space,keypress(Space),,,,lyrical,,,,---- --------- ---------- - key ------- -- --- ------------<br>----- -- -------- ------- ---- ------ - -------- ---- -----<br>--- ------- ---- -- --- -------- --- - ----- ------ ---- --<br>-------- --- -------- -------- --- -------- ---- -- ----- -<br>-------- ---- --- ---------- --------- -- ------- ------ -<br>--------- ----- -----,317566.8999999985,317565.8999999985,316765.456,316770.80000000075,316782.063,317581.949,,4,key
screen,html.Screen,2_3_1_0_1_5,2022-02-21T16:54:19.807Z,,,,,,,,,,,,,,,,,15,,,,,,,,,,,,,,585.1510000014678,,response,,,,7,E,,,,,,Space,keypress(Space),,,,lyrical,,,,---- --------- ---------- - --- witness -- --- ------------<br>----- -- -------- ------- ---- ------ - -------- ---- -----<br>--- ------- ---- -- --- -------- --- - ----- ------ ---- --<br>-------- --- -------- -------- --- -------- ---- -- ----- -<br>-------- ---- --- ---------- --------- -- ------- ------ -<br>--------- ----- -----,318168.19999999925,318167.1000000015,317565.391,317567.1000000015,317581.949,318181.856,,5,witness
screen,html.Screen,2_3_1_0_1_6,2022-02-21T16:54:20.421Z,,,,,,,,,,,,,,,,,15,,,,,,,,,,,,,,598.7440000014612,,response,,,,7,E,,,,,,Space,keypress(Space),,,,lyrical,,,,---- --------- ---------- - --- ------- by --- ------------<br>----- -- -------- ------- ---- ------ - -------- ---- -----<br>--- ------- ---- -- --- -------- --- - ----- ------ ---- --<br>-------- --- -------- -------- --- -------- ---- -- ----- -<br>-------- ---- --- ---------- --------- -- ------- ------ -<br>--------- ----- -----,318782.19999999925,318780.6000000015,318165.302,318168.5,318181.856,318798.442,,6,by
screen,html.Screen,2_3_1_0_1_7,2022-02-21T16:54:20.947Z,,,,,,,,,,,,,,,,,15,,,,,,,,,,,,,,508.85800000076415,,response,,,,7,E,,,,,,Space,keypress(Space),,,,lyrical,,,,---- --------- ---------- - --- ------- -- the ------------<br>----- -- -------- ------- ---- ------ - -------- ---- -----<br>--- ------- ---- -- --- -------- --- - ----- ------ ---- --<br>-------- --- -------- -------- --- -------- ---- -- ----- -<br>-------- ---- --- ---------- --------- -- ------- ------ -<br>--------- ----- -----,319308.3999999985,319307.30000000075,318781.883,318782.3999999985,318798.442,319315.008,,7,the
screen,html.Screen,2_3_1_0_1_8,2022-02-21T16:54:21.367Z,,,,,,,,,,,,,,,,,15,,,,,,,,,,,,,,412.39199999853736,,response,,,,7,E,,,,,,Space,keypress(Space),,,,lyrical,,,,"---- --------- ---------- - --- ------- -- --- prosecution,<br>----- -- -------- ------- ---- ------ - -------- ---- -----<br>--- ------- ---- -- --- -------- --- - ----- ------ ---- --<br>-------- --- -------- -------- --- -------- ---- -- ----- -<br>-------- ---- --- ---------- --------- -- ------- ------ -<br>--------- ----- -----",319728.6000000015,319727.3999999985,319298.337,319308.69999999925,319315.008,319731.602,,8,"prosecution,"
screen,html.Screen,2_3_1_0_1_9,2022-02-21T16:54:22.087Z,,,,,,,,,,,,,,,,,15,,,,,,,,,,,,,,715.4980000014766,,response,,,,7,E,,,,,,Space,keypress(Space),,,,lyrical,,,,---- --------- ---------- - --- ------- -- --- ------------<br>vowed -- -------- ------- ---- ------ - -------- ---- -----<br>--- ------- ---- -- --- -------- --- - ----- ------ ---- --<br>-------- --- -------- -------- --- -------- ---- -- ----- -<br>-------- ---- --- ---------- --------- -- ------- ------ -<br>--------- ----- -----,320448.30000000075,320447.1000000015,319715.108,319728.8999999985,319731.602,320464.933,,9,vowed
screen,html.Screen,2_3_1_0_1_10,2022-02-21T16:54:22.492Z,,,,,,,,,,,,,,,,,15,,,,,,,,,,,,,,386.76699999923585,,response,,,,7,E,,,,,,Space,keypress(Space),,,,lyrical,,,,---- --------- ---------- - --- ------- -- --- ------------<br>----- he -------- ------- ---- ------ - -------- ---- -----<br>--- ------- ---- -- --- -------- --- - ----- ------ ---- --<br>-------- --- -------- -------- --- -------- ---- -- ----- -<br>-------- ---- --- ---------- --------- -- ------- ------ -<br>--------- ----- -----,320853.30000000075,320851.69999999925,320448.345,320448.6000000015,320464.933,320864.781,,10,he
screen,html.Screen,2_3_1_0_1_11,2022-02-21T16:54:22.944Z,,,,,,,,,,,,,,,,,15,,,,,,,,,,,,,,439.61899999849265,,response,,,,7,E,,,,,,Space,keypress(Space),,,,lyrical,,,,---- --------- ---------- - --- ------- -- --- ------------<br>----- -- wouldn't ------- ---- ------ - -------- ---- -----<br>--- ------- ---- -- --- -------- --- - ----- ------ ---- --<br>-------- --- -------- -------- --- -------- ---- -- ----- -<br>-------- ---- --- ---------- --------- -- ------- ------ -<br>--------- ----- -----,321305.69999999925,321304.3999999985,320848.212,320853.69999999925,320864.781,321314.703,,11,wouldn't
screen,html.Screen,2_3_1_0_1_12,2022-02-21T16:54:23.306Z,,,,,,,,,,,,,,,,,15,,,,,,,,,,,,,,351.99699999927543,,response,,,,7,E,,,,,,Space,keypress(Space),,,,lyrical,,,,---- --------- ---------- - --- ------- -- --- ------------<br>----- -- -------- testify ---- ------ - -------- ---- -----<br>--- ------- ---- -- --- -------- --- - ----- ------ ---- --<br>-------- --- -------- -------- --- -------- ---- -- ----- -<br>-------- ---- --- ---------- --------- -- ------- ------ -<br>--------- ----- -----,321667.8999999985,321666.69999999925,321298.136,321305.8999999985,321314.703,321681.406,,12,testify
screen,html.Screen,2_3_1_0_1_13,2022-02-21T16:54:23.746Z,,,,,,,,,,,,,,,,,15,,,,,,,,,,,,,,424.49399999849265,,response,,,,7,E,,,,,,Space,keypress(Space),,,,lyrical,,,,---- --------- ---------- - --- ------- -- --- ------------<br>----- -- -------- ------- when ------ - -------- ---- -----<br>--- ------- ---- -- --- -------- --- - ----- ------ ---- --<br>-------- --- -------- -------- --- -------- ---- -- ----- -<br>-------- ---- --- ---------- --------- -- ------- ------ -<br>--------- ----- -----,322107.1000000015,322105.8999999985,321664.775,321668.1000000015,321681.406,322114.659,,13,when
screen,html.Screen,2_3_1_0_1_14,2022-02-21T16:54:24.131Z,,,,,,,,,,,,,,,,,15,,,,,,,,,,,,,,377.04099999926984,,response,,,,7,E,,,,,,Space,keypress(Space),,,,lyrical,,,,---- --------- ---------- - --- ------- -- --- ------------<br>----- -- -------- ------- ---- served - -------- ---- -----<br>--- ------- ---- -- --- -------- --- - ----- ------ ---- --<br>-------- --- -------- -------- --- -------- ---- -- ----- -<br>-------- ---- --- ---------- --------- -- ------- ------ -<br>--------- ----- -----,322493.1000000015,322491.69999999925,322098.07,322107.3999999985,322114.659,322497.879,,14,served
screen,html.Screen,2_3_1_0_1_15,2022-02-21T16:54:24.712Z,,,,,,,,,,,,,,,,,15,,,,,,,,,,,,,,574.4210000007297,,response,,,,7,E,,,,,,Space,keypress(Space),,,,lyrical,,,,---- --------- ---------- - --- ------- -- --- ------------<br>----- -- -------- ------- ---- ------ a -------- ---- -----<br>--- ------- ---- -- --- -------- --- - ----- ------ ---- --<br>-------- --- -------- -------- --- -------- ---- -- ----- -<br>-------- ---- --- ---------- --------- -- ------- ------ -<br>--------- ----- -----,323073.6000000015,323072.30000000075,322481.325,322493.30000000075,322497.879,323081.156,,15,a
screen,html.Screen,2_3_1_0_1_16,2022-02-21T16:54:25.559Z,,,,,,,,,,,,,,,,,15,,,,,,,,,,,,,,838.9440000014729,,response,,,,7,E,,,,,,Space,keypress(Space),,,,lyrical,,,,---- --------- ---------- - --- ------- -- --- ------------<br>----- -- -------- ------- ---- ------ - subpoena ---- -----<br>--- ------- ---- -- --- -------- --- - ----- ------ ---- --<br>-------- --- -------- -------- --- -------- ---- -- ----- -<br>-------- ---- --- ---------- --------- -- ------- ------ -<br>--------- ----- -----,323920.80000000075,323920.1000000015,323064.546,323073.80000000075,323081.156,323930.935,,16,subpoena
screen,html.Screen,2_3_1_0_1_17,2022-02-21T16:54:25.961Z,,,,,,,,,,,,,,,,,15,,,,,,,,,,,,,,390.9649999985122,,response,,,,7,E,,,,,,Space,keypress(Space),,,,lyrical,,,,---- --------- ---------- - --- ------- -- --- ------------<br>----- -- -------- ------- ---- ------ - -------- last -----<br>--- ------- ---- -- --- -------- --- - ----- ------ ---- --<br>-------- --- -------- -------- --- -------- ---- -- ----- -<br>-------- ---- --- ---------- --------- -- ------- ------ -<br>--------- ----- -----,324322.6000000015,324321.8999999985,323914.288,323921,323930.935,324330.98,,17,last
screen,html.Screen,2_3_1_0_1_18,2022-02-21T16:54:26.574Z,,,,,,,,,,,,,,,,,15,,,,,,,,,,,,,,603.0200000000186,,response,,,,7,E,,,,,,Space,keypress(Space),,,,lyrical,,,,---- --------- ---------- - --- ------- -- --- ------------<br>----- -- -------- ------- ---- ------ - -------- ---- week.<br>--- ------- ---- -- --- -------- --- - ----- ------ ---- --<br>-------- --- -------- -------- --- -------- ---- -- ----- -<br>-------- ---- --- ---------- --------- -- ------- ------ -<br>--------- ----- -----,324935.3999999985,324934,324314.247,324322.80000000075,324330.98,324947.605,,18,week.
screen,html.Screen,2_3_1_0_1_19,2022-02-21T16:54:27.173Z,,,,,,,,,,,,,,,,,15,,,,,,,,,,,,,,586.3950000000186,,response,,,,7,E,,,,,,Space,keypress(Space),,,,lyrical,,,,---- --------- ---------- - --- ------- -- --- ------------<br>----- -- -------- ------- ---- ------ - -------- ---- -----<br>His ------- ---- -- --- -------- --- - ----- ------ ---- --<br>-------- --- -------- -------- --- -------- ---- -- ----- -<br>-------- ---- --- ---------- --------- -- ------- ------ -<br>--------- ----- -----,325534.80000000075,325534,324930.859,324935.6000000015,324947.605,325547.388,,19,His
screen,html.Screen,2_3_1_0_1_20,2022-02-21T16:54:27.624Z,,,,,,,,,,,,,,,,,15,,,,,,,,,,,,,,436.9120000007679,,response,,,,7,E,,,,,,Space,keypress(Space),,,,lyrical,,,,---- --------- ---------- - --- ------- -- --- ------------<br>----- -- -------- ------- ---- ------ - -------- ---- -----<br>--- lawyers ---- -- --- -------- --- - ----- ------ ---- --<br>-------- --- -------- -------- --- -------- ---- -- ----- -<br>-------- ---- --- ---------- --------- -- ------- ------ -<br>--------- ----- -----,325985.80000000075,325984.30000000075,325530.828,325535.1000000015,325547.388,325997.34,,20,lawyers
screen,html.Screen,2_3_1_0_1_21,2022-02-21T16:54:28.041Z,,,,,,,,,,,,,,,,,15,,,,,,,,,,,,,,404.35999999922933,,response,,,,7,E,,,,,,Space,keypress(Space),,,,lyrical,,,,---- --------- ---------- - --- ------- -- --- ------------<br>----- -- -------- ------- ---- ------ - -------- ---- -----<br>--- ------- said -- --- -------- --- - ----- ------ ---- --<br>-------- --- -------- -------- --- -------- ---- -- ----- -<br>-------- ---- --- ---------- --------- -- ------- ------ -<br>--------- ----- -----,326402.6000000015,326401.69999999925,325980.77,325986.19999999925,325997.34,326413.917,,21,said
screen,html.Screen,2_3_1_0_1_22,2022-02-21T16:54:28.439Z,,,,,,,,,,,,,,,,,15,,,,,,,,,,,,,,385.6830000014743,,response,,,,7,E,,,,,,Space,keypress(Space),,,,lyrical,,,,---- --------- ---------- - --- ------- -- --- ------------<br>----- -- -------- ------- ---- ------ - -------- ---- -----<br>--- ------- ---- he --- -------- --- - ----- ------ ---- --<br>-------- --- -------- -------- --- -------- ---- -- ----- -<br>-------- ---- --- ---------- --------- -- ------- ------ -<br>--------- ----- -----,326800.19999999925,326799.6000000015,326397.389,326402.8999999985,326413.917,326813.858,,22,he
screen,html.Screen,2_3_1_0_1_23,2022-02-21T16:54:28.888Z,,,,,,,,,,,,,,,,,15,,,,,,,,,,,,,,434.24200000148267,,response,,,,7,E,,,,,,Space,keypress(Space),,,,lyrical,,,,---- --------- ---------- - --- ------- -- --- ------------<br>----- -- -------- ------- ---- ------ - -------- ---- -----<br>--- ------- ---- -- was -------- --- - ----- ------ ---- --<br>-------- --- -------- -------- --- -------- ---- -- ----- -<br>-------- ---- --- ---------- --------- -- ------- ------ -<br>--------- ----- -----,327249.3999999985,327248.1000000015,326797.222,326800.30000000075,326813.858,327263.918,,23,was
screen,html.Screen,2_3_1_0_1_24,2022-02-21T16:54:29.841Z,,,,,,,,,,,,,,,,,15,,,,,,,,,,,,,,936.5819999999949,,response,,,,7,E,,,,,,Space,keypress(Space),,,,lyrical,,,,---- --------- ---------- - --- ------- -- --- ------------<br>----- -- -------- ------- ---- ------ - -------- ---- -----<br>--- ------- ---- -- --- prepared --- - ----- ------ ---- --<br>-------- --- -------- -------- --- -------- ---- -- ----- -<br>-------- ---- --- ---------- --------- -- ------- ------ -<br>--------- ----- -----,328202.19999999925,328200.5,327247.137,327249.69999999925,327263.918,328213.792,,24,prepared
screen,html.Screen,2_3_1_0_1_25,2022-02-21T16:54:30.863Z,,,,,,,,,,,,,,,,,15,,,,,,,,,,,,,,1010.0080000007292,,response,,,,7,E,,,,,,Space,keypress(Space),,,,lyrical,,,,---- --------- ---------- - --- ------- -- --- ------------<br>----- -- -------- ------- ---- ------ - -------- ---- -----<br>--- ------- ---- -- --- -------- for - ----- ------ ---- --<br>-------- --- -------- -------- --- -------- ---- -- ----- -<br>-------- ---- --- ---------- --------- -- ------- ------ -<br>--------- ----- -----,329225,329223.80000000075,328197.283,328202.69999999925,328213.792,329230.196,,25,for
screen,html.Screen,2_3_1_0_1_26,2022-02-21T16:54:31.634Z,,,,,,,,,,,,,,,,,15,,,,,,,,,,,,,,763.7039999985136,,response,,,,7,E,,,,,,Space,keypress(Space),,,,lyrical,,,,---- --------- ---------- - --- ------- -- --- ------------<br>----- -- -------- ------- ---- ------ - -------- ---- -----<br>--- ------- ---- -- --- -------- --- a ----- ------ ---- --<br>-------- --- -------- -------- --- -------- ---- -- ----- -<br>-------- ---- --- ---------- --------- -- ------- ------ -<br>--------- ----- -----,329995.19999999925,329993.8999999985,329213.718,329225.30000000075,329230.196,330020.465,,26,a
screen,html.Screen,2_3_1_0_1_27,2022-02-21T16:54:32.030Z,,,,,,,,,,,,,,,,,15,,,,,,,,,,,,,,369.5349999999744,,response,,,,7,E,,,,,,Space,keypress(Space),,,,lyrical,,,,---- --------- ---------- - --- ------- -- --- ------------<br>----- -- -------- ------- ---- ------ - -------- ---- -----<br>--- ------- ---- -- --- -------- --- - third ------ ---- --<br>-------- --- -------- -------- --- -------- ---- -- ----- -<br>-------- ---- --- ---------- --------- -- ------- ------ -<br>--------- ----- -----,330391.3999999985,330390,329980.251,329995.3999999985,330020.465,330396.702,,27,third
screen,html.Screen,2_3_1_0_1_28,2022-02-21T16:54:32.813Z,,,,,,,,,,,,,,,,,15,,,,,,,,,,,,,,776.3980000014999,,response,,,,7,E,,,,,,Space,keypress(Space),,,,lyrical,,,,---- --------- ---------- - --- ------- -- --- ------------<br>----- -- -------- ------- ---- ------ - -------- ---- -----<br>--- ------- ---- -- --- -------- --- - ----- prison ---- --<br>-------- --- -------- -------- --- -------- ---- -- ----- -<br>-------- ---- --- ---------- --------- -- ------- ------ -<br>--------- ----- -----,331174.30000000075,331173.1000000015,330380.186,330391.6000000015,330396.702,331179.958,,28,prison
screen,html.Screen,2_3_1_0_1_29,2022-02-21T16:54:33.200Z,,,,,,,,,,,,,,,,,15,,,,,,,,,,,,,,379.9419999985257,,response,,,,7,E,,,,,,Space,keypress(Space),,,,lyrical,,,,---- --------- ---------- - --- ------- -- --- ------------<br>----- -- -------- ------- ---- ------ - -------- ---- -----<br>--- ------- ---- -- --- -------- --- - ----- ------ stay --<br>-------- --- -------- -------- --- -------- ---- -- ----- -<br>-------- ---- --- ---------- --------- -- ------- ------ -<br>--------- ----- -----,331561.3999999985,331559.8999999985,331163.468,331174.5,331179.958,331589.632,,29,stay
screen,html.Screen,2_3_1_0_1_30,2022-02-21T16:54:33.644Z,,,,,,,,,,,,,,,,,15,,,,,,,,,,,,,,414.6680000007618,,response,,,,7,E,,,,,,Space,keypress(Space),,,,lyrical,,,,---- --------- ---------- - --- ------- -- --- ------------<br>----- -- -------- ------- ---- ------ - -------- ---- -----<br>--- ------- ---- -- --- -------- --- - ----- ------ ---- to<br>-------- --- -------- -------- --- -------- ---- -- ----- -<br>-------- ---- --- ---------- --------- -- ------- ------ -<br>--------- ----- -----,332005.3999999985,332004.30000000075,331546.714,331561.6000000015,331589.632,332013.161,,30,to
screen,html.Screen,2_3_1_0_1_31,2022-02-21T16:54:34.050Z,,,,,,,,,,,,,,,,,15,,,,,,,,,,,,,,397.8389999999781,,response,,,,7,E,,,,,,Space,keypress(Space),,,,lyrical,,,,---- --------- ---------- - --- ------- -- --- ------------<br>----- -- -------- ------- ---- ------ - -------- ---- -----<br>--- ------- ---- -- --- -------- --- - ----- ------ ---- --<br>maintain --- -------- -------- --- -------- ---- -- ----- -<br>-------- ---- --- ---------- --------- -- ------- ------ -<br>--------- ----- -----,332411.69999999925,332411,331996.635,332005.69999999925,332013.161,332444.553,,31,maintain
screen,html.Screen,2_3_1_0_1_32,2022-02-21T16:54:34.433Z,,,,,,,,,,,,,,,,,15,,,,,,,,,,,,,,347.94699999998556,,response,,,,7,E,,,,,,Space,keypress(Space),,,,lyrical,,,,---- --------- ---------- - --- ------- -- --- ------------<br>----- -- -------- ------- ---- ------ - -------- ---- -----<br>--- ------- ---- -- --- -------- --- - ----- ------ ---- --<br>-------- his -------- -------- --- -------- ---- -- ----- -<br>-------- ---- --- ---------- --------- -- ------- ------ -<br>--------- ----- -----,332795.1000000015,332792.5,332396.573,332411.80000000075,332444.553,332817.637,,32,his
screen,html.Screen,2_3_1_0_1_33,2022-02-21T16:54:34.894Z,,,,,,,,,,,,,,,,,15,,,,,,,,,,,,,,436.262999998522,,response,,,,7,E,,,,,,Space,keypress(Space),,,,lyrical,,,,---- --------- ---------- - --- ------- -- --- ------------<br>----- -- -------- ------- ---- ------ - -------- ---- -----<br>--- ------- ---- -- --- -------- --- - ----- ------ ---- --<br>-------- --- silence. -------- --- -------- ---- -- ----- -<br>-------- ---- --- ---------- --------- -- ------- ------ -<br>--------- ----- -----,333255.19999999925,333253.8999999985,332779.885,332795.30000000075,332817.637,333262.94,,33,silence.
screen,html.Screen,2_3_1_0_1_34,2022-02-21T16:54:35.601Z,,,,,,,,,,,,,,,,,15,,,,,,,,,,,,,,697.9599999985076,,response,,,,7,E,,,,,,Space,keypress(Space),,,,lyrical,,,,---- --------- ---------- - --- ------- -- --- ------------<br>----- -- -------- ------- ---- ------ - -------- ---- -----<br>--- ------- ---- -- --- -------- --- - ----- ------ ---- --<br>-------- --- -------- Anderson --- -------- ---- -- ----- -<br>-------- ---- --- ---------- --------- -- ------- ------ -<br>--------- ----- -----,333962.5,333960.8999999985,333246.462,333255.3999999985,333262.94,333979.65,,34,Anderson
screen,html.Screen,2_3_1_0_1_35,2022-02-21T16:54:35.982Z,,,,,,,,,,,,,,,,,15,,,,,,,,,,,,,,362.3499999999767,,response,,,,7,E,,,,,,Space,keypress(Space),,,,lyrical,,,,---- --------- ---------- - --- ------- -- --- ------------<br>----- -- -------- ------- ---- ------ - -------- ---- -----<br>--- ------- ---- -- --- -------- --- - ----- ------ ---- --<br>-------- --- -------- -------- was -------- ---- -- ----- -<br>-------- ---- --- ---------- --------- -- ------- ------ -<br>--------- ----- -----,334343.3999999985,334342,333963.075,333962.69999999925,333979.65,334346.162,,35,was
screen,html.Screen,2_3_1_0_1_36,2022-02-21T16:54:36.381Z,,,,,,,,,,,,,,,,,15,,,,,,,,,,,,,,395.1380000007339,,response,,,,7,E,,,,,,Space,keypress(Space),,,,lyrical,,,,---- --------- ---------- - --- ------- -- --- ------------<br>----- -- -------- ------- ---- ------ - -------- ---- -----<br>--- ------- ---- -- --- -------- --- - ----- ------ ---- --<br>-------- --- -------- -------- --- released ---- -- ----- -<br>-------- ---- --- ---------- --------- -- ------- ------ -<br>--------- ----- -----,334742.80000000075,334741.30000000075,334329.634,334343.6000000015,334346.162,334746.087,,36,released
screen,html.Screen,2_3_1_0_1_37,2022-02-21T16:54:36.674Z,,,,,,,,,,,,,,,,,15,,,,,,,,,,,,,,288.6129999992554,,response,,,,7,E,,,,,,Space,keypress(Space),,,,lyrical,,,,---- --------- ---------- - --- ------- -- --- ------------<br>----- -- -------- ------- ---- ------ - -------- ---- -----<br>--- ------- ---- -- --- -------- --- - ----- ------ ---- --<br>-------- --- -------- -------- --- -------- July -- ----- -<br>-------- ---- --- ---------- --------- -- ------- ------ -<br>--------- ----- -----,335036.1000000015,335034.69999999925,334729.567,334743.1000000015,334746.087,335046.082,,37,July
screen,html.Screen,2_3_1_0_1_38,2022-02-21T16:54:37.197Z,,,,,,,,,,,,,,,,,15,,,,,,,,,,,,,,510.9180000000051,,response,,,,7,E,,,,,,Space,keypress(Space),,,,lyrical,,,,---- --------- ---------- - --- ------- -- --- ------------<br>----- -- -------- ------- ---- ------ - -------- ---- -----<br>--- ------- ---- -- --- -------- --- - ----- ------ ---- --<br>-------- --- -------- -------- --- -------- ---- 20 ----- -<br>-------- ---- --- ---------- --------- -- ------- ------ -<br>--------- ----- -----,335558.19999999925,335557,335029.55,335036.30000000075,335046.082,335562.654,,38,20
screen,html.Screen,2_3_1_0_1_39,2022-02-21T16:54:37.684Z,,,,,,,,,,,,,,,,,15,,,,,,,,,,,,,,481.9460000015097,,response,,,,7,E,,,,,,Space,keypress(Space),,,,lyrical,,,,---- --------- ---------- - --- ------- -- --- ------------<br>----- -- -------- ------- ---- ------ - -------- ---- -----<br>--- ------- ---- -- --- -------- --- - ----- ------ ---- --<br>-------- --- -------- -------- --- -------- ---- -- after -<br>-------- ---- --- ---------- --------- -- ------- ------ -<br>--------- ----- -----,336045.8999999985,336044.6000000015,335546.151,335558.5,335562.654,336062.663,,39,after
screen,html.Screen,2_3_1_0_1_40,2022-02-21T16:54:38.557Z,,,,,,,,,,,,,,,,,15,,,,,,,,,,,,,,854.7369999985094,,response,,,,7,E,,,,,,Space,keypress(Space),,,,lyrical,,,,---- --------- ---------- - --- ------- -- --- ------------<br>----- -- -------- ------- ---- ------ - -------- ---- -----<br>--- ------- ---- -- --- -------- --- - ----- ------ ---- --<br>-------- --- -------- -------- --- -------- ---- -- ----- a<br>-------- ---- --- ---------- --------- -- ------- ------ -<br>--------- ----- -----,336918.69999999925,336917.3999999985,336046.063,336046.19999999925,336062.663,336929.231,,40,a
