sender,sender_type,sender_id,timestamp,meta,,Blues,Classical,Country,Dance,Electronic,Folk,Gospel,Hip-Hop,Jazz,Latin,Musical/Film,New-age,Pop,Prolific_id,Provo_ID,R&B,Rap,Reggae,Religious,Rock,Soul,Swing,Traditional,age,artist_name,correct,correctResponse,distraction,duration,education,ended_on,familiarity,gender,headphone_check_performance,item,list,music_frequency,offensiveness,pleasantness,position_correct,preference,response,response_action,snippet_file,song_name,song_rating,sound,stimulus_1,stimulus_2,stimulus_3,text,time_commit,time_end,time_render,time_run,time_show,time_switch,url,word,word_ID
Prolific ID,html.Form,0,2022-02-02T14:48:44.286Z,"{""labjs_version"":""20.2.2"",""labjs_build"":{""flavor"":""production"",""commit"":""a25486e0c714a0ae2ce03ff94b7bb6896854dcfa""},""location"":""https://run.pavlovia.org/mvasilev/prolific2_music_c/"",""userAgent"":""Mozilla/5.0 (Windows NT 10.0; Win64; x64) AppleWebKit/537.36 (KHTML, like Gecko) Chrome/97.0.4692.99 Safari/537.36 Edg/97.0.1072.76"",""platform"":""Win32"",""language"":""en-GB"",""locale"":""en-GB"",""timeZone"":""Europe/London"",""timezoneOffset"":0,""screen_width"":1366,""screen_height"":768,""scroll_width"":1366,""scroll_height"":609,""window_innerWidth"":1366,""window_innerHeight"":657,""devicePixelRatio"":1}",,,,,,,,,,,,,,,57b28526f6b9390001af1edd,,,,,,,,,,,,,,,10577.158999856947,,form submission,,,,,,,,,,,,,,,,,,,,,40798.09999990463,40796.89999985695,30186.432,30167.700000047684,30219.741,40819.267,{},,
Introduction,html.Screen,1_0,2022-02-02T14:48:52.978Z,,,,,,,,,,,,,,,,,,,,,,,,,,,,,,,8666.733,,response,,,,,,,,,,,continue,click button,,,,,,,,,49489.59999990463,49486,40786.414,40799,40819.267,49502.882,,,
Volume calibration,html.Screen,1_1,2022-02-02T14:49:20.551Z,,,,,,,,,,,,,,,,,,,,,,,,,,,,,,,27548.51799985695,,response,,,,,,,,,,,continue,click button,,,,,,,,,77062.09999990463,77051.39999985695,49485.667,49489.700000047684,49502.882,77067.6,,,
Task instructions,html.Screen,1_2,2022-02-02T14:49:35.652Z,,,,,,,,,,,,,,,,,,,,,,,,,,,,,,,15092.999999904627,,response,,,,,,,,,,,continue,click button,,,,,,,,,92163.09999990463,92160.59999990463,77050.918,77062.59999990463,77067.6,92183.498,,,
Sounds,html.Screen,1_3_0_0,2022-02-02T14:49:39.913Z,,,,,,,,,,,,,,,,,,,,,,,,,,,,,,,4249.785999999993,,timeout,,,,,,,,,1,,,,,,,,S,I,O,,96424.29999995232,96416.651,92150.196,92163.79999995232,92183.498,96433.284,,,
Judgement,html.Screen,1_3_0_1,2022-02-02T14:49:45.320Z,,,,,,,,,,,,,,,,,,,,,,,,,,,,true,1,,5394.716,,response,,,,,,,,,1,,1,click #choice-1,,,,,S,I,O,,101831.09999990463,101828,96416.651,96424.89999985695,96433.284,101833.06,,,
Trial,flow.Sequence,1_3_0,2022-02-02T14:49:45.328Z,,,,,,,,,,,,,,,,,,,,,,,,,,,,,,,9644.501999999993,,completion,,,,,,,,,1,,,,,,,,S,I,O,,101839.59999990463,101828,92150.196,92163.70000004768,92183.498,101833.06,,,
Sounds,html.Screen,1_3_1_0,2022-02-02T14:49:49.558Z,,,,,,,,,,,,,,,,,,,,,,,,,,,,,,,4251.637000000002,,timeout,,,,,,,,,2,,,,,,,,O,S,I,,106069.5,106066.24,101816.344,101840.20000004768,101833.06,106084.697,,,
Judgement,html.Screen,1_3_1_1,2022-02-02T14:49:50.749Z,,,,,,,,,,,,,,,,,,,,,,,,,,,,true,2,,1172.5030000476836,,response,,,,,,,,,2,,2,click #choice-2,,,,,O,S,I,,107260.5,107257.20000004768,106066.24,106070,106084.697,107266.13,,,
Trial,flow.Sequence,1_3_1,2022-02-02T14:49:50.750Z,,,,,,,,,,,,,,,,,,,,,,,,,,,,,,,5424.140000047686,,completion,,,,,,,,,2,,,,,,,,O,S,I,,107261.29999995232,107257.20000004768,101816.344,101840,101833.06,107266.13,,,
Sounds,html.Screen,1_3_2_0,2022-02-02T14:49:54.991Z,,,,,,,,,,,,,,,,,,,,,,,,,,,,,,,4251.5,,timeout,,,,,,,,,2,,,,,,,,I,S,O,,111502.29999995232,111499.895,107249.599,107262.79999995232,107266.13,111517.63,,,
Judgement,html.Screen,1_3_2_1,2022-02-02T14:49:55.902Z,,,,,,,,,,,,,,,,,,,,,,,,,,,,true,2,,892.3699999999953,,response,,,,,,,,,2,,2,click #choice-2,,,,,I,S,O,,112413.09999990463,112410,111499.895,111502.79999995232,111517.63,112415.881,,,
Trial,flow.Sequence,1_3_2,2022-02-02T14:49:55.903Z,,,,,,,,,,,,,,,,,,,,,,,,,,,,,,,5143.869999999995,,completion,,,,,,,,,2,,,,,,,,I,S,O,,112414,112410,107249.599,107262.70000004768,107266.13,112415.881,,,
Sounds,html.Screen,1_3_3_0,2022-02-02T14:50:00.138Z,,,,,,,,,,,,,,,,,,,,,,,,,,,,,,,4249.9360000000015,,timeout,,,,,,,,,1,,,,,,,,S,O,I,,116649.89999985695,116648.984,112399.303,112414.89999985695,112415.881,116665.817,,,
Judgement,html.Screen,1_3_3_1,2022-02-02T14:50:01.174Z,,,,,,,,,,,,,,,,,,,,,,,,,,,,true,1,,1016.7829999046371,,response,,,,,,,,,1,,1,click #choice-1,,,,,S,O,I,,117685.79999995232,117682.59999990463,116648.984,116650,116665.817,117700.104,,,
Trial,flow.Sequence,1_3_3,2022-02-02T14:50:01.175Z,,,,,,,,,,,,,,,,,,,,,,,,,,,,,,,5266.718999904639,,completion,,,,,,,,,1,,,,,,,,S,O,I,,117686.5,117682.59999990463,112399.303,112414.70000004768,112415.881,117700.104,,,
Sounds,html.Screen,1_3_4_0,2022-02-02T14:50:05.422Z,,,,,,,,,,,,,,,,,,,,,,,,,,,,,,,4249.034999999989,,timeout,,,,,,,,,3,,,,,,,,I,O,S,,121934,121932.129,117682.236,117687,117700.104,121949.139,,,
Judgement,html.Screen,1_3_4_1,2022-02-02T14:50:06.350Z,,,,,,,,,,,,,,,,,,,,,,,,,,,,true,3,,909.5610000476881,,response,,,,,,,,,3,,3,click #choice-3,,,,,I,O,S,,122861.39999985695,122858.70000004768,121932.129,121934.39999985695,121949.139,122865.936,,,
Trial,flow.Sequence,1_3_4,2022-02-02T14:50:06.351Z,,,,,,,,,,,,,,,,,,,,,,,,,,,,,,,5158.596000047677,,completion,,,,,,,,,3,,,,,,,,I,O,S,,122862.20000004768,122858.70000004768,117682.236,117686.79999995232,117700.104,122865.936,,,
Sounds,html.Screen,1_3_5_0,2022-02-02T14:50:10.589Z,,,,,,,,,,,,,,,,,,,,,,,,,,,,,,,4249.661999999997,,timeout,,,,,,,,,3,,,,,,,,O,I,S,,127100.70000004768,127098.561,122848.783,122862.79999995232,122865.936,127115.598,,,
Judgement,html.Screen,1_3_5_1,2022-02-02T14:50:11.308Z,,,,,,,,,,,,,,,,,,,,,,,,,,,,true,3,,700.6020000476856,,response,,,,,,,,,3,,3,click #choice-3,,,,,O,I,S,,127819.29999995232,127816.20000004768,127098.561,127101.09999990463,127115.598,127848.77,,,
Trial,flow.Sequence,1_3_5,2022-02-02T14:50:11.308Z,,,,,,,,,,,,,,,,,,,,,,,,,,,,,,,4950.264000047682,,completion,,,,,,,,,3,,,,,,,,O,I,S,,127820,127816.20000004768,122848.783,122862.5,122865.936,127848.77,,,
Task,flow.Loop,1_3,2022-02-02T14:50:11.326Z,,,,,,,,,,,,,,,,,,,,,,,,,,,,,,,35632.70200004768,,completion,,,1,,,,,,,,,,,,,,,,,,127838,127816.20000004768,92150.196,92163.5,92183.498,127848.77,,,
Trap,html.Screen,1_4,2022-02-02T14:50:11.331Z,,,,,,,,,,,,,,,,,,,,,,,,,,,,,,,NaN,,skipped,,,,,,,,,,,,,,,,,,,,,127843.09999990463,127816.20000004768,,127842.89999985695,,127848.77,,,
Thanks,html.Screen,1_5,2022-02-02T14:50:19.484Z,,,,,,,,,,,,,,,,,,,,,,,,,,,,,,,8144.3299999046285,,response,,,,,,,,,,,continue,click button,,,,,,,,,135996,135993.09999990463,127815.278,127843.29999995232,127848.77,139848.345,,,
Headphone screening,flow.Sequence,1,2022-02-02T14:50:19.485Z,,,,,,,,,,,,,,,,,,,,,,,,,,,,,,,95173.83299990464,,completion,,,,,,,,,,,,,,,,,,,,,135997.20000004768,135993.09999990463,40786.414,40798.89999985695,40819.267,139848.345,,,
Instructions,html.Page,2_0,2022-02-02T14:50:49.159Z,,,,,,,,,,,,,,,,,,,,,,,,,,,,,,,25821.655,,form submission,,,,,,,,,,,,,,,,,,,,,165670.79999995232,165670,139798.057,139842.70000004768,139848.345,165679.993,,,
Holding screen,html.Screen,2_1_0_0,2022-02-02T14:50:59.153Z,,,,,,,,,,,,,,,,,,,,,,,,,,,,,,,10032.834000000003,,timeout,,,,,,,,,,,,,,,,,,,,,175664.39999985695,175662.96,165663.369,165671.39999985695,165679.993,175712.827,,,
screen,html.Screen,2_1_0_1_0,2022-02-02T14:51:00.282Z,,,,,,,,,,,,,,,,,53,,,,,,,,,,,,,,1069.7729999046423,,response,,,,99,,,,,,,Space,keypress(Space),,,,,,,,When -- ----- -- ------ - ------- --- ----------<br>------------- ------ ------ ---- ---- ------- ----- -- ----<br>-------- ------- -- ---------- --- - --- ----- ----- ----<br>---- --- --- ----- --- ---- ---- ------- ----- ---- -------<br>--- --- -- ----- -- --- ---- -- --- ---- -- ------ ------<br>--- ----- -- ----,176793.70000004768,176782.59999990463,175662.96,175665,175712.827,176796.161,,0,When
screen,html.Screen,2_1_0_1_1,2022-02-02T14:51:02.260Z,,,,,,,,,,,,,,,,,53,,,,,,,,,,,,,,1973.3390000000072,,response,,,,99,,,,,,,Space,keypress(Space),,,,,,,,---- it ----- -- ------ - ------- --- ----------<br>------------- ------ ------ ---- ---- ------- ----- -- ----<br>-------- ------- -- ---------- --- - --- ----- ----- ----<br>---- --- --- ----- --- ---- ---- ------- ----- ---- -------<br>--- --- -- ----- -- --- ---- -- --- ---- -- ------ ------<br>--- ----- -- ----,178771.59999990463,178769.5,176779.351,176794.20000004768,176796.161,178779.39,,1,it
screen,html.Screen,2_1_0_1_2,2022-02-02T14:51:03.766Z,,,,,,,,,,,,,,,,,53,,,,,,,,,,,,,,1495.7099999046186,,response,,,,99,,,,,,,Space,keypress(Space),,,,,,,,---- -- comes -- ------ - ------- --- ----------<br>------------- ------ ------ ---- ---- ------- ----- -- ----<br>-------- ------- -- ---------- --- - --- ----- ----- ----<br>---- --- --- ----- --- ---- ---- ------- ----- ---- -------<br>--- --- -- ----- -- --- ---- -- --- ---- -- ------ ------<br>--- ----- -- ----,180277.20000004768,180275.09999990463,178762.702,178772,178779.39,180308.063,,2,comes
screen,html.Screen,2_1_0_1_3,2022-02-02T14:51:05.211Z,,,,,,,,,,,,,,,,,53,,,,,,,,,,,,,,1412.137000047689,,response,,,,99,,,,,,,Space,keypress(Space),,,,,,,,---- -- ----- to ------ - ------- --- ----------<br>------------- ------ ------ ---- ---- ------- ----- -- ----<br>-------- ------- -- ---------- --- - --- ----- ----- ----<br>---- --- --- ----- --- ---- ---- ------- ----- ---- -------<br>--- --- -- ----- -- --- ---- -- --- ---- -- ------ ------<br>--- ----- -- ----,181722.09999990463,181720.20000004768,180262.692,180277.5,180308.063,181729.253,,3,to
screen,html.Screen,2_1_0_1_4,2022-02-02T14:51:07.000Z,,,,,,,,,,,,,,,,,53,,,,,,,,,,,,,,1780.9470000476867,,response,,,,99,,,,,,,Space,keypress(Space),,,,,,,,---- -- ----- -- having - ------- --- ----------<br>------------- ------ ------ ---- ---- ------- ----- -- ----<br>-------- ------- -- ---------- --- - --- ----- ----- ----<br>---- --- --- ----- --- ---- ---- ------- ----- ---- -------<br>--- --- -- ----- -- --- ---- -- --- ---- -- ------ ------<br>--- ----- -- ----,183511,183510.20000004768,181712.594,181722.59999990463,181729.253,183542.431,,4,having
screen,html.Screen,2_1_0_1_5,2022-02-02T14:51:07.672Z,,,,,,,,,,,,,,,,,53,,,,,,,,,,,,,,637.9689998569374,,response,,,,99,,,,,,,Space,keypress(Space),,,,,,,,---- -- ----- -- ------ a ------- --- ----------<br>------------- ------ ------ ---- ---- ------- ----- -- ----<br>-------- ------- -- ---------- --- - --- ----- ----- ----<br>---- --- --- ----- --- ---- ---- ------- ----- ---- -------<br>--- --- -- ----- -- --- ---- -- --- ---- -- ------ ------<br>--- ----- -- ----,184183.09999990463,184180.39999985695,183495.759,183511.20000004768,183542.431,184195.749,,5,a
screen,html.Screen,2_1_0_1_6,2022-02-02T14:51:08.435Z,,,,,,,,,,,,,,,,,53,,,,,,,,,,,,,,747.451000047673,,response,,,,99,,,,,,,Space,keypress(Space),,,,,,,,---- -- ----- -- ------ - lasting --- ----------<br>------------- ------ ------ ---- ---- ------- ----- -- ----<br>-------- ------- -- ---------- --- - --- ----- ----- ----<br>---- --- --- ----- --- ---- ---- ------- ----- ---- -------<br>--- --- -- ----- -- --- ---- -- --- ---- -- ------ ------<br>--- ----- -- ----,184946.20000004768,184943.20000004768,184179.085,184183.5,184195.749,184962.404,,6,lasting
screen,html.Screen,2_1_0_1_7,2022-02-02T14:51:09.050Z,,,,,,,,,,,,,,,,,53,,,,,,,,,,,,,,597.195999904623,,response,,,,99,,,,,,,Space,keypress(Space),,,,,,,,---- -- ----- -- ------ - ------- and ----------<br>------------- ------ ------ ---- ---- ------- ----- -- ----<br>-------- ------- -- ---------- --- - --- ----- ----- ----<br>---- --- --- ----- --- ---- ---- ------- ----- ---- -------<br>--- --- -- ----- -- --- ---- -- --- ---- -- ------ ------<br>--- ----- -- ----,185561,185559.59999990463,184946.427,184946.79999995232,184962.404,185595.769,,7,and
screen,html.Screen,2_1_0_1_8,2022-02-02T14:51:09.601Z,,,,,,,,,,,,,,,,,53,,,,,,,,,,,,,,514.3309999046323,,response,,,,99,,,,,,,Space,keypress(Space),,,,,,,,---- -- ----- -- ------ - ------- --- fulfilling<br>------------- ------ ------ ---- ---- ------- ----- -- ----<br>-------- ------- -- ---------- --- - --- ----- ----- ----<br>---- --- --- ----- --- ---- ---- ------- ----- ---- -------<br>--- --- -- ----- -- --- ---- -- --- ---- -- ------ ------<br>--- ----- -- ----,186112,186110.09999990463,185579.184,185561.29999995232,185595.769,186129.048,,8,fulfilling
screen,html.Screen,2_1_0_1_9,2022-02-02T14:51:10.669Z,,,,,,,,,,,,,,,,,53,,,,,,,,,,,,,,1047.9519999999902,,response,,,,99,,,,,,,Space,keypress(Space),,,,,,,,"---- -- ----- -- ------ - ------- --- ----------<br>relationship, ------ ------ ---- ---- ------- ----- -- ----<br>-------- ------- -- ---------- --- - --- ----- ----- ----<br>---- --- --- ----- --- ---- ---- ------- ----- ---- -------<br>--- --- -- ----- -- --- ---- -- --- ---- -- ------ ------<br>--- ----- -- ----",187180.09999990463,187177,186112.313,186112.39999985695,186129.048,187195.859,,9,"relationship,"
screen,html.Screen,2_1_0_1_10,2022-02-02T14:51:11.113Z,,,,,,,,,,,,,,,,,53,,,,,,,,,,,,,,425.2409999046358,,response,,,,99,,,,,,,Space,keypress(Space),,,,,,,,---- -- ----- -- ------ - ------- --- ----------<br>------------- common ------ ---- ---- ------- ----- -- ----<br>-------- ------- -- ---------- --- - --- ----- ----- ----<br>---- --- --- ----- --- ---- ---- ------- ----- ---- -------<br>--- --- -- ----- -- --- ---- -- --- ---- -- ------ ------<br>--- ----- -- ----,187623.79999995232,187621.09999990463,187179.098,187180.5,187195.859,187629.121,,10,common
screen,html.Screen,2_1_0_1_11,2022-02-02T14:51:11.808Z,,,,,,,,,,,,,,,,,53,,,,,,,,,,,,,,688.57900004767,,response,,,,99,,,,,,,Space,keypress(Space),,,,,,,,---- -- ----- -- ------ - ------- --- ----------<br>------------- ------ wisdom ---- ---- ------- ----- -- ----<br>-------- ------- -- ---------- --- - --- ----- ----- ----<br>---- --- --- ----- --- ---- ---- ------- ----- ---- -------<br>--- --- -- ----- -- --- ---- -- --- ---- -- ------ ------<br>--- ----- -- ----,188319.70000004768,188317.70000004768,187612.552,187624.29999995232,187629.121,188328.956,,11,wisdom
screen,html.Screen,2_1_0_1_12,2022-02-02T14:51:12.213Z,,,,,,,,,,,,,,,,,53,,,,,,,,,,,,,,392.94399985694326,,response,,,,99,,,,,,,Space,keypress(Space),,,,,,,,---- -- ----- -- ------ - ------- --- ----------<br>------------- ------ ------ says ---- ------- ----- -- ----<br>-------- ------- -- ---------- --- - --- ----- ----- ----<br>---- --- --- ----- --- ---- ---- ------- ----- ---- -------<br>--- --- -- ----- -- --- ---- -- --- ---- -- ------ ------<br>--- ----- -- ----,188723.89999985695,188721.89999985695,188312.229,188320.09999990463,188328.956,188729.148,,12,says
screen,html.Screen,2_1_0_1_13,2022-02-02T14:51:12.590Z,,,,,,,,,,,,,,,,,53,,,,,,,,,,,,,,369.9519999046461,,response,,,,99,,,,,,,Space,keypress(Space),,,,,,,,---- -- ----- -- ------ - ------- --- ----------<br>------------- ------ ------ ---- that ------- ----- -- ----<br>-------- ------- -- ---------- --- - --- ----- ----- ----<br>---- --- --- ----- --- ---- ---- ------- ----- ---- -------<br>--- --- -- ----- -- --- ---- -- --- ---- -- ------ ------<br>--- ----- -- ----,189101.09999990463,189099.09999990463,188712.226,188724.20000004768,188729.148,189112.304,,13,that
screen,html.Screen,2_1_0_1_14,2022-02-02T14:51:13.334Z,,,,,,,,,,,,,,,,,53,,,,,,,,,,,,,,731.0959998569451,,response,,,,99,,,,,,,Space,keypress(Space),,,,,,,,---- -- ----- -- ------ - ------- --- ----------<br>------------- ------ ------ ---- ---- feeling ----- -- ----<br>-------- ------- -- ---------- --- - --- ----- ----- ----<br>---- --- --- ----- --- ---- ---- ------- ----- ---- -------<br>--- --- -- ----- -- --- ---- -- --- ---- -- ------ ------<br>--- ----- -- ----,189845.59999990463,189843.39999985695,189095.632,189101.59999990463,189112.304,189862.597,,14,feeling
screen,html.Screen,2_1_0_1_15,2022-02-02T14:51:13.801Z,,,,,,,,,,,,,,,,,53,,,,,,,,,,,,,,447.10300004767487,,response,,,,99,,,,,,,Space,keypress(Space),,,,,,,,---- -- ----- -- ------ - ------- --- ----------<br>------------- ------ ------ ---- ---- ------- close -- ----<br>-------- ------- -- ---------- --- - --- ----- ----- ----<br>---- --- --- ----- --- ---- ---- ------- ----- ---- -------<br>--- --- -- ----- -- --- ---- -- --- ---- -- ------ ------<br>--- ----- -- ----,190312.20000004768,190309.70000004768,189846.15,189846,189862.597,190328.799,,15,close
screen,html.Screen,2_1_0_1_16,2022-02-02T14:51:14.123Z,,,,,,,,,,,,,,,,,53,,,,,,,,,,,,,,303.0009999523172,,response,,,,99,,,,,,,Space,keypress(Space),,,,,,,,---- -- ----- -- ------ - ------- --- ----------<br>------------- ------ ------ ---- ---- ------- ----- to ----<br>-------- ------- -- ---------- --- - --- ----- ----- ----<br>---- --- --- ----- --- ---- ---- ------- ----- ---- -------<br>--- --- -- ----- -- --- ---- -- --- ---- -- ------ ------<br>--- ----- -- ----,190634.20000004768,190631.79999995232,190312.117,190312.59999990463,190328.799,190645.908,,16,to
screen,html.Screen,2_1_0_1_17,2022-02-02T14:51:14.595Z,,,,,,,,,,,,,,,,,53,,,,,,,,,,,,,,458.5920000000042,,response,,,,99,,,,,,,Space,keypress(Space),,,,,,,,---- -- ----- -- ------ - ------- --- ----------<br>------------- ------ ------ ---- ---- ------- ----- -- your<br>-------- ------- -- ---------- --- - --- ----- ----- ----<br>---- --- --- ----- --- ---- ---- ------- ----- ---- -------<br>--- --- -- ----- -- --- ---- -- --- ---- -- ------ ------<br>--- ----- -- ----,191106.59999990463,191104.5,190628.948,190634.59999990463,190645.908,191112.09,,17,your
screen,html.Screen,2_1_0_1_18,2022-02-02T14:51:15.138Z,,,,,,,,,,,,,,,,,53,,,,,,,,,,,,,,535.1100000476872,,response,,,,99,,,,,,,Space,keypress(Space),,,,,,,,---- -- ----- -- ------ - ------- --- ----------<br>------------- ------ ------ ---- ---- ------- ----- -- ----<br>romantic ------- -- ---------- --- - --- ----- ----- ----<br>---- --- --- ----- --- ---- ---- ------- ----- ---- -------<br>--- --- -- ----- -- --- ---- -- --- ---- -- ------ ------<br>--- ----- -- ----,191649.09999990463,191647.20000004768,191095.486,191107,191112.09,191662.598,,18,romantic
screen,html.Screen,2_1_0_1_19,2022-02-02T14:51:15.646Z,,,,,,,,,,,,,,,,,53,,,,,,,,,,,,,,492.3019998569507,,response,,,,99,,,,,,,Space,keypress(Space),,,,,,,,---- -- ----- -- ------ - ------- --- ----------<br>------------- ------ ------ ---- ---- ------- ----- -- ----<br>-------- partner -- ---------- --- - --- ----- ----- ----<br>---- --- --- ----- --- ---- ---- ------- ----- ---- -------<br>--- --- -- ----- -- --- ---- -- --- ---- -- ------ ------<br>--- ----- -- ----,192156.79999995232,192154.89999985695,191645.407,191649.70000004768,191662.598,192162.077,,19,partner
screen,html.Screen,2_1_0_1_20,2022-02-02T14:51:16.047Z,,,,,,,,,,,,,,,,,53,,,,,,,,,,,,,,393.6230000476935,,response,,,,99,,,,,,,Space,keypress(Space),,,,,,,,---- -- ----- -- ------ - ------- --- ----------<br>------------- ------ ------ ---- ---- ------- ----- -- ----<br>-------- ------- is ---------- --- - --- ----- ----- ----<br>---- --- --- ----- --- ---- ---- ------- ----- ---- -------<br>--- --- -- ----- -- --- ---- -- --- ---- -- ------ ------<br>--- ----- -- ----,192557.89999985695,192555.70000004768,192145.545,192157.20000004768,192162.077,192562.074,,20,is
screen,html.Screen,2_1_0_1_21,2022-02-02T14:51:19.678Z,,,,,,,,,,,,,,,,,53,,,,,,,,,,,,,,3626.3259998569556,,response,,,,99,,,,,,,Space,keypress(Space),,,,,,,,---- -- ----- -- ------ - ------- --- ----------<br>------------- ------ ------ ---- ---- ------- ----- -- ----<br>-------- ------- -- paramount. --- - --- ----- ----- ----<br>---- --- --- ----- --- ---- ---- ------- ----- ---- -------<br>--- --- -- ----- -- --- ---- -- --- ---- -- ------ ------<br>--- ----- -- ----,196189.29999995232,196188.39999985695,192545.417,192558.39999985695,192562.074,196195.154,,21,paramount.
screen,html.Screen,2_1_0_1_22,2022-02-02T14:51:20.118Z,,,,,,,,,,,,,,,,,53,,,,,,,,,,,,,,433.54600004767417,,response,,,,99,,,,,,,Space,keypress(Space),,,,,,,,---- -- ----- -- ------ - ------- --- ----------<br>------------- ------ ------ ---- ---- ------- ----- -- ----<br>-------- ------- -- ---------- But - --- ----- ----- ----<br>---- --- --- ----- --- ---- ---- ------- ----- ---- -------<br>--- --- -- ----- -- --- ---- -- --- ---- -- ------ ------<br>--- ----- -- ----,196629.5,196628.70000004768,196178.483,196189.5,196195.154,196645.168,,22,But
screen,html.Screen,2_1_0_1_23,2022-02-02T14:51:20.512Z,,,,,,,,,,,,,,,,,53,,,,,,,,,,,,,,376.3319999999949,,response,,,,99,,,,,,,Space,keypress(Space),,,,,,,,---- -- ----- -- ------ - ------- --- ----------<br>------------- ------ ------ ---- ---- ------- ----- -- ----<br>-------- ------- -- ---------- --- a --- ----- ----- ----<br>---- --- --- ----- --- ---- ---- ------- ----- ---- -------<br>--- --- -- ----- -- --- ---- -- --- ---- -- ------ ------<br>--- ----- -- ----,197023.79999995232,197021.5,196628.667,196629.70000004768,196645.168,197028.484,,23,a
screen,html.Screen,2_1_0_1_24,2022-02-02T14:51:20.906Z,,,,,,,,,,,,,,,,,53,,,,,,,,,,,,,,385.81599995231954,,response,,,,99,,,,,,,Space,keypress(Space),,,,,,,,---- -- ----- -- ------ - ------- --- ----------<br>------------- ------ ------ ---- ---- ------- ----- -- ----<br>-------- ------- -- ---------- --- - new ----- ----- ----<br>---- --- --- ----- --- ---- ---- ------- ----- ---- -------<br>--- --- -- ----- -- --- ---- -- --- ---- -- ------ ------<br>--- ----- -- ----,197417.59999990463,197414.29999995232,197011.763,197024.20000004768,197028.484,197428.481,,24,new
screen,html.Screen,2_1_0_1_25,2022-02-02T14:51:21.312Z,,,,,,,,,,,,,,,,,53,,,,,,,,,,,,,,392.21900004768395,,response,,,,99,,,,,,,Space,keypress(Space),,,,,,,,---- -- ----- -- ------ - ------- --- ----------<br>------------- ------ ------ ---- ---- ------- ----- -- ----<br>-------- ------- -- ---------- --- - --- study ----- ----<br>---- --- --- ----- --- ---- ---- ------- ----- ---- -------<br>--- --- -- ----- -- --- ---- -- --- ---- -- ------ ------<br>--- ----- -- ----,197823,197820.70000004768,197411.828,197418,197428.481,197828.94,,25,study
screen,html.Screen,2_1_0_1_26,2022-02-02T14:51:21.660Z,,,,,,,,,,,,,,,,,53,,,,,,,,,,,,,,340.65999990463024,,response,,,,99,,,,,,,Space,keypress(Space),,,,,,,,---- -- ----- -- ------ - ------- --- ----------<br>------------- ------ ------ ---- ---- ------- ----- -- ----<br>-------- ------- -- ---------- --- - --- ----- finds ----<br>---- --- --- ----- --- ---- ---- ------- ----- ---- -------<br>--- --- -- ----- -- --- ---- -- --- ---- -- ------ ------<br>--- ----- -- ----,198171.70000004768,198169.59999990463,197811.921,197823.5,197828.94,198178.459,,26,finds
screen,html.Screen,2_1_0_1_27,2022-02-02T14:51:22.108Z,,,,,,,,,,,,,,,,,53,,,,,,,,,,,,,,439.54099999999744,,response,,,,99,,,,,,,Space,keypress(Space),,,,,,,,---- -- ----- -- ------ - ------- --- ----------<br>------------- ------ ------ ---- ---- ------- ----- -- ----<br>-------- ------- -- ---------- --- - --- ----- ----- that<br>---- --- --- ----- --- ---- ---- ------- ----- ---- -------<br>--- --- -- ----- -- --- ---- -- --- ---- -- ------ ------<br>--- ----- -- ----,198619,198618,198161.837,198172.20000004768,198178.459,198628.414,,27,that
screen,html.Screen,2_1_0_1_28,2022-02-02T14:51:22.555Z,,,,,,,,,,,,,,,,,53,,,,,,,,,,,,,,436.38599995232653,,response,,,,99,,,,,,,Space,keypress(Space),,,,,,,,---- -- ----- -- ------ - ------- --- ----------<br>------------- ------ ------ ---- ---- ------- ----- -- ----<br>-------- ------- -- ---------- --- - --- ----- ----- ----<br>it's --- --- ----- --- ---- ---- ------- ----- ---- -------<br>--- --- -- ----- -- --- ---- -- --- ---- -- ------ ------<br>--- ----- -- ----,199066.5,199064.79999995232,198611.762,198619.09999990463,198628.414,199078.56,,28,it's
screen,html.Screen,2_1_0_1_29,2022-02-02T14:51:22.932Z,,,,,,,,,,,,,,,,,53,,,,,,,,,,,,,,362.7399999523186,,response,,,,99,,,,,,,Space,keypress(Space),,,,,,,,---- -- ----- -- ------ - ------- --- ----------<br>------------- ------ ------ ---- ---- ------- ----- -- ----<br>-------- ------- -- ---------- --- - --- ----- ----- ----<br>---- not --- ----- --- ---- ---- ------- ----- ---- -------<br>--- --- -- ----- -- --- ---- -- --- ---- -- ------ ------<br>--- ----- -- ----,199443.59999990463,199441.29999995232,199061.663,199066.89999985695,199078.56,199478.506,,29,not
screen,html.Screen,2_1_0_1_30,2022-02-02T14:51:23.321Z,,,,,,,,,,,,,,,,,53,,,,,,,,,,,,,,351.79399995232234,,response,,,,99,,,,,,,Space,keypress(Space),,,,,,,,---- -- ----- -- ------ - ------- --- ----------<br>------------- ------ ------ ---- ---- ------- ----- -- ----<br>-------- ------- -- ---------- --- - --- ----- ----- ----<br>---- --- how ----- --- ---- ---- ------- ----- ---- -------<br>--- --- -- ----- -- --- ---- -- --- ---- -- ------ ------<br>--- ----- -- ----,199832.70000004768,199830.29999995232,199462.453,199444,199478.506,199845.027,,30,how
screen,html.Screen,2_1_0_1_31,2022-02-02T14:51:23.735Z,,,,,,,,,,,,,,,,,53,,,,,,,,,,,,,,398.7729999523144,,response,,,,99,,,,,,,Space,keypress(Space),,,,,,,,---- -- ----- -- ------ - ------- --- ----------<br>------------- ------ ------ ---- ---- ------- ----- -- ----<br>-------- ------- -- ---------- --- - --- ----- ----- ----<br>---- --- --- close --- ---- ---- ------- ----- ---- -------<br>--- --- -- ----- -- --- ---- -- --- ---- -- ------ ------<br>--- ----- -- ----,200245.79999995232,200243.79999995232,199828.318,199833,199845.027,200261.761,,31,close
screen,html.Screen,2_1_0_1_32,2022-02-02T14:51:24.097Z,,,,,,,,,,,,,,,,,53,,,,,,,,,,,,,,344.9390000476851,,response,,,,99,,,,,,,Space,keypress(Space),,,,,,,,---- -- ----- -- ------ - ------- --- ----------<br>------------- ------ ------ ---- ---- ------- ----- -- ----<br>-------- ------- -- ---------- --- - --- ----- ----- ----<br>---- --- --- ----- you ---- ---- ------- ----- ---- -------<br>--- --- -- ----- -- --- ---- -- --- ---- -- ------ ------<br>--- ----- -- ----,200608.59999990463,200606.70000004768,200245.111,200248,200261.761,200611.75,,32,you
screen,html.Screen,2_1_0_1_33,2022-02-02T14:51:24.713Z,,,,,,,,,,,,,,,,,53,,,,,,,,,,,,,,610.1499998569489,,response,,,,99,,,,,,,Space,keypress(Space),,,,,,,,---- -- ----- -- ------ - ------- --- ----------<br>------------- ------ ------ ---- ---- ------- ----- -- ----<br>-------- ------- -- ---------- --- - --- ----- ----- ----<br>---- --- --- ----- --- feel ---- ------- ----- ---- -------<br>--- --- -- ----- -- --- ---- -- --- ---- -- ------ ------<br>--- ----- -- ----,201224.39999985695,201221.89999985695,200595.098,200608.89999985695,200611.75,201228.315,,33,feel
screen,html.Screen,2_1_0_1_34,2022-02-02T14:51:25.090Z,,,,,,,,,,,,,,,,,53,,,,,,,,,,,,,,371.1849999999977,,response,,,,99,,,,,,,Space,keypress(Space),,,,,,,,---- -- ----- -- ------ - ------- --- ----------<br>------------- ------ ------ ---- ---- ------- ----- -- ----<br>-------- ------- -- ---------- --- - --- ----- ----- ----<br>---- --- --- ----- --- ---- that ------- ----- ---- -------<br>--- --- -- ----- -- --- ---- -- --- ---- -- ------ ------<br>--- ----- -- ----,201601.20000004768,201599.5,201211.803,201224.79999995232,201228.315,201611.613,,34,that
screen,html.Screen,2_1_0_1_35,2022-02-02T14:51:25.773Z,,,,,,,,,,,,,,,,,53,,,,,,,,,,,,,,669.3869999999879,,response,,,,99,,,,,,,Space,keypress(Space),,,,,,,,---- -- ----- -- ------ - ------- --- ----------<br>------------- ------ ------ ---- ---- ------- ----- -- ----<br>-------- ------- -- ---------- --- - --- ----- ----- ----<br>---- --- --- ----- --- ---- ---- matters ----- ---- -------<br>--- --- -- ----- -- --- ---- -- --- ---- -- ------ ------<br>--- ----- -- ----,202284,202281,201594.951,201601.59999990463,201611.613,202296.001,,35,matters
screen,html.Screen,2_1_0_1_36,2022-02-02T14:51:26.144Z,,,,,,,,,,,,,,,,,53,,,,,,,,,,,,,,356.9990000000107,,response,,,,99,,,,,,,Space,keypress(Space),,,,,,,,"---- -- ----- -- ------ - ------- --- ----------<br>------------- ------ ------ ---- ---- ------- ----- -- ----<br>-------- ------- -- ---------- --- - --- ----- ----- ----<br>---- --- --- ----- --- ---- ---- ------- most, ---- -------<br>--- --- -- ----- -- --- ---- -- --- ---- -- ------ ------<br>--- ----- -- ----",202654.89999985695,202653,202278.339,202284.5,202296.001,202661.579,,36,"most,"
screen,html.Screen,2_1_0_1_37,2022-02-02T14:51:26.715Z,,,,,,,,,,,,,,,,,53,,,,,,,,,,,,,,564.0209999046347,,response,,,,99,,,,,,,Space,keypress(Space),,,,,,,,---- -- ----- -- ------ - ------- --- ----------<br>------------- ------ ------ ---- ---- ------- ----- -- ----<br>-------- ------- -- ---------- --- - --- ----- ----- ----<br>---- --- --- ----- --- ---- ---- ------- ----- it's -------<br>--- --- -- ----- -- --- ---- -- --- ---- -- ------ ------<br>--- ----- -- ----,203226.59999990463,203225.59999990463,202645.285,202655.29999995232,202661.579,203260.041,,37,it's
screen,html.Screen,2_1_0_1_38,2022-02-02T14:51:27.260Z,,,,,,,,,,,,,,,,,53,,,,,,,,,,,,,,509.6590000476863,,response,,,,99,,,,,,,Space,keypress(Space),,,,,,,,---- -- ----- -- ------ - ------- --- ----------<br>------------- ------ ------ ---- ---- ------- ----- -- ----<br>-------- ------- -- ---------- --- - --- ----- ----- ----<br>---- --- --- ----- --- ---- ---- ------- ----- ---- whether<br>--- --- -- ----- -- --- ---- -- --- ---- -- ------ ------<br>--- ----- -- ----,203771.70000004768,203769.70000004768,203211.634,203226.70000004768,203260.041,203778.216,,38,whether
screen,html.Screen,2_1_0_1_39,2022-02-02T14:51:27.678Z,,,,,,,,,,,,,,,,,53,,,,,,,,,,,,,,409.0839999523305,,response,,,,99,,,,,,,Space,keypress(Space),,,,,,,,---- -- ----- -- ------ - ------- --- ----------<br>------------- ------ ------ ---- ---- ------- ----- -- ----<br>-------- ------- -- ---------- --- - --- ----- ----- ----<br>---- --- --- ----- --- ---- ---- ------- ----- ---- -------<br>you --- -- ----- -- --- ---- -- --- ---- -- ------ ------<br>--- ----- -- ----,204189.29999995232,204187.29999995232,203761.614,203772,203778.216,204194.836,,39,you
screen,html.Screen,2_1_0_1_40,2022-02-02T14:51:28.189Z,,,,,,,,,,,,,,,,,53,,,,,,,,,,,,,,503.46399995230604,,response,,,,99,,,,,,,Space,keypress(Space),,,,,,,,---- -- ----- -- ------ - ------- --- ----------<br>------------- ------ ------ ---- ---- ------- ----- -- ----<br>-------- ------- -- ---------- --- - --- ----- ----- ----<br>---- --- --- ----- --- ---- ---- ------- ----- ---- -------<br>--- are -- ----- -- --- ---- -- --- ---- -- ------ ------<br>--- ----- -- ----,204700.29999995232,204698.29999995232,204178.279,204189.59999990463,204194.836,204712.911,,40,are
screen,html.Screen,2_1_0_1_41,2022-02-02T14:51:28.616Z,,,,,,,,,,,,,,,,,53,,,,,,,,,,,,,,411.48899985695607,,response,,,,99,,,,,,,Space,keypress(Space),,,,,,,,---- -- ----- -- ------ - ------- --- ----------<br>------------- ------ ------ ---- ---- ------- ----- -- ----<br>-------- ------- -- ---------- --- - --- ----- ----- ----<br>---- --- --- ----- --- ---- ---- ------- ----- ---- -------<br>--- --- as ----- -- --- ---- -- --- ---- -- ------ ------<br>--- ----- -- ----,205126.79999995232,205124.39999985695,204694.785,204700.70000004768,204712.911,205145.039,,41,as
screen,html.Screen,2_1_0_1_42,2022-02-02T14:51:29.075Z,,,,,,,,,,,,,,,,,53,,,,,,,,,,,,,,439.26099995232653,,response,,,,99,,,,,,,Space,keypress(Space),,,,,,,,---- -- ----- -- ------ - ------- --- ----------<br>------------- ------ ------ ---- ---- ------- ----- -- ----<br>-------- ------- -- ---------- --- - --- ----- ----- ----<br>---- --- --- ----- --- ---- ---- ------- ----- ---- -------<br>--- --- -- close -- --- ---- -- --- ---- -- ------ ------<br>--- ----- -- ----,205586.29999995232,205584.29999995232,205128.144,205127.20000004768,205145.039,205596.215,,42,close
screen,html.Screen,2_1_0_1_43,2022-02-02T14:51:29.508Z,,,,,,,,,,,,,,,,,53,,,,,,,,,,,,,,420.68499985695234,,response,,,,99,,,,,,,Space,keypress(Space),,,,,,,,---- -- ----- -- ------ - ------- --- ----------<br>------------- ------ ------ ---- ---- ------- ----- -- ----<br>-------- ------- -- ---------- --- - --- ----- ----- ----<br>---- --- --- ----- --- ---- ---- ------- ----- ---- -------<br>--- --- -- ----- as --- ---- -- --- ---- -- ------ ------<br>--- ----- -- ----,206019.09999990463,206016.89999985695,205578.191,205586.70000004768,205596.215,206029.713,,43,as
screen,html.Screen,2_1_0_1_44,2022-02-02T14:51:29.935Z,,,,,,,,,,,,,,,,,53,,,,,,,,,,,,,,413.4870000476949,,response,,,,99,,,,,,,Space,keypress(Space),,,,,,,,---- -- ----- -- ------ - ------- --- ----------<br>------------- ------ ------ ---- ---- ------- ----- -- ----<br>-------- ------- -- ---------- --- - --- ----- ----- ----<br>---- --- --- ----- --- ---- ---- ------- ----- ---- -------<br>--- --- -- ----- -- you ---- -- --- ---- -- ------ ------<br>--- ----- -- ----,206445.79999995232,206443.20000004768,206011.495,206019.5,206029.713,206461.516,,44,you
screen,html.Screen,2_1_0_1_45,2022-02-02T14:51:30.420Z,,,,,,,,,,,,,,,,,53,,,,,,,,,,,,,,468.0839999046293,,response,,,,99,,,,,,,Space,keypress(Space),,,,,,,,---- -- ----- -- ------ - ------- --- ----------<br>------------- ------ ------ ---- ---- ------- ----- -- ----<br>-------- ------- -- ---------- --- - --- ----- ----- ----<br>---- --- --- ----- --- ---- ---- ------- ----- ---- -------<br>--- --- -- ----- -- --- want -- --- ---- -- ------ ------<br>--- ----- -- ----,206931.5,206929.59999990463,206444.751,206446.20000004768,206461.516,206944.864,,45,want
screen,html.Screen,2_1_0_1_46,2022-02-02T14:51:30.792Z,,,,,,,,,,,,,,,,,53,,,,,,,,,,,,,,356.4359999523149,,response,,,,99,,,,,,,Space,keypress(Space),,,,,,,,---- -- ----- -- ------ - ------- --- ----------<br>------------- ------ ------ ---- ---- ------- ----- -- ----<br>-------- ------- -- ---------- --- - --- ----- ----- ----<br>---- --- --- ----- --- ---- ---- ------- ----- ---- -------<br>--- --- -- ----- -- --- ---- to --- ---- -- ------ ------<br>--- ----- -- ----,207303.29999995232,207301.29999995232,206928.005,206931.89999985695,206944.864,207311.338,,46,to
screen,html.Screen,2_1_0_1_47,2022-02-02T14:51:31.331Z,,,,,,,,,,,,,,,,,53,,,,,,,,,,,,,,527.56199985696,,response,,,,99,,,,,,,Space,keypress(Space),,,,,,,,"---- -- ----- -- ------ - ------- --- ----------<br>------------- ------ ------ ---- ---- ------- ----- -- ----<br>-------- ------- -- ---------- --- - --- ----- ----- ----<br>---- --- --- ----- --- ---- ---- ------- ----- ---- -------<br>--- --- -- ----- -- --- ---- -- be, ---- -- ------ ------<br>--- ----- -- ----",207842.09999990463,207838.89999985695,207294.649,207303.89999985695,207311.338,207844.628,,47,"be,"
screen,html.Screen,2_1_0_1_48,2022-02-02T14:51:32.010Z,,,,,,,,,,,,,,,,,53,,,,,,,,,,,,,,675.872000000003,,response,,,,99,,,,,,,Space,keypress(Space),,,,,,,,---- -- ----- -- ------ - ------- --- ----------<br>------------- ------ ------ ---- ---- ------- ----- -- ----<br>-------- ------- -- ---------- --- - --- ----- ----- ----<br>---- --- --- ----- --- ---- ---- ------- ----- ---- -------<br>--- --- -- ----- -- --- ---- -- --- even -- ------ ------<br>--- ----- -- ----,208521.39999985695,208520.5,207828.231,207842.5,207844.628,208528.06,,48,even
screen,html.Screen,2_1_0_1_49,2022-02-02T14:51:32.477Z,,,,,,,,,,,,,,,,,53,,,,,,,,,,,,,,457.2399999523186,,response,,,,99,,,,,,,Space,keypress(Space),,,,,,,,---- -- ----- -- ------ - ------- --- ----------<br>------------- ------ ------ ---- ---- ------- ----- -- ----<br>-------- ------- -- ---------- --- - --- ----- ----- ----<br>---- --- --- ----- --- ---- ---- ------- ----- ---- -------<br>--- --- -- ----- -- --- ---- -- --- ---- if ------ ------<br>--- ----- -- ----,208987.70000004768,208985.29999995232,208511.487,208521.5,208528.06,208994.628,,49,if
screen,html.Screen,2_1_0_1_50,2022-02-02T14:51:33.006Z,,,,,,,,,,,,,,,,,53,,,,,,,,,,,,,,519.7719998569519,,response,,,,99,,,,,,,Space,keypress(Space),,,,,,,,---- -- ----- -- ------ - ------- --- ----------<br>------------- ------ ------ ---- ---- ------- ----- -- ----<br>-------- ------- -- ---------- --- - --- ----- ----- ----<br>---- --- --- ----- --- ---- ---- ------- ----- ---- -------<br>--- --- -- ----- -- --- ---- -- --- ---- -- that's ------<br>--- ----- -- ----,209517.70000004768,209514.39999985695,208978.008,208988.09999990463,208994.628,209530.122,,50,that's
screen,html.Screen,2_1_0_1_51,2022-02-02T14:51:33.490Z,,,,,,,,,,,,,,,,,53,,,,,,,,,,,,,,466.7779998569458,,response,,,,99,,,,,,,Space,keypress(Space),,,,,,,,---- -- ----- -- ------ - ------- --- ----------<br>------------- ------ ------ ---- ---- ------- ----- -- ----<br>-------- ------- -- ---------- --- - --- ----- ----- ----<br>---- --- --- ----- --- ---- ---- ------- ----- ---- -------<br>--- --- -- ----- -- --- ---- -- --- ---- -- ------ really<br>--- ----- -- ----,210000.89999985695,209996.89999985695,209511.264,209518,209530.122,210011.275,,51,really
screen,html.Screen,2_1_0_1_52,2022-02-02T14:51:33.904Z,,,,,,,,,,,,,,,,,53,,,,,,,,,,,,,,401.92500004768954,,response,,,,99,,,,,,,Space,keypress(Space),,,,,,,,---- -- ----- -- ------ - ------- --- ----------<br>------------- ------ ------ ---- ---- ------- ----- -- ----<br>-------- ------- -- ---------- --- - --- ----- ----- ----<br>---- --- --- ----- --- ---- ---- ------- ----- ---- -------<br>--- --- -- ----- -- --- ---- -- --- ---- -- ------ ------<br>not ----- -- ----,210415.5,210413.20000004768,209994.453,210000.89999985695,210011.275,210427.995,,52,not
screen,html.Screen,2_1_0_1_53,2022-02-02T14:51:34.322Z,,,,,,,,,,,,,,,,,53,,,,,,,,,,,,,,402.9049998569535,,response,,,,99,,,,,,,Space,keypress(Space),,,,,,,,---- -- ----- -- ------ - ------- --- ----------<br>------------- ------ ------ ---- ---- ------- ----- -- ----<br>-------- ------- -- ---------- --- - --- ----- ----- ----<br>---- --- --- ----- --- ---- ---- ------- ----- ---- -------<br>--- --- -- ----- -- --- ---- -- --- ---- -- ------ ------<br>--- close -- ----,210833.09999990463,210830.89999985695,210411.182,210415.89999985695,210427.995,210844.541,,53,close
screen,html.Screen,2_1_0_1_54,2022-02-02T14:51:34.704Z,,,,,,,,,,,,,,,,,53,,,,,,,,,,,,,,369.05899990463513,,response,,,,99,,,,,,,Space,keypress(Space),,,,,,,,---- -- ----- -- ------ - ------- --- ----------<br>------------- ------ ------ ---- ---- ------- ----- -- ----<br>-------- ------- -- ---------- --- - --- ----- ----- ----<br>---- --- --- ----- --- ---- ---- ------- ----- ---- -------<br>--- --- -- ----- -- --- ---- -- --- ---- -- ------ ------<br>--- ----- at ----,211215.5,211213.59999990463,210827.937,210833.59999990463,210844.541,211227.788,,54,at
screen,html.Screen,2_1_0_1_55,2022-02-02T14:51:36.095Z,,,,,,,,,,,,,,,,,53,,,,,,,,,,,,,,1376.4120000476833,,response,,,,99,,,,,,,Space,keypress(Space),,,,,,,,---- -- ----- -- ------ - ------- --- ----------<br>------------- ------ ------ ---- ---- ------- ----- -- ----<br>-------- ------- -- ---------- --- - --- ----- ----- ----<br>---- --- --- ----- --- ---- ---- ------- ----- ---- -------<br>--- --- -- ----- -- --- ---- -- --- ---- -- ------ ------<br>--- ----- -- all.,212606,212604.20000004768,211211.149,211215.79999995232,211227.788,212627.737,,55,all.
Item 99,flow.Loop,2_1_0_1,2022-02-02T14:51:36.096Z,,,,,,,,,,,,,,,,,,,,,,,,,,,,,,,36891.37300004769,,completion,,,,,C,,,,,,,,,,,silence,,,,,212607.20000004768,212604.20000004768,175662.96,175664.79999995232,175712.827,212627.737,,,
Question 1,html.Screen,2_1_0_2,2022-02-02T14:51:43.778Z,,,,,,,,,,,,,,,,,,,,,,,,,,,,true,FALSE,,7658.96300004769,,response,,,,99,C,,,,,,FALSE,click #choice-2,,,,silence,,,,,220289.29999995232,220286.70000004768,212594.667,212607.59999990463,212627.737,220310.734,,,
Question 2,html.Screen,2_1_0_3,2022-02-02T14:51:47.860Z,,,,,,,,,,,,,,,,,,,,,,,,,,,,true,TRUE,,4058.5659999523195,,response,,,,99,C,,,,,,TRUE,click #choice-1,,,,silence,,,,,224371.70000004768,224369.29999995232,220277.508,220289.79999995232,220310.734,224377.215,,,
Item 99,flow.Sequence,2_1_0,2022-02-02T14:51:47.861Z,,,,,,,,,,,,,,,,,,,,,,,,,,,,,,,58689.30699995233,,completion,,,,,,,,,,,,,,,,,,,,,224372.29999995232,224369.29999995232,165663.369,165671.29999995232,165679.993,224377.215,,,
Holding screen,html.Screen,2_1_1_0,2022-02-02T14:51:57.851Z,,,,,,,,,,,,,,,,,,,,,,,,,,,,,,,9999.453999999998,,timeout,,,,,,,,,,,,,,,,,,,,,234362.09999990463,234360.249,224360.979,224372.79999995232,224377.215,234376.669,,,
screen,html.Screen,2_1_1_1_0,2022-02-02T14:51:58.697Z,,,,,,,,,,,,,,,,,54,,,,,,,,,,,,,,827.3310000000056,,response,,,,100,,,,,,,Space,keypress(Space),,,,,,,,At --- ---- --- ------ ----- ------- ---- -- --- ------- --<br>------- ---------- ------ -- ----- -- ----- -- ---- ------<br>--- ----- --- --- ------ -------- ----- --- ------ ----- --<br>----- ----- ---------- --- --- ------ ------ ---- -- ------<br>------- --- ------ ----- --- ---- ------- -- ---- --- --<br>------- ------,235208.59999990463,235204,234360.249,234362.59999990463,234376.669,235210.005,,0,At
screen,html.Screen,2_1_1_1_1,2022-02-02T14:51:59.118Z,,,,,,,,,,,,,,,,,54,,,,,,,,,,,,,,418.49499999999534,,response,,,,100,,,,,,,Space,keypress(Space),,,,,,,,-- the ---- --- ------ ----- ------- ---- -- --- ------- --<br>------- ---------- ------ -- ----- -- ----- -- ---- ------<br>--- ----- --- --- ------ -------- ----- --- ------ ----- --<br>----- ----- ---------- --- --- ------ ------ ---- -- ------<br>------- --- ------ ----- --- ---- ------- -- ---- --- --<br>------- ------,235629.59999990463,235628.5,235193.264,235208.89999985695,235210.005,235643.383,,1,the
screen,html.Screen,2_1_1_1_2,2022-02-02T14:51:59.480Z,,,,,,,,,,,,,,,,,54,,,,,,,,,,,,,,345.3170000476821,,response,,,,100,,,,,,,Space,keypress(Space),,,,,,,,-- --- time --- ------ ----- ------- ---- -- --- ------- --<br>------- ---------- ------ -- ----- -- ----- -- ---- ------<br>--- ----- --- --- ------ -------- ----- --- ------ ----- --<br>----- ----- ---------- --- --- ------ ------ ---- -- ------<br>------- --- ------ ----- --- ---- ------- -- ---- --- --<br>------- ------,235990.89999985695,235988.70000004768,235626.767,235629.70000004768,235643.383,236025.253,,2,time
screen,html.Screen,2_1_1_1_3,2022-02-02T14:51:59.799Z,,,,,,,,,,,,,,,,,54,,,,,,,,,,,,,,281.5469999523193,,response,,,,100,,,,,,,Space,keypress(Space),,,,,,,,-- --- ---- the ------ ----- ------- ---- -- --- ------- --<br>------- ---------- ------ -- ----- -- ----- -- ---- ------<br>--- ----- --- --- ------ -------- ----- --- ------ ----- --<br>----- ----- ---------- --- --- ------ ------ ---- -- ------<br>------- --- ------ ----- --- ---- ------- -- ---- --- --<br>------- ------,236309.39999985695,236306.79999995232,235976.753,235991.29999995232,236025.253,236326.776,,3,the
screen,html.Screen,2_1_1_1_4,2022-02-02T14:52:00.242Z,,,,,,,,,,,,,,,,,54,,,,,,,,,,,,,,423.7239999999874,,response,,,,100,,,,,,,Space,keypress(Space),,,,,,,,-- --- ---- --- French ----- ------- ---- -- --- ------- --<br>------- ---------- ------ -- ----- -- ----- -- ---- ------<br>--- ----- --- --- ------ -------- ----- --- ------ ----- --<br>----- ----- ---------- --- --- ------ ------ ---- -- ------<br>------- --- ------ ----- --- ---- ------- -- ---- --- --<br>------- ------,236752.5,236750.5,236310.103,236309.70000004768,236326.776,236759.972,,4,French
screen,html.Screen,2_1_1_1_5,2022-02-02T14:52:01.187Z,,,,,,,,,,,,,,,,,54,,,,,,,,,,,,,,935.0279999999912,,response,,,,100,,,,,,,Space,keypress(Space),,,,,,,,-- --- ---- --- ------ crown ------- ---- -- --- ------- --<br>------- ---------- ------ -- ----- -- ----- -- ---- ------<br>--- ----- --- --- ------ -------- ----- --- ------ ----- --<br>----- ----- ---------- --- --- ------ ------ ---- -- ------<br>------- --- ------ ----- --- ---- ------- -- ---- --- --<br>------- ------,237697.5,237695,236743.349,236752.79999995232,236759.972,237709.89,,5,crown
screen,html.Screen,2_1_1_1_6,2022-02-02T14:52:01.842Z,,,,,,,,,,,,,,,,,54,,,,,,,,,,,,,,640.9099999523023,,response,,,,100,,,,,,,Space,keypress(Space),,,,,,,,-- --- ---- --- ------ ----- secured ---- -- --- ------- --<br>------- ---------- ------ -- ----- -- ----- -- ---- ------<br>--- ----- --- --- ------ -------- ----- --- ------ ----- --<br>----- ----- ---------- --- --- ------ ------ ---- -- ------<br>------- --- ------ ----- --- ---- ------- -- ---- --- --<br>------- ------,238352.70000004768,238350.79999995232,237693.312,237698,237709.89,238359.871,,6,secured
screen,html.Screen,2_1_1_1_7,2022-02-02T14:52:02.186Z,,,,,,,,,,,,,,,,,54,,,,,,,,,,,,,,334.32900004767,,response,,,,100,,,,,,,Space,keypress(Space),,,,,,,,-- --- ---- --- ------ ----- ------- much -- --- ------- --<br>------- ---------- ------ -- ----- -- ----- -- ---- ------<br>--- ----- --- --- ------ -------- ----- --- ------ ----- --<br>----- ----- ---------- --- --- ------ ------ ---- -- ------<br>------- --- ------ ----- --- ---- ------- -- ---- --- --<br>------- ------,238696.79999995232,238694.20000004768,238343.185,238353,238359.871,238709.852,,7,much
screen,html.Screen,2_1_1_1_8,2022-02-02T14:52:02.520Z,,,,,,,,,,,,,,,,,54,,,,,,,,,,,,,,318.54799985693535,,response,,,,100,,,,,,,Space,keypress(Space),,,,,,,,-- --- ---- --- ------ ----- ------- ---- of --- ------- --<br>------- ---------- ------ -- ----- -- ----- -- ---- ------<br>--- ----- --- --- ------ -------- ----- --- ------ ----- --<br>----- ----- ---------- --- --- ------ ------ ---- -- ------<br>------- --- ------ ----- --- ---- ------- -- ---- --- --<br>------- ------,239030.5,239028.39999985695,238693.207,238699.70000004768,238709.852,239043.104,,8,of
screen,html.Screen,2_1_1_1_9,2022-02-02T14:52:02.820Z,,,,,,,,,,,,,,,,,54,,,,,,,,,,,,,,285.59600004769163,,response,,,,100,,,,,,,Space,keypress(Space),,,,,,,,-- --- ---- --- ------ ----- ------- ---- -- its ------- --<br>------- ---------- ------ -- ----- -- ----- -- ---- ------<br>--- ----- --- --- ------ -------- ----- --- ------ ----- --<br>----- ----- ---------- --- --- ------ ------ ---- -- ------<br>------- --- ------ ----- --- ---- ------- -- ---- --- --<br>------- ------,239330.89999985695,239328.70000004768,239026.609,239031.09999990463,239043.104,239343.166,,9,its
screen,html.Screen,2_1_1_1_10,2022-02-02T14:52:03.431Z,,,,,,,,,,,,,,,,,54,,,,,,,,,,,,,,595.2339998569514,,response,,,,100,,,,,,,Space,keypress(Space),,,,,,,,-- --- ---- --- ------ ----- ------- ---- -- --- revenue --<br>------- ---------- ------ -- ----- -- ----- -- ---- ------<br>--- ----- --- --- ------ -------- ----- --- ------ ----- --<br>----- ----- ---------- --- --- ------ ------ ---- -- ------<br>------- --- ------ ----- --- ---- ------- -- ---- --- --<br>------- ------,239941.89999985695,239938.39999985695,239326.451,239331.39999985695,239343.166,239959.85,,10,revenue
screen,html.Screen,2_1_1_1_11,2022-02-02T14:52:03.795Z,,,,,,,,,,,,,,,,,54,,,,,,,,,,,,,,343.94999995231046,,response,,,,100,,,,,,,Space,keypress(Space),,,,,,,,-- --- ---- --- ------ ----- ------- ---- -- --- ------- by<br>------- ---------- ------ -- ----- -- ----- -- ---- ------<br>--- ----- --- --- ------ -------- ----- --- ------ ----- --<br>----- ----- ---------- --- --- ------ ------ ---- -- ------<br>------- --- ------ ----- --- ---- ------- -- ---- --- --<br>------- ------,240305.79999995232,240303.79999995232,239943.21,239942.39999985695,239959.85,240309.784,,11,by
screen,html.Screen,2_1_1_1_12,2022-02-02T14:52:04.159Z,,,,,,,,,,,,,,,,,54,,,,,,,,,,,,,,357.61599985693465,,response,,,,100,,,,,,,Space,keypress(Space),,,,,,,,-- --- ---- --- ------ ----- ------- ---- -- --- ------- --<br>issuing ---------- ------ -- ----- -- ----- -- ---- ------<br>--- ----- --- --- ------ -------- ----- --- ------ ----- --<br>----- ----- ---------- --- --- ------ ------ ---- -- ------<br>------- --- ------ ----- --- ---- ------- -- ---- --- --<br>------- ------,240669.29999995232,240667.39999985695,240293.156,240306.09999990463,240309.784,240676.424,,12,issuing
screen,html.Screen,2_1_1_1_13,2022-02-02T14:52:04.509Z,,,,,,,,,,,,,,,,,54,,,,,,,,,,,,,,340.9759998569498,,response,,,,100,,,,,,,Space,keypress(Space),,,,,,,,-- --- ---- --- ------ ----- ------- ---- -- --- ------- --<br>------- government ------ -- ----- -- ----- -- ---- ------<br>--- ----- --- --- ------ -------- ----- --- ------ ----- --<br>----- ----- ---------- --- --- ------ ------ ---- -- ------<br>------- --- ------ ----- --- ---- ------- -- ---- --- --<br>------- ------,241019.39999985695,241017.39999985695,240659.776,240669.70000004768,240676.424,241026.381,,13,government
screen,html.Screen,2_1_1_1_14,2022-02-02T14:52:06.893Z,,,,,,,,,,,,,,,,,54,,,,,,,,,,,,,,2375.3190000476898,,response,,,,100,,,,,,,Space,keypress(Space),,,,,,,,-- --- ---- --- ------ ----- ------- ---- -- --- ------- --<br>------- ---------- bonds. -- ----- -- ----- -- ---- ------<br>--- ----- --- --- ------ -------- ----- --- ------ ----- --<br>----- ----- ---------- --- --- ------ ------ ---- -- ------<br>------- --- ------ ----- --- ---- ------- -- ---- --- --<br>------- ------,243403.59999990463,243401.70000004768,241009.841,241020.20000004768,241026.381,243409.628,,14,bonds.
screen,html.Screen,2_1_1_1_15,2022-02-02T14:52:07.281Z,,,,,,,,,,,,,,,,,54,,,,,,,,,,,,,,379.1719999523193,,response,,,,100,,,,,,,Space,keypress(Space),,,,,,,,-- --- ---- --- ------ ----- ------- ---- -- --- ------- --<br>------- ---------- ------ In ----- -- ----- -- ---- ------<br>--- ----- --- --- ------ -------- ----- --- ------ ----- --<br>----- ----- ---------- --- --- ------ ------ ---- -- ------<br>------- --- ------ ----- --- ---- ------- -- ---- --- --<br>------- ------,243791.5,243788.79999995232,243392.83,243404,243409.628,243809.859,,15,In
screen,html.Screen,2_1_1_1_16,2022-02-02T14:52:08.367Z,,,,,,,,,,,,,,,,,54,,,,,,,,,,,,,,1065.9409999523195,,response,,,,100,,,,,,,Space,keypress(Space),,,,,,,,"-- --- ---- --- ------ ----- ------- ---- -- --- ------- --<br>------- ---------- ------ -- 1727, -- ----- -- ---- ------<br>--- ----- --- --- ------ -------- ----- --- ------ ----- --<br>----- ----- ---------- --- --- ------ ------ ---- -- ------<br>------- --- ------ ----- --- ---- ------- -- ---- --- --<br>------- ------",244878.09999990463,244875.79999995232,243792.887,243792,243809.859,244892.958,,16,"1727,"
screen,html.Screen,2_1_1_1_17,2022-02-02T14:52:09.204Z,,,,,,,,,,,,,,,,,54,,,,,,,,,,,,,,819.9419998569356,,response,,,,100,,,,,,,Space,keypress(Space),,,,,,,,-- --- ---- --- ------ ----- ------- ---- -- --- ------- --<br>------- ---------- ------ -- ----- in ----- -- ---- ------<br>--- ----- --- --- ------ -------- ----- --- ------ ----- --<br>----- ----- ---------- --- --- ------ ------ ---- -- ------<br>------- --- ------ ----- --- ---- ------- -- ---- --- --<br>------- ------,245715,245712.89999985695,244876.265,244878.5,244892.958,245726.18,,17,in
screen,html.Screen,2_1_1_1_18,2022-02-02T14:52:09.768Z,,,,,,,,,,,,,,,,,54,,,,,,,,,,,,,,550.5200000476907,,response,,,,100,,,,,,,Space,keypress(Space),,,,,,,,-- --- ---- --- ------ ----- ------- ---- -- --- ------- --<br>------- ---------- ------ -- ----- -- order -- ---- ------<br>--- ----- --- --- ------ -------- ----- --- ------ ----- --<br>----- ----- ---------- --- --- ------ ------ ---- -- ------<br>------- --- ------ ----- --- ---- ------- -- ---- --- --<br>------- ------,246278.5,246276.70000004768,245709.596,245715.39999985695,245726.18,246292.791,,18,order
screen,html.Screen,2_1_1_1_19,2022-02-02T14:52:10.143Z,,,,,,,,,,,,,,,,,54,,,,,,,,,,,,,,359.00899995231885,,response,,,,100,,,,,,,Space,keypress(Space),,,,,,,,-- --- ---- --- ------ ----- ------- ---- -- --- ------- --<br>------- ---------- ------ -- ----- -- ----- to ---- ------<br>--- ----- --- --- ------ -------- ----- --- ------ ----- --<br>----- ----- ---------- --- --- ------ ------ ---- -- ------<br>------- --- ------ ----- --- ---- ------- -- ---- --- --<br>------- ------,246654.09999990463,246651.79999995232,246276.225,246278.89999985695,246292.791,246659.531,,19,to
screen,html.Screen,2_1_1_1_20,2022-02-02T14:52:10.576Z,,,,,,,,,,,,,,,,,54,,,,,,,,,,,,,,424.4690000000119,,response,,,,100,,,,,,,Space,keypress(Space),,,,,,,,-- --- ---- --- ------ ----- ------- ---- -- --- ------- --<br>------- ---------- ------ -- ----- -- ----- -- save ------<br>--- ----- --- --- ------ -------- ----- --- ------ ----- --<br>----- ----- ---------- --- --- ------ ------ ---- -- ------<br>------- --- ------ ----- --- ---- ------- -- ---- --- --<br>------- ------,247086.39999985695,247084,246642.963,246654.39999985695,246659.531,247093.299,,20,save
screen,html.Screen,2_1_1_1_21,2022-02-02T14:52:11.257Z,,,,,,,,,,,,,,,,,54,,,,,,,,,,,,,,672.8009999046335,,response,,,,100,,,,,,,Space,keypress(Space),,,,,,,,"-- --- ---- --- ------ ----- ------- ---- -- --- ------- --<br>------- ---------- ------ -- ----- -- ----- -- ---- money,<br>--- ----- --- --- ------ -------- ----- --- ------ ----- --<br>----- ----- ---------- --- --- ------ ------ ---- -- ------<br>------- --- ------ ----- --- ---- ------- -- ---- --- --<br>------- ------",247768,247766.09999990463,247076.204,247086.79999995232,247093.299,247776.524,,21,"money,"
screen,html.Screen,2_1_1_1_22,2022-02-02T14:52:11.737Z,,,,,,,,,,,,,,,,,54,,,,,,,,,,,,,,468.87599985694396,,response,,,,100,,,,,,,Space,keypress(Space),,,,,,,,-- --- ---- --- ------ ----- ------- ---- -- --- ------- --<br>------- ---------- ------ -- ----- -- ----- -- ---- ------<br>the ----- --- --- ------ -------- ----- --- ------ ----- --<br>----- ----- ---------- --- --- ------ ------ ---- -- ------<br>------- --- ------ ----- --- ---- ------- -- ---- --- --<br>------- ------,248247.39999985695,248245.39999985695,247759.467,247768.29999995232,247776.524,248259.391,,22,the
screen,html.Screen,2_1_1_1_23,2022-02-02T14:52:12.275Z,,,,,,,,,,,,,,,,,54,,,,,,,,,,,,,,524.5089998569456,,response,,,,100,,,,,,,Space,keypress(Space),,,,,,,,-- --- ---- --- ------ ----- ------- ---- -- --- ------- --<br>------- ---------- ------ -- ----- -- ----- -- ---- ------<br>--- state --- --- ------ -------- ----- --- ------ ----- --<br>----- ----- ---------- --- --- ------ ------ ---- -- ------<br>------- --- ------ ----- --- ---- ------- -- ---- --- --<br>------- ------,248786,248783.89999985695,248242.815,248247.79999995232,248259.391,248792.709,,23,state
screen,html.Screen,2_1_1_1_24,2022-02-02T14:52:12.681Z,,,,,,,,,,,,,,,,,54,,,,,,,,,,,,,,397.0909999523137,,response,,,,100,,,,,,,Space,keypress(Space),,,,,,,,-- --- ---- --- ------ ----- ------- ---- -- --- ------- --<br>------- ---------- ------ -- ----- -- ----- -- ---- ------<br>--- ----- cut --- ------ -------- ----- --- ------ ----- --<br>----- ----- ---------- --- --- ------ ------ ---- -- ------<br>------- --- ------ ----- --- ---- ------- -- ---- --- --<br>------- ------,249191.70000004768,249189.79999995232,248775.965,248786.5,248792.709,249209.437,,24,cut
screen,html.Screen,2_1_1_1_25,2022-02-02T14:52:12.969Z,,,,,,,,,,,,,,,,,54,,,,,,,,,,,,,,268.1629999046272,,response,,,,100,,,,,,,Space,keypress(Space),,,,,,,,-- --- ---- --- ------ ----- ------- ---- -- --- ------- --<br>------- ---------- ------ -- ----- -- ----- -- ---- ------<br>--- ----- --- the ------ -------- ----- --- ------ ----- --<br>----- ----- ---------- --- --- ------ ------ ---- -- ------<br>------- --- ------ ----- --- ---- ------- -- ---- --- --<br>------- ------,249480.09999990463,249477.59999990463,249192.756,249192,249209.437,249493.948,,25,the
screen,html.Screen,2_1_1_1_26,2022-02-02T14:52:13.450Z,,,,,,,,,,,,,,,,,54,,,,,,,,,,,,,,464.3519999523123,,response,,,,100,,,,,,,Space,keypress(Space),,,,,,,,-- --- ---- --- ------ ----- ------- ---- -- --- ------- --<br>------- ---------- ------ -- ----- -- ----- -- ---- ------<br>--- ----- --- --- bonds' -------- ----- --- ------ ----- --<br>----- ----- ---------- --- --- ------ ------ ---- -- ------<br>------- --- ------ ----- --- ---- ------- -- ---- --- --<br>------- ------,249960.39999985695,249958.29999995232,249476.014,249480.5,249493.948,249976.298,,26,bonds'
screen,html.Screen,2_1_1_1_27,2022-02-02T14:52:13.858Z,,,,,,,,,,,,,,,,,54,,,,,,,,,,,,,,390.7019999999902,,response,,,,100,,,,,,,Space,keypress(Space),,,,,,,,-- --- ---- --- ------ ----- ------- ---- -- --- ------- --<br>------- ---------- ------ -- ----- -- ----- -- ---- ------<br>--- ----- --- --- ------ interest ----- --- ------ ----- --<br>----- ----- ---------- --- --- ------ ------ ---- -- ------<br>------- --- ------ ----- --- ---- ------- -- ---- --- --<br>------- ------,250368.70000004768,250367,249959.406,249960.79999995232,249976.298,250377.354,,27,interest
screen,html.Screen,2_1_1_1_28,2022-02-02T14:52:14.330Z,,,,,,,,,,,,,,,,,54,,,,,,,,,,,,,,461.04599985695677,,response,,,,100,,,,,,,Space,keypress(Space),,,,,,,,-- --- ---- --- ------ ----- ------- ---- -- --- ------- --<br>------- ---------- ------ -- ----- -- ----- -- ---- ------<br>--- ----- --- --- ------ -------- rate. --- ------ ----- --<br>----- ----- ---------- --- --- ------ ------ ---- -- ------<br>------- --- ------ ----- --- ---- ------- -- ---- --- --<br>------- ------,250840.59999990463,250838.39999985695,250359.25,250369.20000004768,250377.354,250864.311,,28,rate.
screen,html.Screen,2_1_1_1_29,2022-02-02T14:52:14.820Z,,,,,,,,,,,,,,,,,54,,,,,,,,,,,,,,464.2889999046456,,response,,,,100,,,,,,,Space,keypress(Space),,,,,,,,-- --- ---- --- ------ ----- ------- ---- -- --- ------- --<br>------- ---------- ------ -- ----- -- ----- -- ---- ------<br>--- ----- --- --- ------ -------- ----- The ------ ----- --<br>----- ----- ---------- --- --- ------ ------ ---- -- ------<br>------- --- ------ ----- --- ---- ------- -- ---- --- --<br>------- ------,251331.09999990463,251328.59999990463,250826.17,250841,250864.311,251344.24,,29,The
screen,html.Screen,2_1_1_1_30,2022-02-02T14:52:15.213Z,,,,,,,,,,,,,,,,,54,,,,,,,,,,,,,,377.46000004769303,,response,,,,100,,,,,,,Space,keypress(Space),,,,,,,,-- --- ---- --- ------ ----- ------- ---- -- --- ------- --<br>------- ---------- ------ -- ----- -- ----- -- ---- ------<br>--- ----- --- --- ------ -------- ----- --- market ----- --<br>----- ----- ---------- --- --- ------ ------ ---- -- ------<br>------- --- ------ ----- --- ---- ------- -- ---- --- --<br>------- ------,251723.79999995232,251721.70000004768,251325.897,251331.59999990463,251344.24,251725.881,,30,market
screen,html.Screen,2_1_1_1_31,2022-02-02T14:52:15.602Z,,,,,,,,,,,,,,,,,54,,,,,,,,,,,,,,384.7189999046386,,response,,,,100,,,,,,,Space,keypress(Space),,,,,,,,-- --- ---- --- ------ ----- ------- ---- -- --- ------- --<br>------- ---------- ------ -- ----- -- ----- -- ---- ------<br>--- ----- --- --- ------ -------- ----- --- ------ value --<br>----- ----- ---------- --- --- ------ ------ ---- -- ------<br>------- --- ------ ----- --- ---- ------- -- ---- --- --<br>------- ------,252113,252110.59999990463,251709.325,251724.20000004768,251725.881,252126.22,,31,value
screen,html.Screen,2_1_1_1_32,2022-02-02T14:52:16.020Z,,,,,,,,,,,,,,,,,54,,,,,,,,,,,,,,401.98000004768255,,response,,,,100,,,,,,,Space,keypress(Space),,,,,,,,-- --- ---- --- ------ ----- ------- ---- -- --- ------- --<br>------- ---------- ------ -- ----- -- ----- -- ---- ------<br>--- ----- --- --- ------ -------- ----- --- ------ ----- of<br>----- ----- ---------- --- --- ------ ------ ---- -- ------<br>------- --- ------ ----- --- ---- ------- -- ---- --- --<br>------- ------,252530.70000004768,252528.20000004768,252109.18,252113.59999990463,252126.22,252542.552,,32,of
screen,html.Screen,2_1_1_1_33,2022-02-02T14:52:16.450Z,,,,,,,,,,,,,,,,,54,,,,,,,,,,,,,,415.5479999046365,,response,,,,100,,,,,,,Space,keypress(Space),,,,,,,,-- --- ---- --- ------ ----- ------- ---- -- --- ------- --<br>------- ---------- ------ -- ----- -- ----- -- ---- ------<br>--- ----- --- --- ------ -------- ----- --- ------ ----- --<br>these ----- ---------- --- --- ------ ------ ---- -- ------<br>------- --- ------ ----- --- ---- ------- -- ---- --- --<br>------- ------,252960.29999995232,252958.09999990463,252525.781,252531.09999990463,252542.552,252975.907,,33,these
screen,html.Screen,2_1_1_1_34,2022-02-02T14:52:16.902Z,,,,,,,,,,,,,,,,,54,,,,,,,,,,,,,,435.39299995230976,,response,,,,100,,,,,,,Space,keypress(Space),,,,,,,,-- --- ---- --- ------ ----- ------- ---- -- --- ------- --<br>------- ---------- ------ -- ----- -- ----- -- ---- ------<br>--- ----- --- --- ------ -------- ----- --- ------ ----- --<br>----- bonds ---------- --- --- ------ ------ ---- -- ------<br>------- --- ------ ----- --- ---- ------- -- ---- --- --<br>------- ------,253413.20000004768,253411.29999995232,252959.27,252960.70000004768,252975.907,253425.953,,34,bonds
screen,html.Screen,2_1_1_1_35,2022-02-02T14:52:19.058Z,,,,,,,,,,,,,,,,,54,,,,,,,,,,,,,,2140.3469999523077,,response,,,,100,,,,,,,Space,keypress(Space),,,,,,,,"-- --- ---- --- ------ ----- ------- ---- -- --- ------- --<br>------- ---------- ------ -- ----- -- ----- -- ---- ------<br>--- ----- --- --- ------ -------- ----- --- ------ ----- --<br>----- ----- plummeted, --- --- ------ ------ ---- -- ------<br>------- --- ------ ----- --- ---- ------- -- ---- --- --<br>------- ------",255568.5,255566.29999995232,253409.15,253413.59999990463,253425.953,255575.689,,35,"plummeted,"
screen,html.Screen,2_1_1_1_36,2022-02-02T14:52:19.533Z,,,,,,,,,,,,,,,,,54,,,,,,,,,,,,,,464.31099999998696,,response,,,,100,,,,,,,Space,keypress(Space),,,,,,,,-- --- ---- --- ------ ----- ------- ---- -- --- ------- --<br>------- ---------- ------ -- ----- -- ----- -- ---- ------<br>--- ----- --- --- ------ -------- ----- --- ------ ----- --<br>----- ----- ---------- and --- ------ ------ ---- -- ------<br>------- --- ------ ----- --- ---- ------- -- ---- --- --<br>------- ------,256044,256040,255559.242,255568.79999995232,255575.689,256059.114,,36,and
screen,html.Screen,2_1_1_1_37,2022-02-02T14:52:19.867Z,,,,,,,,,,,,,,,,,54,,,,,,,,,,,,,,316.3859999999986,,response,,,,100,,,,,,,Space,keypress(Space),,,,,,,,-- --- ---- --- ------ ----- ------- ---- -- --- ------- --<br>------- ---------- ------ -- ----- -- ----- -- ---- ------<br>--- ----- --- --- ------ -------- ----- --- ------ ----- --<br>----- ----- ---------- --- the ------ ------ ---- -- ------<br>------- --- ------ ----- --- ---- ------- -- ---- --- --<br>------- ------,256378.20000004768,256375.5,256042.49,256044.39999985695,256059.114,256392.506,,37,the
screen,html.Screen,2_1_1_1_38,2022-02-02T14:52:20.249Z,,,,,,,,,,,,,,,,,54,,,,,,,,,,,,,,364.3939998569549,,response,,,,100,,,,,,,Space,keypress(Space),,,,,,,,-- --- ---- --- ------ ----- ------- ---- -- --- ------- --<br>------- ---------- ------ -- ----- -- ----- -- ---- ------<br>--- ----- --- --- ------ -------- ----- --- ------ ----- --<br>----- ----- ---------- --- --- market ------ ---- -- ------<br>------- --- ------ ----- --- ---- ------- -- ---- --- --<br>------- ------,256759.59999990463,256756.89999985695,256375.732,256378.59999990463,256392.506,256775.818,,38,market
screen,html.Screen,2_1_1_1_39,2022-02-02T14:52:20.617Z,,,,,,,,,,,,,,,,,54,,,,,,,,,,,,,,349.58199985694955,,response,,,,100,,,,,,,Space,keypress(Space),,,,,,,,-- --- ---- --- ------ ----- ------- ---- -- --- ------- --<br>------- ---------- ------ -- ----- -- ----- -- ---- ------<br>--- ----- --- --- ------ -------- ----- --- ------ ----- --<br>----- ----- ---------- --- --- ------ became ---- -- ------<br>------- --- ------ ----- --- ---- ------- -- ---- --- --<br>------- ------,257127.39999985695,257125.39999985695,256758.989,256760.20000004768,256775.818,257142.443,,39,became
screen,html.Screen,2_1_1_1_40,2022-02-02T14:52:21.006Z,,,,,,,,,,,,,,,,,54,,,,,,,,,,,,,,372.45699985694955,,response,,,,100,,,,,,,Space,keypress(Space),,,,,,,,-- --- ---- --- ------ ----- ------- ---- -- --- ------- --<br>------- ---------- ------ -- ----- -- ----- -- ---- ------<br>--- ----- --- --- ------ -------- ----- --- ------ ----- --<br>----- ----- ---------- --- --- ------ ------ wary -- ------<br>------- --- ------ ----- --- ---- ------- -- ---- --- --<br>------- ------,257516.59999990463,257514.89999985695,257125.593,257127.79999995232,257142.443,257526.634,,40,wary
screen,html.Screen,2_1_1_1_41,2022-02-02T14:52:21.340Z,,,,,,,,,,,,,,,,,54,,,,,,,,,,,,,,321.66599995232536,,response,,,,100,,,,,,,Space,keypress(Space),,,,,,,,-- --- ---- --- ------ ----- ------- ---- -- --- ------- --<br>------- ---------- ------ -- ----- -- ----- -- ---- ------<br>--- ----- --- --- ------ -------- ----- --- ------ ----- --<br>----- ----- ---------- --- --- ------ ------ ---- of ------<br>------- --- ------ ----- --- ---- ------- -- ---- --- --<br>------- ------,257850.29999995232,257848.29999995232,257509.068,257516.89999985695,257526.634,257859.202,,41,of
screen,html.Screen,2_1_1_1_42,2022-02-02T14:52:21.717Z,,,,,,,,,,,,,,,,,54,,,,,,,,,,,,,,366.89799990464235,,response,,,,100,,,,,,,Space,keypress(Space),,,,,,,,-- --- ---- --- ------ ----- ------- ---- -- --- ------- --<br>------- ---------- ------ -- ----- -- ----- -- ---- ------<br>--- ----- --- --- ------ -------- ----- --- ------ ----- --<br>----- ----- ---------- --- --- ------ ------ ---- -- French<br>------- --- ------ ----- --- ---- ------- -- ---- --- --<br>------- ------,258228.20000004768,258226.09999990463,257842.235,257850.70000004768,257859.202,258242.524,,42,French
screen,html.Screen,2_1_1_1_43,2022-02-02T14:52:22.271Z,,,,,,,,,,,,,,,,,54,,,,,,,,,,,,,,536.9759999999951,,response,,,,100,,,,,,,Space,keypress(Space),,,,,,,,-- --- ---- --- ------ ----- ------- ---- -- --- ------- --<br>------- ---------- ------ -- ----- -- ----- -- ---- ------<br>--- ----- --- --- ------ -------- ----- --- ------ ----- --<br>----- ----- ---------- --- --- ------ ------ ---- -- ------<br>credit. --- ------ ----- --- ---- ------- -- ---- --- --<br>------- ------,258781.39999985695,258779.5,258225.545,258228.79999995232,258242.524,258792.274,,43,credit.
screen,html.Screen,2_1_1_1_44,2022-02-02T14:52:22.640Z,,,,,,,,,,,,,,,,,54,,,,,,,,,,,,,,356.7259999999951,,response,,,,100,,,,,,,Space,keypress(Space),,,,,,,,-- --- ---- --- ------ ----- ------- ---- -- --- ------- --<br>------- ---------- ------ -- ----- -- ----- -- ---- ------<br>--- ----- --- --- ------ -------- ----- --- ------ ----- --<br>----- ----- ---------- --- --- ------ ------ ---- -- ------<br>------- The ------ ----- --- ---- ------- -- ---- --- --<br>------- ------,259150.79999995232,259149,258775.524,258781.79999995232,258792.274,259159.686,,44,The
screen,html.Screen,2_1_1_1_45,2022-02-02T14:52:22.990Z,,,,,,,,,,,,,,,,,54,,,,,,,,,,,,,,339.01400004769675,,response,,,,100,,,,,,,Space,keypress(Space),,,,,,,,-- --- ---- --- ------ ----- ------- ---- -- --- ------- --<br>------- ---------- ------ -- ----- -- ----- -- ---- ------<br>--- ----- --- --- ------ -------- ----- --- ------ ----- --<br>----- ----- ---------- --- --- ------ ------ ---- -- ------<br>------- --- French ----- --- ---- ------- -- ---- --- --<br>------- ------,259500.89999985695,259498.70000004768,259142.322,259151.09999990463,259159.686,259508.884,,45,French
screen,html.Screen,2_1_1_1_46,2022-02-02T14:52:23.387Z,,,,,,,,,,,,,,,,,54,,,,,,,,,,,,,,387.1160000000091,,response,,,,100,,,,,,,Space,keypress(Space),,,,,,,,-- --- ---- --- ------ ----- ------- ---- -- --- ------- --<br>------- ---------- ------ -- ----- -- ----- -- ---- ------<br>--- ----- --- --- ------ -------- ----- --- ------ ----- --<br>----- ----- ---------- --- --- ------ ------ ---- -- ------<br>------- --- ------ state --- ---- ------- -- ---- --- --<br>------- ------,259897.79999995232,259896,259492.203,259501.20000004768,259508.884,259910.421,,46,state
screen,html.Screen,2_1_1_1_47,2022-02-02T14:52:23.820Z,,,,,,,,,,,,,,,,,54,,,,,,,,,,,,,,417.8789999523142,,response,,,,100,,,,,,,Space,keypress(Space),,,,,,,,-- --- ---- --- ------ ----- ------- ---- -- --- ------- --<br>------- ---------- ------ -- ----- -- ----- -- ---- ------<br>--- ----- --- --- ------ -------- ----- --- ------ ----- --<br>----- ----- ---------- --- --- ------ ------ ---- -- ------<br>------- --- ------ ----- was ---- ------- -- ---- --- --<br>------- ------,260330.29999995232,260328.29999995232,259892.21,259898.20000004768,259910.421,260342.249,,47,was
screen,html.Screen,2_1_1_1_48,2022-02-02T14:52:24.204Z,,,,,,,,,,,,,,,,,54,,,,,,,,,,,,,,371.0509999523056,,response,,,,100,,,,,,,Space,keypress(Space),,,,,,,,-- --- ---- --- ------ ----- ------- ---- -- --- ------- --<br>------- ---------- ------ -- ----- -- ----- -- ---- ------<br>--- ----- --- --- ------ -------- ----- --- ------ ----- --<br>----- ----- ---------- --- --- ------ ------ ---- -- ------<br>------- --- ------ ----- --- left ------- -- ---- --- --<br>------- ------,260715.09999990463,260713.29999995232,260325.49,260330.70000004768,260342.249,260725.463,,48,left
screen,html.Screen,2_1_1_1_49,2022-02-02T14:52:24.634Z,,,,,,,,,,,,,,,,,54,,,,,,,,,,,,,,417.93699985696,,response,,,,100,,,,,,,Space,keypress(Space),,,,,,,,-- --- ---- --- ------ ----- ------- ---- -- --- ------- --<br>------- ---------- ------ -- ----- -- ----- -- ---- ------<br>--- ----- --- --- ------ -------- ----- --- ------ ----- --<br>----- ----- ---------- --- --- ------ ------ ---- -- ------<br>------- --- ------ ----- --- ---- without -- ---- --- --<br>------- ------,261145.20000004768,261143.39999985695,260708.954,260715.39999985695,260725.463,261158.831,,49,without
screen,html.Screen,2_1_1_1_50,2022-02-02T14:52:24.981Z,,,,,,,,,,,,,,,,,54,,,,,,,,,,,,,,330.6689999999944,,response,,,,100,,,,,,,Space,keypress(Space),,,,,,,,-- --- ---- --- ------ ----- ------- ---- -- --- ------- --<br>------- ---------- ------ -- ----- -- ----- -- ---- ------<br>--- ----- --- --- ------ -------- ----- --- ------ ----- --<br>----- ----- ---------- --- --- ------ ------ ---- -- ------<br>------- --- ------ ----- --- ---- ------- an ---- --- --<br>------- ------,261491.59999990463,261489.5,261142.189,261145.59999990463,261158.831,261508.843,,50,an
screen,html.Screen,2_1_1_1_51,2022-02-02T14:52:25.435Z,,,,,,,,,,,,,,,,,54,,,,,,,,,,,,,,434.4569999523228,,response,,,,100,,,,,,,Space,keypress(Space),,,,,,,,-- --- ---- --- ------ ----- ------- ---- -- --- ------- --<br>------- ---------- ------ -- ----- -- ----- -- ---- ------<br>--- ----- --- --- ------ -------- ----- --- ------ ----- --<br>----- ----- ---------- --- --- ------ ------ ---- -- ------<br>------- --- ------ ----- --- ---- ------- -- easy --- --<br>------- ------,261945.39999985695,261943.29999995232,261492.095,261492.29999995232,261508.843,261958.684,,51,easy
screen,html.Screen,2_1_1_1_52,2022-02-02T14:52:25.784Z,,,,,,,,,,,,,,,,,54,,,,,,,,,,,,,,333.3159999999916,,response,,,,100,,,,,,,Space,keypress(Space),,,,,,,,-- --- ---- --- ------ ----- ------- ---- -- --- ------- --<br>------- ---------- ------ -- ----- -- ----- -- ---- ------<br>--- ----- --- --- ------ -------- ----- --- ------ ----- --<br>----- ----- ---------- --- --- ------ ------ ---- -- ------<br>------- --- ------ ----- --- ---- ------- -- ---- way --<br>------- ------,262294.7999999523,262292,261942.278,261945.89999985695,261958.684,262309.122,,52,way
screen,html.Screen,2_1_1_1_53,2022-02-02T14:52:26.176Z,,,,,,,,,,,,,,,,,54,,,,,,,,,,,,,,375.27799985697493,,response,,,,100,,,,,,,Space,keypress(Space),,,,,,,,-- --- ---- --- ------ ----- ------- ---- -- --- ------- --<br>------- ---------- ------ -- ----- -- ----- -- ---- ------<br>--- ----- --- --- ------ -------- ----- --- ------ ----- --<br>----- ----- ---------- --- --- ------ ------ ---- -- ------<br>------- --- ------ ----- --- ---- ------- -- ---- --- of<br>------- ------,262686.89999985695,262684.39999985695,262292.16,262295.2999999523,262309.122,262692.036,,53,of
screen,html.Screen,2_1_1_1_54,2022-02-02T14:52:26.560Z,,,,,,,,,,,,,,,,,54,,,,,,,,,,,,,,376.4639999999781,,response,,,,100,,,,,,,Space,keypress(Space),,,,,,,,-- --- ---- --- ------ ----- ------- ---- -- --- ------- --<br>------- ---------- ------ -- ----- -- ----- -- ---- ------<br>--- ----- --- --- ------ -------- ----- --- ------ ----- --<br>----- ----- ---------- --- --- ------ ------ ---- -- ------<br>------- --- ------ ----- --- ---- ------- -- ---- --- --<br>raising ------,263070.89999985695,263068.5,262675.505,262687.39999985695,262692.036,263075.494,,54,raising
screen,html.Screen,2_1_1_1_55,2022-02-02T14:52:27.374Z,,,,,,,,,,,,,,,,,54,,,,,,,,,,,,,,807.8059999523102,,response,,,,100,,,,,,,Space,keypress(Space),,,,,,,,-- --- ---- --- ------ ----- ------- ---- -- --- ------- --<br>------- ---------- ------ -- ----- -- ----- -- ---- ------<br>--- ----- --- --- ------ -------- ----- --- ------ ----- --<br>----- ----- ---------- --- --- ------ ------ ---- -- ------<br>------- --- ------ ----- --- ---- ------- -- ---- --- --<br>------- money.,263885.2000000477,263883.2999999523,263058.84,263071.2000000477,263075.494,263892,,55,money.
Item 100,flow.Loop,2_1_1_1,2022-02-02T14:52:27.376Z,,,,,,,,,,,,,,,,,,,,,,,,,,,,,,,29506.630999952322,,completion,,,,,C,,,,,,,,,,,silence,,,,,263886.2000000477,263883.2999999523,234360.249,234362.5,234376.669,263892,,,
Question 1,html.Screen,2_1_1_2,2022-02-02T14:52:29.601Z,,,,,,,,,,,,,,,,,,,,,,,,,,,,true,TRUE,,2216.2000000476837,,response,,,,100,C,,,,,,TRUE,click #choice-1,,,,silence,,,,,266111.7999999523,266108.2000000477,263875.267,263886.7999999523,263892,266126.571,,,
Question 2,html.Screen,2_1_1_3,2022-02-02T14:52:31.502Z,,,,,,,,,,,,,,,,,,,,,,,,,,,,true,FALSE,,1880.3289998569526,,response,,,,100,C,,,,,,FALSE,click #choice-2,,,,silence,,,,,268012.5,268006.89999985695,266108.643,266112.59999990463,266126.571,268025.743,,,
Item 100,flow.Sequence,2_1_1,2022-02-02T14:52:31.502Z,,,,,,,,,,,,,,,,,,,,,,,,,,,,,,,43629.68499985695,,completion,,,,,,,,,,,,,,,,,,,,,268013.2000000477,268006.89999985695,224360.979,224372.70000004768,224377.215,268025.743,,,
End of Practice,html.Page,2_1_2,2022-02-02T14:52:37.020Z,,,,,,,,,,,,,,,,,,,,,,,,,,,,,,,5504.256999999983,,form submission,,,,,,,,,,,,,,,,,,,,,273530.59999990463,273530,268008.562,268013.5,268025.743,273542.655,,,
Practice,flow.Sequence,2_1,2022-02-02T14:52:37.021Z,,,,,,,,,,,,,,,,,,,,,,,,,,,,,,,107850.00700000001,,completion,,,,,,,,,,,,,,,,,,,,,273531.2999999523,273530,165663.369,165671.09999990463,165679.993,273542.655,,,
Trap_instruction,html.Page,2_2_0,2022-02-02T14:52:41.753Z,,,,,,,,,,,,,,,,,,,,,,,,,,,,,,,4720.045000047656,,form submission,,,,,,,,,,,,,,,,,,,,,278263.7999999523,278262.7000000477,273524.954,273531.7000000477,273542.655,278324.573,,,
trap_trial,html.Screen,2_2_1,2022-02-02T14:52:46.091Z,,,,,,,,,,,,,,,,,,,,,,,,,,,,true,1,,4275.927000000025,,response,,,,,,,,,,,1,click #choice-1,,,,,,,,,282601.7999999523,282600.5,278258.054,278266.09999990463,278324.573,282608.516,,,
end of trap trial,html.Page,2_2_2,2022-02-02T14:52:48.568Z,,,,,,,,,,,,,,,,,,,,,,,,,,,,,,,2469.3839998569456,,form submission,,,,,,,,,,,,,,,,,,,,,285078.89999985695,285077.89999985695,282591.191,282602,282608.516,285095.69,,,
Trap 1,flow.Sequence,2_2,2022-02-02T14:52:48.569Z,,,,,,,,,,,,,,,,,,,,,,,,,,,,,,,11535.244999856921,,completion,,,,,,,,,,,,,,,,,,,,,285079.5,285077.89999985695,273524.954,273531.59999990463,273542.655,285095.69,,,
Standby,html.Page,2_3_0,2022-02-02T14:52:56.567Z,,,,,,,,,,,,,,,,,,,,,,,,,,,,,,,7994.862000000023,,timeout,,,,,,,,,,,,,,,,,,,,,293077.39999985695,293074.05,285057.673,285080,285095.69,293090.552,,,
Holding screen,html.Screen,2_3_1_0_0,2022-02-02T14:53:03.564Z,,,,,,,,,,,,,,,,,,,,,,,,,,,,,,,6999.635999999999,,timeout,,,,,,,,,,,,,,,,,,,,,300075.2999999523,300073.695,293074.05,293078,293090.552,300090.188,,,
screen,html.Screen,2_3_1_0_1_0,2022-02-02T14:53:05.632Z,,,,,,,,,,,,,,,,,48,,,,,,,,,,,,,,2049.01200004766,,response,,,,10,C,,,,,,Space,keypress(Space),,,,instrumental,,,,As -- --- ------ ------- --------- ----------- --------<br>--------- -------- --- ------- -- ------- ---- -- ------<br>-- --- -------- -------- ---------- ---- ---- ---- ------<br>-- --------- -- ---- -- --- -- --- ------- -- - -----<br>---------- -- -- -- ---- ----- -- ------ -- --- ------<br>-------,302142.7999999523,302139.2000000477,300073.695,300075.7999999523,300090.188,302156.766,,0,As
screen,html.Screen,2_3_1_0_1_1,2022-02-02T14:53:06.239Z,,,,,,,,,,,,,,,,,48,,,,,,,,,,,,,,590.6339998569456,,response,,,,10,C,,,,,,Space,keypress(Space),,,,instrumental,,,,-- in --- ------ ------- --------- ----------- --------<br>--------- -------- --- ------- -- ------- ---- -- ------<br>-- --- -------- -------- ---------- ---- ---- ---- ------<br>-- --------- -- ---- -- --- -- --- ------- -- - -----<br>---------- -- -- -- ---- ----- -- ------ -- --- ------<br>-------,302749.7000000477,302747.39999985695,302140.138,302143,302156.766,302756.801,,1,in
screen,html.Screen,2_3_1_0_1_2,2022-02-02T14:53:06.632Z,,,,,,,,,,,,,,,,,48,,,,,,,,,,,,,,384.2989999046549,,response,,,,10,C,,,,,,Space,keypress(Space),,,,instrumental,,,,-- -- the ------ ------- --------- ----------- --------<br>--------- -------- --- ------- -- ------- ---- -- ------<br>-- --- -------- -------- ---------- ---- ---- ---- ------<br>-- --------- -- ---- -- --- -- --- ------- -- - -----<br>---------- -- -- -- ---- ----- -- ------ -- --- ------<br>-------,303143.09999990463,303141.09999990463,302740.045,302750.09999990463,302756.801,303157.206,,2,the
screen,html.Screen,2_3_1_0_1_3,2022-02-02T14:53:07.271Z,,,,,,,,,,,,,,,,,48,,,,,,,,,,,,,,622.5939999523107,,response,,,,10,C,,,,,,Space,keypress(Space),,,,instrumental,,,,-- -- --- United ------- --------- ----------- --------<br>--------- -------- --- ------- -- ------- ---- -- ------<br>-- --- -------- -------- ---------- ---- ---- ---- ------<br>-- --------- -- ---- -- --- -- --- ------- -- - -----<br>---------- -- -- -- ---- ----- -- ------ -- --- ------<br>-------,303781.7000000477,303779.7999999523,303140.2,303143.5,303157.206,303790.084,,3,United
screen,html.Screen,2_3_1_0_1_4,2022-02-02T14:53:08.235Z,,,,,,,,,,,,,,,,,48,,,,,,,,,,,,,,953.7159999523428,,response,,,,10,C,,,,,,Space,keypress(Space),,,,instrumental,,,,"-- -- --- ------ States, --------- ----------- --------<br>--------- -------- --- ------- -- ------- ---- -- ------<br>-- --- -------- -------- ---------- ---- ---- ---- ------<br>-- --------- -- ---- -- --- -- --- ------- -- - -----<br>---------- -- -- -- ---- ----- -- ------ -- --- ------<br>-------",304745.7000000477,304743.7999999523,303773.447,303782,303790.084,304756.712,,4,"States,"
screen,html.Screen,2_3_1_0_1_5,2022-02-02T14:53:09.026Z,,,,,,,,,,,,,,,,,48,,,,,,,,,,,,,,777.4880000476842,,response,,,,10,C,,,,,,Space,keypress(Space),,,,instrumental,,,,-- -- --- ------ ------- Colombian ----------- --------<br>--------- -------- --- ------- -- ------- ---- -- ------<br>-- --- -------- -------- ---------- ---- ---- ---- ------<br>-- --------- -- ---- -- --- -- --- ------- -- - -----<br>---------- -- -- -- ---- ----- -- ------ -- --- ------<br>-------,305537.09999990463,305534.2000000477,304740.111,304746,304756.712,305576.072,,5,Colombian
screen,html.Screen,2_3_1_0_1_6,2022-02-02T14:53:09.687Z,,,,,,,,,,,,,,,,,48,,,,,,,,,,,,,,620.2279999523307,,response,,,,10,C,,,,,,Space,keypress(Space),,,,instrumental,,,,-- -- --- ------ ------- --------- legislation --------<br>--------- -------- --- ------- -- ------- ---- -- ------<br>-- --- -------- -------- ---------- ---- ---- ---- ------<br>-- --------- -- ---- -- --- -- --- ------- -- - -----<br>---------- -- -- -- ---- ----- -- ------ -- --- ------<br>-------,306198.09999990463,306196.2999999523,305523.283,305538,305576.072,306207.456,,6,legislation
screen,html.Screen,2_3_1_0_1_7,2022-02-02T14:53:10.190Z,,,,,,,,,,,,,,,,,48,,,,,,,,,,,,,,491.8439999523107,,response,,,,10,C,,,,,,Space,keypress(Space),,,,instrumental,,,,-- -- --- ------ ------- --------- ----------- requires<br>--------- -------- --- ------- -- ------- ---- -- ------<br>-- --- -------- -------- ---------- ---- ---- ---- ------<br>-- --------- -- ---- -- --- -- --- ------- -- - -----<br>---------- -- -- -- ---- ----- -- ------ -- --- ------<br>-------,306701,306699.2999999523,306190.5,306198.39999985695,306207.456,306707.499,,7,requires
screen,html.Screen,2_3_1_0_1_8,2022-02-02T14:53:10.990Z,,,,,,,,,,,,,,,,,48,,,,,,,,,,,,,,791.5009999999893,,response,,,,10,C,,,,,,Space,keypress(Space),,,,instrumental,,,,-- -- --- ------ ------- --------- ----------- --------<br>travelers -------- --- ------- -- ------- ---- -- ------<br>-- --- -------- -------- ---------- ---- ---- ---- ------<br>-- --------- -- ---- -- --- -- --- ------- -- - -----<br>---------- -- -- -- ---- ----- -- ------ -- --- ------<br>-------,307501.2999999523,307499,306690.044,306701.39999985695,306707.499,307506.536,,8,travelers
screen,html.Screen,2_3_1_0_1_9,2022-02-02T14:53:11.514Z,,,,,,,,,,,,,,,,,48,,,,,,,,,,,,,,515.1640000476618,,response,,,,10,C,,,,,,Space,keypress(Space),,,,instrumental,,,,-- -- --- ------ ------- --------- ----------- --------<br>--------- entering --- ------- -- ------- ---- -- ------<br>-- --- -------- -------- ---------- ---- ---- ---- ------<br>-- --------- -- ---- -- --- -- --- ------- -- - -----<br>---------- -- -- -- ---- ----- -- ------ -- --- ------<br>-------,308025.39999985695,308021.7000000477,307489.971,307501.7000000477,307506.536,308039.876,,9,entering
screen,html.Screen,2_3_1_0_1_10,2022-02-02T14:53:11.856Z,,,,,,,,,,,,,,,,,48,,,,,,,,,,,,,,324.7239999046433,,response,,,,10,C,,,,,,Space,keypress(Space),,,,instrumental,,,,-- -- --- ------ ------- --------- ----------- --------<br>--------- -------- the ------- -- ------- ---- -- ------<br>-- --- -------- -------- ---------- ---- ---- ---- ------<br>-- --------- -- ---- -- --- -- --- ------- -- - -----<br>---------- -- -- -- ---- ----- -- ------ -- --- ------<br>-------,308366.5,308364.59999990463,308023.148,308025.89999985695,308039.876,308373.198,,10,the
screen,html.Screen,2_3_1_0_1_11,2022-02-02T14:53:12.336Z,,,,,,,,,,,,,,,,,48,,,,,,,,,,,,,,470.80200000002515,,response,,,,10,C,,,,,,Space,keypress(Space),,,,instrumental,,,,-- -- --- ------ ------- --------- ----------- --------<br>--------- -------- --- country -- ------- ---- -- ------<br>-- --- -------- -------- ---------- ---- ---- ---- ------<br>-- --------- -- ---- -- --- -- --- ------- -- - -----<br>---------- -- -- -- ---- ----- -- ------ -- --- ------<br>-------,308846.39999985695,308844,308356.632,308367,308373.198,308856.517,,11,country
screen,html.Screen,2_3_1_0_1_12,2022-02-02T14:53:12.718Z,,,,,,,,,,,,,,,,,48,,,,,,,,,,,,,,368.8829998569563,,response,,,,10,C,,,,,,Space,keypress(Space),,,,instrumental,,,,-- -- --- ------ ------- --------- ----------- --------<br>--------- -------- --- ------- to ------- ---- -- ------<br>-- --- -------- -------- ---------- ---- ---- ---- ------<br>-- --------- -- ---- -- --- -- --- ------- -- - -----<br>---------- -- -- -- ---- ----- -- ------ -- --- ------<br>-------,309229.2000000477,309225.39999985695,308839.798,308847.2000000477,308856.517,309240.016,,12,to
screen,html.Screen,2_3_1_0_1_13,2022-02-02T14:53:13.390Z,,,,,,,,,,,,,,,,,48,,,,,,,,,,,,,,657.783999952313,,response,,,,10,C,,,,,,Space,keypress(Space),,,,instrumental,,,,-- -- --- ------ ------- --------- ----------- --------<br>--------- -------- --- ------- -- declare ---- -- ------<br>-- --- -------- -------- ---------- ---- ---- ---- ------<br>-- --------- -- ---- -- --- -- --- ------- -- - -----<br>---------- -- -- -- ---- ----- -- ------ -- --- ------<br>-------,309900.7999999523,309897.7999999523,309223.243,309229.2999999523,309240.016,309906.587,,13,declare
screen,html.Screen,2_3_1_0_1_14,2022-02-02T14:53:13.785Z,,,,,,,,,,,,,,,,,48,,,,,,,,,,,,,,387.71299995231675,,response,,,,10,C,,,,,,Space,keypress(Space),,,,instrumental,,,,-- -- --- ------ ------- --------- ----------- --------<br>--------- -------- --- ------- -- ------- cash -- ------<br>-- --- -------- -------- ---------- ---- ---- ---- ------<br>-- --------- -- ---- -- --- -- --- ------- -- - -----<br>---------- -- -- -- ---- ----- -- ------ -- --- ------<br>-------,310296.2000000477,310294.2999999523,309889.743,309901.2999999523,309906.587,310306.471,,14,cash
screen,html.Screen,2_3_1_0_1_15,2022-02-02T14:53:14.184Z,,,,,,,,,,,,,,,,,48,,,,,,,,,,,,,,387.02899999998044,,response,,,,10,C,,,,,,Space,keypress(Space),,,,instrumental,,,,-- -- --- ------ ------- --------- ----------- --------<br>--------- -------- --- ------- -- ------- ---- in ------<br>-- --- -------- -------- ---------- ---- ---- ---- ------<br>-- --------- -- ---- -- --- -- --- ------- -- - -----<br>---------- -- -- -- ---- ----- -- ------ -- --- ------<br>-------,310695.2999999523,310693.5,310289.868,310296.59999990463,310306.471,310706.389,,15,in
screen,html.Screen,2_3_1_0_1_16,2022-02-02T14:53:15.097Z,,,,,,,,,,,,,,,,,48,,,,,,,,,,,,,,898.7109999046079,,response,,,,10,C,,,,,,Space,keypress(Space),,,,instrumental,,,,-- -- --- ------ ------- --------- ----------- --------<br>--------- -------- --- ------- -- ------- ---- -- excess<br>-- --- -------- -------- ---------- ---- ---- ---- ------<br>-- --------- -- ---- -- --- -- --- ------- -- - -----<br>---------- -- -- -- ---- ----- -- ------ -- --- ------<br>-------,311607.59999990463,311605.09999990463,310689.885,310695.7000000477,310706.389,311623.207,,16,excess
screen,html.Screen,2_3_1_0_1_17,2022-02-02T14:53:15.480Z,,,,,,,,,,,,,,,,,48,,,,,,,,,,,,,,365.192999856954,,response,,,,10,C,,,,,,Space,keypress(Space),,,,instrumental,,,,-- -- --- ------ ------- --------- ----------- --------<br>--------- -------- --- ------- -- ------- ---- -- ------<br>of --- -------- -------- ---------- ---- ---- ---- ------<br>-- --------- -- ---- -- --- -- --- ------- -- - -----<br>---------- -- -- -- ---- ----- -- ------ -- --- ------<br>-------,311991.2000000477,311988.39999985695,311606.353,311608,311623.207,312007.492,,17,of
screen,html.Screen,2_3_1_0_1_18,2022-02-02T14:53:15.957Z,,,,,,,,,,,,,,,,,48,,,,,,,,,,,,,,458.3079999522888,,response,,,,10,C,,,,,,Space,keypress(Space),,,,instrumental,,,,-- -- --- ------ ------- --------- ----------- --------<br>--------- -------- --- ------- -- ------- ---- -- ------<br>-- ten -------- -------- ---------- ---- ---- ---- ------<br>-- --------- -- ---- -- --- -- --- ------- -- - -----<br>---------- -- -- -- ---- ----- -- ------ -- --- ------<br>-------,312468.2999999523,312465.7999999523,311989.816,311991.59999990463,312007.492,312472.987,,18,ten
screen,html.Screen,2_3_1_0_1_19,2022-02-02T14:53:16.426Z,,,,,,,,,,,,,,,,,48,,,,,,,,,,,,,,461.61299990460975,,response,,,,10,C,,,,,,Space,keypress(Space),,,,instrumental,,,,-- -- --- ------ ------- --------- ----------- --------<br>--------- -------- --- ------- -- ------- ---- -- ------<br>-- --- thousand -------- ---------- ---- ---- ---- ------<br>-- --------- -- ---- -- --- -- --- ------- -- - -----<br>---------- -- -- -- ---- ----- -- ------ -- --- ------<br>-------,312936.5,312934.59999990463,312456.375,312468.7999999523,312472.987,312939.624,,19,thousand
screen,html.Screen,2_3_1_0_1_20,2022-02-02T14:53:17.872Z,,,,,,,,,,,,,,,,,48,,,,,,,,,,,,,,1441.576000047673,,response,,,,10,C,,,,,,Space,keypress(Space),,,,instrumental,,,,-- -- --- ------ ------- --------- ----------- --------<br>--------- -------- --- ------- -- ------- ---- -- ------<br>-- --- -------- dollars. ---------- ---- ---- ---- ------<br>-- --------- -- ---- -- --- -- --- ------- -- - -----<br>---------- -- -- -- ---- ----- -- ------ -- --- ------<br>-------,314383,314381.2000000477,312923.133,312936.89999985695,312939.624,314389.581,,20,dollars.
screen,html.Screen,2_3_1_0_1_21,2022-02-02T14:53:18.491Z,,,,,,,,,,,,,,,,,48,,,,,,,,,,,,,,610.4189999999944,,response,,,,10,C,,,,,,Space,keypress(Space),,,,instrumental,,,,-- -- --- ------ ------- --------- ----------- --------<br>--------- -------- --- ------- -- ------- ---- -- ------<br>-- --- -------- -------- Concealing ---- ---- ---- ------<br>-- --------- -- ---- -- --- -- --- ------- -- - -----<br>---------- -- -- -- ---- ----- -- ------ -- --- ------<br>-------,315001.7000000477,315000,314372.871,314383.5,314389.581,315006.196,,21,Concealing
screen,html.Screen,2_3_1_0_1_22,2022-02-02T14:53:18.955Z,,,,,,,,,,,,,,,,,48,,,,,,,,,,,,,,457.50400004768744,,response,,,,10,C,,,,,,Space,keypress(Space),,,,instrumental,,,,-- -- --- ------ ------- --------- ----------- --------<br>--------- -------- --- ------- -- ------- ---- -- ------<br>-- --- -------- -------- ---------- more ---- ---- ------<br>-- --------- -- ---- -- --- -- --- ------- -- - -----<br>---------- -- -- -- ---- ----- -- ------ -- --- ------<br>-------,315465.59999990463,315463.7000000477,314989.621,315002,315006.196,315472.897,,22,more
screen,html.Screen,2_3_1_0_1_23,2022-02-02T14:53:19.415Z,,,,,,,,,,,,,,,,,48,,,,,,,,,,,,,,450.9029999523191,,response,,,,10,C,,,,,,Space,keypress(Space),,,,instrumental,,,,-- -- --- ------ ------- --------- ----------- --------<br>--------- -------- --- ------- -- ------- ---- -- ------<br>-- --- -------- -------- ---------- ---- than ---- ------<br>-- --------- -- ---- -- --- -- --- ------- -- - -----<br>---------- -- -- -- ---- ----- -- ------ -- --- ------<br>-------,315925.59999990463,315923.7999999523,315456.208,315466.09999990463,315472.897,315939.695,,23,than
screen,html.Screen,2_3_1_0_1_24,2022-02-02T14:53:19.841Z,,,,,,,,,,,,,,,,,48,,,,,,,,,,,,,,410.1049999523093,,response,,,,10,C,,,,,,Space,keypress(Space),,,,instrumental,,,,-- -- --- ------ ------- --------- ----------- --------<br>--------- -------- --- ------- -- ------- ---- -- ------<br>-- --- -------- -------- ---------- ---- ---- that ------<br>-- --------- -- ---- -- --- -- --- ------- -- - -----<br>---------- -- -- -- ---- ----- -- ------ -- --- ------<br>-------,316351.5,316349.7999999523,315922.814,315926,315939.695,316356.633,,24,that
screen,html.Screen,2_3_1_0_1_25,2022-02-02T14:53:20.268Z,,,,,,,,,,,,,,,,,48,,,,,,,,,,,,,,418.96699990466004,,response,,,,10,C,,,,,,Space,keypress(Space),,,,instrumental,,,,-- -- --- ------ ------- --------- ----------- --------<br>--------- -------- --- ------- -- ------- ---- -- ------<br>-- --- -------- -------- ---------- ---- ---- ---- amount<br>-- --------- -- ---- -- --- -- --- ------- -- - -----<br>---------- -- -- -- ---- ----- -- ------ -- --- ------<br>-------,316778.7999999523,316775.59999990463,316339.508,316352,316356.633,316789.418,,25,amount
screen,html.Screen,2_3_1_0_1_26,2022-02-02T14:53:20.696Z,,,,,,,,,,,,,,,,,48,,,,,,,,,,,,,,414.38199995231116,,response,,,,10,C,,,,,,Space,keypress(Space),,,,instrumental,,,,-- -- --- ------ ------- --------- ----------- --------<br>--------- -------- --- ------- -- ------- ---- -- ------<br>-- --- -------- -------- ---------- ---- ---- ---- ------<br>to --------- -- ---- -- --- -- --- ------- -- - -----<br>---------- -- -- -- ---- ----- -- ------ -- --- ------<br>-------,317207.09999990463,317203.7999999523,316772.97,316779.2999999523,316789.418,317222.795,,26,to
screen,html.Screen,2_3_1_0_1_27,2022-02-02T14:53:21.321Z,,,,,,,,,,,,,,,,,48,,,,,,,,,,,,,,606.8049999046489,,response,,,,10,C,,,,,,Space,keypress(Space),,,,instrumental,,,,-- -- --- ------ ------- --------- ----------- --------<br>--------- -------- --- ------- -- ------- ---- -- ------<br>-- --- -------- -------- ---------- ---- ---- ---- ------<br>-- transport -- ---- -- --- -- --- ------- -- - -----<br>---------- -- -- -- ---- ----- -- ------ -- --- ------<br>-------,317832,317829.59999990463,317206.925,317207.59999990463,317222.795,317839.502,,27,transport
screen,html.Screen,2_3_1_0_1_28,2022-02-02T14:53:21.817Z,,,,,,,,,,,,,,,,,48,,,,,,,,,,,,,,485.9980000000214,,response,,,,10,C,,,,,,Space,keypress(Space),,,,instrumental,,,,-- -- --- ------ ------- --------- ----------- --------<br>--------- -------- --- ------- -- ------- ---- -- ------<br>-- --- -------- -------- ---------- ---- ---- ---- ------<br>-- --------- it ---- -- --- -- --- ------- -- - -----<br>---------- -- -- -- ---- ----- -- ------ -- --- ------<br>-------,318327.5,318325.5,317823.063,317832.39999985695,317839.502,318339.388,,28,it
screen,html.Screen,2_3_1_0_1_29,2022-02-02T14:53:22.292Z,,,,,,,,,,,,,,,,,48,,,,,,,,,,,,,,461.1120000000228,,response,,,,10,C,,,,,,Space,keypress(Space),,,,instrumental,,,,-- -- --- ------ ------- --------- ----------- --------<br>--------- -------- --- ------- -- ------- ---- -- ------<br>-- --- -------- -------- ---------- ---- ---- ---- ------<br>-- --------- -- into -- --- -- --- ------- -- - -----<br>---------- -- -- -- ---- ----- -- ------ -- --- ------<br>-------,318802.39999985695,318800.5,318322.811,318328,318339.388,318822.798,,29,into
screen,html.Screen,2_3_1_0_1_30,2022-02-02T14:53:22.857Z,,,,,,,,,,,,,,,,,48,,,,,,,,,,,,,,543.5019999523065,,response,,,,10,C,,,,,,Space,keypress(Space),,,,instrumental,,,,-- -- --- ------ ------- --------- ----------- --------<br>--------- -------- --- ------- -- ------- ---- -- ------<br>-- --- -------- -------- ---------- ---- ---- ---- ------<br>-- --------- -- ---- or --- -- --- ------- -- - -----<br>---------- -- -- -- ---- ----- -- ------ -- --- ------<br>-------,319367.89999985695,319366.2999999523,318791.31,318805.59999990463,318822.798,319372.649,,30,or
screen,html.Screen,2_3_1_0_1_31,2022-02-02T14:53:23.391Z,,,,,,,,,,,,,,,,,48,,,,,,,,,,,,,,527.2509998569731,,response,,,,10,C,,,,,,Space,keypress(Space),,,,instrumental,,,,-- -- --- ------ ------- --------- ----------- --------<br>--------- -------- --- ------- -- ------- ---- -- ------<br>-- --- -------- -------- ---------- ---- ---- ---- ------<br>-- --------- -- ---- -- out -- --- ------- -- - -----<br>---------- -- -- -- ---- ----- -- ------ -- --- ------<br>-------,319902.2000000477,319899.89999985695,319355.994,319368.2000000477,319372.649,319905.997,,31,out
screen,html.Screen,2_3_1_0_1_32,2022-02-02T14:53:23.725Z,,,,,,,,,,,,,,,,,48,,,,,,,,,,,,,,328.80299995234236,,response,,,,10,C,,,,,,Space,keypress(Space),,,,instrumental,,,,-- -- --- ------ ------- --------- ----------- --------<br>--------- -------- --- ------- -- ------- ---- -- ------<br>-- --- -------- -------- ---------- ---- ---- ---- ------<br>-- --------- -- ---- -- --- of --- ------- -- - -----<br>---------- -- -- -- ---- ----- -- ------ -- --- ------<br>-------,320235.7999999523,320234.7999999523,319889.269,319902.7000000477,319905.997,320239.266,,32,of
screen,html.Screen,2_3_1_0_1_33,2022-02-02T14:53:24.072Z,,,,,,,,,,,,,,,,,48,,,,,,,,,,,,,,341.8339999046293,,response,,,,10,C,,,,,,Space,keypress(Space),,,,instrumental,,,,-- -- --- ------ ------- --------- ----------- --------<br>--------- -------- --- ------- -- ------- ---- -- ------<br>-- --- -------- -------- ---------- ---- ---- ---- ------<br>-- --------- -- ---- -- --- -- the ------- -- - -----<br>---------- -- -- -- ---- ----- -- ------ -- --- ------<br>-------,320582.59999990463,320581.09999990463,320222.777,320236.2000000477,320239.266,320589.28,,33,the
screen,html.Screen,2_3_1_0_1_34,2022-02-02T14:53:24.616Z,,,,,,,,,,,,,,,,,48,,,,,,,,,,,,,,536.2199999999721,,response,,,,10,C,,,,,,Space,keypress(Space),,,,instrumental,,,,-- -- --- ------ ------- --------- ----------- --------<br>--------- -------- --- ------- -- ------- ---- -- ------<br>-- --- -------- -------- ---------- ---- ---- ---- ------<br>-- --------- -- ---- -- --- -- --- country -- - -----<br>---------- -- -- -- ---- ----- -- ------ -- --- ------<br>-------,321127.2999999523,321125.5,320572.592,320582.89999985695,320589.28,321140.844,,34,country
screen,html.Screen,2_3_1_0_1_35,2022-02-02T14:53:25.016Z,,,,,,,,,,,,,,,,,48,,,,,,,,,,,,,,384.0559998569661,,response,,,,10,C,,,,,,Space,keypress(Space),,,,instrumental,,,,-- -- --- ------ ------- --------- ----------- --------<br>--------- -------- --- ------- -- ------- ---- -- ------<br>-- --- -------- -------- ---------- ---- ---- ---- ------<br>-- --------- -- ---- -- --- -- --- ------- is - -----<br>---------- -- -- -- ---- ----- -- ------ -- --- ------<br>-------,321526.59999990463,321524.89999985695,321123.145,321127.7000000477,321140.844,321539.256,,35,is
screen,html.Screen,2_3_1_0_1_36,2022-02-02T14:53:25.368Z,,,,,,,,,,,,,,,,,48,,,,,,,,,,,,,,337.3439999046386,,response,,,,10,C,,,,,,Space,keypress(Space),,,,instrumental,,,,-- -- --- ------ ------- --------- ----------- --------<br>--------- -------- --- ------- -- ------- ---- -- ------<br>-- --- -------- -------- ---------- ---- ---- ---- ------<br>-- --------- -- ---- -- --- -- --- ------- -- a -----<br>---------- -- -- -- ---- ----- -- ------ -- --- ------<br>-------,321879,321876.59999990463,321522.569,321527.2999999523,321539.256,321891.045,,36,a
screen,html.Screen,2_3_1_0_1_37,2022-02-02T14:53:25.790Z,,,,,,,,,,,,,,,,,48,,,,,,,,,,,,,,407.4550000000163,,response,,,,10,C,,,,,,Space,keypress(Space),,,,instrumental,,,,-- -- --- ------ ------- --------- ----------- --------<br>--------- -------- --- ------- -- ------- ---- -- ------<br>-- --- -------- -------- ---------- ---- ---- ---- ------<br>-- --------- -- ---- -- --- -- --- ------- -- - crime<br>---------- -- -- -- ---- ----- -- ------ -- --- ------<br>-------,322300.39999985695,322298.5,321872.521,321879.39999985695,321891.045,322305.857,,37,crime
screen,html.Screen,2_3_1_0_1_38,2022-02-02T14:53:26.432Z,,,,,,,,,,,,,,,,,48,,,,,,,,,,,,,,633.7429999046144,,response,,,,10,C,,,,,,Space,keypress(Space),,,,instrumental,,,,-- -- --- ------ ------- --------- ----------- --------<br>--------- -------- --- ------- -- ------- ---- -- ------<br>-- --- -------- -------- ---------- ---- ---- ---- ------<br>-- --------- -- ---- -- --- -- --- ------- -- - -----<br>punishable -- -- -- ---- ----- -- ------ -- --- ------<br>-------,322942.59999990463,322939.59999990463,322289.308,322300.89999985695,322305.857,322955.929,,38,punishable
screen,html.Screen,2_3_1_0_1_39,2022-02-02T14:53:26.793Z,,,,,,,,,,,,,,,,,48,,,,,,,,,,,,,,345.77100004768,,response,,,,10,C,,,,,,Space,keypress(Space),,,,instrumental,,,,-- -- --- ------ ------- --------- ----------- --------<br>--------- -------- --- ------- -- ------- ---- -- ------<br>-- --- -------- -------- ---------- ---- ---- ---- ------<br>-- --------- -- ---- -- --- -- --- ------- -- - -----<br>---------- by -- -- ---- ----- -- ------ -- --- ------<br>-------,323303.7999999523,323301.7000000477,322939.202,322943.09999990463,322955.929,323325.929,,39,by
screen,html.Screen,2_3_1_0_1_40,2022-02-02T14:53:27.185Z,,,,,,,,,,,,,,,,,48,,,,,,,,,,,,,,367.87099995231256,,response,,,,10,C,,,,,,Space,keypress(Space),,,,instrumental,,,,-- -- --- ------ ------- --------- ----------- --------<br>--------- -------- --- ------- -- ------- ---- -- ------<br>-- --- -------- -------- ---------- ---- ---- ---- ------<br>-- --------- -- ---- -- --- -- --- ------- -- - -----<br>---------- -- up -- ---- ----- -- ------ -- --- ------<br>-------,323695.7000000477,323693.7999999523,323289.246,323304.09999990463,323325.929,323705.785,,40,up
screen,html.Screen,2_3_1_0_1_41,2022-02-02T14:53:27.471Z,,,,,,,,,,,,,,,,,48,,,,,,,,,,,,,,274.61499985697446,,response,,,,10,C,,,,,,Space,keypress(Space),,,,instrumental,,,,-- -- --- ------ ------- --------- ----------- --------<br>--------- -------- --- ------- -- ------- ---- -- ------<br>-- --- -------- -------- ---------- ---- ---- ---- ------<br>-- --------- -- ---- -- --- -- --- ------- -- - -----<br>---------- -- -- to ---- ----- -- ------ -- --- ------<br>-------,323982.09999990463,323980.39999985695,323689.269,323696,323705.785,323989.1,,41,to
screen,html.Screen,2_3_1_0_1_42,2022-02-02T14:53:27.884Z,,,,,,,,,,,,,,,,,48,,,,,,,,,,,,,,404.29999985697214,,response,,,,10,C,,,,,,Space,keypress(Space),,,,instrumental,,,,-- -- --- ------ ------- --------- ----------- --------<br>--------- -------- --- ------- -- ------- ---- -- ------<br>-- --- -------- -------- ---------- ---- ---- ---- ------<br>-- --------- -- ---- -- --- -- --- ------- -- - -----<br>---------- -- -- -- five ----- -- ------ -- --- ------<br>-------,324395.39999985695,324393.39999985695,323972.429,323982.59999990463,323989.1,324405.774,,42,five
