sender,sender_type,sender_id,timestamp,meta,,Blues,Classical,Country,Dance,Electronic,Folk,Gospel,Hip-Hop,Jazz,Latin,Musical/Film,New-age,Pop,Prolific_id,Provo_ID,R&B,Rap,Reggae,Religious,Rock,Soul,Swing,Traditional,age,artist_name,correct,correctResponse,distraction,duration,education,ended_on,familiarity,gender,headphone_check_performance,item,list,music_frequency,offensiveness,pleasantness,position_correct,preference,response,response_action,snippet_file,song_name,song_rating,sound,stimulus_1,stimulus_2,stimulus_3,text,time_commit,time_end,time_render,time_run,time_show,time_switch,url,word,word_ID
Prolific ID,html.Form,0,2022-02-01T12:02:03.214Z,"{""labjs_version"":""20.2.2"",""labjs_build"":{""flavor"":""production"",""commit"":""a25486e0c714a0ae2ce03ff94b7bb6896854dcfa""},""location"":""https://run.pavlovia.org/mvasilev/prolific2_music_a/"",""userAgent"":""Mozilla/5.0 (Windows NT 10.0; Win64; x64) AppleWebKit/537.36 (KHTML, like Gecko) Chrome/97.0.4692.99 Safari/537.36 Edg/97.0.1072.76"",""platform"":""Win32"",""language"":""en-US"",""locale"":""en-US"",""timeZone"":""Europe/London"",""timezoneOffset"":0,""screen_width"":1280,""screen_height"":720,""scroll_width"":1280,""scroll_height"":561,""window_innerWidth"":1280,""window_innerHeight"":609,""devicePixelRatio"":1.5}",,,,,,,,,,,,,,,60c3521fffe573f263c14877,,,,,,,,,,,,,,,39134.33700001192,,form submission,,,,,,,,,,,,,,,,,,,,,53281,53280.30000001192,14112.401,14126.300000011921,14145.963,53299.366,{},,
Introduction,html.Screen,1_0,2022-02-01T12:02:10.377Z,,,,,,,,,,,,,,,,,,,,,,,,,,,,,,,7141.133999999998,,response,,,,,,,,,,,continue,click button,,,,,,,,,60443.80000001192,60440.5,53266.588,53281.40000000596,53299.366,60446.873,,,
Volume calibration,html.Screen,1_1,2022-02-01T12:02:28.169Z,,,,,,,,,,,,,,,,,,,,,,,,,,,,,,,17788.72700000894,,response,,,,,,,,,,,continue,click button,,,,,,,,,78236.70000000298,78235.60000000894,60430.59,60443.90000000596,60446.873,78240.895,,,
Task instructions,html.Screen,1_2,2022-02-01T12:02:39.745Z,,,,,,,,,,,,,,,,,,,,,,,,,,,,,,,11570.305000002976,,response,,,,,,,,,,,continue,click button,,,,,,,,,89811.90000000596,89811.20000000298,78224.155,78236.80000001192,78240.895,89820.423,,,
Sounds,html.Screen,1_3_0_0,2022-02-01T12:02:43.993Z,,,,,,,,,,,,,,,,,,,,,,,,,,,,,,,4248.300000000003,,timeout,,,,,,,,,1,,,,,,,,S,I,O,,94059.80000001192,94052.131,89803.543,89812,89820.423,94068.723,,,
Judgement,html.Screen,1_3_0_1,2022-02-01T12:02:46.685Z,,,,,,,,,,,,,,,,,,,,,,,,,,,,true,1,,2682.1770000059623,,response,,,,,,,,,1,,1,click #choice-1,,,,,S,I,O,,96751.80000001192,96750.90000000596,94052.131,94060.10000000894,94068.723,96768.408,,,
Trial,flow.Sequence,1_3_0,2022-02-01T12:02:46.685Z,,,,,,,,,,,,,,,,,,,,,,,,,,,,,,,6930.477000005965,,completion,,,,,,,,,1,,,,,,,,S,I,O,,96752.10000000894,96750.90000000596,89803.543,89812,89820.423,96768.408,,,
Sounds,html.Screen,1_3_1_0,2022-02-01T12:02:50.934Z,,,,,,,,,,,,,,,,,,,,,,,,,,,,,,,4247.993000000002,,timeout,,,,,,,,,2,,,,,,,,O,S,I,,101001.70000000298,100999.799,96751.174,96752.30000001192,96768.408,101016.401,,,
Judgement,html.Screen,1_3_1_1,2022-02-01T12:02:51.663Z,,,,,,,,,,,,,,,,,,,,,,,,,,,,true,2,,712.4990000059624,,response,,,,,,,,,2,,2,click #choice-2,,,,,O,S,I,,101729.90000000596,101728.90000000596,100999.799,101002,101016.401,101732.827,,,
Trial,flow.Sequence,1_3_1,2022-02-01T12:02:51.663Z,,,,,,,,,,,,,,,,,,,,,,,,,,,,,,,4960.492000005965,,completion,,,,,,,,,2,,,,,,,,O,S,I,,101730.20000000298,101728.90000000596,96751.174,96752.20000000298,96768.408,101732.827,,,
Sounds,html.Screen,1_3_2_0,2022-02-01T12:02:55.901Z,,,,,,,,,,,,,,,,,,,,,,,,,,,,,,,4248.5639999999985,,timeout,,,,,,,,,3,,,,,,,,I,O,S,,105968.20000000298,105964.75,101716.809,101730.5,101732.827,105981.391,,,
Judgement,html.Screen,1_3_2_1,2022-02-01T12:02:56.528Z,,,,,,,,,,,,,,,,,,,,,,,,,,,,true,3,,612.7090000089374,,response,,,,,,,,,3,,3,click #choice-3,,,,,I,O,S,,106595,106594.10000000894,105964.75,105968.60000000894,105981.391,106597.853,,,
Trial,flow.Sequence,1_3_2,2022-02-01T12:02:56.528Z,,,,,,,,,,,,,,,,,,,,,,,,,,,,,,,4861.273000008936,,completion,,,,,,,,,3,,,,,,,,I,O,S,,106595.30000001192,106594.10000000894,101716.809,101730.40000000596,101732.827,106597.853,,,
Sounds,html.Screen,1_3_3_0,2022-02-01T12:03:00.767Z,,,,,,,,,,,,,,,,,,,,,,,,,,,,,,,4249.001999999993,,timeout,,,,,,,,,3,,,,,,,,O,I,S,,110833.10000000894,110829.797,106581.714,106595.5,106597.853,110846.855,,,
Judgement,html.Screen,1_3_3_1,2022-02-01T12:03:02.163Z,,,,,,,,,,,,,,,,,,,,,,,,,,,,true,3,,1381.0450000059645,,response,,,,,,,,,3,,3,click #choice-3,,,,,O,I,S,,112228.90000000596,112227.90000000596,110829.797,110833.30000001192,110846.855,112260.293,,,
Trial,flow.Sequence,1_3_3,2022-02-01T12:03:02.163Z,,,,,,,,,,,,,,,,,,,,,,,,,,,,,,,5630.047000005958,,completion,,,,,,,,,3,,,,,,,,O,I,S,,112229.10000000894,112227.90000000596,106581.714,106595.40000000596,106597.853,112260.293,,,
Sounds,html.Screen,1_3_4_0,2022-02-01T12:03:06.430Z,,,,,,,,,,,,,,,,,,,,,,,,,,,,,,,4250.881999999998,,timeout,,,,,,,,,2,,,,,,,,I,S,O,,116496.20000000298,116494.905,112212.699,112229.20000000298,112260.293,116511.175,,,
Judgement,html.Screen,1_3_4_1,2022-02-01T12:03:07.832Z,,,,,,,,,,,,,,,,,,,,,,,,,,,,true,2,,1386.2250000059576,,response,,,,,,,,,2,,2,click #choice-2,,,,,I,S,O,,117898,117897.40000000596,116494.905,116496.5,116511.175,117910.625,,,
Trial,flow.Sequence,1_3_4,2022-02-01T12:03:07.832Z,,,,,,,,,,,,,,,,,,,,,,,,,,,,,,,5637.107000005955,,completion,,,,,,,,,2,,,,,,,,I,S,O,,117898.20000000298,117897.40000000596,112212.699,112229.20000000298,112260.293,117910.625,,,
Sounds,html.Screen,1_3_5_0,2022-02-01T12:03:12.078Z,,,,,,,,,,,,,,,,,,,,,,,,,,,,,,,4248.672000000006,,timeout,,,,,,,,,1,,,,,,,,S,O,I,,122144.10000000894,122142.767,117894.136,117898.20000000298,117910.625,122159.297,,,
Judgement,html.Screen,1_3_5_1,2022-02-01T12:03:13.961Z,,,,,,,,,,,,,,,,,,,,,,,,,,,,false,1,,1866.9030000029743,,response,,,,,,,,,1,,3,click #choice-3,,,,,S,O,I,,124027.10000000894,124026.20000000298,122142.767,122144.40000000596,122159.297,124041.837,,,
Trial,flow.Sequence,1_3_5,2022-02-01T12:03:13.961Z,,,,,,,,,,,,,,,,,,,,,,,,,,,,,,,6115.57500000298,,completion,,,,,,,,,1,,,,,,,,S,O,I,,124027.20000000298,124026.20000000298,117894.136,117898.20000000298,117910.625,124041.837,,,
Task,flow.Loop,1_3,2022-02-01T12:03:13.964Z,,,,,,,,,,,,,,,,,,,,,,,,,,,,,,,34205.777000002985,,completion,,,0.8333333333333334,,,,,,,,,,,,,,,,,,124030.40000000596,124026.20000000298,89803.543,89812,89820.423,124041.837,,,
Trap,html.Screen,1_4,2022-02-01T12:03:13.965Z,,,,,,,,,,,,,,,,,,,,,,,,,,,,,,,NaN,,skipped,,,,,,,,,,,,,,,,,,,,,124031.20000000298,124026.20000000298,,124031.20000000298,,124041.837,,,
Thanks,html.Screen,1_5,2022-02-01T12:03:18.519Z,,,,,,,,,,,,,,,,,,,,,,,,,,,,,,,4542.463000011921,,response,,,,,,,,,,,continue,click button,,,,,,,,,128585.30000001192,128584.30000001192,124025.229,124031.30000001192,124041.837,133422.113,,,
Headphone screening,flow.Sequence,1,2022-02-01T12:03:18.519Z,,,,,,,,,,,,,,,,,,,,,,,,,,,,,,,75284.93400001191,,completion,,,,,,,,,,,,,,,,,,,,,128585.60000000894,128584.30000001192,53266.588,53281.30000001192,53299.366,133422.113,,,
Instructions,html.Page,2_0,2022-02-01T12:03:40.619Z,,,,,,,,,,,,,,,,,,,,,,,,,,,,,,,17262.28700000595,,form submission,,,,,,,,,,,,,,,,,,,,,150684.80000001192,150684.40000000596,133405.331,133413.90000000596,133422.113,150699.657,,,
Holding screen,html.Screen,2_1_0_0,2022-02-01T12:03:50.616Z,,,,,,,,,,,,,,,,,,,,,,,,,,,,,,,9996.434999999998,,timeout,,,,,,,,,,,,,,,,,,,,,160682.10000000894,160679.489,150683.147,150685,150699.657,160696.092,,,
screen,html.Screen,2_1_0_1_0,2022-02-01T12:03:53.111Z,,,,,,,,,,,,,,,,,53,,,,,,,,,,,,,,2476.5080000089365,,response,,,,99,,,,,,,Space,keypress(Space),,,,,,,,When -- ----- -- ------ - ------- --- ----------<br>------------- ------ ------ ---- ---- ------- ----- -- ----<br>-------- ------- -- ---------- --- - --- ----- ----- ----<br>---- --- --- ----- --- ---- ---- ------- ----- ---- -------<br>--- --- -- ----- -- --- ---- -- --- ---- -- ------ ------<br>--- ----- -- ----,163177.70000000298,163172.60000000894,160679.489,160682.40000000596,160696.092,163195.232,,0,When
screen,html.Screen,2_1_0_1_1,2022-02-01T12:03:53.720Z,,,,,,,,,,,,,,,,,53,,,,,,,,,,,,,,590.3680000089516,,response,,,,99,,,,,,,Space,keypress(Space),,,,,,,,---- it ----- -- ------ - ------- --- ----------<br>------------- ------ ------ ---- ---- ------- ----- -- ----<br>-------- ------- -- ---------- --- - --- ----- ----- ----<br>---- --- --- ----- --- ---- ---- ------- ----- ---- -------<br>--- --- -- ----- -- --- ---- -- --- ---- -- ------ ------<br>--- ----- -- ----,163786.10000000894,163785.60000000894,163179.035,163177.90000000596,163195.232,163795.398,,1,it
screen,html.Screen,2_1_0_1_2,2022-02-01T12:03:54.447Z,,,,,,,,,,,,,,,,,53,,,,,,,,,,,,,,716.4020000119344,,response,,,,99,,,,,,,Space,keypress(Space),,,,,,,,---- -- comes -- ------ - ------- --- ----------<br>------------- ------ ------ ---- ---- ------- ----- -- ----<br>-------- ------- -- ---------- --- - --- ----- ----- ----<br>---- --- --- ----- --- ---- ---- ------- ----- ---- -------<br>--- --- -- ----- -- --- ---- -- --- ---- -- ------ ------<br>--- ----- -- ----,164513,164511.80000001192,163778.389,163786.20000000298,163795.398,164528.657,,2,comes
screen,html.Screen,2_1_0_1_3,2022-02-01T12:03:54.940Z,,,,,,,,,,,,,,,,,53,,,,,,,,,,,,,,476.24300000595395,,response,,,,99,,,,,,,Space,keypress(Space),,,,,,,,---- -- ----- to ------ - ------- --- ----------<br>------------- ------ ------ ---- ---- ------- ----- -- ----<br>-------- ------- -- ---------- --- - --- ----- ----- ----<br>---- --- --- ----- --- ---- ---- ------- ----- ---- -------<br>--- --- -- ----- -- --- ---- -- --- ---- -- ------ ------<br>--- ----- -- ----,165005.80000001192,165004.90000000596,164511.802,164515.40000000596,164528.657,165011.359,,3,to
screen,html.Screen,2_1_0_1_4,2022-02-01T12:03:55.373Z,,,,,,,,,,,,,,,,,53,,,,,,,,,,,,,,426.74100000894396,,response,,,,99,,,,,,,Space,keypress(Space),,,,,,,,---- -- ----- -- having - ------- --- ----------<br>------------- ------ ------ ---- ---- ------- ----- -- ----<br>-------- ------- -- ---------- --- - --- ----- ----- ----<br>---- --- --- ----- --- ---- ---- ------- ----- ---- -------<br>--- --- -- ----- -- --- ---- -- --- ---- -- ------ ------<br>--- ----- -- ----,165439.30000001192,165438.10000000894,164995.19,165006.10000000894,165011.359,165444.499,,4,having
screen,html.Screen,2_1_0_1_5,2022-02-01T12:03:55.859Z,,,,,,,,,,,,,,,,,53,,,,,,,,,,,,,,479.90100000594975,,response,,,,99,,,,,,,Space,keypress(Space),,,,,,,,---- -- ----- -- ------ a ------- --- ----------<br>------------- ------ ------ ---- ---- ------- ----- -- ----<br>-------- ------- -- ---------- --- - --- ----- ----- ----<br>---- --- --- ----- --- ---- ---- ------- ----- ---- -------<br>--- --- -- ----- -- --- ---- -- --- ---- -- ------ ------<br>--- ----- -- ----,165925.20000000298,165924.40000000596,165427.844,165439.5,165444.499,165927.671,,5,a
screen,html.Screen,2_1_0_1_6,2022-02-01T12:03:56.382Z,,,,,,,,,,,,,,,,,53,,,,,,,,,,,,,,519.1290000119188,,response,,,,99,,,,,,,Space,keypress(Space),,,,,,,,---- -- ----- -- ------ - lasting --- ----------<br>------------- ------ ------ ---- ---- ------- ----- -- ----<br>-------- ------- -- ---------- --- - --- ----- ----- ----<br>---- --- --- ----- --- ---- ---- ------- ----- ---- -------<br>--- --- -- ----- -- --- ---- -- --- ---- -- ------ ------<br>--- ----- -- ----,166447.90000000596,166446.80000001192,165911.371,165925.40000000596,165927.671,166460.91,,6,lasting
screen,html.Screen,2_1_0_1_7,2022-02-01T12:03:56.897Z,,,,,,,,,,,,,,,,,53,,,,,,,,,,,,,,500.89000001191744,,response,,,,99,,,,,,,Space,keypress(Space),,,,,,,,---- -- ----- -- ------ - ------- and ----------<br>------------- ------ ------ ---- ---- ------- ----- -- ----<br>-------- ------- -- ---------- --- - --- ----- ----- ----<br>---- --- --- ----- --- ---- ---- ------- ----- ---- -------<br>--- --- -- ----- -- --- ---- -- --- ---- -- ------ ------<br>--- ----- -- ----,166962.90000000596,166961.80000001192,166444.614,166448.20000000298,166460.91,166977.823,,7,and
screen,html.Screen,2_1_0_1_8,2022-02-01T12:03:57.433Z,,,,,,,,,,,,,,,,,53,,,,,,,,,,,,,,520.477000011917,,response,,,,99,,,,,,,Space,keypress(Space),,,,,,,,---- -- ----- -- ------ - ------- --- fulfilling<br>------------- ------ ------ ---- ---- ------- ----- -- ----<br>-------- ------- -- ---------- --- - --- ----- ----- ----<br>---- --- --- ----- --- ---- ---- ------- ----- ---- -------<br>--- --- -- ----- -- --- ---- -- --- ---- -- ------ ------<br>--- ----- -- ----,167499.30000001192,167498.30000001192,166960.719,166963.20000000298,166977.823,167510.576,,8,fulfilling
screen,html.Screen,2_1_0_1_9,2022-02-01T12:03:58.642Z,,,,,,,,,,,,,,,,,53,,,,,,,,,,,,,,1196.8240000059595,,response,,,,99,,,,,,,Space,keypress(Space),,,,,,,,"---- -- ----- -- ------ - ------- --- ----------<br>relationship, ------ ------ ---- ---- ------- ----- -- ----<br>-------- ------- -- ---------- --- - --- ----- ----- ----<br>---- --- --- ----- --- ---- ---- ------- ----- ---- -------<br>--- --- -- ----- -- --- ---- -- --- ---- -- ------ ------<br>--- ----- -- ----",168708.5,168707.40000000596,167494.174,167499.5,167510.576,168731.765,,9,"relationship,"
screen,html.Screen,2_1_0_1_10,2022-02-01T12:03:59.310Z,,,,,,,,,,,,,,,,,53,,,,,,,,,,,,,,643.6350000059465,,response,,,,99,,,,,,,Space,keypress(Space),,,,,,,,---- -- ----- -- ------ - ------- --- ----------<br>------------- common ------ ---- ---- ------- ----- -- ----<br>-------- ------- -- ---------- --- - --- ----- ----- ----<br>---- --- --- ----- --- ---- ---- ------- ----- ---- -------<br>--- --- -- ----- -- --- ---- -- --- ---- -- ------ ------<br>--- ----- -- ----,169376.20000000298,169375.40000000596,168693.362,168708.80000001192,168731.765,169393.296,,10,common
screen,html.Screen,2_1_0_1_11,2022-02-01T12:03:59.925Z,,,,,,,,,,,,,,,,,53,,,,,,,,,,,,,,597.1040000059584,,response,,,,99,,,,,,,Space,keypress(Space),,,,,,,,---- -- ----- -- ------ - ------- --- ----------<br>------------- ------ wisdom ---- ---- ------- ----- -- ----<br>-------- ------- -- ---------- --- - --- ----- ----- ----<br>---- --- --- ----- --- ---- ---- ------- ----- ---- -------<br>--- --- -- ----- -- --- ---- -- --- ---- -- ------ ------<br>--- ----- -- ----,169990.80000001192,169990.40000000596,169376.932,169376.5,169393.296,169992.912,,11,wisdom
screen,html.Screen,2_1_0_1_12,2022-02-01T12:04:01.101Z,,,,,,,,,,,,,,,,,53,,,,,,,,,,,,,,1173.6880000089295,,response,,,,99,,,,,,,Space,keypress(Space),,,,,,,,---- -- ----- -- ------ - ------- --- ----------<br>------------- ------ ------ says ---- ------- ----- -- ----<br>-------- ------- -- ---------- --- - --- ----- ----- ----<br>---- --- --- ----- --- ---- ---- ------- ----- ---- -------<br>--- --- -- ----- -- --- ---- -- --- ---- -- ------ ------<br>--- ----- -- ----,171167.60000000894,171166.60000000894,169976.594,169990.90000000596,169992.912,171175.917,,12,says
screen,html.Screen,2_1_0_1_13,2022-02-01T12:04:01.514Z,,,,,,,,,,,,,,,,,53,,,,,,,,,,,,,,403.08300000001327,,response,,,,99,,,,,,,Space,keypress(Space),,,,,,,,---- -- ----- -- ------ - ------- --- ----------<br>------------- ------ ------ ---- that ------- ----- -- ----<br>-------- ------- -- ---------- --- - --- ----- ----- ----<br>---- --- --- ----- --- ---- ---- ------- ----- ---- -------<br>--- --- -- ----- -- --- ---- -- --- ---- -- ------ ------<br>--- ----- -- ----,171580,171579,171159.693,171167.80000001192,171175.917,171592.919,,13,that
screen,html.Screen,2_1_0_1_14,2022-02-01T12:04:01.970Z,,,,,,,,,,,,,,,,,53,,,,,,,,,,,,,,441.8810000119265,,response,,,,99,,,,,,,Space,keypress(Space),,,,,,,,---- -- ----- -- ------ - ------- --- ----------<br>------------- ------ ------ ---- ---- feeling ----- -- ----<br>-------- ------- -- ---------- --- - --- ----- ----- ----<br>---- --- --- ----- --- ---- ---- ------- ----- ---- -------<br>--- --- -- ----- -- --- ---- -- --- ---- -- ------ ------<br>--- ----- -- ----,172035.80000001192,172034.80000001192,171576.199,171580.30000001192,171592.919,172042.302,,14,feeling
screen,html.Screen,2_1_0_1_15,2022-02-01T12:04:03.177Z,,,,,,,,,,,,,,,,,53,,,,,,,,,,,,,,1199.5980000059644,,response,,,,99,,,,,,,Space,keypress(Space),,,,,,,,---- -- ----- -- ------ - ------- --- ----------<br>------------- ------ ------ ---- ---- ------- close -- ----<br>-------- ------- -- ---------- --- - --- ----- ----- ----<br>---- --- --- ----- --- ---- ---- ------- ----- ---- -------<br>--- --- -- ----- -- --- ---- -- --- ---- -- ------ ------<br>--- ----- -- ----,173242.90000000596,173241.90000000596,172025.728,172035.90000000596,172042.302,173259.029,,15,close
screen,html.Screen,2_1_0_1_16,2022-02-01T12:04:03.573Z,,,,,,,,,,,,,,,,,53,,,,,,,,,,,,,,379.47099999999045,,response,,,,99,,,,,,,Space,keypress(Space),,,,,,,,---- -- ----- -- ------ - ------- --- ----------<br>------------- ------ ------ ---- ---- ------- ----- to ----<br>-------- ------- -- ---------- --- - --- ----- ----- ----<br>---- --- --- ----- --- ---- ---- ------- ----- ---- -------<br>--- --- -- ----- -- --- ---- -- --- ---- -- ------ ------<br>--- ----- -- ----,173639.40000000596,173638.5,173241.851,173243.20000000298,173259.029,173665.287,,16,to
screen,html.Screen,2_1_0_1_17,2022-02-01T12:04:03.942Z,,,,,,,,,,,,,,,,,53,,,,,,,,,,,,,,342.01300001190975,,response,,,,99,,,,,,,Space,keypress(Space),,,,,,,,---- -- ----- -- ------ - ------- --- ----------<br>------------- ------ ------ ---- ---- ------- ----- -- your<br>-------- ------- -- ---------- --- - --- ----- ----- ----<br>---- --- --- ----- --- ---- ---- ------- ----- ---- -------<br>--- --- -- ----- -- --- ---- -- --- ---- -- ------ ------<br>--- ----- -- ----,174008.20000000298,174007.30000001192,173625.512,173639.70000000298,173665.287,174025.336,,17,your
screen,html.Screen,2_1_0_1_18,2022-02-01T12:04:04.425Z,,,,,,,,,,,,,,,,,53,,,,,,,,,,,,,,464.9640000119107,,response,,,,99,,,,,,,Space,keypress(Space),,,,,,,,---- -- ----- -- ------ - ------- --- ----------<br>------------- ------ ------ ---- ---- ------- ----- -- ----<br>romantic ------- -- ---------- --- - --- ----- ----- ----<br>---- --- --- ----- --- ---- ---- ------- ----- ---- -------<br>--- --- -- ----- -- --- ---- -- --- ---- -- ------ ------<br>--- ----- -- ----,174491.30000001192,174490.30000001192,174008.754,174008.40000000596,174025.336,174508.367,,18,romantic
screen,html.Screen,2_1_0_1_19,2022-02-01T12:04:04.911Z,,,,,,,,,,,,,,,,,53,,,,,,,,,,,,,,468.5330000059621,,response,,,,99,,,,,,,Space,keypress(Space),,,,,,,,---- -- ----- -- ------ - ------- --- ----------<br>------------- ------ ------ ---- ---- ------- ----- -- ----<br>-------- partner -- ---------- --- - --- ----- ----- ----<br>---- --- --- ----- --- ---- ---- ------- ----- ---- -------<br>--- --- -- ----- -- --- ---- -- --- ---- -- ------ ------<br>--- ----- -- ----,174977.40000000596,174976.90000000596,174491.872,174491.5,174508.367,174991.256,,19,partner
screen,html.Screen,2_1_0_1_20,2022-02-01T12:04:05.313Z,,,,,,,,,,,,,,,,,53,,,,,,,,,,,,,,387.34400000894675,,response,,,,99,,,,,,,Space,keypress(Space),,,,,,,,---- -- ----- -- ------ - ------- --- ----------<br>------------- ------ ------ ---- ---- ------- ----- -- ----<br>-------- ------- is ---------- --- - --- ----- ----- ----<br>---- --- --- ----- --- ---- ---- ------- ----- ---- -------<br>--- --- -- ----- -- --- ---- -- --- ---- -- ------ ------<br>--- ----- -- ----,175379.5,175378.60000000894,174974.831,174977.5,174991.256,175391.238,,20,is
screen,html.Screen,2_1_0_1_21,2022-02-01T12:04:05.737Z,,,,,,,,,,,,,,,,,53,,,,,,,,,,,,,,410.8620000089286,,response,,,,99,,,,,,,Space,keypress(Space),,,,,,,,---- -- ----- -- ------ - ------- --- ----------<br>------------- ------ ------ ---- ---- ------- ----- -- ----<br>-------- ------- -- paramount. --- - --- ----- ----- ----<br>---- --- --- ----- --- ---- ---- ------- ----- ---- -------<br>--- --- -- ----- -- --- ---- -- --- ---- -- ------ ------<br>--- ----- -- ----,175802.90000000596,175802.10000000894,175374.483,175379.80000001192,175391.238,175807.6,,21,paramount.
screen,html.Screen,2_1_0_1_22,2022-02-01T12:04:06.350Z,,,,,,,,,,,,,,,,,53,,,,,,,,,,,,,,607.5000000089349,,response,,,,99,,,,,,,Space,keypress(Space),,,,,,,,---- -- ----- -- ------ - ------- --- ----------<br>------------- ------ ------ ---- ---- ------- ----- -- ----<br>-------- ------- -- ---------- But - --- ----- ----- ----<br>---- --- --- ----- --- ---- ---- ------- ----- ---- -------<br>--- --- -- ----- -- --- ---- -- --- ---- -- ------ ------<br>--- ----- -- ----,176416,176415.10000000894,175790.997,175803.10000000894,175807.6,176424.111,,22,But
screen,html.Screen,2_1_0_1_23,2022-02-01T12:04:06.751Z,,,,,,,,,,,,,,,,,53,,,,,,,,,,,,,,392.4890000089363,,response,,,,99,,,,,,,Space,keypress(Space),,,,,,,,---- -- ----- -- ------ - ------- --- ----------<br>------------- ------ ------ ---- ---- ------- ----- -- ----<br>-------- ------- -- ---------- --- a --- ----- ----- ----<br>---- --- --- ----- --- ---- ---- ------- ----- ---- -------<br>--- --- -- ----- -- --- ---- -- --- ---- -- ------ ------<br>--- ----- -- ----,176817,176816.60000000894,176407.866,176416.20000000298,176424.111,176823.985,,23,a
screen,html.Screen,2_1_0_1_24,2022-02-01T12:04:07.124Z,,,,,,,,,,,,,,,,,53,,,,,,,,,,,,,,365.51500000001397,,response,,,,99,,,,,,,Space,keypress(Space),,,,,,,,---- -- ----- -- ------ - ------- --- ----------<br>------------- ------ ------ ---- ---- ------- ----- -- ----<br>-------- ------- -- ---------- --- - new ----- ----- ----<br>---- --- --- ----- --- ---- ---- ------- ----- ---- -------<br>--- --- -- ----- -- --- ---- -- --- ---- -- ------ ------<br>--- ----- -- ----,177190.40000000596,177189.5,176807.295,176817.10000000894,176823.985,177207.662,,24,new
screen,html.Screen,2_1_0_1_25,2022-02-01T12:04:07.513Z,,,,,,,,,,,,,,,,,53,,,,,,,,,,,,,,370.63800001190975,,response,,,,99,,,,,,,Space,keypress(Space),,,,,,,,---- -- ----- -- ------ - ------- --- ----------<br>------------- ------ ------ ---- ---- ------- ----- -- ----<br>-------- ------- -- ---------- --- - --- study ----- ----<br>---- --- --- ----- --- ---- ---- ------- ----- ---- -------<br>--- --- -- ----- -- --- ---- -- --- ---- -- ------ ------<br>--- ----- -- ----,177579.30000001192,177578.30000001192,177190.492,177190.70000000298,177207.662,177590.528,,25,study
screen,html.Screen,2_1_0_1_26,2022-02-01T12:04:07.885Z,,,,,,,,,,,,,,,,,53,,,,,,,,,,,,,,360.07200000894954,,response,,,,99,,,,,,,Space,keypress(Space),,,,,,,,---- -- ----- -- ------ - ------- --- ----------<br>------------- ------ ------ ---- ---- ------- ----- -- ----<br>-------- ------- -- ---------- --- - --- ----- finds ----<br>---- --- --- ----- --- ---- ---- ------- ----- ---- -------<br>--- --- -- ----- -- --- ---- -- --- ---- -- ------ ------<br>--- ----- -- ----,177951.20000000298,177950.60000000894,177574.032,177579.5,177590.528,177956.857,,26,finds
screen,html.Screen,2_1_0_1_27,2022-02-01T12:04:08.280Z,,,,,,,,,,,,,,,,,53,,,,,,,,,,,,,,387.9430000119319,,response,,,,99,,,,,,,Space,keypress(Space),,,,,,,,---- -- ----- -- ------ - ------- --- ----------<br>------------- ------ ------ ---- ---- ------- ----- -- ----<br>-------- ------- -- ---------- --- - --- ----- ----- that<br>---- --- --- ----- --- ---- ---- ------- ----- ---- -------<br>--- --- -- ----- -- --- ---- -- --- ---- -- ------ ------<br>--- ----- -- ----,178346.20000000298,178344.80000001192,177940.475,177951.40000000596,177956.857,178356.931,,27,that
screen,html.Screen,2_1_0_1_28,2022-02-01T12:04:08.773Z,,,,,,,,,,,,,,,,,53,,,,,,,,,,,,,,481.1690000089293,,response,,,,99,,,,,,,Space,keypress(Space),,,,,,,,---- -- ----- -- ------ - ------- --- ----------<br>------------- ------ ------ ---- ---- ------- ----- -- ----<br>-------- ------- -- ---------- --- - --- ----- ----- ----<br>it's --- --- ----- --- ---- ---- ------- ----- ---- -------<br>--- --- -- ----- -- --- ---- -- --- ---- -- ------ ------<br>--- ----- -- ----,178839.10000000894,178838.10000000894,178340.659,178346.40000000596,178356.931,178873.323,,28,it's
screen,html.Screen,2_1_0_1_29,2022-02-01T12:04:09.144Z,,,,,,,,,,,,,,,,,53,,,,,,,,,,,,,,335.47700001191697,,response,,,,99,,,,,,,Space,keypress(Space),,,,,,,,---- -- ----- -- ------ - ------- --- ----------<br>------------- ------ ------ ---- ---- ------- ----- -- ----<br>-------- ------- -- ---------- --- - --- ----- ----- ----<br>---- not --- ----- --- ---- ---- ------- ----- ---- -------<br>--- --- -- ----- -- --- ---- -- --- ---- -- ------ ------<br>--- ----- -- ----,179209.70000000298,179208.80000001192,178856.703,178839.40000000596,178873.323,179223.193,,29,not
screen,html.Screen,2_1_0_1_30,2022-02-01T12:04:09.548Z,,,,,,,,,,,,,,,,,53,,,,,,,,,,,,,,389.8070000000007,,response,,,,99,,,,,,,Space,keypress(Space),,,,,,,,---- -- ----- -- ------ - ------- --- ----------<br>------------- ------ ------ ---- ---- ------- ----- -- ----<br>-------- ------- -- ---------- --- - --- ----- ----- ----<br>---- --- how ----- --- ---- ---- ------- ----- ---- -------<br>--- --- -- ----- -- --- ---- -- --- ---- -- ------ ------<br>--- ----- -- ----,179614,179613,179206.482,179210,179223.193,179623.271,,30,how
screen,html.Screen,2_1_0_1_31,2022-02-01T12:04:10.016Z,,,,,,,,,,,,,,,,,53,,,,,,,,,,,,,,458.8290000089328,,response,,,,99,,,,,,,Space,keypress(Space),,,,,,,,---- -- ----- -- ------ - ------- --- ----------<br>------------- ------ ------ ---- ---- ------- ----- -- ----<br>-------- ------- -- ---------- --- - --- ----- ----- ----<br>---- --- --- close --- ---- ---- ------- ----- ---- -------<br>--- --- -- ----- -- --- ---- -- --- ---- -- ------ ------<br>--- ----- -- ----,180082.60000000894,180082.10000000894,179606.464,179614.30000001192,179623.271,180089.639,,31,close
screen,html.Screen,2_1_0_1_32,2022-02-01T12:04:10.403Z,,,,,,,,,,,,,,,,,53,,,,,,,,,,,,,,378.3610000000044,,response,,,,99,,,,,,,Space,keypress(Space),,,,,,,,---- -- ----- -- ------ - ------- --- ----------<br>------------- ------ ------ ---- ---- ------- ----- -- ----<br>-------- ------- -- ---------- --- - --- ----- ----- ----<br>---- --- --- ----- you ---- ---- ------- ----- ---- -------<br>--- --- -- ----- -- --- ---- -- --- ---- -- ------ ------<br>--- ----- -- ----,180468.90000000596,180468,180073.299,180082.70000000298,180089.639,180472.736,,32,you
screen,html.Screen,2_1_0_1_33,2022-02-01T12:04:10.783Z,,,,,,,,,,,,,,,,,53,,,,,,,,,,,,,,375.5640000119165,,response,,,,99,,,,,,,Space,keypress(Space),,,,,,,,---- -- ----- -- ------ - ------- --- ----------<br>------------- ------ ------ ---- ---- ------- ----- -- ----<br>-------- ------- -- ---------- --- - --- ----- ----- ----<br>---- --- --- ----- --- feel ---- ------- ----- ---- -------<br>--- --- -- ----- -- --- ---- -- --- ---- -- ------ ------<br>--- ----- -- ----,180848.70000000298,180848.30000001192,180456.374,180469.20000000298,180472.736,180855.904,,33,feel
screen,html.Screen,2_1_0_1_34,2022-02-01T12:04:11.131Z,,,,,,,,,,,,,,,,,53,,,,,,,,,,,,,,340.19600000893115,,response,,,,99,,,,,,,Space,keypress(Space),,,,,,,,---- -- ----- -- ------ - ------- --- ----------<br>------------- ------ ------ ---- ---- ------- ----- -- ----<br>-------- ------- -- ---------- --- - --- ----- ----- ----<br>---- --- --- ----- --- ---- that ------- ----- ---- -------<br>--- --- -- ----- -- --- ---- -- --- ---- -- ------ ------<br>--- ----- -- ----,181197.10000000894,181196.10000000894,180839.323,180848.90000000596,180855.904,181205.786,,34,that
screen,html.Screen,2_1_0_1_35,2022-02-01T12:04:11.670Z,,,,,,,,,,,,,,,,,53,,,,,,,,,,,,,,529.0140000119281,,response,,,,99,,,,,,,Space,keypress(Space),,,,,,,,---- -- ----- -- ------ - ------- --- ----------<br>------------- ------ ------ ---- ---- ------- ----- -- ----<br>-------- ------- -- ---------- --- - --- ----- ----- ----<br>---- --- --- ----- --- ---- ---- matters ----- ---- -------<br>--- --- -- ----- -- --- ---- -- --- ---- -- ------ ------<br>--- ----- -- ----,181735.70000000298,181734.80000001192,181189.163,181197.30000001192,181205.786,181738.981,,35,matters
screen,html.Screen,2_1_0_1_36,2022-02-01T12:04:12.052Z,,,,,,,,,,,,,,,,,53,,,,,,,,,,,,,,378.4190000059607,,response,,,,99,,,,,,,Space,keypress(Space),,,,,,,,"---- -- ----- -- ------ - ------- --- ----------<br>------------- ------ ------ ---- ---- ------- ----- -- ----<br>-------- ------- -- ---------- --- - --- ----- ----- ----<br>---- --- --- ----- --- ---- ---- ------- most, ---- -------<br>--- --- -- ----- -- --- ---- -- --- ---- -- ------ ------<br>--- ----- -- ----",182118.70000000298,182117.40000000596,181722.683,181736.10000000894,181738.981,182122.094,,36,"most,"
screen,html.Screen,2_1_0_1_37,2022-02-01T12:04:12.486Z,,,,,,,,,,,,,,,,,53,,,,,,,,,,,,,,429.20600001190905,,response,,,,99,,,,,,,Space,keypress(Space),,,,,,,,---- -- ----- -- ------ - ------- --- ----------<br>------------- ------ ------ ---- ---- ------- ----- -- ----<br>-------- ------- -- ---------- --- - --- ----- ----- ----<br>---- --- --- ----- --- ---- ---- ------- ----- it's -------<br>--- --- -- ----- -- --- ---- -- --- ---- -- ------ ------<br>--- ----- -- ----,182552.40000000596,182551.30000001192,182106.089,182118.90000000596,182122.094,182583.008,,37,it's
screen,html.Screen,2_1_0_1_38,2022-02-01T12:04:12.871Z,,,,,,,,,,,,,,,,,53,,,,,,,,,,,,,,353.49199999999837,,response,,,,99,,,,,,,Space,keypress(Space),,,,,,,,---- -- ----- -- ------ - ------- --- ----------<br>------------- ------ ------ ---- ---- ------- ----- -- ----<br>-------- ------- -- ---------- --- - --- ----- ----- ----<br>---- --- --- ----- --- ---- ---- ------- ----- ---- whether<br>--- --- -- ----- -- --- ---- -- --- ---- -- ------ ------<br>--- ----- -- ----,182937.5,182936.5,182538.662,182552.70000000298,182583.008,182972.455,,38,whether
screen,html.Screen,2_1_0_1_39,2022-02-01T12:04:13.348Z,,,,,,,,,,,,,,,,,53,,,,,,,,,,,,,,440.6450000089535,,response,,,,99,,,,,,,Space,keypress(Space),,,,,,,,---- -- ----- -- ------ - ------- --- ----------<br>------------- ------ ------ ---- ---- ------- ----- -- ----<br>-------- ------- -- ---------- --- - --- ----- ----- ----<br>---- --- --- ----- --- ---- ---- ------- ----- ---- -------<br>you --- -- ----- -- --- ---- -- --- ---- -- ------ ------<br>--- ----- -- ----,183414,183413.10000000894,182955.579,182937.70000000298,182972.455,183421.862,,39,you
screen,html.Screen,2_1_0_1_40,2022-02-01T12:04:13.698Z,,,,,,,,,,,,,,,,,53,,,,,,,,,,,,,,341.738000008947,,response,,,,99,,,,,,,Space,keypress(Space),,,,,,,,---- -- ----- -- ------ - ------- --- ----------<br>------------- ------ ------ ---- ---- ------- ----- -- ----<br>-------- ------- -- ---------- --- - --- ----- ----- ----<br>---- --- --- ----- --- ---- ---- ------- ----- ---- -------<br>--- are -- ----- -- --- ---- -- --- ---- -- ------ ------<br>--- ----- -- ----,183764.60000000894,183763.60000000894,183405.498,183414.20000000298,183421.862,183771.601,,40,are
screen,html.Screen,2_1_0_1_41,2022-02-01T12:04:14.131Z,,,,,,,,,,,,,,,,,53,,,,,,,,,,,,,,424.5990000029851,,response,,,,99,,,,,,,Space,keypress(Space),,,,,,,,---- -- ----- -- ------ - ------- --- ----------<br>------------- ------ ------ ---- ---- ------- ----- -- ----<br>-------- ------- -- ---------- --- - --- ----- ----- ----<br>---- --- --- ----- --- ---- ---- ------- ----- ---- -------<br>--- --- as ----- -- --- ---- -- --- ---- -- ------ ------<br>--- ----- -- ----,184197.20000000298,184196.20000000298,183754.88,183764.80000001192,183771.601,184204.76,,41,as
screen,html.Screen,2_1_0_1_42,2022-02-01T12:04:14.513Z,,,,,,,,,,,,,,,,,53,,,,,,,,,,,,,,373.2399999999907,,response,,,,99,,,,,,,Space,keypress(Space),,,,,,,,---- -- ----- -- ------ - ------- --- ----------<br>------------- ------ ------ ---- ---- ------- ----- -- ----<br>-------- ------- -- ---------- --- - --- ----- ----- ----<br>---- --- --- ----- --- ---- ---- ------- ----- ---- -------<br>--- --- -- close -- --- ---- -- --- ---- -- ------ ------<br>--- ----- -- ----,184579.10000000894,184578,184188.113,184197.40000000596,184204.76,184588.221,,42,close
screen,html.Screen,2_1_0_1_43,2022-02-01T12:04:14.946Z,,,,,,,,,,,,,,,,,53,,,,,,,,,,,,,,423.0790000119305,,response,,,,99,,,,,,,Space,keypress(Space),,,,,,,,---- -- ----- -- ------ - ------- --- ----------<br>------------- ------ ------ ---- ---- ------- ----- -- ----<br>-------- ------- -- ---------- --- - --- ----- ----- ----<br>---- --- --- ----- --- ---- ---- ------- ----- ---- -------<br>--- --- -- ----- as --- ---- -- --- ---- -- ------ ------<br>--- ----- -- ----,185012.30000001192,185011.30000001192,184571.622,184579.30000001192,184588.221,185021.613,,43,as
screen,html.Screen,2_1_0_1_44,2022-02-01T12:04:15.413Z,,,,,,,,,,,,,,,,,53,,,,,,,,,,,,,,456.1870000119088,,response,,,,99,,,,,,,Space,keypress(Space),,,,,,,,---- -- ----- -- ------ - ------- --- ----------<br>------------- ------ ------ ---- ---- ------- ----- -- ----<br>-------- ------- -- ---------- --- - --- ----- ----- ----<br>---- --- --- ----- --- ---- ---- ------- ----- ---- -------<br>--- --- -- ----- -- you ---- -- --- ---- -- ------ ------<br>--- ----- -- ----,185478.90000000596,185477.80000001192,185004.442,185012.5,185021.613,185487.864,,44,you
screen,html.Screen,2_1_0_1_45,2022-02-01T12:04:15.858Z,,,,,,,,,,,,,,,,,53,,,,,,,,,,,,,,434.93600001191953,,response,,,,99,,,,,,,Space,keypress(Space),,,,,,,,---- -- ----- -- ------ - ------- --- ----------<br>------------- ------ ------ ---- ---- ------- ----- -- ----<br>-------- ------- -- ---------- --- - --- ----- ----- ----<br>---- --- --- ----- --- ---- ---- ------- ----- ---- -------<br>--- --- -- ----- -- --- want -- --- ---- -- ------ ------<br>--- ----- -- ----,185923.80000001192,185922.80000001192,185471.358,185479.10000000894,185487.864,185938.014,,45,want
screen,html.Screen,2_1_0_1_46,2022-02-01T12:04:16.257Z,,,,,,,,,,,,,,,,,53,,,,,,,,,,,,,,384.68600000298466,,response,,,,99,,,,,,,Space,keypress(Space),,,,,,,,---- -- ----- -- ------ - ------- --- ----------<br>------------- ------ ------ ---- ---- ------- ----- -- ----<br>-------- ------- -- ---------- --- - --- ----- ----- ----<br>---- --- --- ----- --- ---- ---- ------- ----- ---- -------<br>--- --- -- ----- -- --- ---- to --- ---- -- ------ ------<br>--- ----- -- ----,186323.70000000298,186322.70000000298,185920.865,185924,185938.014,186337.78,,46,to
screen,html.Screen,2_1_0_1_47,2022-02-01T12:04:16.640Z,,,,,,,,,,,,,,,,,53,,,,,,,,,,,,,,367.62000000596163,,response,,,,99,,,,,,,Space,keypress(Space),,,,,,,,"---- -- ----- -- ------ - ------- --- ----------<br>------------- ------ ------ ---- ---- ------- ----- -- ----<br>-------- ------- -- ---------- --- - --- ----- ----- ----<br>---- --- --- ----- --- ---- ---- ------- ----- ---- -------<br>--- --- -- ----- -- --- ---- -- be, ---- -- ------ ------<br>--- ----- -- ----",186706.30000001192,186705.40000000596,186321.265,186324,186337.78,186721.151,,47,"be,"
screen,html.Screen,2_1_0_1_48,2022-02-01T12:04:17.100Z,,,,,,,,,,,,,,,,,53,,,,,,,,,,,,,,444.2490000059479,,response,,,,99,,,,,,,Space,keypress(Space),,,,,,,,---- -- ----- -- ------ - ------- --- ----------<br>------------- ------ ------ ---- ---- ------- ----- -- ----<br>-------- ------- -- ---------- --- - --- ----- ----- ----<br>---- --- --- ----- --- ---- ---- ------- ----- ---- -------<br>--- --- -- ----- -- --- ---- -- --- even -- ------ ------<br>--- ----- -- ----,187166.30000001192,187165.40000000596,186704.429,186706.60000000894,186721.151,187170.499,,48,even
screen,html.Screen,2_1_0_1_49,2022-02-01T12:04:17.493Z,,,,,,,,,,,,,,,,,53,,,,,,,,,,,,,,387.2010000029695,,response,,,,99,,,,,,,Space,keypress(Space),,,,,,,,---- -- ----- -- ------ - ------- --- ----------<br>------------- ------ ------ ---- ---- ------- ----- -- ----<br>-------- ------- -- ---------- --- - --- ----- ----- ----<br>---- --- --- ----- --- ---- ---- ------- ----- ---- -------<br>--- --- -- ----- -- --- ---- -- --- ---- if ------ ------<br>--- ----- -- ----,187558.70000000298,187557.70000000298,187153.934,187166.60000000894,187170.499,187570.79,,49,if
screen,html.Screen,2_1_0_1_50,2022-02-01T12:04:17.948Z,,,,,,,,,,,,,,,,,53,,,,,,,,,,,,,,442.4100000029721,,response,,,,99,,,,,,,Space,keypress(Space),,,,,,,,---- -- ----- -- ------ - ------- --- ----------<br>------------- ------ ------ ---- ---- ------- ----- -- ----<br>-------- ------- -- ---------- --- - --- ----- ----- ----<br>---- --- --- ----- --- ---- ---- ------- ----- ---- -------<br>--- --- -- ----- -- --- ---- -- --- ---- -- that's ------<br>--- ----- -- ----,188014,188013.20000000298,187553.634,187559,187570.79,188020.195,,50,that's
screen,html.Screen,2_1_0_1_51,2022-02-01T12:04:18.463Z,,,,,,,,,,,,,,,,,53,,,,,,,,,,,,,,507.9050000089337,,response,,,,99,,,,,,,Space,keypress(Space),,,,,,,,---- -- ----- -- ------ - ------- --- ----------<br>------------- ------ ------ ---- ---- ------- ----- -- ----<br>-------- ------- -- ---------- --- - --- ----- ----- ----<br>---- --- --- ----- --- ---- ---- ------- ----- ---- -------<br>--- --- -- ----- -- --- ---- -- --- ---- -- ------ really<br>--- ----- -- ----,188529.10000000894,188528.10000000894,188003.606,188014.20000000298,188020.195,188536.615,,51,really
screen,html.Screen,2_1_0_1_52,2022-02-01T12:04:18.991Z,,,,,,,,,,,,,,,,,53,,,,,,,,,,,,,,520.6850000119302,,response,,,,99,,,,,,,Space,keypress(Space),,,,,,,,---- -- ----- -- ------ - ------- --- ----------<br>------------- ------ ------ ---- ---- ------- ----- -- ----<br>-------- ------- -- ---------- --- - --- ----- ----- ----<br>---- --- --- ----- --- ---- ---- ------- ----- ---- -------<br>--- --- -- ----- -- --- ---- -- --- ---- -- ------ ------<br>not ----- -- ----,189057.70000000298,189057.30000001192,188520.043,188529.40000000596,188536.615,189070.348,,52,not
screen,html.Screen,2_1_0_1_53,2022-02-01T12:04:19.408Z,,,,,,,,,,,,,,,,,53,,,,,,,,,,,,,,402.65200000000186,,response,,,,99,,,,,,,Space,keypress(Space),,,,,,,,---- -- ----- -- ------ - ------- --- ----------<br>------------- ------ ------ ---- ---- ------- ----- -- ----<br>-------- ------- -- ---------- --- - --- ----- ----- ----<br>---- --- --- ----- --- ---- ---- ------- ----- ---- -------<br>--- --- -- ----- -- --- ---- -- --- ---- -- ------ ------<br>--- close -- ----,189474.20000000298,189473,189053.08,189057.70000000298,189070.348,189486.694,,53,close
screen,html.Screen,2_1_0_1_54,2022-02-01T12:04:19.815Z,,,,,,,,,,,,,,,,,53,,,,,,,,,,,,,,393.4060000089521,,response,,,,99,,,,,,,Space,keypress(Space),,,,,,,,---- -- ----- -- ------ - ------- --- ----------<br>------------- ------ ------ ---- ---- ------- ----- -- ----<br>-------- ------- -- ---------- --- - --- ----- ----- ----<br>---- --- --- ----- --- ---- ---- ------- ----- ---- -------<br>--- --- -- ----- -- --- ---- -- --- ---- -- ------ ------<br>--- ----- at ----,189881,189880.10000000894,189469.93,189474.40000000596,189486.694,189886.213,,54,at
screen,html.Screen,2_1_0_1_55,2022-02-01T12:04:20.886Z,,,,,,,,,,,,,,,,,53,,,,,,,,,,,,,,1065.2870000000112,,response,,,,99,,,,,,,Space,keypress(Space),,,,,,,,---- -- ----- -- ------ - ------- --- ----------<br>------------- ------ ------ ---- ---- ------- ----- -- ----<br>-------- ------- -- ---------- --- - --- ----- ----- ----<br>---- --- --- ----- --- ---- ---- ------- ----- ---- -------<br>--- --- -- ----- -- --- ---- -- --- ---- -- ------ ------<br>--- ----- -- all.,190952.5,190951.5,189869.611,189881.30000001192,189886.213,190969.764,,55,all.
Item 99,flow.Loop,2_1_0_1,2022-02-01T12:04:20.887Z,,,,,,,,,,,,,,,,,,,,,,,,,,,,,,,30255.407999999996,,completion,,,,,A,,,,,,,,,,,silence,,,,,190953,190951.5,160679.489,160682.30000001192,160696.092,190969.764,,,
Question 1,html.Screen,2_1_0_2,2022-02-01T12:04:36.639Z,,,,,,,,,,,,,,,,,,,,,,,,,,,,true,FALSE,,15734.836000008945,,response,,,,99,A,,,,,,FALSE,click #choice-2,,,,silence,,,,,206705.5,206704.60000000894,190952.433,190953.20000000298,190969.764,206713.721,,,
Question 2,html.Screen,2_1_0_3,2022-02-01T12:04:42.110Z,,,,,,,,,,,,,,,,,,,,,,,,,,,,true,TRUE,,5461.97900000299,,response,,,,99,A,,,,,,TRUE,click #choice-1,,,,silence,,,,,212176.70000000298,212175.70000000298,206697.165,206705.70000000298,206713.721,212178.553,,,
Item 99,flow.Sequence,2_1_0,2022-02-01T12:04:42.111Z,,,,,,,,,,,,,,,,,,,,,,,,,,,,,,,61476.043000002974,,completion,,,,,,,,,,,,,,,,,,,,,212176.90000000596,212175.70000000298,150683.147,150685,150699.657,212178.553,,,
Holding screen,html.Screen,2_1_1_0,2022-02-01T12:04:52.098Z,,,,,,,,,,,,,,,,,,,,,,,,,,,,,,,9996.606999999989,,timeout,,,,,,,,,,,,,,,,,,,,,222162.90000000596,222159.014,212162.573,212177,212178.553,222175.16,,,
screen,html.Screen,2_1_1_1_0,2022-02-01T12:04:53.062Z,,,,,,,,,,,,,,,,,54,,,,,,,,,,,,,,950.4400000089372,,response,,,,100,,,,,,,Space,keypress(Space),,,,,,,,At --- ---- --- ------ ----- ------- ---- -- --- ------- --<br>------- ---------- ------ -- ----- -- ----- -- ---- ------<br>--- ----- --- --- ------ -------- ----- --- ------ ----- --<br>----- ----- ---------- --- --- ------ ------ ---- -- ------<br>------- --- ------ ----- --- ---- ------- -- ---- --- --<br>------- ------,223126.40000000596,223125.60000000894,222159.014,222163.20000000298,222175.16,223141.592,,0,At
screen,html.Screen,2_1_1_1_1,2022-02-01T12:04:53.402Z,,,,,,,,,,,,,,,,,54,,,,,,,,,,,,,,323.70800001191674,,response,,,,100,,,,,,,Space,keypress(Space),,,,,,,,-- the ---- --- ------ ----- ------- ---- -- --- ------- --<br>------- ---------- ------ -- ----- -- ----- -- ---- ------<br>--- ----- --- --- ------ -------- ----- --- ------ ----- --<br>----- ----- ---------- --- --- ------ ------ ---- -- ------<br>------- --- ------ ----- --- ---- ------- -- ---- --- --<br>------- ------,223466.30000001192,223465.30000001192,223124.728,223126.70000000298,223141.592,223474.74,,1,the
screen,html.Screen,2_1_1_1_2,2022-02-01T12:04:53.731Z,,,,,,,,,,,,,,,,,54,,,,,,,,,,,,,,320.36000000895,,response,,,,100,,,,,,,Space,keypress(Space),,,,,,,,-- --- time --- ------ ----- ------- ---- -- --- ------- --<br>------- ---------- ------ -- ----- -- ----- -- ---- ------<br>--- ----- --- --- ------ -------- ----- --- ------ ----- --<br>----- ----- ---------- --- --- ------ ------ ---- -- ------<br>------- --- ------ ----- --- ---- ------- -- ---- --- --<br>------- ------,223795.70000000298,223795.10000000894,223458.363,223466.5,223474.74,223808.505,,2,time
screen,html.Screen,2_1_1_1_3,2022-02-01T12:04:54.057Z,,,,,,,,,,,,,,,,,54,,,,,,,,,,,,,,312.49499999999534,,response,,,,100,,,,,,,Space,keypress(Space),,,,,,,,-- --- ---- the ------ ----- ------- ---- -- --- ------- --<br>------- ---------- ------ -- ----- -- ----- -- ---- ------<br>--- ----- --- --- ------ -------- ----- --- ------ ----- --<br>----- ----- ---------- --- --- ------ ------ ---- -- ------<br>------- --- ------ ----- --- ---- ------- -- ---- --- --<br>------- ------,224121.5,224121,223791.778,223795.80000001192,223808.505,224124.525,,3,the
screen,html.Screen,2_1_1_1_4,2022-02-01T12:04:54.377Z,,,,,,,,,,,,,,,,,54,,,,,,,,,,,,,,315.8750000059663,,response,,,,100,,,,,,,Space,keypress(Space),,,,,,,,-- --- ---- --- French ----- ------- ---- -- --- ------- --<br>------- ---------- ------ -- ----- -- ----- -- ---- ------<br>--- ----- --- --- ------ -------- ----- --- ------ ----- --<br>----- ----- ---------- --- --- ------ ------ ---- -- ------<br>------- --- ------ ----- --- ---- ------- -- ---- --- --<br>------- ------,224441.30000001192,224440.40000000596,224108.329,224121.60000000894,224124.525,224458.297,,4,French
screen,html.Screen,2_1_1_1_5,2022-02-01T12:04:54.744Z,,,,,,,,,,,,,,,,,54,,,,,,,,,,,,,,350.1030000059691,,response,,,,100,,,,,,,Space,keypress(Space),,,,,,,,-- --- ---- --- ------ crown ------- ---- -- --- ------- --<br>------- ---------- ------ -- ----- -- ----- -- ---- ------<br>--- ----- --- --- ------ -------- ----- --- ------ ----- --<br>----- ----- ---------- --- --- ------ ------ ---- -- ------<br>------- --- ------ ----- --- ---- ------- -- ---- --- --<br>------- ------,224809,224808.40000000596,224441.212,224441.5,224458.297,224824.318,,5,crown
screen,html.Screen,2_1_1_1_6,2022-02-01T12:04:55.104Z,,,,,,,,,,,,,,,,,54,,,,,,,,,,,,,,343.7820000089414,,response,,,,100,,,,,,,Space,keypress(Space),,,,,,,,-- --- ---- --- ------ ----- secured ---- -- --- ------- --<br>------- ---------- ------ -- ----- -- ----- -- ---- ------<br>--- ----- --- --- ------ -------- ----- --- ------ ----- --<br>----- ----- ---------- --- --- ------ ------ ---- -- ------<br>------- --- ------ ----- --- ---- ------- -- ---- --- --<br>------- ------,225168.70000000298,225168.10000000894,224808.097,224809.20000000298,224824.318,225174.192,,6,secured
screen,html.Screen,2_1_1_1_7,2022-02-01T12:04:55.549Z,,,,,,,,,,,,,,,,,54,,,,,,,,,,,,,,438.30799999999,,response,,,,100,,,,,,,Space,keypress(Space),,,,,,,,-- --- ---- --- ------ ----- ------- much -- --- ------- --<br>------- ---------- ------ -- ----- -- ----- -- ---- ------<br>--- ----- --- --- ------ -------- ----- --- ------ ----- --<br>----- ----- ---------- --- --- ------ ------ ---- -- ------<br>------- --- ------ ----- --- ---- ------- -- ---- --- --<br>------- ------,225613.60000000894,225612.5,225157.625,225168.90000000596,225174.192,225624.302,,7,much
screen,html.Screen,2_1_1_1_8,2022-02-01T12:04:55.856Z,,,,,,,,,,,,,,,,,54,,,,,,,,,,,,,,295.3980000029842,,response,,,,100,,,,,,,Space,keypress(Space),,,,,,,,-- --- ---- --- ------ ----- ------- ---- of --- ------- --<br>------- ---------- ------ -- ----- -- ----- -- ---- ------<br>--- ----- --- --- ------ -------- ----- --- ------ ----- --<br>----- ----- ---------- --- --- ------ ------ ---- -- ------<br>------- --- ------ ----- --- ---- ------- -- ---- --- --<br>------- ------,225920.10000000894,225919.70000000298,225607.856,225613.90000000596,225624.302,225923.962,,8,of
screen,html.Screen,2_1_1_1_9,2022-02-01T12:04:56.154Z,,,,,,,,,,,,,,,,,54,,,,,,,,,,,,,,293.93800000596093,,response,,,,100,,,,,,,Space,keypress(Space),,,,,,,,-- --- ---- --- ------ ----- ------- ---- -- its ------- --<br>------- ---------- ------ -- ----- -- ----- -- ---- ------<br>--- ----- --- --- ------ -------- ----- --- ------ ----- --<br>----- ----- ---------- --- --- ------ ------ ---- -- ------<br>------- --- ------ ----- --- ---- ------- -- ---- --- --<br>------- ------,226218.40000000596,226217.90000000596,225907.738,225920.10000000894,225923.962,226223.768,,9,its
screen,html.Screen,2_1_1_1_10,2022-02-01T12:04:56.426Z,,,,,,,,,,,,,,,,,54,,,,,,,,,,,,,,266.23199999998906,,response,,,,100,,,,,,,Space,keypress(Space),,,,,,,,-- --- ---- --- ------ ----- ------- ---- -- --- revenue --<br>------- ---------- ------ -- ----- -- ----- -- ---- ------<br>--- ----- --- --- ------ -------- ----- --- ------ ----- --<br>----- ----- ---------- --- --- ------ ------ ---- -- ------<br>------- --- ------ ----- --- ---- ------- -- ---- --- --<br>------- ------,226490.90000000596,226490,226207.606,226218.5,226223.768,226507.325,,10,revenue
screen,html.Screen,2_1_1_1_11,2022-02-01T12:04:56.757Z,,,,,,,,,,,,,,,,,54,,,,,,,,,,,,,,314.17499999998836,,response,,,,100,,,,,,,Space,keypress(Space),,,,,,,,-- --- ---- --- ------ ----- ------- ---- -- --- ------- by<br>------- ---------- ------ -- ----- -- ----- -- ---- ------<br>--- ----- --- --- ------ -------- ----- --- ------ ----- --<br>----- ----- ---------- --- --- ------ ------ ---- -- ------<br>------- --- ------ ----- --- ---- ------- -- ---- --- --<br>------- ------,226822,226821.5,226490.363,226491.10000000894,226507.325,226850.737,,11,by
screen,html.Screen,2_1_1_1_12,2022-02-01T12:04:57.093Z,,,,,,,,,,,,,,,,,54,,,,,,,,,,,,,,305.5630000119272,,response,,,,100,,,,,,,Space,keypress(Space),,,,,,,,-- --- ---- --- ------ ----- ------- ---- -- --- ------- --<br>issuing ---------- ------ -- ----- -- ----- -- ---- ------<br>--- ----- --- --- ------ -------- ----- --- ------ ----- --<br>----- ----- ---------- --- --- ------ ------ ---- -- ------<br>------- --- ------ ----- --- ---- ------- -- ---- --- --<br>------- ------,227157.30000001192,227156.30000001192,226807.424,226822.10000000894,226850.737,227173.788,,12,issuing
screen,html.Screen,2_1_1_1_13,2022-02-01T12:04:57.437Z,,,,,,,,,,,,,,,,,54,,,,,,,,,,,,,,326.81200000894023,,response,,,,100,,,,,,,Space,keypress(Space),,,,,,,,-- --- ---- --- ------ ----- ------- ---- -- --- ------- --<br>------- government ------ -- ----- -- ----- -- ---- ------<br>--- ----- --- --- ------ -------- ----- --- ------ ----- --<br>----- ----- ---------- --- --- ------ ------ ---- -- ------<br>------- --- ------ ----- --- ---- ------- -- ---- --- --<br>------- ------,227501.60000000894,227500.60000000894,227156.988,227158.90000000596,227173.788,227506.74,,13,government
screen,html.Screen,2_1_1_1_14,2022-02-01T12:04:57.723Z,,,,,,,,,,,,,,,,,54,,,,,,,,,,,,,,280.06000001193024,,response,,,,100,,,,,,,Space,keypress(Space),,,,,,,,-- --- ---- --- ------ ----- ------- ---- -- --- ------- --<br>------- ---------- bonds. -- ----- -- ----- -- ---- ------<br>--- ----- --- --- ------ -------- ----- --- ------ ----- --<br>----- ----- ---------- --- --- ------ ------ ---- -- ------<br>------- --- ------ ----- --- ---- ------- -- ---- --- --<br>------- ------,227787.70000000298,227786.80000001192,227490.636,227501.80000001192,227506.74,227815.443,,14,bonds.
screen,html.Screen,2_1_1_1_15,2022-02-01T12:04:58.375Z,,,,,,,,,,,,,,,,,54,,,,,,,,,,,,,,623.2570000029809,,response,,,,100,,,,,,,Space,keypress(Space),,,,,,,,-- --- ---- --- ------ ----- ------- ---- -- --- ------- --<br>------- ---------- ------ In ----- -- ----- -- ---- ------<br>--- ----- --- --- ------ -------- ----- --- ------ ----- --<br>----- ----- ---------- --- --- ------ ------ ---- -- ------<br>------- --- ------ ----- --- ---- ------- -- ---- --- --<br>------- ------,228439.60000000894,228438.70000000298,227773.822,227788,227815.443,228457.058,,15,In
screen,html.Screen,2_1_1_1_16,2022-02-01T12:04:58.747Z,,,,,,,,,,,,,,,,,54,,,,,,,,,,,,,,354.5420000089507,,response,,,,100,,,,,,,Space,keypress(Space),,,,,,,,"-- --- ---- --- ------ ----- ------- ---- -- --- ------- --<br>------- ---------- ------ -- 1727, -- ----- -- ---- ------<br>--- ----- --- --- ------ -------- ----- --- ------ ----- --<br>----- ----- ---------- --- --- ------ ------ ---- -- ------<br>------- --- ------ ----- --- ---- ------- -- ---- --- --<br>------- ------",228812,228811.60000000894,228440.17,228439.80000001192,228457.058,228822.923,,16,"1727,"
screen,html.Screen,2_1_1_1_17,2022-02-01T12:04:59.379Z,,,,,,,,,,,,,,,,,54,,,,,,,,,,,,,,619.4770000059507,,response,,,,100,,,,,,,Space,keypress(Space),,,,,,,,-- --- ---- --- ------ ----- ------- ---- -- --- ------- --<br>------- ---------- ------ -- ----- in ----- -- ---- ------<br>--- ----- --- --- ------ -------- ----- --- ------ ----- --<br>----- ----- ---------- --- --- ------ ------ ---- -- ------<br>------- --- ------ ----- --- ---- ------- -- ---- --- --<br>------- ------,229443.40000000596,229442.40000000596,228806.784,228812.10000000894,228822.923,229456.526,,17,in
screen,html.Screen,2_1_1_1_18,2022-02-01T12:04:59.679Z,,,,,,,,,,,,,,,,,54,,,,,,,,,,,,,,286.0740000089281,,response,,,,100,,,,,,,Space,keypress(Space),,,,,,,,-- --- ---- --- ------ ----- ------- ---- -- --- ------- --<br>------- ---------- ------ -- ----- -- order -- ---- ------<br>--- ----- --- --- ------ -------- ----- --- ------ ----- --<br>----- ----- ---------- --- --- ------ ------ ---- -- ------<br>------- --- ------ ----- --- ---- ------- -- ---- --- --<br>------- ------,229743.5,229742.60000000894,229439.79,229443.60000000894,229456.526,229756.069,,18,order
screen,html.Screen,2_1_1_1_19,2022-02-01T12:04:59.982Z,,,,,,,,,,,,,,,,,54,,,,,,,,,,,,,,289.73100001193234,,response,,,,100,,,,,,,Space,keypress(Space),,,,,,,,-- --- ---- --- ------ ----- ------- ---- -- --- ------- --<br>------- ---------- ------ -- ----- -- ----- to ---- ------<br>--- ----- --- --- ------ -------- ----- --- ------ ----- --<br>----- ----- ---------- --- --- ------ ------ ---- -- ------<br>------- --- ------ ----- --- ---- ------- -- ---- --- --<br>------- ------,230046.20000000298,230045.80000001192,229739.765,229743.80000001192,229756.069,230055.834,,19,to
screen,html.Screen,2_1_1_1_20,2022-02-01T12:05:00.291Z,,,,,,,,,,,,,,,,,54,,,,,,,,,,,,,,299.0660000059579,,response,,,,100,,,,,,,Space,keypress(Space),,,,,,,,-- --- ---- --- ------ ----- ------- ---- -- --- ------- --<br>------- ---------- ------ -- ----- -- ----- -- save ------<br>--- ----- --- --- ------ -------- ----- --- ------ ----- --<br>----- ----- ---------- --- --- ------ ------ ---- -- ------<br>------- --- ------ ----- --- ---- ------- -- ---- --- --<br>------- ------,230355.90000000596,230354.90000000596,230039.522,230046.30000001192,230055.834,230372.699,,20,save
screen,html.Screen,2_1_1_1_21,2022-02-01T12:05:00.634Z,,,,,,,,,,,,,,,,,54,,,,,,,,,,,,,,324.80100000000675,,response,,,,100,,,,,,,Space,keypress(Space),,,,,,,,"-- --- ---- --- ------ ----- ------- ---- -- --- ------- --<br>------- ---------- ------ -- ----- -- ----- -- ---- money,<br>--- ----- --- --- ------ -------- ----- --- ------ ----- --<br>----- ----- ---------- --- --- ------ ------ ---- -- ------<br>------- --- ------ ----- --- ---- ------- -- ---- --- --<br>------- ------",230698.5,230697.5,230355.817,230356.10000000894,230372.699,230705.626,,21,"money,"
screen,html.Screen,2_1_1_1_22,2022-02-01T12:05:01.144Z,,,,,,,,,,,,,,,,,54,,,,,,,,,,,,,,501.8740000000107,,response,,,,100,,,,,,,Space,keypress(Space),,,,,,,,-- --- ---- --- ------ ----- ------- ---- -- --- ------- --<br>------- ---------- ------ -- ----- -- ----- -- ---- ------<br>the ----- --- --- ------ -------- ----- --- ------ ----- --<br>----- ----- ---------- --- --- ------ ------ ---- -- ------<br>------- --- ------ ----- --- ---- ------- -- ---- --- --<br>------- ------,231208.5,231207.5,230688.948,230698.70000000298,230705.626,231222.425,,22,the
screen,html.Screen,2_1_1_1_23,2022-02-01T12:05:01.615Z,,,,,,,,,,,,,,,,,54,,,,,,,,,,,,,,455.57500000001164,,response,,,,100,,,,,,,Space,keypress(Space),,,,,,,,-- --- ---- --- ------ ----- ------- ---- -- --- ------- --<br>------- ---------- ------ -- ----- -- ----- -- ---- ------<br>--- state --- --- ------ -------- ----- --- ------ ----- --<br>----- ----- ---------- --- --- ------ ------ ---- -- ------<br>------- --- ------ ----- --- ---- ------- -- ---- --- --<br>------- ------,231679.20000000298,231678,231206.009,231208.80000001192,231222.425,231688.745,,23,state
screen,html.Screen,2_1_1_1_24,2022-02-01T12:05:01.978Z,,,,,,,,,,,,,,,,,54,,,,,,,,,,,,,,352.75500000000466,,response,,,,100,,,,,,,Space,keypress(Space),,,,,,,,-- --- ---- --- ------ ----- ------- ---- -- --- ------- --<br>------- ---------- ------ -- ----- -- ----- -- ---- ------<br>--- ----- cut --- ------ -------- ----- --- ------ ----- --<br>----- ----- ---------- --- --- ------ ------ ---- -- ------<br>------- --- ------ ----- --- ---- ------- -- ---- --- --<br>------- ------,232042.30000001192,232041.5,231672.421,231679.40000000596,231688.745,232055.599,,24,cut
screen,html.Screen,2_1_1_1_25,2022-02-01T12:05:02.372Z,,,,,,,,,,,,,,,,,54,,,,,,,,,,,,,,380.30100000597304,,response,,,,100,,,,,,,Space,keypress(Space),,,,,,,,-- --- ---- --- ------ ----- ------- ---- -- --- ------- --<br>------- ---------- ------ -- ----- -- ----- -- ---- ------<br>--- ----- --- the ------ -------- ----- --- ------ ----- --<br>----- ----- ---------- --- --- ------ ------ ---- -- ------<br>------- --- ------ ----- --- ---- ------- -- ---- --- --<br>------- ------,232436.90000000596,232435.90000000596,232039.029,232042.5,232055.599,232455.538,,25,the
screen,html.Screen,2_1_1_1_26,2022-02-01T12:05:02.795Z,,,,,,,,,,,,,,,,,54,,,,,,,,,,,,,,402.46199999999953,,response,,,,100,,,,,,,Space,keypress(Space),,,,,,,,-- --- ---- --- ------ ----- ------- ---- -- --- ------- --<br>------- ---------- ------ -- ----- -- ----- -- ---- ------<br>--- ----- --- --- bonds' -------- ----- --- ------ ----- --<br>----- ----- ---------- --- --- ------ ------ ---- -- ------<br>------- --- ------ ----- --- ---- ------- -- ---- --- --<br>------- ------,232859.10000000894,232858,232422.168,232437.10000000894,232455.538,232872.098,,26,bonds'
screen,html.Screen,2_1_1_1_27,2022-02-01T12:05:03.374Z,,,,,,,,,,,,,,,,,54,,,,,,,,,,,,,,565.5020000089426,,response,,,,100,,,,,,,Space,keypress(Space),,,,,,,,-- --- ---- --- ------ ----- ------- ---- -- --- ------- --<br>------- ---------- ------ -- ----- -- ----- -- ---- ------<br>--- ----- --- --- ------ interest ----- --- ------ ----- --<br>----- ----- ---------- --- --- ------ ------ ---- -- ------<br>------- --- ------ ----- --- ---- ------- -- ---- --- --<br>------- ------,233438.60000000894,233437.60000000894,232855.363,232859.40000000596,232872.098,233455.127,,27,interest
screen,html.Screen,2_1_1_1_28,2022-02-01T12:05:03.818Z,,,,,,,,,,,,,,,,,54,,,,,,,,,,,,,,426.973000008933,,response,,,,100,,,,,,,Space,keypress(Space),,,,,,,,-- --- ---- --- ------ ----- ------- ---- -- --- ------- --<br>------- ---------- ------ -- ----- -- ----- -- ---- ------<br>--- ----- --- --- ------ -------- rate. --- ------ ----- --<br>----- ----- ---------- --- --- ------ ------ ---- -- ------<br>------- --- ------ ----- --- ---- ------- -- ---- --- --<br>------- ------,233882.60000000894,233882.10000000894,233438.465,233438.80000001192,233455.127,233887.867,,28,rate.
screen,html.Screen,2_1_1_1_29,2022-02-01T12:05:04.346Z,,,,,,,,,,,,,,,,,54,,,,,,,,,,,,,,521.2330000089423,,response,,,,100,,,,,,,Space,keypress(Space),,,,,,,,-- --- ---- --- ------ ----- ------- ---- -- --- ------- --<br>------- ---------- ------ -- ----- -- ----- -- ---- ------<br>--- ----- --- --- ------ -------- ----- The ------ ----- --<br>----- ----- ---------- --- --- ------ ------ ---- -- ------<br>------- --- ------ ----- --- ---- ------- -- ---- --- --<br>------- ------,234410.10000000894,234409.10000000894,233871.284,233882.70000000298,233887.867,234421.086,,29,The
screen,html.Screen,2_1_1_1_30,2022-02-01T12:05:04.736Z,,,,,,,,,,,,,,,,,54,,,,,,,,,,,,,,378.41399999998976,,response,,,,100,,,,,,,Space,keypress(Space),,,,,,,,-- --- ---- --- ------ ----- ------- ---- -- --- ------- --<br>------- ---------- ------ -- ----- -- ----- -- ---- ------<br>--- ----- --- --- ------ -------- ----- --- market ----- --<br>----- ----- ---------- --- --- ------ ------ ---- -- ------<br>------- --- ------ ----- --- ---- ------- -- ---- --- --<br>------- ------,234800.40000000596,234799.5,234404.863,234410.40000000596,234421.086,234804.202,,30,market
screen,html.Screen,2_1_1_1_31,2022-02-01T12:05:05.105Z,,,,,,,,,,,,,,,,,54,,,,,,,,,,,,,,364.8980000089505,,response,,,,100,,,,,,,Space,keypress(Space),,,,,,,,-- --- ---- --- ------ ----- ------- ---- -- --- ------- --<br>------- ---------- ------ -- ----- -- ----- -- ---- ------<br>--- ----- --- --- ------ -------- ----- --- ------ value --<br>----- ----- ---------- --- --- ------ ------ ---- -- ------<br>------- --- ------ ----- --- ---- ------- -- ---- --- --<br>------- ------,235170,235169.10000000894,234787.617,234800.70000000298,234804.202,235187.472,,31,value
screen,html.Screen,2_1_1_1_32,2022-02-01T12:05:05.399Z,,,,,,,,,,,,,,,,,54,,,,,,,,,,,,,,275.3280000119121,,response,,,,100,,,,,,,Space,keypress(Space),,,,,,,,-- --- ---- --- ------ ----- ------- ---- -- --- ------- --<br>------- ---------- ------ -- ----- -- ----- -- ---- ------<br>--- ----- --- --- ------ -------- ----- --- ------ ----- of<br>----- ----- ---------- --- --- ------ ------ ---- -- ------<br>------- --- ------ ----- --- ---- ------- -- ---- --- --<br>------- ------,235463.70000000298,235462.80000001192,235170.707,235170.20000000298,235187.472,235470.683,,32,of
screen,html.Screen,2_1_1_1_33,2022-02-01T12:05:06.816Z,,,,,,,,,,,,,,,,,54,,,,,,,,,,,,,,1409.0170000029902,,response,,,,100,,,,,,,Space,keypress(Space),,,,,,,,-- --- ---- --- ------ ----- ------- ---- -- --- ------- --<br>------- ---------- ------ -- ----- -- ----- -- ---- ------<br>--- ----- --- --- ------ -------- ----- --- ------ ----- --<br>these ----- ---------- --- --- ------ ------ ---- -- ------<br>------- --- ------ ----- --- ---- ------- -- ---- --- --<br>------- ------,236880.20000000298,236879.70000000298,235454.016,235464,235470.683,236886.829,,33,these
screen,html.Screen,2_1_1_1_34,2022-02-01T12:05:07.214Z,,,,,,,,,,,,,,,,,54,,,,,,,,,,,,,,391.2710000089428,,response,,,,100,,,,,,,Space,keypress(Space),,,,,,,,-- --- ---- --- ------ ----- ------- ---- -- --- ------- --<br>------- ---------- ------ -- ----- -- ----- -- ---- ------<br>--- ----- --- --- ------ -------- ----- --- ------ ----- --<br>----- bonds ---------- --- --- ------ ------ ---- -- ------<br>------- --- ------ ----- --- ---- ------- -- ---- --- --<br>------- ------,237278.90000000596,237278.10000000894,236870.259,236880.30000001192,236886.829,237286.864,,34,bonds
screen,html.Screen,2_1_1_1_35,2022-02-01T12:05:07.787Z,,,,,,,,,,,,,,,,,54,,,,,,,,,,,,,,564.2360000089393,,response,,,,100,,,,,,,Space,keypress(Space),,,,,,,,"-- --- ---- --- ------ ----- ------- ---- -- --- ------- --<br>------- ---------- ------ -- ----- -- ----- -- ---- ------<br>--- ----- --- --- ------ -------- ----- --- ------ ----- --<br>----- ----- plummeted, --- --- ------ ------ ---- -- ------<br>------- --- ------ ----- --- ---- ------- -- ---- --- --<br>------- ------",237852,237851.10000000894,237270.514,237279.20000000298,237286.864,237870.42,,35,"plummeted,"
screen,html.Screen,2_1_1_1_36,2022-02-01T12:05:08.251Z,,,,,,,,,,,,,,,,,54,,,,,,,,,,,,,,444.3800000119081,,response,,,,100,,,,,,,Space,keypress(Space),,,,,,,,-- --- ---- --- ------ ----- ------- ---- -- --- ------- --<br>------- ---------- ------ -- ----- -- ----- -- ---- ------<br>--- ----- --- --- ------ -------- ----- --- ------ ----- --<br>----- ----- ---------- and --- ------ ------ ---- -- ------<br>------- --- ------ ----- --- ---- ------- -- ---- --- --<br>------- ------,238315.80000001192,238314.80000001192,237853.228,237852.20000000298,237870.42,238319.663,,36,and
screen,html.Screen,2_1_1_1_37,2022-02-01T12:05:08.567Z,,,,,,,,,,,,,,,,,54,,,,,,,,,,,,,,310.93700000894023,,response,,,,100,,,,,,,Space,keypress(Space),,,,,,,,-- --- ---- --- ------ ----- ------- ---- -- --- ------- --<br>------- ---------- ------ -- ----- -- ----- -- ---- ------<br>--- ----- --- --- ------ -------- ----- --- ------ ----- --<br>----- ----- ---------- --- the ------ ------ ---- -- ------<br>------- --- ------ ----- --- ---- ------- -- ---- --- --<br>------- ------,238631.40000000596,238630.60000000894,238303.107,238315.90000000596,238319.663,238636.221,,37,the
screen,html.Screen,2_1_1_1_38,2022-02-01T12:05:10.681Z,,,,,,,,,,,,,,,,,54,,,,,,,,,,,,,,2108.47900000299,,response,,,,100,,,,,,,Space,keypress(Space),,,,,,,,-- --- ---- --- ------ ----- ------- ---- -- --- ------- --<br>------- ---------- ------ -- ----- -- ----- -- ---- ------<br>--- ----- --- --- ------ -------- ----- --- ------ ----- --<br>----- ----- ---------- --- --- market ------ ---- -- ------<br>------- --- ------ ----- --- ---- ------- -- ---- --- --<br>------- ------,240745.60000000894,240744.70000000298,238619.657,238631.60000000894,238636.221,240752.367,,38,market
screen,html.Screen,2_1_1_1_39,2022-02-01T12:05:11.085Z,,,,,,,,,,,,,,,,,54,,,,,,,,,,,,,,396.2330000089423,,response,,,,100,,,,,,,Space,keypress(Space),,,,,,,,-- --- ---- --- ------ ----- ------- ---- -- --- ------- --<br>------- ---------- ------ -- ----- -- ----- -- ---- ------<br>--- ----- --- --- ------ -------- ----- --- ------ ----- --<br>----- ----- ---------- --- --- ------ became ---- -- ------<br>------- --- ------ ----- --- ---- ------- -- ---- --- --<br>------- ------,241149.5,241148.60000000894,240735.874,240745.90000000596,240752.367,241152.073,,39,became
screen,html.Screen,2_1_1_1_40,2022-02-01T12:05:11.499Z,,,,,,,,,,,,,,,,,54,,,,,,,,,,,,,,410.72700001191697,,response,,,,100,,,,,,,Space,keypress(Space),,,,,,,,-- --- ---- --- ------ ----- ------- ---- -- --- ------- --<br>------- ---------- ------ -- ----- -- ----- -- ---- ------<br>--- ----- --- --- ------ -------- ----- --- ------ ----- --<br>----- ----- ---------- --- --- ------ ------ wary -- ------<br>------- --- ------ ----- --- ---- ------- -- ---- --- --<br>------- ------,241563.80000001192,241562.80000001192,241135.892,241149.70000000298,241152.073,241602.418,,40,wary
screen,html.Screen,2_1_1_1_41,2022-02-01T12:05:11.910Z,,,,,,,,,,,,,,,,,54,,,,,,,,,,,,,,371.0819999999949,,response,,,,100,,,,,,,Space,keypress(Space),,,,,,,,-- --- ---- --- ------ ----- ------- ---- -- --- ------- --<br>------- ---------- ------ -- ----- -- ----- -- ---- ------<br>--- ----- --- --- ------ -------- ----- --- ------ ----- --<br>----- ----- ---------- --- --- ------ ------ ---- of ------<br>------- --- ------ ----- --- ---- ------- -- ---- --- --<br>------- ------,241974.40000000596,241973.5,241585.649,241564.10000000894,241602.418,241985.323,,41,of
screen,html.Screen,2_1_1_1_42,2022-02-01T12:05:12.333Z,,,,,,,,,,,,,,,,,54,,,,,,,,,,,,,,411.77700000893674,,response,,,,100,,,,,,,Space,keypress(Space),,,,,,,,-- --- ---- --- ------ ----- ------- ---- -- --- ------- --<br>------- ---------- ------ -- ----- -- ----- -- ---- ------<br>--- ----- --- --- ------ -------- ----- --- ------ ----- --<br>----- ----- ---------- --- --- ------ ------ ---- -- French<br>------- --- ------ ----- --- ---- ------- -- ---- --- --<br>------- ------,242398,242397.10000000894,241968.786,241974.70000000298,241985.323,242401.641,,42,French
screen,html.Screen,2_1_1_1_43,2022-02-01T12:05:12.732Z,,,,,,,,,,,,,,,,,54,,,,,,,,,,,,,,394.35899999999674,,response,,,,100,,,,,,,Space,keypress(Space),,,,,,,,-- --- ---- --- ------ ----- ------- ---- -- --- ------- --<br>------- ---------- ------ -- ----- -- ----- -- ---- ------<br>--- ----- --- --- ------ -------- ----- --- ------ ----- --<br>----- ----- ---------- --- --- ------ ------ ---- -- ------<br>credit. --- ------ ----- --- ---- ------- -- ---- --- --<br>------- ------,242796.30000001192,242796,242385.431,242398.20000000298,242401.641,242801.557,,43,credit.
screen,html.Screen,2_1_1_1_44,2022-02-01T12:05:13.161Z,,,,,,,,,,,,,,,,,54,,,,,,,,,,,,,,423.04300000894,,response,,,,100,,,,,,,Space,keypress(Space),,,,,,,,-- --- ---- --- ------ ----- ------- ---- -- --- ------- --<br>------- ---------- ------ -- ----- -- ----- -- ---- ------<br>--- ----- --- --- ------ -------- ----- --- ------ ----- --<br>----- ----- ---------- --- --- ------ ------ ---- -- ------<br>------- The ------ ----- --- ---- ------- -- ---- --- --<br>------- ------,243225.5,243224.60000000894,242785.293,242796.5,242801.557,243234.742,,44,The
screen,html.Screen,2_1_1_1_45,2022-02-01T12:05:13.485Z,,,,,,,,,,,,,,,,,54,,,,,,,,,,,,,,313.6580000059621,,response,,,,100,,,,,,,Space,keypress(Space),,,,,,,,-- --- ---- --- ------ ----- ------- ---- -- --- ------- --<br>------- ---------- ------ -- ----- -- ----- -- ---- ------<br>--- ----- --- --- ------ -------- ----- --- ------ ----- --<br>----- ----- ---------- --- --- ------ ------ ---- -- ------<br>------- --- French ----- --- ---- ------- -- ---- --- --<br>------- ------,243549.20000000298,243548.40000000596,243217.984,243225.80000001192,243234.742,243567.99,,45,French
screen,html.Screen,2_1_1_1_46,2022-02-01T12:05:13.862Z,,,,,,,,,,,,,,,,,54,,,,,,,,,,,,,,357.5100000000093,,response,,,,100,,,,,,,Space,keypress(Space),,,,,,,,-- --- ---- --- ------ ----- ------- ---- -- --- ------- --<br>------- ---------- ------ -- ----- -- ----- -- ---- ------<br>--- ----- --- --- ------ -------- ----- --- ------ ----- --<br>----- ----- ---------- --- --- ------ ------ ---- -- ------<br>------- --- ------ state --- ---- ------- -- ---- --- --<br>------- ------,243926.40000000596,243925.5,243551.223,243549.5,243567.99,243934.584,,46,state
screen,html.Screen,2_1_1_1_47,2022-02-01T12:05:14.267Z,,,,,,,,,,,,,,,,,54,,,,,,,,,,,,,,396.3160000059579,,response,,,,100,,,,,,,Space,keypress(Space),,,,,,,,-- --- ---- --- ------ ----- ------- ---- -- --- ------- --<br>------- ---------- ------ -- ----- -- ----- -- ---- ------<br>--- ----- --- --- ------ -------- ----- --- ------ ----- --<br>----- ----- ---------- --- --- ------ ------ ---- -- ------<br>------- --- ------ ----- was ---- ------- -- ---- --- --<br>------- ------,244331.90000000596,244330.90000000596,243917.894,243926.60000000894,243934.584,244357.955,,47,was
screen,html.Screen,2_1_1_1_48,2022-02-01T12:05:14.656Z,,,,,,,,,,,,,,,,,54,,,,,,,,,,,,,,362.6450000089535,,response,,,,100,,,,,,,Space,keypress(Space),,,,,,,,-- --- ---- --- ------ ----- ------- ---- -- --- ------- --<br>------- ---------- ------ -- ----- -- ----- -- ---- ------<br>--- ----- --- --- ------ -------- ----- --- ------ ----- --<br>----- ----- ---------- --- --- ------ ------ ---- -- ------<br>------- --- ------ ----- --- left ------- -- ---- --- --<br>------- ------,244720.90000000596,244720.60000000894,244318.11,244332.10000000894,244357.955,244734.464,,48,left
screen,html.Screen,2_1_1_1_49,2022-02-01T12:05:15.028Z,,,,,,,,,,,,,,,,,54,,,,,,,,,,,,,,357.3360000119137,,response,,,,100,,,,,,,Space,keypress(Space),,,,,,,,-- --- ---- --- ------ ----- ------- ---- -- --- ------- --<br>------- ---------- ------ -- ----- -- ----- -- ---- ------<br>--- ----- --- --- ------ -------- ----- --- ------ ----- --<br>----- ----- ---------- --- --- ------ ------ ---- -- ------<br>------- --- ------ ----- --- ---- without -- ---- --- --<br>------- ------,245092.20000000298,245091.80000001192,244717.829,244721,244734.464,245101.282,,49,without
screen,html.Screen,2_1_1_1_50,2022-02-01T12:05:15.399Z,,,,,,,,,,,,,,,,,54,,,,,,,,,,,,,,361.8180000089342,,response,,,,100,,,,,,,Space,keypress(Space),,,,,,,,-- --- ---- --- ------ ----- ------- ---- -- --- ------- --<br>------- ---------- ------ -- ----- -- ----- -- ---- ------<br>--- ----- --- --- ------ -------- ----- --- ------ ----- --<br>----- ----- ---------- --- --- ------ ------ ---- -- ------<br>------- --- ------ ----- --- ---- ------- an ---- --- --<br>------- ------,245463.90000000596,245463.10000000894,245084.513,245092.30000001192,245101.282,245467.263,,50,an
screen,html.Screen,2_1_1_1_51,2022-02-01T12:05:15.776Z,,,,,,,,,,,,,,,,,54,,,,,,,,,,,,,,372.1370000059542,,response,,,,100,,,,,,,Space,keypress(Space),,,,,,,,-- --- ---- --- ------ ----- ------- ---- -- --- ------- --<br>------- ---------- ------ -- ----- -- ----- -- ---- ------<br>--- ----- --- --- ------ -------- ----- --- ------ ----- --<br>----- ----- ---------- --- --- ------ ------ ---- -- ------<br>------- --- ------ ----- --- ---- ------- -- easy --- --<br>------- ------,245840.40000000596,245839.40000000596,245450.845,245464.20000000298,245467.263,245850.663,,51,easy
screen,html.Screen,2_1_1_1_52,2022-02-01T12:05:16.224Z,,,,,,,,,,,,,,,,,54,,,,,,,,,,,,,,437.13700001192046,,response,,,,100,,,,,,,Space,keypress(Space),,,,,,,,-- --- ---- --- ------ ----- ------- ---- -- --- ------- --<br>------- ---------- ------ -- ----- -- ----- -- ---- ------<br>--- ----- --- --- ------ -------- ----- --- ------ ----- --<br>----- ----- ---------- --- --- ------ ------ ---- -- ------<br>------- --- ------ ----- --- ---- ------- -- ---- way --<br>------- ------,246288.70000000298,246287.80000001192,245833.831,245840.70000000298,245850.663,246300.755,,52,way
screen,html.Screen,2_1_1_1_53,2022-02-01T12:05:16.940Z,,,,,,,,,,,,,,,,,54,,,,,,,,,,,,,,703.2449999999953,,response,,,,100,,,,,,,Space,keypress(Space),,,,,,,,-- --- ---- --- ------ ----- ------- ---- -- --- ------- --<br>------- ---------- ------ -- ----- -- ----- -- ---- ------<br>--- ----- --- --- ------ -------- ----- --- ------ ----- --<br>----- ----- ---------- --- --- ------ ------ ---- -- ------<br>------- --- ------ ----- --- ---- ------- -- ---- --- of<br>------- ------,247004.5,247004,246283.742,246289,246300.755,247017.202,,53,of
screen,html.Screen,2_1_1_1_54,2022-02-01T12:05:17.358Z,,,,,,,,,,,,,,,,,54,,,,,,,,,,,,,,404.69800000597024,,response,,,,100,,,,,,,Space,keypress(Space),,,,,,,,-- --- ---- --- ------ ----- ------- ---- -- --- ------- --<br>------- ---------- ------ -- ----- -- ----- -- ---- ------<br>--- ----- --- --- ------ -------- ----- --- ------ ----- --<br>----- ----- ---------- --- --- ------ ------ ---- -- ------<br>------- --- ------ ----- --- ---- ------- -- ---- --- --<br>raising ------,247423,247421.90000000596,247000.22,247004.60000000894,247017.202,247433.455,,54,raising
screen,html.Screen,2_1_1_1_55,2022-02-01T12:05:17.712Z,,,,,,,,,,,,,,,,,54,,,,,,,,,,,,,,342.84500001193373,,response,,,,100,,,,,,,Space,keypress(Space),,,,,,,,-- --- ---- --- ------ ----- ------- ---- -- --- ------- --<br>------- ---------- ------ -- ----- -- ----- -- ---- ------<br>--- ----- --- --- ------ -------- ----- --- ------ ----- --<br>----- ----- ---------- --- --- ------ ------ ---- -- ------<br>------- --- ------ ----- --- ---- ------- -- ---- --- --<br>------- money.,247776.80000001192,247776.30000001192,247416.803,247423.20000000298,247433.455,247783.17,,55,money.
Item 100,flow.Loop,2_1_1_1,2022-02-01T12:05:17.712Z,,,,,,,,,,,,,,,,,,,,,,,,,,,,,,,25601.140000011917,,completion,,,,,A,,,,,,,,,,,silence,,,,,247777,247776.30000001192,222159.014,222163.10000000894,222175.16,247783.17,,,
Question 1,html.Screen,2_1_1_2,2022-02-01T12:05:22.164Z,,,,,,,,,,,,,,,,,,,,,,,,,,,,false,TRUE,,4444.230000005948,,response,,,,100,A,,,,,,FALSE,click #choice-2,,,,silence,,,,,252228.20000000298,252227.40000000596,247766.938,247777.10000000894,247783.17,252231.576,,,
Question 2,html.Screen,2_1_1_3,2022-02-01T12:05:25.027Z,,,,,,,,,,,,,,,,,,,,,,,,,,,,true,FALSE,,2858.8240000059595,,response,,,,100,A,,,,,,FALSE,click #choice-2,,,,silence,,,,,255091.30000001192,255090.40000000596,252215.438,252228.30000001192,252231.576,255097.302,,,
Item 100,flow.Sequence,2_1_1,2022-02-01T12:05:25.027Z,,,,,,,,,,,,,,,,,,,,,,,,,,,,,,,42911.847000005946,,completion,,,,,,,,,,,,,,,,,,,,,255091.5,255090.40000000596,212162.573,212177,212178.553,255097.302,,,
End of Practice,html.Page,2_1_2,2022-02-01T12:05:29.655Z,,,,,,,,,,,,,,,,,,,,,,,,,,,,,,,4622.298000008945,,form submission,,,,,,,,,,,,,,,,,,,,,259720,259719.60000000894,255081.247,255091.60000000894,255097.302,259729.172,,,
Practice,flow.Sequence,2_1,2022-02-01T12:05:29.656Z,,,,,,,,,,,,,,,,,,,,,,,,,,,,,,,109019.94300000893,,completion,,,,,,,,,,,,,,,,,,,,,259720.10000000894,259719.60000000894,150683.147,150684.90000000596,150699.657,259729.172,,,
Trap_instruction,html.Page,2_2_0,2022-02-01T12:05:36.129Z,,,,,,,,,,,,,,,,,,,,,,,,,,,,,,,6463.6280000119295,,form submission,,,,,,,,,,,,,,,,,,,,,266193.10000000894,266192.8000000119,259712.397,259720.30000001192,259729.172,266210.152,,,
trap_trial,html.Screen,2_2_1,2022-02-01T12:05:39.921Z,,,,,,,,,,,,,,,,,,,,,,,,,,,,true,1,,3774.347999999998,,response,,,,,,,,,,,1,click #choice-1,,,,,,,,,269985.5,269984.5,266177.366,266193.200000003,266210.152,269992.212,,,
end of trap trial,html.Page,2_2_2,2022-02-01T12:05:42.560Z,,,,,,,,,,,,,,,,,,,,,,,,,,,,,,,2631.5880000119214,,form submission,,,,,,,,,,,,,,,,,,,,,272624.10000000894,272623.8000000119,269975.629,269985.700000003,269992.212,272650.933,,,
Trap 1,flow.Sequence,2_2,2022-02-01T12:05:42.560Z,,,,,,,,,,,,,,,,,,,,,,,,,,,,,,,12894.62800001193,,completion,,,,,,,,,,,,,,,,,,,,,272624.40000000596,272623.8000000119,259712.397,259720.30000001192,259729.172,272650.933,,,
Standby,html.Page,2_3_0,2022-02-01T12:05:50.576Z,,,,,,,,,,,,,,,,,,,,,,,,,,,,,,,8004.902000000002,,timeout,,,,,,,,,,,,,,,,,,,,,280640.3000000119,280639.091,272608.366,272624.5,272650.933,280655.835,,,
Holding screen,html.Screen,2_3_1_0_0,2022-02-01T12:05:57.575Z,,,,,,,,,,,,,,,,,,,,,,,,,,,,,,,6997.092000000004,,timeout,,,,,,,,,,,,,,,,,,,,,287638.8000000119,287636.192,280639.091,280640.700000003,280655.835,287652.927,,,
screen,html.Screen,2_3_1_0_1_0,2022-02-01T12:05:59.286Z,,,,,,,,,,,,,,,,,11,,,,,,,,,,,,,,1696.3730000118958,,response,,,,4,A,,,,,,Space,keypress(Space),,,,silence,,,,Known -- ---- --- -- --- -------- ------------ ---------- --<br>- ------- ------ --------- -- ------------ -- --- ---- -----<br>------ ---- ---- ------ ------ ------- --- ----- ---------<br>---- --- -------- -------- --- --- -- ------- --- --- -----<br>-- --- ------ ------- --- --- -------- ---- --------- --<br>---------- -- -------- ----------------,289350.5,289349.3000000119,287636.192,287638.90000000596,287652.927,289352.331,,0,Known
screen,html.Screen,2_3_1_0_1_1,2022-02-01T12:05:59.683Z,,,,,,,,,,,,,,,,,11,,,,,,,,,,,,,,393.96900001191534,,response,,,,4,A,,,,,,Space,keypress(Space),,,,silence,,,,----- as ---- --- -- --- -------- ------------ ---------- --<br>- ------- ------ --------- -- ------------ -- --- ---- -----<br>------ ---- ---- ------ ------ ------- --- ----- ---------<br>---- --- -------- -------- --- --- -- ------- --- --- -----<br>-- --- ------ ------- --- --- -------- ---- --------- --<br>---------- -- -------- ----------------,289747.40000000596,289746.3000000119,289335.597,289350.90000000596,289352.331,289752.227,,1,as
screen,html.Screen,2_3_1_0_1_2,2022-02-01T12:06:00.000Z,,,,,,,,,,,,,,,,,11,,,,,,,,,,,,,,310.4730000029667,,response,,,,4,A,,,,,,Space,keypress(Space),,,,silence,,,,----- -- Rapa --- -- --- -------- ------------ ---------- --<br>- ------- ------ --------- -- ------------ -- --- ---- -----<br>------ ---- ---- ------ ------ ------- --- ----- ---------<br>---- --- -------- -------- --- --- -- ------- --- --- -----<br>-- --- ------ ------- --- --- -------- ---- --------- --<br>---------- -- -------- ----------------,290063.8000000119,290062.700000003,289736.07,289747.60000000894,289752.227,290068.78,,2,Rapa
screen,html.Screen,2_3_1_0_1_3,2022-02-01T12:06:00.570Z,,,,,,,,,,,,,,,,,11,,,,,,,,,,,,,,564.1200000059325,,response,,,,4,A,,,,,,Space,keypress(Space),,,,silence,,,,----- -- ---- Nui -- --- -------- ------------ ---------- --<br>- ------- ------ --------- -- ------------ -- --- ---- -----<br>------ ---- ---- ------ ------ ------- --- ----- ---------<br>---- --- -------- -------- --- --- -- ------- --- --- -----<br>-- --- ------ ------- --- --- -------- ---- --------- --<br>---------- -- -------- ----------------,290633.8000000119,290632.90000000596,290052.514,290064,290068.78,290652.106,,3,Nui
screen,html.Screen,2_3_1_0_1_4,2022-02-01T12:06:01.068Z,,,,,,,,,,,,,,,,,11,,,,,,,,,,,,,,478.9940000089118,,response,,,,4,A,,,,,,Space,keypress(Space),,,,silence,,,,----- -- ---- --- to --- -------- ------------ ---------- --<br>- ------- ------ --------- -- ------------ -- --- ---- -----<br>------ ---- ---- ------ ------ ------- --- ----- ---------<br>---- --- -------- -------- --- --- -- ------- --- --- -----<br>-- --- ------ ------- --- --- -------- ---- --------- --<br>---------- -- -------- ----------------,291132.200000003,291131.10000000894,290618.591,290634,290652.106,291135.066,,4,to
screen,html.Screen,2_3_1_0_1_5,2022-02-01T12:06:01.412Z,,,,,,,,,,,,,,,,,11,,,,,,,,,,,,,,340.6340000029886,,response,,,,4,A,,,,,,Space,keypress(Space),,,,silence,,,,----- -- ---- --- -- the -------- ------------ ---------- --<br>- ------- ------ --------- -- ------------ -- --- ---- -----<br>------ ---- ---- ------ ------ ------- --- ----- ---------<br>---- --- -------- -------- --- --- -- ------- --- --- -----<br>-- --- ------ ------- --- --- -------- ---- --------- --<br>---------- -- -------- ----------------,291476.60000000894,291475.700000003,291118.844,291132.40000000596,291135.066,291485.123,,5,the
screen,html.Screen,2_3_1_0_1_6,2022-02-01T12:06:01.798Z,,,,,,,,,,,,,,,,,11,,,,,,,,,,,,,,376.9770000089193,,response,,,,4,A,,,,,,Space,keypress(Space),,,,silence,,,,----- -- ---- --- -- --- island's ------------ ---------- --<br>- ------- ------ --------- -- ------------ -- --- ---- -----<br>------ ---- ---- ------ ------ ------- --- ----- ---------<br>---- --- -------- -------- --- --- -- ------- --- --- -----<br>-- --- ------ ------- --- --- -------- ---- --------- --<br>---------- -- -------- ----------------,291862.60000000894,291862.10000000894,291468.317,291476.8000000119,291485.123,291868.094,,6,island's
screen,html.Screen,2_3_1_0_1_7,2022-02-01T12:06:02.677Z,,,,,,,,,,,,,,,,,11,,,,,,,,,,,,,,872.6060000029975,,response,,,,4,A,,,,,,Space,keypress(Space),,,,silence,,,,"----- -- ---- --- -- --- -------- inhabitants, ---------- --<br>- ------- ------ --------- -- ------------ -- --- ---- -----<br>------ ---- ---- ------ ------ ------- --- ----- ---------<br>---- --- -------- -------- --- --- -- ------- --- --- -----<br>-- --- ------ ------- --- --- -------- ---- --------- --<br>---------- -- -------- ----------------",292741.10000000894,292740.700000003,291851.528,291862.60000000894,291868.094,292751.157,,7,"inhabitants,"
screen,html.Screen,2_3_1_0_1_8,2022-02-01T12:06:03.793Z,,,,,,,,,,,,,,,,,11,,,,,,,,,,,,,,1105.1430000119144,,response,,,,4,A,,,,,,Space,keypress(Space),,,,silence,,,,----- -- ---- --- -- --- -------- ------------ Rongorongo --<br>- ------- ------ --------- -- ------------ -- --- ---- -----<br>------ ---- ---- ------ ------ ------- --- ----- ---------<br>---- --- -------- -------- --- --- -- ------- --- --- -----<br>-- --- ------ ------- --- --- -------- ---- --------- --<br>---------- -- -------- ----------------,293856.700000003,293856.3000000119,292734.487,292741.3000000119,292751.157,293868.061,,8,Rongorongo
screen,html.Screen,2_3_1_0_1_9,2022-02-01T12:06:04.272Z,,,,,,,,,,,,,,,,,11,,,,,,,,,,,,,,467.03900000895374,,response,,,,4,A,,,,,,Space,keypress(Space),,,,silence,,,,----- -- ---- --- -- --- -------- ------------ ---------- is<br>- ------- ------ --------- -- ------------ -- --- ---- -----<br>------ ---- ---- ------ ------ ------- --- ----- ---------<br>---- --- -------- -------- --- --- -- ------- --- --- -----<br>-- --- ------ ------- --- --- -------- ---- --------- --<br>---------- -- -------- ----------------,294336.10000000894,294335.10000000894,293850.975,293856.90000000596,293868.061,294350.652,,9,is
screen,html.Screen,2_3_1_0_1_10,2022-02-01T12:06:04.665Z,,,,,,,,,,,,,,,,,11,,,,,,,,,,,,,,377.44800000893883,,response,,,,4,A,,,,,,Space,keypress(Space),,,,silence,,,,----- -- ---- --- -- --- -------- ------------ ---------- --<br>a ------- ------ --------- -- ------------ -- --- ---- -----<br>------ ---- ---- ------ ------ ------- --- ----- ---------<br>---- --- -------- -------- --- --- -- ------- --- --- -----<br>-- --- ------ ------- --- --- -------- ---- --------- --<br>---------- -- -------- ----------------,294729.200000003,294728.10000000894,294334.471,294336.3000000119,294350.652,294733.858,,10,a
screen,html.Screen,2_3_1_0_1_11,2022-02-01T12:06:05.176Z,,,,,,,,,,,,,,,,,11,,,,,,,,,,,,,,505.14199999999255,,response,,,,4,A,,,,,,Space,keypress(Space),,,,silence,,,,----- -- ---- --- -- --- -------- ------------ ---------- --<br>- writing ------ --------- -- ------------ -- --- ---- -----<br>------ ---- ---- ------ ------ ------- --- ----- ---------<br>---- --- -------- -------- --- --- -- ------- --- --- -----<br>-- --- ------ ------- --- --- -------- ---- --------- --<br>---------- -- -------- ----------------,295239.8000000119,295239,294717.436,294729.40000000596,294733.858,295250.658,,11,writing
screen,html.Screen,2_3_1_0_1_12,2022-02-01T12:06:05.533Z,,,,,,,,,,,,,,,,,11,,,,,,,,,,,,,,345.24200000596466,,response,,,,4,A,,,,,,Space,keypress(Space),,,,silence,,,,----- -- ---- --- -- --- -------- ------------ ---------- --<br>- ------- system --------- -- ------------ -- --- ---- -----<br>------ ---- ---- ------ ------ ------- --- ----- ---------<br>---- --- -------- -------- --- --- -- ------- --- --- -----<br>-- --- ------ ------- --- --- -------- ---- --------- --<br>---------- -- -------- ----------------,295597,295595.90000000596,295234.141,295240,295250.658,295600.218,,12,system
screen,html.Screen,2_3_1_0_1_13,2022-02-01T12:06:05.961Z,,,,,,,,,,,,,,,,,11,,,,,,,,,,,,,,424.682000005967,,response,,,,4,A,,,,,,Space,keypress(Space),,,,silence,,,,----- -- ---- --- -- --- -------- ------------ ---------- --<br>- ------- ------ comprised -- ------------ -- --- ---- -----<br>------ ---- ---- ------ ------ ------- --- ----- ---------<br>---- --- -------- -------- --- --- -- ------- --- --- -----<br>-- --- ------ ------- --- --- -------- ---- --------- --<br>---------- -- -------- ----------------,296025.40000000596,296024.90000000596,295583.505,295597.200000003,295600.218,296033.504,,13,comprised
screen,html.Screen,2_3_1_0_1_14,2022-02-01T12:06:06.381Z,,,,,,,,,,,,,,,,,11,,,,,,,,,,,,,,411.19600000296487,,response,,,,4,A,,,,,,Space,keypress(Space),,,,silence,,,,----- -- ---- --- -- --- -------- ------------ ---------- --<br>- ------- ------ --------- of ------------ -- --- ---- -----<br>------ ---- ---- ------ ------ ------- --- ----- ---------<br>---- --- -------- -------- --- --- -- ------- --- --- -----<br>-- --- ------ ------- --- --- -------- ---- --------- --<br>---------- -- -------- ----------------,296445.3000000119,296444.700000003,296016.707,296025.40000000596,296033.504,296450.032,,14,of
screen,html.Screen,2_3_1_0_1_15,2022-02-01T12:06:08.194Z,,,,,,,,,,,,,,,,,11,,,,,,,,,,,,,,1806.868000005954,,response,,,,4,A,,,,,,Space,keypress(Space),,,,silence,,,,----- -- ---- --- -- --- -------- ------------ ---------- --<br>- ------- ------ --------- -- pictographs. -- --- ---- -----<br>------ ---- ---- ------ ------ ------- --- ----- ---------<br>---- --- -------- -------- --- --- -- ------- --- --- -----<br>-- --- ------ ------- --- --- -------- ---- --------- --<br>---------- -- -------- ----------------,298258,298256.90000000596,296433.687,296445.3000000119,296450.032,298266.401,,15,pictographs.
screen,html.Screen,2_3_1_0_1_16,2022-02-01T12:06:08.646Z,,,,,,,,,,,,,,,,,11,,,,,,,,,,,,,,442.4990000059479,,response,,,,4,A,,,,,,Space,keypress(Space),,,,silence,,,,----- -- ---- --- -- --- -------- ------------ ---------- --<br>- ------- ------ --------- -- ------------ It --- ---- -----<br>------ ---- ---- ------ ------ ------- --- ----- ---------<br>---- --- -------- -------- --- --- -- ------- --- --- -----<br>-- --- ------ ------- --- --- -------- ---- --------- --<br>---------- -- -------- ----------------,298709.8000000119,298708.90000000596,298249.332,298258.3000000119,298266.401,298715.813,,16,It
screen,html.Screen,2_3_1_0_1_17,2022-02-01T12:06:08.993Z,,,,,,,,,,,,,,,,,11,,,,,,,,,,,,,,340.28700000891695,,response,,,,4,A,,,,,,Space,keypress(Space),,,,silence,,,,----- -- ---- --- -- --- -------- ------------ ---------- --<br>- ------- ------ --------- -- ------------ -- has ---- -----<br>------ ---- ---- ------ ------ ------- --- ----- ---------<br>---- --- -------- -------- --- --- -- ------- --- --- -----<br>-- --- ------ ------- --- --- -------- ---- --------- --<br>---------- -- -------- ----------------,299057.10000000894,299056.10000000894,298699.731,298710.10000000894,298715.813,299065.867,,17,has
screen,html.Screen,2_3_1_0_1_18,2022-02-01T12:06:09.305Z,,,,,,,,,,,,,,,,,11,,,,,,,,,,,,,,301.93300001189345,,response,,,,4,A,,,,,,Space,keypress(Space),,,,silence,,,,----- -- ---- --- -- --- -------- ------------ ---------- --<br>- ------- ------ --------- -- ------------ -- --- been -----<br>------ ---- ---- ------ ------ ------- --- ----- ---------<br>---- --- -------- -------- --- --- -- ------- --- --- -----<br>-- --- ------ ------- --- --- -------- ---- --------- --<br>---------- -- -------- ----------------,299368.8000000119,299367.8000000119,299049.529,299057.3000000119,299065.867,299382.55,,18,been
screen,html.Screen,2_3_1_0_1_19,2022-02-01T12:06:09.625Z,,,,,,,,,,,,,,,,,11,,,,,,,,,,,,,,305.45000000001164,,response,,,,4,A,,,,,,Space,keypress(Space),,,,silence,,,,----- -- ---- --- -- --- -------- ------------ ---------- --<br>- ------- ------ --------- -- ------------ -- --- ---- found<br>------ ---- ---- ------ ------ ------- --- ----- ---------<br>---- --- -------- -------- --- --- -- ------- --- --- -----<br>-- --- ------ ------- --- --- -------- ---- --------- --<br>---------- -- -------- ----------------,299688.90000000596,299688,299366.077,299369,299382.55,299698.815,,19,found
screen,html.Screen,2_3_1_0_1_20,2022-02-01T12:06:10.001Z,,,,,,,,,,,,,,,,,11,,,,,,,,,,,,,,365.28500000893837,,response,,,,4,A,,,,,,Space,keypress(Space),,,,silence,,,,----- -- ---- --- -- --- -------- ------------ ---------- --<br>- ------- ------ --------- -- ------------ -- --- ---- -----<br>carved ---- ---- ------ ------ ------- --- ----- ---------<br>---- --- -------- -------- --- --- -- ------- --- --- -----<br>-- --- ------ ------- --- --- -------- ---- --------- --<br>---------- -- -------- ----------------,300065.10000000894,300064.10000000894,299682.608,299689.10000000894,299698.815,300082.06,,20,carved
screen,html.Screen,2_3_1_0_1_21,2022-02-01T12:06:10.581Z,,,,,,,,,,,,,,,,,11,,,,,,,,,,,,,,561.7400000119233,,response,,,,4,A,,,,,,Space,keypress(Space),,,,silence,,,,----- -- ---- --- -- --- -------- ------------ ---------- --<br>- ------- ------ --------- -- ------------ -- --- ---- -----<br>------ into ---- ------ ------ ------- --- ----- ---------<br>---- --- -------- -------- --- --- -- ------- --- --- -----<br>-- --- ------ ------- --- --- -------- ---- --------- --<br>---------- -- -------- ----------------,300644.8000000119,300643.8000000119,300065.507,300065.200000003,300082.06,300648.566,,21,into
screen,html.Screen,2_3_1_0_1_22,2022-02-01T12:06:10.926Z,,,,,,,,,,,,,,,,,11,,,,,,,,,,,,,,341.5340000089491,,response,,,,4,A,,,,,,Space,keypress(Space),,,,silence,,,,----- -- ---- --- -- --- -------- ------------ ---------- --<br>- ------- ------ --------- -- ------------ -- --- ---- -----<br>------ ---- many ------ ------ ------- --- ----- ---------<br>---- --- -------- -------- --- --- -- ------- --- --- -----<br>-- --- ------ ------- --- --- -------- ---- --------- --<br>---------- -- -------- ----------------,300990.5,300990.10000000894,300632.088,300645.10000000894,300648.566,300998.653,,22,many
screen,html.Screen,2_3_1_0_1_23,2022-02-01T12:06:11.343Z,,,,,,,,,,,,,,,,,11,,,,,,,,,,,,,,407.2470000059693,,response,,,,4,A,,,,,,Space,keypress(Space),,,,silence,,,,----- -- ---- --- -- --- -------- ------------ ---------- --<br>- ------- ------ --------- -- ------------ -- --- ---- -----<br>------ ---- ---- oblong ------ ------- --- ----- ---------<br>---- --- -------- -------- --- --- -- ------- --- --- -----<br>-- --- ------ ------- --- --- -------- ---- --------- --<br>---------- -- -------- ----------------,301406.8000000119,301405.90000000596,300981.733,300990.5,300998.653,301415.024,,23,oblong
screen,html.Screen,2_3_1_0_1_24,2022-02-01T12:06:11.899Z,,,,,,,,,,,,,,,,,11,,,,,,,,,,,,,,546.7760000119451,,response,,,,4,A,,,,,,Space,keypress(Space),,,,silence,,,,----- -- ---- --- -- --- -------- ------------ ---------- --<br>- ------- ------ --------- -- ------------ -- --- ---- -----<br>------ ---- ---- ------ wooden ------- --- ----- ---------<br>---- --- -------- -------- --- --- -- ------- --- --- -----<br>-- --- ------ ------- --- --- -------- ---- --------- --<br>---------- -- -------- ----------------,301962.8000000119,301961.8000000119,301398.188,301407,301415.024,301987.824,,24,wooden
screen,html.Screen,2_3_1_0_1_25,2022-02-01T12:06:13.468Z,,,,,,,,,,,,,,,,,11,,,,,,,,,,,,,,1543.576000005938,,response,,,,4,A,,,,,,Space,keypress(Space),,,,silence,,,,----- -- ---- --- -- --- -------- ------------ ---------- --<br>- ------- ------ --------- -- ------------ -- --- ---- -----<br>------ ---- ---- ------ ------ tablets --- ----- ---------<br>---- --- -------- -------- --- --- -- ------- --- --- -----<br>-- --- ------ ------- --- --- -------- ---- --------- --<br>---------- -- -------- ----------------,303532.40000000596,303531.40000000596,301948.03,301963.10000000894,301987.824,303547.774,,25,tablets
screen,html.Screen,2_3_1_0_1_26,2022-02-01T12:06:13.829Z,,,,,,,,,,,,,,,,,11,,,,,,,,,,,,,,344.1260000059847,,response,,,,4,A,,,,,,Space,keypress(Space),,,,silence,,,,----- -- ---- --- -- --- -------- ------------ ---------- --<br>- ------- ------ --------- -- ------------ -- --- ---- -----<br>------ ---- ---- ------ ------ ------- and ----- ---------<br>---- --- -------- -------- --- --- -- ------- --- --- -----<br>-- --- ------ ------- --- --- -------- ---- --------- --<br>---------- -- -------- ----------------,303892.90000000596,303891.90000000596,303531.013,303532.700000003,303547.774,303914.63,,26,and
screen,html.Screen,2_3_1_0_1_27,2022-02-01T12:06:14.661Z,,,,,,,,,,,,,,,,,11,,,,,,,,,,,,,,809.0700000029756,,response,,,,4,A,,,,,,Space,keypress(Space),,,,silence,,,,----- -- ---- --- -- --- -------- ------------ ---------- --<br>- ------- ------ --------- -- ------------ -- --- ---- -----<br>------ ---- ---- ------ ------ ------- --- other ---------<br>---- --- -------- -------- --- --- -- ------- --- --- -----<br>-- --- ------ ------- --- --- -------- ---- --------- --<br>---------- -- -------- ----------------,304724.8000000119,304723.700000003,303880.755,303893.200000003,303914.63,304730.46,,27,other
screen,html.Screen,2_3_1_0_1_28,2022-02-01T12:06:15.197Z,,,,,,,,,,,,,,,,,11,,,,,,,,,,,,,,529.7400000029593,,response,,,,4,A,,,,,,Space,keypress(Space),,,,silence,,,,----- -- ---- --- -- --- -------- ------------ ---------- --<br>- ------- ------ --------- -- ------------ -- --- ---- -----<br>------ ---- ---- ------ ------ ------- --- ----- artifacts<br>---- --- -------- -------- --- --- -- ------- --- --- -----<br>-- --- ------ ------- --- --- -------- ---- --------- --<br>---------- -- -------- ----------------,305261.200000003,305260.200000003,304714.414,304725,304730.46,305263.598,,28,artifacts
screen,html.Screen,2_3_1_0_1_29,2022-02-01T12:06:15.800Z,,,,,,,,,,,,,,,,,11,,,,,,,,,,,,,,599.3020000059623,,response,,,,4,A,,,,,,Space,keypress(Space),,,,silence,,,,----- -- ---- --- -- --- -------- ------------ ---------- --<br>- ------- ------ --------- -- ------------ -- --- ---- -----<br>------ ---- ---- ------ ------ ------- --- ----- ---------<br>from --- -------- -------- --- --- -- ------- --- --- -----<br>-- --- ------ ------- --- --- -------- ---- --------- --<br>---------- -- -------- ----------------,305864,305862.90000000596,305246.894,305261.5,305263.598,305880.097,,29,from
screen,html.Screen,2_3_1_0_1_30,2022-02-01T12:06:16.106Z,,,,,,,,,,,,,,,,,11,,,,,,,,,,,,,,289.1030000029714,,response,,,,4,A,,,,,,Space,keypress(Space),,,,silence,,,,----- -- ---- --- -- --- -------- ------------ ---------- --<br>- ------- ------ --------- -- ------------ -- --- ---- -----<br>------ ---- ---- ------ ------ ------- --- ----- ---------<br>---- the -------- -------- --- --- -- ------- --- --- -----<br>-- --- ------ ------- --- --- -------- ---- --------- --<br>---------- -- -------- ----------------,306170.200000003,306169.200000003,305863.56,305864.200000003,305880.097,306180.167,,30,the
screen,html.Screen,2_3_1_0_1_31,2022-02-01T12:06:16.450Z,,,,,,,,,,,,,,,,,11,,,,,,,,,,,,,,333.1330000119051,,response,,,,4,A,,,,,,Space,keypress(Space),,,,silence,,,,----- -- ---- --- -- --- -------- ------------ ---------- --<br>- ------- ------ --------- -- ------------ -- --- ---- -----<br>------ ---- ---- ------ ------ ------- --- ----- ---------<br>---- --- island's -------- --- --- -- ------- --- --- -----<br>-- --- ------ ------- --- --- -------- ---- --------- --<br>---------- -- -------- ----------------,306514.40000000596,306513.3000000119,306163.258,306170.40000000596,306180.167,306530.068,,31,island's
screen,html.Screen,2_3_1_0_1_32,2022-02-01T12:06:16.876Z,,,,,,,,,,,,,,,,,11,,,,,,,,,,,,,,409.4319999999716,,response,,,,4,A,,,,,,Space,keypress(Space),,,,silence,,,,----- -- ---- --- -- --- -------- ------------ ---------- --<br>- ------- ------ --------- -- ------------ -- --- ---- -----<br>------ ---- ---- ------ ------ ------- --- ----- ---------<br>---- --- -------- history. --- --- -- ------- --- --- -----<br>-- --- ------ ------- --- --- -------- ---- --------- --<br>---------- -- -------- ----------------,306940.5,306939.5,306513.156,306514.60000000894,306530.068,306946.378,,32,history.
screen,html.Screen,2_3_1_0_1_33,2022-02-01T12:06:17.320Z,,,,,,,,,,,,,,,,,11,,,,,,,,,,,,,,436.5220000059344,,response,,,,4,A,,,,,,Space,keypress(Space),,,,silence,,,,----- -- ---- --- -- --- -------- ------------ ---------- --<br>- ------- ------ --------- -- ------------ -- --- ---- -----<br>------ ---- ---- ------ ------ ------- --- ----- ---------<br>---- --- -------- -------- The --- -- ------- --- --- -----<br>-- --- ------ ------- --- --- -------- ---- --------- --<br>---------- -- -------- ----------------,307383.700000003,307382.90000000596,306929.755,306940.700000003,306946.378,307396.818,,33,The
screen,html.Screen,2_3_1_0_1_34,2022-02-01T12:06:17.749Z,,,,,,,,,,,,,,,,,11,,,,,,,,,,,,,,414.8820000029518,,response,,,,4,A,,,,,,Space,keypress(Space),,,,silence,,,,----- -- ---- --- -- --- -------- ------------ ---------- --<br>- ------- ------ --------- -- ------------ -- --- ---- -----<br>------ ---- ---- ------ ------ ------- --- ----- ---------<br>---- --- -------- -------- --- art -- ------- --- --- -----<br>-- --- ------ ------- --- --- -------- ---- --------- --<br>---------- -- -------- ----------------,307812.700000003,307811.700000003,307379.557,307383.8000000119,307396.818,307829.68,,34,art
screen,html.Screen,2_3_1_0_1_35,2022-02-01T12:06:18.089Z,,,,,,,,,,,,,,,,,11,,,,,,,,,,,,,,322.6200000119279,,response,,,,4,A,,,,,,Space,keypress(Space),,,,silence,,,,----- -- ---- --- -- --- -------- ------------ ---------- --<br>- ------- ------ --------- -- ------------ -- --- ---- -----<br>------ ---- ---- ------ ------ ------- --- ----- ---------<br>---- --- -------- -------- --- --- of ------- --- --- -----<br>-- --- ------ ------- --- --- -------- ---- --------- --<br>---------- -- -------- ----------------,308153.3000000119,308152.3000000119,307813.018,307813,307829.68,308162.806,,35,of
screen,html.Screen,2_3_1_0_1_36,2022-02-01T12:06:18.537Z,,,,,,,,,,,,,,,,,11,,,,,,,,,,,,,,438.2940000089584,,response,,,,4,A,,,,,,Space,keypress(Space),,,,silence,,,,----- -- ---- --- -- --- -------- ------------ ---------- --<br>- ------- ------ --------- -- ------------ -- --- ---- -----<br>------ ---- ---- ------ ------ ------- --- ----- ---------<br>---- --- -------- -------- --- --- -- writing --- --- -----<br>-- --- ------ ------- --- --- -------- ---- --------- --<br>---------- -- -------- ----------------,308601.60000000894,308601.10000000894,308146.046,308153.60000000894,308162.806,308612.417,,36,writing
screen,html.Screen,2_3_1_0_1_37,2022-02-01T12:06:18.865Z,,,,,,,,,,,,,,,,,11,,,,,,,,,,,,,,315.68300000892486,,response,,,,4,A,,,,,,Space,keypress(Space),,,,silence,,,,----- -- ---- --- -- --- -------- ------------ ---------- --<br>- ------- ------ --------- -- ------------ -- --- ---- -----<br>------ ---- ---- ------ ------ ------- --- ----- ---------<br>---- --- -------- -------- --- --- -- ------- was --- -----<br>-- --- ------ ------- --- --- -------- ---- --------- --<br>---------- -- -------- ----------------,308929.200000003,308928.10000000894,308595.745,308601.60000000894,308612.417,308945.733,,37,was
screen,html.Screen,2_3_1_0_1_38,2022-02-01T12:06:19.259Z,,,,,,,,,,,,,,,,,11,,,,,,,,,,,,,,377.36700000893325,,response,,,,4,A,,,,,,Space,keypress(Space),,,,silence,,,,----- -- ---- --- -- --- -------- ------------ ---------- --<br>- ------- ------ --------- -- ------------ -- --- ---- -----<br>------ ---- ---- ------ ------ ------- --- ----- ---------<br>---- --- -------- -------- --- --- -- ------- --- not -----<br>-- --- ------ ------- --- --- -------- ---- --------- --<br>---------- -- -------- ----------------,309323.60000000894,309323.10000000894,308928.944,308929.5,308945.733,309329.166,,38,not
screen,html.Screen,2_3_1_0_1_39,2022-02-01T12:06:19.678Z,,,,,,,,,,,,,,,,,11,,,,,,,,,,,,,,411.7340000059339,,response,,,,4,A,,,,,,Space,keypress(Space),,,,silence,,,,----- -- ---- --- -- --- -------- ------------ ---------- --<br>- ------- ------ --------- -- ------------ -- --- ---- -----<br>------ ---- ---- ------ ------ ------- --- ----- ---------<br>---- --- -------- -------- --- --- -- ------- --- --- known<br>-- --- ------ ------- --- --- -------- ---- --------- --<br>---------- -- -------- ----------------,309741.8000000119,309740.90000000596,309312.344,309323.700000003,309329.166,309762.098,,39,known
