sender,sender_type,sender_id,timestamp,meta,,Blues,Classical,Country,Dance,Electronic,Folk,Gospel,Hip-Hop,Jazz,Latin,Musical/Film,New-age,Pop,Prolific_id,Provo_ID,R&B,Rap,Reggae,Religious,Rock,Soul,Swing,Traditional,age,artist_name,correct,correctResponse,distraction,duration,education,ended_on,familiarity,gender,headphone_check_performance,item,list,music_frequency,offensiveness,pleasantness,position_correct,preference,response,response_action,snippet_file,song_name,song_rating,sound,stimulus_1,stimulus_2,stimulus_3,text,time_commit,time_end,time_render,time_run,time_show,time_switch,url,word,word_ID
Prolific ID,html.Form,0,2022-02-03T14:12:40.362Z,"{""labjs_version"":""20.2.2"",""labjs_build"":{""flavor"":""production"",""commit"":""a25486e0c714a0ae2ce03ff94b7bb6896854dcfa""},""location"":""https://run.pavlovia.org/mvasilev/prolific2_music_a/"",""userAgent"":""Mozilla/5.0 (X11; Ubuntu; Linux x86_64; rv:96.0) Gecko/20100101 Firefox/96.0"",""platform"":""Linux x86_64"",""language"":""en-GB"",""locale"":""en-GB"",""timeZone"":""Europe/London"",""timezoneOffset"":0,""screen_width"":1920,""screen_height"":1080,""scroll_width"":1853,""scroll_height"":920,""window_innerWidth"":1853,""window_innerHeight"":968,""devicePixelRatio"":1}",,,,,,,,,,,,,,,5eb126c5f13db7000855c7b7,,,,,,,,,,,,,,,8532.32,,form submission,,,,,,,,,,,,,,,,,,,,,23755,23754,15204.96,15204,15221.68,23771.78,{},,
Introduction,html.Screen,1_0,2022-02-03T14:13:53.846Z,,,,,,,,,,,,,,,,,,,,,,,,,,,,,,,73463.22,,response,,,,,,,,,,,continue,click button,,,,,,,,,97240,97235,23755.08,23757,23771.78,97255.14,,,
Volume calibration,html.Screen,1_1,2022-02-03T14:14:18.782Z,,,,,,,,,,,,,,,,,,,,,,,,,,,,,,,24914.86,,response,,,,,,,,,,,continue,click button,,,,,,,,,122175,122170,97238.5,97242,97255.14,122188.54,,,
Task instructions,html.Screen,1_2,2022-02-03T14:14:28.141Z,,,,,,,,,,,,,,,,,,,,,,,,,,,,,,,9342.460000000006,,response,,,,,,,,,,,continue,click button,,,,,,,,,131535,131531,122171.9,122176,122188.54,131555.22,,,
Sounds,html.Screen,1_3_0_0,2022-02-03T14:14:32.396Z,,,,,,,,,,,,,,,,,,,,,,,,,,,,,,,4250.0199999999895,,timeout,,,,,,,,,1,,,,,,,,S,I,O,,135790,135788.56,131538.56,131536,131555.22,135805.24,,,
Judgement,html.Screen,1_3_0_1,2022-02-03T14:14:33.908Z,,,,,,,,,,,,,,,,,,,,,,,,,,,,true,1,,1493.7600000000093,,response,,,,,,,,,1,,1,click #choice-1,,,,,S,I,O,,137302,137299,135788.56,135791,135805.24,137321.9,,,
Trial,flow.Sequence,1_3_0,2022-02-03T14:14:33.910Z,,,,,,,,,,,,,,,,,,,,,,,,,,,,,,,5743.779999999999,,completion,,,,,,,,,1,,,,,,,,S,I,O,,137303,137299,131538.56,131536,131555.22,137321.9,,,
Sounds,html.Screen,1_3_1_0,2022-02-03T14:14:38.163Z,,,,,,,,,,,,,,,,,,,,,,,,,,,,,,,4250.020000000019,,timeout,,,,,,,,,3,,,,,,,,O,I,S,,141557,141555.18,137305.26,137304,137321.9,141571.92,,,
Judgement,html.Screen,1_3_1_1,2022-02-03T14:14:38.645Z,,,,,,,,,,,,,,,,,,,,,,,,,,,,true,3,,463.0799999999872,,response,,,,,,,,,3,,3,click #choice-3,,,,,O,I,S,,142039,142035,141555.18,141558,141571.92,142055.24,,,
Trial,flow.Sequence,1_3_1,2022-02-03T14:14:38.646Z,,,,,,,,,,,,,,,,,,,,,,,,,,,,,,,4713.100000000006,,completion,,,,,,,,,3,,,,,,,,O,I,S,,142040,142035,137305.26,137304,137321.9,142055.24,,,
Sounds,html.Screen,1_3_2_0,2022-02-03T14:14:42.897Z,,,,,,,,,,,,,,,,,,,,,,,,,,,,,,,4249.960000000021,,timeout,,,,,,,,,2,,,,,,,,I,S,O,,146291,146288.52,142038.52,142040,142055.24,146305.2,,,
Judgement,html.Screen,1_3_2_1,2022-02-03T14:14:43.405Z,,,,,,,,,,,,,,,,,,,,,,,,,,,,true,2,,489.79999999998836,,response,,,,,,,,,2,,2,click #choice-2,,,,,I,S,O,,146798,146795,146288.52,146291,146305.2,146821.88,,,
Trial,flow.Sequence,1_3_2,2022-02-03T14:14:43.405Z,,,,,,,,,,,,,,,,,,,,,,,,,,,,,,,4739.760000000009,,completion,,,,,,,,,2,,,,,,,,I,S,O,,146799,146795,142038.52,142040,142055.24,146821.88,,,
Sounds,html.Screen,1_3_3_0,2022-02-03T14:14:47.662Z,,,,,,,,,,,,,,,,,,,,,,,,,,,,,,,4250.040000000008,,timeout,,,,,,,,,3,,,,,,,,I,O,S,,151057,151055.26,146805.26,146799,146821.88,151071.92,,,
Judgement,html.Screen,1_3_3_1,2022-02-03T14:14:48.092Z,,,,,,,,,,,,,,,,,,,,,,,,,,,,true,3,,411.0799999999872,,response,,,,,,,,,3,,3,click #choice-3,,,,,I,O,S,,151486,151483,151055.26,151057,151071.92,151505.26,,,
Trial,flow.Sequence,1_3_3,2022-02-03T14:14:48.092Z,,,,,,,,,,,,,,,,,,,,,,,,,,,,,,,4661.119999999995,,completion,,,,,,,,,3,,,,,,,,I,O,S,,151487,151483,146805.26,146799,146821.88,151505.26,,,
Sounds,html.Screen,1_3_4_0,2022-02-03T14:14:52.347Z,,,,,,,,,,,,,,,,,,,,,,,,,,,,,,,4250,,timeout,,,,,,,,,1,,,,,,,,S,O,I,,155740,155738.58,151488.62,151487,151505.26,155755.26,,,
Judgement,html.Screen,1_3_4_1,2022-02-03T14:14:52.933Z,,,,,,,,,,,,,,,,,,,,,,,,,,,,true,1,,567.7399999999907,,response,,,,,,,,,1,,1,click #choice-1,,,,,S,O,I,,156326,156323,155738.58,155741,155755.26,156338.54,,,
Trial,flow.Sequence,1_3_4,2022-02-03T14:14:52.933Z,,,,,,,,,,,,,,,,,,,,,,,,,,,,,,,4817.739999999991,,completion,,,,,,,,,1,,,,,,,,S,O,I,,156327,156323,151488.62,151487,151505.26,156338.54,,,
Sounds,html.Screen,1_3_5_0,2022-02-03T14:14:57.180Z,,,,,,,,,,,,,,,,,,,,,,,,,,,,,,,4250.079999999987,,timeout,,,,,,,,,2,,,,,,,,O,S,I,,160574,160571.94,156321.88,156327,156338.54,160588.62,,,
Judgement,html.Screen,1_3_5_1,2022-02-03T14:14:57.668Z,,,,,,,,,,,,,,,,,,,,,,,,,,,,true,2,,470.38000000000466,,response,,,,,,,,,2,,2,click #choice-2,,,,,O,S,I,,161062,161059,160571.94,160574,160588.62,161088.62,,,
Trial,flow.Sequence,1_3_5,2022-02-03T14:14:57.669Z,,,,,,,,,,,,,,,,,,,,,,,,,,,,,,,4720.459999999992,,completion,,,,,,,,,2,,,,,,,,O,S,I,,161062,161059,156321.88,156327,156338.54,161088.62,,,
Task,flow.Loop,1_3,2022-02-03T14:14:57.671Z,,,,,,,,,,,,,,,,,,,,,,,,,,,,,,,29503.78,,completion,,,1,,,,,,,,,,,,,,,,,,161064,161059,131538.56,131535,131555.22,161088.62,,,
Trap,html.Screen,1_4,2022-02-03T14:14:57.675Z,,,,,,,,,,,,,,,,,,,,,,,,,,,,,,,NaN,,skipped,,,,,,,,,,,,,,,,,,,,,161069,161059,,161069,,161088.62,,,
Thanks,html.Screen,1_5,2022-02-03T14:15:01.165Z,,,,,,,,,,,,,,,,,,,,,,,,,,,,,,,3466.3800000000047,,response,,,,,,,,,,,continue,click button,,,,,,,,,164559,164555,161071.92,161069,161088.62,166471.86,,,
Headphone screening,flow.Sequence,1,2022-02-03T14:15:01.165Z,,,,,,,,,,,,,,,,,,,,,,,,,,,,,,,140783.22,,completion,,,,,,,,,,,,,,,,,,,,,164559,164555,23755.08,23756,23771.78,166471.86,,,
Instructions,html.Page,2_0,2022-02-03T14:15:26.560Z,,,,,,,,,,,,,,,,,,,,,,,,,,,,,,,23480.140000000014,,form submission,,,,,,,,,,,,,,,,,,,,,189954,189952,166455.28,166454,166471.86,189972,,,
Holding screen,html.Screen,2_1_0_0,2022-02-03T14:15:36.564Z,,,,,,,,,,,,,,,,,,,,,,,,,,,,,,,9999.899999999994,,timeout,,,,,,,,,,,,,,,,,,,,,199958,199955.28,189955.32,189955,189972,199971.9,,,
screen,html.Screen,2_1_0_1_0,2022-02-03T14:15:37.297Z,,,,,,,,,,,,,,,,,53,,,,,,,,,,,,,,717.1000000000058,,response,,,,99,,,,,,,Space,keypress(Space),,,,,,,,When -- ----- -- ------ - ------- --- ----------<br>------------- ------ ------ ---- ---- ------- ----- -- ----<br>-------- ------- -- ---------- --- - --- ----- ----- ----<br>---- --- --- ----- --- ---- ---- ------- ----- ---- -------<br>--- --- -- ----- -- --- ---- -- --- ---- -- ------ ------<br>--- ----- -- ----,200692,200689,199955.28,199960,199971.9,200705.34,,0,When
screen,html.Screen,2_1_0_1_1,2022-02-03T14:15:37.721Z,,,,,,,,,,,,,,,,,53,,,,,,,,,,,,,,407.6600000000035,,response,,,,99,,,,,,,Space,keypress(Space),,,,,,,,---- it ----- -- ------ - ------- --- ----------<br>------------- ------ ------ ---- ---- ------- ----- -- ----<br>-------- ------- -- ---------- --- - --- ----- ----- ----<br>---- --- --- ----- --- ---- ---- ------- ----- ---- -------<br>--- --- -- ----- -- --- ---- -- --- ---- -- ------ ------<br>--- ----- -- ----,201114,201113,200688.62,200692,200705.34,201121.96,,1,it
screen,html.Screen,2_1_0_1_2,2022-02-03T14:15:38.305Z,,,,,,,,,,,,,,,,,53,,,,,,,,,,,,,,576.0400000000081,,response,,,,99,,,,,,,Space,keypress(Space),,,,,,,,---- -- comes -- ------ - ------- --- ----------<br>------------- ------ ------ ---- ---- ------- ----- -- ----<br>-------- ------- -- ---------- --- - --- ----- ----- ----<br>---- --- --- ----- --- ---- ---- ------- ----- ---- -------<br>--- --- -- ----- -- --- ---- -- --- ---- -- ------ ------<br>--- ----- -- ----,201699,201698,201105.34,201116,201121.96,201705.34,,2,comes
screen,html.Screen,2_1_0_1_3,2022-02-03T14:15:38.609Z,,,,,,,,,,,,,,,,,53,,,,,,,,,,,,,,295.6600000000035,,response,,,,99,,,,,,,Space,keypress(Space),,,,,,,,---- -- ----- to ------ - ------- --- ----------<br>------------- ------ ------ ---- ---- ------- ----- -- ----<br>-------- ------- -- ---------- --- - --- ----- ----- ----<br>---- --- --- ----- --- ---- ---- ------- ----- ---- -------<br>--- --- -- ----- -- --- ---- -- --- ---- -- ------ ------<br>--- ----- -- ----,202002,202001,201688.66,201699,201705.34,202022,,3,to
screen,html.Screen,2_1_0_1_4,2022-02-03T14:15:38.801Z,,,,,,,,,,,,,,,,,53,,,,,,,,,,,,,,171,,response,,,,99,,,,,,,Space,keypress(Space),,,,,,,,---- -- ----- -- having - ------- --- ----------<br>------------- ------ ------ ---- ---- ------- ----- -- ----<br>-------- ------- -- ---------- --- - --- ----- ----- ----<br>---- --- --- ----- --- ---- ---- ------- ----- ---- -------<br>--- --- -- ----- -- --- ---- -- --- ---- -- ------ ------<br>--- ----- -- ----,202194,202193,202005.34,202003,202022,202205.34,,4,having
screen,html.Screen,2_1_0_1_5,2022-02-03T14:15:39.009Z,,,,,,,,,,,,,,,,,53,,,,,,,,,,,,,,195.6600000000035,,response,,,,99,,,,,,,Space,keypress(Space),,,,,,,,---- -- ----- -- ------ a ------- --- ----------<br>------------- ------ ------ ---- ---- ------- ----- -- ----<br>-------- ------- -- ---------- --- - --- ----- ----- ----<br>---- --- --- ----- --- ---- ---- ------- ----- ---- -------<br>--- --- -- ----- -- --- ---- -- --- ---- -- ------ ------<br>--- ----- -- ----,202403,202401,202188.66,202195,202205.34,202422,,5,a
screen,html.Screen,2_1_0_1_6,2022-02-03T14:15:39.536Z,,,,,,,,,,,,,,,,,53,,,,,,,,,,,,,,507,,response,,,,99,,,,,,,Space,keypress(Space),,,,,,,,---- -- ----- -- ------ - lasting --- ----------<br>------------- ------ ------ ---- ---- ------- ----- -- ----<br>-------- ------- -- ---------- --- - --- ----- ----- ----<br>---- --- --- ----- --- ---- ---- ------- ----- ---- -------<br>--- --- -- ----- -- --- ---- -- --- ---- -- ------ ------<br>--- ----- -- ----,202930,202929,202405.34,202403,202422,202938.58,,6,lasting
screen,html.Screen,2_1_0_1_7,2022-02-03T14:15:39.784Z,,,,,,,,,,,,,,,,,53,,,,,,,,,,,,,,238.4200000000128,,response,,,,99,,,,,,,Space,keypress(Space),,,,,,,,---- -- ----- -- ------ - ------- and ----------<br>------------- ------ ------ ---- ---- ------- ----- -- ----<br>-------- ------- -- ---------- --- - --- ----- ----- ----<br>---- --- --- ----- --- ---- ---- ------- ----- ---- -------<br>--- --- -- ----- -- --- ---- -- --- ---- -- ------ ------<br>--- ----- -- ----,203178,203177,202922,202931,202938.58,203188.6,,7,and
screen,html.Screen,2_1_0_1_8,2022-02-03T14:15:40.241Z,,,,,,,,,,,,,,,,,53,,,,,,,,,,,,,,444.3999999999942,,response,,,,99,,,,,,,Space,keypress(Space),,,,,,,,---- -- ----- -- ------ - ------- --- fulfilling<br>------------- ------ ------ ---- ---- ------- ----- -- ----<br>-------- ------- -- ---------- --- - --- ----- ----- ----<br>---- --- --- ----- --- ---- ---- ------- ----- ---- -------<br>--- --- -- ----- -- --- ---- -- --- ---- -- ------ ------<br>--- ----- -- ----,203634,203633,203172,203179,203188.6,203655.36,,8,fulfilling
screen,html.Screen,2_1_0_1_9,2022-02-03T14:15:40.674Z,,,,,,,,,,,,,,,,,53,,,,,,,,,,,,,,409.64000000001397,,response,,,,99,,,,,,,Space,keypress(Space),,,,,,,,"---- -- ----- -- ------ - ------- --- ----------<br>relationship, ------ ------ ---- ---- ------- ----- -- ----<br>-------- ------- -- ---------- --- - --- ----- ----- ----<br>---- --- --- ----- --- ---- ---- ------- ----- ---- -------<br>--- --- -- ----- -- --- ---- -- --- ---- -- ------ ------<br>--- ----- -- ----",204067,204065,203638.68,203635,203655.36,204088.68,,9,"relationship,"
screen,html.Screen,2_1_0_1_10,2022-02-03T14:15:41.480Z,,,,,,,,,,,,,,,,,53,,,,,,,,,,,,,,785.320000000007,,response,,,,99,,,,,,,Space,keypress(Space),,,,,,,,---- -- ----- -- ------ - ------- --- ----------<br>------------- common ------ ---- ---- ------- ----- -- ----<br>-------- ------- -- ---------- --- - --- ----- ----- ----<br>---- --- --- ----- --- ---- ---- ------- ----- ---- -------<br>--- --- -- ----- -- --- ---- -- --- ---- -- ------ ------<br>--- ----- -- ----,204874,204874,204072.02,204068,204088.68,204888.58,,10,common
screen,html.Screen,2_1_0_1_11,2022-02-03T14:15:42.057Z,,,,,,,,,,,,,,,,,53,,,,,,,,,,,,,,561.4200000000128,,response,,,,99,,,,,,,Space,keypress(Space),,,,,,,,---- -- ----- -- ------ - ------- --- ----------<br>------------- ------ wisdom ---- ---- ------- ----- -- ----<br>-------- ------- -- ---------- --- - --- ----- ----- ----<br>---- --- --- ----- --- ---- ---- ------- ----- ---- -------<br>--- --- -- ----- -- --- ---- -- --- ---- -- ------ ------<br>--- ----- -- ----,205451,205450,204871.9,204875,204888.58,205471.96,,11,wisdom
screen,html.Screen,2_1_0_1_12,2022-02-03T14:15:42.673Z,,,,,,,,,,,,,,,,,53,,,,,,,,,,,,,,593.0400000000081,,response,,,,99,,,,,,,Space,keypress(Space),,,,,,,,---- -- ----- -- ------ - ------- --- ----------<br>------------- ------ ------ says ---- ------- ----- -- ----<br>-------- ------- -- ---------- --- - --- ----- ----- ----<br>---- --- --- ----- --- ---- ---- ------- ----- ---- -------<br>--- --- -- ----- -- --- ---- -- --- ---- -- ------ ------<br>--- ----- -- ----,206067,206065,205455.34,205451,205471.96,206088.58,,12,says
screen,html.Screen,2_1_0_1_13,2022-02-03T14:15:43.057Z,,,,,,,,,,,,,,,,,53,,,,,,,,,,,,,,360.4200000000128,,response,,,,99,,,,,,,Space,keypress(Space),,,,,,,,---- -- ----- -- ------ - ------- --- ----------<br>------------- ------ ------ ---- that ------- ----- -- ----<br>-------- ------- -- ---------- --- - --- ----- ----- ----<br>---- --- --- ----- --- ---- ---- ------- ----- ---- -------<br>--- --- -- ----- -- --- ---- -- --- ---- -- ------ ------<br>--- ----- -- ----,206450,206449,206071.94,206067,206088.58,206471.96,,13,that
screen,html.Screen,2_1_0_1_14,2022-02-03T14:15:43.449Z,,,,,,,,,,,,,,,,,53,,,,,,,,,,,,,,369.04000000000815,,response,,,,99,,,,,,,Space,keypress(Space),,,,,,,,---- -- ----- -- ------ - ------- --- ----------<br>------------- ------ ------ ---- ---- feeling ----- -- ----<br>-------- ------- -- ---------- --- - --- ----- ----- ----<br>---- --- --- ----- --- ---- ---- ------- ----- ---- -------<br>--- --- -- ----- -- --- ---- -- --- ---- -- ------ ------<br>--- ----- -- ----,206842,206841,206455.34,206451,206471.96,206855.34,,14,feeling
screen,html.Screen,2_1_0_1_15,2022-02-03T14:15:43.840Z,,,,,,,,,,,,,,,,,53,,,,,,,,,,,,,,377.6600000000035,,response,,,,99,,,,,,,Space,keypress(Space),,,,,,,,---- -- ----- -- ------ - ------- --- ----------<br>------------- ------ ------ ---- ---- ------- close -- ----<br>-------- ------- -- ---------- --- - --- ----- ----- ----<br>---- --- --- ----- --- ---- ---- ------- ----- ---- -------<br>--- --- -- ----- -- --- ---- -- --- ---- -- ------ ------<br>--- ----- -- ----,207234,207233,206838.64,206842,206855.34,207255.3,,15,close
screen,html.Screen,2_1_0_1_16,2022-02-03T14:15:44.168Z,,,,,,,,,,,,,,,,,53,,,,,,,,,,,,,,305.70000000001164,,response,,,,99,,,,,,,Space,keypress(Space),,,,,,,,---- -- ----- -- ------ - ------- --- ----------<br>------------- ------ ------ ---- ---- ------- ----- to ----<br>-------- ------- -- ---------- --- - --- ----- ----- ----<br>---- --- --- ----- --- ---- ---- ------- ----- ---- -------<br>--- --- -- ----- -- --- ---- -- --- ---- -- ------ ------<br>--- ----- -- ----,207562,207561,207238.64,207234,207255.3,207571.96,,16,to
screen,html.Screen,2_1_0_1_17,2022-02-03T14:15:44.504Z,,,,,,,,,,,,,,,,,53,,,,,,,,,,,,,,326.04000000000815,,response,,,,99,,,,,,,Space,keypress(Space),,,,,,,,---- -- ----- -- ------ - ------- --- ----------<br>------------- ------ ------ ---- ---- ------- ----- -- your<br>-------- ------- -- ---------- --- - --- ----- ----- ----<br>---- --- --- ----- --- ---- ---- ------- ----- ---- -------<br>--- --- -- ----- -- --- ---- -- --- ---- -- ------ ------<br>--- ----- -- ----,207899,207898,207555.36,207563,207571.96,207905.36,,17,your
screen,html.Screen,2_1_0_1_18,2022-02-03T14:15:45.049Z,,,,,,,,,,,,,,,,,53,,,,,,,,,,,,,,535.640000000014,,response,,,,99,,,,,,,Space,keypress(Space),,,,,,,,---- -- ----- -- ------ - ------- --- ----------<br>------------- ------ ------ ---- ---- ------- ----- -- ----<br>romantic ------- -- ---------- --- - --- ----- ----- ----<br>---- --- --- ----- --- ---- ---- ------- ----- ---- -------<br>--- --- -- ----- -- --- ---- -- --- ---- -- ------ ------<br>--- ----- -- ----,208443,208441,207888.68,207899,207905.36,208455.34,,18,romantic
screen,html.Screen,2_1_0_1_19,2022-02-03T14:15:45.400Z,,,,,,,,,,,,,,,,,53,,,,,,,,,,,,,,337.6600000000035,,response,,,,99,,,,,,,Space,keypress(Space),,,,,,,,---- -- ----- -- ------ - ------- --- ----------<br>------------- ------ ------ ---- ---- ------- ----- -- ----<br>-------- partner -- ---------- --- - --- ----- ----- ----<br>---- --- --- ----- --- ---- ---- ------- ----- ---- -------<br>--- --- -- ----- -- --- ---- -- --- ---- -- ------ ------<br>--- ----- -- ----,208794,208793,208438.68,208443,208455.34,208805.36,,19,partner
screen,html.Screen,2_1_0_1_20,2022-02-03T14:15:45.704Z,,,,,,,,,,,,,,,,,53,,,,,,,,,,,,,,291.64000000001397,,response,,,,99,,,,,,,Space,keypress(Space),,,,,,,,---- -- ----- -- ------ - ------- --- ----------<br>------------- ------ ------ ---- ---- ------- ----- -- ----<br>-------- ------- is ---------- --- - --- ----- ----- ----<br>---- --- --- ----- --- ---- ---- ------- ----- ---- -------<br>--- --- -- ----- -- --- ---- -- --- ---- -- ------ ------<br>--- ----- -- ----,209098,209097,208788.62,208795,208805.36,209105.36,,20,is
screen,html.Screen,2_1_0_1_21,2022-02-03T14:15:46.017Z,,,,,,,,,,,,,,,,,53,,,,,,,,,,,,,,303.64000000001397,,response,,,,99,,,,,,,Space,keypress(Space),,,,,,,,---- -- ----- -- ------ - ------- --- ----------<br>------------- ------ ------ ---- ---- ------- ----- -- ----<br>-------- ------- -- paramount. --- - --- ----- ----- ----<br>---- --- --- ----- --- ---- ---- ------- ----- ---- -------<br>--- --- -- ----- -- --- ---- -- --- ---- -- ------ ------<br>--- ----- -- ----,209411,209409,209088.62,209098,209105.36,209422,,21,paramount.
screen,html.Screen,2_1_0_1_22,2022-02-03T14:15:46.544Z,,,,,,,,,,,,,,,,,53,,,,,,,,,,,,,,515,,response,,,,99,,,,,,,Space,keypress(Space),,,,,,,,---- -- ----- -- ------ - ------- --- ----------<br>------------- ------ ------ ---- ---- ------- ----- -- ----<br>-------- ------- -- ---------- But - --- ----- ----- ----<br>---- --- --- ----- --- ---- ---- ------- ----- ---- -------<br>--- --- -- ----- -- --- ---- -- --- ---- -- ------ ------<br>--- ----- -- ----,209938,209937,209405.36,209411,209422,209955.34,,22,But
screen,html.Screen,2_1_0_1_23,2022-02-03T14:15:46.873Z,,,,,,,,,,,,,,,,,53,,,,,,,,,,,,,,309.6600000000035,,response,,,,99,,,,,,,Space,keypress(Space),,,,,,,,---- -- ----- -- ------ - ------- --- ----------<br>------------- ------ ------ ---- ---- ------- ----- -- ----<br>-------- ------- -- ---------- --- a --- ----- ----- ----<br>---- --- --- ----- --- ---- ---- ------- ----- ---- -------<br>--- --- -- ----- -- --- ---- -- --- ---- -- ------ ------<br>--- ----- -- ----,210266,210265,209938.62,209938,209955.34,210272.02,,23,a
screen,html.Screen,2_1_0_1_24,2022-02-03T14:15:47.144Z,,,,,,,,,,,,,,,,,53,,,,,,,,,,,,,,264.9800000000105,,response,,,,99,,,,,,,Space,keypress(Space),,,,,,,,---- -- ----- -- ------ - ------- --- ----------<br>------------- ------ ------ ---- ---- ------- ----- -- ----<br>-------- ------- -- ---------- --- - new ----- ----- ----<br>---- --- --- ----- --- ---- ---- ------- ----- ---- -------<br>--- --- -- ----- -- --- ---- -- --- ---- -- ------ ------<br>--- ----- -- ----,210538,210537,210255.36,210266,210272.02,210555.34,,24,new
screen,html.Screen,2_1_0_1_25,2022-02-03T14:15:47.528Z,,,,,,,,,,,,,,,,,53,,,,,,,,,,,,,,365.6600000000035,,response,,,,99,,,,,,,Space,keypress(Space),,,,,,,,---- -- ----- -- ------ - ------- --- ----------<br>------------- ------ ------ ---- ---- ------- ----- -- ----<br>-------- ------- -- ---------- --- - --- study ----- ----<br>---- --- --- ----- --- ---- ---- ------- ----- ---- -------<br>--- --- -- ----- -- --- ---- -- --- ---- -- ------ ------<br>--- ----- -- ----,210922,210921,210538.68,210539,210555.34,210938.7,,25,study
screen,html.Screen,2_1_0_1_26,2022-02-03T14:15:47.896Z,,,,,,,,,,,,,,,,,53,,,,,,,,,,,,,,350.29999999998836,,response,,,,99,,,,,,,Space,keypress(Space),,,,,,,,---- -- ----- -- ------ - ------- --- ----------<br>------------- ------ ------ ---- ---- ------- ----- -- ----<br>-------- ------- -- ---------- --- - --- ----- finds ----<br>---- --- --- ----- --- ---- ---- ------- ----- ---- -------<br>--- --- -- ----- -- --- ---- -- --- ---- -- ------ ------<br>--- ----- -- ----,211290,211289,210921.9,210923,210938.7,211305.34,,26,finds
screen,html.Screen,2_1_0_1_27,2022-02-03T14:15:48.344Z,,,,,,,,,,,,,,,,,53,,,,,,,,,,,,,,431.6600000000035,,response,,,,99,,,,,,,Space,keypress(Space),,,,,,,,---- -- ----- -- ------ - ------- --- ----------<br>------------- ------ ------ ---- ---- ------- ----- -- ----<br>-------- ------- -- ---------- --- - --- ----- ----- that<br>---- --- --- ----- --- ---- ---- ------- ----- ---- -------<br>--- --- -- ----- -- --- ---- -- --- ---- -- ------ ------<br>--- ----- -- ----,211738,211737,211288.64,211290,211305.34,211755.34,,27,that
screen,html.Screen,2_1_0_1_28,2022-02-03T14:15:48.841Z,,,,,,,,,,,,,,,,,53,,,,,,,,,,,,,,477.6600000000035,,response,,,,99,,,,,,,Space,keypress(Space),,,,,,,,---- -- ----- -- ------ - ------- --- ----------<br>------------- ------ ------ ---- ---- ------- ----- -- ----<br>-------- ------- -- ---------- --- - --- ----- ----- ----<br>it's --- --- ----- --- ---- ---- ------- ----- ---- -------<br>--- --- -- ----- -- --- ---- -- --- ---- -- ------ ------<br>--- ----- -- ----,212234,212233,211738.7,211739,211755.34,212255.38,,28,it's
screen,html.Screen,2_1_0_1_29,2022-02-03T14:15:49.080Z,,,,,,,,,,,,,,,,,53,,,,,,,,,,,,,,217.61999999999534,,response,,,,99,,,,,,,Space,keypress(Space),,,,,,,,---- -- ----- -- ------ - ------- --- ----------<br>------------- ------ ------ ---- ---- ------- ----- -- ----<br>-------- ------- -- ---------- --- - --- ----- ----- ----<br>---- not --- ----- --- ---- ---- ------- ----- ---- -------<br>--- --- -- ----- -- --- ---- -- --- ---- -- ------ ------<br>--- ----- -- ----,212474,212473,212238.7,212234,212255.38,212488.64,,29,not
screen,html.Screen,2_1_0_1_30,2022-02-03T14:15:49.352Z,,,,,,,,,,,,,,,,,53,,,,,,,,,,,,,,256.35999999998603,,response,,,,99,,,,,,,Space,keypress(Space),,,,,,,,---- -- ----- -- ------ - ------- --- ----------<br>------------- ------ ------ ---- ---- ------- ----- -- ----<br>-------- ------- -- ---------- --- - --- ----- ----- ----<br>---- --- how ----- --- ---- ---- ------- ----- ---- -------<br>--- --- -- ----- -- --- ---- -- --- ---- -- ------ ------<br>--- ----- -- ----,212746,212745,212471.96,212475,212488.64,212755.26,,30,how
screen,html.Screen,2_1_0_1_31,2022-02-03T14:15:49.824Z,,,,,,,,,,,,,,,,,53,,,,,,,,,,,,,,461.7399999999907,,response,,,,99,,,,,,,Space,keypress(Space),,,,,,,,---- -- ----- -- ------ - ------- --- ----------<br>------------- ------ ------ ---- ---- ------- ----- -- ----<br>-------- ------- -- ---------- --- - --- ----- ----- ----<br>---- --- --- close --- ---- ---- ------- ----- ---- -------<br>--- --- -- ----- -- --- ---- -- --- ---- -- ------ ------<br>--- ----- -- ----,213218,213217,212738.68,212746,212755.26,213238.7,,31,close
screen,html.Screen,2_1_0_1_32,2022-02-03T14:15:50.105Z,,,,,,,,,,,,,,,,,53,,,,,,,,,,,,,,258.29999999998836,,response,,,,99,,,,,,,Space,keypress(Space),,,,,,,,---- -- ----- -- ------ - ------- --- ----------<br>------------- ------ ------ ---- ---- ------- ----- -- ----<br>-------- ------- -- ---------- --- - --- ----- ----- ----<br>---- --- --- ----- you ---- ---- ------- ----- ---- -------<br>--- --- -- ----- -- --- ---- -- --- ---- -- ------ ------<br>--- ----- -- ----,213498,213497,213222.02,213219,213238.7,213505.36,,32,you
screen,html.Screen,2_1_0_1_33,2022-02-03T14:15:50.744Z,,,,,,,,,,,,,,,,,53,,,,,,,,,,,,,,631.640000000014,,response,,,,99,,,,,,,Space,keypress(Space),,,,,,,,---- -- ----- -- ------ - ------- --- ----------<br>------------- ------ ------ ---- ---- ------- ----- -- ----<br>-------- ------- -- ---------- --- - --- ----- ----- ----<br>---- --- --- ----- --- feel ---- ------- ----- ---- -------<br>--- --- -- ----- -- --- ---- -- --- ---- -- ------ ------<br>--- ----- -- ----,214138,214137,213488.7,213499,213505.36,214155.38,,33,feel
screen,html.Screen,2_1_0_1_34,2022-02-03T14:15:51.105Z,,,,,,,,,,,,,,,,,53,,,,,,,,,,,,,,342.61999999999534,,response,,,,99,,,,,,,Space,keypress(Space),,,,,,,,---- -- ----- -- ------ - ------- --- ----------<br>------------- ------ ------ ---- ---- ------- ----- -- ----<br>-------- ------- -- ---------- --- - --- ----- ----- ----<br>---- --- --- ----- --- ---- that ------- ----- ---- -------<br>--- --- -- ----- -- --- ---- -- --- ---- -- ------ ------<br>--- ----- -- ----,214499,214498,214138.62,214139,214155.38,214505.3,,34,that
screen,html.Screen,2_1_0_1_35,2022-02-03T14:15:51.448Z,,,,,,,,,,,,,,,,,53,,,,,,,,,,,,,,335.70000000001164,,response,,,,99,,,,,,,Space,keypress(Space),,,,,,,,---- -- ----- -- ------ - ------- --- ----------<br>------------- ------ ------ ---- ---- ------- ----- -- ----<br>-------- ------- -- ---------- --- - --- ----- ----- ----<br>---- --- --- ----- --- ---- ---- matters ----- ---- -------<br>--- --- -- ----- -- --- ---- -- --- ---- -- ------ ------<br>--- ----- -- ----,214842,214841,214488.68,214499,214505.3,214855.38,,35,matters
screen,html.Screen,2_1_0_1_36,2022-02-03T14:15:51.880Z,,,,,,,,,,,,,,,,,53,,,,,,,,,,,,,,418.61999999999534,,response,,,,99,,,,,,,Space,keypress(Space),,,,,,,,"---- -- ----- -- ------ - ------- --- ----------<br>------------- ------ ------ ---- ---- ------- ----- -- ----<br>-------- ------- -- ---------- --- - --- ----- ----- ----<br>---- --- --- ----- --- ---- ---- ------- most, ---- -------<br>--- --- -- ----- -- --- ---- -- --- ---- -- ------ ------<br>--- ----- -- ----",215274,215274,214838.64,214842,214855.38,215288.64,,36,"most,"
screen,html.Screen,2_1_0_1_37,2022-02-03T14:15:52.216Z,,,,,,,,,,,,,,,,,53,,,,,,,,,,,,,,321.35999999998603,,response,,,,99,,,,,,,Space,keypress(Space),,,,,,,,---- -- ----- -- ------ - ------- --- ----------<br>------------- ------ ------ ---- ---- ------- ----- -- ----<br>-------- ------- -- ---------- --- - --- ----- ----- ----<br>---- --- --- ----- --- ---- ---- ------- ----- it's -------<br>--- --- -- ----- -- --- ---- -- --- ---- -- ------ ------<br>--- ----- -- ----,215610,215610,215271.98,215275,215288.64,215621.98,,37,it's
screen,html.Screen,2_1_0_1_38,2022-02-03T14:15:52.568Z,,,,,,,,,,,,,,,,,53,,,,,,,,,,,,,,339.0199999999895,,response,,,,99,,,,,,,Space,keypress(Space),,,,,,,,---- -- ----- -- ------ - ------- --- ----------<br>------------- ------ ------ ---- ---- ------- ----- -- ----<br>-------- ------- -- ---------- --- - --- ----- ----- ----<br>---- --- --- ----- --- ---- ---- ------- ----- ---- whether<br>--- --- -- ----- -- --- ---- -- --- ---- -- ------ ------<br>--- ----- -- ----,215962,215961,215605.38,215611,215621.98,215972.02,,38,whether
screen,html.Screen,2_1_0_1_39,2022-02-03T14:15:52.920Z,,,,,,,,,,,,,,,,,53,,,,,,,,,,,,,,340.9800000000105,,response,,,,99,,,,,,,Space,keypress(Space),,,,,,,,---- -- ----- -- ------ - ------- --- ----------<br>------------- ------ ------ ---- ---- ------- ----- -- ----<br>-------- ------- -- ---------- --- - --- ----- ----- ----<br>---- --- --- ----- --- ---- ---- ------- ----- ---- -------<br>you --- -- ----- -- --- ---- -- --- ---- -- ------ ------<br>--- ----- -- ----,216315,216313,215955.36,215962,215972.02,216321.98,,39,you
screen,html.Screen,2_1_0_1_40,2022-02-03T14:15:53.240Z,,,,,,,,,,,,,,,,,53,,,,,,,,,,,,,,311.0199999999895,,response,,,,99,,,,,,,Space,keypress(Space),,,,,,,,---- -- ----- -- ------ - ------- --- ----------<br>------------- ------ ------ ---- ---- ------- ----- -- ----<br>-------- ------- -- ---------- --- - --- ----- ----- ----<br>---- --- --- ----- --- ---- ---- ------- ----- ---- -------<br>--- are -- ----- -- --- ---- -- --- ---- -- ------ ------<br>--- ----- -- ----,216634,216633,216305.36,216315,216321.98,216655.38,,40,are
screen,html.Screen,2_1_0_1_41,2022-02-03T14:15:53.520Z,,,,,,,,,,,,,,,,,53,,,,,,,,,,,,,,257.61999999999534,,response,,,,99,,,,,,,Space,keypress(Space),,,,,,,,---- -- ----- -- ------ - ------- --- ----------<br>------------- ------ ------ ---- ---- ------- ----- -- ----<br>-------- ------- -- ---------- --- - --- ----- ----- ----<br>---- --- --- ----- --- ---- ---- ------- ----- ---- -------<br>--- --- as ----- -- --- ---- -- --- ---- -- ------ ------<br>--- ----- -- ----,216914,216913,216638.7,216634,216655.38,216921.98,,41,as
screen,html.Screen,2_1_0_1_42,2022-02-03T14:15:53.816Z,,,,,,,,,,,,,,,,,53,,,,,,,,,,,,,,286.0199999999895,,response,,,,99,,,,,,,Space,keypress(Space),,,,,,,,---- -- ----- -- ------ - ------- --- ----------<br>------------- ------ ------ ---- ---- ------- ----- -- ----<br>-------- ------- -- ---------- --- - --- ----- ----- ----<br>---- --- --- ----- --- ---- ---- ------- ----- ---- -------<br>--- --- -- close -- --- ---- -- --- ---- -- ------ ------<br>--- ----- -- ----,217209,217208,216905.36,216914,216921.98,217222.02,,42,close
screen,html.Screen,2_1_0_1_43,2022-02-03T14:15:54.144Z,,,,,,,,,,,,,,,,,53,,,,,,,,,,,,,,314.9800000000105,,response,,,,99,,,,,,,Space,keypress(Space),,,,,,,,---- -- ----- -- ------ - ------- --- ----------<br>------------- ------ ------ ---- ---- ------- ----- -- ----<br>-------- ------- -- ---------- --- - --- ----- ----- ----<br>---- --- --- ----- --- ---- ---- ------- ----- ---- -------<br>--- --- -- ----- as --- ---- -- --- ---- -- ------ ------<br>--- ----- -- ----,217538,217537,217205.36,217210,217222.02,217555.36,,43,as
screen,html.Screen,2_1_0_1_44,2022-02-03T14:15:54.449Z,,,,,,,,,,,,,,,,,53,,,,,,,,,,,,,,285.64000000001397,,response,,,,99,,,,,,,Space,keypress(Space),,,,,,,,---- -- ----- -- ------ - ------- --- ----------<br>------------- ------ ------ ---- ---- ------- ----- -- ----<br>-------- ------- -- ---------- --- - --- ----- ----- ----<br>---- --- --- ----- --- ---- ---- ------- ----- ---- -------<br>--- --- -- ----- -- you ---- -- --- ---- -- ------ ------<br>--- ----- -- ----,217843,217841,217538.72,217539,217555.36,217855.38,,44,you
screen,html.Screen,2_1_0_1_45,2022-02-03T14:15:54.840Z,,,,,,,,,,,,,,,,,53,,,,,,,,,,,,,,377.61999999999534,,response,,,,99,,,,,,,Space,keypress(Space),,,,,,,,---- -- ----- -- ------ - ------- --- ----------<br>------------- ------ ------ ---- ---- ------- ----- -- ----<br>-------- ------- -- ---------- --- - --- ----- ----- ----<br>---- --- --- ----- --- ---- ---- ------- ----- ---- -------<br>--- --- -- ----- -- --- want -- --- ---- -- ------ ------<br>--- ----- -- ----,218234,218233,217838.64,217843,217855.38,218255.36,,45,want
screen,html.Screen,2_1_0_1_46,2022-02-03T14:15:55.152Z,,,,,,,,,,,,,,,,,53,,,,,,,,,,,,,,289.64000000001397,,response,,,,99,,,,,,,Space,keypress(Space),,,,,,,,---- -- ----- -- ------ - ------- --- ----------<br>------------- ------ ------ ---- ---- ------- ----- -- ----<br>-------- ------- -- ---------- --- - --- ----- ----- ----<br>---- --- --- ----- --- ---- ---- ------- ----- ---- -------<br>--- --- -- ----- -- --- ---- to --- ---- -- ------ ------<br>--- ----- -- ----,218546,218545,218238.64,218234,218255.36,218555.22,,46,to
screen,html.Screen,2_1_0_1_47,2022-02-03T14:15:55.392Z,,,,,,,,,,,,,,,,,53,,,,,,,,,,,,,,229.77999999999884,,response,,,,99,,,,,,,Space,keypress(Space),,,,,,,,"---- -- ----- -- ------ - ------- --- ----------<br>------------- ------ ------ ---- ---- ------- ----- -- ----<br>-------- ------- -- ---------- --- - --- ----- ----- ----<br>---- --- --- ----- --- ---- ---- ------- ----- ---- -------<br>--- --- -- ----- -- --- ---- -- be, ---- -- ------ ------<br>--- ----- -- ----",218786,218785,218538.68,218547,218555.22,218805.38,,47,"be,"
screen,html.Screen,2_1_0_1_48,2022-02-03T14:15:55.768Z,,,,,,,,,,,,,,,,,53,,,,,,,,,,,,,,355.61999999999534,,response,,,,99,,,,,,,Space,keypress(Space),,,,,,,,---- -- ----- -- ------ - ------- --- ----------<br>------------- ------ ------ ---- ---- ------- ----- -- ----<br>-------- ------- -- ---------- --- - --- ----- ----- ----<br>---- --- --- ----- --- ---- ---- ------- ----- ---- -------<br>--- --- -- ----- -- --- ---- -- --- even -- ------ ------<br>--- ----- -- ----,219163,219161,218788.64,218786,218805.38,219172,,48,even
screen,html.Screen,2_1_0_1_49,2022-02-03T14:15:56.072Z,,,,,,,,,,,,,,,,,53,,,,,,,,,,,,,,294,,response,,,,99,,,,,,,Space,keypress(Space),,,,,,,,---- -- ----- -- ------ - ------- --- ----------<br>------------- ------ ------ ---- ---- ------- ----- -- ----<br>-------- ------- -- ---------- --- - --- ----- ----- ----<br>---- --- --- ----- --- ---- ---- ------- ----- ---- -------<br>--- --- -- ----- -- --- ---- -- --- ---- if ------ ------<br>--- ----- -- ----,219467,219466,219155.38,219163,219172,219472,,49,if
screen,html.Screen,2_1_0_1_50,2022-02-03T14:15:56.384Z,,,,,,,,,,,,,,,,,53,,,,,,,,,,,,,,305,,response,,,,99,,,,,,,Space,keypress(Space),,,,,,,,---- -- ----- -- ------ - ------- --- ----------<br>------------- ------ ------ ---- ---- ------- ----- -- ----<br>-------- ------- -- ---------- --- - --- ----- ----- ----<br>---- --- --- ----- --- ---- ---- ------- ----- ---- -------<br>--- --- -- ----- -- --- ---- -- --- ---- -- that's ------<br>--- ----- -- ----,219778,219777,219455.3,219467,219472,219788.66,,50,that's
screen,html.Screen,2_1_0_1_51,2022-02-03T14:15:56.752Z,,,,,,,,,,,,,,,,,53,,,,,,,,,,,,,,355.3399999999965,,response,,,,99,,,,,,,Space,keypress(Space),,,,,,,,---- -- ----- -- ------ - ------- --- ----------<br>------------- ------ ------ ---- ---- ------- ----- -- ----<br>-------- ------- -- ---------- --- - --- ----- ----- ----<br>---- --- --- ----- --- ---- ---- ------- ----- ---- -------<br>--- --- -- ----- -- --- ---- -- --- ---- -- ------ really<br>--- ----- -- ----,220146,220144,219771.96,219778,219788.66,220155.28,,51,really
screen,html.Screen,2_1_0_1_52,2022-02-03T14:15:57.097Z,,,,,,,,,,,,,,,,,53,,,,,,,,,,,,,,334.72000000000116,,response,,,,99,,,,,,,Space,keypress(Space),,,,,,,,---- -- ----- -- ------ - ------- --- ----------<br>------------- ------ ------ ---- ---- ------- ----- -- ----<br>-------- ------- -- ---------- --- - --- ----- ----- ----<br>---- --- --- ----- --- ---- ---- ------- ----- ---- -------<br>--- --- -- ----- -- --- ---- -- --- ---- -- ------ ------<br>not ----- -- ----,220490,220490,220138.7,220146,220155.28,220505.38,,52,not
screen,html.Screen,2_1_0_1_53,2022-02-03T14:15:57.424Z,,,,,,,,,,,,,,,,,53,,,,,,,,,,,,,,311.61999999999534,,response,,,,99,,,,,,,Space,keypress(Space),,,,,,,,---- -- ----- -- ------ - ------- --- ----------<br>------------- ------ ------ ---- ---- ------- ----- -- ----<br>-------- ------- -- ---------- --- - --- ----- ----- ----<br>---- --- --- ----- --- ---- ---- ------- ----- ---- -------<br>--- --- -- ----- -- --- ---- -- --- ---- -- ------ ------<br>--- close -- ----,220818,220817,220488.6,220490,220505.38,220838.64,,53,close
screen,html.Screen,2_1_0_1_54,2022-02-03T14:15:57.737Z,,,,,,,,,,,,,,,,,53,,,,,,,,,,,,,,290.35999999998603,,response,,,,99,,,,,,,Space,keypress(Space),,,,,,,,---- -- ----- -- ------ - ------- --- ----------<br>------------- ------ ------ ---- ---- ------- ----- -- ----<br>-------- ------- -- ---------- --- - --- ----- ----- ----<br>---- --- --- ----- --- ---- ---- ------- ----- ---- -------<br>--- --- -- ----- -- --- ---- -- --- ---- -- ------ ------<br>--- ----- at ----,221130,221129,220821.98,220818,220838.64,221138.56,,54,at
screen,html.Screen,2_1_0_1_55,2022-02-03T14:15:58.104Z,,,,,,,,,,,,,,,,,53,,,,,,,,,,,,,,358.4400000000023,,response,,,,99,,,,,,,Space,keypress(Space),,,,,,,,---- -- ----- -- ------ - ------- --- ----------<br>------------- ------ ------ ---- ---- ------- ----- -- ----<br>-------- ------- -- ---------- --- - --- ----- ----- ----<br>---- --- --- ----- --- ---- ---- ------- ----- ---- -------<br>--- --- -- ----- -- --- ---- -- --- ---- -- ------ ------<br>--- ----- -- all.,221498,221497,221121.94,221130,221138.56,221521.98,,55,all.
Item 99,flow.Loop,2_1_0_1,2022-02-03T14:15:58.105Z,,,,,,,,,,,,,,,,,,,,,,,,,,,,,,,21525.100000000006,,completion,,,,,A,,,,,,,,,,,silence,,,,,221499,221497,199955.28,199960,199971.9,221521.98,,,
Question 1,html.Screen,2_1_0_2,2022-02-03T14:16:02.948Z,,,,,,,,,,,,,,,,,,,,,,,,,,,,true,FALSE,,4817.0199999999895,,response,,,,99,A,,,,,,FALSE,click #choice-2,,,,silence,,,,,226343,226339,221505.32,221499,221521.98,226355.4,,,
Question 2,html.Screen,2_1_0_3,2022-02-03T14:16:06.293Z,,,,,,,,,,,,,,,,,,,,,,,,,,,,true,TRUE,,3327.600000000006,,response,,,,99,A,,,,,,TRUE,click #choice-1,,,,silence,,,,,229686,229683,226338.72,226343,226355.4,229705.28,,,
Item 99,flow.Sequence,2_1_0,2022-02-03T14:16:06.293Z,,,,,,,,,,,,,,,,,,,,,,,,,,,,,,,39711,,completion,,,,,,,,,,,,,,,,,,,,,229688,229683,189955.32,189955,189972,229705.28,,,
Holding screen,html.Screen,2_1_1_0,2022-02-03T14:16:16.296Z,,,,,,,,,,,,,,,,,,,,,,,,,,,,,,,10000.119999999995,,timeout,,,,,,,,,,,,,,,,,,,,,239690,239688.68,229688.74,229688,229705.28,239705.4,,,
screen,html.Screen,2_1_1_1_0,2022-02-03T14:16:17.840Z,,,,,,,,,,,,,,,,,54,,,,,,,,,,,,,,1527.6000000000058,,response,,,,100,,,,,,,Space,keypress(Space),,,,,,,,At --- ---- --- ------ ----- ------- ---- -- --- ------- --<br>------- ---------- ------ -- ----- -- ----- -- ---- ------<br>--- ----- --- --- ------ -------- ----- --- ------ ----- --<br>----- ----- ---------- --- --- ------ ------ ---- -- ------<br>------- --- ------ ----- --- ---- ------- -- ---- --- --<br>------- ------,241234,241233,239688.68,239690,239705.4,241255.38,,0,At
screen,html.Screen,2_1_1_1_1,2022-02-03T14:16:19.688Z,,,,,,,,,,,,,,,,,54,,,,,,,,,,,,,,1825.6199999999953,,response,,,,100,,,,,,,Space,keypress(Space),,,,,,,,-- the ---- --- ------ ----- ------- ---- -- --- ------- --<br>------- ---------- ------ -- ----- -- ----- -- ---- ------<br>--- ----- --- --- ------ -------- ----- --- ------ ----- --<br>----- ----- ---------- --- --- ------ ------ ---- -- ------<br>------- --- ------ ----- --- ---- ------- -- ---- --- --<br>------- ------,243083,243081,241238.74,241235,241255.38,243088.62,,1,the
screen,html.Screen,2_1_1_1_2,2022-02-03T14:16:20.112Z,,,,,,,,,,,,,,,,,54,,,,,,,,,,,,,,416.38000000000466,,response,,,,100,,,,,,,Space,keypress(Space),,,,,,,,-- --- time --- ------ ----- ------- ---- -- --- ------- --<br>------- ---------- ------ -- ----- -- ----- -- ---- ------<br>--- ----- --- --- ------ -------- ----- --- ------ ----- --<br>----- ----- ---------- --- --- ------ ------ ---- -- ------<br>------- --- ------ ----- --- ---- ------- -- ---- --- --<br>------- ------,243506,243505,243072,243083,243088.62,243522.02,,2,time
screen,html.Screen,2_1_1_1_3,2022-02-03T14:16:20.592Z,,,,,,,,,,,,,,,,,54,,,,,,,,,,,,,,462.9800000000105,,response,,,,100,,,,,,,Space,keypress(Space),,,,,,,,-- --- ---- the ------ ----- ------- ---- -- --- ------- --<br>------- ---------- ------ -- ----- -- ----- -- ---- ------<br>--- ----- --- --- ------ -------- ----- --- ------ ----- --<br>----- ----- ---------- --- --- ------ ------ ---- -- ------<br>------- --- ------ ----- --- ---- ------- -- ---- --- --<br>------- ------,243986,243985,243505.34,243507,243522.02,244005.42,,3,the
screen,html.Screen,2_1_1_1_4,2022-02-03T14:16:20.880Z,,,,,,,,,,,,,,,,,54,,,,,,,,,,,,,,267.5799999999872,,response,,,,100,,,,,,,Space,keypress(Space),,,,,,,,-- --- ---- --- French ----- ------- ---- -- --- ------- --<br>------- ---------- ------ -- ----- -- ----- -- ---- ------<br>--- ----- --- --- ------ -------- ----- --- ------ ----- --<br>----- ----- ---------- --- --- ------ ------ ---- -- ------<br>------- --- ------ ----- --- ---- ------- -- ---- --- --<br>------- ------,244274,244273,243988.62,243987,244005.42,244288.7,,4,French
screen,html.Screen,2_1_1_1_5,2022-02-03T14:16:21.313Z,,,,,,,,,,,,,,,,,54,,,,,,,,,,,,,,416.29999999998836,,response,,,,100,,,,,,,Space,keypress(Space),,,,,,,,-- --- ---- --- ------ crown ------- ---- -- --- ------- --<br>------- ---------- ------ -- ----- -- ----- -- ---- ------<br>--- ----- --- --- ------ -------- ----- --- ------ ----- --<br>----- ----- ---------- --- --- ------ ------ ---- -- ------<br>------- --- ------ ----- --- ---- ------- -- ---- --- --<br>------- ------,244706,244705,244272.02,244275,244288.7,244722.02,,5,crown
screen,html.Screen,2_1_1_1_6,2022-02-03T14:16:21.928Z,,,,,,,,,,,,,,,,,54,,,,,,,,,,,,,,599.9800000000105,,response,,,,100,,,,,,,Space,keypress(Space),,,,,,,,-- --- ---- --- ------ ----- secured ---- -- --- ------- --<br>------- ---------- ------ -- ----- -- ----- -- ---- ------<br>--- ----- --- --- ------ -------- ----- --- ------ ----- --<br>----- ----- ---------- --- --- ------ ------ ---- -- ------<br>------- --- ------ ----- --- ---- ------- -- ---- --- --<br>------- ------,245322,245322,244705.34,244706,244722.02,245338.7,,6,secured
screen,html.Screen,2_1_1_1_7,2022-02-03T14:16:22.368Z,,,,,,,,,,,,,,,,,54,,,,,,,,,,,,,,422.29999999998836,,response,,,,100,,,,,,,Space,keypress(Space),,,,,,,,-- --- ---- --- ------ ----- ------- much -- --- ------- --<br>------- ---------- ------ -- ----- -- ----- -- ---- ------<br>--- ----- --- --- ------ -------- ----- --- ------ ----- --<br>----- ----- ---------- --- --- ------ ------ ---- -- ------<br>------- --- ------ ----- --- ---- ------- -- ---- --- --<br>------- ------,245762,245761,245322.04,245322,245338.7,245772.04,,7,much
screen,html.Screen,2_1_1_1_8,2022-02-03T14:16:22.680Z,,,,,,,,,,,,,,,,,54,,,,,,,,,,,,,,300.95999999999185,,response,,,,100,,,,,,,Space,keypress(Space),,,,,,,,-- --- ---- --- ------ ----- ------- ---- of --- ------- --<br>------- ---------- ------ -- ----- -- ----- -- ---- ------<br>--- ----- --- --- ------ -------- ----- --- ------ ----- --<br>----- ----- ---------- --- --- ------ ------ ---- -- ------<br>------- --- ------ ----- --- ---- ------- -- ---- --- --<br>------- ------,246074,246073,245755.4,245762,245772.04,246088.72,,8,of
screen,html.Screen,2_1_1_1_9,2022-02-03T14:16:22.880Z,,,,,,,,,,,,,,,,,54,,,,,,,,,,,,,,184.27999999999884,,response,,,,100,,,,,,,Space,keypress(Space),,,,,,,,-- --- ---- --- ------ ----- ------- ---- -- its ------- --<br>------- ---------- ------ -- ----- -- ----- -- ---- ------<br>--- ----- --- --- ------ -------- ----- --- ------ ----- --<br>----- ----- ---------- --- --- ------ ------ ---- -- ------<br>------- --- ------ ----- --- ---- ------- -- ---- --- --<br>------- ------,246274,246273,246072.02,246074,246088.72,246288.68,,9,its
screen,html.Screen,2_1_1_1_10,2022-02-03T14:16:23.136Z,,,,,,,,,,,,,,,,,54,,,,,,,,,,,,,,240.32000000000698,,response,,,,100,,,,,,,Space,keypress(Space),,,,,,,,-- --- ---- --- ------ ----- ------- ---- -- --- revenue --<br>------- ---------- ------ -- ----- -- ----- -- ---- ------<br>--- ----- --- --- ------ -------- ----- --- ------ ----- --<br>----- ----- ---------- --- --- ------ ------ ---- -- ------<br>------- --- ------ ----- --- ---- ------- -- ---- --- --<br>------- ------,246530,246529,246272.02,246275,246288.68,246538.7,,10,revenue
screen,html.Screen,2_1_1_1_11,2022-02-03T14:16:23.608Z,,,,,,,,,,,,,,,,,54,,,,,,,,,,,,,,462.29999999998836,,response,,,,100,,,,,,,Space,keypress(Space),,,,,,,,-- --- ---- --- ------ ----- ------- ---- -- --- ------- by<br>------- ---------- ------ -- ----- -- ----- -- ---- ------<br>--- ----- --- --- ------ -------- ----- --- ------ ----- --<br>----- ----- ---------- --- --- ------ ------ ---- -- ------<br>------- --- ------ ----- --- ---- ------- -- ---- --- --<br>------- ------,247002,247001,246522.06,246530,246538.7,247022.06,,11,by
screen,html.Screen,2_1_1_1_12,2022-02-03T14:16:24.352Z,,,,,,,,,,,,,,,,,54,,,,,,,,,,,,,,722.9400000000023,,response,,,,100,,,,,,,Space,keypress(Space),,,,,,,,-- --- ---- --- ------ ----- ------- ---- -- --- ------- --<br>issuing ---------- ------ -- ----- -- ----- -- ---- ------<br>--- ----- --- --- ------ -------- ----- --- ------ ----- --<br>----- ----- ---------- --- --- ------ ------ ---- -- ------<br>------- --- ------ ----- --- ---- ------- -- ---- --- --<br>------- ------,247747,247745,247005.34,247002,247022.06,247755.4,,12,issuing
screen,html.Screen,2_1_1_1_13,2022-02-03T14:16:24.736Z,,,,,,,,,,,,,,,,,54,,,,,,,,,,,,,,373.6000000000058,,response,,,,100,,,,,,,Space,keypress(Space),,,,,,,,-- --- ---- --- ------ ----- ------- ---- -- --- ------- --<br>------- government ------ -- ----- -- ----- -- ---- ------<br>--- ----- --- --- ------ -------- ----- --- ------ ----- --<br>----- ----- ---------- --- --- ------ ------ ---- -- ------<br>------- --- ------ ----- --- ---- ------- -- ---- --- --<br>------- ------,248130,248129,247738.74,247747,247755.4,248138.66,,13,government
screen,html.Screen,2_1_1_1_14,2022-02-03T14:16:25.096Z,,,,,,,,,,,,,,,,,54,,,,,,,,,,,,,,350.3399999999965,,response,,,,100,,,,,,,Space,keypress(Space),,,,,,,,-- --- ---- --- ------ ----- ------- ---- -- --- ------- --<br>------- ---------- bonds. -- ----- -- ----- -- ---- ------<br>--- ----- --- --- ------ -------- ----- --- ------ ----- --<br>----- ----- ---------- --- --- ------ ------ ---- -- ------<br>------- --- ------ ----- --- ---- ------- -- ---- --- --<br>------- ------,248490,248489,248122.02,248130,248138.66,248505.42,,14,bonds.
screen,html.Screen,2_1_1_1_15,2022-02-03T14:16:26.504Z,,,,,,,,,,,,,,,,,54,,,,,,,,,,,,,,1391.5799999999872,,response,,,,100,,,,,,,Space,keypress(Space),,,,,,,,-- --- ---- --- ------ ----- ------- ---- -- --- ------- --<br>------- ---------- ------ In ----- -- ----- -- ---- ------<br>--- ----- --- --- ------ -------- ----- --- ------ ----- --<br>----- ----- ---------- --- --- ------ ------ ---- -- ------<br>------- --- ------ ----- --- ---- ------- -- ---- --- --<br>------- ------,249898,249897,248488.74,248490,248505.42,249905.3,,15,In
screen,html.Screen,2_1_1_1_16,2022-02-03T14:16:27.912Z,,,,,,,,,,,,,,,,,54,,,,,,,,,,,,,,1399.7000000000116,,response,,,,100,,,,,,,Space,keypress(Space),,,,,,,,"-- --- ---- --- ------ ----- ------- ---- -- --- ------- --<br>------- ---------- ------ -- 1727, -- ----- -- ---- ------<br>--- ----- --- --- ------ -------- ----- --- ------ ----- --<br>----- ----- ---------- --- --- ------ ------ ---- -- ------<br>------- --- ------ ----- --- ---- ------- -- ---- --- --<br>------- ------",251306,251305,249888.74,249898,249905.3,251322.08,,16,"1727,"
screen,html.Screen,2_1_1_1_17,2022-02-03T14:16:28.288Z,,,,,,,,,,,,,,,,,54,,,,,,,,,,,,,,358.9200000000128,,response,,,,100,,,,,,,Space,keypress(Space),,,,,,,,-- --- ---- --- ------ ----- ------- ---- -- --- ------- --<br>------- ---------- ------ -- ----- in ----- -- ---- ------<br>--- ----- --- --- ------ -------- ----- --- ------ ----- --<br>----- ----- ---------- --- --- ------ ------ ---- -- ------<br>------- --- ------ ----- --- ---- ------- -- ---- --- --<br>------- ------,251682,251681,251305.34,251306,251322.08,251688.72,,17,in
screen,html.Screen,2_1_1_1_18,2022-02-03T14:16:28.576Z,,,,,,,,,,,,,,,,,54,,,,,,,,,,,,,,280.27999999999884,,response,,,,100,,,,,,,Space,keypress(Space),,,,,,,,-- --- ---- --- ------ ----- ------- ---- -- --- ------- --<br>------- ---------- ------ -- ----- -- order -- ---- ------<br>--- ----- --- --- ------ -------- ----- --- ------ ----- --<br>----- ----- ---------- --- --- ------ ------ ---- -- ------<br>------- --- ------ ----- --- ---- ------- -- ---- --- --<br>------- ------,251970,251969,251672.08,251682,251688.72,251988.68,,18,order
screen,html.Screen,2_1_1_1_19,2022-02-03T14:16:29.073Z,,,,,,,,,,,,,,,,,54,,,,,,,,,,,,,,476.320000000007,,response,,,,100,,,,,,,Space,keypress(Space),,,,,,,,-- --- ---- --- ------ ----- ------- ---- -- --- ------- --<br>------- ---------- ------ -- ----- -- ----- to ---- ------<br>--- ----- --- --- ------ -------- ----- --- ------ ----- --<br>----- ----- ---------- --- --- ------ ------ ---- -- ------<br>------- --- ------ ----- --- ---- ------- -- ---- --- --<br>------- ------,252467,252465,251972.04,251970,251988.68,252472.02,,19,to
screen,html.Screen,2_1_1_1_20,2022-02-03T14:16:29.442Z,,,,,,,,,,,,,,,,,54,,,,,,,,,,,,,,361.9800000000105,,response,,,,100,,,,,,,Space,keypress(Space),,,,,,,,-- --- ---- --- ------ ----- ------- ---- -- --- ------- --<br>------- ---------- ------ -- ----- -- ----- -- save ------<br>--- ----- --- --- ------ -------- ----- --- ------ ----- --<br>----- ----- ---------- --- --- ------ ------ ---- -- ------<br>------- --- ------ ----- --- ---- ------- -- ---- --- --<br>------- ------,252836,252834,252455.4,252467,252472.02,252855.42,,20,save
screen,html.Screen,2_1_1_1_21,2022-02-03T14:16:29.929Z,,,,,,,,,,,,,,,,,54,,,,,,,,,,,,,,465.5799999999872,,response,,,,100,,,,,,,Space,keypress(Space),,,,,,,,"-- --- ---- --- ------ ----- ------- ---- -- --- ------- --<br>------- ---------- ------ -- ----- -- ----- -- ---- money,<br>--- ----- --- --- ------ -------- ----- --- ------ ----- --<br>----- ----- ---------- --- --- ------ ------ ---- -- ------<br>------- --- ------ ----- --- ---- ------- -- ---- --- --<br>------- ------",253323,253321,252838.68,252838,252855.42,253338.7,,21,"money,"
screen,html.Screen,2_1_1_1_22,2022-02-03T14:16:30.353Z,,,,,,,,,,,,,,,,,54,,,,,,,,,,,,,,406.29999999998836,,response,,,,100,,,,,,,Space,keypress(Space),,,,,,,,-- --- ---- --- ------ ----- ------- ---- -- --- ------- --<br>------- ---------- ------ -- ----- -- ----- -- ---- ------<br>the ----- --- --- ------ -------- ----- --- ------ ----- --<br>----- ----- ---------- --- --- ------ ------ ---- -- ------<br>------- --- ------ ----- --- ---- ------- -- ---- --- --<br>------- ------,253746,253745,253321.98,253323,253338.7,253755.42,,22,the
screen,html.Screen,2_1_1_1_23,2022-02-03T14:16:30.633Z,,,,,,,,,,,,,,,,,54,,,,,,,,,,,,,,269.5799999999872,,response,,,,100,,,,,,,Space,keypress(Space),,,,,,,,-- --- ---- --- ------ ----- ------- ---- -- --- ------- --<br>------- ---------- ------ -- ----- -- ----- -- ---- ------<br>--- state --- --- ------ -------- ----- --- ------ ----- --<br>----- ----- ---------- --- --- ------ ------ ---- -- ------<br>------- --- ------ ----- --- ---- ------- -- ---- --- --<br>------- ------,254026,254025,253738.74,253747,253755.42,254038.74,,23,state
screen,html.Screen,2_1_1_1_24,2022-02-03T14:16:31.169Z,,,,,,,,,,,,,,,,,54,,,,,,,,,,,,,,523.2600000000093,,response,,,,100,,,,,,,Space,keypress(Space),,,,,,,,-- --- ---- --- ------ ----- ------- ---- -- --- ------- --<br>------- ---------- ------ -- ----- -- ----- -- ---- ------<br>--- ----- cut --- ------ -------- ----- --- ------ ----- --<br>----- ----- ---------- --- --- ------ ------ ---- -- ------<br>------- --- ------ ----- --- ---- ------- -- ---- --- --<br>------- ------,254563,254562,254022.08,254027,254038.74,254572.02,,24,cut
screen,html.Screen,2_1_1_1_25,2022-02-03T14:16:31.473Z,,,,,,,,,,,,,,,,,54,,,,,,,,,,,,,,292.9800000000105,,response,,,,100,,,,,,,Space,keypress(Space),,,,,,,,-- --- ---- --- ------ ----- ------- ---- -- --- ------- --<br>------- ---------- ------ -- ----- -- ----- -- ---- ------<br>--- ----- --- the ------ -------- ----- --- ------ ----- --<br>----- ----- ---------- --- --- ------ ------ ---- -- ------<br>------- --- ------ ----- --- ---- ------- -- ---- --- --<br>------- ------,254867,254865,254555.4,254564,254572.02,254888.74,,25,the
screen,html.Screen,2_1_1_1_26,2022-02-03T14:16:31.688Z,,,,,,,,,,,,,,,,,54,,,,,,,,,,,,,,193.2600000000093,,response,,,,100,,,,,,,Space,keypress(Space),,,,,,,,-- --- ---- --- ------ ----- ------- ---- -- --- ------- --<br>------- ---------- ------ -- ----- -- ----- -- ---- ------<br>--- ----- --- --- bonds' -------- ----- --- ------ ----- --<br>----- ----- ---------- --- --- ------ ------ ---- -- ------<br>------- --- ------ ----- --- ---- ------- -- ---- --- --<br>------- ------,255083,255082,254872.1,254867,254888.74,255088.7,,26,bonds'
screen,html.Screen,2_1_1_1_27,2022-02-03T14:16:32.169Z,,,,,,,,,,,,,,,,,54,,,,,,,,,,,,,,473.29999999998836,,response,,,,100,,,,,,,Space,keypress(Space),,,,,,,,-- --- ---- --- ------ ----- ------- ---- -- --- ------- --<br>------- ---------- ------ -- ----- -- ----- -- ---- ------<br>--- ----- --- --- ------ interest ----- --- ------ ----- --<br>----- ----- ---------- --- --- ------ ------ ---- -- ------<br>------- --- ------ ----- --- ---- ------- -- ---- --- --<br>------- ------,255563,255562,255072.08,255083,255088.7,255572.04,,27,interest
screen,html.Screen,2_1_1_1_28,2022-02-03T14:16:32.632Z,,,,,,,,,,,,,,,,,54,,,,,,,,,,,,,,452.95999999999185,,response,,,,100,,,,,,,Space,keypress(Space),,,,,,,,-- --- ---- --- ------ ----- ------- ---- -- --- ------- --<br>------- ---------- ------ -- ----- -- ----- -- ---- ------<br>--- ----- --- --- ------ -------- rate. --- ------ ----- --<br>----- ----- ---------- --- --- ------ ------ ---- -- ------<br>------- --- ------ ----- --- ---- ------- -- ---- --- --<br>------- ------,256026,256025,255555.42,255563,255572.04,256038.78,,28,rate.
screen,html.Screen,2_1_1_1_29,2022-02-03T14:16:32.953Z,,,,,,,,,,,,,,,,,54,,,,,,,,,,,,,,306.22000000000116,,response,,,,100,,,,,,,Space,keypress(Space),,,,,,,,-- --- ---- --- ------ ----- ------- ---- -- --- ------- --<br>------- ---------- ------ -- ----- -- ----- -- ---- ------<br>--- ----- --- --- ------ -------- ----- The ------ ----- --<br>----- ----- ---------- --- --- ------ ------ ---- -- ------<br>------- --- ------ ----- --- ---- ------- -- ---- --- --<br>------- ------,256347,256345,256022.08,256027,256038.78,256355.32,,29,The
screen,html.Screen,2_1_1_1_30,2022-02-03T14:16:33.169Z,,,,,,,,,,,,,,,,,54,,,,,,,,,,,,,,205.67999999999302,,response,,,,100,,,,,,,Space,keypress(Space),,,,,,,,-- --- ---- --- ------ ----- ------- ---- -- --- ------- --<br>------- ---------- ------ -- ----- -- ----- -- ---- ------<br>--- ----- --- --- ------ -------- ----- --- market ----- --<br>----- ----- ---------- --- --- ------ ------ ---- -- ------<br>------- --- ------ ----- --- ---- ------- -- ---- --- --<br>------- ------,256563,256561,256338.74,256347,256355.32,256572.04,,30,market
screen,html.Screen,2_1_1_1_31,2022-02-03T14:16:33.584Z,,,,,,,,,,,,,,,,,54,,,,,,,,,,,,,,403.95999999999185,,response,,,,100,,,,,,,Space,keypress(Space),,,,,,,,-- --- ---- --- ------ ----- ------- ---- -- --- ------- --<br>------- ---------- ------ -- ----- -- ----- -- ---- ------<br>--- ----- --- --- ------ -------- ----- --- ------ value --<br>----- ----- ---------- --- --- ------ ------ ---- -- ------<br>------- --- ------ ----- --- ---- ------- -- ---- --- --<br>------- ------,256978,256976,256555.42,256564,256572.04,256988.7,,31,value
screen,html.Screen,2_1_1_1_32,2022-02-03T14:16:33.944Z,,,,,,,,,,,,,,,,,54,,,,,,,,,,,,,,348.29999999998836,,response,,,,100,,,,,,,Space,keypress(Space),,,,,,,,-- --- ---- --- ------ ----- ------- ---- -- --- ------- --<br>------- ---------- ------ -- ----- -- ----- -- ---- ------<br>--- ----- --- --- ------ -------- ----- --- ------ ----- of<br>----- ----- ---------- --- --- ------ ------ ---- -- ------<br>------- --- ------ ----- --- ---- ------- -- ---- --- --<br>------- ------,257338,257337,256972.04,256979,256988.7,257355.42,,32,of
screen,html.Screen,2_1_1_1_33,2022-02-03T14:16:34.305Z,,,,,,,,,,,,,,,,,54,,,,,,,,,,,,,,341.5799999999872,,response,,,,100,,,,,,,Space,keypress(Space),,,,,,,,-- --- ---- --- ------ ----- ------- ---- -- --- ------- --<br>------- ---------- ------ -- ----- -- ----- -- ---- ------<br>--- ----- --- --- ------ -------- ----- --- ------ ----- --<br>these ----- ---------- --- --- ------ ------ ---- -- ------<br>------- --- ------ ----- --- ---- ------- -- ---- --- --<br>------- ------,257699,257697,257338.7,257339,257355.42,257705.36,,33,these
screen,html.Screen,2_1_1_1_34,2022-02-03T14:16:34.528Z,,,,,,,,,,,,,,,,,54,,,,,,,,,,,,,,215.64000000001397,,response,,,,100,,,,,,,Space,keypress(Space),,,,,,,,-- --- ---- --- ------ ----- ------- ---- -- --- ------- --<br>------- ---------- ------ -- ----- -- ----- -- ---- ------<br>--- ----- --- --- ------ -------- ----- --- ------ ----- --<br>----- bonds ---------- --- --- ------ ------ ---- -- ------<br>------- --- ------ ----- --- ---- ------- -- ---- --- --<br>------- ------,257923,257921,257688.76,257699,257705.36,257938.76,,34,bonds
screen,html.Screen,2_1_1_1_35,2022-02-03T14:16:34.928Z,,,,,,,,,,,,,,,,,54,,,,,,,,,,,,,,382.2399999999907,,response,,,,100,,,,,,,Space,keypress(Space),,,,,,,,"-- --- ---- --- ------ ----- ------- ---- -- --- ------- --<br>------- ---------- ------ -- ----- -- ----- -- ---- ------<br>--- ----- --- --- ------ -------- ----- --- ------ ----- --<br>----- ----- plummeted, --- --- ------ ------ ---- -- ------<br>------- --- ------ ----- --- ---- ------- -- ---- --- --<br>------- ------",258322,258321,257921.98,257923,257938.76,258338.6,,35,"plummeted,"
screen,html.Screen,2_1_1_1_36,2022-02-03T14:16:35.344Z,,,,,,,,,,,,,,,,,54,,,,,,,,,,,,,,399.3999999999942,,response,,,,100,,,,,,,Space,keypress(Space),,,,,,,,-- --- ---- --- ------ ----- ------- ---- -- --- ------- --<br>------- ---------- ------ -- ----- -- ----- -- ---- ------<br>--- ----- --- --- ------ -------- ----- --- ------ ----- --<br>----- ----- ---------- and --- ------ ------ ---- -- ------<br>------- --- ------ ----- --- ---- ------- -- ---- --- --<br>------- ------,258739,258738,258321.92,258323,258338.6,258755.42,,36,and
screen,html.Screen,2_1_1_1_37,2022-02-03T14:16:35.600Z,,,,,,,,,,,,,,,,,54,,,,,,,,,,,,,,237.5799999999872,,response,,,,100,,,,,,,Space,keypress(Space),,,,,,,,-- --- ---- --- ------ ----- ------- ---- -- --- ------- --<br>------- ---------- ------ -- ----- -- ----- -- ---- ------<br>--- ----- --- --- ------ -------- ----- --- ------ ----- --<br>----- ----- ---------- --- the ------ ------ ---- -- ------<br>------- --- ------ ----- --- ---- ------- -- ---- --- --<br>------- ------,258994,258993,258738.74,258739,258755.42,259005.42,,37,the
screen,html.Screen,2_1_1_1_38,2022-02-03T14:16:35.945Z,,,,,,,,,,,,,,,,,54,,,,,,,,,,,,,,331.5799999999872,,response,,,,100,,,,,,,Space,keypress(Space),,,,,,,,-- --- ---- --- ------ ----- ------- ---- -- --- ------- --<br>------- ---------- ------ -- ----- -- ----- -- ---- ------<br>--- ----- --- --- ------ -------- ----- --- ------ ----- --<br>----- ----- ---------- --- --- market ------ ---- -- ------<br>------- --- ------ ----- --- ---- ------- -- ---- --- --<br>------- ------,259338,259337,258988.76,258995,259005.42,259355.42,,38,market
screen,html.Screen,2_1_1_1_39,2022-02-03T14:16:36.256Z,,,,,,,,,,,,,,,,,54,,,,,,,,,,,,,,293.5799999999872,,response,,,,100,,,,,,,Space,keypress(Space),,,,,,,,-- --- ---- --- ------ ----- ------- ---- -- --- ------- --<br>------- ---------- ------ -- ----- -- ----- -- ---- ------<br>--- ----- --- --- ------ -------- ----- --- ------ ----- --<br>----- ----- ---------- --- --- ------ became ---- -- ------<br>------- --- ------ ----- --- ---- ------- -- ---- --- --<br>------- ------,259650,259649,259338.68,259339,259355.42,259672.08,,39,became
screen,html.Screen,2_1_1_1_40,2022-02-03T14:16:36.616Z,,,,,,,,,,,,,,,,,54,,,,,,,,,,,,,,336.9200000000128,,response,,,,100,,,,,,,Space,keypress(Space),,,,,,,,-- --- ---- --- ------ ----- ------- ---- -- --- ------- --<br>------- ---------- ------ -- ----- -- ----- -- ---- ------<br>--- ----- --- --- ------ -------- ----- --- ------ ----- --<br>----- ----- ---------- --- --- ------ ------ wary -- ------<br>------- --- ------ ----- --- ---- ------- -- ---- --- --<br>------- ------,260010,260009,259655.44,259651,259672.08,260022.02,,40,wary
screen,html.Screen,2_1_1_1_41,2022-02-03T14:16:36.960Z,,,,,,,,,,,,,,,,,54,,,,,,,,,,,,,,330.9800000000105,,response,,,,100,,,,,,,Space,keypress(Space),,,,,,,,-- --- ---- --- ------ ----- ------- ---- -- --- ------- --<br>------- ---------- ------ -- ----- -- ----- -- ---- ------<br>--- ----- --- --- ------ -------- ----- --- ------ ----- --<br>----- ----- ---------- --- --- ------ ------ ---- of ------<br>------- --- ------ ----- --- ---- ------- -- ---- --- --<br>------- ------,260354,260353,260005.34,260010,260022.02,260372.08,,41,of
screen,html.Screen,2_1_1_1_42,2022-02-03T14:16:37.328Z,,,,,,,,,,,,,,,,,54,,,,,,,,,,,,,,348.9200000000128,,response,,,,100,,,,,,,Space,keypress(Space),,,,,,,,-- --- ---- --- ------ ----- ------- ---- -- --- ------- --<br>------- ---------- ------ -- ----- -- ----- -- ---- ------<br>--- ----- --- --- ------ -------- ----- --- ------ ----- --<br>----- ----- ---------- --- --- ------ ------ ---- -- French<br>------- --- ------ ----- --- ---- ------- -- ---- --- --<br>------- ------,260722,260721,260355.42,260355,260372.08,260738.76,,42,French
screen,html.Screen,2_1_1_1_43,2022-02-03T14:16:37.697Z,,,,,,,,,,,,,,,,,54,,,,,,,,,,,,,,351.2399999999907,,response,,,,100,,,,,,,Space,keypress(Space),,,,,,,,-- --- ---- --- ------ ----- ------- ---- -- --- ------- --<br>------- ---------- ------ -- ----- -- ----- -- ---- ------<br>--- ----- --- --- ------ -------- ----- --- ------ ----- --<br>----- ----- ---------- --- --- ------ ------ ---- -- ------<br>credit. --- ------ ----- --- ---- ------- -- ---- --- --<br>------- ------,261091,261090,260722.04,260722,260738.76,261105.42,,43,credit.
screen,html.Screen,2_1_1_1_44,2022-02-03T14:16:38.096Z,,,,,,,,,,,,,,,,,54,,,,,,,,,,,,,,383.5799999999872,,response,,,,100,,,,,,,Space,keypress(Space),,,,,,,,-- --- ---- --- ------ ----- ------- ---- -- --- ------- --<br>------- ---------- ------ -- ----- -- ----- -- ---- ------<br>--- ----- --- --- ------ -------- ----- --- ------ ----- --<br>----- ----- ---------- --- --- ------ ------ ---- -- ------<br>------- The ------ ----- --- ---- ------- -- ---- --- --<br>------- ------,261490,261489,261088.7,261091,261105.42,261505.36,,44,The
screen,html.Screen,2_1_1_1_45,2022-02-03T14:16:38.416Z,,,,,,,,,,,,,,,,,54,,,,,,,,,,,,,,303.64000000001397,,response,,,,100,,,,,,,Space,keypress(Space),,,,,,,,-- --- ---- --- ------ ----- ------- ---- -- --- ------- --<br>------- ---------- ------ -- ----- -- ----- -- ---- ------<br>--- ----- --- --- ------ -------- ----- --- ------ ----- --<br>----- ----- ---------- --- --- ------ ------ ---- -- ------<br>------- --- French ----- --- ---- ------- -- ---- --- --<br>------- ------,261810,261809,261488.72,261491,261505.36,261822.08,,45,French
screen,html.Screen,2_1_1_1_46,2022-02-03T14:16:38.672Z,,,,,,,,,,,,,,,,,54,,,,,,,,,,,,,,242.9200000000128,,response,,,,100,,,,,,,Space,keypress(Space),,,,,,,,-- --- ---- --- ------ ----- ------- ---- -- --- ------- --<br>------- ---------- ------ -- ----- -- ----- -- ---- ------<br>--- ----- --- --- ------ -------- ----- --- ------ ----- --<br>----- ----- ---------- --- --- ------ ------ ---- -- ------<br>------- --- ------ state --- ---- ------- -- ---- --- --<br>------- ------,262066,262065,261805.38,261811,261822.08,262071.98,,46,state
screen,html.Screen,2_1_1_1_47,2022-02-03T14:16:38.952Z,,,,,,,,,,,,,,,,,54,,,,,,,,,,,,,,273.0199999999895,,response,,,,100,,,,,,,Space,keypress(Space),,,,,,,,-- --- ---- --- ------ ----- ------- ---- -- --- ------- --<br>------- ---------- ------ -- ----- -- ----- -- ---- ------<br>--- ----- --- --- ------ -------- ----- --- ------ ----- --<br>----- ----- ---------- --- --- ------ ------ ---- -- ------<br>------- --- ------ ----- was ---- ------- -- ---- --- --<br>------- ------,262346,262345,262055.44,262067,262071.98,262355.42,,47,was
screen,html.Screen,2_1_1_1_48,2022-02-03T14:16:39.256Z,,,,,,,,,,,,,,,,,54,,,,,,,,,,,,,,293.5800000000163,,response,,,,100,,,,,,,Space,keypress(Space),,,,,,,,-- --- ---- --- ------ ----- ------- ---- -- --- ------- --<br>------- ---------- ------ -- ----- -- ----- -- ---- ------<br>--- ----- --- --- ------ -------- ----- --- ------ ----- --<br>----- ----- ---------- --- --- ------ ------ ---- -- ------<br>------- --- ------ ----- --- left ------- -- ---- --- --<br>------- ------,262651,262649,262338.76,262346,262355.42,262672,,48,left
screen,html.Screen,2_1_1_1_49,2022-02-03T14:16:39.560Z,,,,,,,,,,,,,,,,,54,,,,,,,,,,,,,,281,,response,,,,100,,,,,,,Space,keypress(Space),,,,,,,,-- --- ---- --- ------ ----- ------- ---- -- --- ------- --<br>------- ---------- ------ -- ----- -- ----- -- ---- ------<br>--- ----- --- --- ------ -------- ----- --- ------ ----- --<br>----- ----- ---------- --- --- ------ ------ ---- -- ------<br>------- --- ------ ----- --- ---- without -- ---- --- --<br>------- ------,262954,262953,262655.44,262651,262672,262972.08,,49,without
screen,html.Screen,2_1_1_1_50,2022-02-03T14:16:39.857Z,,,,,,,,,,,,,,,,,54,,,,,,,,,,,,,,276.9199999999837,,response,,,,100,,,,,,,Space,keypress(Space),,,,,,,,-- --- ---- --- ------ ----- ------- ---- -- --- ------- --<br>------- ---------- ------ -- ----- -- ----- -- ---- ------<br>--- ----- --- --- ------ -------- ----- --- ------ ----- --<br>----- ----- ---------- --- --- ------ ------ ---- -- ------<br>------- --- ------ ----- --- ---- ------- an ---- --- --<br>------- ------,263251,263249,262955.42,262955,262972.08,263272.06,,50,an
screen,html.Screen,2_1_1_1_51,2022-02-03T14:16:40.137Z,,,,,,,,,,,,,,,,,54,,,,,,,,,,,,,,256.9400000000023,,response,,,,100,,,,,,,Space,keypress(Space),,,,,,,,-- --- ---- --- ------ ----- ------- ---- -- --- ------- --<br>------- ---------- ------ -- ----- -- ----- -- ---- ------<br>--- ----- --- --- ------ -------- ----- --- ------ ----- --<br>----- ----- ---------- --- --- ------ ------ ---- -- ------<br>------- --- ------ ----- --- ---- ------- -- easy --- --<br>------- ------,263530,263529,263255.42,263251,263272.06,263538.76,,51,easy
screen,html.Screen,2_1_1_1_52,2022-02-03T14:16:40.504Z,,,,,,,,,,,,,,,,,54,,,,,,,,,,,,,,358.2399999999907,,response,,,,100,,,,,,,Space,keypress(Space),,,,,,,,-- --- ---- --- ------ ----- ------- ---- -- --- ------- --<br>------- ---------- ------ -- ----- -- ----- -- ---- ------<br>--- ----- --- --- ------ -------- ----- --- ------ ----- --<br>----- ----- ---------- --- --- ------ ------ ---- -- ------<br>------- --- ------ ----- --- ---- ------- -- ---- way --<br>------- ------,263898,263897,263522.08,263530,263538.76,263905.36,,52,way
screen,html.Screen,2_1_1_1_53,2022-02-03T14:16:40.809Z,,,,,,,,,,,,,,,,,54,,,,,,,,,,,,,,295.64000000001397,,response,,,,100,,,,,,,Space,keypress(Space),,,,,,,,-- --- ---- --- ------ ----- ------- ---- -- --- ------- --<br>------- ---------- ------ -- ----- -- ----- -- ---- ------<br>--- ----- --- --- ------ -------- ----- --- ------ ----- --<br>----- ----- ---------- --- --- ------ ------ ---- -- ------<br>------- --- ------ ----- --- ---- ------- -- ---- --- of<br>------- ------,264202,264201,263888.62,263899,263905.36,264222.08,,53,of
screen,html.Screen,2_1_1_1_54,2022-02-03T14:16:41.553Z,,,,,,,,,,,,,,,,,54,,,,,,,,,,,,,,722.9199999999837,,response,,,,100,,,,,,,Space,keypress(Space),,,,,,,,-- --- ---- --- ------ ----- ------- ---- -- --- ------- --<br>------- ---------- ------ -- ----- -- ----- -- ---- ------<br>--- ----- --- --- ------ -------- ----- --- ------ ----- --<br>----- ----- ---------- --- --- ------ ------ ---- -- ------<br>------- --- ------ ----- --- ---- ------- -- ---- --- --<br>raising ------,264946,264945,264205.42,264202,264222.08,264955.3,,54,raising
screen,html.Screen,2_1_1_1_55,2022-02-03T14:16:41.864Z,,,,,,,,,,,,,,,,,54,,,,,,,,,,,,,,301.70000000001164,,response,,,,100,,,,,,,Space,keypress(Space),,,,,,,,-- --- ---- --- ------ ----- ------- ---- -- --- ------- --<br>------- ---------- ------ -- ----- -- ----- -- ---- ------<br>--- ----- --- --- ------ -------- ----- --- ------ ----- --<br>----- ----- ---------- --- --- ------ ------ ---- -- ------<br>------- --- ------ ----- --- ---- ------- -- ---- --- --<br>------- money.,265258,265257,264938.74,264947,264955.3,265272,,55,money.
Item 100,flow.Loop,2_1_1_1,2022-02-03T14:16:41.865Z,,,,,,,,,,,,,,,,,,,,,,,,,,,,,,,25551.600000000006,,completion,,,,,A,,,,,,,,,,,silence,,,,,265259,265257,239688.68,239690,239705.4,265272,,,
Question 1,html.Screen,2_1_1_2,2022-02-03T14:16:44.069Z,,,,,,,,,,,,,,,,,,,,,,,,,,,,true,TRUE,,2187,,response,,,,100,A,,,,,,TRUE,click #choice-1,,,,silence,,,,,267463,267459,265255.42,265259,265272,267472.1,,,
Question 2,html.Screen,2_1_1_3,2022-02-03T14:16:45.621Z,,,,,,,,,,,,,,,,,,,,,,,,,,,,true,FALSE,,1538.9000000000233,,response,,,,100,A,,,,,,FALSE,click #choice-2,,,,silence,,,,,269015,269011,267455.46,267463,267472.1,269022,,,
Item 100,flow.Sequence,2_1_1,2022-02-03T14:16:45.621Z,,,,,,,,,,,,,,,,,,,,,,,,,,,,,,,39305.72,,completion,,,,,,,,,,,,,,,,,,,,,269015,269011,229688.74,229688,229705.28,269022,,,
End of Practice,html.Page,2_1_2,2022-02-03T14:16:48.601Z,,,,,,,,,,,,,,,,,,,,,,,,,,,,,,,2971,,form submission,,,,,,,,,,,,,,,,,,,,,271994,271993,269005.38,269016,269022,272005.42,,,
Practice,flow.Sequence,2_1,2022-02-03T14:16:48.601Z,,,,,,,,,,,,,,,,,,,,,,,,,,,,,,,82021,,completion,,,,,,,,,,,,,,,,,,,,,271995,271993,189955.32,189954,189972,272005.42,,,
Trap_instruction,html.Page,2_2_0,2022-02-03T14:16:51.832Z,,,,,,,,,,,,,,,,,,,,,,,,,,,,,,,3219.5800000000163,,form submission,,,,,,,,,,,,,,,,,,,,,275226,275225,271988.66,271996,272005.42,275255.36,,,
trap_trial,html.Screen,2_2_1,2022-02-03T14:16:55.020Z,,,,,,,,,,,,,,,,,,,,,,,,,,,,true,1,,3155.640000000014,,response,,,,,,,,,,,1,click #choice-1,,,,,,,,,278414,278411,275238.76,275226,275255.36,278422.04,,,
end of trap trial,html.Page,2_2_2,2022-02-03T14:16:56.215Z,,,,,,,,,,,,,,,,,,,,,,,,,,,,,,,1185.960000000021,,form submission,,,,,,,,,,,,,,,,,,,,,279609,279608,278405.48,278414,278422.04,279622.12,,,
Trap 1,flow.Sequence,2_2,2022-02-03T14:16:56.216Z,,,,,,,,,,,,,,,,,,,,,,,,,,,,,,,7602.580000000016,,completion,,,,,,,,,,,,,,,,,,,,,279610,279608,271988.66,271996,272005.42,279622.12,,,
Standby,html.Page,2_3_0,2022-02-03T14:17:04.213Z,,,,,,,,,,,,,,,,,,,,,,,,,,,,,,,8000.020000000019,,timeout,,,,,,,,,,,,,,,,,,,,,287607,287605.48,279605.34,279610,279622.12,287622.14,,,
Holding screen,html.Screen,2_3_1_0_0,2022-02-03T14:17:11.213Z,,,,,,,,,,,,,,,,,,,,,,,,,,,,,,,7000,,timeout,,,,,,,,,,,,,,,,,,,,,294607,294605.5,287605.48,287608,287622.14,294622.14,,,
screen,html.Screen,2_3_1_0_1_0,2022-02-03T14:17:14.625Z,,,,,,,,,,,,,,,,,51,,,,,,,,,,,,,,3395.859999999986,,response,,,,13,A,,,,,,Space,keypress(Space),,,,silence,,,,American -------- --- --- ---- --- --- ------ -- --------<br>---- --------- --- ------- ------------ ---------- ---------<br>--- ---------- ------- ---------- ------- -- -------- ----<br>---- --- ------ ----- ------ -- ---- --- ----- -- - -------<br>-------- -- --- --- -- ----- ----------- ----- -----------<br>---- --- ---------- --- ---- --- -- ----------,298019,298018,294605.5,294607,294622.14,298038.76,,0,American
screen,html.Screen,2_3_1_0_1_1,2022-02-03T14:17:15.528Z,,,,,,,,,,,,,,,,,51,,,,,,,,,,,,,,882.2399999999907,,response,,,,13,A,,,,,,Space,keypress(Space),,,,silence,,,,-------- industry --- --- ---- --- --- ------ -- --------<br>---- --------- --- ------- ------------ ---------- ---------<br>--- ---------- ------- ---------- ------- -- -------- ----<br>---- --- ------ ----- ------ -- ---- --- ----- -- - -------<br>-------- -- --- --- -- ----- ----------- ----- -----------<br>---- --- ---------- --- ---- --- -- ----------,298922,298921,298022.14,298019,298038.76,298938.8,,1,industry
screen,html.Screen,2_3_1_0_1_2,2022-02-03T14:17:15.856Z,,,,,,,,,,,,,,,,,51,,,,,,,,,,,,,,311.20000000001164,,response,,,,13,A,,,,,,Space,keypress(Space),,,,silence,,,,-------- -------- may --- ---- --- --- ------ -- --------<br>---- --------- --- ------- ------------ ---------- ---------<br>--- ---------- ------- ---------- ------- -- -------- ----<br>---- --- ------ ----- ------ -- ---- --- ----- -- - -------<br>-------- -- --- --- -- ----- ----------- ----- -----------<br>---- --- ---------- --- ---- --- -- ----------,299250,299250,298922.04,298923,298938.8,299272.26,,2,may
screen,html.Screen,2_3_1_0_1_3,2022-02-03T14:17:16.169Z,,,,,,,,,,,,,,,,,51,,,,,,,,,,,,,,288.7399999999907,,response,,,,13,A,,,,,,Space,keypress(Space),,,,silence,,,,-------- -------- --- not ---- --- --- ------ -- --------<br>---- --------- --- ------- ------------ ---------- ---------<br>--- ---------- ------- ---------- ------- -- -------- ----<br>---- --- ------ ----- ------ -- ---- --- ----- -- - -------<br>-------- -- --- --- -- ----- ----------- ----- -----------<br>---- --- ---------- --- ---- --- -- ----------,299562,299561,299255.5,299251,299272.26,299572.08,,3,not
screen,html.Screen,2_3_1_0_1_4,2022-02-03T14:17:17.024Z,,,,,,,,,,,,,,,,,51,,,,,,,,,,,,,,844.9199999999837,,response,,,,13,A,,,,,,Space,keypress(Space),,,,silence,,,,-------- -------- --- --- know --- --- ------ -- --------<br>---- --------- --- ------- ------------ ---------- ---------<br>--- ---------- ------- ---------- ------- -- -------- ----<br>---- --- ------ ----- ------ -- ---- --- ----- -- - -------<br>-------- -- --- --- -- ----- ----------- ----- -----------<br>---- --- ---------- --- ---- --- -- ----------,300418,300417,299555.5,299562,299572.08,300438.74,,4,know
screen,html.Screen,2_3_1_0_1_5,2022-02-03T14:17:17.769Z,,,,,,,,,,,,,,,,,51,,,,,,,,,,,,,,722.2600000000093,,response,,,,13,A,,,,,,Space,keypress(Space),,,,silence,,,,"-------- -------- --- --- ---- it, --- ------ -- --------<br>---- --------- --- ------- ------------ ---------- ---------<br>--- ---------- ------- ---------- ------- -- -------- ----<br>---- --- ------ ----- ------ -- ---- --- ----- -- - -------<br>-------- -- --- --- -- ----- ----------- ----- -----------<br>---- --- ---------- --- ---- --- -- ----------",301162,301161,300422.14,300419,300438.74,301172.1,,5,"it,"
screen,html.Screen,2_3_1_0_1_6,2022-02-03T14:17:18.040Z,,,,,,,,,,,,,,,,,51,,,,,,,,,,,,,,260.9000000000233,,response,,,,13,A,,,,,,Space,keypress(Space),,,,silence,,,,-------- -------- --- --- ---- --- but ------ -- --------<br>---- --------- --- ------- ------------ ---------- ---------<br>--- ---------- ------- ---------- ------- -- -------- ----<br>---- --- ------ ----- ------ -- ---- --- ----- -- - -------<br>-------- -- --- --- -- ----- ----------- ----- -----------<br>---- --- ---------- --- ---- --- -- ----------,301434,301433,301155.44,301162,301172.1,301455.5,,6,but
screen,html.Screen,2_3_1_0_1_7,2022-02-03T14:17:18.200Z,,,,,,,,,,,,,,,,,51,,,,,,,,,,,,,,137.5,,response,,,,13,A,,,,,,Space,keypress(Space),,,,silence,,,,-------- -------- --- --- ---- --- --- debate -- --------<br>---- --------- --- ------- ------------ ---------- ---------<br>--- ---------- ------- ---------- ------- -- -------- ----<br>---- --- ------ ----- ------ -- ---- --- ----- -- - -------<br>-------- -- --- --- -- ----- ----------- ----- -----------<br>---- --- ---------- --- ---- --- -- ----------,301594,301593,301438.76,301435,301455.5,301605.52,,7,debate
screen,html.Screen,2_3_1_0_1_8,2022-02-03T14:17:18.672Z,,,,,,,,,,,,,,,,,51,,,,,,,,,,,,,,459.4799999999814,,response,,,,13,A,,,,,,Space,keypress(Space),,,,silence,,,,-------- -------- --- --- ---- --- --- ------ in --------<br>---- --------- --- ------- ------------ ---------- ---------<br>--- ---------- ------- ---------- ------- -- -------- ----<br>---- --- ------ ----- ------ -- ---- --- ----- -- - -------<br>-------- -- --- --- -- ----- ----------- ----- -----------<br>---- --- ---------- --- ---- --- -- ----------,302066,302065,301588.76,301594,301605.52,302072.06,,8,in
screen,html.Screen,2_3_1_0_1_9,2022-02-03T14:17:19.104Z,,,,,,,,,,,,,,,,,51,,,,,,,,,,,,,,424.9400000000023,,response,,,,13,A,,,,,,Space,keypress(Space),,,,silence,,,,-------- -------- --- --- ---- --- --- ------ -- Congress<br>---- --------- --- ------- ------------ ---------- ---------<br>--- ---------- ------- ---------- ------- -- -------- ----<br>---- --- ------ ----- ------ -- ---- --- ----- -- - -------<br>-------- -- --- --- -- ----- ----------- ----- -----------<br>---- --- ---------- --- ---- --- -- ----------,302498,302497,302055.44,302067,302072.06,302505.38,,9,Congress
screen,html.Screen,2_3_1_0_1_10,2022-02-03T14:17:19.464Z,,,,,,,,,,,,,,,,,51,,,,,,,,,,,,,,351.61999999999534,,response,,,,13,A,,,,,,Space,keypress(Space),,,,silence,,,,-------- -------- --- --- ---- --- --- ------ -- --------<br>over --------- --- ------- ------------ ---------- ---------<br>--- ---------- ------- ---------- ------- -- -------- ----<br>---- --- ------ ----- ------ -- ---- --- ----- -- - -------<br>-------- -- --- --- -- ----- ----------- ----- -----------<br>---- --- ---------- --- ---- --- -- ----------,302858,302857,302488.78,302499,302505.38,302872.1,,10,over
screen,html.Screen,2_3_1_0_1_11,2022-02-03T14:17:19.856Z,,,,,,,,,,,,,,,,,51,,,,,,,,,,,,,,376.9000000000233,,response,,,,13,A,,,,,,Space,keypress(Space),,,,silence,,,,-------- -------- --- --- ---- --- --- ------ -- --------<br>---- reforming --- ------- ------------ ---------- ---------<br>--- ---------- ------- ---------- ------- -- -------- ----<br>---- --- ------ ----- ------ -- ---- --- ----- -- - -------<br>-------- -- --- --- -- ----- ----------- ----- -----------<br>---- --- ---------- --- ---- --- -- ----------,303251,303249,302855.48,302858,302872.1,303272.1,,11,reforming
screen,html.Screen,2_3_1_0_1_12,2022-02-03T14:17:20.208Z,,,,,,,,,,,,,,,,,51,,,,,,,,,,,,,,328.9000000000233,,response,,,,13,A,,,,,,Space,keypress(Space),,,,silence,,,,-------- -------- --- --- ---- --- --- ------ -- --------<br>---- --------- the ------- ------------ ---------- ---------<br>--- ---------- ------- ---------- ------- -- -------- ----<br>---- --- ------ ----- ------ -- ---- --- ----- -- - -------<br>-------- -- --- --- -- ----- ----------- ----- -----------<br>---- --- ---------- --- ---- --- -- ----------,303602,303601,303255.48,303251,303272.1,303622.14,,12,the
screen,html.Screen,2_3_1_0_1_13,2022-02-03T14:17:20.410Z,,,,,,,,,,,,,,,,,51,,,,,,,,,,,,,,180.85999999998603,,response,,,,13,A,,,,,,Space,keypress(Space),,,,silence,,,,-------- -------- --- --- ---- --- --- ------ -- --------<br>---- --------- --- federal ------------ ---------- ---------<br>--- ---------- ------- ---------- ------- -- -------- ----<br>---- --- ------ ----- ------ -- ---- --- ----- -- - -------<br>-------- -- --- --- -- ----- ----------- ----- -----------<br>---- --- ---------- --- ---- --- -- ----------,303804,303803,303605.38,303602,303622.14,303822.18,,13,federal
screen,html.Screen,2_3_1_0_1_14,2022-02-03T14:17:20.992Z,,,,,,,,,,,,,,,,,51,,,,,,,,,,,,,,562.820000000007,,response,,,,13,A,,,,,,Space,keypress(Space),,,,silence,,,,-------- -------- --- --- ---- --- --- ------ -- --------<br>---- --------- --- ------- government's ---------- ---------<br>--- ---------- ------- ---------- ------- -- -------- ----<br>---- --- ------ ----- ------ -- ---- --- ----- -- - -------<br>-------- -- --- --- -- ----- ----------- ----- -----------<br>---- --- ---------- --- ---- --- -- ----------,304386,304385,303805.4,303804,303822.18,304405.5,,14,government's
screen,html.Screen,2_3_1_0_1_15,2022-02-03T14:17:21.248Z,,,,,,,,,,,,,,,,,51,,,,,,,,,,,,,,235.5,,response,,,,13,A,,,,,,Space,keypress(Space),,,,silence,,,,-------- -------- --- --- ---- --- --- ------ -- --------<br>---- --------- --- ------- ------------ regulatory ---------<br>--- ---------- ------- ---------- ------- -- -------- ----<br>---- --- ------ ----- ------ -- ---- --- ----- -- - -------<br>-------- -- --- --- -- ----- ----------- ----- -----------<br>---- --- ---------- --- ---- --- -- ----------,304642,304641,304388.82,304386,304405.5,304655.48,,15,regulatory
screen,html.Screen,2_3_1_0_1_16,2022-02-03T14:17:21.832Z,,,,,,,,,,,,,,,,,51,,,,,,,,,,,,,,569.5200000000186,,response,,,,13,A,,,,,,Space,keypress(Space),,,,silence,,,,-------- -------- --- --- ---- --- --- ------ -- --------<br>---- --------- --- ------- ------------ ---------- apparatus<br>--- ---------- ------- ---------- ------- -- -------- ----<br>---- --- ------ ----- ------ -- ---- --- ----- -- - -------<br>-------- -- --- --- -- ----- ----------- ----- -----------<br>---- --- ---------- --- ---- --- -- ----------,305226,305225,304638.82,304643,304655.48,305238.78,,16,apparatus
screen,html.Screen,2_3_1_0_1_17,2022-02-03T14:17:22.264Z,,,,,,,,,,,,,,,,,51,,,,,,,,,,,,,,418.21999999997206,,response,,,,13,A,,,,,,Space,keypress(Space),,,,silence,,,,-------- -------- --- --- ---- --- --- ------ -- --------<br>---- --------- --- ------- ------------ ---------- ---------<br>may ---------- ------- ---------- ------- -- -------- ----<br>---- --- ------ ----- ------ -- ---- --- ----- -- - -------<br>-------- -- --- --- -- ----- ----------- ----- -----------<br>---- --- ---------- --- ---- --- -- ----------,305658,305657,305222.14,305227,305238.78,305672.16,,17,may
screen,html.Screen,2_3_1_0_1_18,2022-02-03T14:17:22.496Z,,,,,,,,,,,,,,,,,51,,,,,,,,,,,,,,217.8400000000256,,response,,,,13,A,,,,,,Space,keypress(Space),,,,silence,,,,-------- -------- --- --- ---- --- --- ------ -- --------<br>---- --------- --- ------- ------------ ---------- ---------<br>--- profoundly ------- ---------- ------- -- -------- ----<br>---- --- ------ ----- ------ -- ---- --- ----- -- - -------<br>-------- -- --- --- -- ----- ----------- ----- -----------<br>---- --- ---------- --- ---- --- -- ----------,305890,305890,305655.5,305659,305672.16,305905.52,,18,profoundly
screen,html.Screen,2_3_1_0_1_19,2022-02-03T14:17:23.168Z,,,,,,,,,,,,,,,,,51,,,,,,,,,,,,,,655.4799999999814,,response,,,,13,A,,,,,,Space,keypress(Space),,,,silence,,,,-------- -------- --- --- ---- --- --- ------ -- --------<br>---- --------- --- ------- ------------ ---------- ---------<br>--- ---------- improve ---------- ------- -- -------- ----<br>---- --- ------ ----- ------ -- ---- --- ----- -- - -------<br>-------- -- --- --- -- ----- ----------- ----- -----------<br>---- --- ---------- --- ---- --- -- ----------,306562,306561,305888.76,305891,305905.52,306572.18,,19,improve
screen,html.Screen,2_3_1_0_1_20,2022-02-03T14:17:23.680Z,,,,,,,,,,,,,,,,,51,,,,,,,,,,,,,,500.820000000007,,response,,,,13,A,,,,,,Space,keypress(Space),,,,silence,,,,-------- -------- --- --- ---- --- --- ------ -- --------<br>---- --------- --- ------- ------------ ---------- ---------<br>--- ---------- ------- companies' ------- -- -------- ----<br>---- --- ------ ----- ------ -- ---- --- ----- -- - -------<br>-------- -- --- --- -- ----- ----------- ----- -----------<br>---- --- ---------- --- ---- --- -- ----------,307074,307073,306555.5,306562,306572.18,307088.82,,20,companies'
screen,html.Screen,2_3_1_0_1_21,2022-02-03T14:17:24.225Z,,,,,,,,,,,,,,,,,51,,,,,,,,,,,,,,528.179999999993,,response,,,,13,A,,,,,,Space,keypress(Space),,,,silence,,,,-------- -------- --- --- ---- --- --- ------ -- --------<br>---- --------- --- ------- ------------ ---------- ---------<br>--- ---------- ------- ---------- ability -- -------- ----<br>---- --- ------ ----- ------ -- ---- --- ----- -- - -------<br>-------- -- --- --- -- ----- ----------- ----- -----------<br>---- --- ---------- --- ---- --- -- ----------,307618,307617,307072.12,307074,307088.82,307638.78,,21,ability
screen,html.Screen,2_3_1_0_1_22,2022-02-03T14:17:24.488Z,,,,,,,,,,,,,,,,,51,,,,,,,,,,,,,,242.21999999997206,,response,,,,13,A,,,,,,Space,keypress(Space),,,,silence,,,,-------- -------- --- --- ---- --- --- ------ -- --------<br>---- --------- --- ------- ------------ ---------- ---------<br>--- ---------- ------- ---------- ------- to -------- ----<br>---- --- ------ ----- ------ -- ---- --- ----- -- - -------<br>-------- -- --- --- -- ----- ----------- ----- -----------<br>---- --- ---------- --- ---- --- -- ----------,307882,307881,307622.18,307618,307638.78,307888.72,,22,to
screen,html.Screen,2_3_1_0_1_23,2022-02-03T14:17:24.744Z,,,,,,,,,,,,,,,,,51,,,,,,,,,,,,,,248.28000000002794,,response,,,,13,A,,,,,,Space,keypress(Space),,,,silence,,,,-------- -------- --- --- ---- --- --- ------ -- --------<br>---- --------- --- ------- ------------ ---------- ---------<br>--- ---------- ------- ---------- ------- -- survive. ----<br>---- --- ------ ----- ------ -- ---- --- ----- -- - -------<br>-------- -- --- --- -- ----- ----------- ----- -----------<br>---- --- ---------- --- ---- --- -- ----------,308138,308137,307872.12,307882,307888.72,308155.52,,23,survive.
screen,html.Screen,2_3_1_0_1_24,2022-02-03T14:17:25.280Z,,,,,,,,,,,,,,,,,51,,,,,,,,,,,,,,517.4799999999814,,response,,,,13,A,,,,,,Space,keypress(Space),,,,silence,,,,-------- -------- --- --- ---- --- --- ------ -- --------<br>---- --------- --- ------- ------------ ---------- ---------<br>--- ---------- ------- ---------- ------- -- -------- This<br>---- --- ------ ----- ------ -- ---- --- ----- -- - -------<br>-------- -- --- --- -- ----- ----------- ----- -----------<br>---- --- ---------- --- ---- --- -- ----------,308674,308673,308138.82,308139,308155.52,308688.84,,24,This
screen,html.Screen,2_3_1_0_1_25,2022-02-03T14:17:25.704Z,,,,,,,,,,,,,,,,,51,,,,,,,,,,,,,,409.1599999999744,,response,,,,13,A,,,,,,Space,keypress(Space),,,,silence,,,,-------- -------- --- --- ---- --- --- ------ -- --------<br>---- --------- --- ------- ------------ ---------- ---------<br>--- ---------- ------- ---------- ------- -- -------- ----<br>week --- ------ ----- ------ -- ---- --- ----- -- - -------<br>-------- -- --- --- -- ----- ----------- ----- -----------<br>---- --- ---------- --- ---- --- -- ----------,309099,309098,308672.06,308674,308688.84,309105.44,,25,week
screen,html.Screen,2_3_1_0_1_26,2022-02-03T14:17:26.152Z,,,,,,,,,,,,,,,,,51,,,,,,,,,,,,,,439.5599999999977,,response,,,,13,A,,,,,,Space,keypress(Space),,,,silence,,,,-------- -------- --- --- ---- --- --- ------ -- --------<br>---- --------- --- ------- ------------ ---------- ---------<br>--- ---------- ------- ---------- ------- -- -------- ----<br>---- the ------ ----- ------ -- ---- --- ----- -- - -------<br>-------- -- --- --- -- ----- ----------- ----- -----------<br>---- --- ---------- --- ---- --- -- ----------,309546,309545,309088.82,309099,309105.44,309555.46,,26,the
screen,html.Screen,2_3_1_0_1_27,2022-02-03T14:17:26.817Z,,,,,,,,,,,,,,,,,51,,,,,,,,,,,,,,653.539999999979,,response,,,,13,A,,,,,,Space,keypress(Space),,,,silence,,,,-------- -------- --- --- ---- --- --- ------ -- --------<br>---- --------- --- ------- ------------ ---------- ---------<br>--- ---------- ------- ---------- ------- -- -------- ----<br>---- --- Senate ----- ------ -- ---- --- ----- -- - -------<br>-------- -- --- --- -- ----- ----------- ----- -----------<br>---- --- ---------- --- ---- --- -- ----------,310210,310209,309538.82,309547,309555.46,310222.16,,27,Senate
screen,html.Screen,2_3_1_0_1_28,2022-02-03T14:17:27.329Z,,,,,,,,,,,,,,,,,51,,,,,,,,,,,,,,498.8400000000256,,response,,,,13,A,,,,,,Space,keypress(Space),,,,silence,,,,-------- -------- --- --- ---- --- --- ------ -- --------<br>---- --------- --- ------- ------------ ---------- ---------<br>--- ---------- ------- ---------- ------- -- -------- ----<br>---- --- ------ seems ------ -- ---- --- ----- -- - -------<br>-------- -- --- --- -- ----- ----------- ----- -----------<br>---- --- ---------- --- ---- --- -- ----------,310722,310721,310205.52,310211,310222.16,310738.82,,28,seems
screen,html.Screen,2_3_1_0_1_29,2022-02-03T14:17:27.657Z,,,,,,,,,,,,,,,,,51,,,,,,,,,,,,,,310.179999999993,,response,,,,13,A,,,,,,Space,keypress(Space),,,,silence,,,,-------- -------- --- --- ---- --- --- ------ -- --------<br>---- --------- --- ------- ------------ ---------- ---------<br>--- ---------- ------- ---------- ------- -- -------- ----<br>---- --- ------ ----- poised -- ---- --- ----- -- - -------<br>-------- -- --- --- -- ----- ----------- ----- -----------<br>---- --- ---------- --- ---- --- -- ----------,311050,311049,310722.16,310723,310738.82,311072.1,,29,poised
screen,html.Screen,2_3_1_0_1_30,2022-02-03T14:17:28.225Z,,,,,,,,,,,,,,,,,51,,,,,,,,,,,,,,544.9000000000233,,response,,,,13,A,,,,,,Space,keypress(Space),,,,silence,,,,-------- -------- --- --- ---- --- --- ------ -- --------<br>---- --------- --- ------- ------------ ---------- ---------<br>--- ---------- ------- ---------- ------- -- -------- ----<br>---- --- ------ ----- ------ to ---- --- ----- -- - -------<br>-------- -- --- --- -- ----- ----------- ----- -----------<br>---- --- ---------- --- ---- --- -- ----------,311619,311617,311055.5,311050,311072.1,311638.8,,30,to
screen,html.Screen,2_3_1_0_1_31,2022-02-03T14:17:28.841Z,,,,,,,,,,,,,,,,,51,,,,,,,,,,,,,,595.2000000000116,,response,,,,13,A,,,,,,Space,keypress(Space),,,,silence,,,,-------- -------- --- --- ---- --- --- ------ -- --------<br>---- --------- --- ------- ------------ ---------- ---------<br>--- ---------- ------- ---------- ------- -- -------- ----<br>---- --- ------ ----- ------ -- join --- ----- -- - -------<br>-------- -- --- --- -- ----- ----------- ----- -----------<br>---- --- ---------- --- ---- --- -- ----------,312234,312234,311622.18,311619,311638.8,312255.52,,31,join
screen,html.Screen,2_3_1_0_1_32,2022-02-03T14:17:29.112Z,,,,,,,,,,,,,,,,,51,,,,,,,,,,,,,,249.47999999998137,,response,,,,13,A,,,,,,Space,keypress(Space),,,,silence,,,,-------- -------- --- --- ---- --- --- ------ -- --------<br>---- --------- --- ------- ------------ ---------- ---------<br>--- ---------- ------- ---------- ------- -- -------- ----<br>---- --- ------ ----- ------ -- ---- the ----- -- - -------<br>-------- -- --- --- -- ----- ----------- ----- -----------<br>---- --- ---------- --- ---- --- -- ----------,312506,312505,312238.84,312235,312255.52,312522.18,,32,the
screen,html.Screen,2_3_1_0_1_33,2022-02-03T14:17:29.449Z,,,,,,,,,,,,,,,,,51,,,,,,,,,,,,,,318.820000000007,,response,,,,13,A,,,,,,Space,keypress(Space),,,,silence,,,,-------- -------- --- --- ---- --- --- ------ -- --------<br>---- --------- --- ------- ------------ ---------- ---------<br>--- ---------- ------- ---------- ------- -- -------- ----<br>---- --- ------ ----- ------ -- ---- --- House -- - -------<br>-------- -- --- --- -- ----- ----------- ----- -----------<br>---- --- ---------- --- ---- --- -- ----------,312842,312841,312505.46,312507,312522.18,312855.52,,33,House
screen,html.Screen,2_3_1_0_1_34,2022-02-03T14:17:29.744Z,,,,,,,,,,,,,,,,,51,,,,,,,,,,,,,,281.4799999999814,,response,,,,13,A,,,,,,Space,keypress(Space),,,,silence,,,,-------- -------- --- --- ---- --- --- ------ -- --------<br>---- --------- --- ------- ------------ ---------- ---------<br>--- ---------- ------- ---------- ------- -- -------- ----<br>---- --- ------ ----- ------ -- ---- --- ----- in - -------<br>-------- -- --- --- -- ----- ----------- ----- -----------<br>---- --- ---------- --- ---- --- -- ----------,313139,313137,312838.78,312843,312855.52,313155.44,,34,in
screen,html.Screen,2_3_1_0_1_35,2022-02-03T14:17:30.016Z,,,,,,,,,,,,,,,,,51,,,,,,,,,,,,,,253.55999999999767,,response,,,,13,A,,,,,,Space,keypress(Space),,,,silence,,,,-------- -------- --- --- ---- --- --- ------ -- --------<br>---- --------- --- ------- ------------ ---------- ---------<br>--- ---------- ------- ---------- ------- -- -------- ----<br>---- --- ------ ----- ------ -- ---- --- ----- -- a -------<br>-------- -- --- --- -- ----- ----------- ----- -----------<br>---- --- ---------- --- ---- --- -- ----------,313410,313409,313138.78,313139,313155.44,313422.18,,35,a
screen,html.Screen,2_3_1_0_1_36,2022-02-03T14:17:30.457Z,,,,,,,,,,,,,,,,,51,,,,,,,,,,,,,,426.820000000007,,response,,,,13,A,,,,,,Space,keypress(Space),,,,silence,,,,-------- -------- --- --- ---- --- --- ------ -- --------<br>---- --------- --- ------- ------------ ---------- ---------<br>--- ---------- ------- ---------- ------- -- -------- ----<br>---- --- ------ ----- ------ -- ---- --- ----- -- - massive<br>-------- -- --- --- -- ----- ----------- ----- -----------<br>---- --- ---------- --- ---- --- -- ----------,313850,313849,313405.52,313410,313422.18,313872.12,,36,massive
screen,html.Screen,2_3_1_0_1_37,2022-02-03T14:17:30.720Z,,,,,,,,,,,,,,,,,51,,,,,,,,,,,,,,240.88000000000466,,response,,,,13,A,,,,,,Space,keypress(Space),,,,silence,,,,-------- -------- --- --- ---- --- --- ------ -- --------<br>---- --------- --- ------- ------------ ---------- ---------<br>--- ---------- ------- ---------- ------- -- -------- ----<br>---- --- ------ ----- ------ -- ---- --- ----- -- - -------<br>overhaul -- --- --- -- ----- ----------- ----- -----------<br>---- --- ---------- --- ---- --- -- ----------,314114,314113,313855.52,313850,313872.12,314122.08,,37,overhaul
screen,html.Screen,2_3_1_0_1_38,2022-02-03T14:17:31.128Z,,,,,,,,,,,,,,,,,51,,,,,,,,,,,,,,398.9199999999837,,response,,,,13,A,,,,,,Space,keypress(Space),,,,silence,,,,-------- -------- --- --- ---- --- --- ------ -- --------<br>---- --------- --- ------- ------------ ---------- ---------<br>--- ---------- ------- ---------- ------- -- -------- ----<br>---- --- ------ ----- ------ -- ---- --- ----- -- - -------<br>-------- of --- --- -- ----- ----------- ----- -----------<br>---- --- ---------- --- ---- --- -- ----------,314522,314521,314105.5,314114,314122.08,314538.8,,38,of
screen,html.Screen,2_3_1_0_1_39,2022-02-03T14:17:31.521Z,,,,,,,,,,,,,,,,,51,,,,,,,,,,,,,,374.20000000001164,,response,,,,13,A,,,,,,Space,keypress(Space),,,,silence,,,,-------- -------- --- --- ---- --- --- ------ -- --------<br>---- --------- --- ------- ------------ ---------- ---------<br>--- ---------- ------- ---------- ------- -- -------- ----<br>---- --- ------ ----- ------ -- ---- --- ----- -- - -------<br>-------- -- the --- -- ----- ----------- ----- -----------<br>---- --- ---------- --- ---- --- -- ----------,314914,314913,314522.2,314522,314538.8,314922.14,,39,the
screen,html.Screen,2_3_1_0_1_40,2022-02-03T14:17:31.912Z,,,,,,,,,,,,,,,,,51,,,,,,,,,,,,,,383.85999999998603,,response,,,,13,A,,,,,,Space,keypress(Space),,,,silence,,,,-------- -------- --- --- ---- --- --- ------ -- --------<br>---- --------- --- ------- ------------ ---------- ---------<br>--- ---------- ------- ---------- ------- -- -------- ----<br>---- --- ------ ----- ------ -- ---- --- ----- -- - -------<br>-------- -- --- way -- ----- ----------- ----- -----------<br>---- --- ---------- --- ---- --- -- ----------,315306,315306,314905.52,314915,314922.14,315322.16,,40,way
screen,html.Screen,2_3_1_0_1_41,2022-02-03T14:17:32.272Z,,,,,,,,,,,,,,,,,51,,,,,,,,,,,,,,343.8400000000256,,response,,,,13,A,,,,,,Space,keypress(Space),,,,silence,,,,-------- -------- --- --- ---- --- --- ------ -- --------<br>---- --------- --- ------- ------------ ---------- ---------<br>--- ---------- ------- ---------- ------- -- -------- ----<br>---- --- ------ ----- ------ -- ---- --- ----- -- - -------<br>-------- -- --- --- in ----- ----------- ----- -----------<br>---- --- ---------- --- ---- --- -- ----------,315667,315666,315305.4,315307,315322.16,315672.12,,41,in
screen,html.Screen,2_3_1_0_1_42,2022-02-03T14:17:32.480Z,,,,,,,,,,,,,,,,,51,,,,,,,,,,,,,,200.88000000000466,,response,,,,13,A,,,,,,Space,keypress(Space),,,,silence,,,,-------- -------- --- --- ---- --- --- ------ -- --------<br>---- --------- --- ------- ------------ ---------- ---------<br>--- ---------- ------- ---------- ------- -- -------- ----<br>---- --- ------ ----- ------ -- ---- --- ----- -- - -------<br>-------- -- --- --- -- which ----------- ----- -----------<br>---- --- ---------- --- ---- --- -- ----------,315874,315873,315655.44,315667,315672.12,315888.82,,42,which
screen,html.Screen,2_3_1_0_1_43,2022-02-03T14:17:33.248Z,,,,,,,,,,,,,,,,,51,,,,,,,,,,,,,,752.179999999993,,response,,,,13,A,,,,,,Space,keypress(Space),,,,silence,,,,-------- -------- --- --- ---- --- --- ------ -- --------<br>---- --------- --- ------- ------------ ---------- ---------<br>--- ---------- ------- ---------- ------- -- -------- ----<br>---- --- ------ ----- ------ -- ---- --- ----- -- - -------<br>-------- -- --- --- -- ----- bureaucrats ----- -----------<br>---- --- ---------- --- ---- --- -- ----------,316641,316641,315872.1,315874,315888.82,316655.54,,43,bureaucrats
screen,html.Screen,2_3_1_0_1_44,2022-02-03T14:17:34.248Z,,,,,,,,,,,,,,,,,51,,,,,,,,,,,,,,985.460000000021,,response,,,,13,A,,,,,,Space,keypress(Space),,,,silence,,,,-------- -------- --- --- ---- --- --- ------ -- --------<br>---- --------- --- ------- ------------ ---------- ---------<br>--- ---------- ------- ---------- ------- -- -------- ----<br>---- --- ------ ----- ------ -- ---- --- ----- -- - -------<br>-------- -- --- --- -- ----- ----------- enact -----------<br>---- --- ---------- --- ---- --- -- ----------,317642,317641,316638.78,316642,316655.54,317655.54,,44,enact
screen,html.Screen,2_3_1_0_1_45,2022-02-03T14:17:35.120Z,,,,,,,,,,,,,,,,,51,,,,,,,,,,,,,,858.460000000021,,response,,,,13,A,,,,,,Space,keypress(Space),,,,silence,,,,-------- -------- --- --- ---- --- --- ------ -- --------<br>---- --------- --- ------- ------------ ---------- ---------<br>--- ---------- ------- ---------- ------- -- -------- ----<br>---- --- ------ ----- ------ -- ---- --- ----- -- - -------<br>-------- -- --- --- -- ----- ----------- ----- regulations<br>---- --- ---------- --- ---- --- -- ----------,318514,318514,317638.78,317642,317655.54,318522.24,,45,regulations
screen,html.Screen,2_3_1_0_1_46,2022-02-03T14:17:35.560Z,,,,,,,,,,,,,,,,,51,,,,,,,,,,,,,,430.7600000000093,,response,,,,13,A,,,,,,Space,keypress(Space),,,,silence,,,,-------- -------- --- --- ---- --- --- ------ -- --------<br>---- --------- --- ------- ------------ ---------- ---------<br>--- ---------- ------- ---------- ------- -- -------- ----<br>---- --- ------ ----- ------ -- ---- --- ----- -- - -------<br>-------- -- --- --- -- ----- ----------- ----- -----------<br>that --- ---------- --- ---- --- -- ----------,318954,318953,318505.52,318515,318522.24,318972.18,,46,that
screen,html.Screen,2_3_1_0_1_47,2022-02-03T14:17:35.904Z,,,,,,,,,,,,,,,,,51,,,,,,,,,,,,,,324.820000000007,,response,,,,13,A,,,,,,Space,keypress(Space),,,,silence,,,,-------- -------- --- --- ---- --- --- ------ -- --------<br>---- --------- --- ------- ------------ ---------- ---------<br>--- ---------- ------- ---------- ------- -- -------- ----<br>---- --- ------ ----- ------ -- ---- --- ----- -- - -------<br>-------- -- --- --- -- ----- ----------- ----- -----------<br>---- are ---------- --- ---- --- -- ----------,319298,319297,318955.5,318955,318972.18,319305.52,,47,are
screen,html.Screen,2_3_1_0_1_48,2022-02-03T14:17:36.448Z,,,,,,,,,,,,,,,,,51,,,,,,,,,,,,,,535.4799999999814,,response,,,,13,A,,,,,,Space,keypress(Space),,,,silence,,,,-------- -------- --- --- ---- --- --- ------ -- --------<br>---- --------- --- ------- ------------ ---------- ---------<br>--- ---------- ------- ---------- ------- -- -------- ----<br>---- --- ------ ----- ------ -- ---- --- ----- -- - -------<br>-------- -- --- --- -- ----- ----------- ----- -----------<br>---- --- strangling --- ---- --- -- ----------,319842,319841,319288.84,319298,319305.52,319855.54,,48,strangling
screen,html.Screen,2_3_1_0_1_49,2022-02-03T14:17:36.864Z,,,,,,,,,,,,,,,,,51,,,,,,,,,,,,,,401.46000000002095,,response,,,,13,A,,,,,,Space,keypress(Space),,,,silence,,,,-------- -------- --- --- ---- --- --- ------ -- --------<br>---- --------- --- ------- ------------ ---------- ---------<br>--- ---------- ------- ---------- ------- -- -------- ----<br>---- --- ------ ----- ------ -- ---- --- ----- -- - -------<br>-------- -- --- --- -- ----- ----------- ----- -----------<br>---- --- ---------- the ---- --- -- ----------,320258,320257,319838.8,319842,319855.54,320272.14,,49,the
screen,html.Screen,2_3_1_0_1_50,2022-02-03T14:17:37.048Z,,,,,,,,,,,,,,,,,51,,,,,,,,,,,,,,168.85999999998603,,response,,,,13,A,,,,,,Space,keypress(Space),,,,silence,,,,-------- -------- --- --- ---- --- --- ------ -- --------<br>---- --------- --- ------- ------------ ---------- ---------<br>--- ---------- ------- ---------- ------- -- -------- ----<br>---- --- ------ ----- ------ -- ---- --- ----- -- - -------<br>-------- -- --- --- -- ----- ----------- ----- -----------<br>---- --- ---------- --- life --- -- ----------,320442,320441,320255.46,320258,320272.14,320455.48,,50,life
