sender,sender_type,sender_id,timestamp,meta,,Blues,Classical,Country,Dance,Electronic,Folk,Gospel,Hip-Hop,Jazz,Latin,Musical/Film,New-age,Pop,Prolific_id,Provo_ID,R&B,Rap,Reggae,Religious,Rock,Soul,Swing,Traditional,age,artist_name,correct,correctResponse,distraction,duration,education,ended_on,familiarity,gender,headphone_check_performance,item,list,music_frequency,offensiveness,pleasantness,position_correct,preference,response,response_action,snippet_file,song_name,song_rating,sound,stimulus_1,stimulus_2,stimulus_3,text,time_commit,time_end,time_render,time_run,time_show,time_switch,url,word,word_ID
Prolific ID,html.Form,0,2022-02-02T14:40:10.212Z,"{""labjs_version"":""20.2.2"",""labjs_build"":{""flavor"":""production"",""commit"":""a25486e0c714a0ae2ce03ff94b7bb6896854dcfa""},""location"":""https://run.pavlovia.org/mvasilev/prolific2_music_c/"",""userAgent"":""Mozilla/5.0 (Windows NT 10.0; Win64; x64; rv:96.0) Gecko/20100101 Firefox/96.0"",""platform"":""Win32"",""language"":""en-US"",""locale"":""en-US"",""timeZone"":""Europe/London"",""timezoneOffset"":0,""screen_width"":1525,""screen_height"":858,""scroll_width"":1525,""scroll_height"":670,""window_innerWidth"":1525,""window_innerHeight"":718,""devicePixelRatio"":0.8955223880597015}",,,,,,,,,,,,,,,5e81ad7cb706bb88bc5c2fc8,,,,,,,,,,,,,,,8356.96,,form submission,,,,,,,,,,,,,,,,,,,,,26615,26613,18255.8,18256,18256.04,26666.04,{},,
Introduction,html.Screen,1_0,2022-02-02T14:40:16.854Z,,,,,,,,,,,,,,,,,,,,,,,,,,,,,,,6581.959999999999,,response,,,,,,,,,,,continue,click button,,,,,,,,,33257,33248,26599.26,26616,26666.04,33258.12,,,
Volume calibration,html.Screen,1_1,2022-02-02T14:40:25.169Z,,,,,,,,,,,,,,,,,,,,,,,,,,,,,,,8302.879999999997,,response,,,,,,,,,,,continue,click button,,,,,,,,,41572,41561,33255.34,33258,33258.12,41571.68,,,
Task instructions,html.Screen,1_2,2022-02-02T14:40:31.029Z,,,,,,,,,,,,,,,,,,,,,,,,,,,,,,,5848.32,,response,,,,,,,,,,,continue,click button,,,,,,,,,47432,47420,41570.24,41572,41571.68,47444.46,,,
Sounds,html.Screen,1_3_0_0,2022-02-02T14:40:35.276Z,,,,,,,,,,,,,,,,,,,,,,,,,,,,,,,4248.720000000001,,timeout,,,,,,,,,3,,,,,,,,I,O,S,,51679,51676.52,47429.66,47432,47444.46,51693.18,,,
Judgement,html.Screen,1_3_0_1,2022-02-02T14:40:36.223Z,,,,,,,,,,,,,,,,,,,,,,,,,,,,true,3,,914.8199999999997,,response,,,,,,,,,3,,3,click #choice-3,,,,,I,O,S,,52626,52608,51676.52,51679,51693.18,52629.56,,,
Trial,flow.Sequence,1_3_0,2022-02-02T14:40:36.224Z,,,,,,,,,,,,,,,,,,,,,,,,,,,,,,,5163.540000000001,,completion,,,,,,,,,3,,,,,,,,I,O,S,,52627,52608,47429.66,47432,47444.46,52629.56,,,
Sounds,html.Screen,1_3_1_0,2022-02-02T14:40:40.461Z,,,,,,,,,,,,,,,,,,,,,,,,,,,,,,,4249.580000000002,,timeout,,,,,,,,,2,,,,,,,,O,S,I,,56865,56862.46,52624.18,52628,52629.56,56879.14,,,
Judgement,html.Screen,1_3_1_1,2022-02-02T14:40:40.855Z,,,,,,,,,,,,,,,,,,,,,,,,,,,,true,2,,368.8600000000006,,response,,,,,,,,,2,,2,click #choice-2,,,,,O,S,I,,57258,57248,56862.46,56866,56879.14,57264.46,,,
Trial,flow.Sequence,1_3_1,2022-02-02T14:40:40.856Z,,,,,,,,,,,,,,,,,,,,,,,,,,,,,,,4618.440000000002,,completion,,,,,,,,,2,,,,,,,,O,S,I,,57259,57248,52624.18,52627,52629.56,57264.46,,,
Sounds,html.Screen,1_3_2_0,2022-02-02T14:40:45.096Z,,,,,,,,,,,,,,,,,,,,,,,,,,,,,,,4248.68,,timeout,,,,,,,,,1,,,,,,,,S,I,O,,61499,61496.48,57253.96,57259,57264.46,61513.14,,,
Judgement,html.Screen,1_3_2_1,2022-02-02T14:40:45.538Z,,,,,,,,,,,,,,,,,,,,,,,,,,,,true,1,,422.8600000000006,,response,,,,,,,,,1,,1,click #choice-1,,,,,S,I,O,,61941,61936,61496.48,61501,61513.14,61948.64,,,
Trial,flow.Sequence,1_3_2,2022-02-02T14:40:45.539Z,,,,,,,,,,,,,,,,,,,,,,,,,,,,,,,4671.540000000001,,completion,,,,,,,,,1,,,,,,,,S,I,O,,61941,61936,57253.96,57259,57264.46,61948.64,,,
Sounds,html.Screen,1_3_3_0,2022-02-02T14:40:49.780Z,,,,,,,,,,,,,,,,,,,,,,,,,,,,,,,4248.639999999999,,timeout,,,,,,,,,1,,,,,,,,S,O,I,,66182,66180.62,61939.94,61942,61948.64,66197.28,,,
Judgement,html.Screen,1_3_3_1,2022-02-02T14:40:50.148Z,,,,,,,,,,,,,,,,,,,,,,,,,,,,true,1,,348.72000000000116,,response,,,,,,,,,1,,1,click #choice-1,,,,,S,O,I,,66551,66546,66180.62,66183,66197.28,66549.14,,,
Trial,flow.Sequence,1_3_3,2022-02-02T14:40:50.149Z,,,,,,,,,,,,,,,,,,,,,,,,,,,,,,,4597.360000000001,,completion,,,,,,,,,1,,,,,,,,S,O,I,,66552,66546,61939.94,61942,61948.64,66549.14,,,
Sounds,html.Screen,1_3_4_0,2022-02-02T14:40:54.380Z,,,,,,,,,,,,,,,,,,,,,,,,,,,,,,,4248.639999999999,,timeout,,,,,,,,,2,,,,,,,,I,S,O,,70783,70781.12,66547.72,66552,66549.14,70797.78,,,
Judgement,html.Screen,1_3_4_1,2022-02-02T14:40:54.742Z,,,,,,,,,,,,,,,,,,,,,,,,,,,,true,2,,341.22000000000116,,response,,,,,,,,,2,,2,click #choice-2,,,,,I,S,O,,71145,71139,70781.12,70783,70797.78,71149.66,,,
Trial,flow.Sequence,1_3_4,2022-02-02T14:40:54.743Z,,,,,,,,,,,,,,,,,,,,,,,,,,,,,,,4589.860000000001,,completion,,,,,,,,,2,,,,,,,,I,S,O,,71145,71139,66547.72,66552,66549.14,71149.66,,,
Sounds,html.Screen,1_3_5_0,2022-02-02T14:40:58.984Z,,,,,,,,,,,,,,,,,,,,,,,,,,,,,,,4248.679999999993,,timeout,,,,,,,,,3,,,,,,,,O,I,S,,75388,75381.68,71144.02,71147,71149.66,75398.34,,,
Judgement,html.Screen,1_3_5_1,2022-02-02T14:40:59.389Z,,,,,,,,,,,,,,,,,,,,,,,,,,,,true,3,,381.6600000000035,,response,,,,,,,,,3,,3,click #choice-3,,,,,O,I,S,,75792,75780,75381.68,75392,75398.34,75800.4,,,
Trial,flow.Sequence,1_3_5,2022-02-02T14:40:59.390Z,,,,,,,,,,,,,,,,,,,,,,,,,,,,,,,4630.3399999999965,,completion,,,,,,,,,3,,,,,,,,O,I,S,,75793,75780,71144.02,71147,71149.66,75800.4,,,
Task,flow.Loop,1_3,2022-02-02T14:40:59.392Z,,,,,,,,,,,,,,,,,,,,,,,,,,,,,,,28335.54,,completion,,,1,,,,,,,,,,,,,,,,,,75795,75780,47429.66,47432,47444.46,75800.4,,,
Trap,html.Screen,1_4,2022-02-02T14:40:59.396Z,,,,,,,,,,,,,,,,,,,,,,,,,,,,,,,NaN,,skipped,,,,,,,,,,,,,,,,,,,,,75799,75780,,75799,,75800.4,,,
Thanks,html.Screen,1_5,2022-02-02T14:41:03.594Z,,,,,,,,,,,,,,,,,,,,,,,,,,,,,,,4181.600000000006,,response,,,,,,,,,,,continue,click button,,,,,,,,,79997,79982,75789.76,75801,75800.4,84332.12,,,
Headphone screening,flow.Sequence,1,2022-02-02T14:41:03.594Z,,,,,,,,,,,,,,,,,,,,,,,,,,,,,,,53315.96,,completion,,,,,,,,,,,,,,,,,,,,,79998,79982,26599.26,26616,26666.04,84332.12,,,
Instructions,html.Page,2_0,2022-02-02T14:41:25.923Z,,,,,,,,,,,,,,,,,,,,,,,,,,,,,,,17992.880000000005,,form submission,,,,,,,,,,,,,,,,,,,,,102326,102325,84317.06,84318,84332.12,102366.14,,,
Holding screen,html.Screen,2_1_0_0,2022-02-02T14:41:35.952Z,,,,,,,,,,,,,,,,,,,,,,,,,,,,,,,10053.539999999994,,timeout,,,,,,,,,,,,,,,,,,,,,112355,112353.02,102320.18,102327,102366.14,112419.68,,,
screen,html.Screen,2_1_0_1_0,2022-02-02T14:41:36.807Z,,,,,,,,,,,,,,,,,53,,,,,,,,,,,,,,782.320000000007,,response,,,,99,,,,,,,Space,keypress(Space),,,,,,,,When -- ----- -- ------ - ------- --- ----------<br>------------- ------ ------ ---- ---- ------- ----- -- ----<br>-------- ------- -- ---------- --- - --- ----- ----- ----<br>---- --- --- ----- --- ---- ---- ------- ----- ---- -------<br>--- --- -- ----- -- --- ---- -- --- ---- -- ------ ------<br>--- ----- -- ----,113211,113202,112353.02,112355,112419.68,113211.72,,0,When
screen,html.Screen,2_1_0_1_1,2022-02-02T14:41:37.088Z,,,,,,,,,,,,,,,,,53,,,,,,,,,,,,,,271.27999999999884,,response,,,,99,,,,,,,Space,keypress(Space),,,,,,,,---- it ----- -- ------ - ------- --- ----------<br>------------- ------ ------ ---- ---- ------- ----- -- ----<br>-------- ------- -- ---------- --- - --- ----- ----- ----<br>---- --- --- ----- --- ---- ---- ------- ----- ---- -------<br>--- --- -- ----- -- --- ---- -- --- ---- -- ------ ------<br>--- ----- -- ----,113491,113483,113211.2,113211,113211.72,113493.76,,1,it
screen,html.Screen,2_1_0_1_2,2022-02-02T14:41:37.288Z,,,,,,,,,,,,,,,,,53,,,,,,,,,,,,,,192.24000000000524,,response,,,,99,,,,,,,Space,keypress(Space),,,,,,,,---- -- comes -- ------ - ------- --- ----------<br>------------- ------ ------ ---- ---- ------- ----- -- ----<br>-------- ------- -- ---------- --- - --- ----- ----- ----<br>---- --- --- ----- --- ---- ---- ------- ----- ---- -------<br>--- --- -- ----- -- --- ---- -- --- ---- -- ------ ------<br>--- ----- -- ----,113691,113686,113493.3,113494,113493.76,113707.86,,2,comes
screen,html.Screen,2_1_0_1_3,2022-02-02T14:41:37.512Z,,,,,,,,,,,,,,,,,53,,,,,,,,,,,,,,197.13999999999942,,response,,,,99,,,,,,,Space,keypress(Space),,,,,,,,---- -- ----- to ------ - ------- --- ----------<br>------------- ------ ------ ---- ---- ------- ----- -- ----<br>-------- ------- -- ---------- --- - --- ----- ----- ----<br>---- --- --- ----- --- ---- ---- ------- ----- ---- -------<br>--- --- -- ----- -- --- ---- -- --- ---- -- ------ ------<br>--- ----- -- ----,113915,113905,113692.28,113692,113707.86,113916.36,,3,to
screen,html.Screen,2_1_0_1_4,2022-02-02T14:41:37.760Z,,,,,,,,,,,,,,,,,53,,,,,,,,,,,,,,237.63999999999942,,response,,,,99,,,,,,,Space,keypress(Space),,,,,,,,---- -- ----- -- having - ------- --- ----------<br>------------- ------ ------ ---- ---- ------- ----- -- ----<br>-------- ------- -- ---------- --- - --- ----- ----- ----<br>---- --- --- ----- --- ---- ---- ------- ----- ---- -------<br>--- --- -- ----- -- --- ---- -- --- ---- -- ------ ------<br>--- ----- -- ----,114163,114154,113915.92,113915,113916.36,114163.84,,4,having
screen,html.Screen,2_1_0_1_5,2022-02-02T14:41:37.976Z,,,,,,,,,,,,,,,,,53,,,,,,,,,,,,,,209.1600000000035,,response,,,,99,,,,,,,Space,keypress(Space),,,,,,,,---- -- ----- -- ------ a ------- --- ----------<br>------------- ------ ------ ---- ---- ------- ----- -- ----<br>-------- ------- -- ---------- --- - --- ----- ----- ----<br>---- --- --- ----- --- ---- ---- ------- ----- ---- -------<br>--- --- -- ----- -- --- ---- -- --- ---- -- ------ ------<br>--- ----- -- ----,114379,114373,114163.4,114164,114163.84,114380.18,,5,a
screen,html.Screen,2_1_0_1_6,2022-02-02T14:41:38.194Z,,,,,,,,,,,,,,,,,53,,,,,,,,,,,,,,196.82000000000698,,response,,,,99,,,,,,,Space,keypress(Space),,,,,,,,---- -- ----- -- ------ - lasting --- ----------<br>------------- ------ ------ ---- ---- ------- ----- -- ----<br>-------- ------- -- ---------- --- - --- ----- ----- ----<br>---- --- --- ----- --- ---- ---- ------- ----- ---- -------<br>--- --- -- ----- -- --- ---- -- --- ---- -- ------ ------<br>--- ----- -- ----,114596,114577,114379.74,114380,114380.18,114597.5,,6,lasting
screen,html.Screen,2_1_0_1_7,2022-02-02T14:41:38.414Z,,,,,,,,,,,,,,,,,53,,,,,,,,,,,,,,213.5,,response,,,,99,,,,,,,Space,keypress(Space),,,,,,,,---- -- ----- -- ------ - ------- and ----------<br>------------- ------ ------ ---- ---- ------- ----- -- ----<br>-------- ------- -- ---------- --- - --- ----- ----- ----<br>---- --- --- ----- --- ---- ---- ------- ----- ---- -------<br>--- --- -- ----- -- --- ---- -- --- ---- -- ------ ------<br>--- ----- -- ----,114818,114811,114597.08,114597,114597.5,114818.4,,7,and
screen,html.Screen,2_1_0_1_8,2022-02-02T14:41:38.693Z,,,,,,,,,,,,,,,,,53,,,,,,,,,,,,,,258.6000000000058,,response,,,,99,,,,,,,Space,keypress(Space),,,,,,,,---- -- ----- -- ------ - ------- --- fulfilling<br>------------- ------ ------ ---- ---- ------- ----- -- ----<br>-------- ------- -- ---------- --- - --- ----- ----- ----<br>---- --- --- ----- --- ---- ---- ------- ----- ---- -------<br>--- --- -- ----- -- --- ---- -- --- ---- -- ------ ------<br>--- ----- -- ----,115096,115077,114817.96,114818,114818.4,115097.24,,8,fulfilling
screen,html.Screen,2_1_0_1_9,2022-02-02T14:41:38.906Z,,,,,,,,,,,,,,,,,53,,,,,,,,,,,,,,198.75999999999476,,response,,,,99,,,,,,,Space,keypress(Space),,,,,,,,"---- -- ----- -- ------ - ------- --- ----------<br>relationship, ------ ------ ---- ---- ------- ----- -- ----<br>-------- ------- -- ---------- --- - --- ----- ----- ----<br>---- --- --- ----- --- ---- ---- ------- ----- ---- -------<br>--- --- -- ----- -- --- ---- -- --- ---- -- ------ ------<br>--- ----- -- ----",115309,115296,115096.62,115097,115097.24,115313.9,,9,"relationship,"
screen,html.Screen,2_1_0_1_10,2022-02-02T14:41:39.129Z,,,,,,,,,,,,,,,,,53,,,,,,,,,,,,,,200.10000000000582,,response,,,,99,,,,,,,Space,keypress(Space),,,,,,,,---- -- ----- -- ------ - ------- --- ----------<br>------------- common ------ ---- ---- ------- ----- -- ----<br>-------- ------- -- ---------- --- - --- ----- ----- ----<br>---- --- --- ----- --- ---- ---- ------- ----- ---- -------<br>--- --- -- ----- -- --- ---- -- --- ---- -- ------ ------<br>--- ----- -- ----,115532,115514,115309.8,115310,115313.9,115533.06,,10,common
screen,html.Screen,2_1_0_1_11,2022-02-02T14:41:39.647Z,,,,,,,,,,,,,,,,,53,,,,,,,,,,,,,,495.9400000000023,,response,,,,99,,,,,,,Space,keypress(Space),,,,,,,,---- -- ----- -- ------ - ------- --- ----------<br>------------- ------ wisdom ---- ---- ------- ----- -- ----<br>-------- ------- -- ---------- --- - --- ----- ----- ----<br>---- --- --- ----- --- ---- ---- ------- ----- ---- -------<br>--- --- -- ----- -- --- ---- -- --- ---- -- ------ ------<br>--- ----- -- ----,116050,116029,115532.62,115532,115533.06,116050.64,,11,wisdom
screen,html.Screen,2_1_0_1_12,2022-02-02T14:41:40.421Z,,,,,,,,,,,,,,,,,53,,,,,,,,,,,,,,759.3600000000006,,response,,,,99,,,,,,,Space,keypress(Space),,,,,,,,---- -- ----- -- ------ - ------- --- ----------<br>------------- ------ ------ says ---- ------- ----- -- ----<br>-------- ------- -- ---------- --- - --- ----- ----- ----<br>---- --- --- ----- --- ---- ---- ------- ----- ---- -------<br>--- --- -- ----- -- --- ---- -- --- ---- -- ------ ------<br>--- ----- -- ----,116824,116810,116050.16,116050,116050.64,116825.68,,12,says
screen,html.Screen,2_1_0_1_13,2022-02-02T14:41:40.800Z,,,,,,,,,,,,,,,,,53,,,,,,,,,,,,,,359.320000000007,,response,,,,99,,,,,,,Space,keypress(Space),,,,,,,,---- -- ----- -- ------ - ------- --- ----------<br>------------- ------ ------ ---- that ------- ----- -- ----<br>-------- ------- -- ---------- --- - --- ----- ----- ----<br>---- --- --- ----- --- ---- ---- ------- ----- ---- -------<br>--- --- -- ----- -- --- ---- -- --- ---- -- ------ ------<br>--- ----- -- ----,117202,117185,116825.26,116825,116825.68,117205.02,,13,that
screen,html.Screen,2_1_0_1_14,2022-02-02T14:41:41.040Z,,,,,,,,,,,,,,,,,53,,,,,,,,,,,,,,230.97999999999593,,response,,,,99,,,,,,,Space,keypress(Space),,,,,,,,---- -- ----- -- ------ - ------- --- ----------<br>------------- ------ ------ ---- ---- feeling ----- -- ----<br>-------- ------- -- ---------- --- - --- ----- ----- ----<br>---- --- --- ----- --- ---- ---- ------- ----- ---- -------<br>--- --- -- ----- -- --- ---- -- --- ---- -- ------ ------<br>--- ----- -- ----,117443,117436,117202.92,117203,117205.02,117455.98,,14,feeling
screen,html.Screen,2_1_0_1_15,2022-02-02T14:41:41.361Z,,,,,,,,,,,,,,,,,53,,,,,,,,,,,,,,293.0200000000041,,response,,,,99,,,,,,,Space,keypress(Space),,,,,,,,---- -- ----- -- ------ - ------- --- ----------<br>------------- ------ ------ ---- ---- ------- close -- ----<br>-------- ------- -- ---------- --- - --- ----- ----- ----<br>---- --- --- ----- --- ---- ---- ------- ----- ---- -------<br>--- --- -- ----- -- --- ---- -- --- ---- -- ------ ------<br>--- ----- -- ----,117764,117749,117444.1,117443,117455.98,117765.08,,15,close
screen,html.Screen,2_1_0_1_16,2022-02-02T14:41:41.624Z,,,,,,,,,,,,,,,,,53,,,,,,,,,,,,,,248.91999999999825,,response,,,,99,,,,,,,Space,keypress(Space),,,,,,,,---- -- ----- -- ------ - ------- --- ----------<br>------------- ------ ------ ---- ---- ------- ----- to ----<br>-------- ------- -- ---------- --- - --- ----- ----- ----<br>---- --- --- ----- --- ---- ---- ------- ----- ---- -------<br>--- --- -- ----- -- --- ---- -- --- ---- -- ------ ------<br>--- ----- -- ----,118028,118014,117764.64,117765,117765.08,118029,,16,to
screen,html.Screen,2_1_0_1_17,2022-02-02T14:41:41.846Z,,,,,,,,,,,,,,,,,53,,,,,,,,,,,,,,203,,response,,,,99,,,,,,,Space,keypress(Space),,,,,,,,---- -- ----- -- ------ - ------- --- ----------<br>------------- ------ ------ ---- ---- ------- ----- -- your<br>-------- ------- -- ---------- --- - --- ----- ----- ----<br>---- --- --- ----- --- ---- ---- ------- ----- ---- -------<br>--- --- -- ----- -- --- ---- -- --- ---- -- ------ ------<br>--- ----- -- ----,118249,118232,118028.56,118029,118029,118251.18,,17,your
screen,html.Screen,2_1_0_1_18,2022-02-02T14:41:42.222Z,,,,,,,,,,,,,,,,,53,,,,,,,,,,,,,,356.820000000007,,response,,,,99,,,,,,,Space,keypress(Space),,,,,,,,---- -- ----- -- ------ - ------- --- ----------<br>------------- ------ ------ ---- ---- ------- ----- -- ----<br>romantic ------- -- ---------- --- - --- ----- ----- ----<br>---- --- --- ----- --- ---- ---- ------- ----- ---- -------<br>--- --- -- ----- -- --- ---- -- --- ---- -- ------ ------<br>--- ----- -- ----,118625,118608,118250.7,118250,118251.18,118626.44,,18,romantic
screen,html.Screen,2_1_0_1_19,2022-02-02T14:41:42.508Z,,,,,,,,,,,,,,,,,53,,,,,,,,,,,,,,277.5599999999977,,response,,,,99,,,,,,,Space,keypress(Space),,,,,,,,---- -- ----- -- ------ - ------- --- ----------<br>------------- ------ ------ ---- ---- ------- ----- -- ----<br>-------- partner -- ---------- --- - --- ----- ----- ----<br>---- --- --- ----- --- ---- ---- ------- ----- ---- -------<br>--- --- -- ----- -- --- ---- -- --- ---- -- ------ ------<br>--- ----- -- ----,118911,118904,118626,118626,118626.44,118912.26,,19,partner
screen,html.Screen,2_1_0_1_20,2022-02-02T14:41:42.740Z,,,,,,,,,,,,,,,,,53,,,,,,,,,,,,,,210.74000000000524,,response,,,,99,,,,,,,Space,keypress(Space),,,,,,,,---- -- ----- -- ------ - ------- --- ----------<br>------------- ------ ------ ---- ---- ------- ----- -- ----<br>-------- ------- is ---------- --- - --- ----- ----- ----<br>---- --- --- ----- --- ---- ---- ------- ----- ---- -------<br>--- --- -- ----- -- --- ---- -- --- ---- -- ------ ------<br>--- ----- -- ----,119144,119123,118911.78,118912,118912.26,119145.62,,20,is
screen,html.Screen,2_1_0_1_21,2022-02-02T14:41:43.067Z,,,,,,,,,,,,,,,,,53,,,,,,,,,,,,,,306.38000000000466,,response,,,,99,,,,,,,Space,keypress(Space),,,,,,,,---- -- ----- -- ------ - ------- --- ----------<br>------------- ------ ------ ---- ---- ------- ----- -- ----<br>-------- ------- -- paramount. --- - --- ----- ----- ----<br>---- --- --- ----- --- ---- ---- ------- ----- ---- -------<br>--- --- -- ----- -- --- ---- -- --- ---- -- ------ ------<br>--- ----- -- ----,119470,119452,119143.82,119144,119145.62,119471,,21,paramount.
screen,html.Screen,2_1_0_1_22,2022-02-02T14:41:43.402Z,,,,,,,,,,,,,,,,,53,,,,,,,,,,,,,,324,,response,,,,99,,,,,,,Space,keypress(Space),,,,,,,,---- -- ----- -- ------ - ------- --- ----------<br>------------- ------ ------ ---- ---- ------- ----- -- ----<br>-------- ------- -- ---------- But - --- ----- ----- ----<br>---- --- --- ----- --- ---- ---- ------- ----- ---- -------<br>--- --- -- ----- -- --- ---- -- --- ---- -- ------ ------<br>--- ----- -- ----,119804,119795,119470.56,119471,119471,119805.42,,22,But
screen,html.Screen,2_1_0_1_23,2022-02-02T14:41:43.642Z,,,,,,,,,,,,,,,,,53,,,,,,,,,,,,,,224.58000000000175,,response,,,,99,,,,,,,Space,keypress(Space),,,,,,,,---- -- ----- -- ------ - ------- --- ----------<br>------------- ------ ------ ---- ---- ------- ----- -- ----<br>-------- ------- -- ---------- --- a --- ----- ----- ----<br>---- --- --- ----- --- ---- ---- ------- ----- ---- -------<br>--- --- -- ----- -- --- ---- -- --- ---- -- ------ ------<br>--- ----- -- ----,120045,120030,119804.98,119804,119805.42,120049,,23,a
screen,html.Screen,2_1_0_1_24,2022-02-02T14:41:43.852Z,,,,,,,,,,,,,,,,,53,,,,,,,,,,,,,,200,,response,,,,99,,,,,,,Space,keypress(Space),,,,,,,,---- -- ----- -- ------ - ------- --- ----------<br>------------- ------ ------ ---- ---- ------- ----- -- ----<br>-------- ------- -- ---------- --- - new ----- ----- ----<br>---- --- --- ----- --- ---- ---- ------- ----- ---- -------<br>--- --- -- ----- -- --- ---- -- --- ---- -- ------ ------<br>--- ----- -- ----,120255,120249,120045.86,120046,120049,120266.46,,24,new
screen,html.Screen,2_1_0_1_25,2022-02-02T14:41:44.108Z,,,,,,,,,,,,,,,,,53,,,,,,,,,,,,,,232.5399999999936,,response,,,,99,,,,,,,Space,keypress(Space),,,,,,,,---- -- ----- -- ------ - ------- --- ----------<br>------------- ------ ------ ---- ---- ------- ----- -- ----<br>-------- ------- -- ---------- --- - --- study ----- ----<br>---- --- --- ----- --- ---- ---- ------- ----- ---- -------<br>--- --- -- ----- -- --- ---- -- --- ---- -- ------ ------<br>--- ----- -- ----,120511,120499,120255.84,120255,120266.46,120511.68,,25,study
screen,html.Screen,2_1_0_1_26,2022-02-02T14:41:44.321Z,,,,,,,,,,,,,,,,,53,,,,,,,,,,,,,,206.32000000000698,,response,,,,99,,,,,,,Space,keypress(Space),,,,,,,,---- -- ----- -- ------ - ------- --- ----------<br>------------- ------ ------ ---- ---- ------- ----- -- ----<br>-------- ------- -- ---------- --- - --- ----- finds ----<br>---- --- --- ----- --- ---- ---- ------- ----- ---- -------<br>--- --- -- ----- -- --- ---- -- --- ---- -- ------ ------<br>--- ----- -- ----,120724,120718,120511.38,120511,120511.68,120724.22,,26,finds
screen,html.Screen,2_1_0_1_27,2022-02-02T14:41:44.548Z,,,,,,,,,,,,,,,,,53,,,,,,,,,,,,,,210.77999999999884,,response,,,,99,,,,,,,Space,keypress(Space),,,,,,,,---- -- ----- -- ------ - ------- --- ----------<br>------------- ------ ------ ---- ---- ------- ----- -- ----<br>-------- ------- -- ---------- --- - --- ----- ----- that<br>---- --- --- ----- --- ---- ---- ------- ----- ---- -------<br>--- --- -- ----- -- --- ---- -- --- ---- -- ------ ------<br>--- ----- -- ----,120951,120935,120723.96,120724,120724.22,120952.12,,27,that
screen,html.Screen,2_1_0_1_28,2022-02-02T14:41:44.777Z,,,,,,,,,,,,,,,,,53,,,,,,,,,,,,,,217.88000000000466,,response,,,,99,,,,,,,Space,keypress(Space),,,,,,,,---- -- ----- -- ------ - ------- --- ----------<br>------------- ------ ------ ---- ---- ------- ----- -- ----<br>-------- ------- -- ---------- --- - --- ----- ----- ----<br>it's --- --- ----- --- ---- ---- ------- ----- ---- -------<br>--- --- -- ----- -- --- ---- -- --- ---- -- ------ ------<br>--- ----- -- ----,121180,121170,120951.64,120951,120952.12,121181.54,,28,it's
screen,html.Screen,2_1_0_1_29,2022-02-02T14:41:45.039Z,,,,,,,,,,,,,,,,,53,,,,,,,,,,,,,,254.4600000000064,,response,,,,99,,,,,,,Space,keypress(Space),,,,,,,,---- -- ----- -- ------ - ------- --- ----------<br>------------- ------ ------ ---- ---- ------- ----- -- ----<br>-------- ------- -- ---------- --- - --- ----- ----- ----<br>---- not --- ----- --- ---- ---- ------- ----- ---- -------<br>--- --- -- ----- -- --- ---- -- --- ---- -- ------ ------<br>--- ----- -- ----,121442,121436,121181.12,121181,121181.54,121443.58,,29,not
screen,html.Screen,2_1_0_1_30,2022-02-02T14:41:45.261Z,,,,,,,,,,,,,,,,,53,,,,,,,,,,,,,,211.41999999999825,,response,,,,99,,,,,,,Space,keypress(Space),,,,,,,,---- -- ----- -- ------ - ------- --- ----------<br>------------- ------ ------ ---- ---- ------- ----- -- ----<br>-------- ------- -- ---------- --- - --- ----- ----- ----<br>---- --- how ----- --- ---- ---- ------- ----- ---- -------<br>--- --- -- ----- -- --- ---- -- --- ---- -- ------ ------<br>--- ----- -- ----,121664,121655,121443.16,121443,121443.58,121665.44,,30,how
screen,html.Screen,2_1_0_1_31,2022-02-02T14:41:45.439Z,,,,,,,,,,,,,,,,,53,,,,,,,,,,,,,,160.55999999999767,,response,,,,99,,,,,,,Space,keypress(Space),,,,,,,,---- -- ----- -- ------ - ------- --- ----------<br>------------- ------ ------ ---- ---- ------- ----- -- ----<br>-------- ------- -- ---------- --- - --- ----- ----- ----<br>---- --- --- close --- ---- ---- ------- ----- ---- -------<br>--- --- -- ----- -- --- ---- -- --- ---- -- ------ ------<br>--- ----- -- ----,121842,121826,121665.02,121664,121665.44,121855.02,,31,close
screen,html.Screen,2_1_0_1_32,2022-02-02T14:41:45.632Z,,,,,,,,,,,,,,,,,53,,,,,,,,,,,,,,173.97999999999593,,response,,,,99,,,,,,,Space,keypress(Space),,,,,,,,---- -- ----- -- ------ - ------- --- ----------<br>------------- ------ ------ ---- ---- ------- ----- -- ----<br>-------- ------- -- ---------- --- - --- ----- ----- ----<br>---- --- --- ----- you ---- ---- ------- ----- ---- -------<br>--- --- -- ----- -- --- ---- -- --- ---- -- ------ ------<br>--- ----- -- ----,122034,122029,121843.2,121843,121855.02,122038.32,,32,you
screen,html.Screen,2_1_0_1_33,2022-02-02T14:41:45.821Z,,,,,,,,,,,,,,,,,53,,,,,,,,,,,,,,178.67999999999302,,response,,,,99,,,,,,,Space,keypress(Space),,,,,,,,---- -- ----- -- ------ - ------- --- ----------<br>------------- ------ ------ ---- ---- ------- ----- -- ----<br>-------- ------- -- ---------- --- - --- ----- ----- ----<br>---- --- --- ----- --- feel ---- ------- ----- ---- -------<br>--- --- -- ----- -- --- ---- -- --- ---- -- ------ ------<br>--- ----- -- ----,122224,122217,122036.34,122036,122038.32,122224.52,,33,feel
screen,html.Screen,2_1_0_1_34,2022-02-02T14:41:46.030Z,,,,,,,,,,,,,,,,,53,,,,,,,,,,,,,,196.47999999999593,,response,,,,99,,,,,,,Space,keypress(Space),,,,,,,,---- -- ----- -- ------ - ------- --- ----------<br>------------- ------ ------ ---- ---- ------- ----- -- ----<br>-------- ------- -- ---------- --- - --- ----- ----- ----<br>---- --- --- ----- --- ---- that ------- ----- ---- -------<br>--- --- -- ----- -- --- ---- -- --- ---- -- ------ ------<br>--- ----- -- ----,122434,122421,122224.12,122224,122224.52,122440.52,,34,that
screen,html.Screen,2_1_0_1_35,2022-02-02T14:41:46.209Z,,,,,,,,,,,,,,,,,53,,,,,,,,,,,,,,166.47999999999593,,response,,,,99,,,,,,,Space,keypress(Space),,,,,,,,---- -- ----- -- ------ - ------- --- ----------<br>------------- ------ ------ ---- ---- ------- ----- -- ----<br>-------- ------- -- ---------- --- - --- ----- ----- ----<br>---- --- --- ----- --- ---- ---- matters ----- ---- -------<br>--- --- -- ----- -- --- ---- -- --- ---- -- ------ ------<br>--- ----- -- ----,122613,122607,122434.44,122435,122440.52,122623.82,,35,matters
screen,html.Screen,2_1_0_1_36,2022-02-02T14:41:46.410Z,,,,,,,,,,,,,,,,,53,,,,,,,,,,,,,,172.17999999999302,,response,,,,99,,,,,,,Space,keypress(Space),,,,,,,,"---- -- ----- -- ------ - ------- --- ----------<br>------------- ------ ------ ---- ---- ------- ----- -- ----<br>-------- ------- -- ---------- --- - --- ----- ----- ----<br>---- --- --- ----- --- ---- ---- ------- most, ---- -------<br>--- --- -- ----- -- --- ---- -- --- ---- -- ------ ------<br>--- ----- -- ----",122813,122796,122612.8,122613,122623.82,122825.84,,36,"most,"
screen,html.Screen,2_1_0_1_37,2022-02-02T14:41:46.648Z,,,,,,,,,,,,,,,,,53,,,,,,,,,,,,,,220.1600000000035,,response,,,,99,,,,,,,Space,keypress(Space),,,,,,,,---- -- ----- -- ------ - ------- --- ----------<br>------------- ------ ------ ---- ---- ------- ----- -- ----<br>-------- ------- -- ---------- --- - --- ----- ----- ----<br>---- --- --- ----- --- ---- ---- ------- ----- it's -------<br>--- --- -- ----- -- --- ---- -- --- ---- -- ------ ------<br>--- ----- -- ----,123050,123046,122813.66,122814,122825.84,123052,,37,it's
screen,html.Screen,2_1_0_1_38,2022-02-02T14:41:46.970Z,,,,,,,,,,,,,,,,,53,,,,,,,,,,,,,,306,,response,,,,99,,,,,,,Space,keypress(Space),,,,,,,,---- -- ----- -- ------ - ------- --- ----------<br>------------- ------ ------ ---- ---- ------- ----- -- ----<br>-------- ------- -- ---------- --- - --- ----- ----- ----<br>---- --- --- ----- --- ---- ---- ------- ----- ---- whether<br>--- --- -- ----- -- --- ---- -- --- ---- -- ------ ------<br>--- ----- -- ----,123373,123358,123051.5,123052,123052,123378.06,,38,whether
screen,html.Screen,2_1_0_1_39,2022-02-02T14:41:47.191Z,,,,,,,,,,,,,,,,,53,,,,,,,,,,,,,,198.94000000000233,,response,,,,99,,,,,,,Space,keypress(Space),,,,,,,,---- -- ----- -- ------ - ------- --- ----------<br>------------- ------ ------ ---- ---- ------- ----- -- ----<br>-------- ------- -- ---------- --- - --- ----- ----- ----<br>---- --- --- ----- --- ---- ---- ------- ----- ---- -------<br>you --- -- ----- -- --- ---- -- --- ---- -- ------ ------<br>--- ----- -- ----,123594,123577,123373.82,123374,123378.06,123611.36,,39,you
screen,html.Screen,2_1_0_1_40,2022-02-02T14:41:47.394Z,,,,,,,,,,,,,,,,,53,,,,,,,,,,,,,,167.63999999999942,,response,,,,99,,,,,,,Space,keypress(Space),,,,,,,,---- -- ----- -- ------ - ------- --- ----------<br>------------- ------ ------ ---- ---- ------- ----- -- ----<br>-------- ------- -- ---------- --- - --- ----- ----- ----<br>---- --- --- ----- --- ---- ---- ------- ----- ---- -------<br>--- are -- ----- -- --- ---- -- --- ---- -- ------ ------<br>--- ----- -- ----,123797,123779,123594.76,123594,123611.36,123813.08,,40,are
screen,html.Screen,2_1_0_1_41,2022-02-02T14:41:47.607Z,,,,,,,,,,,,,,,,,53,,,,,,,,,,,,,,184.91999999999825,,response,,,,99,,,,,,,Space,keypress(Space),,,,,,,,---- -- ----- -- ------ - ------- --- ----------<br>------------- ------ ------ ---- ---- ------- ----- -- ----<br>-------- ------- -- ---------- --- - --- ----- ----- ----<br>---- --- --- ----- --- ---- ---- ------- ----- ---- -------<br>--- --- as ----- -- --- ---- -- --- ---- -- ------ ------<br>--- ----- -- ----,124010,123998,123798.2,123798,123813.08,124013.04,,41,as
screen,html.Screen,2_1_0_1_42,2022-02-02T14:41:47.803Z,,,,,,,,,,,,,,,,,53,,,,,,,,,,,,,,188.9600000000064,,response,,,,99,,,,,,,Space,keypress(Space),,,,,,,,---- -- ----- -- ------ - ------- --- ----------<br>------------- ------ ------ ---- ---- ------- ----- -- ----<br>-------- ------- -- ---------- --- - --- ----- ----- ----<br>---- --- --- ----- --- ---- ---- ------- ----- ---- -------<br>--- --- -- close -- --- ---- -- --- ---- -- ------ ------<br>--- ----- -- ----,124206,124202,124010.5,124011,124013.04,124213.02,,42,close
screen,html.Screen,2_1_0_1_43,2022-02-02T14:41:47.999Z,,,,,,,,,,,,,,,,,53,,,,,,,,,,,,,,175.97999999999593,,response,,,,99,,,,,,,Space,keypress(Space),,,,,,,,---- -- ----- -- ------ - ------- --- ----------<br>------------- ------ ------ ---- ---- ------- ----- -- ----<br>-------- ------- -- ---------- --- - --- ----- ----- ----<br>---- --- --- ----- --- ---- ---- ------- ----- ---- -------<br>--- --- -- ----- as --- ---- -- --- ---- -- ------ ------<br>--- ----- -- ----,124402,124389,124206.36,124206,124213.02,124415.06,,43,as
screen,html.Screen,2_1_0_1_44,2022-02-02T14:41:48.206Z,,,,,,,,,,,,,,,,,53,,,,,,,,,,,,,,176.94000000000233,,response,,,,99,,,,,,,Space,keypress(Space),,,,,,,,---- -- ----- -- ------ - ------- --- ----------<br>------------- ------ ------ ---- ---- ------- ----- -- ----<br>-------- ------- -- ---------- --- - --- ----- ----- ----<br>---- --- --- ----- --- ---- ---- ------- ----- ---- -------<br>--- --- -- ----- -- you ---- -- --- ---- -- ------ ------<br>--- ----- -- ----,124610,124592,124403,124403,124415.06,124615.02,,44,you
screen,html.Screen,2_1_0_1_45,2022-02-02T14:41:48.414Z,,,,,,,,,,,,,,,,,53,,,,,,,,,,,,,,194.97999999999593,,response,,,,99,,,,,,,Space,keypress(Space),,,,,,,,---- -- ----- -- ------ - ------- --- ----------<br>------------- ------ ------ ---- ---- ------- ----- -- ----<br>-------- ------- -- ---------- --- - --- ----- ----- ----<br>---- --- --- ----- --- ---- ---- ------- ----- ---- -------<br>--- --- -- ----- -- --- want -- --- ---- -- ------ ------<br>--- ----- -- ----,124817,124810,124609.84,124610,124615.02,124831.66,,45,want
screen,html.Screen,2_1_0_1_46,2022-02-02T14:41:48.614Z,,,,,,,,,,,,,,,,,53,,,,,,,,,,,,,,167.3399999999965,,response,,,,99,,,,,,,Space,keypress(Space),,,,,,,,---- -- ----- -- ------ - ------- --- ----------<br>------------- ------ ------ ---- ---- ------- ----- -- ----<br>-------- ------- -- ---------- --- - --- ----- ----- ----<br>---- --- --- ----- --- ---- ---- ------- ----- ---- -------<br>--- --- -- ----- -- --- ---- to --- ---- -- ------ ------<br>--- ----- -- ----,125017,124999,124817.84,124818,124831.66,125033.56,,46,to
screen,html.Screen,2_1_0_1_47,2022-02-02T14:41:48.815Z,,,,,,,,,,,,,,,,,53,,,,,,,,,,,,,,168.44000000000233,,response,,,,99,,,,,,,Space,keypress(Space),,,,,,,,"---- -- ----- -- ------ - ------- --- ----------<br>------------- ------ ------ ---- ---- ------- ----- -- ----<br>-------- ------- -- ---------- --- - --- ----- ----- ----<br>---- --- --- ----- --- ---- ---- ------- ----- ---- -------<br>--- --- -- ----- -- --- ---- -- be, ---- -- ------ ------<br>--- ----- -- ----",125218,125202,125017.52,125017,125033.56,125235.02,,47,"be,"
screen,html.Screen,2_1_0_1_48,2022-02-02T14:41:49.017Z,,,,,,,,,,,,,,,,,53,,,,,,,,,,,,,,169.97999999999593,,response,,,,99,,,,,,,Space,keypress(Space),,,,,,,,---- -- ----- -- ------ - ------- --- ----------<br>------------- ------ ------ ---- ---- ------- ----- -- ----<br>-------- ------- -- ---------- --- - --- ----- ----- ----<br>---- --- --- ----- --- ---- ---- ------- ----- ---- -------<br>--- --- -- ----- -- --- ---- -- --- even -- ------ ------<br>--- ----- -- ----,125420,125405,125219.46,125220,125235.02,125434.98,,48,even
screen,html.Screen,2_1_0_1_49,2022-02-02T14:41:49.223Z,,,,,,,,,,,,,,,,,53,,,,,,,,,,,,,,172.02000000000407,,response,,,,99,,,,,,,Space,keypress(Space),,,,,,,,---- -- ----- -- ------ - ------- --- ----------<br>------------- ------ ------ ---- ---- ------- ----- -- ----<br>-------- ------- -- ---------- --- - --- ----- ----- ----<br>---- --- --- ----- --- ---- ---- ------- ----- ---- -------<br>--- --- -- ----- -- --- ---- -- --- ---- if ------ ------<br>--- ----- -- ----,125626,125607,125420.74,125421,125434.98,125634.96,,49,if
screen,html.Screen,2_1_0_1_50,2022-02-02T14:41:49.441Z,,,,,,,,,,,,,,,,,53,,,,,,,,,,,,,,192.0399999999936,,response,,,,99,,,,,,,Space,keypress(Space),,,,,,,,---- -- ----- -- ------ - ------- --- ----------<br>------------- ------ ------ ---- ---- ------- ----- -- ----<br>-------- ------- -- ---------- --- - --- ----- ----- ----<br>---- --- --- ----- --- ---- ---- ------- ----- ---- -------<br>--- --- -- ----- -- --- ---- -- --- ---- -- that's ------<br>--- ----- -- ----,125844,125827,125627.1,125627,125634.96,125845.52,,50,that's
screen,html.Screen,2_1_0_1_51,2022-02-02T14:41:49.650Z,,,,,,,,,,,,,,,,,53,,,,,,,,,,,,,,200.47999999999593,,response,,,,99,,,,,,,Space,keypress(Space),,,,,,,,---- -- ----- -- ------ - ------- --- ----------<br>------------- ------ ------ ---- ---- ------- ----- -- ----<br>-------- ------- -- ---------- --- - --- ----- ----- ----<br>---- --- --- ----- --- ---- ---- ------- ----- ---- -------<br>--- --- -- ----- -- --- ---- -- --- ---- -- ------ really<br>--- ----- -- ----,126053,126046,125844.9,125844,125845.52,126053.94,,51,really
screen,html.Screen,2_1_0_1_52,2022-02-02T14:41:49.893Z,,,,,,,,,,,,,,,,,53,,,,,,,,,,,,,,225.05999999999767,,response,,,,99,,,,,,,Space,keypress(Space),,,,,,,,---- -- ----- -- ------ - ------- --- ----------<br>------------- ------ ------ ---- ---- ------- ----- -- ----<br>-------- ------- -- ---------- --- - --- ----- ----- ----<br>---- --- --- ----- --- ---- ---- ------- ----- ---- -------<br>--- --- -- ----- -- --- ---- -- --- ---- -- ------ ------<br>not ----- -- ----,126296,126279,126053.28,126053,126053.94,126296.96,,52,not
screen,html.Screen,2_1_0_1_53,2022-02-02T14:41:50.091Z,,,,,,,,,,,,,,,,,53,,,,,,,,,,,,,,185.0399999999936,,response,,,,99,,,,,,,Space,keypress(Space),,,,,,,,---- -- ----- -- ------ - ------- --- ----------<br>------------- ------ ------ ---- ---- ------- ----- -- ----<br>-------- ------- -- ---------- --- - --- ----- ----- ----<br>---- --- --- ----- --- ---- ---- ------- ----- ---- -------<br>--- --- -- ----- -- --- ---- -- --- ---- -- ------ ------<br>--- close -- ----,126493,126482,126296.52,126296,126296.96,126505.66,,53,close
screen,html.Screen,2_1_0_1_54,2022-02-02T14:41:50.443Z,,,,,,,,,,,,,,,,,53,,,,,,,,,,,,,,320.3399999999965,,response,,,,99,,,,,,,Space,keypress(Space),,,,,,,,---- -- ----- -- ------ - ------- --- ----------<br>------------- ------ ------ ---- ---- ------- ----- -- ----<br>-------- ------- -- ---------- --- - --- ----- ----- ----<br>---- --- --- ----- --- ---- ---- ------- ----- ---- -------<br>--- --- -- ----- -- --- ---- -- --- ---- -- ------ ------<br>--- ----- at ----,126846,126826,126493.98,126494,126505.66,126846.58,,54,at
screen,html.Screen,2_1_0_1_55,2022-02-02T14:41:50.646Z,,,,,,,,,,,,,,,,,53,,,,,,,,,,,,,,199.41999999999825,,response,,,,99,,,,,,,Space,keypress(Space),,,,,,,,---- -- ----- -- ------ - ------- --- ----------<br>------------- ------ ------ ---- ---- ------- ----- -- ----<br>-------- ------- -- ---------- --- - --- ----- ----- ----<br>---- --- --- ----- --- ---- ---- ------- ----- ---- -------<br>--- --- -- ----- -- --- ---- -- --- ---- -- ------ ------<br>--- ----- -- all.,127049,127046,126846.14,126846,126846.58,127057.76,,55,all.
Item 99,flow.Loop,2_1_0_1,2022-02-02T14:41:50.648Z,,,,,,,,,,,,,,,,,,,,,,,,,,,,,,,14626.320000000007,,completion,,,,,C,,,,,,,,,,,silence,,,,,127051,127046,112353.02,112355,112419.68,127057.76,,,
Question 1,html.Screen,2_1_0_2,2022-02-02T14:41:55.873Z,,,,,,,,,,,,,,,,,,,,,,,,,,,,true,FALSE,,5205.240000000005,,response,,,,99,C,,,,,,FALSE,click #choice-2,,,,silence,,,,,132276,132263,127051.4,127051,127057.76,132277.26,,,
Question 2,html.Screen,2_1_0_3,2022-02-02T14:42:00.503Z,,,,,,,,,,,,,,,,,,,,,,,,,,,,true,TRUE,,4610.739999999991,,response,,,,99,C,,,,,,TRUE,click #choice-1,,,,silence,,,,,136906,136888,132274.7,132277,132277.26,136911.94,,,
Item 99,flow.Sequence,2_1_0,2022-02-02T14:42:00.503Z,,,,,,,,,,,,,,,,,,,,,,,,,,,,,,,34521.86,,completion,,,,,,,,,,,,,,,,,,,,,136907,136888,102320.18,102326,102366.14,136911.94,,,
Holding screen,html.Screen,2_1_1_0,2022-02-02T14:42:10.497Z,,,,,,,,,,,,,,,,,,,,,,,,,,,,,,,10003.440000000002,,timeout,,,,,,,,,,,,,,,,,,,,,146900,146898.72,136904.94,136907,136911.94,146915.38,,,
screen,html.Screen,2_1_1_1_0,2022-02-02T14:42:11.035Z,,,,,,,,,,,,,,,,,54,,,,,,,,,,,,,,504.61999999999534,,response,,,,100,,,,,,,Space,keypress(Space),,,,,,,,At --- ---- --- ------ ----- ------- ---- -- --- ------- --<br>------- ---------- ------ -- ----- -- ----- -- ---- ------<br>--- ----- --- --- ------ -------- ----- --- ------ ----- --<br>----- ----- ---------- --- --- ------ ------ ---- -- ------<br>------- --- ------ ----- --- ---- ------- -- ---- --- --<br>------- ------,147438,147420,146898.72,146901,146915.38,147438.92,,0,At
screen,html.Screen,2_1_1_1_1,2022-02-02T14:42:11.353Z,,,,,,,,,,,,,,,,,54,,,,,,,,,,,,,,309.0799999999872,,response,,,,100,,,,,,,Space,keypress(Space),,,,,,,,-- the ---- --- ------ ----- ------- ---- -- --- ------- --<br>------- ---------- ------ -- ----- -- ----- -- ---- ------<br>--- ----- --- --- ------ -------- ----- --- ------ ----- --<br>----- ----- ---------- --- --- ------ ------ ---- -- ------<br>------- --- ------ ----- --- ---- ------- -- ---- --- --<br>------- ------,147756,147748,147438.5,147438,147438.92,147757.04,,1,the
screen,html.Screen,2_1_1_1_2,2022-02-02T14:42:11.604Z,,,,,,,,,,,,,,,,,54,,,,,,,,,,,,,,240.95999999999185,,response,,,,100,,,,,,,Space,keypress(Space),,,,,,,,-- --- time --- ------ ----- ------- ---- -- --- ------- --<br>------- ---------- ------ -- ----- -- ----- -- ---- ------<br>--- ----- --- --- ------ -------- ----- --- ------ ----- --<br>----- ----- ---------- --- --- ------ ------ ---- -- ------<br>------- --- ------ ----- --- ---- ------- -- ---- --- --<br>------- ------,148007,147998,147756.62,147756,147757.04,148008.4,,2,time
screen,html.Screen,2_1_1_1_3,2022-02-02T14:42:11.814Z,,,,,,,,,,,,,,,,,54,,,,,,,,,,,,,,193.60000000000582,,response,,,,100,,,,,,,Space,keypress(Space),,,,,,,,-- --- ---- the ------ ----- ------- ---- -- --- ------- --<br>------- ---------- ------ -- ----- -- ----- -- ---- ------<br>--- ----- --- --- ------ -------- ----- --- ------ ----- --<br>----- ----- ---------- --- --- ------ ------ ---- -- ------<br>------- --- ------ ----- --- ---- ------- -- ---- --- --<br>------- ------,148216,148202,148007.94,148008,148008.4,148220.12,,3,the
screen,html.Screen,2_1_1_1_4,2022-02-02T14:42:12.010Z,,,,,,,,,,,,,,,,,54,,,,,,,,,,,,,,184.88000000000466,,response,,,,100,,,,,,,Space,keypress(Space),,,,,,,,-- --- ---- --- French ----- ------- ---- -- --- ------- --<br>------- ---------- ------ -- ----- -- ----- -- ---- ------<br>--- ----- --- --- ------ -------- ----- --- ------ ----- --<br>----- ----- ---------- --- --- ------ ------ ---- -- ------<br>------- --- ------ ----- --- ---- ------- -- ---- --- --<br>------- ------,148413,148405,148217.2,148217,148220.12,148420.1,,4,French
screen,html.Screen,2_1_1_1_5,2022-02-02T14:42:12.183Z,,,,,,,,,,,,,,,,,54,,,,,,,,,,,,,,156.89999999999418,,response,,,,100,,,,,,,Space,keypress(Space),,,,,,,,-- --- ---- --- ------ crown ------- ---- -- --- ------- --<br>------- ---------- ------ -- ----- -- ----- -- ---- ------<br>--- ----- --- --- ------ -------- ----- --- ------ ----- --<br>----- ----- ---------- --- --- ------ ------ ---- -- ------<br>------- --- ------ ----- --- ---- ------- -- ---- --- --<br>------- ------,148585,148577,148413.16,148413,148420.1,148588.8,,5,crown
screen,html.Screen,2_1_1_1_6,2022-02-02T14:42:12.379Z,,,,,,,,,,,,,,,,,54,,,,,,,,,,,,,,174.20000000001164,,response,,,,100,,,,,,,Space,keypress(Space),,,,,,,,-- --- ---- --- ------ ----- secured ---- -- --- ------- --<br>------- ---------- ------ -- ----- -- ----- -- ---- ------<br>--- ----- --- --- ------ -------- ----- --- ------ ----- --<br>----- ----- ---------- --- --- ------ ------ ---- -- ------<br>------- --- ------ ----- --- ---- ------- -- ---- --- --<br>------- ------,148782,148763,148586.32,148586,148588.8,148788.76,,6,secured
screen,html.Screen,2_1_1_1_7,2022-02-02T14:42:12.673Z,,,,,,,,,,,,,,,,,54,,,,,,,,,,,,,,272.2399999999907,,response,,,,100,,,,,,,Space,keypress(Space),,,,,,,,-- --- ---- --- ------ ----- ------- much -- --- ------- --<br>------- ---------- ------ -- ----- -- ----- -- ---- ------<br>--- ----- --- --- ------ -------- ----- --- ------ ----- --<br>----- ----- ---------- --- --- ------ ------ ---- -- ------<br>------- --- ------ ----- --- ---- ------- -- ---- --- --<br>------- ------,149076,149061,148784.16,148784,148788.76,149077.38,,7,much
screen,html.Screen,2_1_1_1_8,2022-02-02T14:42:12.896Z,,,,,,,,,,,,,,,,,54,,,,,,,,,,,,,,218.61999999999534,,response,,,,100,,,,,,,Space,keypress(Space),,,,,,,,-- --- ---- --- ------ ----- ------- ---- of --- ------- --<br>------- ---------- ------ -- ----- -- ----- -- ---- ------<br>--- ----- --- --- ------ -------- ----- --- ------ ----- --<br>----- ----- ---------- --- --- ------ ------ ---- -- ------<br>------- --- ------ ----- --- ---- ------- -- ---- --- --<br>------- ------,149298,149296,149076.94,149077,149077.38,149299.2,,8,of
screen,html.Screen,2_1_1_1_9,2022-02-02T14:42:13.160Z,,,,,,,,,,,,,,,,,54,,,,,,,,,,,,,,246.79999999998836,,response,,,,100,,,,,,,Space,keypress(Space),,,,,,,,-- --- ---- --- ------ ----- ------- ---- -- its ------- --<br>------- ---------- ------ -- ----- -- ----- -- ---- ------<br>--- ----- --- --- ------ -------- ----- --- ------ ----- --<br>----- ----- ---------- --- --- ------ ------ ---- -- ------<br>------- --- ------ ----- --- ---- ------- -- ---- --- --<br>------- ------,149563,149546,149298.96,149299,149299.2,149563.74,,9,its
screen,html.Screen,2_1_1_1_10,2022-02-02T14:42:13.383Z,,,,,,,,,,,,,,,,,54,,,,,,,,,,,,,,215.2600000000093,,response,,,,100,,,,,,,Space,keypress(Space),,,,,,,,-- --- ---- --- ------ ----- ------- ---- -- --- revenue --<br>------- ---------- ------ -- ----- -- ----- -- ---- ------<br>--- ----- --- --- ------ -------- ----- --- ------ ----- --<br>----- ----- ---------- --- --- ------ ------ ---- -- ------<br>------- --- ------ ----- --- ---- ------- -- ---- --- --<br>------- ------,149786,149779,149563.32,149563,149563.74,149786.66,,10,revenue
screen,html.Screen,2_1_1_1_11,2022-02-02T14:42:13.670Z,,,,,,,,,,,,,,,,,54,,,,,,,,,,,,,,273.3399999999965,,response,,,,100,,,,,,,Space,keypress(Space),,,,,,,,-- --- ---- --- ------ ----- ------- ---- -- --- ------- by<br>------- ---------- ------ -- ----- -- ----- -- ---- ------<br>--- ----- --- --- ------ -------- ----- --- ------ ----- --<br>----- ----- ---------- --- --- ------ ------ ---- -- ------<br>------- --- ------ ----- --- ---- ------- -- ---- --- --<br>------- ------,150073,150060,149786.24,149786,149786.66,150074.2,,11,by
screen,html.Screen,2_1_1_1_12,2022-02-02T14:42:13.910Z,,,,,,,,,,,,,,,,,54,,,,,,,,,,,,,,221.79999999998836,,response,,,,100,,,,,,,Space,keypress(Space),,,,,,,,-- --- ---- --- ------ ----- ------- ---- -- --- ------- --<br>issuing ---------- ------ -- ----- -- ----- -- ---- ------<br>--- ----- --- --- ------ -------- ----- --- ------ ----- --<br>----- ----- ---------- --- --- ------ ------ ---- -- ------<br>------- --- ------ ----- --- ---- ------- -- ---- --- --<br>------- ------,150313,150296,150073.64,150073,150074.2,150314.52,,12,issuing
screen,html.Screen,2_1_1_1_13,2022-02-02T14:42:14.143Z,,,,,,,,,,,,,,,,,54,,,,,,,,,,,,,,215.48000000001048,,response,,,,100,,,,,,,Space,keypress(Space),,,,,,,,-- --- ---- --- ------ ----- ------- ---- -- --- ------- --<br>------- government ------ -- ----- -- ----- -- ---- ------<br>--- ----- --- --- ------ -------- ----- --- ------ ----- --<br>----- ----- ---------- --- --- ------ ------ ---- -- ------<br>------- --- ------ ----- --- ---- ------- -- ---- --- --<br>------- ------,150546,150530,150314.12,150314,150314.52,150547.36,,13,government
screen,html.Screen,2_1_1_1_14,2022-02-02T14:42:14.350Z,,,,,,,,,,,,,,,,,54,,,,,,,,,,,,,,201.64000000001397,,response,,,,100,,,,,,,Space,keypress(Space),,,,,,,,-- --- ---- --- ------ ----- ------- ---- -- --- ------- --<br>------- ---------- bonds. -- ----- -- ----- -- ---- ------<br>--- ----- --- --- ------ -------- ----- --- ------ ----- --<br>----- ----- ---------- --- --- ------ ------ ---- -- ------<br>------- --- ------ ----- --- ---- ------- -- ---- --- --<br>------- ------,150754,150749,150546.94,150547,150547.36,150762.98,,14,bonds.
screen,html.Screen,2_1_1_1_15,2022-02-02T14:42:14.615Z,,,,,,,,,,,,,,,,,54,,,,,,,,,,,,,,251.01999999998952,,response,,,,100,,,,,,,Space,keypress(Space),,,,,,,,-- --- ---- --- ------ ----- ------- ---- -- --- ------- --<br>------- ---------- ------ In ----- -- ----- -- ---- ------<br>--- ----- --- --- ------ -------- ----- --- ------ ----- --<br>----- ----- ---------- --- --- ------ ------ ---- -- ------<br>------- --- ------ ----- --- ---- ------- -- ---- --- --<br>------- ------,151018,151014,150754.72,150755,150762.98,151019.5,,15,In
screen,html.Screen,2_1_1_1_16,2022-02-02T14:42:14.872Z,,,,,,,,,,,,,,,,,54,,,,,,,,,,,,,,244.5,,response,,,,100,,,,,,,Space,keypress(Space),,,,,,,,"-- --- ---- --- ------ ----- ------- ---- -- --- ------- --<br>------- ---------- ------ -- 1727, -- ----- -- ---- ------<br>--- ----- --- --- ------ -------- ----- --- ------ ----- --<br>----- ----- ---------- --- --- ------ ------ ---- -- ------<br>------- --- ------ ----- --- ---- ------- -- ---- --- --<br>------- ------",151275,151264,151019.06,151019,151019.5,151276.34,,16,"1727,"
screen,html.Screen,2_1_1_1_17,2022-02-02T14:42:15.094Z,,,,,,,,,,,,,,,,,54,,,,,,,,,,,,,,205.6600000000035,,response,,,,100,,,,,,,Space,keypress(Space),,,,,,,,-- --- ---- --- ------ ----- ------- ---- -- --- ------- --<br>------- ---------- ------ -- ----- in ----- -- ---- ------<br>--- ----- --- --- ------ -------- ----- --- ------ ----- --<br>----- ----- ---------- --- --- ------ ------ ---- -- ------<br>------- --- ------ ----- --- ---- ------- -- ---- --- --<br>------- ------,151497,151482,151275.94,151276,151276.34,151499.82,,17,in
screen,html.Screen,2_1_1_1_18,2022-02-02T14:42:15.371Z,,,,,,,,,,,,,,,,,54,,,,,,,,,,,,,,263.179999999993,,response,,,,100,,,,,,,Space,keypress(Space),,,,,,,,-- --- ---- --- ------ ----- ------- ---- -- --- ------- --<br>------- ---------- ------ -- ----- -- order -- ---- ------<br>--- ----- --- --- ------ -------- ----- --- ------ ----- --<br>----- ----- ---------- --- --- ------ ------ ---- -- ------<br>------- --- ------ ----- --- ---- ------- -- ---- --- --<br>------- ------,151775,151763,151497.82,151497,151499.82,151775.92,,18,order
screen,html.Screen,2_1_1_1_19,2022-02-02T14:42:15.731Z,,,,,,,,,,,,,,,,,54,,,,,,,,,,,,,,347.0799999999872,,response,,,,100,,,,,,,Space,keypress(Space),,,,,,,,-- --- ---- --- ------ ----- ------- ---- -- --- ------- --<br>------- ---------- ------ -- ----- -- ----- to ---- ------<br>--- ----- --- --- ------ -------- ----- --- ------ ----- --<br>----- ----- ---------- --- --- ------ ------ ---- -- ------<br>------- --- ------ ----- --- ---- ------- -- ---- --- --<br>------- ------,152134,152123,151775.54,151775,151775.92,152135.1,,19,to
screen,html.Screen,2_1_1_1_20,2022-02-02T14:42:15.950Z,,,,,,,,,,,,,,,,,54,,,,,,,,,,,,,,207.89999999999418,,response,,,,100,,,,,,,Space,keypress(Space),,,,,,,,-- --- ---- --- ------ ----- ------- ---- -- --- ------- --<br>------- ---------- ------ -- ----- -- ----- -- save ------<br>--- ----- --- --- ------ -------- ----- --- ------ ----- --<br>----- ----- ---------- --- --- ------ ------ ---- -- ------<br>------- --- ------ ----- --- ---- ------- -- ---- --- --<br>------- ------,152353,152343,152134.68,152134,152135.1,152353.88,,20,save
screen,html.Screen,2_1_1_1_21,2022-02-02T14:42:16.174Z,,,,,,,,,,,,,,,,,54,,,,,,,,,,,,,,206.11999999999534,,response,,,,100,,,,,,,Space,keypress(Space),,,,,,,,"-- --- ---- --- ------ ----- ------- ---- -- --- ------- --<br>------- ---------- ------ -- ----- -- ----- -- ---- money,<br>--- ----- --- --- ------ -------- ----- --- ------ ----- --<br>----- ----- ---------- --- --- ------ ------ ---- -- ------<br>------- --- ------ ----- --- ---- ------- -- ---- --- --<br>------- ------",152577,152560,152353.46,152354,152353.88,152587.2,,21,"money,"
screen,html.Screen,2_1_1_1_22,2022-02-02T14:42:16.488Z,,,,,,,,,,,,,,,,,54,,,,,,,,,,,,,,285.79999999998836,,response,,,,100,,,,,,,Space,keypress(Space),,,,,,,,-- --- ---- --- ------ ----- ------- ---- -- --- ------- --<br>------- ---------- ------ -- ----- -- ----- -- ---- ------<br>the ----- --- --- ------ -------- ----- --- ------ ----- --<br>----- ----- ---------- --- --- ------ ------ ---- -- ------<br>------- --- ------ ----- --- ---- ------- -- ---- --- --<br>------- ------,152892,152873,152577.96,152577,152587.2,152892.12,,22,the
screen,html.Screen,2_1_1_1_23,2022-02-02T14:42:16.731Z,,,,,,,,,,,,,,,,,54,,,,,,,,,,,,,,230.88000000000466,,response,,,,100,,,,,,,Space,keypress(Space),,,,,,,,-- --- ---- --- ------ ----- ------- ---- -- --- ------- --<br>------- ---------- ------ -- ----- -- ----- -- ---- ------<br>--- state --- --- ------ -------- ----- --- ------ ----- --<br>----- ----- ---------- --- --- ------ ------ ---- -- ------<br>------- --- ------ ----- --- ---- ------- -- ---- --- --<br>------- ------,153135,153123,152891.7,152892,152892.12,153139.26,,23,state
screen,html.Screen,2_1_1_1_24,2022-02-02T14:42:16.977Z,,,,,,,,,,,,,,,,,54,,,,,,,,,,,,,,233.7399999999907,,response,,,,100,,,,,,,Space,keypress(Space),,,,,,,,-- --- ---- --- ------ ----- ------- ---- -- --- ------- --<br>------- ---------- ------ -- ----- -- ----- -- ---- ------<br>--- ----- cut --- ------ -------- ----- --- ------ ----- --<br>----- ----- ---------- --- --- ------ ------ ---- -- ------<br>------- --- ------ ----- --- ---- ------- -- ---- --- --<br>------- ------,153380,153373,153135.44,153135,153139.26,153380.9,,24,cut
screen,html.Screen,2_1_1_1_25,2022-02-02T14:42:17.197Z,,,,,,,,,,,,,,,,,54,,,,,,,,,,,,,,211.10000000000582,,response,,,,100,,,,,,,Space,keypress(Space),,,,,,,,-- --- ---- --- ------ ----- ------- ---- -- --- ------- --<br>------- ---------- ------ -- ----- -- ----- -- ---- ------<br>--- ----- --- the ------ -------- ----- --- ------ ----- --<br>----- ----- ---------- --- --- ------ ------ ---- -- ------<br>------- --- ------ ----- --- ---- ------- -- ---- --- --<br>------- ------,153601,153592,153380.5,153380,153380.9,153601.8,,25,the
screen,html.Screen,2_1_1_1_26,2022-02-02T14:42:17.412Z,,,,,,,,,,,,,,,,,54,,,,,,,,,,,,,,208.20000000001164,,response,,,,100,,,,,,,Space,keypress(Space),,,,,,,,-- --- ---- --- ------ ----- ------- ---- -- --- ------- --<br>------- ---------- ------ -- ----- -- ----- -- ---- ------<br>--- ----- --- --- bonds' -------- ----- --- ------ ----- --<br>----- ----- ---------- --- --- ------ ------ ---- -- ------<br>------- --- ------ ----- --- ---- ------- -- ---- --- --<br>------- ------,153815,153810,153601.26,153601,153601.8,153816.2,,26,bonds'
screen,html.Screen,2_1_1_1_27,2022-02-02T14:42:17.613Z,,,,,,,,,,,,,,,,,54,,,,,,,,,,,,,,181.79999999998836,,response,,,,100,,,,,,,Space,keypress(Space),,,,,,,,-- --- ---- --- ------ ----- ------- ---- -- --- ------- --<br>------- ---------- ------ -- ----- -- ----- -- ---- ------<br>--- ----- --- --- ------ interest ----- --- ------ ----- --<br>----- ----- ---------- --- --- ------ ------ ---- -- ------<br>------- --- ------ ----- --- ---- ------- -- ---- --- --<br>------- ------,154016,153998,153815.68,153816,153816.2,154025.12,,27,interest
screen,html.Screen,2_1_1_1_28,2022-02-02T14:42:17.829Z,,,,,,,,,,,,,,,,,54,,,,,,,,,,,,,,191.88000000000466,,response,,,,100,,,,,,,Space,keypress(Space),,,,,,,,-- --- ---- --- ------ ----- ------- ---- -- --- ------- --<br>------- ---------- ------ -- ----- -- ----- -- ---- ------<br>--- ----- --- --- ------ -------- rate. --- ------ ----- --<br>----- ----- ---------- --- --- ------ ------ ---- -- ------<br>------- --- ------ ----- --- ---- ------- -- ---- --- --<br>------- ------,154231,154217,154016.32,154016,154025.12,154233.2,,28,rate.
screen,html.Screen,2_1_1_1_29,2022-02-02T14:42:18.050Z,,,,,,,,,,,,,,,,,54,,,,,,,,,,,,,,202.79999999998836,,response,,,,100,,,,,,,Space,keypress(Space),,,,,,,,-- --- ---- --- ------ ----- ------- ---- -- --- ------- --<br>------- ---------- ------ -- ----- -- ----- -- ---- ------<br>--- ----- --- --- ------ -------- ----- The ------ ----- --<br>----- ----- ---------- --- --- ------ ------ ---- -- ------<br>------- --- ------ ----- --- ---- ------- -- ---- --- --<br>------- ------,154453,154436,154232.72,154232,154233.2,154454.9,,29,The
screen,html.Screen,2_1_1_1_30,2022-02-02T14:42:18.271Z,,,,,,,,,,,,,,,,,54,,,,,,,,,,,,,,200.10000000000582,,response,,,,100,,,,,,,Space,keypress(Space),,,,,,,,-- --- ---- --- ------ ----- ------- ---- -- --- ------- --<br>------- ---------- ------ -- ----- -- ----- -- ---- ------<br>--- ----- --- --- ------ -------- ----- --- market ----- --<br>----- ----- ---------- --- --- ------ ------ ---- -- ------<br>------- --- ------ ----- --- ---- ------- -- ---- --- --<br>------- ------,154674,154655,154454.42,154454,154454.9,154678.34,,30,market
screen,html.Screen,2_1_1_1_31,2022-02-02T14:42:18.501Z,,,,,,,,,,,,,,,,,54,,,,,,,,,,,,,,209.6600000000035,,response,,,,100,,,,,,,Space,keypress(Space),,,,,,,,-- --- ---- --- ------ ----- ------- ---- -- --- ------- --<br>------- ---------- ------ -- ----- -- ----- -- ---- ------<br>--- ----- --- --- ------ -------- ----- --- ------ value --<br>----- ----- ---------- --- --- ------ ------ ---- -- ------<br>------- --- ------ ----- --- ---- ------- -- ---- --- --<br>------- ------,154904,154888,154674.24,154674,154678.34,154904.82,,31,value
screen,html.Screen,2_1_1_1_32,2022-02-02T14:42:18.775Z,,,,,,,,,,,,,,,,,54,,,,,,,,,,,,,,266.179999999993,,response,,,,100,,,,,,,Space,keypress(Space),,,,,,,,-- --- ---- --- ------ ----- ------- ---- -- --- ------- --<br>------- ---------- ------ -- ----- -- ----- -- ---- ------<br>--- ----- --- --- ------ -------- ----- --- ------ ----- of<br>----- ----- ---------- --- --- ------ ------ ---- -- ------<br>------- --- ------ ----- --- ---- ------- -- ---- --- --<br>------- ------,155178,155171,154904.34,154904,154904.82,155180.24,,32,of
screen,html.Screen,2_1_1_1_33,2022-02-02T14:42:19.036Z,,,,,,,,,,,,,,,,,54,,,,,,,,,,,,,,240.7600000000093,,response,,,,100,,,,,,,Space,keypress(Space),,,,,,,,-- --- ---- --- ------ ----- ------- ---- -- --- ------- --<br>------- ---------- ------ -- ----- -- ----- -- ---- ------<br>--- ----- --- --- ------ -------- ----- --- ------ ----- --<br>these ----- ---------- --- --- ------ ------ ---- -- ------<br>------- --- ------ ----- --- ---- ------- -- ---- --- --<br>------- ------,155440,155421,155178.56,155178,155180.24,155440.68,,33,these
screen,html.Screen,2_1_1_1_34,2022-02-02T14:42:19.262Z,,,,,,,,,,,,,,,,,54,,,,,,,,,,,,,,213.32000000000698,,response,,,,100,,,,,,,Space,keypress(Space),,,,,,,,-- --- ---- --- ------ ----- ------- ---- -- --- ------- --<br>------- ---------- ------ -- ----- -- ----- -- ---- ------<br>--- ----- --- --- ------ -------- ----- --- ------ ----- --<br>----- bonds ---------- --- --- ------ ------ ---- -- ------<br>------- --- ------ ----- --- ---- ------- -- ---- --- --<br>------- ------,155666,155654,155440.26,155440,155440.68,155666.66,,34,bonds
screen,html.Screen,2_1_1_1_35,2022-02-02T14:42:19.488Z,,,,,,,,,,,,,,,,,54,,,,,,,,,,,,,,206.3399999999965,,response,,,,100,,,,,,,Space,keypress(Space),,,,,,,,"-- --- ---- --- ------ ----- ------- ---- -- --- ------- --<br>------- ---------- ------ -- ----- -- ----- -- ---- ------<br>--- ----- --- --- ------ -------- ----- --- ------ ----- --<br>----- ----- plummeted, --- --- ------ ------ ---- -- ------<br>------- --- ------ ----- --- ---- ------- -- ---- --- --<br>------- ------",155891,155873,155666.24,155666,155666.66,155892.1,,35,"plummeted,"
screen,html.Screen,2_1_1_1_36,2022-02-02T14:42:19.754Z,,,,,,,,,,,,,,,,,54,,,,,,,,,,,,,,246.89999999999418,,response,,,,100,,,,,,,Space,keypress(Space),,,,,,,,-- --- ---- --- ------ ----- ------- ---- -- --- ------- --<br>------- ---------- ------ -- ----- -- ----- -- ---- ------<br>--- ----- --- --- ------ -------- ----- --- ------ ----- --<br>----- ----- ---------- and --- ------ ------ ---- -- ------<br>------- --- ------ ----- --- ---- ------- -- ---- --- --<br>------- ------,156157,156139,155891.68,155891,155892.1,156158.52,,36,and
screen,html.Screen,2_1_1_1_37,2022-02-02T14:42:19.978Z,,,,,,,,,,,,,,,,,54,,,,,,,,,,,,,,215.48000000001048,,response,,,,100,,,,,,,Space,keypress(Space),,,,,,,,-- --- ---- --- ------ ----- ------- ---- -- --- ------- --<br>------- ---------- ------ -- ----- -- ----- -- ---- ------<br>--- ----- --- --- ------ -------- ----- --- ------ ----- --<br>----- ----- ---------- --- the ------ ------ ---- -- ------<br>------- --- ------ ----- --- ---- ------- -- ---- --- --<br>------- ------,156381,156374,156157.82,156158,156158.52,156384.72,,37,the
screen,html.Screen,2_1_1_1_38,2022-02-02T14:42:20.178Z,,,,,,,,,,,,,,,,,54,,,,,,,,,,,,,,191.27999999999884,,response,,,,100,,,,,,,Space,keypress(Space),,,,,,,,-- --- ---- --- ------ ----- ------- ---- -- --- ------- --<br>------- ---------- ------ -- ----- -- ----- -- ---- ------<br>--- ----- --- --- ------ -------- ----- --- ------ ----- --<br>----- ----- ---------- --- --- market ------ ---- -- ------<br>------- --- ------ ----- --- ---- ------- -- ---- --- --<br>------- ------,156582,156576,156381.46,156381,156384.72,156584.68,,38,market
screen,html.Screen,2_1_1_1_39,2022-02-02T14:42:20.400Z,,,,,,,,,,,,,,,,,54,,,,,,,,,,,,,,211.32000000000698,,response,,,,100,,,,,,,Space,keypress(Space),,,,,,,,-- --- ---- --- ------ ----- ------- ---- -- --- ------- --<br>------- ---------- ------ -- ----- -- ----- -- ---- ------<br>--- ----- --- --- ------ -------- ----- --- ------ ----- --<br>----- ----- ---------- --- --- ------ became ---- -- ------<br>------- --- ------ ----- --- ---- ------- -- ---- --- --<br>------- ------,156803,156796,156581.86,156582,156584.68,156804.14,,39,became
screen,html.Screen,2_1_1_1_40,2022-02-02T14:42:20.633Z,,,,,,,,,,,,,,,,,54,,,,,,,,,,,,,,224.85999999998603,,response,,,,100,,,,,,,Space,keypress(Space),,,,,,,,-- --- ---- --- ------ ----- ------- ---- -- --- ------- --<br>------- ---------- ------ -- ----- -- ----- -- ---- ------<br>--- ----- --- --- ------ -------- ----- --- ------ ----- --<br>----- ----- ---------- --- --- ------ ------ wary -- ------<br>------- --- ------ ----- --- ---- ------- -- ---- --- --<br>------- ------,157037,157029,156803.72,156804,156804.14,157037.54,,40,wary
screen,html.Screen,2_1_1_1_41,2022-02-02T14:42:20.838Z,,,,,,,,,,,,,,,,,54,,,,,,,,,,,,,,194.45999999999185,,response,,,,100,,,,,,,Space,keypress(Space),,,,,,,,-- --- ---- --- ------ ----- ------- ---- -- --- ------- --<br>------- ---------- ------ -- ----- -- ----- -- ---- ------<br>--- ----- --- --- ------ -------- ----- --- ------ ----- --<br>----- ----- ---------- --- --- ------ ------ ---- of ------<br>------- --- ------ ----- --- ---- ------- -- ---- --- --<br>------- ------,157241,157232,157037,157037,157037.54,157253.9,,41,of
screen,html.Screen,2_1_1_1_42,2022-02-02T14:42:21.111Z,,,,,,,,,,,,,,,,,54,,,,,,,,,,,,,,244.10000000000582,,response,,,,100,,,,,,,Space,keypress(Space),,,,,,,,-- --- ---- --- ------ ----- ------- ---- -- --- ------- --<br>------- ---------- ------ -- ----- -- ----- -- ---- ------<br>--- ----- --- --- ------ -------- ----- --- ------ ----- --<br>----- ----- ---------- --- --- ------ ------ ---- -- French<br>------- --- ------ ----- --- ---- ------- -- ---- --- --<br>------- ------,157514,157498,157241.52,157241,157253.9,157515.7,,42,French
screen,html.Screen,2_1_1_1_43,2022-02-02T14:42:21.356Z,,,,,,,,,,,,,,,,,54,,,,,,,,,,,,,,233.29999999998836,,response,,,,100,,,,,,,Space,keypress(Space),,,,,,,,-- --- ---- --- ------ ----- ------- ---- -- --- ------- --<br>------- ---------- ------ -- ----- -- ----- -- ---- ------<br>--- ----- --- --- ------ -------- ----- --- ------ ----- --<br>----- ----- ---------- --- --- ------ ------ ---- -- ------<br>credit. --- ------ ----- --- ---- ------- -- ---- --- --<br>------- ------,157760,157749,157515.26,157515,157515.7,157760.16,,43,credit.
screen,html.Screen,2_1_1_1_44,2022-02-02T14:42:21.650Z,,,,,,,,,,,,,,,,,54,,,,,,,,,,,,,,285.8399999999965,,response,,,,100,,,,,,,Space,keypress(Space),,,,,,,,-- --- ---- --- ------ ----- ------- ---- -- --- ------- --<br>------- ---------- ------ -- ----- -- ----- -- ---- ------<br>--- ----- --- --- ------ -------- ----- --- ------ ----- --<br>----- ----- ---------- --- --- ------ ------ ---- -- ------<br>------- The ------ ----- --- ---- ------- -- ---- --- --<br>------- ------,158053,158046,157759.72,157760,157760.16,158057.64,,44,The
screen,html.Screen,2_1_1_1_45,2022-02-02T14:42:21.877Z,,,,,,,,,,,,,,,,,54,,,,,,,,,,,,,,205.35999999998603,,response,,,,100,,,,,,,Space,keypress(Space),,,,,,,,-- --- ---- --- ------ ----- ------- ---- -- --- ------- --<br>------- ---------- ------ -- ----- -- ----- -- ---- ------<br>--- ----- --- --- ------ -------- ----- --- ------ ----- --<br>----- ----- ---------- --- --- ------ ------ ---- -- ------<br>------- --- French ----- --- ---- ------- -- ---- --- --<br>------- ------,158280,158263,158054.14,158054,158057.64,158280.84,,45,French
screen,html.Screen,2_1_1_1_46,2022-02-02T14:42:22.081Z,,,,,,,,,,,,,,,,,54,,,,,,,,,,,,,,187.1600000000035,,response,,,,100,,,,,,,Space,keypress(Space),,,,,,,,-- --- ---- --- ------ ----- ------- ---- -- --- ------- --<br>------- ---------- ------ -- ----- -- ----- -- ---- ------<br>--- ----- --- --- ------ -------- ----- --- ------ ----- --<br>----- ----- ---------- --- --- ------ ------ ---- -- ------<br>------- --- ------ state --- ---- ------- -- ---- --- --<br>------- ------,158484,158468,158280.44,158281,158280.84,158491.8,,46,state
screen,html.Screen,2_1_1_1_47,2022-02-02T14:42:22.295Z,,,,,,,,,,,,,,,,,54,,,,,,,,,,,,,,193.20000000001164,,response,,,,100,,,,,,,Space,keypress(Space),,,,,,,,-- --- ---- --- ------ ----- ------- ---- -- --- ------- --<br>------- ---------- ------ -- ----- -- ----- -- ---- ------<br>--- ----- --- --- ------ -------- ----- --- ------ ----- --<br>----- ----- ---------- --- --- ------ ------ ---- -- ------<br>------- --- ------ ----- was ---- ------- -- ---- --- --<br>------- ------,158698,158685,158484.38,158485,158491.8,158699.28,,47,was
screen,html.Screen,2_1_1_1_48,2022-02-02T14:42:22.523Z,,,,,,,,,,,,,,,,,54,,,,,,,,,,,,,,220.72000000000116,,response,,,,100,,,,,,,Space,keypress(Space),,,,,,,,-- --- ---- --- ------ ----- ------- ---- -- --- ------- --<br>------- ---------- ------ -- ----- -- ----- -- ---- ------<br>--- ----- --- --- ------ -------- ----- --- ------ ----- --<br>----- ----- ---------- --- --- ------ ------ ---- -- ------<br>------- --- ------ ----- --- left ------- -- ---- --- --<br>------- ------,158927,158920,158698.86,158699,158699.28,158927.84,,48,left
screen,html.Screen,2_1_1_1_49,2022-02-02T14:42:22.728Z,,,,,,,,,,,,,,,,,54,,,,,,,,,,,,,,196.1600000000035,,response,,,,100,,,,,,,Space,keypress(Space),,,,,,,,-- --- ---- --- ------ ----- ------- ---- -- --- ------- --<br>------- ---------- ------ -- ----- -- ----- -- ---- ------<br>--- ----- --- --- ------ -------- ----- --- ------ ----- --<br>----- ----- ---------- --- --- ------ ------ ---- -- ------<br>------- --- ------ ----- --- ---- without -- ---- --- --<br>------- ------,159130,159124,158927.38,158928,158927.84,159144.28,,49,without
screen,html.Screen,2_1_1_1_50,2022-02-02T14:42:22.945Z,,,,,,,,,,,,,,,,,54,,,,,,,,,,,,,,197.72000000000116,,response,,,,100,,,,,,,Space,keypress(Space),,,,,,,,-- --- ---- --- ------ ----- ------- ---- -- --- ------- --<br>------- ---------- ------ -- ----- -- ----- -- ---- ------<br>--- ----- --- --- ------ -------- ----- --- ------ ----- --<br>----- ----- ---------- --- --- ------ ------ ---- -- ------<br>------- --- ------ ----- --- ---- ------- an ---- --- --<br>------- ------,159349,159342,159131.08,159131,159144.28,159349.74,,50,an
screen,html.Screen,2_1_1_1_51,2022-02-02T14:42:23.187Z,,,,,,,,,,,,,,,,,54,,,,,,,,,,,,,,227.2600000000093,,response,,,,100,,,,,,,Space,keypress(Space),,,,,,,,-- --- ---- --- ------ ----- ------- ---- -- --- ------- --<br>------- ---------- ------ -- ----- -- ----- -- ---- ------<br>--- ----- --- --- ------ -------- ----- --- ------ ----- --<br>----- ----- ---------- --- --- ------ ------ ---- -- ------<br>------- --- ------ ----- --- ---- ------- -- easy --- --<br>------- ------,159590,159577,159349.22,159349,159349.74,159590.6,,51,easy
screen,html.Screen,2_1_1_1_52,2022-02-02T14:42:23.417Z,,,,,,,,,,,,,,,,,54,,,,,,,,,,,,,,220.39999999999418,,response,,,,100,,,,,,,Space,keypress(Space),,,,,,,,-- --- ---- --- ------ ----- ------- ---- -- --- ------- --<br>------- ---------- ------ -- ----- -- ----- -- ---- ------<br>--- ----- --- --- ------ -------- ----- --- ------ ----- --<br>----- ----- ---------- --- --- ------ ------ ---- -- ------<br>------- --- ------ ----- --- ---- ------- -- ---- way --<br>------- ------,159820,159811,159590.18,159590,159590.6,159821.08,,52,way
screen,html.Screen,2_1_1_1_53,2022-02-02T14:42:23.702Z,,,,,,,,,,,,,,,,,54,,,,,,,,,,,,,,271.9200000000128,,response,,,,100,,,,,,,Space,keypress(Space),,,,,,,,-- --- ---- --- ------ ----- ------- ---- -- --- ------- --<br>------- ---------- ------ -- ----- -- ----- -- ---- ------<br>--- ----- --- --- ------ -------- ----- --- ------ ----- --<br>----- ----- ---------- --- --- ------ ------ ---- -- ------<br>------- --- ------ ----- --- ---- ------- -- ---- --- of<br>------- ------,160106,160093,159820.64,159820,159821.08,160106.32,,53,of
screen,html.Screen,2_1_1_1_54,2022-02-02T14:42:23.965Z,,,,,,,,,,,,,,,,,54,,,,,,,,,,,,,,251.67999999999302,,response,,,,100,,,,,,,Space,keypress(Space),,,,,,,,-- --- ---- --- ------ ----- ------- ---- -- --- ------- --<br>------- ---------- ------ -- ----- -- ----- -- ---- ------<br>--- ----- --- --- ------ -------- ----- --- ------ ----- --<br>----- ----- ---------- --- --- ------ ------ ---- -- ------<br>------- --- ------ ----- --- ---- ------- -- ---- --- --<br>raising ------,160369,160358,160105.9,160106,160106.32,160369.54,,54,raising
screen,html.Screen,2_1_1_1_55,2022-02-02T14:42:24.255Z,,,,,,,,,,,,,,,,,54,,,,,,,,,,,,,,269.45999999999185,,response,,,,100,,,,,,,Space,keypress(Space),,,,,,,,-- --- ---- --- ------ ----- ------- ---- -- --- ------- --<br>------- ---------- ------ -- ----- -- ----- -- ---- ------<br>--- ----- --- --- ------ -------- ----- --- ------ ----- --<br>----- ----- ---------- --- --- ------ ------ ---- -- ------<br>------- --- ------ ----- --- ---- ------- -- ---- --- --<br>------- money.,160658,160639,160369.12,160369,160369.54,160659.46,,55,money.
Item 100,flow.Loop,2_1_1_1,2022-02-02T14:42:24.256Z,,,,,,,,,,,,,,,,,,,,,,,,,,,,,,,13723.619999999995,,completion,,,,,C,,,,,,,,,,,silence,,,,,160658,160639,146898.72,146900,146915.38,160659.46,,,
Question 1,html.Screen,2_1_1_2,2022-02-02T14:42:27.214Z,,,,,,,,,,,,,,,,,,,,,,,,,,,,true,TRUE,,2947.540000000008,,response,,,,100,C,,,,,,TRUE,click #choice-1,,,,silence,,,,,163618,163607,160658.84,160659,160659.46,163628.48,,,
Question 2,html.Screen,2_1_1_3,2022-02-02T14:42:31.139Z,,,,,,,,,,,,,,,,,,,,,,,,,,,,true,FALSE,,3901.5199999999895,,response,,,,100,C,,,,,,FALSE,click #choice-2,,,,silence,,,,,167543,167530,163616.96,163618,163628.48,167543.04,,,
Item 100,flow.Sequence,2_1_1,2022-02-02T14:42:31.141Z,,,,,,,,,,,,,,,,,,,,,,,,,,,,,,,30618.059999999998,,completion,,,,,,,,,,,,,,,,,,,,,167544,167530,136904.94,136907,136911.94,167543.04,,,
End of Practice,html.Page,2_1_2,2022-02-02T14:42:36.070Z,,,,,,,,,,,,,,,,,,,,,,,,,,,,,,,4929.959999999992,,form submission,,,,,,,,,,,,,,,,,,,,,172473,172473,167541.48,167545,167543.04,172478.18,,,
Practice,flow.Sequence,2_1,2022-02-02T14:42:36.070Z,,,,,,,,,,,,,,,,,,,,,,,,,,,,,,,70106.86,,completion,,,,,,,,,,,,,,,,,,,,,172473,172473,102320.18,102326,102366.14,172478.18,,,
Trap_instruction,html.Page,2_2_0,2022-02-02T14:42:39.737Z,,,,,,,,,,,,,,,,,,,,,,,,,,,,,,,3660.820000000007,,form submission,,,,,,,,,,,,,,,,,,,,,176140,176139,172467.68,172474,172478.18,176275.18,,,
trap_trial,html.Screen,2_2_1,2022-02-02T14:42:42.478Z,,,,,,,,,,,,,,,,,,,,,,,,,,,,true,1,,2598.820000000007,,response,,,,,,,,,,,1,click #choice-1,,,,,,,,,178881,178874,176136.18,176140,176275.18,178885.42,,,
end of trap trial,html.Page,2_2_2,2022-02-02T14:42:44.405Z,,,,,,,,,,,,,,,,,,,,,,,,,,,,,,,1921.5799999999872,,form submission,,,,,,,,,,,,,,,,,,,,,180808,180807,178879.9,178881,178885.42,180807.98,,,
Trap 1,flow.Sequence,2_2,2022-02-02T14:42:44.405Z,,,,,,,,,,,,,,,,,,,,,,,,,,,,,,,8328.820000000007,,completion,,,,,,,,,,,,,,,,,,,,,180808,180807,172467.68,172473,172478.18,180807.98,,,
Standby,html.Page,2_3_0,2022-02-02T14:42:52.387Z,,,,,,,,,,,,,,,,,,,,,,,,,,,,,,,7997.279999999999,,timeout,,,,,,,,,,,,,,,,,,,,,188790,188788.6,180804.14,180808,180807.98,188805.26,,,
Holding screen,html.Screen,2_3_1_0_0,2022-02-02T14:42:59.380Z,,,,,,,,,,,,,,,,,,,,,,,,,,,,,,,6992.819999999978,,timeout,,,,,,,,,,,,,,,,,,,,,195783,195781.42,188788.6,188791,188805.26,195798.08,,,
screen,html.Screen,2_3_1_0_1_0,2022-02-02T14:43:00.009Z,,,,,,,,,,,,,,,,,2,,,,,,,,,,,,,,606.9200000000128,,response,,,,1,C,,,,,,Space,keypress(Space),,,,instrumental,,,,Two ---- ------ --- ------- ---------- ------- ----------<br>--- --------- --- ----------- ------- ----- ------- ---<br>--------- ---- -- --- ---- -- --------- -- ---- -------<br>-- --------- ------ --- ----- ------ ---- --- --------- --<br>------ - ---- -- --- ----------- ------- ---- ----- -----<br>--- -------- - ------ ---- -- ----- ---- --- --- -----------<br>-- -------,196413,196405,195781.42,195783,195798.08,196417.64,,0,Two
screen,html.Screen,2_3_1_0_1_1,2022-02-02T14:43:00.238Z,,,,,,,,,,,,,,,,,2,,,,,,,,,,,,,,206.35999999998603,,response,,,,1,C,,,,,,Space,keypress(Space),,,,instrumental,,,,--- days ------ --- ------- ---------- ------- ----------<br>--- --------- --- ----------- ------- ----- ------- ---<br>--------- ---- -- --- ---- -- --------- -- ---- -------<br>-- --------- ------ --- ----- ------ ---- --- --------- --<br>------ - ---- -- --- ----------- ------- ---- ----- -----<br>--- -------- - ------ ---- -- ----- ---- --- --- -----------<br>-- -------,196641,196624,196413.42,196413,196417.64,196642.2,,1,days
screen,html.Screen,2_3_1_0_1_2,2022-02-02T14:43:00.448Z,,,,,,,,,,,,,,,,,2,,,,,,,,,,,,,,200.79999999998836,,response,,,,1,C,,,,,,Space,keypress(Space),,,,instrumental,,,,"--- ---- later, --- ------- ---------- ------- ----------<br>--- --------- --- ----------- ------- ----- ------- ---<br>--------- ---- -- --- ---- -- --------- -- ---- -------<br>-- --------- ------ --- ----- ------ ---- --- --------- --<br>------ - ---- -- --- ----------- ------- ---- ----- -----<br>--- -------- - ------ ---- -- ----- ---- --- --- -----------<br>-- -------",196852,196843,196641.76,196641,196642.2,196868.48,,2,"later,"
screen,html.Screen,2_3_1_0_1_3,2022-02-02T14:43:00.641Z,,,,,,,,,,,,,,,,,2,,,,,,,,,,,,,,161.51999999998952,,response,,,,1,C,,,,,,Space,keypress(Space),,,,instrumental,,,,--- ---- ------ the ------- ---------- ------- ----------<br>--- --------- --- ----------- ------- ----- ------- ---<br>--------- ---- -- --- ---- -- --------- -- ---- -------<br>-- --------- ------ --- ----- ------ ---- --- --------- --<br>------ - ---- -- --- ----------- ------- ---- ----- -----<br>--- -------- - ------ ---- -- ----- ---- --- --- -----------<br>-- -------,197045,197030,196852.14,196852,196868.48,197051.78,,3,the
screen,html.Screen,2_3_1_0_1_4,2022-02-02T14:43:00.835Z,,,,,,,,,,,,,,,,,2,,,,,,,,,,,,,,180.22000000000116,,response,,,,1,C,,,,,,Space,keypress(Space),,,,instrumental,,,,--- ---- ------ --- British ---------- ------- ----------<br>--- --------- --- ----------- ------- ----- ------- ---<br>--------- ---- -- --- ---- -- --------- -- ---- -------<br>-- --------- ------ --- ----- ------ ---- --- --------- --<br>------ - ---- -- --- ----------- ------- ---- ----- -----<br>--- -------- - ------ ---- -- ----- ---- --- --- -----------<br>-- -------,197239,197232,197045.06,197045,197051.78,197253.8,,4,British
screen,html.Screen,2_3_1_0_1_5,2022-02-02T14:43:01.024Z,,,,,,,,,,,,,,,,,2,,,,,,,,,,,,,,166.20000000001164,,response,,,,1,C,,,,,,Space,keypress(Space),,,,instrumental,,,,--- ---- ------ --- ------- astronomer ------- ----------<br>--- --------- --- ----------- ------- ----- ------- ---<br>--------- ---- -- --- ---- -- --------- -- ---- -------<br>-- --------- ------ --- ----- ------ ---- --- --------- --<br>------ - ---- -- --- ----------- ------- ---- ----- -----<br>--- -------- - ------ ---- -- ----- ---- --- --- -----------<br>-- -------,197426,197420,197239.32,197239,197253.8,197437.4,,5,astronomer
screen,html.Screen,2_3_1_0_1_6,2022-02-02T14:43:01.255Z,,,,,,,,,,,,,,,,,2,,,,,,,,,,,,,,200.60000000000582,,response,,,,1,C,,,,,,Space,keypress(Space),,,,instrumental,,,,--- ---- ------ --- ------- ---------- Richard ----------<br>--- --------- --- ----------- ------- ----- ------- ---<br>--------- ---- -- --- ---- -- --------- -- ---- -------<br>-- --------- ------ --- ----- ------ ---- --- --------- --<br>------ - ---- -- --- ----------- ------- ---- ----- -----<br>--- -------- - ------ ---- -- ----- ---- --- --- -----------<br>-- -------,197658,197638,197426.98,197426,197437.4,197659.38,,6,Richard
screen,html.Screen,2_3_1_0_1_7,2022-02-02T14:43:01.628Z,,,,,,,,,,,,,,,,,2,,,,,,,,,,,,,,353.61999999999534,,response,,,,1,C,,,,,,Space,keypress(Space),,,,instrumental,,,,--- ---- ------ --- ------- ---------- ------- Carrington<br>--- --------- --- ----------- ------- ----- ------- ---<br>--------- ---- -- --- ---- -- --------- -- ---- -------<br>-- --------- ------ --- ----- ------ ---- --- --------- --<br>------ - ---- -- --- ----------- ------- ---- ----- -----<br>--- -------- - ------ ---- -- ----- ---- --- --- -----------<br>-- -------,198031,198013,197658.98,197659,197659.38,198032.16,,7,Carrington
screen,html.Screen,2_3_1_0_1_8,2022-02-02T14:43:02.047Z,,,,,,,,,,,,,,,,,2,,,,,,,,,,,,,,403.8399999999965,,response,,,,1,C,,,,,,Space,keypress(Space),,,,instrumental,,,,--- ---- ------ --- ------- ---------- ------- ----------<br>was --------- --- ----------- ------- ----- ------- ---<br>--------- ---- -- --- ---- -- --------- -- ---- -------<br>-- --------- ------ --- ----- ------ ---- --- --------- --<br>------ - ---- -- --- ----------- ------- ---- ----- -----<br>--- -------- - ------ ---- -- ----- ---- --- --- -----------<br>-- -------,198450,198436,198031.72,198031,198032.16,198451.44,,8,was
screen,html.Screen,2_3_1_0_1_9,2022-02-02T14:43:02.328Z,,,,,,,,,,,,,,,,,2,,,,,,,,,,,,,,266.5599999999977,,response,,,,1,C,,,,,,Space,keypress(Space),,,,instrumental,,,,--- ---- ------ --- ------- ---------- ------- ----------<br>--- observing --- ----------- ------- ----- ------- ---<br>--------- ---- -- --- ---- -- --------- -- ---- -------<br>-- --------- ------ --- ----- ------ ---- --- --------- --<br>------ - ---- -- --- ----------- ------- ---- ----- -----<br>--- -------- - ------ ---- -- ----- ---- --- --- -----------<br>-- -------,198731,198718,198451,198451,198451.44,198731.98,,9,observing
screen,html.Screen,2_3_1_0_1_10,2022-02-02T14:43:02.601Z,,,,,,,,,,,,,,,,,2,,,,,,,,,,,,,,266.0199999999895,,response,,,,1,C,,,,,,Space,keypress(Space),,,,instrumental,,,,--- ---- ------ --- ------- ---------- ------- ----------<br>--- --------- the ----------- ------- ----- ------- ---<br>--------- ---- -- --- ---- -- --------- -- ---- -------<br>-- --------- ------ --- ----- ------ ---- --- --------- --<br>------ - ---- -- --- ----------- ------- ---- ----- -----<br>--- -------- - ------ ---- -- ----- ---- --- --- -----------<br>-- -------,199004,198998,198731.54,198732,198731.98,199004.86,,10,the
screen,html.Screen,2_3_1_0_1_11,2022-02-02T14:43:02.863Z,,,,,,,,,,,,,,,,,2,,,,,,,,,,,,,,243.14000000001397,,response,,,,1,C,,,,,,Space,keypress(Space),,,,instrumental,,,,--- ---- ------ --- ------- ---------- ------- ----------<br>--- --------- --- interesting ------- ----- ------- ---<br>--------- ---- -- --- ---- -- --------- -- ---- -------<br>-- --------- ------ --- ----- ------ ---- --- --------- --<br>------ - ---- -- --- ----------- ------- ---- ----- -----<br>--- -------- - ------ ---- -- ----- ---- --- --- -----------<br>-- -------,199266,199248,199004.44,199004,199004.86,199278.26,,11,interesting
screen,html.Screen,2_3_1_0_1_12,2022-02-02T14:43:03.056Z,,,,,,,,,,,,,,,,,2,,,,,,,,,,,,,,173.7399999999907,,response,,,,1,C,,,,,,Space,keypress(Space),,,,instrumental,,,,--- ---- ------ --- ------- ---------- ------- ----------<br>--- --------- --- ----------- sunspot ----- ------- ---<br>--------- ---- -- --- ---- -- --------- -- ---- -------<br>-- --------- ------ --- ----- ------ ---- --- --------- --<br>------ - ---- -- --- ----------- ------- ---- ----- -----<br>--- -------- - ------ ---- -- ----- ---- --- --- -----------<br>-- -------,199459,199452,199267.4,199267,199278.26,199461.58,,12,sunspot
screen,html.Screen,2_3_1_0_1_13,2022-02-02T14:43:03.292Z,,,,,,,,,,,,,,,,,2,,,,,,,,,,,,,,223.4200000000128,,response,,,,1,C,,,,,,Space,keypress(Space),,,,instrumental,,,,--- ---- ------ --- ------- ---------- ------- ----------<br>--- --------- --- ----------- ------- group ------- ---<br>--------- ---- -- --- ---- -- --------- -- ---- -------<br>-- --------- ------ --- ----- ------ ---- --- --------- --<br>------ - ---- -- --- ----------- ------- ---- ----- -----<br>--- -------- - ------ ---- -- ----- ---- --- --- -----------<br>-- -------,199696,199685,199459.98,199460,199461.58,199696.54,,13,group
screen,html.Screen,2_3_1_0_1_14,2022-02-02T14:43:03.766Z,,,,,,,,,,,,,,,,,2,,,,,,,,,,,,,,458.45999999999185,,response,,,,1,C,,,,,,Space,keypress(Space),,,,instrumental,,,,--- ---- ------ --- ------- ---------- ------- ----------<br>--- --------- --- ----------- ------- ----- through ---<br>--------- ---- -- --- ---- -- --------- -- ---- -------<br>-- --------- ------ --- ----- ------ ---- --- --------- --<br>------ - ---- -- --- ----------- ------- ---- ----- -----<br>--- -------- - ------ ---- -- ----- ---- --- --- -----------<br>-- -------,200169,200155,199696.1,199696,199696.54,200169.98,,14,through
screen,html.Screen,2_3_1_0_1_15,2022-02-02T14:43:04.030Z,,,,,,,,,,,,,,,,,2,,,,,,,,,,,,,,251.01999999998952,,response,,,,1,C,,,,,,Space,keypress(Space),,,,instrumental,,,,--- ---- ------ --- ------- ---------- ------- ----------<br>--- --------- --- ----------- ------- ----- ------- his<br>--------- ---- -- --- ---- -- --------- -- ---- -------<br>-- --------- ------ --- ----- ------ ---- --- --------- --<br>------ - ---- -- --- ----------- ------- ---- ----- -----<br>--- -------- - ------ ---- -- ----- ---- --- --- -----------<br>-- -------,200433,200421,200169.56,200170,200169.98,200434,,15,his
screen,html.Screen,2_3_1_0_1_16,2022-02-02T14:43:04.270Z,,,,,,,,,,,,,,,,,2,,,,,,,,,,,,,,220,,response,,,,1,C,,,,,,Space,keypress(Space),,,,instrumental,,,,--- ---- ------ --- ------- ---------- ------- ----------<br>--- --------- --- ----------- ------- ----- ------- ---<br>telescope ---- -- --- ---- -- --------- -- ---- -------<br>-- --------- ------ --- ----- ------ ---- --- --------- --<br>------ - ---- -- --- ----------- ------- ---- ----- -----<br>--- -------- - ------ ---- -- ----- ---- --- --- -----------<br>-- -------,200673,200654,200433.44,200434,200434,200674.14,,16,telescope
screen,html.Screen,2_3_1_0_1_17,2022-02-02T14:43:04.507Z,,,,,,,,,,,,,,,,,2,,,,,,,,,,,,,,230.85999999998603,,response,,,,1,C,,,,,,Space,keypress(Space),,,,instrumental,,,,--- ---- ------ --- ------- ---------- ------- ----------<br>--- --------- --- ----------- ------- ----- ------- ---<br>--------- when -- --- ---- -- --------- -- ---- -------<br>-- --------- ------ --- ----- ------ ---- --- --------- --<br>------ - ---- -- --- ----------- ------- ---- ----- -----<br>--- -------- - ------ ---- -- ----- ---- --- --- -----------<br>-- -------,200910,200905,200673.6,200674,200674.14,200910.92,,17,when
screen,html.Screen,2_3_1_0_1_18,2022-02-02T14:43:04.807Z,,,,,,,,,,,,,,,,,2,,,,,,,,,,,,,,291.0799999999872,,response,,,,1,C,,,,,,Space,keypress(Space),,,,instrumental,,,,--- ---- ------ --- ------- ---------- ------- ----------<br>--- --------- --- ----------- ------- ----- ------- ---<br>--------- ---- he --- ---- -- --------- -- ---- -------<br>-- --------- ------ --- ----- ------ ---- --- --------- --<br>------ - ---- -- --- ----------- ------- ---- ----- -----<br>--- -------- - ------ ---- -- ----- ---- --- --- -----------<br>-- -------,201210,201202,200910.46,200911,200910.92,201211.04,,18,he
screen,html.Screen,2_3_1_0_1_19,2022-02-02T14:43:05.005Z,,,,,,,,,,,,,,,,,2,,,,,,,,,,,,,,177.95999999999185,,response,,,,1,C,,,,,,Space,keypress(Space),,,,instrumental,,,,--- ---- ------ --- ------- ---------- ------- ----------<br>--- --------- --- ----------- ------- ----- ------- ---<br>--------- ---- -- saw ---- -- --------- -- ---- -------<br>-- --------- ------ --- ----- ------ ---- --- --------- --<br>------ - ---- -- --- ----------- ------- ---- ----- -----<br>--- -------- - ------ ---- -- ----- ---- --- --- -----------<br>-- -------,201407,201389,201210.54,201210,201211.04,201418.82,,19,saw
screen,html.Screen,2_3_1_0_1_20,2022-02-02T14:43:05.208Z,,,,,,,,,,,,,,,,,2,,,,,,,,,,,,,,174.17999999999302,,response,,,,1,C,,,,,,Space,keypress(Space),,,,instrumental,,,,--- ---- ------ --- ------- ---------- ------- ----------<br>--- --------- --- ----------- ------- ----- ------- ---<br>--------- ---- -- --- what -- --------- -- ---- -------<br>-- --------- ------ --- ----- ------ ---- --- --------- --<br>------ - ---- -- --- ----------- ------- ---- ----- -----<br>--- -------- - ------ ---- -- ----- ---- --- --- -----------<br>-- -------,201611,201593,201407.88,201408,201418.82,201618.78,,20,what
screen,html.Screen,2_3_1_0_1_21,2022-02-02T14:43:05.411Z,,,,,,,,,,,,,,,,,2,,,,,,,,,,,,,,177.22000000000116,,response,,,,1,C,,,,,,Space,keypress(Space),,,,instrumental,,,,--- ---- ------ --- ------- ---------- ------- ----------<br>--- --------- --- ----------- ------- ----- ------- ---<br>--------- ---- -- --- ---- he --------- -- ---- -------<br>-- --------- ------ --- ----- ------ ---- --- --------- --<br>------ - ---- -- --- ----------- ------- ---- ----- -----<br>--- -------- - ------ ---- -- ----- ---- --- --- -----------<br>-- -------,201814,201796,201611.26,201611,201618.78,201820.8,,21,he
screen,html.Screen,2_3_1_0_1_22,2022-02-02T14:43:05.621Z,,,,,,,,,,,,,,,,,2,,,,,,,,,,,,,,192.20000000001164,,response,,,,1,C,,,,,,Space,keypress(Space),,,,instrumental,,,,--- ---- ------ --- ------- ---------- ------- ----------<br>--- --------- --- ----------- ------- ----- ------- ---<br>--------- ---- -- --- ---- -- described -- ---- -------<br>-- --------- ------ --- ----- ------ ---- --- --------- --<br>------ - ---- -- --- ----------- ------- ---- ----- -----<br>--- -------- - ------ ---- -- ----- ---- --- --- -----------<br>-- -------,202024,202013,201814.84,201814,201820.8,202038.62,,22,described
screen,html.Screen,2_3_1_0_1_23,2022-02-02T14:43:05.860Z,,,,,,,,,,,,,,,,,2,,,,,,,,,,,,,,210.38000000000466,,response,,,,1,C,,,,,,Space,keypress(Space),,,,instrumental,,,,--- ---- ------ --- ------- ---------- ------- ----------<br>--- --------- --- ----------- ------- ----- ------- ---<br>--------- ---- -- --- ---- -- --------- as ---- -------<br>-- --------- ------ --- ----- ------ ---- --- --------- --<br>------ - ---- -- --- ----------- ------- ---- ----- -----<br>--- -------- - ------ ---- -- ----- ---- --- --- -----------<br>-- -------,202263,202249,202025.58,202025,202038.62,202263.52,,23,as
screen,html.Screen,2_3_1_0_1_24,2022-02-02T14:43:06.086Z,,,,,,,,,,,,,,,,,2,,,,,,,,,,,,,,219.48000000001048,,response,,,,1,C,,,,,,Space,keypress(Space),,,,instrumental,,,,"--- ---- ------ --- ------- ---------- ------- ----------<br>--- --------- --- ----------- ------- ----- ------- ---<br>--------- ---- -- --- ---- -- --------- -- ""two -------<br>-- --------- ------ --- ----- ------ ---- --- --------- --<br>------ - ---- -- --- ----------- ------- ---- ----- -----<br>--- -------- - ------ ---- -- ----- ---- --- --- -----------<br>-- -------",202490,202483,202263.1,202263,202263.52,202490.58,,24,"""two"
screen,html.Screen,2_3_1_0_1_25,2022-02-02T14:43:06.282Z,,,,,,,,,,,,,,,,,2,,,,,,,,,,,,,,179.4200000000128,,response,,,,1,C,,,,,,Space,keypress(Space),,,,instrumental,,,,--- ---- ------ --- ------- ---------- ------- ----------<br>--- --------- --- ----------- ------- ----- ------- ---<br>--------- ---- -- --- ---- -- --------- -- ---- patches<br>-- --------- ------ --- ----- ------ ---- --- --------- --<br>------ - ---- -- --- ----------- ------- ---- ----- -----<br>--- -------- - ------ ---- -- ----- ---- --- --- -----------<br>-- -------,202686,202670,202490.12,202490,202490.58,202690.34,,25,patches
screen,html.Screen,2_3_1_0_1_26,2022-02-02T14:43:06.553Z,,,,,,,,,,,,,,,,,2,,,,,,,,,,,,,,261.6600000000035,,response,,,,1,C,,,,,,Space,keypress(Space),,,,instrumental,,,,--- ---- ------ --- ------- ---------- ------- ----------<br>--- --------- --- ----------- ------- ----- ------- ---<br>--------- ---- -- --- ---- -- --------- -- ---- -------<br>of --------- ------ --- ----- ------ ---- --- --------- --<br>------ - ---- -- --- ----------- ------- ---- ----- -----<br>--- -------- - ------ ---- -- ----- ---- --- --- -----------<br>-- -------,202956,202952,202686.12,202686,202690.34,202958.68,,26,of
screen,html.Screen,2_3_1_0_1_27,2022-02-02T14:43:06.792Z,,,,,,,,,,,,,,,,,2,,,,,,,,,,,,,,227.32000000000698,,response,,,,1,C,,,,,,Space,keypress(Space),,,,instrumental,,,,--- ---- ------ --- ------- ---------- ------- ----------<br>--- --------- --- ----------- ------- ----- ------- ---<br>--------- ---- -- --- ---- -- --------- -- ---- -------<br>-- intensely ------ --- ----- ------ ---- --- --------- --<br>------ - ---- -- --- ----------- ------- ---- ----- -----<br>--- -------- - ------ ---- -- ----- ---- --- --- -----------<br>-- -------,203194,203186,202956.76,202957,202958.68,203195.42,,27,intensely
screen,html.Screen,2_3_1_0_1_28,2022-02-02T14:43:07.002Z,,,,,,,,,,,,,,,,,2,,,,,,,,,,,,,,192.5799999999872,,response,,,,1,C,,,,,,Space,keypress(Space),,,,instrumental,,,,--- ---- ------ --- ------- ---------- ------- ----------<br>--- --------- --- ----------- ------- ----- ------- ---<br>--------- ---- -- --- ---- -- --------- -- ---- -------<br>-- --------- bright --- ----- ------ ---- --- --------- --<br>------ - ---- -- --- ----------- ------- ---- ----- -----<br>--- -------- - ------ ---- -- ----- ---- --- --- -----------<br>-- -------,203405,203388,203194.98,203195,203195.42,203409.64,,28,bright
screen,html.Screen,2_3_1_0_1_29,2022-02-02T14:43:07.225Z,,,,,,,,,,,,,,,,,2,,,,,,,,,,,,,,214.35999999998603,,response,,,,1,C,,,,,,Space,keypress(Space),,,,instrumental,,,,--- ---- ------ --- ------- ---------- ------- ----------<br>--- --------- --- ----------- ------- ----- ------- ---<br>--------- ---- -- --- ---- -- --------- -- ---- -------<br>-- --------- ------ and ----- ------ ---- --- --------- --<br>------ - ---- -- --- ----------- ------- ---- ----- -----<br>--- -------- - ------ ---- -- ----- ---- --- --- -----------<br>-- -------,203628,203624,203405.74,203405,203409.64,203628.66,,29,and
screen,html.Screen,2_3_1_0_1_30,2022-02-02T14:43:07.460Z,,,,,,,,,,,,,,,,,2,,,,,,,,,,,,,,229.3399999999965,,response,,,,1,C,,,,,,Space,keypress(Space),,,,instrumental,,,,--- ---- ------ --- ------- ---------- ------- ----------<br>--- --------- --- ----------- ------- ----- ------- ---<br>--------- ---- -- --- ---- -- --------- -- ---- -------<br>-- --------- ------ --- white ------ ---- --- --------- --<br>------ - ---- -- --- ----------- ------- ---- ----- -----<br>--- -------- - ------ ---- -- ----- ---- --- --- -----------<br>-- -------,203863,203858,203628.24,203628,203628.66,203864.96,,30,white
screen,html.Screen,2_3_1_0_1_31,2022-02-02T14:43:07.703Z,,,,,,,,,,,,,,,,,2,,,,,,,,,,,,,,228.04000000000815,,response,,,,1,C,,,,,,Space,keypress(Space),,,,instrumental,,,,"--- ---- ------ --- ------- ---------- ------- ----------<br>--- --------- --- ----------- ------- ----- ------- ---<br>--------- ---- -- --- ---- -- --------- -- ---- -------<br>-- --------- ------ --- ----- light"" ---- --- --------- --<br>------ - ---- -- --- ----------- ------- ---- ----- -----<br>--- -------- - ------ ---- -- ----- ---- --- --- -----------<br>-- -------",204106,204093,203864.52,203864,203864.96,204107.08,,31,"light"""
screen,html.Screen,2_3_1_0_1_32,2022-02-02T14:43:07.882Z,,,,,,,,,,,,,,,,,2,,,,,,,,,,,,,,172.9200000000128,,response,,,,1,C,,,,,,Space,keypress(Space),,,,instrumental,,,,--- ---- ------ --- ------- ---------- ------- ----------<br>--- --------- --- ----------- ------- ----- ------- ---<br>--------- ---- -- --- ---- -- --------- -- ---- -------<br>-- --------- ------ --- ----- ------ over --- --------- --<br>------ - ---- -- --- ----------- ------- ---- ----- -----<br>--- -------- - ------ ---- -- ----- ---- --- --- -----------<br>-- -------,204285,204280,204106.66,204107,204107.08,204296.28,,32,over
screen,html.Screen,2_3_1_0_1_33,2022-02-02T14:43:08.135Z,,,,,,,,,,,,,,,,,2,,,,,,,,,,,,,,233.72000000000116,,response,,,,1,C,,,,,,Space,keypress(Space),,,,instrumental,,,,--- ---- ------ --- ------- ---------- ------- ----------<br>--- --------- --- ----------- ------- ----- ------- ---<br>--------- ---- -- --- ---- -- --------- -- ---- -------<br>-- --------- ------ --- ----- ------ ---- the --------- --<br>------ - ---- -- --- ----------- ------- ---- ----- -----<br>--- -------- - ------ ---- -- ----- ---- --- --- -----------<br>-- -------,204538,204530,204285.32,204285,204296.28,204538.96,,33,the
screen,html.Screen,2_3_1_0_1_34,2022-02-02T14:43:08.368Z,,,,,,,,,,,,,,,,,2,,,,,,,,,,,,,,224.04000000000815,,response,,,,1,C,,,,,,Space,keypress(Space),,,,instrumental,,,,--- ---- ------ --- ------- ---------- ------- ----------<br>--- --------- --- ----------- ------- ----- ------- ---<br>--------- ---- -- --- ---- -- --------- -- ---- -------<br>-- --------- ------ --- ----- ------ ---- --- sunspots. --<br>------ - ---- -- --- ----------- ------- ---- ----- -----<br>--- -------- - ------ ---- -- ----- ---- --- --- -----------<br>-- -------,204771,204763,204538.54,204538,204538.96,204772.2,,34,sunspots.
screen,html.Screen,2_3_1_0_1_35,2022-02-02T14:43:08.644Z,,,,,,,,,,,,,,,,,2,,,,,,,,,,,,,,257.79999999998836,,response,,,,1,C,,,,,,Space,keypress(Space),,,,instrumental,,,,--- ---- ------ --- ------- ---------- ------- ----------<br>--- --------- --- ----------- ------- ----- ------- ---<br>--------- ---- -- --- ---- -- --------- -- ---- -------<br>-- --------- ------ --- ----- ------ ---- --- --------- He<br>------ - ---- -- --- ----------- ------- ---- ----- -----<br>--- -------- - ------ ---- -- ----- ---- --- --- -----------<br>-- -------,205048,205030,204771.8,204772,204772.2,205049.82,,35,He
screen,html.Screen,2_3_1_0_1_36,2022-02-02T14:43:08.859Z,,,,,,,,,,,,,,,,,2,,,,,,,,,,,,,,199.17999999999302,,response,,,,1,C,,,,,,Space,keypress(Space),,,,instrumental,,,,--- ---- ------ --- ------- ---------- ------- ----------<br>--- --------- --- ----------- ------- ----- ------- ---<br>--------- ---- -- --- ---- -- --------- -- ---- -------<br>-- --------- ------ --- ----- ------ ---- --- --------- --<br>jotted - ---- -- --- ----------- ------- ---- ----- -----<br>--- -------- - ------ ---- -- ----- ---- --- --- -----------<br>-- -------,205262,205249,205048.06,205048,205049.82,205266.46,,36,jotted
screen,html.Screen,2_3_1_0_1_37,2022-02-02T14:43:09.078Z,,,,,,,,,,,,,,,,,2,,,,,,,,,,,,,,200.54000000000815,,response,,,,1,C,,,,,,Space,keypress(Space),,,,instrumental,,,,--- ---- ------ --- ------- ---------- ------- ----------<br>--- --------- --- ----------- ------- ----- ------- ---<br>--------- ---- -- --- ---- -- --------- -- ---- -------<br>-- --------- ------ --- ----- ------ ---- --- --------- --<br>------ a ---- -- --- ----------- ------- ---- ----- -----<br>--- -------- - ------ ---- -- ----- ---- --- --- -----------<br>-- -------,205481,205467,205262.42,205263,205266.46,205484.78,,37,a
screen,html.Screen,2_3_1_0_1_38,2022-02-02T14:43:09.277Z,,,,,,,,,,,,,,,,,2,,,,,,,,,,,,,,186.22000000000116,,response,,,,1,C,,,,,,Space,keypress(Space),,,,instrumental,,,,--- ---- ------ --- ------- ---------- ------- ----------<br>--- --------- --- ----------- ------- ----- ------- ---<br>--------- ---- -- --- ---- -- --------- -- ---- -------<br>-- --------- ------ --- ----- ------ ---- --- --------- --<br>------ - note -- --- ----------- ------- ---- ----- -----<br>--- -------- - ------ ---- -- ----- ---- --- --- -----------<br>-- -------,205681,205671,205481.72,205482,205484.78,205684.76,,38,note
screen,html.Screen,2_3_1_0_1_39,2022-02-02T14:43:09.460Z,,,,,,,,,,,,,,,,,2,,,,,,,,,,,,,,172.2399999999907,,response,,,,1,C,,,,,,Space,keypress(Space),,,,instrumental,,,,--- ---- ------ --- ------- ---------- ------- ----------<br>--- --------- --- ----------- ------- ----- ------- ---<br>--------- ---- -- --- ---- -- --------- -- ---- -------<br>-- --------- ------ --- ----- ------ ---- --- --------- --<br>------ - ---- in --- ----------- ------- ---- ----- -----<br>--- -------- - ------ ---- -- ----- ---- --- --- -----------<br>-- -------,205864,205857,205681.06,205681,205684.76,205864.52,,39,in
screen,html.Screen,2_3_1_0_1_40,2022-02-02T14:43:09.670Z,,,,,,,,,,,,,,,,,2,,,,,,,,,,,,,,195.48000000001048,,response,,,,1,C,,,,,,Space,keypress(Space),,,,instrumental,,,,--- ---- ------ --- ------- ---------- ------- ----------<br>--- --------- --- ----------- ------- ----- ------- ---<br>--------- ---- -- --- ---- -- --------- -- ---- -------<br>-- --------- ------ --- ----- ------ ---- --- --------- --<br>------ - ---- -- his ----------- ------- ---- ----- -----<br>--- -------- - ------ ---- -- ----- ---- --- --- -----------<br>-- -------,206073,206060,205864.08,205864,205864.52,206086.18,,40,his
screen,html.Screen,2_3_1_0_1_41,2022-02-02T14:43:09.893Z,,,,,,,,,,,,,,,,,2,,,,,,,,,,,,,,193.82000000000698,,response,,,,1,C,,,,,,Space,keypress(Space),,,,instrumental,,,,--- ---- ------ --- ------- ---------- ------- ----------<br>--- --------- --- ----------- ------- ----- ------- ---<br>--------- ---- -- --- ---- -- --------- -- ---- -------<br>-- --------- ------ --- ----- ------ ---- --- --------- --<br>------ - ---- -- --- painstaking ------- ---- ----- -----<br>--- -------- - ------ ---- -- ----- ---- --- --- -----------<br>-- -------,206296,206280,206073.5,206074,206086.18,206304.5,,41,painstaking
screen,html.Screen,2_3_1_0_1_42,2022-02-02T14:43:10.126Z,,,,,,,,,,,,,,,,,2,,,,,,,,,,,,,,208.5,,response,,,,1,C,,,,,,Space,keypress(Space),,,,instrumental,,,,--- ---- ------ --- ------- ---------- ------- ----------<br>--- --------- --- ----------- ------- ----- ------- ---<br>--------- ---- -- --- ---- -- --------- -- ---- -------<br>-- --------- ------ --- ----- ------ ---- --- --------- --<br>------ - ---- -- --- ----------- record. ---- ----- -----<br>--- -------- - ------ ---- -- ----- ---- --- --- -----------<br>-- -------,206530,206513,206297.18,206297,206304.5,206530.86,,42,record.
screen,html.Screen,2_3_1_0_1_43,2022-02-02T14:43:10.369Z,,,,,,,,,,,,,,,,,2,,,,,,,,,,,,,,233.14000000001397,,response,,,,1,C,,,,,,Space,keypress(Space),,,,instrumental,,,,--- ---- ------ --- ------- ---------- ------- ----------<br>--- --------- --- ----------- ------- ----- ------- ---<br>--------- ---- -- --- ---- -- --------- -- ---- -------<br>-- --------- ------ --- ----- ------ ---- --- --------- --<br>------ - ---- -- --- ----------- ------- That ----- -----<br>--- -------- - ------ ---- -- ----- ---- --- --- -----------<br>-- -------,206773,206764,206530.46,206530,206530.86,206773.1,,43,That
screen,html.Screen,2_3_1_0_1_44,2022-02-02T14:43:10.588Z,,,,,,,,,,,,,,,,,2,,,,,,,,,,,,,,209.89999999999418,,response,,,,1,C,,,,,,Space,keypress(Space),,,,instrumental,,,,--- ---- ------ --- ------- ---------- ------- ----------<br>--- --------- --- ----------- ------- ----- ------- ---<br>--------- ---- -- --- ---- -- --------- -- ---- -------<br>-- --------- ------ --- ----- ------ ---- --- --------- --<br>------ - ---- -- --- ----------- ------- ---- night -----<br>--- -------- - ------ ---- -- ----- ---- --- --- -----------<br>-- -------,206992,206983,206772.62,206773,206773.1,206992.8,,44,night
screen,html.Screen,2_3_1_0_1_45,2022-02-02T14:43:10.810Z,,,,,,,,,,,,,,,,,2,,,,,,,,,,,,,,209.20000000001164,,response,,,,1,C,,,,,,Space,keypress(Space),,,,instrumental,,,,--- ---- ------ --- ------- ---------- ------- ----------<br>--- --------- --- ----------- ------- ----- ------- ---<br>--------- ---- -- --- ---- -- --------- -- ---- -------<br>-- --------- ------ --- ----- ------ ---- --- --------- --<br>------ - ---- -- --- ----------- ------- ---- ----- there<br>--- -------- - ------ ---- -- ----- ---- --- --- -----------<br>-- -------,207214,207202,206992.28,206992,206992.8,207214.2,,45,there
screen,html.Screen,2_3_1_0_1_46,2022-02-02T14:43:11.019Z,,,,,,,,,,,,,,,,,2,,,,,,,,,,,,,,190.79999999998836,,response,,,,1,C,,,,,,Space,keypress(Space),,,,instrumental,,,,--- ---- ------ --- ------- ---------- ------- ----------<br>--- --------- --- ----------- ------- ----- ------- ---<br>--------- ---- -- --- ---- -- --------- -- ---- -------<br>-- --------- ------ --- ----- ------ ---- --- --------- --<br>------ - ---- -- --- ----------- ------- ---- ----- -----<br>was -------- - ------ ---- -- ----- ---- --- --- -----------<br>-- -------,207421,207405,207213.78,207214,207214.2,207424.68,,46,was
screen,html.Screen,2_3_1_0_1_47,2022-02-02T14:43:11.242Z,,,,,,,,,,,,,,,,,2,,,,,,,,,,,,,,214.32000000000698,,response,,,,1,C,,,,,,Space,keypress(Space),,,,instrumental,,,,--- ---- ------ --- ------- ---------- ------- ----------<br>--- --------- --- ----------- ------- ----- ------- ---<br>--------- ---- -- --- ---- -- --------- -- ---- -------<br>-- --------- ------ --- ----- ------ ---- --- --------- --<br>------ - ---- -- --- ----------- ------- ---- ----- -----<br>--- scarcely - ------ ---- -- ----- ---- --- --- -----------<br>-- -------,207645,207639,207422.52,207423,207424.68,207645.88,,47,scarcely
screen,html.Screen,2_3_1_0_1_48,2022-02-02T14:43:11.448Z,,,,,,,,,,,,,,,,,2,,,,,,,,,,,,,,197.11999999999534,,response,,,,1,C,,,,,,Space,keypress(Space),,,,instrumental,,,,--- ---- ------ --- ------- ---------- ------- ----------<br>--- --------- --- ----------- ------- ----- ------- ---<br>--------- ---- -- --- ---- -- --------- -- ---- -------<br>-- --------- ------ --- ----- ------ ---- --- --------- --<br>------ - ---- -- --- ----------- ------- ---- ----- -----<br>--- -------- a ------ ---- -- ----- ---- --- --- -----------<br>-- -------,207851,207843,207645.44,207645,207645.88,207859.6,,48,a
