sender,sender_type,sender_id,timestamp,meta,,Blues,Classical,Country,Dance,Electronic,Folk,Gospel,Hip-Hop,Jazz,Latin,Musical/Film,New-age,Pop,Prolific_id,Provo_ID,R&B,Rap,Reggae,Religious,Rock,Soul,Swing,Traditional,age,artist_name,correct,correctResponse,distraction,duration,education,ended_on,familiarity,gender,headphone_check_performance,item,list,music_frequency,offensiveness,pleasantness,position_correct,preference,response,response_action,snippet_file,song_name,song_rating,sound,stimulus_1,stimulus_2,stimulus_3,text,time_commit,time_end,time_render,time_run,time_show,time_switch,url,word,word_ID
Prolific ID,html.Form,0,2022-02-02T13:28:16.635Z,"{""labjs_version"":""20.2.2"",""labjs_build"":{""flavor"":""production"",""commit"":""a25486e0c714a0ae2ce03ff94b7bb6896854dcfa""},""location"":""https://run.pavlovia.org/mvasilev/prolific2_music_b/"",""userAgent"":""Mozilla/5.0 (Windows NT 10.0; Win64; x64) AppleWebKit/537.36 (KHTML, like Gecko) Chrome/97.0.4692.71 Safari/537.36"",""platform"":""Win32"",""language"":""en-US"",""locale"":""en-US"",""timeZone"":""Europe/London"",""timezoneOffset"":0,""screen_width"":1536,""screen_height"":864,""scroll_width"":1536,""scroll_height"":706,""window_innerWidth"":1536,""window_innerHeight"":754,""devicePixelRatio"":1.25}",,,,,,,,,,,,,,,60643e9b1b2e851ff9238862,,,,,,,,,,,,,,,10733.116000095368,,form submission,,,,,,,,,,,,,,,,,,,,,25814,25813.400000095367,15046.964,15049.900000095367,15080.284,25827.36,{},,
Introduction,html.Screen,1_0,2022-02-02T13:28:21.407Z,,,,,,,,,,,,,,,,,,,,,,,,,,,,,,,4757.040000095367,,response,,,,,,,,,,,continue,click button,,,,,,,,,30586.099999904633,30584.400000095367,25810.7,25814.5,25827.36,30609.164,,,
Volume calibration,html.Screen,1_1,2022-02-02T13:28:48.021Z,,,,,,,,,,,,,,,,,,,,,,,,,,,,,,,26588.236000095367,,response,,,,,,,,,,,continue,click button,,,,,,,,,57199.700000047684,57197.40000009537,30575.844,30586.200000047684,30609.164,57200.076,,,
Task instructions,html.Screen,1_2,2022-02-02T13:28:52.274Z,,,,,,,,,,,,,,,,,,,,,,,,,,,,,,,4252.223999952315,,response,,,,,,,,,,,continue,click button,,,,,,,,,61452.90000009537,61452.299999952316,57183.416,57199.799999952316,57200.076,61481.939,,,
Sounds,html.Screen,1_3_0_0,2022-02-02T13:28:56.542Z,,,,,,,,,,,,,,,,,,,,,,,,,,,,,,,4248.423999999999,,timeout,,,,,,,,,1,,,,,,,,S,I,O,,65720.40000009537,65713.703,61465.279,61453,61481.939,65730.363,,,
Judgement,html.Screen,1_3_0_1,2022-02-02T13:28:57.722Z,,,,,,,,,,,,,,,,,,,,,,,,,,,,true,1,,1169.8370000476862,,response,,,,,,,,,1,,1,click #choice-1,,,,,S,I,O,,66901.20000004768,66900.20000004768,65713.703,65720.90000009537,65730.363,66913.536,,,
Trial,flow.Sequence,1_3_0,2022-02-02T13:28:57.723Z,,,,,,,,,,,,,,,,,,,,,,,,,,,,,,,5418.261000047685,,completion,,,,,,,,,1,,,,,,,,S,I,O,,66901.70000004768,66900.20000004768,61465.279,61453,61481.939,66913.536,,,
Sounds,html.Screen,1_3_1_0,2022-02-02T13:29:01.968Z,,,,,,,,,,,,,,,,,,,,,,,,,,,,,,,4248.449000000008,,timeout,,,,,,,,,1,,,,,,,,S,O,I,,71147.20000004768,71145.325,66896.876,66901.79999995232,66913.536,71161.985,,,
Judgement,html.Screen,1_3_1_1,2022-02-02T13:29:02.797Z,,,,,,,,,,,,,,,,,,,,,,,,,,,,true,1,,811.9150000953668,,response,,,,,,,,,1,,1,click #choice-1,,,,,S,O,I,,71975.29999995232,71973.90000009537,71145.325,71147.5,71161.985,71978.431,,,
Trial,flow.Sequence,1_3_1,2022-02-02T13:29:02.797Z,,,,,,,,,,,,,,,,,,,,,,,,,,,,,,,5060.364000095375,,completion,,,,,,,,,1,,,,,,,,S,O,I,,71975.79999995232,71973.90000009537,66896.876,66901.79999995232,66913.536,71978.431,,,
Sounds,html.Screen,1_3_2_0,2022-02-02T13:29:07.035Z,,,,,,,,,,,,,,,,,,,,,,,,,,,,,,,4248.327000000005,,timeout,,,,,,,,,3,,,,,,,,I,O,S,,76213.29999995232,76210.098,71961.771,71976,71978.431,76226.758,,,
Judgement,html.Screen,1_3_2_1,2022-02-02T13:29:07.814Z,,,,,,,,,,,,,,,,,,,,,,,,,,,,true,3,,765.2419999999984,,response,,,,,,,,,3,,3,click #choice-3,,,,,I,O,S,,76992.90000009537,76992,76210.098,76213.59999990463,76226.758,77010.071,,,
Trial,flow.Sequence,1_3_2,2022-02-02T13:29:07.815Z,,,,,,,,,,,,,,,,,,,,,,,,,,,,,,,5013.569000000003,,completion,,,,,,,,,3,,,,,,,,I,O,S,,76993.20000004768,76992,71961.771,71975.90000009537,71978.431,77010.071,,,
Sounds,html.Screen,1_3_3_0,2022-02-02T13:29:12.064Z,,,,,,,,,,,,,,,,,,,,,,,,,,,,,,,4248.294999999998,,timeout,,,,,,,,,2,,,,,,,,I,S,O,,81242.79999995232,81241.706,76993.411,76993.40000009537,77010.071,81258.366,,,
Judgement,html.Screen,1_3_3_1,2022-02-02T13:29:13.347Z,,,,,,,,,,,,,,,,,,,,,,,,,,,,true,2,,1266.034000095373,,response,,,,,,,,,2,,2,click #choice-2,,,,,I,S,O,,82525.29999995232,82524.40000009537,81241.706,81242.79999995232,81258.366,82541.457,,,
Trial,flow.Sequence,1_3_3,2022-02-02T13:29:13.347Z,,,,,,,,,,,,,,,,,,,,,,,,,,,,,,,5514.329000095371,,completion,,,,,,,,,2,,,,,,,,I,S,O,,82525.40000009537,82524.40000009537,76993.411,76993.40000009537,77010.071,82541.457,,,
Sounds,html.Screen,1_3_4_0,2022-02-02T13:29:17.598Z,,,,,,,,,,,,,,,,,,,,,,,,,,,,,,,4248.319000000003,,timeout,,,,,,,,,2,,,,,,,,O,S,I,,86776.90000009537,86773.116,82524.797,82525.5,82541.457,86789.776,,,
Judgement,html.Screen,1_3_4_1,2022-02-02T13:29:18.631Z,,,,,,,,,,,,,,,,,,,,,,,,,,,,false,2,,1019.5239999523183,,response,,,,,,,,,2,,1,click #choice-1,,,,,O,S,I,,87810.20000004768,87809.29999995232,86773.116,86777.29999995232,86789.776,87823.098,,,
Trial,flow.Sequence,1_3_4,2022-02-02T13:29:18.632Z,,,,,,,,,,,,,,,,,,,,,,,,,,,,,,,5267.842999952321,,completion,,,,,,,,,2,,,,,,,,O,S,I,,87810.40000009537,87809.29999995232,82524.797,82525.5,82541.457,87823.098,,,
Sounds,html.Screen,1_3_5_0,2022-02-02T13:29:22.877Z,,,,,,,,,,,,,,,,,,,,,,,,,,,,,,,4248.391000000003,,timeout,,,,,,,,,3,,,,,,,,O,I,S,,92055.5,92054.829,87806.438,87810.40000009537,87823.098,92071.489,,,
Judgement,html.Screen,1_3_5_1,2022-02-02T13:29:23.783Z,,,,,,,,,,,,,,,,,,,,,,,,,,,,true,3,,889.3109999523149,,response,,,,,,,,,3,,3,click #choice-3,,,,,O,I,S,,92961.59999990463,92960.79999995232,92054.829,92055.59999990463,92071.489,92987.985,,,
Trial,flow.Sequence,1_3_5,2022-02-02T13:29:23.783Z,,,,,,,,,,,,,,,,,,,,,,,,,,,,,,,5137.701999952318,,completion,,,,,,,,,3,,,,,,,,O,I,S,,92961.70000004768,92960.79999995232,87806.438,87810.40000009537,87823.098,92987.985,,,
Task,flow.Loop,1_3,2022-02-02T13:29:23.786Z,,,,,,,,,,,,,,,,,,,,,,,,,,,,,,,31478.860999952318,,completion,,,0.8333333333333334,,,,,,,,,,,,,,,,,,92965,92960.79999995232,61465.279,61453,61481.939,92987.985,,,
Trap,html.Screen,1_4,2022-02-02T13:29:23.789Z,,,,,,,,,,,,,,,,,,,,,,,,,,,,,,,NaN,,skipped,,,,,,,,,,,,,,,,,,,,,92967.79999995232,92960.79999995232,,92967.70000004768,,92987.985,,,
Thanks,html.Screen,1_5,2022-02-02T13:30:05.974Z,,,,,,,,,,,,,,,,,,,,,,,,,,,,,,,42162.515,,response,,,,,,,,,,,continue,click button,,,,,,,,,135153.40000009537,135150.5,92971.325,92967.90000009537,92987.985,137789.344,,,
Headphone screening,flow.Sequence,1,2022-02-02T13:30:05.975Z,,,,,,,,,,,,,,,,,,,,,,,,,,,,,,,109323.14,,completion,,,,,,,,,,,,,,,,,,,,,135153.79999995232,135150.5,25810.7,25814.400000095367,25827.36,137789.344,,,
Instructions,html.Page,2_0,2022-02-02T13:30:32.523Z,,,,,,,,,,,,,,,,,,,,,,,,,,,,,,,23912.356000047672,,form submission,,,,,,,,,,,,,,,,,,,,,161702.20000004768,161701.70000004768,137756.024,137789.09999990463,137789.344,161714.791,,,
Holding screen,html.Screen,2_1_0_0,2022-02-02T13:30:42.516Z,,,,,,,,,,,,,,,,,,,,,,,,,,,,,,,10046.614000000001,,timeout,,,,,,,,,,,,,,,,,,,,,171695.40000009537,171694.765,161698.131,161703.5,161714.791,171761.405,,,
screen,html.Screen,2_1_0_1_0,2022-02-02T13:30:52.013Z,,,,,,,,,,,,,,,,,53,,,,,,,,,,,,,,9428.694999904634,,response,,,,99,,,,,,,Space,keypress(Space),,,,,,,,When -- ----- -- ------ - ------- --- ----------<br>------------- ------ ------ ---- ---- ------- ----- -- ----<br>-------- ------- -- ---------- --- - --- ----- ----- ----<br>---- --- --- ----- --- ---- ---- ------- ----- ---- -------<br>--- --- -- ----- -- --- ---- -- --- ---- -- ------ ------<br>--- ----- -- ----,181192.20000004768,181190.09999990463,171694.765,171696.5,171761.405,181190.998,,0,When
screen,html.Screen,2_1_0_1_1,2022-02-02T13:30:52.732Z,,,,,,,,,,,,,,,,,53,,,,,,,,,,,,,,718.9020000953751,,response,,,,99,,,,,,,Space,keypress(Space),,,,,,,,---- it ----- -- ------ - ------- --- ----------<br>------------- ------ ------ ---- ---- ------- ----- -- ----<br>-------- ------- -- ---------- --- - --- ----- ----- ----<br>---- --- --- ----- --- ---- ---- ------- ----- ---- -------<br>--- --- -- ----- -- --- ---- -- --- ---- -- ------ ------<br>--- ----- -- ----,181910.70000004768,181909.90000009537,181174.338,181192.20000004768,181190.998,181924.648,,1,it
screen,html.Screen,2_1_0_1_2,2022-02-02T13:30:53.282Z,,,,,,,,,,,,,,,,,53,,,,,,,,,,,,,,535.2520000953809,,response,,,,99,,,,,,,Space,keypress(Space),,,,,,,,---- -- comes -- ------ - ------- --- ----------<br>------------- ------ ------ ---- ---- ------- ----- -- ----<br>-------- ------- -- ---------- --- - --- ----- ----- ----<br>---- --- --- ----- --- ---- ---- ------- ----- ---- -------<br>--- --- -- ----- -- --- ---- -- --- ---- -- ------ ------<br>--- ----- -- ----,182460.59999990463,182459.90000009537,181907.988,181910.79999995232,181924.648,182474.766,,2,comes
screen,html.Screen,2_1_0_1_3,2022-02-02T13:30:53.635Z,,,,,,,,,,,,,,,,,53,,,,,,,,,,,,,,338.43400004768046,,response,,,,99,,,,,,,Space,keypress(Space),,,,,,,,---- -- ----- to ------ - ------- --- ----------<br>------------- ------ ------ ---- ---- ------- ----- -- ----<br>-------- ------- -- ---------- --- - --- ----- ----- ----<br>---- --- --- ----- --- ---- ---- ------- ----- ---- -------<br>--- --- -- ----- -- --- ---- -- --- ---- -- ------ ------<br>--- ----- -- ----,182814.20000004768,182813.20000004768,182458.106,182460.70000004768,182474.766,182824.424,,3,to
screen,html.Screen,2_1_0_1_4,2022-02-02T13:30:54.076Z,,,,,,,,,,,,,,,,,53,,,,,,,,,,,,,,430.27600004768465,,response,,,,99,,,,,,,Space,keypress(Space),,,,,,,,---- -- ----- -- having - ------- --- ----------<br>------------- ------ ------ ---- ---- ------- ----- -- ----<br>-------- ------- -- ---------- --- - --- ----- ----- ----<br>---- --- --- ----- --- ---- ---- ------- ----- ---- -------<br>--- --- -- ----- -- --- ---- -- --- ---- -- ------ ------<br>--- ----- -- ----,183255.09999990463,183254.70000004768,182807.764,182814.40000009537,182824.424,183257.613,,4,having
screen,html.Screen,2_1_0_1_5,2022-02-02T13:30:54.471Z,,,,,,,,,,,,,,,,,53,,,,,,,,,,,,,,391.5870000476716,,response,,,,99,,,,,,,Space,keypress(Space),,,,,,,,---- -- ----- -- ------ a ------- --- ----------<br>------------- ------ ------ ---- ---- ------- ----- -- ----<br>-------- ------- -- ---------- --- - --- ----- ----- ----<br>---- --- --- ----- --- ---- ---- ------- ----- ---- -------<br>--- --- -- ----- -- --- ---- -- --- ---- -- ------ ------<br>--- ----- -- ----,183650.09999990463,183649.20000004768,183240.953,183255.20000004768,183257.613,183657.355,,5,a
screen,html.Screen,2_1_0_1_6,2022-02-02T13:30:54.947Z,,,,,,,,,,,,,,,,,53,,,,,,,,,,,,,,466.9449999523058,,response,,,,99,,,,,,,Space,keypress(Space),,,,,,,,---- -- ----- -- ------ - lasting --- ----------<br>------------- ------ ------ ---- ---- ------- ----- -- ----<br>-------- ------- -- ---------- --- - --- ----- ----- ----<br>---- --- --- ----- --- ---- ---- ------- ----- ---- -------<br>--- --- -- ----- -- --- ---- -- --- ---- -- ------ ------<br>--- ----- -- ----,184125.40000009537,184124.29999995232,183640.695,183650.40000009537,183657.355,184140.59,,6,lasting
screen,html.Screen,2_1_0_1_7,2022-02-02T13:30:55.393Z,,,,,,,,,,,,,,,,,53,,,,,,,,,,,,,,430.7099999523198,,response,,,,99,,,,,,,Space,keypress(Space),,,,,,,,---- -- ----- -- ------ - ------- and ----------<br>------------- ------ ------ ---- ---- ------- ----- -- ----<br>-------- ------- -- ---------- --- - --- ----- ----- ----<br>---- --- --- ----- --- ---- ---- ------- ----- ---- -------<br>--- --- -- ----- -- --- ---- -- --- ---- -- ------ ------<br>--- ----- -- ----,184572.09999990463,184571.29999995232,184123.93,184125.70000004768,184140.59,184573.962,,7,and
screen,html.Screen,2_1_0_1_8,2022-02-02T13:30:55.833Z,,,,,,,,,,,,,,,,,53,,,,,,,,,,,,,,436.53800000000047,,response,,,,99,,,,,,,Space,keypress(Space),,,,,,,,---- -- ----- -- ------ - ------- --- fulfilling<br>------------- ------ ------ ---- ---- ------- ----- -- ----<br>-------- ------- -- ---------- --- - --- ----- ----- ----<br>---- --- --- ----- --- ---- ---- ------- ----- ---- -------<br>--- --- -- ----- -- --- ---- -- --- ---- -- ------ ------<br>--- ----- -- ----,185011.70000004768,185010.5,184557.302,184572.29999995232,184573.962,185023.893,,8,fulfilling
screen,html.Screen,2_1_0_1_9,2022-02-02T13:30:57.536Z,,,,,,,,,,,,,,,,,53,,,,,,,,,,,,,,1691.0070000953565,,response,,,,99,,,,,,,Space,keypress(Space),,,,,,,,"---- -- ----- -- ------ - ------- --- ----------<br>relationship, ------ ------ ---- ---- ------- ----- -- ----<br>-------- ------- -- ---------- --- - --- ----- ----- ----<br>---- --- --- ----- --- ---- ---- ------- ----- ---- -------<br>--- --- -- ----- -- --- ---- -- --- ---- -- ------ ------<br>--- ----- -- ----",186715.40000009537,186714.90000009537,185007.233,185012.09999990463,185023.893,186723.138,,9,"relationship,"
screen,html.Screen,2_1_0_1_10,2022-02-02T13:30:57.970Z,,,,,,,,,,,,,,,,,53,,,,,,,,,,,,,,425.3619999999937,,response,,,,99,,,,,,,Space,keypress(Space),,,,,,,,---- -- ----- -- ------ - ------- --- ----------<br>------------- common ------ ---- ---- ------- ----- -- ----<br>-------- ------- -- ---------- --- - --- ----- ----- ----<br>---- --- --- ----- --- ---- ---- ------- ----- ---- -------<br>--- --- -- ----- -- --- ---- -- --- ---- -- ------ ------<br>--- ----- -- ----,187149.40000009537,187148.5,186706.478,186715.5,186723.138,187156.381,,10,common
screen,html.Screen,2_1_0_1_11,2022-02-02T13:30:58.409Z,,,,,,,,,,,,,,,,,53,,,,,,,,,,,,,,430.7189999046386,,response,,,,99,,,,,,,Space,keypress(Space),,,,,,,,---- -- ----- -- ------ - ------- --- ----------<br>------------- ------ wisdom ---- ---- ------- ----- -- ----<br>-------- ------- -- ---------- --- - --- ----- ----- ----<br>---- --- --- ----- --- ---- ---- ------- ----- ---- -------<br>--- --- -- ----- -- --- ---- -- --- ---- -- ------ ------<br>--- ----- -- ----,187588.09999990463,187587.09999990463,187139.721,187149.59999990463,187156.381,187606.043,,11,wisdom
screen,html.Screen,2_1_0_1_12,2022-02-02T13:30:58.787Z,,,,,,,,,,,,,,,,,53,,,,,,,,,,,,,,358.6570000476786,,response,,,,99,,,,,,,Space,keypress(Space),,,,,,,,---- -- ----- -- ------ - ------- --- ----------<br>------------- ------ ------ says ---- ------- ----- -- ----<br>-------- ------- -- ---------- --- - --- ----- ----- ----<br>---- --- --- ----- --- ---- ---- ------- ----- ---- -------<br>--- --- -- ----- -- --- ---- -- --- ---- -- ------ ------<br>--- ----- -- ----,187965.79999995232,187964.70000004768,187589.383,187588.40000009537,187606.043,187972.622,,12,says
screen,html.Screen,2_1_0_1_13,2022-02-02T13:30:59.117Z,,,,,,,,,,,,,,,,,53,,,,,,,,,,,,,,322.97799990462954,,response,,,,99,,,,,,,Space,keypress(Space),,,,,,,,---- -- ----- -- ------ - ------- --- ----------<br>------------- ------ ------ ---- that ------- ----- -- ----<br>-------- ------- -- ---------- --- - --- ----- ----- ----<br>---- --- --- ----- --- ---- ---- ------- ----- ---- -------<br>--- --- -- ----- -- --- ---- -- --- ---- -- ------ ------<br>--- ----- -- ----,188296.20000004768,188295.59999990463,187955.962,187966,187972.622,188305.903,,13,that
screen,html.Screen,2_1_0_1_14,2022-02-02T13:30:59.472Z,,,,,,,,,,,,,,,,,53,,,,,,,,,,,,,,344.29700004769256,,response,,,,99,,,,,,,Space,keypress(Space),,,,,,,,---- -- ----- -- ------ - ------- --- ----------<br>------------- ------ ------ ---- ---- feeling ----- -- ----<br>-------- ------- -- ---------- --- - --- ----- ----- ----<br>---- --- --- ----- --- ---- ---- ------- ----- ---- -------<br>--- --- -- ----- -- --- ---- -- --- ---- -- ------ ------<br>--- ----- -- ----,188651.29999995232,188650.20000004768,188289.243,188297,188305.903,188655.848,,14,feeling
screen,html.Screen,2_1_0_1_15,2022-02-02T13:30:59.848Z,,,,,,,,,,,,,,,,,53,,,,,,,,,,,,,,370.0520000953693,,response,,,,99,,,,,,,Space,keypress(Space),,,,,,,,---- -- ----- -- ------ - ------- --- ----------<br>------------- ------ ------ ---- ---- ------- close -- ----<br>-------- ------- -- ---------- --- - --- ----- ----- ----<br>---- --- --- ----- --- ---- ---- ------- ----- ---- -------<br>--- --- -- ----- -- --- ---- -- --- ---- -- ------ ------<br>--- ----- -- ----,189026.79999995232,189025.90000009537,188639.188,188651.59999990463,188655.848,189038.915,,15,close
screen,html.Screen,2_1_0_1_16,2022-02-02T13:31:00.171Z,,,,,,,,,,,,,,,,,53,,,,,,,,,,,,,,310.4850000953593,,response,,,,99,,,,,,,Space,keypress(Space),,,,,,,,---- -- ----- -- ------ - ------- --- ----------<br>------------- ------ ------ ---- ---- ------- ----- to ----<br>-------- ------- -- ---------- --- - --- ----- ----- ----<br>---- --- --- ----- --- ---- ---- ------- ----- ---- -------<br>--- --- -- ----- -- --- ---- -- --- ---- -- ------ ------<br>--- ----- -- ----,189349.70000004768,189349.40000009537,189022.255,189027.5,189038.915,189355.621,,16,to
screen,html.Screen,2_1_0_1_17,2022-02-02T13:31:00.535Z,,,,,,,,,,,,,,,,,53,,,,,,,,,,,,,,357.7790000953537,,response,,,,99,,,,,,,Space,keypress(Space),,,,,,,,---- -- ----- -- ------ - ------- --- ----------<br>------------- ------ ------ ---- ---- ------- ----- -- your<br>-------- ------- -- ---------- --- - --- ----- ----- ----<br>---- --- --- ----- --- ---- ---- ------- ----- ---- -------<br>--- --- -- ----- -- --- ---- -- --- ---- -- ------ ------<br>--- ----- -- ----,189714.29999995232,189713.40000009537,189338.961,189349.79999995232,189355.621,189721.979,,17,your
screen,html.Screen,2_1_0_1_18,2022-02-02T13:31:00.975Z,,,,,,,,,,,,,,,,,53,,,,,,,,,,,,,,430.5210000000079,,response,,,,99,,,,,,,Space,keypress(Space),,,,,,,,---- -- ----- -- ------ - ------- --- ----------<br>------------- ------ ------ ---- ---- ------- ----- -- ----<br>romantic ------- -- ---------- --- - --- ----- ----- ----<br>---- --- --- ----- --- ---- ---- ------- ----- ---- -------<br>--- --- -- ----- -- --- ---- -- --- ---- -- ------ ------<br>--- ----- -- ----,190153.5,190152.5,189705.319,189714.70000004768,189721.979,190171.88,,18,romantic
screen,html.Screen,2_1_0_1_19,2022-02-02T13:31:01.373Z,,,,,,,,,,,,,,,,,53,,,,,,,,,,,,,,379.2199999046279,,response,,,,99,,,,,,,Space,keypress(Space),,,,,,,,---- -- ----- -- ------ - ------- --- ----------<br>------------- ------ ------ ---- ---- ------- ----- -- ----<br>-------- partner -- ---------- --- - --- ----- ----- ----<br>---- --- --- ----- --- ---- ---- ------- ----- ---- -------<br>--- --- -- ----- -- --- ---- -- --- ---- -- ------ ------<br>--- ----- -- ----,190552.20000004768,190551.09999990463,190155.22,190154.09999990463,190171.88,190555.091,,19,partner
screen,html.Screen,2_1_0_1_20,2022-02-02T13:31:01.758Z,,,,,,,,,,,,,,,,,53,,,,,,,,,,,,,,380.7089999523305,,response,,,,99,,,,,,,Space,keypress(Space),,,,,,,,---- -- ----- -- ------ - ------- --- ----------<br>------------- ------ ------ ---- ---- ------- ----- -- ----<br>-------- ------- is ---------- --- - --- ----- ----- ----<br>---- --- --- ----- --- ---- ---- ------- ----- ---- -------<br>--- --- -- ----- -- --- ---- -- --- ---- -- ------ ------<br>--- ----- -- ----,190936.70000004768,190935.79999995232,190538.431,190552.59999990463,190555.091,190938.29,,20,is
screen,html.Screen,2_1_0_1_21,2022-02-02T13:31:02.152Z,,,,,,,,,,,,,,,,,53,,,,,,,,,,,,,,391.41000004767557,,response,,,,99,,,,,,,Space,keypress(Space),,,,,,,,---- -- ----- -- ------ - ------- --- ----------<br>------------- ------ ------ ---- ---- ------- ----- -- ----<br>-------- ------- -- paramount. --- - --- ----- ----- ----<br>---- --- --- ----- --- ---- ---- ------- ----- ---- -------<br>--- --- -- ----- -- --- ---- -- --- ---- -- ------ ------<br>--- ----- -- ----,191330.70000004768,191329.70000004768,190921.63,190936.90000009537,190938.29,191338.164,,21,paramount.
screen,html.Screen,2_1_0_1_22,2022-02-02T13:31:02.900Z,,,,,,,,,,,,,,,,,53,,,,,,,,,,,,,,739.7360000953777,,response,,,,99,,,,,,,Space,keypress(Space),,,,,,,,---- -- ----- -- ------ - ------- --- ----------<br>------------- ------ ------ ---- ---- ------- ----- -- ----<br>-------- ------- -- ---------- But - --- ----- ----- ----<br>---- --- --- ----- --- ---- ---- ------- ----- ---- -------<br>--- --- -- ----- -- --- ---- -- --- ---- -- ------ ------<br>--- ----- -- ----,192079,192077.90000009537,191321.504,191330.90000009537,191338.164,192087.866,,22,But
screen,html.Screen,2_1_0_1_23,2022-02-02T13:31:03.168Z,,,,,,,,,,,,,,,,,53,,,,,,,,,,,,,,258.03400009535835,,response,,,,99,,,,,,,Space,keypress(Space),,,,,,,,---- -- ----- -- ------ - ------- --- ----------<br>------------- ------ ------ ---- ---- ------- ----- -- ----<br>-------- ------- -- ---------- --- a --- ----- ----- ----<br>---- --- --- ----- --- ---- ---- ------- ----- ---- -------<br>--- --- -- ----- -- --- ---- -- --- ---- -- ------ ------<br>--- ----- -- ----,192347.20000004768,192345.90000009537,192071.206,192079.29999995232,192087.866,192354.477,,23,a
screen,html.Screen,2_1_0_1_24,2022-02-02T13:31:03.441Z,,,,,,,,,,,,,,,,,53,,,,,,,,,,,,,,264.4230000953539,,response,,,,99,,,,,,,Space,keypress(Space),,,,,,,,---- -- ----- -- ------ - ------- --- ----------<br>------------- ------ ------ ---- ---- ------- ----- -- ----<br>-------- ------- -- ---------- --- - new ----- ----- ----<br>---- --- --- ----- --- ---- ---- ------- ----- ---- -------<br>--- --- -- ----- -- --- ---- -- --- ---- -- ------ ------<br>--- ----- -- ----,192620,192618.90000009537,192337.817,192347.70000004768,192354.477,192621.067,,24,new
screen,html.Screen,2_1_0_1_25,2022-02-02T13:31:03.856Z,,,,,,,,,,,,,,,,,53,,,,,,,,,,,,,,413.1330000476737,,response,,,,99,,,,,,,Space,keypress(Space),,,,,,,,---- -- ----- -- ------ - ------- --- ----------<br>------------- ------ ------ ---- ---- ------- ----- -- ----<br>-------- ------- -- ---------- --- - --- study ----- ----<br>---- --- --- ----- --- ---- ---- ------- ----- ---- -------<br>--- --- -- ----- -- --- ---- -- --- ---- -- ------ ------<br>--- ----- -- ----,193035.20000004768,193034.20000004768,192604.407,192620.20000004768,192621.067,193037.558,,25,study
screen,html.Screen,2_1_0_1_26,2022-02-02T13:31:04.244Z,,,,,,,,,,,,,,,,,53,,,,,,,,,,,,,,384.84200009537744,,response,,,,99,,,,,,,Space,keypress(Space),,,,,,,,---- -- ----- -- ------ - ------- --- ----------<br>------------- ------ ------ ---- ---- ------- ----- -- ----<br>-------- ------- -- ---------- --- - --- ----- finds ----<br>---- --- --- ----- --- ---- ---- ------- ----- ---- -------<br>--- --- -- ----- -- --- ---- -- --- ---- -- ------ ------<br>--- ----- -- ----,193422.70000004768,193422.40000009537,193020.898,193035.5,193037.558,193437.477,,26,finds
screen,html.Screen,2_1_0_1_27,2022-02-02T13:31:04.530Z,,,,,,,,,,,,,,,,,53,,,,,,,,,,,,,,271.2230000476702,,response,,,,99,,,,,,,Space,keypress(Space),,,,,,,,---- -- ----- -- ------ - ------- --- ----------<br>------------- ------ ------ ---- ---- ------- ----- -- ----<br>-------- ------- -- ---------- --- - --- ----- ----- that<br>---- --- --- ----- --- ---- ---- ------- ----- ---- -------<br>--- --- -- ----- -- --- ---- -- --- ---- -- ------ ------<br>--- ----- -- ----,193709.70000004768,193708.70000004768,193420.817,193423.79999995232,193437.477,193720.702,,27,that
screen,html.Screen,2_1_0_1_28,2022-02-02T13:31:04.952Z,,,,,,,,,,,,,,,,,53,,,,,,,,,,,,,,409.09799995232606,,response,,,,99,,,,,,,Space,keypress(Space),,,,,,,,---- -- ----- -- ------ - ------- --- ----------<br>------------- ------ ------ ---- ---- ------- ----- -- ----<br>-------- ------- -- ---------- --- - --- ----- ----- ----<br>it's --- --- ----- --- ---- ---- ------- ----- ---- -------<br>--- --- -- ----- -- --- ---- -- --- ---- -- ------ ------<br>--- ----- -- ----,194131,194129.79999995232,193704.042,193710,193720.702,194137.228,,28,it's
screen,html.Screen,2_1_0_1_29,2022-02-02T13:31:05.306Z,,,,,,,,,,,,,,,,,53,,,,,,,,,,,,,,346.2719999999972,,response,,,,99,,,,,,,Space,keypress(Space),,,,,,,,---- -- ----- -- ------ - ------- --- ----------<br>------------- ------ ------ ---- ---- ------- ----- -- ----<br>-------- ------- -- ---------- --- - --- ----- ----- ----<br>---- not --- ----- --- ---- ---- ------- ----- ---- -------<br>--- --- -- ----- -- --- ---- -- --- ---- -- ------ ------<br>--- ----- -- ----,194484.79999995232,194483.5,194120.568,194131.20000004768,194137.228,194487.117,,29,not
screen,html.Screen,2_1_0_1_30,2022-02-02T13:31:05.633Z,,,,,,,,,,,,,,,,,53,,,,,,,,,,,,,,324.1829999523179,,response,,,,99,,,,,,,Space,keypress(Space),,,,,,,,---- -- ----- -- ------ - ------- --- ----------<br>------------- ------ ------ ---- ---- ------- ----- -- ----<br>-------- ------- -- ---------- --- - --- ----- ----- ----<br>---- --- how ----- --- ---- ---- ------- ----- ---- -------<br>--- --- -- ----- -- --- ---- -- --- ---- -- ------ ------<br>--- ----- -- ----,194811.70000004768,194811.29999995232,194470.457,194485.09999990463,194487.117,194820.334,,30,how
screen,html.Screen,2_1_0_1_31,2022-02-02T13:31:05.973Z,,,,,,,,,,,,,,,,,53,,,,,,,,,,,,,,330.76599990463,,response,,,,99,,,,,,,Space,keypress(Space),,,,,,,,---- -- ----- -- ------ - ------- --- ----------<br>------------- ------ ------ ---- ---- ------- ----- -- ----<br>-------- ------- -- ---------- --- - --- ----- ----- ----<br>---- --- --- close --- ---- ---- ------- ----- ---- -------<br>--- --- -- ----- -- --- ---- -- --- ---- -- ------ ------<br>--- ----- -- ----,195152.09999990463,195151.09999990463,194803.674,194811.79999995232,194820.334,195153.541,,31,close
screen,html.Screen,2_1_0_1_32,2022-02-02T13:31:06.365Z,,,,,,,,,,,,,,,,,53,,,,,,,,,,,,,,389.25899995231885,,response,,,,99,,,,,,,Space,keypress(Space),,,,,,,,---- -- ----- -- ------ - ------- --- ----------<br>------------- ------ ------ ---- ---- ------- ----- -- ----<br>-------- ------- -- ---------- --- - --- ----- ----- ----<br>---- --- --- ----- you ---- ---- ------- ----- ---- -------<br>--- --- -- ----- -- --- ---- -- --- ---- -- ------ ------<br>--- ----- -- ----,195543.70000004768,195542.79999995232,195136.881,195152.29999995232,195153.541,195553.429,,32,you
screen,html.Screen,2_1_0_1_33,2022-02-02T13:31:06.803Z,,,,,,,,,,,,,,,,,53,,,,,,,,,,,,,,427.5709999999963,,response,,,,99,,,,,,,Space,keypress(Space),,,,,,,,---- -- ----- -- ------ - ------- --- ----------<br>------------- ------ ------ ---- ---- ------- ----- -- ----<br>-------- ------- -- ---------- --- - --- ----- ----- ----<br>---- --- --- ----- --- feel ---- ------- ----- ---- -------<br>--- --- -- ----- -- --- ---- -- --- ---- -- ------ ------<br>--- ----- -- ----,195982,195981,195536.769,195544,195553.429,195986.621,,33,feel
screen,html.Screen,2_1_0_1_34,2022-02-02T13:31:07.214Z,,,,,,,,,,,,,,,,,53,,,,,,,,,,,,,,405.07900004767,,response,,,,99,,,,,,,Space,keypress(Space),,,,,,,,---- -- ----- -- ------ - ------- --- ----------<br>------------- ------ ------ ---- ---- ------- ----- -- ----<br>-------- ------- -- ---------- --- - --- ----- ----- ----<br>---- --- --- ----- --- ---- that ------- ----- ---- -------<br>--- --- -- ----- -- --- ---- -- --- ---- -- ------ ------<br>--- ----- -- ----,196392.70000004768,196391.70000004768,195969.961,195982.29999995232,195986.621,196403.121,,34,that
screen,html.Screen,2_1_0_1_35,2022-02-02T13:31:07.580Z,,,,,,,,,,,,,,,,,53,,,,,,,,,,,,,,355.7790000953537,,response,,,,99,,,,,,,Space,keypress(Space),,,,,,,,---- -- ----- -- ------ - ------- --- ----------<br>------------- ------ ------ ---- ---- ------- ----- -- ----<br>-------- ------- -- ---------- --- - --- ----- ----- ----<br>---- --- --- ----- --- ---- ---- matters ----- ---- -------<br>--- --- -- ----- -- --- ---- -- --- ---- -- ------ ------<br>--- ----- -- ----,196759.29999995232,196758.90000009537,196386.461,196393.20000004768,196403.121,196769.697,,35,matters
screen,html.Screen,2_1_0_1_36,2022-02-02T13:31:07.973Z,,,,,,,,,,,,,,,,,53,,,,,,,,,,,,,,381.6029999523307,,response,,,,99,,,,,,,Space,keypress(Space),,,,,,,,"---- -- ----- -- ------ - ------- --- ----------<br>------------- ------ ------ ---- ---- ------- ----- -- ----<br>-------- ------- -- ---------- --- - --- ----- ----- ----<br>---- --- --- ----- --- ---- ---- ------- most, ---- -------<br>--- --- -- ----- -- --- ---- -- --- ---- -- ------ ------<br>--- ----- -- ----",197152.29999995232,197151.29999995232,196753.037,196759.40000009537,196769.697,197169.579,,36,"most,"
screen,html.Screen,2_1_0_1_37,2022-02-02T13:31:08.352Z,,,,,,,,,,,,,,,,,53,,,,,,,,,,,,,,360.9210000000021,,response,,,,99,,,,,,,Space,keypress(Space),,,,,,,,---- -- ----- -- ------ - ------- --- ----------<br>------------- ------ ------ ---- ---- ------- ----- -- ----<br>-------- ------- -- ---------- --- - --- ----- ----- ----<br>---- --- --- ----- --- ---- ---- ------- ----- it's -------<br>--- --- -- ----- -- --- ---- -- --- ---- -- ------ ------<br>--- ----- -- ----,197531.40000009537,197530.5,197152.919,197152.59999990463,197169.579,197536.074,,37,it's
screen,html.Screen,2_1_0_1_38,2022-02-02T13:31:08.724Z,,,,,,,,,,,,,,,,,53,,,,,,,,,,,,,,366.0259999046393,,response,,,,99,,,,,,,Space,keypress(Space),,,,,,,,---- -- ----- -- ------ - ------- --- ----------<br>------------- ------ ------ ---- ---- ------- ----- -- ----<br>-------- ------- -- ---------- --- - --- ----- ----- ----<br>---- --- --- ----- --- ---- ---- ------- ----- ---- whether<br>--- --- -- ----- -- --- ---- -- --- ---- -- ------ ------<br>--- ----- -- ----,197903.29999995232,197902.09999990463,197519.414,197531.70000004768,197536.074,197919.246,,38,whether
screen,html.Screen,2_1_0_1_39,2022-02-02T13:31:09.142Z,,,,,,,,,,,,,,,,,53,,,,,,,,,,,,,,401.6540000953537,,response,,,,99,,,,,,,Space,keypress(Space),,,,,,,,---- -- ----- -- ------ - ------- --- ----------<br>------------- ------ ------ ---- ---- ------- ----- -- ----<br>-------- ------- -- ---------- --- - --- ----- ----- ----<br>---- --- --- ----- --- ---- ---- ------- ----- ---- -------<br>you --- -- ----- -- --- ---- -- --- ---- -- ------ ------<br>--- ----- -- ----,198321.29999995232,198320.90000009537,197902.586,197903.5,197919.246,198335.788,,39,you
screen,html.Screen,2_1_0_1_40,2022-02-02T13:31:09.584Z,,,,,,,,,,,,,,,,,53,,,,,,,,,,,,,,426.91200004768325,,response,,,,99,,,,,,,Space,keypress(Space),,,,,,,,---- -- ----- -- ------ - ------- --- ----------<br>------------- ------ ------ ---- ---- ------- ----- -- ----<br>-------- ------- -- ---------- --- - --- ----- ----- ----<br>---- --- --- ----- --- ---- ---- ------- ----- ---- -------<br>--- are -- ----- -- --- ---- -- --- ---- -- ------ ------<br>--- ----- -- ----,198763.09999990463,198762.70000004768,198319.128,198321.29999995232,198335.788,198769.325,,40,are
screen,html.Screen,2_1_0_1_41,2022-02-02T13:31:09.960Z,,,,,,,,,,,,,,,,,53,,,,,,,,,,,,,,369.17499999998836,,response,,,,99,,,,,,,Space,keypress(Space),,,,,,,,---- -- ----- -- ------ - ------- --- ----------<br>------------- ------ ------ ---- ---- ------- ----- -- ----<br>-------- ------- -- ---------- --- - --- ----- ----- ----<br>---- --- --- ----- --- ---- ---- ------- ----- ---- -------<br>--- --- as ----- -- --- ---- -- --- ---- -- ------ ------<br>--- ----- -- ----,199139,199138.5,198752.665,198763.20000004768,198769.325,199152.155,,41,as
screen,html.Screen,2_1_0_1_42,2022-02-02T13:31:10.382Z,,,,,,,,,,,,,,,,,53,,,,,,,,,,,,,,408.84500000000116,,response,,,,99,,,,,,,Space,keypress(Space),,,,,,,,---- -- ----- -- ------ - ------- --- ----------<br>------------- ------ ------ ---- ---- ------- ----- -- ----<br>-------- ------- -- ---------- --- - --- ----- ----- ----<br>---- --- --- ----- --- ---- ---- ------- ----- ---- -------<br>--- --- -- close -- --- ---- -- --- ---- -- ------ ------<br>--- ----- -- ----,199561.40000009537,199561,199135.495,199139.09999990463,199152.155,199568.924,,42,close
screen,html.Screen,2_1_0_1_43,2022-02-02T13:31:10.795Z,,,,,,,,,,,,,,,,,53,,,,,,,,,,,,,,403.97600009536836,,response,,,,99,,,,,,,Space,keypress(Space),,,,,,,,---- -- ----- -- ------ - ------- --- ----------<br>------------- ------ ------ ---- ---- ------- ----- -- ----<br>-------- ------- -- ---------- --- - --- ----- ----- ----<br>---- --- --- ----- --- ---- ---- ------- ----- ---- -------<br>--- --- -- ----- as --- ---- -- --- ---- -- ------ ------<br>--- ----- -- ----,199973.90000009537,199972.90000009537,199552.264,199561.5,199568.924,199985.54,,43,as
screen,html.Screen,2_1_0_1_44,2022-02-02T13:31:11.185Z,,,,,,,,,,,,,,,,,53,,,,,,,,,,,,,,377.16000004767557,,response,,,,99,,,,,,,Space,keypress(Space),,,,,,,,---- -- ----- -- ------ - ------- --- ----------<br>------------- ------ ------ ---- ---- ------- ----- -- ----<br>-------- ------- -- ---------- --- - --- ----- ----- ----<br>---- --- --- ----- --- ---- ---- ------- ----- ---- -------<br>--- --- -- ----- -- you ---- -- --- ---- -- ------ ------<br>--- ----- -- ----,200364,200362.70000004768,199968.88,199974.20000004768,199985.54,200368.481,,44,you
screen,html.Screen,2_1_0_1_45,2022-02-02T13:31:11.429Z,,,,,,,,,,,,,,,,,53,,,,,,,,,,,,,,238.6189999046328,,response,,,,99,,,,,,,Space,keypress(Space),,,,,,,,---- -- ----- -- ------ - ------- --- ----------<br>------------- ------ ------ ---- ---- ------- ----- -- ----<br>-------- ------- -- ---------- --- - --- ----- ----- ----<br>---- --- --- ----- --- ---- ---- ------- ----- ---- -------<br>--- --- -- ----- -- --- want -- --- ---- -- ------ ------<br>--- ----- -- ----,200608.29999995232,200607.09999990463,200351.821,200364.20000004768,200368.481,200618.385,,45,want
screen,html.Screen,2_1_0_1_46,2022-02-02T13:31:11.829Z,,,,,,,,,,,,,,,,,53,,,,,,,,,,,,,,389.1149999999907,,response,,,,99,,,,,,,Space,keypress(Space),,,,,,,,---- -- ----- -- ------ - ------- --- ----------<br>------------- ------ ------ ---- ---- ------- ----- -- ----<br>-------- ------- -- ---------- --- - --- ----- ----- ----<br>---- --- --- ----- --- ---- ---- ------- ----- ---- -------<br>--- --- -- ----- -- --- ---- to --- ---- -- ------ ------<br>--- ----- -- ----,201008.5,201007.5,200601.725,200608.40000009537,200618.385,201018.28,,46,to
screen,html.Screen,2_1_0_1_47,2022-02-02T13:31:12.082Z,,,,,,,,,,,,,,,,,53,,,,,,,,,,,,,,242.92000004768488,,response,,,,99,,,,,,,Space,keypress(Space),,,,,,,,"---- -- ----- -- ------ - ------- --- ----------<br>------------- ------ ------ ---- ---- ------- ----- -- ----<br>-------- ------- -- ---------- --- - --- ----- ----- ----<br>---- --- --- ----- --- ---- ---- ------- ----- ---- -------<br>--- --- -- ----- -- --- ---- -- be, ---- -- ------ ------<br>--- ----- -- ----",201261.59999990463,201261.20000004768,201001.62,201008.90000009537,201018.28,201268.377,,47,"be,"
screen,html.Screen,2_1_0_1_48,2022-02-02T13:31:12.530Z,,,,,,,,,,,,,,,,,53,,,,,,,,,,,,,,440.02300009535975,,response,,,,99,,,,,,,Space,keypress(Space),,,,,,,,---- -- ----- -- ------ - ------- --- ----------<br>------------- ------ ------ ---- ---- ------- ----- -- ----<br>-------- ------- -- ---------- --- - --- ----- ----- ----<br>---- --- --- ----- --- ---- ---- ------- ----- ---- -------<br>--- --- -- ----- -- --- ---- -- --- even -- ------ ------<br>--- ----- -- ----,201709.40000009537,201708.40000009537,201251.717,201261.79999995232,201268.377,201717.975,,48,even
screen,html.Screen,2_1_0_1_49,2022-02-02T13:31:12.872Z,,,,,,,,,,,,,,,,,53,,,,,,,,,,,,,,331.82499995231046,,response,,,,99,,,,,,,Space,keypress(Space),,,,,,,,---- -- ----- -- ------ - ------- --- ----------<br>------------- ------ ------ ---- ---- ------- ----- -- ----<br>-------- ------- -- ---------- --- - --- ----- ----- ----<br>---- --- --- ----- --- ---- ---- ------- ----- ---- -------<br>--- --- -- ----- -- --- ---- -- --- ---- if ------ ------<br>--- ----- -- ----,202050.70000004768,202049.79999995232,201701.315,201709.70000004768,201717.975,202067.823,,49,if
screen,html.Screen,2_1_0_1_50,2022-02-02T13:31:13.148Z,,,,,,,,,,,,,,,,,53,,,,,,,,,,,,,,258.17699999999604,,response,,,,99,,,,,,,Space,keypress(Space),,,,,,,,---- -- ----- -- ------ - ------- --- ----------<br>------------- ------ ------ ---- ---- ------- ----- -- ----<br>-------- ------- -- ---------- --- - --- ----- ----- ----<br>---- --- --- ----- --- ---- ---- ------- ----- ---- -------<br>--- --- -- ----- -- --- ---- -- --- ---- -- that's ------<br>--- ----- -- ----,202326.90000009537,202326,202051.163,202051,202067.823,202334.699,,50,that's
screen,html.Screen,2_1_0_1_51,2022-02-02T13:31:13.530Z,,,,,,,,,,,,,,,,,53,,,,,,,,,,,,,,373.7010000953742,,response,,,,99,,,,,,,Space,keypress(Space),,,,,,,,---- -- ----- -- ------ - ------- --- ----------<br>------------- ------ ------ ---- ---- ------- ----- -- ----<br>-------- ------- -- ---------- --- - --- ----- ----- ----<br>---- --- --- ----- --- ---- ---- ------- ----- ---- -------<br>--- --- -- ----- -- --- ---- -- --- ---- -- ------ really<br>--- ----- -- ----,202708.90000009537,202708.40000009537,202318.039,202327.09999990463,202334.699,202717.776,,51,really
screen,html.Screen,2_1_0_1_52,2022-02-02T13:31:13.895Z,,,,,,,,,,,,,,,,,53,,,,,,,,,,,,,,355.2239999999874,,response,,,,99,,,,,,,Space,keypress(Space),,,,,,,,---- -- ----- -- ------ - ------- --- ----------<br>------------- ------ ------ ---- ---- ------- ----- -- ----<br>-------- ------- -- ---------- --- - --- ----- ----- ----<br>---- --- --- ----- --- ---- ---- ------- ----- ---- -------<br>--- --- -- ----- -- --- ---- -- --- ---- -- ------ ------<br>not ----- -- ----,203074.09999990463,203073,202701.116,202708.90000009537,202717.776,203084.202,,52,not
screen,html.Screen,2_1_0_1_53,2022-02-02T13:31:14.217Z,,,,,,,,,,,,,,,,,53,,,,,,,,,,,,,,310.9980000476935,,response,,,,99,,,,,,,Space,keypress(Space),,,,,,,,---- -- ----- -- ------ - ------- --- ----------<br>------------- ------ ------ ---- ---- ------- ----- -- ----<br>-------- ------- -- ---------- --- - --- ----- ----- ----<br>---- --- --- ----- --- ---- ---- ------- ----- ---- -------<br>--- --- -- ----- -- --- ---- -- --- ---- -- ------ ------<br>--- close -- ----,203396.40000009537,203395.20000004768,203067.542,203074.29999995232,203084.202,203400.76,,53,close
screen,html.Screen,2_1_0_1_54,2022-02-02T13:31:14.576Z,,,,,,,,,,,,,,,,,53,,,,,,,,,,,,,,353.1400000953581,,response,,,,99,,,,,,,Space,keypress(Space),,,,,,,,---- -- ----- -- ------ - ------- --- ----------<br>------------- ------ ------ ---- ---- ------- ----- -- ----<br>-------- ------- -- ---------- --- - --- ----- ----- ----<br>---- --- --- ----- --- ---- ---- ------- ----- ---- -------<br>--- --- -- ----- -- --- ---- -- --- ---- -- ------ ------<br>--- ----- at ----,203755.09999990463,203753.90000009537,203384.1,203396.79999995232,203400.76,203767.262,,54,at
screen,html.Screen,2_1_0_1_55,2022-02-02T13:31:15.062Z,,,,,,,,,,,,,,,,,53,,,,,,,,,,,,,,473.5379999523284,,response,,,,99,,,,,,,Space,keypress(Space),,,,,,,,---- -- ----- -- ------ - ------- --- ----------<br>------------- ------ ------ ---- ---- ------- ----- -- ----<br>-------- ------- -- ---------- --- - --- ----- ----- ----<br>---- --- --- ----- --- ---- ---- ------- ----- ---- -------<br>--- --- -- ----- -- --- ---- -- --- ---- -- ------ ------<br>--- ----- -- all.,204241.20000004768,204240.79999995232,203750.602,203755.59999990463,203767.262,204250.465,,55,all.
Item 99,flow.Loop,2_1_0_1,2022-02-02T13:31:15.062Z,,,,,,,,,,,,,,,,,,,,,,,,,,,,,,,32479.394999952317,,completion,,,,,B,,,,,,,,,,,silence,,,,,204241.29999995232,204240.79999995232,171694.765,171695.5,171761.405,204250.465,,,
Question 1,html.Screen,2_1_0_2,2022-02-02T13:31:17.704Z,,,,,,,,,,,,,,,,,,,,,,,,,,,,true,FALSE,,2631.435000095371,,response,,,,99,B,,,,,,FALSE,click #choice-2,,,,silence,,,,,206882.79999995232,206881.90000009537,204233.805,204241.40000009537,204250.465,206882.869,,,
Question 2,html.Screen,2_1_0_3,2022-02-02T13:31:22.409Z,,,,,,,,,,,,,,,,,,,,,,,,,,,,true,TRUE,,4704.331000047678,,response,,,,99,B,,,,,,TRUE,click #choice-1,,,,silence,,,,,211588.20000004768,211587.20000004768,206866.209,206882.90000009537,206882.869,211598.14,,,
Item 99,flow.Sequence,2_1_0,2022-02-02T13:31:22.409Z,,,,,,,,,,,,,,,,,,,,,,,,,,,,,,,49872.409000047686,,completion,,,,,,,,,,,,,,,,,,,,,211588.29999995232,211587.20000004768,161698.131,161703,161714.791,211598.14,,,
Holding screen,html.Screen,2_1_1_0,2022-02-02T13:31:32.401Z,,,,,,,,,,,,,,,,,,,,,,,,,,,,,,,9996.431999999972,,timeout,,,,,,,,,,,,,,,,,,,,,221579.79999995232,221577.912,211581.48,211588.40000009537,211598.14,221594.572,,,
screen,html.Screen,2_1_1_1_0,2022-02-02T13:31:38.506Z,,,,,,,,,,,,,,,,,54,,,,,,,,,,,,,,6090.428000000014,,response,,,,100,,,,,,,Space,keypress(Space),,,,,,,,At --- ---- --- ------ ----- ------- ---- -- --- ------- --<br>------- ---------- ------ -- ----- -- ----- -- ---- ------<br>--- ----- --- --- ------ -------- ----- --- ------ ----- --<br>----- ----- ---------- --- --- ------ ------ ---- -- ------<br>------- --- ------ ----- --- ---- ------- -- ---- --- --<br>------- ------,227685.40000009537,227685,221577.912,221579.90000009537,221594.572,227692.198,,0,At
screen,html.Screen,2_1_1_1_1,2022-02-02T13:31:38.697Z,,,,,,,,,,,,,,,,,54,,,,,,,,,,,,,,183.30199999999604,,response,,,,100,,,,,,,Space,keypress(Space),,,,,,,,-- the ---- --- ------ ----- ------- ---- -- --- ------- --<br>------- ---------- ------ -- ----- -- ----- -- ---- ------<br>--- ----- --- --- ------ -------- ----- --- ------ ----- --<br>----- ----- ---------- --- --- ------ ------ ---- -- ------<br>------- --- ------ ----- --- ---- ------- -- ---- --- --<br>------- ------,227876.29999995232,227875.5,227675.538,227685.5,227692.198,227892.625,,1,the
screen,html.Screen,2_1_1_1_2,2022-02-02T13:31:38.917Z,,,,,,,,,,,,,,,,,54,,,,,,,,,,,,,,202.27500009536743,,response,,,,100,,,,,,,Space,keypress(Space),,,,,,,,-- --- time --- ------ ----- ------- ---- -- --- ------- --<br>------- ---------- ------ -- ----- -- ----- -- ---- ------<br>--- ----- --- --- ------ -------- ----- --- ------ ----- --<br>----- ----- ---------- --- --- ------ ------ ---- -- ------<br>------- --- ------ ----- --- ---- ------- -- ---- --- --<br>------- ------,228095.79999995232,228094.90000009537,227875.965,227876.59999990463,227892.625,228109.23,,2,time
screen,html.Screen,2_1_1_1_3,2022-02-02T13:31:39.109Z,,,,,,,,,,,,,,,,,54,,,,,,,,,,,,,,178.97000004767324,,response,,,,100,,,,,,,Space,keypress(Space),,,,,,,,-- --- ---- the ------ ----- ------- ---- -- --- ------- --<br>------- ---------- ------ -- ----- -- ----- -- ---- ------<br>--- ----- --- --- ------ -------- ----- --- ------ ----- --<br>----- ----- ---------- --- --- ------ ------ ---- -- ------<br>------- --- ------ ----- --- ---- ------- -- ---- --- --<br>------- ------,228288.59999990463,228288.20000004768,228092.57,228096.09999990463,228109.23,228292.607,,3,the
screen,html.Screen,2_1_1_1_4,2022-02-02T13:31:39.339Z,,,,,,,,,,,,,,,,,54,,,,,,,,,,,,,,224.59300004769466,,response,,,,100,,,,,,,Space,keypress(Space),,,,,,,,-- --- ---- --- French ----- ------- ---- -- --- ------- --<br>------- ---------- ------ -- ----- -- ----- -- ---- ------<br>--- ----- --- --- ------ -------- ----- --- ------ ----- --<br>----- ----- ---------- --- --- ------ ------ ---- -- ------<br>------- --- ------ ----- --- ---- ------- -- ---- --- --<br>------- ------,228518,228517.20000004768,228275.947,228288.70000004768,228292.607,228525.815,,4,French
screen,html.Screen,2_1_1_1_5,2022-02-02T13:31:39.716Z,,,,,,,,,,,,,,,,,54,,,,,,,,,,,,,,368.98499995231396,,response,,,,100,,,,,,,Space,keypress(Space),,,,,,,,-- --- ---- --- ------ crown ------- ---- -- --- ------- --<br>------- ---------- ------ -- ----- -- ----- -- ---- ------<br>--- ----- --- --- ------ -------- ----- --- ------ ----- --<br>----- ----- ---------- --- --- ------ ------ ---- -- ------<br>------- --- ------ ----- --- ---- ------- -- ---- --- --<br>------- ------,228895.70000004768,228894.79999995232,228509.155,228518.20000004768,228525.815,228908.811,,5,crown
screen,html.Screen,2_1_1_1_6,2022-02-02T13:31:40.007Z,,,,,,,,,,,,,,,,,54,,,,,,,,,,,,,,276.88900004769675,,response,,,,100,,,,,,,Space,keypress(Space),,,,,,,,-- --- ---- --- ------ ----- secured ---- -- --- ------- --<br>------- ---------- ------ -- ----- -- ----- -- ---- ------<br>--- ----- --- --- ------ -------- ----- --- ------ ----- --<br>----- ----- ---------- --- --- ------ ------ ---- -- ------<br>------- --- ------ ----- --- ---- ------- -- ---- --- --<br>------- ------,229186.09999990463,229185.70000004768,228892.151,228895.90000009537,228908.811,229192.049,,6,secured
screen,html.Screen,2_1_1_1_7,2022-02-02T13:31:40.443Z,,,,,,,,,,,,,,,,,54,,,,,,,,,,,,,,429.35100009536836,,response,,,,100,,,,,,,Space,keypress(Space),,,,,,,,-- --- ---- --- ------ ----- ------- much -- --- ------- --<br>------- ---------- ------ -- ----- -- ----- -- ---- ------<br>--- ----- --- --- ------ -------- ----- --- ------ ----- --<br>----- ----- ---------- --- --- ------ ------ ---- -- ------<br>------- --- ------ ----- --- ---- ------- -- ---- --- --<br>------- ------,229622.5,229621.40000009537,229175.389,229186.09999990463,229192.049,229625.464,,7,much
screen,html.Screen,2_1_1_1_8,2022-02-02T13:31:40.743Z,,,,,,,,,,,,,,,,,54,,,,,,,,,,,,,,296.0359999999928,,response,,,,100,,,,,,,Space,keypress(Space),,,,,,,,-- --- ---- --- ------ ----- ------- ---- of --- ------- --<br>------- ---------- ------ -- ----- -- ----- -- ---- ------<br>--- ----- --- --- ------ -------- ----- --- ------ ----- --<br>----- ----- ---------- --- --- ------ ------ ---- -- ------<br>------- --- ------ ----- --- ---- ------- -- ---- --- --<br>------- ------,229922.5,229921.5,229608.804,229622.79999995232,229625.464,229925.163,,8,of
screen,html.Screen,2_1_1_1_9,2022-02-02T13:31:40.977Z,,,,,,,,,,,,,,,,,54,,,,,,,,,,,,,,230.03700004768325,,response,,,,100,,,,,,,Space,keypress(Space),,,,,,,,-- --- ---- --- ------ ----- ------- ---- -- its ------- --<br>------- ---------- ------ -- ----- -- ----- -- ---- ------<br>--- ----- --- --- ------ -------- ----- --- ------ ----- --<br>----- ----- ---------- --- --- ------ ------ ---- -- ------<br>------- --- ------ ----- --- ---- ------- -- ---- --- --<br>------- ------,230156.09999990463,230155.20000004768,229908.503,229922.79999995232,229925.163,230158.448,,9,its
screen,html.Screen,2_1_1_1_10,2022-02-02T13:31:41.207Z,,,,,,,,,,,,,,,,,54,,,,,,,,,,,,,,227.05199999999604,,response,,,,100,,,,,,,Space,keypress(Space),,,,,,,,-- --- ---- --- ------ ----- ------- ---- -- --- revenue --<br>------- ---------- ------ -- ----- -- ----- -- ---- ------<br>--- ----- --- --- ------ -------- ----- --- ------ ----- --<br>----- ----- ---------- --- --- ------ ------ ---- -- ------<br>------- --- ------ ----- --- ---- ------- -- ---- --- --<br>------- ------,230386.40000009537,230385.5,230141.788,230156.40000009537,230158.448,230391.713,,10,revenue
screen,html.Screen,2_1_1_1_11,2022-02-02T13:31:41.575Z,,,,,,,,,,,,,,,,,54,,,,,,,,,,,,,,361.2870000000112,,response,,,,100,,,,,,,Space,keypress(Space),,,,,,,,-- --- ---- --- ------ ----- ------- ---- -- --- ------- by<br>------- ---------- ------ -- ----- -- ----- -- ---- ------<br>--- ----- --- --- ------ -------- ----- --- ------ ----- --<br>----- ----- ---------- --- --- ------ ------ ---- -- ------<br>------- --- ------ ----- --- ---- ------- -- ---- --- --<br>------- ------,230753.90000009537,230753,230375.053,230386.70000004768,230391.713,230758.174,,11,by
screen,html.Screen,2_1_1_1_12,2022-02-02T13:31:41.899Z,,,,,,,,,,,,,,,,,54,,,,,,,,,,,,,,318.9259999046335,,response,,,,100,,,,,,,Space,keypress(Space),,,,,,,,-- --- ---- --- ------ ----- ------- ---- -- --- ------- --<br>issuing ---------- ------ -- ----- -- ----- -- ---- ------<br>--- ----- --- --- ------ -------- ----- --- ------ ----- --<br>----- ----- ---------- --- --- ------ ------ ---- -- ------<br>------- --- ------ ----- --- ---- ------- -- ---- --- --<br>------- ------,231078.09999990463,231077.09999990463,230741.514,230754.20000004768,230758.174,231091.443,,12,issuing
screen,html.Screen,2_1_1_1_13,2022-02-02T13:31:42.177Z,,,,,,,,,,,,,,,,,54,,,,,,,,,,,,,,263.7570000476844,,response,,,,100,,,,,,,Space,keypress(Space),,,,,,,,-- --- ---- --- ------ ----- ------- ---- -- --- ------- --<br>------- government ------ -- ----- -- ----- -- ---- ------<br>--- ----- --- --- ------ -------- ----- --- ------ ----- --<br>----- ----- ---------- --- --- ------ ------ ---- -- ------<br>------- --- ------ ----- --- ---- ------- -- ---- --- --<br>------- ------,231356.29999995232,231355.20000004768,231074.783,231078.29999995232,231091.443,231358.021,,13,government
screen,html.Screen,2_1_1_1_14,2022-02-02T13:31:42.448Z,,,,,,,,,,,,,,,,,54,,,,,,,,,,,,,,267.8790000953595,,response,,,,100,,,,,,,Space,keypress(Space),,,,,,,,-- --- ---- --- ------ ----- ------- ---- -- --- ------- --<br>------- ---------- bonds. -- ----- -- ----- -- ---- ------<br>--- ----- --- --- ------ -------- ----- --- ------ ----- --<br>----- ----- ---------- --- --- ------ ------ ---- -- ------<br>------- --- ------ ----- --- ---- ------- -- ---- --- --<br>------- ------,231626.90000009537,231625.90000009537,231341.361,231356.5,231358.021,231641.26,,14,bonds.
screen,html.Screen,2_1_1_1_15,2022-02-02T13:31:42.896Z,,,,,,,,,,,,,,,,,54,,,,,,,,,,,,,,433.03999995230697,,response,,,,100,,,,,,,Space,keypress(Space),,,,,,,,-- --- ---- --- ------ ----- ------- ---- -- --- ------- --<br>------- ---------- ------ In ----- -- ----- -- ---- ------<br>--- ----- --- --- ------ -------- ----- --- ------ ----- --<br>----- ----- ---------- --- --- ------ ------ ---- -- ------<br>------- --- ------ ----- --- ---- ------- -- ---- --- --<br>------- ------,232075.70000004768,232074.29999995232,231624.6,231627.20000004768,231641.26,232091.109,,15,In
screen,html.Screen,2_1_1_1_16,2022-02-02T13:31:43.156Z,,,,,,,,,,,,,,,,,54,,,,,,,,,,,,,,243.39100000000326,,response,,,,100,,,,,,,Space,keypress(Space),,,,,,,,"-- --- ---- --- ------ ----- ------- ---- -- --- ------- --<br>------- ---------- ------ -- 1727, -- ----- -- ---- ------<br>--- ----- --- --- ------ -------- ----- --- ------ ----- --<br>----- ----- ---------- --- --- ------ ------ ---- -- ------<br>------- --- ------ ----- --- ---- ------- -- ---- --- --<br>------- ------",232334.90000009537,232334.5,232074.449,232076,232091.109,232340.982,,16,"1727,"
screen,html.Screen,2_1_1_1_17,2022-02-02T13:31:43.666Z,,,,,,,,,,,,,,,,,54,,,,,,,,,,,,,,503.6179999046435,,response,,,,100,,,,,,,Space,keypress(Space),,,,,,,,-- --- ---- --- ------ ----- ------- ---- -- --- ------- --<br>------- ---------- ------ -- ----- in ----- -- ---- ------<br>--- ----- --- --- ------ -------- ----- --- ------ ----- --<br>----- ----- ---------- --- --- ------ ------ ---- -- ------<br>------- --- ------ ----- --- ---- ------- -- ---- --- --<br>------- ------,232845,232844.59999990463,232324.322,232335,232340.982,232857.792,,17,in
screen,html.Screen,2_1_1_1_18,2022-02-02T13:31:44.027Z,,,,,,,,,,,,,,,,,54,,,,,,,,,,,,,,347.408000047697,,response,,,,100,,,,,,,Space,keypress(Space),,,,,,,,-- --- ---- --- ------ ----- ------- ---- -- --- ------- --<br>------- ---------- ------ -- ----- -- order -- ---- ------<br>--- ----- --- --- ------ -------- ----- --- ------ ----- --<br>----- ----- ---------- --- --- ------ ------ ---- -- ------<br>------- --- ------ ----- --- ---- ------- -- ---- --- --<br>------- ------,233206.09999990463,233205.20000004768,232841.132,232845.09999990463,232857.792,233224.031,,18,order
screen,html.Screen,2_1_1_1_19,2022-02-02T13:31:44.306Z,,,,,,,,,,,,,,,,,54,,,,,,,,,,,,,,260.3690000953793,,response,,,,100,,,,,,,Space,keypress(Space),,,,,,,,-- --- ---- --- ------ ----- ------- ---- -- --- ------- --<br>------- ---------- ------ -- ----- -- ----- to ---- ------<br>--- ----- --- --- ------ -------- ----- --- ------ ----- --<br>----- ----- ---------- --- --- ------ ------ ---- -- ------<br>------- --- ------ ----- --- ---- ------- -- ---- --- --<br>------- ------,233485.40000009537,233484.40000009537,233207.371,233206.40000009537,233224.031,233490.667,,19,to
screen,html.Screen,2_1_1_1_20,2022-02-02T13:31:44.540Z,,,,,,,,,,,,,,,,,54,,,,,,,,,,,,,,227.63299995232956,,response,,,,100,,,,,,,Space,keypress(Space),,,,,,,,-- --- ---- --- ------ ----- ------- ---- -- --- ------- --<br>------- ---------- ------ -- ----- -- ----- -- save ------<br>--- ----- --- --- ------ -------- ----- --- ------ ----- --<br>----- ----- ---------- --- --- ------ ------ ---- -- ------<br>------- --- ------ ----- --- ---- ------- -- ---- --- --<br>------- ------,233719.40000009537,233718.29999995232,233474.007,233485.70000004768,233490.667,233723.896,,20,save
screen,html.Screen,2_1_1_1_21,2022-02-02T13:31:44.836Z,,,,,,,,,,,,,,,,,54,,,,,,,,,,,,,,290.3040000476758,,response,,,,100,,,,,,,Space,keypress(Space),,,,,,,,"-- --- ---- --- ------ ----- ------- ---- -- --- ------- --<br>------- ---------- ------ -- ----- -- ----- -- ---- money,<br>--- ----- --- --- ------ -------- ----- --- ------ ----- --<br>----- ----- ---------- --- --- ------ ------ ---- -- ------<br>------- --- ------ ----- --- ---- ------- -- ---- --- --<br>------- ------",234015.20000004768,234014.20000004768,233707.236,233719.70000004768,233723.896,234023.745,,21,"money,"
screen,html.Screen,2_1_1_1_22,2022-02-02T13:31:45.213Z,,,,,,,,,,,,,,,,,54,,,,,,,,,,,,,,367.9550000476884,,response,,,,100,,,,,,,Space,keypress(Space),,,,,,,,-- --- ---- --- ------ ----- ------- ---- -- --- ------- --<br>------- ---------- ------ -- ----- -- ----- -- ---- ------<br>the ----- --- --- ------ -------- ----- --- ------ ----- --<br>----- ----- ---------- --- --- ------ ------ ---- -- ------<br>------- --- ------ ----- --- ---- ------- -- ---- --- --<br>------- ------,234392.70000004768,234391.70000004768,234007.085,234015.5,234023.745,234407.009,,22,the
screen,html.Screen,2_1_1_1_23,2022-02-02T13:31:45.488Z,,,,,,,,,,,,,,,,,54,,,,,,,,,,,,,,258.79099995232536,,response,,,,100,,,,,,,Space,keypress(Space),,,,,,,,-- --- ---- --- ------ ----- ------- ---- -- --- ------- --<br>------- ---------- ------ -- ----- -- ----- -- ---- ------<br>--- state --- --- ------ -------- ----- --- ------ ----- --<br>----- ----- ---------- --- --- ------ ------ ---- -- ------<br>------- --- ------ ----- --- ---- ------- -- ---- --- --<br>------- ------,234666.90000009537,234665.79999995232,234390.349,234393,234407.009,234673.52,,23,state
screen,html.Screen,2_1_1_1_24,2022-02-02T13:31:45.710Z,,,,,,,,,,,,,,,,,54,,,,,,,,,,,,,,215.3800000953779,,response,,,,100,,,,,,,Space,keypress(Space),,,,,,,,-- --- ---- --- ------ ----- ------- ---- -- --- ------- --<br>------- ---------- ------ -- ----- -- ----- -- ---- ------<br>--- ----- cut --- ------ -------- ----- --- ------ ----- --<br>----- ----- ---------- --- --- ------ ------ ---- -- ------<br>------- --- ------ ----- --- ---- ------- -- ---- --- --<br>------- ------,234889.20000004768,234888.90000009537,234656.86,234667.09999990463,234673.52,234890.161,,24,cut
screen,html.Screen,2_1_1_1_25,2022-02-02T13:31:46.101Z,,,,,,,,,,,,,,,,,54,,,,,,,,,,,,,,389.8390000000072,,response,,,,100,,,,,,,Space,keypress(Space),,,,,,,,-- --- ---- --- ------ ----- ------- ---- -- --- ------- --<br>------- ---------- ------ -- ----- -- ----- -- ---- ------<br>--- ----- --- the ------ -------- ----- --- ------ ----- --<br>----- ----- ---------- --- --- ------ ------ ---- -- ------<br>------- --- ------ ----- --- ---- ------- -- ---- --- --<br>------- ------,235280.40000009537,235280,234873.501,234889.40000009537,234890.161,235289.922,,25,the
screen,html.Screen,2_1_1_1_26,2022-02-02T13:31:46.402Z,,,,,,,,,,,,,,,,,54,,,,,,,,,,,,,,290.1779999046412,,response,,,,100,,,,,,,Space,keypress(Space),,,,,,,,-- --- ---- --- ------ ----- ------- ---- -- --- ------- --<br>------- ---------- ------ -- ----- -- ----- -- ---- ------<br>--- ----- --- --- bonds' -------- ----- --- ------ ----- --<br>----- ----- ---------- --- --- ------ ------ ---- -- ------<br>------- --- ------ ----- --- ---- ------- -- ---- --- --<br>------- ------,235581.09999990463,235580.09999990463,235273.262,235280.5,235289.922,235590.22,,26,bonds'
screen,html.Screen,2_1_1_1_27,2022-02-02T13:31:46.757Z,,,,,,,,,,,,,,,,,54,,,,,,,,,,,,,,344.68000009536627,,response,,,,100,,,,,,,Space,keypress(Space),,,,,,,,-- --- ---- --- ------ ----- ------- ---- -- --- ------- --<br>------- ---------- ------ -- ----- -- ----- -- ---- ------<br>--- ----- --- --- ------ interest ----- --- ------ ----- --<br>----- ----- ---------- --- --- ------ ------ ---- -- ------<br>------- --- ------ ----- --- ---- ------- -- ---- --- --<br>------- ------,235935.79999995232,235934.90000009537,235573.56,235581.40000009537,235590.22,235939.822,,27,interest
screen,html.Screen,2_1_1_1_28,2022-02-02T13:31:47.102Z,,,,,,,,,,,,,,,,,54,,,,,,,,,,,,,,340.4779999523307,,response,,,,100,,,,,,,Space,keypress(Space),,,,,,,,-- --- ---- --- ------ ----- ------- ---- -- --- ------- --<br>------- ---------- ------ -- ----- -- ----- -- ---- ------<br>--- ----- --- --- ------ -------- rate. --- ------ ----- --<br>----- ----- ---------- --- --- ------ ------ ---- -- ------<br>------- --- ------ ----- --- ---- ------- -- ---- --- --<br>------- ------,236281.09999990463,236280.29999995232,235923.162,235936.09999990463,235939.822,236289.709,,28,rate.
screen,html.Screen,2_1_1_1_29,2022-02-02T13:31:47.556Z,,,,,,,,,,,,,,,,,54,,,,,,,,,,,,,,444.29099999999744,,response,,,,100,,,,,,,Space,keypress(Space),,,,,,,,-- --- ---- --- ------ ----- ------- ---- -- --- ------- --<br>------- ---------- ------ -- ----- -- ----- -- ---- ------<br>--- ----- --- --- ------ -------- ----- The ------ ----- --<br>----- ----- ---------- --- --- ------ ------ ---- -- ------<br>------- --- ------ ----- --- ---- ------- -- ---- --- --<br>------- ------,236734.90000009537,236734,236273.049,236281.29999995232,236289.709,236739.502,,29,The
screen,html.Screen,2_1_1_1_30,2022-02-02T13:31:47.839Z,,,,,,,,,,,,,,,,,54,,,,,,,,,,,,,,277.4979999999923,,response,,,,100,,,,,,,Space,keypress(Space),,,,,,,,-- --- ---- --- ------ ----- ------- ---- -- --- ------- --<br>------- ---------- ------ -- ----- -- ----- -- ---- ------<br>--- ----- --- --- ------ -------- ----- --- market ----- --<br>----- ----- ---------- --- --- ------ ------ ---- -- ------<br>------- --- ------ ----- --- ---- ------- -- ---- --- --<br>------- ------,237018,237017,236722.842,236735.09999990463,236739.502,237022.79,,30,market
screen,html.Screen,2_1_1_1_31,2022-02-02T13:31:48.104Z,,,,,,,,,,,,,,,,,54,,,,,,,,,,,,,,259.41000004767557,,response,,,,100,,,,,,,Space,keypress(Space),,,,,,,,-- --- ---- --- ------ ----- ------- ---- -- --- ------- --<br>------- ---------- ------ -- ----- -- ----- -- ---- ------<br>--- ----- --- --- ------ -------- ----- --- ------ value --<br>----- ----- ---------- --- --- ------ ------ ---- -- ------<br>------- --- ------ ----- --- ---- ------- -- ---- --- --<br>------- ------,237282.90000009537,237282.20000004768,237006.13,237018.20000004768,237022.79,237289.306,,31,value
screen,html.Screen,2_1_1_1_32,2022-02-02T13:31:48.435Z,,,,,,,,,,,,,,,,,54,,,,,,,,,,,,,,320.8940000476723,,response,,,,100,,,,,,,Space,keypress(Space),,,,,,,,-- --- ---- --- ------ ----- ------- ---- -- --- ------- --<br>------- ---------- ------ -- ----- -- ----- -- ---- ------<br>--- ----- --- --- ------ -------- ----- --- ------ ----- of<br>----- ----- ---------- --- --- ------ ------ ---- -- ------<br>------- --- ------ ----- --- ---- ------- -- ---- --- --<br>------- ------,237614.5,237610.20000004768,237272.646,237283.09999990463,237289.306,237622.562,,32,of
screen,html.Screen,2_1_1_1_33,2022-02-02T13:31:48.762Z,,,,,,,,,,,,,,,,,54,,,,,,,,,,,,,,317.73799995231093,,response,,,,100,,,,,,,Space,keypress(Space),,,,,,,,-- --- ---- --- ------ ----- ------- ---- -- --- ------- --<br>------- ---------- ------ -- ----- -- ----- -- ---- ------<br>--- ----- --- --- ------ -------- ----- --- ------ ----- --<br>these ----- ---------- --- --- ------ ------ ---- -- ------<br>------- --- ------ ----- --- ---- ------- -- ---- --- --<br>------- ------,237941.29999995232,237940.29999995232,237605.902,237614.79999995232,237622.562,237955.799,,33,these
screen,html.Screen,2_1_1_1_34,2022-02-02T13:31:49.008Z,,,,,,,,,,,,,,,,,54,,,,,,,,,,,,,,229.90100004768465,,response,,,,100,,,,,,,Space,keypress(Space),,,,,,,,-- --- ---- --- ------ ----- ------- ---- -- --- ------- --<br>------- ---------- ------ -- ----- -- ----- -- ---- ------<br>--- ----- --- --- ------ -------- ----- --- ------ ----- --<br>----- bonds ---------- --- --- ------ ------ ---- -- ------<br>------- --- ------ ----- --- ---- ------- -- ---- --- --<br>------- ------,238186.70000004768,238185.70000004768,237939.139,237941.59999990463,237955.799,238189.039,,34,bonds
screen,html.Screen,2_1_1_1_35,2022-02-02T13:31:49.305Z,,,,,,,,,,,,,,,,,54,,,,,,,,,,,,,,294.46100000001024,,response,,,,100,,,,,,,Space,keypress(Space),,,,,,,,"-- --- ---- --- ------ ----- ------- ---- -- --- ------- --<br>------- ---------- ------ -- ----- -- ----- -- ---- ------<br>--- ----- --- --- ------ -------- ----- --- ------ ----- --<br>----- ----- plummeted, --- --- ------ ------ ---- -- ------<br>------- --- ------ ----- --- ---- ------- -- ---- --- --<br>------- ------",238484.5,238483.5,238172.379,238187,238189.039,238488.974,,35,"plummeted,"
screen,html.Screen,2_1_1_1_36,2022-02-02T13:31:49.650Z,,,,,,,,,,,,,,,,,54,,,,,,,,,,,,,,339.0260000000126,,response,,,,100,,,,,,,Space,keypress(Space),,,,,,,,-- --- ---- --- ------ ----- ------- ---- -- --- ------- --<br>------- ---------- ------ -- ----- -- ----- -- ---- ------<br>--- ----- --- --- ------ -------- ----- --- ------ ----- --<br>----- ----- ---------- and --- ------ ------ ---- -- ------<br>------- --- ------ ----- --- ---- ------- -- ---- --- --<br>------- ------,238829.09999990463,238828,238472.314,238484.70000004768,238488.974,238838.802,,36,and
screen,html.Screen,2_1_1_1_37,2022-02-02T13:31:49.959Z,,,,,,,,,,,,,,,,,54,,,,,,,,,,,,,,298.5980000953714,,response,,,,100,,,,,,,Space,keypress(Space),,,,,,,,-- --- ---- --- ------ ----- ------- ---- -- --- ------- --<br>------- ---------- ------ -- ----- -- ----- -- ---- ------<br>--- ----- --- --- ------ -------- ----- --- ------ ----- --<br>----- ----- ---------- --- the ------ ------ ---- -- ------<br>------- --- ------ ----- --- ---- ------- -- ---- --- --<br>------- ------,239138.29999995232,239137.40000009537,238822.142,238829.29999995232,238838.802,239155.334,,37,the
screen,html.Screen,2_1_1_1_38,2022-02-02T13:31:50.257Z,,,,,,,,,,,,,,,,,54,,,,,,,,,,,,,,279.36600004768115,,response,,,,100,,,,,,,Space,keypress(Space),,,,,,,,-- --- ---- --- ------ ----- ------- ---- -- --- ------- --<br>------- ---------- ------ -- ----- -- ----- -- ---- ------<br>--- ----- --- --- ------ -------- ----- --- ------ ----- --<br>----- ----- ---------- --- --- market ------ ---- -- ------<br>------- --- ------ ----- --- ---- ------- -- ---- --- --<br>------- ------,239435.79999995232,239434.70000004768,239138.674,239138.59999990463,239155.334,239438.636,,38,market
screen,html.Screen,2_1_1_1_39,2022-02-02T13:31:50.536Z,,,,,,,,,,,,,,,,,54,,,,,,,,,,,,,,275.46399990463397,,response,,,,100,,,,,,,Space,keypress(Space),,,,,,,,-- --- ---- --- ------ ----- ------- ---- -- --- ------- --<br>------- ---------- ------ -- ----- -- ----- -- ---- ------<br>--- ----- --- --- ------ -------- ----- --- ------ ----- --<br>----- ----- ---------- --- --- ------ became ---- -- ------<br>------- --- ------ ----- --- ---- ------- -- ---- --- --<br>------- ------,239715.29999995232,239714.09999990463,239421.976,239436.09999990463,239438.636,239721.832,,39,became
screen,html.Screen,2_1_1_1_40,2022-02-02T13:31:50.836Z,,,,,,,,,,,,,,,,,54,,,,,,,,,,,,,,292.7679999046377,,response,,,,100,,,,,,,Space,keypress(Space),,,,,,,,-- --- ---- --- ------ ----- ------- ---- -- --- ------- --<br>------- ---------- ------ -- ----- -- ----- -- ---- ------<br>--- ----- --- --- ------ -------- ----- --- ------ ----- --<br>----- ----- ---------- --- --- ------ ------ wary -- ------<br>------- --- ------ ----- --- ---- ------- -- ---- --- --<br>------- ------,240015.59999990463,240014.59999990463,239705.172,239715.59999990463,239721.832,240021.789,,40,wary
screen,html.Screen,2_1_1_1_41,2022-02-02T13:31:51.149Z,,,,,,,,,,,,,,,,,54,,,,,,,,,,,,,,305.21100000001024,,response,,,,100,,,,,,,Space,keypress(Space),,,,,,,,-- --- ---- --- ------ ----- ------- ---- -- --- ------- --<br>------- ---------- ------ -- ----- -- ----- -- ---- ------<br>--- ----- --- --- ------ -------- ----- --- ------ ----- --<br>----- ----- ---------- --- --- ------ ------ ---- of ------<br>------- --- ------ ----- --- ---- ------- -- ---- --- --<br>------- ------,240328.09999990463,240327,240005.129,240015.79999995232,240021.789,240338.324,,41,of
screen,html.Screen,2_1_1_1_42,2022-02-02T13:31:51.423Z,,,,,,,,,,,,,,,,,54,,,,,,,,,,,,,,262.67600000000675,,response,,,,100,,,,,,,Space,keypress(Space),,,,,,,,-- --- ---- --- ------ ----- ------- ---- -- --- ------- --<br>------- ---------- ------ -- ----- -- ----- -- ---- ------<br>--- ----- --- --- ------ -------- ----- --- ------ ----- --<br>----- ----- ---------- --- --- ------ ------ ---- -- French<br>------- --- ------ ----- --- ---- ------- -- ---- --- --<br>------- ------,240602,240601,240321.664,240328.40000009537,240338.324,240604.849,,42,French
screen,html.Screen,2_1_1_1_43,2022-02-02T13:31:51.759Z,,,,,,,,,,,,,,,,,54,,,,,,,,,,,,,,332.05100009538,,response,,,,100,,,,,,,Space,keypress(Space),,,,,,,,-- --- ---- --- ------ ----- ------- ---- -- --- ------- --<br>------- ---------- ------ -- ----- -- ----- -- ---- ------<br>--- ----- --- --- ------ -------- ----- --- ------ ----- --<br>----- ----- ---------- --- --- ------ ------ ---- -- ------<br>credit. --- ------ ----- --- ---- ------- -- ---- --- --<br>------- ------,240938,240936.90000009537,240588.189,240602.40000009537,240604.849,240954.786,,43,credit.
screen,html.Screen,2_1_1_1_44,2022-02-02T13:31:52.085Z,,,,,,,,,,,,,,,,,54,,,,,,,,,,,,,,308.61400009537465,,response,,,,100,,,,,,,Space,keypress(Space),,,,,,,,-- --- ---- --- ------ ----- ------- ---- -- --- ------- --<br>------- ---------- ------ -- ----- -- ----- -- ---- ------<br>--- ----- --- --- ------ -------- ----- --- ------ ----- --<br>----- ----- ---------- --- --- ------ ------ ---- -- ------<br>------- The ------ ----- --- ---- ------- -- ---- --- --<br>------- ------,241264.40000009537,241263.40000009537,240938.126,240938.40000009537,240954.786,241271.368,,44,The
screen,html.Screen,2_1_1_1_45,2022-02-02T13:31:52.386Z,,,,,,,,,,,,,,,,,54,,,,,,,,,,,,,,293.2319999046449,,response,,,,100,,,,,,,Space,keypress(Space),,,,,,,,-- --- ---- --- ------ ----- ------- ---- -- --- ------- --<br>------- ---------- ------ -- ----- -- ----- -- ---- ------<br>--- ----- --- --- ------ -------- ----- --- ------ ----- --<br>----- ----- ---------- --- --- ------ ------ ---- -- ------<br>------- --- French ----- --- ---- ------- -- ---- --- --<br>------- ------,241565.59999990463,241564.59999990463,241254.708,241264.59999990463,241271.368,241571.24,,45,French
screen,html.Screen,2_1_1_1_46,2022-02-02T13:31:52.661Z,,,,,,,,,,,,,,,,,54,,,,,,,,,,,,,,267.3599999046419,,response,,,,100,,,,,,,Space,keypress(Space),,,,,,,,-- --- ---- --- ------ ----- ------- ---- -- --- ------- --<br>------- ---------- ------ -- ----- -- ----- -- ---- ------<br>--- ----- --- --- ------ -------- ----- --- ------ ----- --<br>----- ----- ---------- --- --- ------ ------ ---- -- ------<br>------- --- ------ state --- ---- ------- -- ---- --- --<br>------- ------,241839.90000009537,241838.59999990463,241554.58,241565.90000009537,241571.24,241854.443,,46,state
screen,html.Screen,2_1_1_1_47,2022-02-02T13:31:52.952Z,,,,,,,,,,,,,,,,,54,,,,,,,,,,,,,,275.95700009536813,,response,,,,100,,,,,,,Space,keypress(Space),,,,,,,,-- --- ---- --- ------ ----- ------- ---- -- --- ------- --<br>------- ---------- ------ -- ----- -- ----- -- ---- ------<br>--- ----- --- --- ------ -------- ----- --- ------ ----- --<br>----- ----- ---------- --- --- ------ ------ ---- -- ------<br>------- --- ------ ----- was ---- ------- -- ---- --- --<br>------- ------,242131.40000009537,242130.40000009537,241837.783,241840.20000004768,241854.443,242137.738,,47,was
screen,html.Screen,2_1_1_1_48,2022-02-02T13:31:53.294Z,,,,,,,,,,,,,,,,,54,,,,,,,,,,,,,,334.7619999999879,,response,,,,100,,,,,,,Space,keypress(Space),,,,,,,,-- --- ---- --- ------ ----- ------- ---- -- --- ------- --<br>------- ---------- ------ -- ----- -- ----- -- ---- ------<br>--- ----- --- --- ------ -------- ----- --- ------ ----- --<br>----- ----- ---------- --- --- ------ ------ ---- -- ------<br>------- --- ------ ----- --- left ------- -- ---- --- --<br>------- ------,242473.5,242472.5,242121.078,242131.70000004768,242137.738,242487.554,,48,left
screen,html.Screen,2_1_1_1_49,2022-02-02T13:31:53.527Z,,,,,,,,,,,,,,,,,54,,,,,,,,,,,,,,217.3460000953637,,response,,,,100,,,,,,,Space,keypress(Space),,,,,,,,-- --- ---- --- ------ ----- ------- ---- -- --- ------- --<br>------- ---------- ------ -- ----- -- ----- -- ---- ------<br>--- ----- --- --- ------ -------- ----- --- ------ ----- --<br>----- ----- ---------- --- --- ------ ------ ---- -- ------<br>------- --- ------ ----- --- ---- without -- ---- --- --<br>------- ------,242706.09999990463,242704.90000009537,242470.894,242473.70000004768,242487.554,242720.854,,49,without
screen,html.Screen,2_1_1_1_50,2022-02-02T13:31:53.833Z,,,,,,,,,,,,,,,,,54,,,,,,,,,,,,,,291.2459999046405,,response,,,,100,,,,,,,Space,keypress(Space),,,,,,,,-- --- ---- --- ------ ----- ------- ---- -- --- ------- --<br>------- ---------- ------ -- ----- -- ----- -- ---- ------<br>--- ----- --- --- ------ -------- ----- --- ------ ----- --<br>----- ----- ---------- --- --- ------ ------ ---- -- ------<br>------- --- ------ ----- --- ---- ------- an ---- --- --<br>------- ------,243012.40000009537,243012.09999990463,242704.194,242706.40000009537,242720.854,243020.743,,50,an
screen,html.Screen,2_1_1_1_51,2022-02-02T13:31:54.185Z,,,,,,,,,,,,,,,,,54,,,,,,,,,,,,,,342.25700000001234,,response,,,,100,,,,,,,Space,keypress(Space),,,,,,,,-- --- ---- --- ------ ----- ------- ---- -- --- ------- --<br>------- ---------- ------ -- ----- -- ----- -- ---- ------<br>--- ----- --- --- ------ -------- ----- --- ------ ----- --<br>----- ----- ---------- --- --- ------ ------ ---- -- ------<br>------- --- ------ ----- --- ---- ------- -- easy --- --<br>------- ------,243364.29999995232,243363,243004.083,243012.40000009537,243020.743,243370.598,,51,easy
screen,html.Screen,2_1_1_1_52,2022-02-02T13:31:54.423Z,,,,,,,,,,,,,,,,,54,,,,,,,,,,,,,,230.40200000000186,,response,,,,100,,,,,,,Space,keypress(Space),,,,,,,,-- --- ---- --- ------ ----- ------- ---- -- --- ------- --<br>------- ---------- ------ -- ----- -- ----- -- ---- ------<br>--- ----- --- --- ------ -------- ----- --- ------ ----- --<br>----- ----- ---------- --- --- ------ ------ ---- -- ------<br>------- --- ------ ----- --- ---- ------- -- ---- way --<br>------- ------,243601.90000009537,243601,243353.938,243364.70000004768,243370.598,243603.881,,52,way
screen,html.Screen,2_1_1_1_53,2022-02-02T13:31:54.749Z,,,,,,,,,,,,,,,,,54,,,,,,,,,,,,,,323.31900004768977,,response,,,,100,,,,,,,Space,keypress(Space),,,,,,,,-- --- ---- --- ------ ----- ------- ---- -- --- ------- --<br>------- ---------- ------ -- ----- -- ----- -- ---- ------<br>--- ----- --- --- ------ -------- ----- --- ------ ----- --<br>----- ----- ---------- --- --- ------ ------ ---- -- ------<br>------- --- ------ ----- --- ---- ------- -- ---- --- of<br>------- ------,243928.09999990463,243927.20000004768,243587.221,243602.09999990463,243603.881,243937.054,,53,of
screen,html.Screen,2_1_1_1_54,2022-02-02T13:31:55.016Z,,,,,,,,,,,,,,,,,54,,,,,,,,,,,,,,257.14600004768,,response,,,,100,,,,,,,Space,keypress(Space),,,,,,,,-- --- ---- --- ------ ----- ------- ---- -- --- ------- --<br>------- ---------- ------ -- ----- -- ----- -- ---- ------<br>--- ----- --- --- ------ -------- ----- --- ------ ----- --<br>----- ----- ---------- --- --- ------ ------ ---- -- ------<br>------- --- ------ ----- --- ---- ------- -- ---- --- --<br>raising ------,244195.29999995232,244194.20000004768,243920.394,243928.40000009537,243937.054,244203.681,,54,raising
screen,html.Screen,2_1_1_1_55,2022-02-02T13:31:55.438Z,,,,,,,,,,,,,,,,,54,,,,,,,,,,,,,,412.3189999999886,,response,,,,100,,,,,,,Space,keypress(Space),,,,,,,,-- --- ---- --- ------ ----- ------- ---- -- --- ------- --<br>------- ---------- ------ -- ----- -- ----- -- ---- ------<br>--- ----- --- --- ------ -------- ----- --- ------ ----- --<br>----- ----- ---------- --- --- ------ ------ ---- -- ------<br>------- --- ------ ----- --- ---- ------- -- ---- --- --<br>------- money.,244617,244616,244187.021,244195.5,244203.681,244620.421,,55,money.
Item 100,flow.Loop,2_1_1_1,2022-02-02T13:31:55.438Z,,,,,,,,,,,,,,,,,,,,,,,,,,,,,,,23021.428000000014,,completion,,,,,B,,,,,,,,,,,silence,,,,,244617.40000009537,244616,221577.912,221579.90000009537,221594.572,244620.421,,,
Question 1,html.Screen,2_1_1_2,2022-02-02T13:31:57.843Z,,,,,,,,,,,,,,,,,,,,,,,,,,,,true,TRUE,,2400.7790000476816,,response,,,,100,B,,,,,,TRUE,click #choice-1,,,,silence,,,,,247021.90000009537,247021.20000004768,244603.761,244617.59999990463,244620.421,247036.271,,,
Question 2,html.Screen,2_1_1_3,2022-02-02T13:31:59.904Z,,,,,,,,,,,,,,,,,,,,,,,,,,,,true,FALSE,,2045.5289999523084,,response,,,,100,B,,,,,,FALSE,click #choice-2,,,,silence,,,,,249083.40000009537,249081.79999995232,247019.611,247022,247036.271,249102.246,,,
Item 100,flow.Sequence,2_1_1,2022-02-02T13:31:59.904Z,,,,,,,,,,,,,,,,,,,,,,,,,,,,,,,37483.6599999523,,completion,,,,,,,,,,,,,,,,,,,,,249083.70000004768,249081.79999995232,211581.48,211588.40000009537,211598.14,249102.246,,,
End of Practice,html.Page,2_1_2,2022-02-02T13:32:05.762Z,,,,,,,,,,,,,,,,,,,,,,,,,,,,,,,5838.154000095354,,form submission,,,,,,,,,,,,,,,,,,,,,254940.79999995232,254940.40000009537,249085.586,249083.79999995232,249102.246,254950.059,,,
Practice,flow.Sequence,2_1,2022-02-02T13:32:05.762Z,,,,,,,,,,,,,,,,,,,,,,,,,,,,,,,93225.60900009537,,completion,,,,,,,,,,,,,,,,,,,,,254941,254940.40000009537,161698.131,161702.70000004768,161714.791,254950.059,,,
Trap_instruction,html.Page,2_2_0,2022-02-02T13:32:11.152Z,,,,,,,,,,,,,,,,,,,,,,,,,,,,,,,5380.841000095359,,form submission,,,,,,,,,,,,,,,,,,,,,260331.09999990463,260330.90000009537,254933.399,254941.20000004768,254950.059,260348.29,,,
trap_trial,html.Screen,2_2_1,2022-02-02T13:32:14.913Z,,,,,,,,,,,,,,,,,,,,,,,,,,,,true,1,,3743.6100000953593,,response,,,,,,,,,,,1,click #choice-1,,,,,,,,,264092.2999999523,264091.90000009537,260331.63,260331.20000004768,260348.29,264113.58,,,
end of trap trial,html.Page,2_2_2,2022-02-02T13:32:16.918Z,,,,,,,,,,,,,,,,,,,,,,,,,,,,,,,1983.6200000476674,,form submission,,,,,,,,,,,,,,,,,,,,,266097.5,266097.2000000477,264096.92,264092.5,264113.58,266112.972,,,
Trap 1,flow.Sequence,2_2,2022-02-02T13:32:16.919Z,,,,,,,,,,,,,,,,,,,,,,,,,,,,,,,11147.141000047675,,completion,,,,,,,,,,,,,,,,,,,,,266097.7000000477,266097.2000000477,254933.399,254941.09999990463,254950.059,266112.972,,,
Standby,html.Page,2_3_0,2022-02-02T13:32:24.917Z,,,,,,,,,,,,,,,,,,,,,,,,,,,,,,,7996.790999999968,,timeout,,,,,,,,,,,,,,,,,,,,,274095.59999990463,274093.103,266096.312,266097.7999999523,266112.972,274109.763,,,
Holding screen,html.Screen,2_3_1_0_0,2022-02-02T13:32:31.914Z,,,,,,,,,,,,,,,,,,,,,,,,,,,,,,,6998.097999999998,,timeout,,,,,,,,,,,,,,,,,,,,,281092.7000000477,281091.201,274093.103,274096,274109.763,281107.861,,,
screen,html.Screen,2_3_1_0_1_0,2022-02-02T13:32:32.560Z,,,,,,,,,,,,,,,,,48,,,,,,,,,,,,,,629.938999952341,,response,,,,10,B,,,,,,Space,keypress(Space),,,,lyrical,,,,As -- --- ------ ------- --------- ----------- --------<br>--------- -------- --- ------- -- ------- ---- -- ------<br>-- --- -------- -------- ---------- ---- ---- ---- ------<br>-- --------- -- ---- -- --- -- --- ------- -- - -----<br>---------- -- -- -- ---- ----- -- ------ -- --- ------<br>-------,281739.09999990463,281737.7999999523,281091.201,281093.09999990463,281107.861,281740.922,,0,As
screen,html.Screen,2_3_1_0_1_1,2022-02-02T13:32:32.859Z,,,,,,,,,,,,,,,,,48,,,,,,,,,,,,,,296.0779999999795,,response,,,,10,B,,,,,,Space,keypress(Space),,,,lyrical,,,,-- in --- ------ ------- --------- ----------- --------<br>--------- -------- --- ------- -- ------- ---- -- ------<br>-- --- -------- -------- ---------- ---- ---- ---- ------<br>-- --------- -- ---- -- --- -- --- ------- -- - -----<br>---------- -- -- -- ---- ----- -- ------ -- --- ------<br>-------,282038,282037,281724.262,281739.59999990463,281740.922,282040.932,,1,in
screen,html.Screen,2_3_1_0_1_2,2022-02-02T13:32:33.120Z,,,,,,,,,,,,,,,,,48,,,,,,,,,,,,,,257.3679999523447,,response,,,,10,B,,,,,,Space,keypress(Space),,,,lyrical,,,,-- -- the ------ ------- --------- ----------- --------<br>--------- -------- --- ------- -- ------- ---- -- ------<br>-- --- -------- -------- ---------- ---- ---- ---- ------<br>-- --------- -- ---- -- --- -- --- ------- -- - -----<br>---------- -- -- -- ---- ----- -- ------ -- --- ------<br>-------,282298.90000009537,282298.2999999523,282024.272,282038.40000009537,282040.932,282307.465,,2,the
screen,html.Screen,2_3_1_0_1_3,2022-02-02T13:32:33.402Z,,,,,,,,,,,,,,,,,48,,,,,,,,,,,,,,272.3349999522907,,response,,,,10,B,,,,,,Space,keypress(Space),,,,lyrical,,,,-- -- --- United ------- --------- ----------- --------<br>--------- -------- --- ------- -- ------- ---- -- ------<br>-- --- -------- -------- ---------- ---- ---- ---- ------<br>-- --------- -- ---- -- --- -- --- ------- -- - -----<br>---------- -- -- -- ---- ----- -- ------ -- --- ------<br>-------,282581,282579.7999999523,282290.805,282299.2999999523,282307.465,282590.712,,3,United
screen,html.Screen,2_3_1_0_1_4,2022-02-02T13:32:33.699Z,,,,,,,,,,,,,,,,,48,,,,,,,,,,,,,,287.1880000953679,,response,,,,10,B,,,,,,Space,keypress(Space),,,,lyrical,,,,"-- -- --- ------ States, --------- ----------- --------<br>--------- -------- --- ------- -- ------- ---- -- ------<br>-- --- -------- -------- ---------- ---- ---- ---- ------<br>-- --------- -- ---- -- --- -- --- ------- -- - -----<br>---------- -- -- -- ---- ----- -- ------ -- --- ------<br>-------",282878.2999999523,282877.90000009537,282574.052,282581.2999999523,282590.712,282890.67,,4,"States,"
screen,html.Screen,2_3_1_0_1_5,2022-02-02T13:32:34.067Z,,,,,,,,,,,,,,,,,48,,,,,,,,,,,,,,354.23000009538373,,response,,,,10,B,,,,,,Space,keypress(Space),,,,lyrical,,,,-- -- --- ------ ------- Colombian ----------- --------<br>--------- -------- --- ------- -- ------- ---- -- ------<br>-- --- -------- -------- ---------- ---- ---- ---- ------<br>-- --------- -- ---- -- --- -- --- ------- -- - -----<br>---------- -- -- -- ---- ----- -- ------ -- --- ------<br>-------,283245.7000000477,283244.90000009537,282874.01,282878.40000009537,282890.67,283257.346,,5,Colombian
screen,html.Screen,2_3_1_0_1_6,2022-02-02T13:32:34.453Z,,,,,,,,,,,,,,,,,48,,,,,,,,,,,,,,373.9539999522967,,response,,,,10,B,,,,,,Space,keypress(Space),,,,lyrical,,,,-- -- --- ------ ------- --------- legislation --------<br>--------- -------- --- ------- -- ------- ---- -- ------<br>-- --- -------- -------- ---------- ---- ---- ---- ------<br>-- --------- -- ---- -- --- -- --- ------- -- - -----<br>---------- -- -- -- ---- ----- -- ------ -- --- ------<br>-------,283631.7000000477,283631.2999999523,283240.686,283245.90000009537,283257.346,283640.37,,6,legislation
screen,html.Screen,2_3_1_0_1_7,2022-02-02T13:32:34.789Z,,,,,,,,,,,,,,,,,48,,,,,,,,,,,,,,326.92999995232094,,response,,,,10,B,,,,,,Space,keypress(Space),,,,lyrical,,,,-- -- --- ------ ------- --------- ----------- requires<br>--------- -------- --- ------- -- ------- ---- -- ------<br>-- --- -------- -------- ---------- ---- ---- ---- ------<br>-- --------- -- ---- -- --- -- --- ------- -- - -----<br>---------- -- -- -- ---- ----- -- ------ -- --- ------<br>-------,283968.5,283967.2999999523,283623.71,283631.90000009537,283640.37,283973.798,,7,requires
screen,html.Screen,2_3_1_0_1_8,2022-02-02T13:32:35.194Z,,,,,,,,,,,,,,,,,48,,,,,,,,,,,,,,397.40200004767394,,response,,,,10,B,,,,,,Space,keypress(Space),,,,lyrical,,,,-- -- --- ------ ------- --------- ----------- --------<br>travelers -------- --- ------- -- ------- ---- -- ------<br>-- --- -------- -------- ---------- ---- ---- ---- ------<br>-- --------- -- ---- -- --- -- --- ------- -- - -----<br>---------- -- -- -- ---- ----- -- ------ -- --- ------<br>-------,284372.5,284371.2000000477,283957.138,283968.7999999523,283973.798,284390.11,,8,travelers
screen,html.Screen,2_3_1_0_1_9,2022-02-02T13:32:35.604Z,,,,,,,,,,,,,,,,,48,,,,,,,,,,,,,,391.89000000001397,,response,,,,10,B,,,,,,Space,keypress(Space),,,,lyrical,,,,-- -- --- ------ ------- --------- ----------- --------<br>--------- entering --- ------- -- ------- ---- -- ------<br>-- --- -------- -------- ---------- ---- ---- ---- ------<br>-- --------- -- ---- -- --- -- --- ------- -- - -----<br>---------- -- -- -- ---- ----- -- ------ -- --- ------<br>-------,284783.2000000477,284782,284373.45,284372.90000009537,284390.11,284790.006,,9,entering
screen,html.Screen,2_3_1_0_1_10,2022-02-02T13:32:35.909Z,,,,,,,,,,,,,,,,,48,,,,,,,,,,,,,,297.0939999046386,,response,,,,10,B,,,,,,Space,keypress(Space),,,,lyrical,,,,-- -- --- ------ ------- --------- ----------- --------<br>--------- -------- the ------- -- ------- ---- -- ------<br>-- --- -------- -------- ---------- ---- ---- ---- ------<br>-- --------- -- ---- -- --- -- --- ------- -- - -----<br>---------- -- -- -- ---- ----- -- ------ -- --- ------<br>-------,285088.09999990463,285087.09999990463,284773.346,284783.59999990463,284790.006,285089.894,,10,the
screen,html.Screen,2_3_1_0_1_11,2022-02-02T13:32:36.171Z,,,,,,,,,,,,,,,,,48,,,,,,,,,,,,,,259.40599995234516,,response,,,,10,B,,,,,,Space,keypress(Space),,,,lyrical,,,,-- -- --- ------ ------- --------- ----------- --------<br>--------- -------- --- country -- ------- ---- -- ------<br>-- --- -------- -------- ---------- ---- ---- ---- ------<br>-- --------- -- ---- -- --- -- --- ------- -- - -----<br>---------- -- -- -- ---- ----- -- ------ -- --- ------<br>-------,285350.40000009537,285349.2999999523,285073.234,285088.2999999523,285089.894,285356.439,,11,country
screen,html.Screen,2_3_1_0_1_12,2022-02-02T13:32:36.486Z,,,,,,,,,,,,,,,,,48,,,,,,,,,,,,,,308.16099990461953,,response,,,,10,B,,,,,,Space,keypress(Space),,,,lyrical,,,,-- -- --- ------ ------- --------- ----------- --------<br>--------- -------- --- ------- to ------- ---- -- ------<br>-- --- -------- -------- ---------- ---- ---- ---- ------<br>-- --------- -- ---- -- --- -- --- ------- -- - -----<br>---------- -- -- -- ---- ----- -- ------ -- --- ------<br>-------,285665.09999990463,285664.59999990463,285339.779,285350.7000000477,285356.439,285673.006,,12,to
screen,html.Screen,2_3_1_0_1_13,2022-02-02T13:32:36.807Z,,,,,,,,,,,,,,,,,48,,,,,,,,,,,,,,311.5939999046386,,response,,,,10,B,,,,,,Space,keypress(Space),,,,lyrical,,,,-- -- --- ------ ------- --------- ----------- --------<br>--------- -------- --- ------- -- declare ---- -- ------<br>-- --- -------- -------- ---------- ---- ---- ---- ------<br>-- --------- -- ---- -- --- -- --- ------- -- - -----<br>---------- -- -- -- ---- ----- -- ------ -- --- ------<br>-------,285985.7000000477,285984.59999990463,285656.346,285665.2000000477,285673.006,285989.572,,13,declare
screen,html.Screen,2_3_1_0_1_14,2022-02-02T13:32:37.118Z,,,,,,,,,,,,,,,,,48,,,,,,,,,,,,,,305.92800000001444,,response,,,,10,B,,,,,,Space,keypress(Space),,,,lyrical,,,,-- -- --- ------ ------- --------- ----------- --------<br>--------- -------- --- ------- -- ------- cash -- ------<br>-- --- -------- -------- ---------- ---- ---- ---- ------<br>-- --------- -- ---- -- --- -- --- ------- -- - -----<br>---------- -- -- -- ---- ----- -- ------ -- --- ------<br>-------,286296.59999990463,286295.5,285972.912,285986.09999990463,285989.572,286306.461,,14,cash
screen,html.Screen,2_3_1_0_1_15,2022-02-02T13:32:37.437Z,,,,,,,,,,,,,,,,,48,,,,,,,,,,,,,,308.03899999998976,,response,,,,10,B,,,,,,Space,keypress(Space),,,,lyrical,,,,-- -- --- ------ ------- --------- ----------- --------<br>--------- -------- --- ------- -- ------- ---- in ------<br>-- --- -------- -------- ---------- ---- ---- ---- ------<br>-- --------- -- ---- -- --- -- --- ------- -- - -----<br>---------- -- -- -- ---- ----- -- ------ -- --- ------<br>-------,286615.59999990463,286614.5,286289.801,286297,286306.461,286622.828,,15,in
screen,html.Screen,2_3_1_0_1_16,2022-02-02T13:32:37.707Z,,,,,,,,,,,,,,,,,48,,,,,,,,,,,,,,262.4719999523368,,response,,,,10,B,,,,,,Space,keypress(Space),,,,lyrical,,,,-- -- --- ------ ------- --------- ----------- --------<br>--------- -------- --- ------- -- ------- ---- -- excess<br>-- --- -------- -------- ---------- ---- ---- ---- ------<br>-- --------- -- ---- -- --- -- --- ------- -- - -----<br>---------- -- -- -- ---- ----- -- ------ -- --- ------<br>-------,286885.7000000477,286885.2999999523,286606.168,286615.90000009537,286622.828,286889.42,,16,excess
screen,html.Screen,2_3_1_0_1_17,2022-02-02T13:32:37.993Z,,,,,,,,,,,,,,,,,48,,,,,,,,,,,,,,281.7800000477,,response,,,,10,B,,,,,,Space,keypress(Space),,,,lyrical,,,,-- -- --- ------ ------- --------- ----------- --------<br>--------- -------- --- ------- -- ------- ---- -- ------<br>of --- -------- -------- ---------- ---- ---- ---- ------<br>-- --------- -- ---- -- --- -- --- ------- -- - -----<br>---------- -- -- -- ---- ----- -- ------ -- --- ------<br>-------,287171.59999990463,287171.2000000477,286872.76,286885.7999999523,286889.42,287172.51,,17,of
screen,html.Screen,2_3_1_0_1_18,2022-02-02T13:32:38.296Z,,,,,,,,,,,,,,,,,48,,,,,,,,,,,,,,301.4899999999907,,response,,,,10,B,,,,,,Space,keypress(Space),,,,lyrical,,,,-- -- --- ------ ------- --------- ----------- --------<br>--------- -------- --- ------- -- ------- ---- -- ------<br>-- ten -------- -------- ---------- ---- ---- ---- ------<br>-- --------- -- ---- -- --- -- --- ------- -- - -----<br>---------- -- -- -- ---- ----- -- ------ -- --- ------<br>-------,287475.2000000477,287474,287155.85,287171.7000000477,287172.51,287489.077,,18,ten
screen,html.Screen,2_3_1_0_1_19,2022-02-02T13:32:38.710Z,,,,,,,,,,,,,,,,,48,,,,,,,,,,,,,,399.22299995232606,,response,,,,10,B,,,,,,Space,keypress(Space),,,,lyrical,,,,-- -- --- ------ ------- --------- ----------- --------<br>--------- -------- --- ------- -- ------- ---- -- ------<br>-- --- thousand -------- ---------- ---- ---- ---- ------<br>-- --------- -- ---- -- --- -- --- ------- -- - -----<br>---------- -- -- -- ---- ----- -- ------ -- --- ------<br>-------,287888.7999999523,287888.2999999523,287472.417,287475.5,287489.077,287905.577,,19,thousand
screen,html.Screen,2_3_1_0_1_20,2022-02-02T13:32:39.304Z,,,,,,,,,,,,,,,,,48,,,,,,,,,,,,,,576.3230000953772,,response,,,,10,B,,,,,,Space,keypress(Space),,,,lyrical,,,,-- -- --- ------ ------- --------- ----------- --------<br>--------- -------- --- ------- -- ------- ---- -- ------<br>-- --- -------- dollars. ---------- ---- ---- ---- ------<br>-- --------- -- ---- -- --- -- --- ------- -- - -----<br>---------- -- -- -- ---- ----- -- ------ -- --- ------<br>-------,288483.09999990463,288481.90000009537,287888.917,287888.90000009537,287905.577,288488.67,,20,dollars.
screen,html.Screen,2_3_1_0_1_21,2022-02-02T13:32:39.700Z,,,,,,,,,,,,,,,,,48,,,,,,,,,,,,,,389.5300000477,,response,,,,10,B,,,,,,Space,keypress(Space),,,,lyrical,,,,-- -- --- ------ ------- --------- ----------- --------<br>--------- -------- --- ------- -- ------- ---- -- ------<br>-- --- -------- -------- Concealing ---- ---- ---- ------<br>-- --------- -- ---- -- --- -- --- ------- -- - -----<br>---------- -- -- -- ---- ----- -- ------ -- --- ------<br>-------,288878.90000009537,288878.2000000477,288472.01,288483.40000009537,288488.67,288888.563,,21,Concealing
screen,html.Screen,2_3_1_0_1_22,2022-02-02T13:32:40.041Z,,,,,,,,,,,,,,,,,48,,,,,,,,,,,,,,330.0369999046088,,response,,,,10,B,,,,,,Space,keypress(Space),,,,lyrical,,,,-- -- --- ------ ------- --------- ----------- --------<br>--------- -------- --- ------- -- ------- ---- -- ------<br>-- --- -------- -------- ---------- more ---- ---- ------<br>-- --------- -- ---- -- --- -- --- ------- -- - -----<br>---------- -- -- -- ---- ----- -- ------ -- --- ------<br>-------,289219.7999999523,289218.59999990463,288871.903,288879.2000000477,288888.563,289221.93,,22,more
screen,html.Screen,2_3_1_0_1_23,2022-02-02T13:32:40.305Z,,,,,,,,,,,,,,,,,48,,,,,,,,,,,,,,261.070000000007,,response,,,,10,B,,,,,,Space,keypress(Space),,,,lyrical,,,,-- -- --- ------ ------- --------- ----------- --------<br>--------- -------- --- ------- -- ------- ---- -- ------<br>-- --- -------- -------- ---------- ---- than ---- ------<br>-- --------- -- ---- -- --- -- --- ------- -- - -----<br>---------- -- -- -- ---- ----- -- ------ -- --- ------<br>-------,289483.90000009537,289483,289205.27,289220.09999990463,289221.93,289488.427,,23,than
screen,html.Screen,2_3_1_0_1_24,2022-02-02T13:32:40.541Z,,,,,,,,,,,,,,,,,48,,,,,,,,,,,,,,230.37299995229114,,response,,,,10,B,,,,,,Space,keypress(Space),,,,lyrical,,,,-- -- --- ------ ------- --------- ----------- --------<br>--------- -------- --- ------- -- ------- ---- -- ------<br>-- --- -------- -------- ---------- ---- ---- that ------<br>-- --------- -- ---- -- --- -- --- ------- -- - -----<br>---------- -- -- -- ---- ----- -- ------ -- --- ------<br>-------,289719.7000000477,289718.7999999523,289471.767,289484.09999990463,289488.427,289721.624,,24,that
screen,html.Screen,2_3_1_0_1_25,2022-02-02T13:32:40.775Z,,,,,,,,,,,,,,,,,48,,,,,,,,,,,,,,231.27600009535672,,response,,,,10,B,,,,,,Space,keypress(Space),,,,lyrical,,,,-- -- --- ------ ------- --------- ----------- --------<br>--------- -------- --- ------- -- ------- ---- -- ------<br>-- --- -------- -------- ---------- ---- ---- ---- amount<br>-- --------- -- ---- -- --- -- --- ------- -- - -----<br>---------- -- -- -- ---- ----- -- ------ -- --- ------<br>-------,289954.09999990463,289952.90000009537,289704.964,289720,289721.624,289971.594,,25,amount
screen,html.Screen,2_3_1_0_1_26,2022-02-02T13:32:41.156Z,,,,,,,,,,,,,,,,,48,,,,,,,,,,,,,,362.80600009538466,,response,,,,10,B,,,,,,Space,keypress(Space),,,,lyrical,,,,-- -- --- ------ ------- --------- ----------- --------<br>--------- -------- --- ------- -- ------- ---- -- ------<br>-- --- -------- -------- ---------- ---- ---- ---- ------<br>to --------- -- ---- -- --- -- --- ------- -- - -----<br>---------- -- -- -- ---- ----- -- ------ -- --- ------<br>-------,290334.90000009537,290334.40000009537,289954.934,289954.2999999523,289971.594,290338.101,,26,to
screen,html.Screen,2_3_1_0_1_27,2022-02-02T13:32:41.480Z,,,,,,,,,,,,,,,,,48,,,,,,,,,,,,,,319.19899995229207,,response,,,,10,B,,,,,,Space,keypress(Space),,,,lyrical,,,,-- -- --- ------ ------- --------- ----------- --------<br>--------- -------- --- ------- -- ------- ---- -- ------<br>-- --- -------- -------- ---------- ---- ---- ---- ------<br>-- transport -- ---- -- --- -- --- ------- -- - -----<br>---------- -- -- -- ---- ----- -- ------ -- --- ------<br>-------,290658.59999990463,290657.2999999523,290321.441,290335,290338.101,290671.312,,27,transport
screen,html.Screen,2_3_1_0_1_28,2022-02-02T13:32:41.858Z,,,,,,,,,,,,,,,,,48,,,,,,,,,,,,,,364.98799995234003,,response,,,,10,B,,,,,,Space,keypress(Space),,,,lyrical,,,,-- -- --- ------ ------- --------- ----------- --------<br>--------- -------- --- ------- -- ------- ---- -- ------<br>-- --- -------- -------- ---------- ---- ---- ---- ------<br>-- --------- it ---- -- --- -- --- ------- -- - -----<br>---------- -- -- -- ---- ----- -- ------ -- --- ------<br>-------,291037.5,291036.2999999523,290654.652,290659,290671.312,291054.656,,28,it
screen,html.Screen,2_3_1_0_1_29,2022-02-02T13:32:42.172Z,,,,,,,,,,,,,,,,,48,,,,,,,,,,,,,,295.64399995229905,,response,,,,10,B,,,,,,Space,keypress(Space),,,,lyrical,,,,-- -- --- ------ ------- --------- ----------- --------<br>--------- -------- --- ------- -- ------- ---- -- ------<br>-- --- -------- -------- ---------- ---- ---- ---- ------<br>-- --------- -- into -- --- -- --- ------- -- - -----<br>---------- -- -- -- ---- ----- -- ------ -- --- ------<br>-------,291351.2999999523,291350.2999999523,291037.996,291038,291054.656,291354.399,,29,into
screen,html.Screen,2_3_1_0_1_30,2022-02-02T13:32:42.439Z,,,,,,,,,,,,,,,,,48,,,,,,,,,,,,,,262.6010000000242,,response,,,,10,B,,,,,,Space,keypress(Space),,,,lyrical,,,,-- -- --- ------ ------- --------- ----------- --------<br>--------- -------- --- ------- -- ------- ---- -- ------<br>-- --- -------- -------- ---------- ---- ---- ---- ------<br>-- --------- -- ---- or --- -- --- ------- -- - -----<br>---------- -- -- -- ---- ----- -- ------ -- --- ------<br>-------,291618,291617,291337.739,291351.59999990463,291354.399,291621.162,,30,or
screen,html.Screen,2_3_1_0_1_31,2022-02-02T13:32:42.648Z,,,,,,,,,,,,,,,,,48,,,,,,,,,,,,,,204.83799999998882,,response,,,,10,B,,,,,,Space,keypress(Space),,,,lyrical,,,,-- -- --- ------ ------- --------- ----------- --------<br>--------- -------- --- ------- -- ------- ---- -- ------<br>-- --- -------- -------- ---------- ---- ---- ---- ------<br>-- --------- -- ---- -- out -- --- ------- -- - -----<br>---------- -- -- -- ---- ----- -- ------ -- --- ------<br>-------,291827.09999990463,291826,291604.502,291618.2000000477,291621.162,291837.572,,31,out
screen,html.Screen,2_3_1_0_1_32,2022-02-02T13:32:42.847Z,,,,,,,,,,,,,,,,,48,,,,,,,,,,,,,,187.027999904647,,response,,,,10,B,,,,,,Space,keypress(Space),,,,lyrical,,,,-- -- --- ------ ------- --------- ----------- --------<br>--------- -------- --- ------- -- ------- ---- -- ------<br>-- --- -------- -------- ---------- ---- ---- ---- ------<br>-- --------- -- ---- -- --- of --- ------- -- - -----<br>---------- -- -- -- ---- ----- -- ------ -- --- ------<br>-------,292025.59999990463,292024.59999990463,291820.912,291827.2999999523,291837.572,292037.488,,32,of
screen,html.Screen,2_3_1_0_1_33,2022-02-02T13:32:43.069Z,,,,,,,,,,,,,,,,,48,,,,,,,,,,,,,,209.7120000476716,,response,,,,10,B,,,,,,Space,keypress(Space),,,,lyrical,,,,-- -- --- ------ ------- --------- ----------- --------<br>--------- -------- --- ------- -- ------- ---- -- ------<br>-- --- -------- -------- ---------- ---- ---- ---- ------<br>-- --------- -- ---- -- --- -- the ------- -- - -----<br>---------- -- -- -- ---- ----- -- ------ -- --- ------<br>-------,292248.5,292247.2000000477,292020.828,292025.7999999523,292037.488,292254.248,,33,the
screen,html.Screen,2_3_1_0_1_34,2022-02-02T13:32:43.293Z,,,,,,,,,,,,,,,,,48,,,,,,,,,,,,,,216.85199990461115,,response,,,,10,B,,,,,,Space,keypress(Space),,,,lyrical,,,,-- -- --- ------ ------- --------- ----------- --------<br>--------- -------- --- ------- -- ------- ---- -- ------<br>-- --- -------- -------- ---------- ---- ---- ---- ------<br>-- --------- -- ---- -- --- -- --- country -- - -----<br>---------- -- -- -- ---- ----- -- ------ -- --- ------<br>-------,292472.2000000477,292471.09999990463,292237.588,292248.7000000477,292254.248,292487.569,,34,country
screen,html.Screen,2_3_1_0_1_35,2022-02-02T13:32:43.510Z,,,,,,,,,,,,,,,,,48,,,,,,,,,,,,,,200.9309999999823,,response,,,,10,B,,,,,,Space,keypress(Space),,,,lyrical,,,,-- -- --- ------ ------- --------- ----------- --------<br>--------- -------- --- ------- -- ------- ---- -- ------<br>-- --- -------- -------- ---------- ---- ---- ---- ------<br>-- --------- -- ---- -- --- -- --- ------- is - -----<br>---------- -- -- -- ---- ----- -- ------ -- --- ------<br>-------,292689.40000009537,292688.5,292470.909,292472.5,292487.569,292704.109,,35,is
screen,html.Screen,2_3_1_0_1_36,2022-02-02T13:32:43.735Z,,,,,,,,,,,,,,,,,48,,,,,,,,,,,,,,208.89100000000326,,response,,,,10,B,,,,,,Space,keypress(Space),,,,lyrical,,,,-- -- --- ------ ------- --------- ----------- --------<br>--------- -------- --- ------- -- ------- ---- -- ------<br>-- --- -------- -------- ---------- ---- ---- ---- ------<br>-- --------- -- ---- -- --- -- --- ------- -- a -----<br>---------- -- -- -- ---- ----- -- ------ -- --- ------<br>-------,292913.7000000477,292913,292687.449,292689.7000000477,292704.109,292920.729,,36,a
screen,html.Screen,2_3_1_0_1_37,2022-02-02T13:32:44.010Z,,,,,,,,,,,,,,,,,48,,,,,,,,,,,,,,266.8709999046405,,response,,,,10,B,,,,,,Space,keypress(Space),,,,lyrical,,,,-- -- --- ------ ------- --------- ----------- --------<br>--------- -------- --- ------- -- ------- ---- -- ------<br>-- --- -------- -------- ---------- ---- ---- ---- ------<br>-- --------- -- ---- -- --- -- --- ------- -- - crime<br>---------- -- -- -- ---- ----- -- ------ -- --- ------<br>-------,293188.90000009537,293187.59999990463,292904.069,292913.90000009537,292920.729,293203.832,,37,crime
screen,html.Screen,2_3_1_0_1_38,2022-02-02T13:32:44.300Z,,,,,,,,,,,,,,,,,48,,,,,,,,,,,,,,274.4679999523214,,response,,,,10,B,,,,,,Space,keypress(Space),,,,lyrical,,,,-- -- --- ------ ------- --------- ----------- --------<br>--------- -------- --- ------- -- ------- ---- -- ------<br>-- --- -------- -------- ---------- ---- ---- ---- ------<br>-- --------- -- ---- -- --- -- --- ------- -- - -----<br>punishable -- -- -- ---- ----- -- ------ -- --- ------<br>-------,293479.2999999523,293478.2999999523,293187.172,293189.40000009537,293203.832,293487.014,,38,punishable
screen,html.Screen,2_3_1_0_1_39,2022-02-02T13:32:44.598Z,,,,,,,,,,,,,,,,,48,,,,,,,,,,,,,,288.88600009534275,,response,,,,10,B,,,,,,Space,keypress(Space),,,,lyrical,,,,-- -- --- ------ ------- --------- ----------- --------<br>--------- -------- --- ------- -- ------- ---- -- ------<br>-- --- -------- -------- ---------- ---- ---- ---- ------<br>-- --------- -- ---- -- --- -- --- ------- -- - -----<br>---------- by -- -- ---- ----- -- ------ -- --- ------<br>-------,293777.09999990463,293775.90000009537,293470.354,293479.7000000477,293487.014,293787.096,,39,by
screen,html.Screen,2_3_1_0_1_40,2022-02-02T13:32:44.887Z,,,,,,,,,,,,,,,,,48,,,,,,,,,,,,,,278.60400004766416,,response,,,,10,B,,,,,,Space,keypress(Space),,,,lyrical,,,,-- -- --- ------ ------- --------- ----------- --------<br>--------- -------- --- ------- -- ------- ---- -- ------<br>-- --- -------- -------- ---------- ---- ---- ---- ------<br>-- --------- -- ---- -- --- -- --- ------- -- - -----<br>---------- -- up -- ---- ----- -- ------ -- --- ------<br>-------,294066.09999990463,294065.7000000477,293770.436,293777.40000009537,293787.096,294070.209,,40,up
screen,html.Screen,2_3_1_0_1_41,2022-02-02T13:32:45.158Z,,,,,,,,,,,,,,,,,48,,,,,,,,,,,,,,266.191000095394,,response,,,,10,B,,,,,,Space,keypress(Space),,,,lyrical,,,,-- -- --- ------ ------- --------- ----------- --------<br>--------- -------- --- ------- -- ------- ---- -- ------<br>-- --- -------- -------- ---------- ---- ---- ---- ------<br>-- --------- -- ---- -- --- -- --- ------- -- - -----<br>---------- -- -- to ---- ----- -- ------ -- --- ------<br>-------,294337.2999999523,294336.40000009537,294053.549,294066.2000000477,294070.209,294353.351,,41,to
screen,html.Screen,2_3_1_0_1_42,2022-02-02T13:32:45.432Z,,,,,,,,,,,,,,,,,48,,,,,,,,,,,,,,257.6489999999758,,response,,,,10,B,,,,,,Space,keypress(Space),,,,lyrical,,,,-- -- --- ------ ------- --------- ----------- --------<br>--------- -------- --- ------- -- ------- ---- -- ------<br>-- --- -------- -------- ---------- ---- ---- ---- ------<br>-- --------- -- ---- -- --- -- --- ------- -- - -----<br>---------- -- -- -- five ----- -- ------ -- --- ------<br>-------,294611.40000009537,294611,294336.691,294337.5,294353.351,294619.95,,42,five
screen,html.Screen,2_3_1_0_1_43,2022-02-02T13:32:45.783Z,,,,,,,,,,,,,,,,,48,,,,,,,,,,,,,,340.84999995230464,,response,,,,10,B,,,,,,Space,keypress(Space),,,,lyrical,,,,-- -- --- ------ ------- --------- ----------- --------<br>--------- -------- --- ------- -- ------- ---- -- ------<br>-- --- -------- -------- ---------- ---- ---- ---- ------<br>-- --------- -- ---- -- --- -- --- ------- -- - -----<br>---------- -- -- -- ---- years -- ------ -- --- ------<br>-------,294961.90000009537,294960.7999999523,294603.29,294612,294619.95,294970.045,,43,years
