sender,sender_type,sender_id,timestamp,meta,,Blues,Classical,Country,Dance,Electronic,Folk,Gospel,Hip-Hop,Jazz,Latin,Musical/Film,New-age,Pop,Prolific_id,Provo_ID,R&B,Rap,Reggae,Religious,Rock,Soul,Swing,Traditional,age,artist_name,correct,correctResponse,distraction,duration,education,ended_on,familiarity,gender,headphone_check_performance,item,list,music_frequency,offensiveness,pleasantness,position_correct,preference,response,response_action,snippet_file,song_name,song_rating,sound,stimulus_1,stimulus_2,stimulus_3,text,time_commit,time_end,time_render,time_run,time_show,time_switch,url,word,word_ID
Prolific ID,html.Form,0,2022-02-18T15:11:57.193Z,"{""labjs_version"":""20.2.2"",""labjs_build"":{""flavor"":""production"",""commit"":""a25486e0c714a0ae2ce03ff94b7bb6896854dcfa""},""location"":""https://run.pavlovia.org/mvasilev/prolific2_music_a/"",""userAgent"":""Mozilla/5.0 (Windows NT 10.0; Win64; x64) AppleWebKit/537.36 (KHTML, like Gecko) Chrome/98.0.4758.82 Safari/537.36"",""platform"":""Win32"",""language"":""en-GB"",""locale"":""en-GB"",""timeZone"":""Europe/London"",""timezoneOffset"":0,""screen_width"":1366,""screen_height"":768,""scroll_width"":1366,""scroll_height"":615,""window_innerWidth"":1366,""window_innerHeight"":663,""devicePixelRatio"":1}",,,,,,,,,,,,,,,6010571dc1152033ac3bc4ca,,,,,,,,,,,,,,,14741.932000047684,,form submission,,,,,,,,,,,,,,,,,,,,,27621.700000047684,27621.200000047684,12829.306,12833.800000071526,12879.268,27785.456,{},,
Introduction,html.Screen,1_0,2022-02-18T15:12:03.421Z,,,,,,,,,,,,,,,,,,,,,,,,,,,,,,,6062.144000023844,,response,,,,,,,,,,,continue,click button,,,,,,,,,33849.700000047684,33847.60000002384,27602.262,27622.300000071526,27785.456,33931.079,,,
Volume calibration,html.Screen,1_1,2022-02-18T15:12:23.669Z,,,,,,,,,,,,,,,,,,,,,,,,,,,,,,,20164.32100009537,,response,,,,,,,,,,,continue,click button,,,,,,,,,54098.10000002384,54095.40000009537,33847.809,33849.90000009537,33931.079,54100.01,,,
Task instructions,html.Screen,1_2,2022-02-18T15:12:32.777Z,,,,,,,,,,,,,,,,,,,,,,,,,,,,,,,9104.790000071524,,response,,,,,,,,,,,continue,click button,,,,,,,,,63205.700000047684,63204.800000071526,54083.356,54098.300000071526,54100.01,63210.206,,,
Sounds,html.Screen,1_3_0_0,2022-02-18T15:12:37.027Z,,,,,,,,,,,,,,,,,,,,,,,,,,,,,,,4246.981000000007,,timeout,,,,,,,,,3,,,,,,,,O,I,S,,67455.70000004768,67440.533,63193.552,63205.800000071526,63210.206,67457.187,,,
Judgement,html.Screen,1_3_0_1,2022-02-18T15:12:38.157Z,,,,,,,,,,,,,,,,,,,,,,,,,,,,true,3,,1126.8129999999946,,response,,,,,,,,,3,,3,click #choice-3,,,,,O,I,S,,68584.80000007153,68584,67440.533,67455.90000009537,67457.187,68639.806,,,
Trial,flow.Sequence,1_3_0,2022-02-18T15:12:38.157Z,,,,,,,,,,,,,,,,,,,,,,,,,,,,,,,5373.794000000002,,completion,,,,,,,,,3,,,,,,,,O,I,S,,68585.10000002384,68584,63193.552,63205.800000071526,63210.206,68639.806,,,
Sounds,html.Screen,1_3_1_0,2022-02-18T15:12:42.447Z,,,,,,,,,,,,,,,,,,,,,,,,,,,,,,,4246.934000000008,,timeout,,,,,,,,,2,,,,,,,,I,S,O,,72874.80000007153,72870.086,68573.19,68585.30000007153,68639.806,72886.74,,,
Judgement,html.Screen,1_3_1_1,2022-02-18T15:12:43.209Z,,,,,,,,,,,,,,,,,,,,,,,,,,,,true,2,,749.2599999999948,,response,,,,,,,,,2,,2,click #choice-2,,,,,I,S,O,,73637,73636,72870.086,72875.30000007153,72886.74,73652.927,,,
Trial,flow.Sequence,1_3_1,2022-02-18T15:12:43.209Z,,,,,,,,,,,,,,,,,,,,,,,,,,,,,,,4996.194000000003,,completion,,,,,,,,,2,,,,,,,,I,S,O,,73637.20000004768,73636,68573.19,68585.20000004768,68639.806,73652.927,,,
Sounds,html.Screen,1_3_2_0,2022-02-18T15:12:47.457Z,,,,,,,,,,,,,,,,,,,,,,,,,,,,,,,4246.694000000003,,timeout,,,,,,,,,2,,,,,,,,O,S,I,,77885.80000007153,77882.967,73636.273,73637.30000007153,73652.927,77899.621,,,
Judgement,html.Screen,1_3_2_1,2022-02-18T15:12:48.148Z,,,,,,,,,,,,,,,,,,,,,,,,,,,,true,2,,675.8790000000008,,response,,,,,,,,,2,,2,click #choice-2,,,,,O,S,I,,78576.40000009537,78575.5,77882.967,77886,77899.621,78582.836,,,
Trial,flow.Sequence,1_3_2,2022-02-18T15:12:48.148Z,,,,,,,,,,,,,,,,,,,,,,,,,,,,,,,4922.573000000004,,completion,,,,,,,,,2,,,,,,,,O,S,I,,78576.60000002384,78575.5,73636.273,73637.20000004768,73652.927,78582.836,,,
Sounds,html.Screen,1_3_3_0,2022-02-18T15:12:52.387Z,,,,,,,,,,,,,,,,,,,,,,,,,,,,,,,4246.65400000001,,timeout,,,,,,,,,3,,,,,,,,I,O,S,,82815.30000007153,82812.836,78566.182,78576.70000004768,78582.836,82829.49,,,
Judgement,html.Screen,1_3_3_1,2022-02-18T15:12:53.128Z,,,,,,,,,,,,,,,,,,,,,,,,,,,,true,3,,726.1100000238366,,response,,,,,,,,,3,,3,click #choice-3,,,,,I,O,S,,83556.40000009537,83555.60000002384,82812.836,82815.60000002384,82829.49,83562.528,,,
Trial,flow.Sequence,1_3_3,2022-02-18T15:12:53.128Z,,,,,,,,,,,,,,,,,,,,,,,,,,,,,,,4972.764000023846,,completion,,,,,,,,,3,,,,,,,,I,O,S,,83556.60000002384,83555.60000002384,78566.182,78576.70000004768,78582.836,83562.528,,,
Sounds,html.Screen,1_3_4_0,2022-02-18T15:12:57.369Z,,,,,,,,,,,,,,,,,,,,,,,,,,,,,,,4246.803999999989,,timeout,,,,,,,,,1,,,,,,,,S,I,O,,87797.60000002384,87792.678,83545.874,83556.70000004768,83562.528,87809.332,,,
Judgement,html.Screen,1_3_4_1,2022-02-18T15:12:58.128Z,,,,,,,,,,,,,,,,,,,,,,,,,,,,true,1,,746.5680000953726,,response,,,,,,,,,1,,1,click #choice-1,,,,,S,I,O,,88556.60000002384,88555.90000009537,87792.678,87797.80000007153,87809.332,88558.994,,,
Trial,flow.Sequence,1_3_4,2022-02-18T15:12:58.128Z,,,,,,,,,,,,,,,,,,,,,,,,,,,,,,,4993.372000095362,,completion,,,,,,,,,1,,,,,,,,S,I,O,,88556.70000004768,88555.90000009537,83545.874,83556.60000002384,83562.528,88558.994,,,
Sounds,html.Screen,1_3_5_0,2022-02-18T15:13:02.368Z,,,,,,,,,,,,,,,,,,,,,,,,,,,,,,,4246.704999999987,,timeout,,,,,,,,,1,,,,,,,,S,O,I,,92796.70000004768,92789.045,88542.34,88556.80000007153,88558.994,92805.699,,,
Judgement,html.Screen,1_3_5_1,2022-02-18T15:13:02.978Z,,,,,,,,,,,,,,,,,,,,,,,,,,,,true,1,,599.7010000953742,,response,,,,,,,,,1,,1,click #choice-1,,,,,S,O,I,,93406.5,93405.40000009537,92789.045,92796.90000009537,92805.699,93422.199,,,
Trial,flow.Sequence,1_3_5,2022-02-18T15:13:02.978Z,,,,,,,,,,,,,,,,,,,,,,,,,,,,,,,4846.406000095361,,completion,,,,,,,,,1,,,,,,,,S,O,I,,93406.70000004768,93405.40000009537,88542.34,88556.80000007153,88558.994,93422.199,,,
Task,flow.Loop,1_3,2022-02-18T15:13:02.982Z,,,,,,,,,,,,,,,,,,,,,,,,,,,,,,,30195.19400009537,,completion,,,1,,,,,,,,,,,,,,,,,,93410.30000007153,93405.40000009537,63193.552,63205.800000071526,63210.206,93422.199,,,
Trap,html.Screen,1_4,2022-02-18T15:13:02.983Z,,,,,,,,,,,,,,,,,,,,,,,,,,,,,,,NaN,,skipped,,,,,,,,,,,,,,,,,,,,,93411.40000009537,93405.40000009537,,93411.30000007153,,93422.199,,,
Thanks,html.Screen,1_5,2022-02-18T15:13:07.658Z,,,,,,,,,,,,,,,,,,,,,,,,,,,,,,,4663.201000095374,,response,,,,,,,,,,,continue,click button,,,,,,,,,98086.30000007153,98085.40000009537,93405.545,93411.5,93422.199,105463.192,,,
Headphone screening,flow.Sequence,1,2022-02-18T15:13:07.658Z,,,,,,,,,,,,,,,,,,,,,,,,,,,,,,,70299.94400009536,,completion,,,,,,,,,,,,,,,,,,,,,98086.5,98085.40000009537,27602.262,27622.200000047684,27785.456,105463.192,,,
Instructions,html.Page,2_0,2022-02-18T15:14:00.972Z,,,,,,,,,,,,,,,,,,,,,,,,,,,,,,,45939.00800004769,,form submission,,,,,,,,,,,,,,,,,,,,,151402.5,151402.20000004768,105413.23,105499.10000002384,105463.192,151414.276,,,
Holding screen,html.Screen,2_1_0_0,2022-02-18T15:14:10.968Z,,,,,,,,,,,,,,,,,,,,,,,,,,,,,,,10176.104999999981,,timeout,,,,,,,,,,,,,,,,,,,,,161398,161390.533,151397.622,151402.70000004768,151414.276,161590.381,,,
screen,html.Screen,2_1_0_1_0,2022-02-18T15:14:21.261Z,,,,,,,,,,,,,,,,,53,,,,,,,,,,,,,,10094.919000071532,,response,,,,99,,,,,,,Space,keypress(Space),,,,,,,,When -- ----- -- ------ - ------- --- ----------<br>------------- ------ ------ ---- ---- ------- ----- -- ----<br>-------- ------- -- ---------- --- - --- ----- ----- ----<br>---- --- --- ----- --- ---- ---- ------- ----- ---- -------<br>--- --- -- ----- -- --- ---- -- --- ---- -- ------ ------<br>--- ----- -- ----,171691.30000007153,171685.30000007153,161390.533,161398.40000009537,161590.381,171699.379,,0,When
screen,html.Screen,2_1_0_1_1,2022-02-18T15:14:21.944Z,,,,,,,,,,,,,,,,,53,,,,,,,,,,,,,,674.0210000953812,,response,,,,99,,,,,,,Space,keypress(Space),,,,,,,,---- it ----- -- ------ - ------- --- ----------<br>------------- ------ ------ ---- ---- ------- ----- -- ----<br>-------- ------- -- ---------- --- - --- ----- ----- ----<br>---- --- --- ----- --- ---- ---- ------- ----- ---- -------<br>--- --- -- ----- -- --- ---- -- --- ---- -- ------ ------<br>--- ----- -- ----,172374.60000002384,172373.40000009537,171682.725,171691.70000004768,171699.379,172382.687,,1,it
screen,html.Screen,2_1_0_1_2,2022-02-18T15:14:22.451Z,,,,,,,,,,,,,,,,,53,,,,,,,,,,,,,,497.31299999999464,,response,,,,99,,,,,,,Space,keypress(Space),,,,,,,,---- -- comes -- ------ - ------- --- ----------<br>------------- ------ ------ ---- ---- ------- ----- -- ----<br>-------- ------- -- ---------- --- - --- ----- ----- ----<br>---- --- --- ----- --- ---- ---- ------- ----- ---- -------<br>--- --- -- ----- -- --- ---- -- --- ---- -- ------ ------<br>--- ----- -- ----,172881.70000004768,172880,172366.033,172374.90000009537,172382.687,172898.948,,2,comes
screen,html.Screen,2_1_0_1_3,2022-02-18T15:14:22.807Z,,,,,,,,,,,,,,,,,53,,,,,,,,,,,,,,337.3520000715216,,response,,,,99,,,,,,,Space,keypress(Space),,,,,,,,---- -- ----- to ------ - ------- --- ----------<br>------------- ------ ------ ---- ---- ------- ----- -- ----<br>-------- ------- -- ---------- --- - --- ----- ----- ----<br>---- --- --- ----- --- ---- ---- ------- ----- ---- -------<br>--- --- -- ----- -- --- ---- -- --- ---- -- ------ ------<br>--- ----- -- ----,173237.60000002384,173236.30000007153,172882.294,172882.10000002384,172898.948,173248.793,,3,to
screen,html.Screen,2_1_0_1_4,2022-02-18T15:14:22.993Z,,,,,,,,,,,,,,,,,53,,,,,,,,,,,,,,173.4070000476786,,response,,,,99,,,,,,,Space,keypress(Space),,,,,,,,---- -- ----- -- having - ------- --- ----------<br>------------- ------ ------ ---- ---- ------- ----- -- ----<br>-------- ------- -- ---------- --- - --- ----- ----- ----<br>---- --- --- ----- --- ---- ---- ------- ----- ---- -------<br>--- --- -- ----- -- --- ---- -- --- ---- -- ------ ------<br>--- ----- -- ----,173423.40000009537,173422.20000004768,173232.139,173237.90000009537,173248.793,173432.042,,4,having
screen,html.Screen,2_1_0_1_5,2022-02-18T15:14:23.402Z,,,,,,,,,,,,,,,,,53,,,,,,,,,,,,,,398.658000047697,,response,,,,99,,,,,,,Space,keypress(Space),,,,,,,,---- -- ----- -- ------ a ------- --- ----------<br>------------- ------ ------ ---- ---- ------- ----- -- ----<br>-------- ------- -- ---------- --- - --- ----- ----- ----<br>---- --- --- ----- --- ---- ---- ------- ----- ---- -------<br>--- --- -- ----- -- --- ---- -- --- ---- -- ------ ------<br>--- ----- -- ----,173832,173830.70000004768,173415.388,173423.60000002384,173432.042,173848.368,,5,a
screen,html.Screen,2_1_0_1_6,2022-02-18T15:14:24.192Z,,,,,,,,,,,,,,,,,53,,,,,,,,,,,,,,772.332000047696,,response,,,,99,,,,,,,Space,keypress(Space),,,,,,,,---- -- ----- -- ------ - lasting --- ----------<br>------------- ------ ------ ---- ---- ------- ----- -- ----<br>-------- ------- -- ---------- --- - --- ----- ----- ----<br>---- --- --- ----- --- ---- ---- ------- ----- ---- -------<br>--- --- -- ----- -- --- ---- -- --- ---- -- ------ ------<br>--- ----- -- ----,174621.90000009537,174620.70000004768,173831.714,173832.20000004768,173848.368,174631.143,,6,lasting
screen,html.Screen,2_1_0_1_7,2022-02-18T15:14:24.611Z,,,,,,,,,,,,,,,,,53,,,,,,,,,,,,,,409.15700007151463,,response,,,,99,,,,,,,Space,keypress(Space),,,,,,,,---- -- ----- -- ------ - ------- and ----------<br>------------- ------ ------ ---- ---- ------- ----- -- ----<br>-------- ------- -- ---------- --- - --- ----- ----- ----<br>---- --- --- ----- --- ---- ---- ------- ----- ---- -------<br>--- --- -- ----- -- --- ---- -- --- ---- -- ------ ------<br>--- ----- -- ----,175041.40000009537,175040.30000007153,174614.489,174622.10000002384,174631.143,175047.488,,7,and
screen,html.Screen,2_1_0_1_8,2022-02-18T15:14:25.169Z,,,,,,,,,,,,,,,,,53,,,,,,,,,,,,,,550.8120000715135,,response,,,,99,,,,,,,Space,keypress(Space),,,,,,,,---- -- ----- -- ------ - ------- --- fulfilling<br>------------- ------ ------ ---- ---- ------- ----- -- ----<br>-------- ------- -- ---------- --- - --- ----- ----- ----<br>---- --- --- ----- --- ---- ---- ------- ----- ---- -------<br>--- --- -- ----- -- --- ---- -- --- ---- -- ------ ------<br>--- ----- -- ----,175599.60000002384,175598.30000007153,175030.834,175041.80000007153,175047.488,175613.739,,8,fulfilling
screen,html.Screen,2_1_0_1_9,2022-02-18T15:14:25.721Z,,,,,,,,,,,,,,,,,53,,,,,,,,,,,,,,536.7609999999986,,response,,,,99,,,,,,,Space,keypress(Space),,,,,,,,"---- -- ----- -- ------ - ------- --- ----------<br>relationship, ------ ------ ---- ---- ------- ----- -- ----<br>-------- ------- -- ---------- --- - --- ----- ----- ----<br>---- --- --- ----- --- ---- ---- ------- ----- ---- -------<br>--- --- -- ----- -- --- ---- -- --- ---- -- ------ ------<br>--- ----- -- ----",176151.80000007153,176150.5,175597.085,175599.80000007153,175613.739,176163.368,,9,"relationship,"
screen,html.Screen,2_1_0_1_10,2022-02-18T15:14:26.428Z,,,,,,,,,,,,,,,,,53,,,,,,,,,,,,,,693.332000047696,,response,,,,99,,,,,,,Space,keypress(Space),,,,,,,,---- -- ----- -- ------ - ------- --- ----------<br>------------- common ------ ---- ---- ------- ----- -- ----<br>-------- ------- -- ---------- --- - --- ----- ----- ----<br>---- --- --- ----- --- ---- ---- ------- ----- ---- -------<br>--- --- -- ----- -- --- ---- -- --- ---- -- ------ ------<br>--- ----- -- ----,176857.90000009537,176856.70000004768,176146.714,176152,176163.368,176862.866,,10,common
screen,html.Screen,2_1_0_1_11,2022-02-18T15:14:26.810Z,,,,,,,,,,,,,,,,,53,,,,,,,,,,,,,,376.03400009535835,,response,,,,99,,,,,,,Space,keypress(Space),,,,,,,,---- -- ----- -- ------ - ------- --- ----------<br>------------- ------ wisdom ---- ---- ------- ----- -- ----<br>-------- ------- -- ---------- --- - --- ----- ----- ----<br>---- --- --- ----- --- ---- ---- ------- ----- ---- -------<br>--- --- -- ----- -- --- ---- -- --- ---- -- ------ ------<br>--- ----- -- ----,177240.10000002384,177238.90000009537,176846.212,176858.20000004768,176862.866,177245.913,,11,wisdom
screen,html.Screen,2_1_0_1_12,2022-02-18T15:14:27.547Z,,,,,,,,,,,,,,,,,53,,,,,,,,,,,,,,730.2870000476833,,response,,,,99,,,,,,,Space,keypress(Space),,,,,,,,---- -- ----- -- ------ - ------- --- ----------<br>------------- ------ ------ says ---- ------- ----- -- ----<br>-------- ------- -- ---------- --- - --- ----- ----- ----<br>---- --- --- ----- --- ---- ---- ------- ----- ---- -------<br>--- --- -- ----- -- --- ---- -- --- ---- -- ------ ------<br>--- ----- -- ----,177977.40000009537,177976.20000004768,177229.259,177240.40000009537,177245.913,177978.751,,12,says
screen,html.Screen,2_1_0_1_13,2022-02-18T15:14:27.952Z,,,,,,,,,,,,,,,,,53,,,,,,,,,,,,,,402.64900009537814,,response,,,,99,,,,,,,Space,keypress(Space),,,,,,,,---- -- ----- -- ------ - ------- --- ----------<br>------------- ------ ------ ---- that ------- ----- -- ----<br>-------- ------- -- ---------- --- - --- ----- ----- ----<br>---- --- --- ----- --- ---- ---- ------- ----- ---- -------<br>--- --- -- ----- -- --- ---- -- --- ---- -- ------ ------<br>--- ----- -- ----,178382.60000002384,178381.40000009537,177962.097,177977.70000004768,177978.751,178395.101,,13,that
screen,html.Screen,2_1_0_1_14,2022-02-18T15:14:28.100Z,,,,,,,,,,,,,,,,,53,,,,,,,,,,,,,,133.5990000476886,,response,,,,99,,,,,,,Space,keypress(Space),,,,,,,,---- -- ----- -- ------ - ------- --- ----------<br>------------- ------ ------ ---- ---- feeling ----- -- ----<br>-------- ------- -- ---------- --- - --- ----- ----- ----<br>---- --- --- ----- --- ---- ---- ------- ----- ---- -------<br>--- --- -- ----- -- --- ---- -- --- ---- -- ------ ------<br>--- ----- -- ----,178529.90000009537,178528.70000004768,178378.447,178382.90000009537,178395.101,178545.102,,14,feeling
screen,html.Screen,2_1_0_1_15,2022-02-18T15:14:28.565Z,,,,,,,,,,,,,,,,,53,,,,,,,,,,,,,,448.8979999999865,,response,,,,99,,,,,,,Space,keypress(Space),,,,,,,,---- -- ----- -- ------ - ------- --- ----------<br>------------- ------ ------ ---- ---- ------- close -- ----<br>-------- ------- -- ---------- --- - --- ----- ----- ----<br>---- --- --- ----- --- ---- ---- ------- ----- ---- -------<br>--- --- -- ----- -- --- ---- -- --- ---- -- ------ ------<br>--- ----- -- ----,178995.30000007153,178994,178528.448,178530.20000004768,178545.102,179011.352,,15,close
screen,html.Screen,2_1_0_1_16,2022-02-18T15:14:29.072Z,,,,,,,,,,,,,,,,,53,,,,,,,,,,,,,,489.0480000953539,,response,,,,99,,,,,,,Space,keypress(Space),,,,,,,,---- -- ----- -- ------ - ------- --- ----------<br>------------- ------ ------ ---- ---- ------- ----- to ----<br>-------- ------- -- ---------- --- - --- ----- ----- ----<br>---- --- --- ----- --- ---- ---- ------- ----- ---- -------<br>--- --- -- ----- -- --- ---- -- --- ---- -- ------ ------<br>--- ----- -- ----,179502,179500.40000009537,178994.698,178995.80000007153,179011.352,179510.997,,16,to
screen,html.Screen,2_1_0_1_17,2022-02-18T15:14:29.519Z,,,,,,,,,,,,,,,,,53,,,,,,,,,,,,,,436.4030000953644,,response,,,,99,,,,,,,Space,keypress(Space),,,,,,,,---- -- ----- -- ------ - ------- --- ----------<br>------------- ------ ------ ---- ---- ------- ----- -- your<br>-------- ------- -- ---------- --- - --- ----- ----- ----<br>---- --- --- ----- --- ---- ---- ------- ----- ---- -------<br>--- --- -- ----- -- --- ---- -- --- ---- -- ------ ------<br>--- ----- -- ----,179948.90000009537,179947.40000009537,179494.343,179502.20000004768,179510.997,179960.668,,17,your
screen,html.Screen,2_1_0_1_18,2022-02-18T15:14:30.047Z,,,,,,,,,,,,,,,,,53,,,,,,,,,,,,,,515.3319999999949,,response,,,,99,,,,,,,Space,keypress(Space),,,,,,,,---- -- ----- -- ------ - ------- --- ----------<br>------------- ------ ------ ---- ---- ------- ----- -- ----<br>romantic ------- -- ---------- --- - --- ----- ----- ----<br>---- --- --- ----- --- ---- ---- ------- ----- ---- -------<br>--- --- -- ----- -- --- ---- -- --- ---- -- ------ ------<br>--- ----- -- ----,180477.80000007153,180476,179944.014,179949.10000002384,179960.668,180493.636,,18,romantic
screen,html.Screen,2_1_0_1_19,2022-02-18T15:14:30.253Z,,,,,,,,,,,,,,,,,53,,,,,,,,,,,,,,188.16400007152697,,response,,,,99,,,,,,,Space,keypress(Space),,,,,,,,---- -- ----- -- ------ - ------- --- ----------<br>------------- ------ ------ ---- ---- ------- ----- -- ----<br>-------- partner -- ---------- --- - --- ----- ----- ----<br>---- --- --- ----- --- ---- ---- ------- ----- ---- -------<br>--- --- -- ----- -- --- ---- -- --- ---- -- ------ ------<br>--- ----- -- ----,180683.10000002384,180681.80000007153,180476.982,180478.20000004768,180493.636,180693.495,,19,partner
screen,html.Screen,2_1_0_1_20,2022-02-18T15:14:30.632Z,,,,,,,,,,,,,,,,,53,,,,,,,,,,,,,,368.1050000238465,,response,,,,99,,,,,,,Space,keypress(Space),,,,,,,,---- -- ----- -- ------ - ------- --- ----------<br>------------- ------ ------ ---- ---- ------- ----- -- ----<br>-------- ------- is ---------- --- - --- ----- ----- ----<br>---- --- --- ----- --- ---- ---- ------- ----- ---- -------<br>--- --- -- ----- -- --- ---- -- --- ---- -- ------ ------<br>--- ----- -- ----,181062.80000007153,181061.60000002384,180676.841,180683.30000007153,180693.495,181076.607,,20,is
screen,html.Screen,2_1_0_1_21,2022-02-18T15:14:30.961Z,,,,,,,,,,,,,,,,,53,,,,,,,,,,,,,,313.6930000715365,,response,,,,99,,,,,,,Space,keypress(Space),,,,,,,,---- -- ----- -- ------ - ------- --- ----------<br>------------- ------ ------ ---- ---- ------- ----- -- ----<br>-------- ------- -- paramount. --- - --- ----- ----- ----<br>---- --- --- ----- --- ---- ---- ------- ----- ---- -------<br>--- --- -- ----- -- --- ---- -- --- ---- -- ------ ------<br>--- ----- -- ----,181391.5,181390.30000007153,181059.953,181063.10000002384,181076.607,181392.995,,21,paramount.
screen,html.Screen,2_1_0_1_22,2022-02-18T15:14:31.914Z,,,,,,,,,,,,,,,,,53,,,,,,,,,,,,,,950.4050000953721,,response,,,,99,,,,,,,Space,keypress(Space),,,,,,,,---- -- ----- -- ------ - ------- --- ----------<br>------------- ------ ------ ---- ---- ------- ----- -- ----<br>-------- ------- -- ---------- But - --- ----- ----- ----<br>---- --- --- ----- --- ---- ---- ------- ----- ---- -------<br>--- --- -- ----- -- --- ---- -- --- ---- -- ------ ------<br>--- ----- -- ----,182344.60000002384,182343.40000009537,181376.341,181391.80000007153,181392.995,182358.958,,22,But
screen,html.Screen,2_1_0_1_23,2022-02-18T15:14:32.392Z,,,,,,,,,,,,,,,,,53,,,,,,,,,,,,,,462.44200009535416,,response,,,,99,,,,,,,Space,keypress(Space),,,,,,,,---- -- ----- -- ------ - ------- --- ----------<br>------------- ------ ------ ---- ---- ------- ----- -- ----<br>-------- ------- -- ---------- --- a --- ----- ----- ----<br>---- --- --- ----- --- ---- ---- ------- ----- ---- -------<br>--- --- -- ----- -- --- ---- -- --- ---- -- ------ ------<br>--- ----- -- ----,182822.60000002384,182821.40000009537,182342.304,182344.90000009537,182358.958,182825.255,,23,a
screen,html.Screen,2_1_0_1_24,2022-02-18T15:14:32.686Z,,,,,,,,,,,,,,,,,53,,,,,,,,,,,,,,289.5450000715209,,response,,,,99,,,,,,,Space,keypress(Space),,,,,,,,---- -- ----- -- ------ - ------- --- ----------<br>------------- ------ ------ ---- ---- ------- ----- -- ----<br>-------- ------- -- ---------- --- - new ----- ----- ----<br>---- --- --- ----- --- ---- ---- ------- ----- ---- -------<br>--- --- -- ----- -- --- ---- -- --- ---- -- ------ ------<br>--- ----- -- ----,183116.10000002384,183114.80000007153,182808.601,182822.90000009537,182825.255,183125.073,,24,new
screen,html.Screen,2_1_0_1_25,2022-02-18T15:14:33.050Z,,,,,,,,,,,,,,,,,53,,,,,,,,,,,,,,354.2270000715216,,response,,,,99,,,,,,,Space,keypress(Space),,,,,,,,---- -- ----- -- ------ - ------- --- ----------<br>------------- ------ ------ ---- ---- ------- ----- -- ----<br>-------- ------- -- ---------- --- - --- study ----- ----<br>---- --- --- ----- --- ---- ---- ------- ----- ---- -------<br>--- --- -- ----- -- --- ---- -- --- ---- -- ------ ------<br>--- ----- -- ----,183480.70000004768,183479.30000007153,183108.419,183116.30000007153,183125.073,183491.493,,25,study
screen,html.Screen,2_1_0_1_26,2022-02-18T15:14:33.437Z,,,,,,,,,,,,,,,,,53,,,,,,,,,,,,,,374.50700000001234,,response,,,,99,,,,,,,Space,keypress(Space),,,,,,,,---- -- ----- -- ------ - ------- --- ----------<br>------------- ------ ------ ---- ---- ------- ----- -- ----<br>-------- ------- -- ---------- --- - --- ----- finds ----<br>---- --- --- ----- --- ---- ---- ------- ----- ---- -------<br>--- --- -- ----- -- --- ---- -- --- ---- -- ------ ------<br>--- ----- -- ----,183867.30000007153,183866,183474.839,183480.90000009537,183491.493,183874.569,,26,finds
screen,html.Screen,2_1_0_1_27,2022-02-18T15:14:33.838Z,,,,,,,,,,,,,,,,,53,,,,,,,,,,,,,,392.53100002385327,,response,,,,99,,,,,,,Space,keypress(Space),,,,,,,,---- -- ----- -- ------ - ------- --- ----------<br>------------- ------ ------ ---- ---- ------- ----- -- ----<br>-------- ------- -- ---------- --- - --- ----- ----- that<br>---- --- --- ----- --- ---- ---- ------- ----- ---- -------<br>--- --- -- ----- -- --- ---- -- --- ---- -- ------ ------<br>--- ----- -- ----,184268.60000002384,184267.10000002384,183857.915,183867.60000002384,183874.569,184274.261,,27,that
screen,html.Screen,2_1_0_1_28,2022-02-18T15:14:34.386Z,,,,,,,,,,,,,,,,,53,,,,,,,,,,,,,,541.2390000000014,,response,,,,99,,,,,,,Space,keypress(Space),,,,,,,,---- -- ----- -- ------ - ------- --- ----------<br>------------- ------ ------ ---- ---- ------- ----- -- ----<br>-------- ------- -- ---------- --- - --- ----- ----- ----<br>it's --- --- ----- --- ---- ---- ------- ----- ---- -------<br>--- --- -- ----- -- --- ---- -- --- ---- -- ------ ------<br>--- ----- -- ----,184816.80000007153,184815.5,184257.607,184268.80000007153,184274.261,184823.93,,28,it's
screen,html.Screen,2_1_0_1_29,2022-02-18T15:14:34.578Z,,,,,,,,,,,,,,,,,53,,,,,,,,,,,,,,182.57000000000698,,response,,,,99,,,,,,,Space,keypress(Space),,,,,,,,---- -- ----- -- ------ - ------- --- ----------<br>------------- ------ ------ ---- ---- ------- ----- -- ----<br>-------- ------- -- ---------- --- - --- ----- ----- ----<br>---- not --- ----- --- ---- ---- ------- ----- ---- -------<br>--- --- -- ----- -- --- ---- -- --- ---- -- ------ ------<br>--- ----- -- ----,185007.90000009537,185006.5,184807.276,184817.10000002384,184823.93,185023.746,,29,not
screen,html.Screen,2_1_0_1_30,2022-02-18T15:14:34.903Z,,,,,,,,,,,,,,,,,53,,,,,,,,,,,,,,308.1540000953537,,response,,,,99,,,,,,,Space,keypress(Space),,,,,,,,---- -- ----- -- ------ - ------- --- ----------<br>------------- ------ ------ ---- ---- ------- ----- -- ----<br>-------- ------- -- ---------- --- - --- ----- ----- ----<br>---- --- how ----- --- ---- ---- ------- ----- ---- -------<br>--- --- -- ----- -- --- ---- -- --- ---- -- ------ ------<br>--- ----- -- ----,185333.20000004768,185331.90000009537,185007.092,185008.20000004768,185023.746,185340.266,,30,how
screen,html.Screen,2_1_0_1_31,2022-02-18T15:14:35.193Z,,,,,,,,,,,,,,,,,53,,,,,,,,,,,,,,281.8340000238386,,response,,,,99,,,,,,,Space,keypress(Space),,,,,,,,---- -- ----- -- ------ - ------- --- ----------<br>------------- ------ ------ ---- ---- ------- ----- -- ----<br>-------- ------- -- ---------- --- - --- ----- ----- ----<br>---- --- --- close --- ---- ---- ------- ----- ---- -------<br>--- --- -- ----- -- --- ---- -- --- ---- -- ------ ------<br>--- ----- -- ----,185623.40000009537,185622.10000002384,185323.612,185333.5,185340.266,185639.979,,31,close
screen,html.Screen,2_1_0_1_32,2022-02-18T15:14:35.564Z,,,,,,,,,,,,,,,,,53,,,,,,,,,,,,,,353.6210000238498,,response,,,,99,,,,,,,Space,keypress(Space),,,,,,,,---- -- ----- -- ------ - ------- --- ----------<br>------------- ------ ------ ---- ---- ------- ----- -- ----<br>-------- ------- -- ---------- --- - --- ----- ----- ----<br>---- --- --- ----- you ---- ---- ------- ----- ---- -------<br>--- --- -- ----- -- --- ---- -- --- ---- -- ------ ------<br>--- ----- -- ----,185994.80000007153,185993.60000002384,185623.325,185623.60000002384,185639.979,186006.388,,32,you
screen,html.Screen,2_1_0_1_33,2022-02-18T15:14:36.284Z,,,,,,,,,,,,,,,,,53,,,,,,,,,,,,,,706.4120000715193,,response,,,,99,,,,,,,Space,keypress(Space),,,,,,,,---- -- ----- -- ------ - ------- --- ----------<br>------------- ------ ------ ---- ---- ------- ----- -- ----<br>-------- ------- -- ---------- --- - --- ----- ----- ----<br>---- --- --- ----- --- feel ---- ------- ----- ---- -------<br>--- --- -- ----- -- --- ---- -- --- ---- -- ------ ------<br>--- ----- -- ----,186714.20000004768,186712.80000007153,185989.734,185995.10000002384,186006.388,186722.435,,33,feel
screen,html.Screen,2_1_0_1_34,2022-02-18T15:14:36.878Z,,,,,,,,,,,,,,,,,53,,,,,,,,,,,,,,584.9650000953698,,response,,,,99,,,,,,,Space,keypress(Space),,,,,,,,---- -- ----- -- ------ - ------- --- ----------<br>------------- ------ ------ ---- ---- ------- ----- -- ----<br>-------- ------- -- ---------- --- - --- ----- ----- ----<br>---- --- --- ----- --- ---- that ------- ----- ---- -------<br>--- --- -- ----- -- --- ---- -- --- ---- -- ------ ------<br>--- ----- -- ----,187308.60000002384,187307.40000009537,186705.781,186714.40000009537,186722.435,187322.09,,34,that
screen,html.Screen,2_1_0_1_35,2022-02-18T15:14:37.323Z,,,,,,,,,,,,,,,,,53,,,,,,,,,,,,,,430.1100000476872,,response,,,,99,,,,,,,Space,keypress(Space),,,,,,,,---- -- ----- -- ------ - ------- --- ----------<br>------------- ------ ------ ---- ---- ------- ----- -- ----<br>-------- ------- -- ---------- --- - --- ----- ----- ----<br>---- --- --- ----- --- ---- ---- matters ----- ---- -------<br>--- --- -- ----- -- --- ---- -- --- ---- -- ------ ------<br>--- ----- -- ----,187753.60000002384,187752.20000004768,187305.436,187308.90000009537,187322.09,187755.119,,35,matters
screen,html.Screen,2_1_0_1_36,2022-02-18T15:14:37.674Z,,,,,,,,,,,,,,,,,53,,,,,,,,,,,,,,347.58100004767766,,response,,,,99,,,,,,,Space,keypress(Space),,,,,,,,"---- -- ----- -- ------ - ------- --- ----------<br>------------- ------ ------ ---- ---- ------- ----- -- ----<br>-------- ------- -- ---------- --- - --- ----- ----- ----<br>---- --- --- ----- --- ---- ---- ------- most, ---- -------<br>--- --- -- ----- -- --- ---- -- --- ---- -- ------ ------<br>--- ----- -- ----",188104.40000009537,188102.70000004768,187738.465,187754.20000004768,187755.119,188121.574,,36,"most,"
screen,html.Screen,2_1_0_1_37,2022-02-18T15:14:38.132Z,,,,,,,,,,,,,,,,,53,,,,,,,,,,,,,,437.2260000715323,,response,,,,99,,,,,,,Space,keypress(Space),,,,,,,,---- -- ----- -- ------ - ------- --- ----------<br>------------- ------ ------ ---- ---- ------- ----- -- ----<br>-------- ------- -- ---------- --- - --- ----- ----- ----<br>---- --- --- ----- --- ---- ---- ------- ----- it's -------<br>--- --- -- ----- -- --- ---- -- --- ---- -- ------ ------<br>--- ----- -- ----,188562.20000004768,188558.80000007153,188104.92,188104.80000007153,188121.574,188571.152,,37,it's
screen,html.Screen,2_1_0_1_38,2022-02-18T15:14:38.444Z,,,,,,,,,,,,,,,,,53,,,,,,,,,,,,,,302.44800002384,,response,,,,99,,,,,,,Space,keypress(Space),,,,,,,,---- -- ----- -- ------ - ------- --- ----------<br>------------- ------ ------ ---- ---- ------- ----- -- ----<br>-------- ------- -- ---------- --- - --- ----- ----- ----<br>---- --- --- ----- --- ---- ---- ------- ----- ---- whether<br>--- --- -- ----- -- --- ---- -- --- ---- -- ------ ------<br>--- ----- -- ----,188874.80000007153,188873.60000002384,188554.498,188562.70000004768,188571.152,188887.67,,38,whether
screen,html.Screen,2_1_0_1_39,2022-02-18T15:14:38.890Z,,,,,,,,,,,,,,,,,53,,,,,,,,,,,,,,431.13000007151277,,response,,,,99,,,,,,,Space,keypress(Space),,,,,,,,---- -- ----- -- ------ - ------- --- ----------<br>------------- ------ ------ ---- ---- ------- ----- -- ----<br>-------- ------- -- ---------- --- - --- ----- ----- ----<br>---- --- --- ----- --- ---- ---- ------- ----- ---- -------<br>you --- -- ----- -- --- ---- -- --- ---- -- ------ ------<br>--- ----- -- ----,189320,189318.80000007153,188871.016,188875.10000002384,188887.67,189337.358,,39,you
screen,html.Screen,2_1_0_1_40,2022-02-18T15:14:39.489Z,,,,,,,,,,,,,,,,,53,,,,,,,,,,,,,,581.04200009536,,response,,,,99,,,,,,,Space,keypress(Space),,,,,,,,---- -- ----- -- ------ - ------- --- ----------<br>------------- ------ ------ ---- ---- ------- ----- -- ----<br>-------- ------- -- ---------- --- - --- ----- ----- ----<br>---- --- --- ----- --- ---- ---- ------- ----- ---- -------<br>--- are -- ----- -- --- ---- -- --- ---- -- ------ ------<br>--- ----- -- ----,189919.60000002384,189918.40000009537,189320.704,189320.20000004768,189337.358,189936.824,,40,are
screen,html.Screen,2_1_0_1_41,2022-02-18T15:14:39.899Z,,,,,,,,,,,,,,,,,53,,,,,,,,,,,,,,391.2760000238486,,response,,,,99,,,,,,,Space,keypress(Space),,,,,,,,---- -- ----- -- ------ - ------- --- ----------<br>------------- ------ ------ ---- ---- ------- ----- -- ----<br>-------- ------- -- ---------- --- - --- ----- ----- ----<br>---- --- --- ----- --- ---- ---- ------- ----- ---- -------<br>--- --- as ----- -- --- ---- -- --- ---- -- ------ ------<br>--- ----- -- ----,190329.40000009537,190328.10000002384,189920.17,189919.80000007153,189936.824,190336.629,,41,as
screen,html.Screen,2_1_0_1_42,2022-02-18T15:14:40.541Z,,,,,,,,,,,,,,,,,53,,,,,,,,,,,,,,633.5710000476975,,response,,,,99,,,,,,,Space,keypress(Space),,,,,,,,---- -- ----- -- ------ - ------- --- ----------<br>------------- ------ ------ ---- ---- ------- ----- -- ----<br>-------- ------- -- ---------- --- - --- ----- ----- ----<br>---- --- --- ----- --- ---- ---- ------- ----- ---- -------<br>--- --- -- close -- --- ---- -- --- ---- -- ------ ------<br>--- ----- -- ----,190971.60000002384,190970.20000004768,190319.975,190329.60000002384,190336.629,190986.168,,42,close
screen,html.Screen,2_1_0_1_43,2022-02-18T15:14:40.905Z,,,,,,,,,,,,,,,,,53,,,,,,,,,,,,,,348.2320000953623,,response,,,,99,,,,,,,Space,keypress(Space),,,,,,,,---- -- ----- -- ------ - ------- --- ----------<br>------------- ------ ------ ---- ---- ------- ----- -- ----<br>-------- ------- -- ---------- --- - --- ----- ----- ----<br>---- --- --- ----- --- ---- ---- ------- ----- ---- -------<br>--- --- -- ----- as --- ---- -- --- ---- -- ------ ------<br>--- ----- -- ----,191335.70000004768,191334.40000009537,190969.514,190971.90000009537,190986.168,191352.557,,43,as
screen,html.Screen,2_1_0_1_44,2022-02-18T15:14:41.251Z,,,,,,,,,,,,,,,,,53,,,,,,,,,,,,,,327.4429999999993,,response,,,,99,,,,,,,Space,keypress(Space),,,,,,,,---- -- ----- -- ------ - ------- --- ----------<br>------------- ------ ------ ---- ---- ------- ----- -- ----<br>-------- ------- -- ---------- --- - --- ----- ----- ----<br>---- --- --- ----- --- ---- ---- ------- ----- ---- -------<br>--- --- -- ----- -- you ---- -- --- ---- -- ------ ------<br>--- ----- -- ----,191681.30000007153,191680,191335.903,191336,191352.557,191685.665,,44,you
screen,html.Screen,2_1_0_1_45,2022-02-18T15:14:41.690Z,,,,,,,,,,,,,,,,,53,,,,,,,,,,,,,,433.6350000715174,,response,,,,99,,,,,,,Space,keypress(Space),,,,,,,,---- -- ----- -- ------ - ------- --- ----------<br>------------- ------ ------ ---- ---- ------- ----- -- ----<br>-------- ------- -- ---------- --- - --- ----- ----- ----<br>---- --- --- ----- --- ---- ---- ------- ----- ---- -------<br>--- --- -- ----- -- --- want -- --- ---- -- ------ ------<br>--- ----- -- ----,192120.5,192119.30000007153,191669.011,191681.60000002384,191685.665,192135.35,,45,want
screen,html.Screen,2_1_0_1_46,2022-02-18T15:14:42.104Z,,,,,,,,,,,,,,,,,53,,,,,,,,,,,,,,397.95000007151975,,response,,,,99,,,,,,,Space,keypress(Space),,,,,,,,---- -- ----- -- ------ - ------- --- ----------<br>------------- ------ ------ ---- ---- ------- ----- -- ----<br>-------- ------- -- ---------- --- - --- ----- ----- ----<br>---- --- --- ----- --- ---- ---- ------- ----- ---- -------<br>--- --- -- ----- -- --- ---- to --- ---- -- ------ ------<br>--- ----- -- ----,192534.70000004768,192533.30000007153,192118.696,192120.80000007153,192135.35,192551.779,,46,to
screen,html.Screen,2_1_0_1_47,2022-02-18T15:14:42.482Z,,,,,,,,,,,,,,,,,53,,,,,,,,,,,,,,358.8210000238323,,response,,,,99,,,,,,,Space,keypress(Space),,,,,,,,"---- -- ----- -- ------ - ------- --- ----------<br>------------- ------ ------ ---- ---- ------- ----- -- ----<br>-------- ------- -- ---------- --- - --- ----- ----- ----<br>---- --- --- ----- --- ---- ---- ------- ----- ---- -------<br>--- --- -- ----- -- --- ---- -- be, ---- -- ------ ------<br>--- ----- -- ----",192911.90000009537,192910.60000002384,192535.125,192534.90000009537,192551.779,192918.102,,47,"be,"
screen,html.Screen,2_1_0_1_48,2022-02-18T15:14:42.977Z,,,,,,,,,,,,,,,,,53,,,,,,,,,,,,,,487.7980000953539,,response,,,,99,,,,,,,Space,keypress(Space),,,,,,,,---- -- ----- -- ------ - ------- --- ----------<br>------------- ------ ------ ---- ---- ------- ----- -- ----<br>-------- ------- -- ---------- --- - --- ----- ----- ----<br>---- --- --- ----- --- ---- ---- ------- ----- ---- -------<br>--- --- -- ----- -- --- ---- -- --- even -- ------ ------<br>--- ----- -- ----,193407.30000007153,193405.90000009537,192901.448,192912.20000004768,192918.102,193417.768,,48,even
screen,html.Screen,2_1_0_1_49,2022-02-18T15:14:43.218Z,,,,,,,,,,,,,,,,,53,,,,,,,,,,,,,,229.03200007151463,,response,,,,99,,,,,,,Space,keypress(Space),,,,,,,,---- -- ----- -- ------ - ------- --- ----------<br>------------- ------ ------ ---- ---- ------- ----- -- ----<br>-------- ------- -- ---------- --- - --- ----- ----- ----<br>---- --- --- ----- --- ---- ---- ------- ----- ---- -------<br>--- --- -- ----- -- --- ---- -- --- ---- if ------ ------<br>--- ----- -- ----,193648.20000004768,193646.80000007153,193401.114,193407.5,193417.768,193650.93,,49,if
screen,html.Screen,2_1_0_1_50,2022-02-18T15:14:43.484Z,,,,,,,,,,,,,,,,,53,,,,,,,,,,,,,,262.17000002384884,,response,,,,99,,,,,,,Space,keypress(Space),,,,,,,,---- -- ----- -- ------ - ------- --- ----------<br>------------- ------ ------ ---- ---- ------- ----- -- ----<br>-------- ------- -- ---------- --- - --- ----- ----- ----<br>---- --- --- ----- --- ---- ---- ------- ----- ---- -------<br>--- --- -- ----- -- --- ---- -- --- ---- -- that's ------<br>--- ----- -- ----,193914.40000009537,193913.10000002384,193634.276,193648.40000009537,193650.93,193917.417,,50,that's
screen,html.Screen,2_1_0_1_51,2022-02-18T15:14:43.990Z,,,,,,,,,,,,,,,,,53,,,,,,,,,,,,,,501.283000047697,,response,,,,99,,,,,,,Space,keypress(Space),,,,,,,,---- -- ----- -- ------ - ------- --- ----------<br>------------- ------ ------ ---- ---- ------- ----- -- ----<br>-------- ------- -- ---------- --- - --- ----- ----- ----<br>---- --- --- ----- --- ---- ---- ------- ----- ---- -------<br>--- --- -- ----- -- --- ---- -- --- ---- -- ------ really<br>--- ----- -- ----,194419.80000007153,194418.70000004768,193900.763,193914.70000004768,193917.417,194433.726,,51,really
screen,html.Screen,2_1_0_1_52,2022-02-18T15:14:44.468Z,,,,,,,,,,,,,,,,,53,,,,,,,,,,,,,,463.4740000476886,,response,,,,99,,,,,,,Space,keypress(Space),,,,,,,,---- -- ----- -- ------ - ------- --- ----------<br>------------- ------ ------ ---- ---- ------- ----- -- ----<br>-------- ------- -- ---------- --- - --- ----- ----- ----<br>---- --- --- ----- --- ---- ---- ------- ----- ---- -------<br>--- --- -- ----- -- --- ---- -- --- ---- -- ------ ------<br>not ----- -- ----,194898.60000002384,194897.20000004768,194417.072,194420.20000004768,194433.726,194900.081,,52,not
screen,html.Screen,2_1_0_1_53,2022-02-18T15:14:44.833Z,,,,,,,,,,,,,,,,,53,,,,,,,,,,,,,,362.21900007152,,response,,,,99,,,,,,,Space,keypress(Space),,,,,,,,---- -- ----- -- ------ - ------- --- ----------<br>------------- ------ ------ ---- ---- ------- ----- -- ----<br>-------- ------- -- ---------- --- - --- ----- ----- ----<br>---- --- --- ----- --- ---- ---- ------- ----- ---- -------<br>--- --- -- ----- -- --- ---- -- --- ---- -- ------ ------<br>--- close -- ----,195263.70000004768,195262.30000007153,194883.427,194898.80000007153,194900.081,195266.43,,53,close
screen,html.Screen,2_1_0_1_54,2022-02-18T15:14:45.202Z,,,,,,,,,,,,,,,,,53,,,,,,,,,,,,,,364.37000007153256,,response,,,,99,,,,,,,Space,keypress(Space),,,,,,,,---- -- ----- -- ------ - ------- --- ----------<br>------------- ------ ------ ---- ---- ------- ----- -- ----<br>-------- ------- -- ---------- --- - --- ----- ----- ----<br>---- --- --- ----- --- ---- ---- ------- ----- ---- -------<br>--- --- -- ----- -- --- ---- -- --- ---- -- ------ ------<br>--- ----- at ----,195632.20000004768,195630.80000007153,195249.776,195264,195266.43,195649.55,,54,at
screen,html.Screen,2_1_0_1_55,2022-02-18T15:14:45.577Z,,,,,,,,,,,,,,,,,53,,,,,,,,,,,,,,356.45000000001164,,response,,,,99,,,,,,,Space,keypress(Space),,,,,,,,---- -- ----- -- ------ - ------- --- ----------<br>------------- ------ ------ ---- ---- ------- ----- -- ----<br>-------- ------- -- ---------- --- - --- ----- ----- ----<br>---- --- --- ----- --- ---- ---- ------- ----- ---- -------<br>--- --- -- ----- -- --- ---- -- --- ---- -- ------ ------<br>--- ----- -- all.,196007.20000004768,196006,195632.896,195632.5,195649.55,196032.591,,55,all.
Item 99,flow.Loop,2_1_0_1,2022-02-18T15:14:45.577Z,,,,,,,,,,,,,,,,,,,,,,,,,,,,,,,34415.619000000006,,completion,,,,,A,,,,,,,,,,,silence,,,,,196007.80000007153,196006,161390.533,161398.30000007153,161590.381,196032.591,,,
Question 1,html.Screen,2_1_0_2,2022-02-18T15:14:53.336Z,,,,,,,,,,,,,,,,,,,,,,,,,,,,true,FALSE,,7733.309000095382,,response,,,,99,A,,,,,,FALSE,click #choice-2,,,,silence,,,,,203766.70000004768,203765.90000009537,195999.283,196008,196032.591,203777.022,,,
Question 2,html.Screen,2_1_0_3,2022-02-18T15:15:08.641Z,,,,,,,,,,,,,,,,,,,,,,,,,,,,true,TRUE,,15291.578000023845,,response,,,,99,A,,,,,,TRUE,click #choice-1,,,,silence,,,,,219069.5,219068.60000002384,203760.368,203766.90000009537,203777.022,219082.835,,,
Item 99,flow.Sequence,2_1_0,2022-02-18T15:15:08.641Z,,,,,,,,,,,,,,,,,,,,,,,,,,,,,,,67654.32400002383,,completion,,,,,,,,,,,,,,,,,,,,,219069.70000004768,219068.60000002384,151397.622,151402.70000004768,151414.276,219082.835,,,
Holding screen,html.Screen,2_1_1_0,2022-02-18T15:15:18.632Z,,,,,,,,,,,,,,,,,,,,,,,,,,,,,,,9992.868000000017,,timeout,,,,,,,,,,,,,,,,,,,,,229060.5,229059.049,219066.181,219069.80000007153,219082.835,229075.703,,,
screen,html.Screen,2_1_1_1_0,2022-02-18T15:15:21.874Z,,,,,,,,,,,,,,,,,54,,,,,,,,,,,,,,3226.097000071517,,response,,,,100,,,,,,,Space,keypress(Space),,,,,,,,At --- ---- --- ------ ----- ------- ---- -- --- ------- --<br>------- ---------- ------ -- ----- -- ----- -- ---- ------<br>--- ----- --- --- ------ -------- ----- --- ------ ----- --<br>----- ----- ---------- --- --- ------ ------ ---- -- ------<br>------- --- ------ ----- --- ---- ------- -- ---- --- --<br>------- ------,232303.20000004768,232301.80000007153,229059.049,229060.80000007153,229075.703,232306.62,,0,At
screen,html.Screen,2_1_1_1_1,2022-02-18T15:15:22.136Z,,,,,,,,,,,,,,,,,54,,,,,,,,,,,,,,257.2800000953721,,response,,,,100,,,,,,,Space,keypress(Space),,,,,,,,-- the ---- --- ------ ----- ------- ---- -- --- ------- --<br>------- ---------- ------ -- ----- -- ----- -- ---- ------<br>--- ----- --- --- ------ -------- ----- --- ------ ----- --<br>----- ----- ---------- --- --- ------ ------ ---- -- ------<br>------- --- ------ ----- --- ---- ------- -- ---- --- --<br>------- ------,232565,232563.90000009537,232289.966,232303.40000009537,232306.62,232573.124,,1,the
screen,html.Screen,2_1_1_1_2,2022-02-18T15:15:22.287Z,,,,,,,,,,,,,,,,,54,,,,,,,,,,,,,,141.576000047673,,response,,,,100,,,,,,,Space,keypress(Space),,,,,,,,-- --- time --- ------ ----- ------- ---- -- --- ------- --<br>------- ---------- ------ -- ----- -- ----- -- ---- ------<br>--- ----- --- --- ------ -------- ----- --- ------ ----- --<br>----- ----- ---------- --- --- ------ ------ ---- -- ------<br>------- --- ------ ----- --- ---- ------- -- ---- --- --<br>------- ------,232715.90000009537,232714.70000004768,232556.47,232565.30000007153,232573.124,232723.168,,2,time
screen,html.Screen,2_1_1_1_3,2022-02-18T15:15:22.623Z,,,,,,,,,,,,,,,,,54,,,,,,,,,,,,,,327.3319999999949,,response,,,,100,,,,,,,Space,keypress(Space),,,,,,,,-- --- ---- the ------ ----- ------- ---- -- --- ------- --<br>------- ---------- ------ -- ----- -- ----- -- ---- ------<br>--- ----- --- --- ------ -------- ----- --- ------ ----- --<br>----- ----- ---------- --- --- ------ ------ ---- -- ------<br>------- --- ------ ----- --- ---- ------- -- ---- --- --<br>------- ------,233051.70000004768,233050.5,232706.514,232716.20000004768,232723.168,233056.25,,3,the
screen,html.Screen,2_1_1_1_4,2022-02-18T15:15:23.049Z,,,,,,,,,,,,,,,,,54,,,,,,,,,,,,,,420.4500000476837,,response,,,,100,,,,,,,Space,keypress(Space),,,,,,,,-- --- ---- --- French ----- ------- ---- -- --- ------- --<br>------- ---------- ------ -- ----- -- ----- -- ---- ------<br>--- ----- --- --- ------ -------- ----- --- ------ ----- --<br>----- ----- ---------- --- --- ------ ------ ---- -- ------<br>------- --- ------ ----- --- ---- ------- -- ---- --- --<br>------- ------,233478,233476.70000004768,233039.596,233051.90000009537,233056.25,233489.29,,4,French
screen,html.Screen,2_1_1_1_5,2022-02-18T15:15:23.499Z,,,,,,,,,,,,,,,,,54,,,,,,,,,,,,,,437.41000004767557,,response,,,,100,,,,,,,Space,keypress(Space),,,,,,,,-- --- ---- --- ------ crown ------- ---- -- --- ------- --<br>------- ---------- ------ -- ----- -- ----- -- ---- ------<br>--- ----- --- --- ------ -------- ----- --- ------ ----- --<br>----- ----- ---------- --- --- ------ ------ ---- -- ------<br>------- --- ------ ----- --- ---- ------- -- ---- --- --<br>------- ------,233928.10000002384,233926.70000004768,233472.636,233478.30000007153,233489.29,233938.905,,5,crown
screen,html.Screen,2_1_1_1_6,2022-02-18T15:15:23.848Z,,,,,,,,,,,,,,,,,54,,,,,,,,,,,,,,336.59500000000116,,response,,,,100,,,,,,,Space,keypress(Space),,,,,,,,-- --- ---- --- ------ ----- secured ---- -- --- ------- --<br>------- ---------- ------ -- ----- -- ----- -- ---- ------<br>--- ----- --- --- ------ -------- ----- --- ------ ----- --<br>----- ----- ---------- --- --- ------ ------ ---- -- ------<br>------- --- ------ ----- --- ---- ------- -- ---- --- --<br>------- ------,234276.70000004768,234275.5,233922.251,233928.40000009537,233938.905,234288.746,,6,secured
screen,html.Screen,2_1_1_1_7,2022-02-18T15:15:24.225Z,,,,,,,,,,,,,,,,,54,,,,,,,,,,,,,,364.3540000238281,,response,,,,100,,,,,,,Space,keypress(Space),,,,,,,,-- --- ---- --- ------ ----- ------- much -- --- ------- --<br>------- ---------- ------ -- ----- -- ----- -- ---- ------<br>--- ----- --- --- ------ -------- ----- --- ------ ----- --<br>----- ----- ---------- --- --- ------ ------ ---- -- ------<br>------- --- ------ ----- --- ---- ------- -- ---- --- --<br>------- ------,234654.20000004768,234653.10000002384,234272.092,234277,234288.746,234671.753,,7,much
screen,html.Screen,2_1_1_1_8,2022-02-18T15:15:24.641Z,,,,,,,,,,,,,,,,,54,,,,,,,,,,,,,,396.747000000003,,response,,,,100,,,,,,,Space,keypress(Space),,,,,,,,-- --- ---- --- ------ ----- ------- ---- of --- ------- --<br>------- ---------- ------ -- ----- -- ----- -- ---- ------<br>--- ----- --- --- ------ -------- ----- --- ------ ----- --<br>----- ----- ---------- --- --- ------ ------ ---- -- ------<br>------- --- ------ ----- --- ---- ------- -- ---- --- --<br>------- ------,235069.70000004768,235068.5,234655.099,234654.5,234671.753,235071.779,,8,of
screen,html.Screen,2_1_1_1_9,2022-02-18T15:15:24.856Z,,,,,,,,,,,,,,,,,54,,,,,,,,,,,,,,211.92100004767417,,response,,,,100,,,,,,,Space,keypress(Space),,,,,,,,-- --- ---- --- ------ ----- ------- ---- -- its ------- --<br>------- ---------- ------ -- ----- -- ----- -- ---- ------<br>--- ----- --- --- ------ -------- ----- --- ------ ----- --<br>----- ----- ---------- --- --- ------ ------ ---- -- ------<br>------- --- ------ ----- --- ---- ------- -- ---- --- --<br>------- ------,235284.90000009537,235283.70000004768,235055.125,235070,235071.779,235287.987,,9,its
screen,html.Screen,2_1_1_1_10,2022-02-18T15:15:25.293Z,,,,,,,,,,,,,,,,,54,,,,,,,,,,,,,,432.31300007153186,,response,,,,100,,,,,,,Space,keypress(Space),,,,,,,,-- --- ---- --- ------ ----- ------- ---- -- --- revenue --<br>------- ---------- ------ -- ----- -- ----- -- ---- ------<br>--- ----- --- --- ------ -------- ----- --- ------ ----- --<br>----- ----- ---------- --- --- ------ ------ ---- -- ------<br>------- --- ------ ----- --- ---- ------- -- ---- --- --<br>------- ------,235721.5,235720.30000007153,235271.333,235285.20000004768,235287.987,235737.673,,10,revenue
screen,html.Screen,2_1_1_1_11,2022-02-18T15:15:25.696Z,,,,,,,,,,,,,,,,,54,,,,,,,,,,,,,,386.52700004767394,,response,,,,100,,,,,,,Space,keypress(Space),,,,,,,,-- --- ---- --- ------ ----- ------- ---- -- --- ------- by<br>------- ---------- ------ -- ----- -- ----- -- ---- ------<br>--- ----- --- --- ------ -------- ----- --- ------ ----- --<br>----- ----- ---------- --- --- ------ ------ ---- -- ------<br>------- --- ------ ----- --- ---- ------- -- ---- --- --<br>------- ------,236125.40000009537,236124.20000004768,235721.019,235721.80000007153,235737.673,236137.38,,11,by
screen,html.Screen,2_1_1_1_12,2022-02-18T15:15:26.044Z,,,,,,,,,,,,,,,,,54,,,,,,,,,,,,,,334.82000004767906,,response,,,,100,,,,,,,Space,keypress(Space),,,,,,,,-- --- ---- --- ------ ----- ------- ---- -- --- ------- --<br>issuing ---------- ------ -- ----- -- ----- -- ---- ------<br>--- ----- --- --- ------ -------- ----- --- ------ ----- --<br>----- ----- ---------- --- --- ------ ------ ---- -- ------<br>------- --- ------ ----- --- ---- ------- -- ---- --- --<br>------- ------,236473.40000009537,236472.20000004768,236120.726,236125.60000002384,236137.38,236487.168,,12,issuing
screen,html.Screen,2_1_1_1_13,2022-02-18T15:15:26.458Z,,,,,,,,,,,,,,,,,54,,,,,,,,,,,,,,398.43200002383674,,response,,,,100,,,,,,,Space,keypress(Space),,,,,,,,-- --- ---- --- ------ ----- ------- ---- -- --- ------- --<br>------- government ------ -- ----- -- ----- -- ---- ------<br>--- ----- --- --- ------ -------- ----- --- ------ ----- --<br>----- ----- ---------- --- --- ------ ------ ---- -- ------<br>------- --- ------ ----- --- ---- ------- -- ---- --- --<br>------- ------,236887,236885.60000002384,236470.514,236473.60000002384,236487.168,236903.497,,13,government
screen,html.Screen,2_1_1_1_14,2022-02-18T15:15:26.843Z,,,,,,,,,,,,,,,,,54,,,,,,,,,,,,,,367.7030000476807,,response,,,,100,,,,,,,Space,keypress(Space),,,,,,,,-- --- ---- --- ------ ----- ------- ---- -- --- ------- --<br>------- ---------- bonds. -- ----- -- ----- -- ---- ------<br>--- ----- --- --- ------ -------- ----- --- ------ ----- --<br>----- ----- ---------- --- --- ------ ------ ---- -- ------<br>------- --- ------ ----- --- ---- ------- -- ---- --- --<br>------- ------,237272.30000007153,237271.20000004768,236886.843,236887.30000007153,236903.497,237286.569,,14,bonds.
screen,html.Screen,2_1_1_1_15,2022-02-18T15:15:29.188Z,,,,,,,,,,,,,,,,,54,,,,,,,,,,,,,,2329.231000071537,,response,,,,100,,,,,,,Space,keypress(Space),,,,,,,,-- --- ---- --- ------ ----- ------- ---- -- --- ------- --<br>------- ---------- ------ In ----- -- ----- -- ---- ------<br>--- ----- --- --- ------ -------- ----- --- ------ ----- --<br>----- ----- ---------- --- --- ------ ------ ---- -- ------<br>------- --- ------ ----- --- ---- ------- -- ---- --- --<br>------- ------,239616.90000009537,239615.80000007153,237269.915,237272.60000002384,237286.569,239634.796,,15,In
screen,html.Screen,2_1_1_1_16,2022-02-18T15:15:29.507Z,,,,,,,,,,,,,,,,,54,,,,,,,,,,,,,,299.7039999999979,,response,,,,100,,,,,,,Space,keypress(Space),,,,,,,,"-- --- ---- --- ------ ----- ------- ---- -- --- ------- --<br>------- ---------- ------ -- 1727, -- ----- -- ---- ------<br>--- ----- --- --- ------ -------- ----- --- ------ ----- --<br>----- ----- ---------- --- --- ------ ------ ---- -- ------<br>------- --- ------ ----- --- ---- ------- -- ---- --- --<br>------- ------",239936,239934.5,239618.142,239617.20000004768,239634.796,239951.278,,16,"1727,"
screen,html.Screen,2_1_1_1_17,2022-02-18T15:15:30.781Z,,,,,,,,,,,,,,,,,54,,,,,,,,,,,,,,1257.4220000476926,,response,,,,100,,,,,,,Space,keypress(Space),,,,,,,,-- --- ---- --- ------ ----- ------- ---- -- --- ------- --<br>------- ---------- ------ -- ----- in ----- -- ---- ------<br>--- ----- --- --- ------ -------- ----- --- ------ ----- --<br>----- ----- ---------- --- --- ------ ------ ---- -- ------<br>------- --- ------ ----- --- ---- ------- -- ---- --- --<br>------- ------,241209.90000009537,241208.70000004768,239934.624,239936.20000004768,239951.278,241217.072,,17,in
screen,html.Screen,2_1_1_1_18,2022-02-18T15:15:31.257Z,,,,,,,,,,,,,,,,,54,,,,,,,,,,,,,,467.82800009538187,,response,,,,100,,,,,,,Space,keypress(Space),,,,,,,,-- --- ---- --- ------ ----- ------- ---- -- --- ------- --<br>------- ---------- ------ -- ----- -- order -- ---- ------<br>--- ----- --- --- ------ -------- ----- --- ------ ----- --<br>----- ----- ---------- --- --- ------ ------ ---- -- ------<br>------- --- ------ ----- --- ---- ------- -- ---- --- --<br>------- ------,241686.20000004768,241684.90000009537,241200.418,241210.10000002384,241217.072,241700.054,,18,order
screen,html.Screen,2_1_1_1_19,2022-02-18T15:15:31.604Z,,,,,,,,,,,,,,,,,54,,,,,,,,,,,,,,331.4459999999963,,response,,,,100,,,,,,,Space,keypress(Space),,,,,,,,-- --- ---- --- ------ ----- ------- ---- -- --- ------- --<br>------- ---------- ------ -- ----- -- ----- to ---- ------<br>--- ----- --- --- ------ -------- ----- --- ------ ----- --<br>----- ----- ---------- --- --- ------ ------ ---- -- ------<br>------- --- ------ ----- --- ---- ------- -- ---- --- --<br>------- ------,242032.90000009537,242031.5,241683.4,241686.40000009537,241700.054,242049.85,,19,to
screen,html.Screen,2_1_1_1_20,2022-02-18T15:15:31.868Z,,,,,,,,,,,,,,,,,54,,,,,,,,,,,,,,245.25000002383604,,response,,,,100,,,,,,,Space,keypress(Space),,,,,,,,-- --- ---- --- ------ ----- ------- ---- -- --- ------- --<br>------- ---------- ------ -- ----- -- ----- -- save ------<br>--- ----- --- --- ------ -------- ----- --- ------ ----- --<br>----- ----- ---------- --- --- ------ ------ ---- -- ------<br>------- --- ------ ----- --- ---- ------- -- ---- --- --<br>------- ------,242296.5,242295.10000002384,242033.196,242033.30000007153,242049.85,242299.701,,20,save
screen,html.Screen,2_1_1_1_21,2022-02-18T15:15:32.112Z,,,,,,,,,,,,,,,,,54,,,,,,,,,,,,,,239.59900007152464,,response,,,,100,,,,,,,Space,keypress(Space),,,,,,,,"-- --- ---- --- ------ ----- ------- ---- -- --- ------- --<br>------- ---------- ------ -- ----- -- ----- -- ---- money,<br>--- ----- --- --- ------ -------- ----- --- ------ ----- --<br>----- ----- ---------- --- --- ------ ------ ---- -- ------<br>------- --- ------ ----- --- ---- ------- -- ---- --- --<br>------- ------",242540.70000004768,242539.30000007153,242283.047,242296.70000004768,242299.701,242549.522,,21,"money,"
screen,html.Screen,2_1_1_1_22,2022-02-18T15:15:32.716Z,,,,,,,,,,,,,,,,,54,,,,,,,,,,,,,,594.0780000238447,,response,,,,100,,,,,,,Space,keypress(Space),,,,,,,,-- --- ---- --- ------ ----- ------- ---- -- --- ------- --<br>------- ---------- ------ -- ----- -- ----- -- ---- ------<br>the ----- --- --- ------ -------- ----- --- ------ ----- --<br>----- ----- ---------- --- --- ------ ------ ---- -- ------<br>------- --- ------ ----- --- ---- ------- -- ---- --- --<br>------- ------,243144.80000007153,243143.60000002384,242532.868,242540.90000009537,242549.522,243149.124,,22,the
screen,html.Screen,2_1_1_1_23,2022-02-18T15:15:33.080Z,,,,,,,,,,,,,,,,,54,,,,,,,,,,,,,,358.8759999999893,,response,,,,100,,,,,,,Space,keypress(Space),,,,,,,,-- --- ---- --- ------ ----- ------- ---- -- --- ------- --<br>------- ---------- ------ -- ----- -- ----- -- ---- ------<br>--- state --- --- ------ -------- ----- --- ------ ----- --<br>----- ----- ---------- --- --- ------ ------ ---- -- ------<br>------- --- ------ ----- --- ---- ------- -- ---- --- --<br>------- ------,243509.30000007153,243508,243132.47,243145,243149.124,243515.46,,23,state
screen,html.Screen,2_1_1_1_24,2022-02-18T15:15:33.245Z,,,,,,,,,,,,,,,,,54,,,,,,,,,,,,,,157.34000007153372,,response,,,,100,,,,,,,Space,keypress(Space),,,,,,,,-- --- ---- --- ------ ----- ------- ---- -- --- ------- --<br>------- ---------- ------ -- ----- -- ----- -- ---- ------<br>--- ----- cut --- ------ -------- ----- --- ------ ----- --<br>----- ----- ---------- --- --- ------ ------ ---- -- ------<br>------- --- ------ ----- --- ---- ------- -- ---- --- --<br>------- ------,243674.10000002384,243672.80000007153,243498.806,243509.60000002384,243515.46,243682.283,,24,cut
screen,html.Screen,2_1_1_1_25,2022-02-18T15:15:33.615Z,,,,,,,,,,,,,,,,,54,,,,,,,,,,,,,,360.6170000953716,,response,,,,100,,,,,,,Space,keypress(Space),,,,,,,,-- --- ---- --- ------ ----- ------- ---- -- --- ------- --<br>------- ---------- ------ -- ----- -- ----- -- ---- ------<br>--- ----- --- the ------ -------- ----- --- ------ ----- --<br>----- ----- ---------- --- --- ------ ------ ---- -- ------<br>------- --- ------ ----- --- ---- ------- -- ---- --- --<br>------- ------,244044.30000007153,244042.90000009537,243665.629,243674.30000007153,243682.283,244048.439,,25,the
screen,html.Screen,2_1_1_1_26,2022-02-18T15:15:34.014Z,,,,,,,,,,,,,,,,,54,,,,,,,,,,,,,,392.9610000953544,,response,,,,100,,,,,,,Space,keypress(Space),,,,,,,,-- --- ---- --- ------ ----- ------- ---- -- --- ------- --<br>------- ---------- ------ -- ----- -- ----- -- ---- ------<br>--- ----- --- --- bonds' -------- ----- --- ------ ----- --<br>----- ----- ---------- --- --- ------ ------ ---- -- ------<br>------- --- ------ ----- --- ---- ------- -- ---- --- --<br>------- ------,244442.90000009537,244441.40000009537,244031.785,244044.5,244048.439,244448.148,,26,bonds'
screen,html.Screen,2_1_1_1_27,2022-02-18T15:15:34.819Z,,,,,,,,,,,,,,,,,54,,,,,,,,,,,,,,799.0520000476972,,response,,,,100,,,,,,,Space,keypress(Space),,,,,,,,-- --- ---- --- ------ ----- ------- ---- -- --- ------- --<br>------- ---------- ------ -- ----- -- ----- -- ---- ------<br>--- ----- --- --- ------ interest ----- --- ------ ----- --<br>----- ----- ---------- --- --- ------ ------ ---- -- ------<br>------- --- ------ ----- --- ---- ------- -- ---- --- --<br>------- ------,245247.80000007153,245247.20000004768,244431.494,244443.10000002384,244448.148,245264.214,,27,interest
screen,html.Screen,2_1_1_1_28,2022-02-18T15:15:35.199Z,,,,,,,,,,,,,,,,,54,,,,,,,,,,,,,,363.08600007151836,,response,,,,100,,,,,,,Space,keypress(Space),,,,,,,,-- --- ---- --- ------ ----- ------- ---- -- --- ------- --<br>------- ---------- ------ -- ----- -- ----- -- ---- ------<br>--- ----- --- --- ------ -------- rate. --- ------ ----- --<br>----- ----- ---------- --- --- ------ ------ ---- -- ------<br>------- --- ------ ----- --- ---- ------- -- ---- --- --<br>------- ------,245628.20000004768,245627.30000007153,245247.56,245248,245264.214,245630.587,,28,rate.
screen,html.Screen,2_1_1_1_29,2022-02-18T15:15:36.076Z,,,,,,,,,,,,,,,,,54,,,,,,,,,,,,,,873.4130000000005,,response,,,,100,,,,,,,Space,keypress(Space),,,,,,,,-- --- ---- --- ------ ----- ------- ---- -- --- ------- --<br>------- ---------- ------ -- ----- -- ----- -- ---- ------<br>--- ----- --- --- ------ -------- ----- The ------ ----- --<br>----- ----- ---------- --- --- ------ ------ ---- -- ------<br>------- --- ------ ----- --- ---- ------- -- ---- --- --<br>------- ------,246505.30000007153,246504,245613.933,245628.40000009537,245630.587,246513.223,,29,The
screen,html.Screen,2_1_1_1_30,2022-02-18T15:15:36.646Z,,,,,,,,,,,,,,,,,54,,,,,,,,,,,,,,560.1770000953693,,response,,,,100,,,,,,,Space,keypress(Space),,,,,,,,-- --- ---- --- ------ ----- ------- ---- -- --- ------- --<br>------- ---------- ------ -- ----- -- ----- -- ---- ------<br>--- ----- --- --- ------ -------- ----- --- market ----- --<br>----- ----- ---------- --- --- ------ ------ ---- -- ------<br>------- --- ------ ----- --- ---- ------- -- ---- --- --<br>------- ------,247074.60000002384,247073.40000009537,246496.569,246505.60000002384,246513.223,247079.496,,30,market
screen,html.Screen,2_1_1_1_31,2022-02-18T15:15:36.937Z,,,,,,,,,,,,,,,,,54,,,,,,,,,,,,,,285.20400004767,,response,,,,100,,,,,,,Space,keypress(Space),,,,,,,,-- --- ---- --- ------ ----- ------- ---- -- --- ------- --<br>------- ---------- ------ -- ----- -- ----- -- ---- ------<br>--- ----- --- --- ------ -------- ----- --- ------ value --<br>----- ----- ---------- --- --- ------ ------ ---- -- ------<br>------- --- ------ ----- --- ---- ------- -- ---- --- --<br>------- ------,247365.90000009537,247364.70000004768,247062.842,247074.80000007153,247079.496,247379.397,,31,value
screen,html.Screen,2_1_1_1_32,2022-02-18T15:15:37.402Z,,,,,,,,,,,,,,,,,54,,,,,,,,,,,,,,450.8030000476865,,response,,,,100,,,,,,,Space,keypress(Space),,,,,,,,-- --- ---- --- ------ ----- ------- ---- -- --- ------- --<br>------- ---------- ------ -- ----- -- ----- -- ---- ------<br>--- ----- --- --- ------ -------- ----- --- ------ ----- of<br>----- ----- ---------- --- --- ------ ------ ---- -- ------<br>------- --- ------ ----- --- ---- ------- -- ---- --- --<br>------- ------,247831.40000009537,247830.20000004768,247362.743,247366.20000004768,247379.397,247845.682,,32,of
screen,html.Screen,2_1_1_1_33,2022-02-18T15:15:37.980Z,,,,,,,,,,,,,,,,,54,,,,,,,,,,,,,,561.9180000238412,,response,,,,100,,,,,,,Space,keypress(Space),,,,,,,,-- --- ---- --- ------ ----- ------- ---- -- --- ------- --<br>------- ---------- ------ -- ----- -- ----- -- ---- ------<br>--- ----- --- --- ------ -------- ----- --- ------ ----- --<br>these ----- ---------- --- --- ------ ------ ---- -- ------<br>------- --- ------ ----- --- ---- ------- -- ---- --- --<br>------- ------,248408.70000004768,248407.60000002384,247829.028,247831.80000007153,247845.682,248411.994,,33,these
screen,html.Screen,2_1_1_1_34,2022-02-18T15:15:38.358Z,,,,,,,,,,,,,,,,,54,,,,,,,,,,,,,,373.50599999999395,,response,,,,100,,,,,,,Space,keypress(Space),,,,,,,,-- --- ---- --- ------ ----- ------- ---- -- --- ------- --<br>------- ---------- ------ -- ----- -- ----- -- ---- ------<br>--- ----- --- --- ------ -------- ----- --- ------ ----- --<br>----- bonds ---------- --- --- ------ ------ ---- -- ------<br>------- --- ------ ----- --- ---- ------- -- ---- --- --<br>------- ------,248786.80000007153,248785.5,248395.34,248409,248411.994,248794.994,,34,bonds
screen,html.Screen,2_1_1_1_35,2022-02-18T15:15:39.169Z,,,,,,,,,,,,,,,,,54,,,,,,,,,,,,,,801.8060000715195,,response,,,,100,,,,,,,Space,keypress(Space),,,,,,,,"-- --- ---- --- ------ ----- ------- ---- -- --- ------- --<br>------- ---------- ------ -- ----- -- ----- -- ---- ------<br>--- ----- --- --- ------ -------- ----- --- ------ ----- --<br>----- ----- plummeted, --- --- ------ ------ ---- -- ------<br>------- --- ------ ----- --- ---- ------- -- ---- --- --<br>------- ------",249598.10000002384,249596.80000007153,248778.34,248787.10000002384,248794.994,249611.124,,35,"plummeted,"
screen,html.Screen,2_1_1_1_36,2022-02-18T15:15:39.867Z,,,,,,,,,,,,,,,,,54,,,,,,,,,,,,,,683.6760000715149,,response,,,,100,,,,,,,Space,keypress(Space),,,,,,,,-- --- ---- --- ------ ----- ------- ---- -- --- ------- --<br>------- ---------- ------ -- ----- -- ----- -- ---- ------<br>--- ----- --- --- ------ -------- ----- --- ------ ----- --<br>----- ----- ---------- and --- ------ ------ ---- -- ------<br>------- --- ------ ----- --- ---- ------- -- ---- --- --<br>------- ------,250296.10000002384,250294.80000007153,249594.47,249598.40000009537,249611.124,250310.651,,36,and
screen,html.Screen,2_1_1_1_37,2022-02-18T15:15:40.255Z,,,,,,,,,,,,,,,,,54,,,,,,,,,,,,,,371.8489999999874,,response,,,,100,,,,,,,Space,keypress(Space),,,,,,,,-- --- ---- --- ------ ----- ------- ---- -- --- ------- --<br>------- ---------- ------ -- ----- -- ----- -- ---- ------<br>--- ----- --- --- ------ -------- ----- --- ------ ----- --<br>----- ----- ---------- --- the ------ ------ ---- -- ------<br>------- --- ------ ----- --- ---- ------- -- ---- --- --<br>------- ------,250683.70000004768,250682.5,250293.997,250296.40000009537,250310.651,250693.708,,37,the
screen,html.Screen,2_1_1_1_38,2022-02-18T15:15:40.608Z,,,,,,,,,,,,,,,,,54,,,,,,,,,,,,,,342.3920000238286,,response,,,,100,,,,,,,Space,keypress(Space),,,,,,,,-- --- ---- --- ------ ----- ------- ---- -- --- ------- --<br>------- ---------- ------ -- ----- -- ----- -- ---- ------<br>--- ----- --- --- ------ -------- ----- --- ------ ----- --<br>----- ----- ---------- --- --- market ------ ---- -- ------<br>------- --- ------ ----- --- ---- ------- -- ---- --- --<br>------- ------,251037.40000009537,251036.10000002384,250677.054,250684,250693.708,251043.424,,38,market
screen,html.Screen,2_1_1_1_39,2022-02-18T15:15:41.054Z,,,,,,,,,,,,,,,,,54,,,,,,,,,,,,,,437.6760000238428,,response,,,,100,,,,,,,Space,keypress(Space),,,,,,,,-- --- ---- --- ------ ----- ------- ---- -- --- ------- --<br>------- ---------- ------ -- ----- -- ----- -- ---- ------<br>--- ----- --- --- ------ -------- ----- --- ------ ----- --<br>----- ----- ---------- --- --- ------ became ---- -- ------<br>------- --- ------ ----- --- ---- ------- -- ---- --- --<br>------- ------,251482.5,251481.10000002384,251026.77,251037.60000002384,251043.424,251493.137,,39,became
screen,html.Screen,2_1_1_1_40,2022-02-18T15:15:41.426Z,,,,,,,,,,,,,,,,,54,,,,,,,,,,,,,,359.8630000000121,,response,,,,100,,,,,,,Space,keypress(Space),,,,,,,,-- --- ---- --- ------ ----- ------- ---- -- --- ------- --<br>------- ---------- ------ -- ----- -- ----- -- ---- ------<br>--- ----- --- --- ------ -------- ----- --- ------ ----- --<br>----- ----- ---------- --- --- ------ ------ wary -- ------<br>------- --- ------ ----- --- ---- ------- -- ---- --- --<br>------- ------,251854.5,251853,251476.483,251482.70000004768,251493.137,251859.734,,40,wary
screen,html.Screen,2_1_1_1_41,2022-02-18T15:15:41.819Z,,,,,,,,,,,,,,,,,54,,,,,,,,,,,,,,386.6660000953707,,response,,,,100,,,,,,,Space,keypress(Space),,,,,,,,-- --- ---- --- ------ ----- ------- ---- -- --- ------- --<br>------- ---------- ------ -- ----- -- ----- -- ---- ------<br>--- ----- --- --- ------ -------- ----- --- ------ ----- --<br>----- ----- ---------- --- --- ------ ------ ---- of ------<br>------- --- ------ ----- --- ---- ------- -- ---- --- --<br>------- ------,252247.80000007153,252246.40000009537,251843.08,251854.80000007153,251859.734,252259.26,,41,of
screen,html.Screen,2_1_1_1_42,2022-02-18T15:15:42.375Z,,,,,,,,,,,,,,,,,54,,,,,,,,,,,,,,543.7399999999907,,response,,,,100,,,,,,,Space,keypress(Space),,,,,,,,-- --- ---- --- ------ ----- ------- ---- -- --- ------- --<br>------- ---------- ------ -- ----- -- ----- -- ---- ------<br>--- ----- --- --- ------ -------- ----- --- ------ ----- --<br>----- ----- ---------- --- --- ------ ------ ---- -- French<br>------- --- ------ ----- --- ---- ------- -- ---- --- --<br>------- ------,252804.30000007153,252803,252242.606,252248.10000002384,252259.26,252808.868,,42,French
screen,html.Screen,2_1_1_1_43,2022-02-18T15:15:42.777Z,,,,,,,,,,,,,,,,,54,,,,,,,,,,,,,,395.9320000715379,,response,,,,100,,,,,,,Space,keypress(Space),,,,,,,,-- --- ---- --- ------ ----- ------- ---- -- --- ------- --<br>------- ---------- ------ -- ----- -- ----- -- ---- ------<br>--- ----- --- --- ------ -------- ----- --- ------ ----- --<br>----- ----- ---------- --- --- ------ ------ ---- -- ------<br>credit. --- ------ ----- --- ---- ------- -- ---- --- --<br>------- ------,253206.10000002384,253204.80000007153,252792.214,252804.5,252808.868,253208.583,,43,credit.
screen,html.Screen,2_1_1_1_44,2022-02-18T15:15:43.580Z,,,,,,,,,,,,,,,,,54,,,,,,,,,,,,,,799.3170000953542,,response,,,,100,,,,,,,Space,keypress(Space),,,,,,,,-- --- ---- --- ------ ----- ------- ---- -- --- ------- --<br>------- ---------- ------ -- ----- -- ----- -- ---- ------<br>--- ----- --- --- ------ -------- ----- --- ------ ----- --<br>----- ----- ---------- --- --- ------ ------ ---- -- ------<br>------- The ------ ----- --- ---- ------- -- ---- --- --<br>------- ------,254009.30000007153,254007.90000009537,253191.929,253206.40000009537,253208.583,254024.676,,44,The
screen,html.Screen,2_1_1_1_45,2022-02-18T15:15:43.966Z,,,,,,,,,,,,,,,,,54,,,,,,,,,,,,,,369.02400004767696,,response,,,,100,,,,,,,Space,keypress(Space),,,,,,,,-- --- ---- --- ------ ----- ------- ---- -- --- ------- --<br>------- ---------- ------ -- ----- -- ----- -- ---- ------<br>--- ----- --- --- ------ -------- ----- --- ------ ----- --<br>----- ----- ---------- --- --- ------ ------ ---- -- ------<br>------- --- French ----- --- ---- ------- -- ---- --- --<br>------- ------,254395,254393.70000004768,254008.022,254009.80000007153,254024.676,254407.729,,45,French
screen,html.Screen,2_1_1_1_46,2022-02-18T15:15:44.370Z,,,,,,,,,,,,,,,,,54,,,,,,,,,,,,,,389.3710000238498,,response,,,,100,,,,,,,Space,keypress(Space),,,,,,,,-- --- ---- --- ------ ----- ------- ---- -- --- ------- --<br>------- ---------- ------ -- ----- -- ----- -- ---- ------<br>--- ----- --- --- ------ -------- ----- --- ------ ----- --<br>----- ----- ---------- --- --- ------ ------ ---- -- ------<br>------- --- ------ state --- ---- ------- -- ---- --- --<br>------- ------,254798.60000002384,254797.10000002384,254391.075,254395.30000007153,254407.729,254807.391,,46,state
screen,html.Screen,2_1_1_1_47,2022-02-18T15:15:45.045Z,,,,,,,,,,,,,,,,,54,,,,,,,,,,,,,,665.4090000715223,,response,,,,100,,,,,,,Space,keypress(Space),,,,,,,,-- --- ---- --- ------ ----- ------- ---- -- --- ------- --<br>------- ---------- ------ -- ----- -- ----- -- ---- ------<br>--- ----- --- --- ------ -------- ----- --- ------ ----- --<br>----- ----- ---------- --- --- ------ ------ ---- -- ------<br>------- --- ------ ----- was ---- ------- -- ---- --- --<br>------- ------,255474.30000007153,255472.80000007153,254790.737,254798.70000004768,254807.391,255490.212,,47,was
screen,html.Screen,2_1_1_1_48,2022-02-18T15:15:45.435Z,,,,,,,,,,,,,,,,,54,,,,,,,,,,,,,,372.4880000476842,,response,,,,100,,,,,,,Space,keypress(Space),,,,,,,,-- --- ---- --- ------ ----- ------- ---- -- --- ------- --<br>------- ---------- ------ -- ----- -- ----- -- ---- ------<br>--- ----- --- --- ------ -------- ----- --- ------ ----- --<br>----- ----- ---------- --- --- ------ ------ ---- -- ------<br>------- --- ------ ----- --- left ------- -- ---- --- --<br>------- ------,255864,255862.70000004768,255473.558,255474.5,255490.212,255873.327,,48,left
screen,html.Screen,2_1_1_1_49,2022-02-18T15:15:45.738Z,,,,,,,,,,,,,,,,,54,,,,,,,,,,,,,,291.6730000000098,,response,,,,100,,,,,,,Space,keypress(Space),,,,,,,,-- --- ---- --- ------ ----- ------- ---- -- --- ------- --<br>------- ---------- ------ -- ----- -- ----- -- ---- ------<br>--- ----- --- --- ------ -------- ----- --- ------ ----- --<br>----- ----- ---------- --- --- ------ ------ ---- -- ------<br>------- --- ------ ----- --- ---- without -- ---- --- --<br>------- ------,256166.40000009537,256165,255856.673,255864.20000004768,255873.327,256173.065,,49,without
screen,html.Screen,2_1_1_1_50,2022-02-18T15:15:46.182Z,,,,,,,,,,,,,,,,,54,,,,,,,,,,,,,,436.23500007152325,,response,,,,100,,,,,,,Space,keypress(Space),,,,,,,,-- --- ---- --- ------ ----- ------- ---- -- --- ------- --<br>------- ---------- ------ -- ----- -- ----- -- ---- ------<br>--- ----- --- --- ------ -------- ----- --- ------ ----- --<br>----- ----- ---------- --- --- ------ ------ ---- -- ------<br>------- --- ------ ----- --- ---- ------- an ---- --- --<br>------- ------,256610.60000002384,256609.30000007153,256156.411,256166.80000007153,256173.065,256622.816,,50,an
screen,html.Screen,2_1_1_1_51,2022-02-18T15:15:46.572Z,,,,,,,,,,,,,,,,,54,,,,,,,,,,,,,,376.6840000000084,,response,,,,100,,,,,,,Space,keypress(Space),,,,,,,,-- --- ---- --- ------ ----- ------- ---- -- --- ------- --<br>------- ---------- ------ -- ----- -- ----- -- ---- ------<br>--- ----- --- --- ------ -------- ----- --- ------ ----- --<br>----- ----- ---------- --- --- ------ ------ ---- -- ------<br>------- --- ------ ----- --- ---- ------- -- easy --- --<br>------- ------,257000.80000007153,256999.5,256606.162,256610.80000007153,256622.816,257005.898,,51,easy
screen,html.Screen,2_1_1_1_52,2022-02-18T15:15:47.040Z,,,,,,,,,,,,,,,,,54,,,,,,,,,,,,,,462.1020000000135,,response,,,,100,,,,,,,Space,keypress(Space),,,,,,,,-- --- ---- --- ------ ----- ------- ---- -- --- ------- --<br>------- ---------- ------ -- ----- -- ----- -- ---- ------<br>--- ----- --- --- ------ -------- ----- --- ------ ----- --<br>----- ----- ---------- --- --- ------ ------ ---- -- ------<br>------- --- ------ ----- --- ---- ------- -- ---- way --<br>------- ------,257469.30000007153,257468,256989.244,257001,257005.898,257472.221,,52,way
screen,html.Screen,2_1_1_1_53,2022-02-18T15:15:47.295Z,,,,,,,,,,,,,,,,,54,,,,,,,,,,,,,,251.3790000238514,,response,,,,100,,,,,,,Space,keypress(Space),,,,,,,,-- --- ---- --- ------ ----- ------- ---- -- --- ------- --<br>------- ---------- ------ -- ----- -- ----- -- ---- ------<br>--- ----- --- --- ------ -------- ----- --- ------ ----- --<br>----- ----- ---------- --- --- ------ ------ ---- -- ------<br>------- --- ------ ----- --- ---- ------- -- ---- --- of<br>------- ------,257724.40000009537,257723.60000002384,257455.567,257469.5,257472.221,257738.731,,53,of
screen,html.Screen,2_1_1_1_54,2022-02-18T15:15:47.700Z,,,,,,,,,,,,,,,,,54,,,,,,,,,,,,,,388.76900000000023,,response,,,,100,,,,,,,Space,keypress(Space),,,,,,,,-- --- ---- --- ------ ----- ------- ---- -- --- ------- --<br>------- ---------- ------ -- ----- -- ----- -- ---- ------<br>--- ----- --- --- ------ -------- ----- --- ------ ----- --<br>----- ----- ---------- --- --- ------ ------ ---- -- ------<br>------- --- ------ ----- --- ---- ------- -- ---- --- --<br>raising ------,258128.80000007153,258127.5,257722.077,257724.5,257738.731,258138.414,,54,raising
screen,html.Screen,2_1_1_1_55,2022-02-18T15:15:48.103Z,,,,,,,,,,,,,,,,,54,,,,,,,,,,,,,,392.28600004769396,,response,,,,100,,,,,,,Space,keypress(Space),,,,,,,,-- --- ---- --- ------ ----- ------- ---- -- --- ------- --<br>------- ---------- ------ -- ----- -- ----- -- ---- ------<br>--- ----- --- --- ------ -------- ----- --- ------ ----- --<br>----- ----- ---------- --- --- ------ ------ ---- -- ------<br>------- --- ------ ----- --- ---- ------- -- ---- --- --<br>------- money.,258532.20000004768,258530.70000004768,258121.76,258129.10000002384,258138.414,258555.028,,55,money.
Item 100,flow.Loop,2_1_1_1,2022-02-18T15:15:48.104Z,,,,,,,,,,,,,,,,,,,,,,,,,,,,,,,29454.997000047675,,completion,,,,,A,,,,,,,,,,,silence,,,,,258532.70000004768,258530.70000004768,229059.049,229060.70000004768,229075.703,258555.028,,,
Question 1,html.Screen,2_1_1_2,2022-02-18T15:15:53.668Z,,,,,,,,,,,,,,,,,,,,,,,,,,,,true,TRUE,,5541.472000000009,,response,,,,100,A,,,,,,TRUE,click #choice-1,,,,silence,,,,,264097.2000000477,264096.5,258521.72,258532.90000009537,258555.028,264100.786,,,
Question 2,html.Screen,2_1_1_3,2022-02-18T15:15:57.144Z,,,,,,,,,,,,,,,,,,,,,,,,,,,,true,FALSE,,3471.713999999978,,response,,,,100,A,,,,,,FALSE,click #choice-2,,,,silence,,,,,267573.3000000715,267572.5,264084.132,264097.3000000715,264100.786,267581.707,,,
Item 100,flow.Sequence,2_1_1,2022-02-18T15:15:57.145Z,,,,,,,,,,,,,,,,,,,,,,,,,,,,,,,48489.66500000001,,completion,,,,,,,,,,,,,,,,,,,,,267573.5,267572.5,219066.181,219069.80000007153,219082.835,267581.707,,,
End of Practice,html.Page,2_1_2,2022-02-18T15:16:02.617Z,,,,,,,,,,,,,,,,,,,,,,,,,,,,,,,5467.593000071531,,form submission,,,,,,,,,,,,,,,,,,,,,273049.5,273049.3000000715,267565.053,267573.60000002384,267581.707,273061.21,,,
Practice,flow.Sequence,2_1,2022-02-18T15:16:02.617Z,,,,,,,,,,,,,,,,,,,,,,,,,,,,,,,121635.02400007151,,completion,,,,,,,,,,,,,,,,,,,,,273049.7000000477,273049.3000000715,151397.622,151402.60000002384,151414.276,273061.21,,,
Trap_instruction,html.Page,2_2_0,2022-02-18T15:16:08.745Z,,,,,,,,,,,,,,,,,,,,,,,,,,,,,,,6115.990000047663,,form submission,,,,,,,,,,,,,,,,,,,,,279177.40000009537,279177.2000000477,273044.556,273049.8000000715,273061.21,279273.161,,,
trap_trial,html.Screen,2_2_1,2022-02-18T15:16:12.848Z,,,,,,,,,,,,,,,,,,,,,,,,,,,,true,1,,4007.2390000953455,,response,,,,,,,,,,,1,click #choice-1,,,,,,,,,283281,283280.40000009537,279173.237,279177.5,279273.161,283287.022,,,
end of trap trial,html.Page,2_2_2,2022-02-18T15:16:14.733Z,,,,,,,,,,,,,,,,,,,,,,,,,,,,,,,1878.2780000715284,,form submission,,,,,,,,,,,,,,,,,,,,,285165.40000009537,285165.3000000715,283270.368,283281.2000000477,283287.022,285169.239,,,
Trap 1,flow.Sequence,2_2,2022-02-18T15:16:14.733Z,,,,,,,,,,,,,,,,,,,,,,,,,,,,,,,12104.090000071505,,completion,,,,,,,,,,,,,,,,,,,,,285165.60000002384,285165.3000000715,273044.556,273049.8000000715,273061.21,285169.239,,,
Standby,html.Page,2_3_0,2022-02-18T15:16:22.722Z,,,,,,,,,,,,,,,,,,,,,,,,,,,,,,,7993.854999999981,,timeout,,,,,,,,,,,,,,,,,,,,,293154.3000000715,293146.44,285152.585,285165.7000000477,285169.239,293163.094,,,
Holding screen,html.Screen,2_3_1_0_0,2022-02-18T15:16:29.712Z,,,,,,,,,,,,,,,,,,,,,,,,,,,,,,,6995.428000000014,,timeout,,,,,,,,,,,,,,,,,,,,,300145.10000002384,300141.868,293146.44,293154.7000000477,293163.094,300158.522,,,
screen,html.Screen,2_3_1_0_1_0,2022-02-18T15:16:31.129Z,,,,,,,,,,,,,,,,,48,,,,,,,,,,,,,,1401.8780000953702,,response,,,,10,A,,,,,,Space,keypress(Space),,,,silence,,,,As -- --- ------ ------- --------- ----------- --------<br>--------- -------- --- ------- -- ------- ---- -- ------<br>-- --- -------- -------- ---------- ---- ---- ---- ------<br>-- --------- -- ---- -- --- -- --- ------- -- - -----<br>---------- -- -- -- ---- ----- -- ------ -- --- ------<br>-------,301561.2000000477,301560.40000009537,300141.868,300145.5,300158.522,301574.154,,0,As
screen,html.Screen,2_3_1_0_1_1,2022-02-18T15:16:31.538Z,,,,,,,,,,,,,,,,,48,,,,,,,,,,,,,,395.0460000477033,,response,,,,10,A,,,,,,Space,keypress(Space),,,,silence,,,,-- in --- ------ ------- --------- ----------- --------<br>--------- -------- --- ------- -- ------- ---- -- ------<br>-- --- -------- -------- ---------- ---- ---- ---- ------<br>-- --------- -- ---- -- --- -- --- ------- -- - -----<br>---------- -- -- -- ---- ----- -- ------ -- --- ------<br>-------,301970.40000009537,301969.2000000477,301557.5,301561.40000009537,301574.154,301973.924,,1,in
screen,html.Screen,2_3_1_0_1_2,2022-02-18T15:16:31.938Z,,,,,,,,,,,,,,,,,48,,,,,,,,,,,,,,396.1760000238428,,response,,,,10,A,,,,,,Space,keypress(Space),,,,silence,,,,-- -- the ------ ------- --------- ----------- --------<br>--------- -------- --- ------- -- ------- ---- -- ------<br>-- --- -------- -------- ---------- ---- ---- ---- ------<br>-- --------- -- ---- -- --- -- --- ------- -- - -----<br>---------- -- -- -- ---- ----- -- ------ -- --- ------<br>-------,302371.2000000477,302370.10000002384,301957.27,301970.7000000477,301973.924,302373.675,,2,the
screen,html.Screen,2_3_1_0_1_3,2022-02-18T15:16:32.370Z,,,,,,,,,,,,,,,,,48,,,,,,,,,,,,,,428.02500004769536,,response,,,,10,A,,,,,,Space,keypress(Space),,,,silence,,,,-- -- --- United ------- --------- ----------- --------<br>--------- -------- --- ------- -- ------- ---- -- ------<br>-- --- -------- -------- ---------- ---- ---- ---- ------<br>-- --------- -- ---- -- --- -- --- ------- -- - -----<br>---------- -- -- -- ---- ----- -- ------ -- --- ------<br>-------,302802.90000009537,302801.7000000477,302357.021,302371.40000009537,302373.675,302806.659,,3,United
screen,html.Screen,2_3_1_0_1_4,2022-02-18T15:16:32.763Z,,,,,,,,,,,,,,,,,48,,,,,,,,,,,,,,387.94100002385676,,response,,,,10,A,,,,,,Space,keypress(Space),,,,silence,,,,"-- -- --- ------ States, --------- ----------- --------<br>--------- -------- --- ------- -- ------- ---- -- ------<br>-- --- -------- -------- ---------- ---- ---- ---- ------<br>-- --------- -- ---- -- --- -- --- ------- -- - -----<br>---------- -- -- -- ---- ----- -- ------ -- --- ------<br>-------",303196,303194.60000002384,302790.005,302803.10000002384,302806.659,303206.731,,4,"States,"
screen,html.Screen,2_3_1_0_1_5,2022-02-18T15:16:33.861Z,,,,,,,,,,,,,,,,,48,,,,,,,,,,,,,,1085.869000023813,,response,,,,10,A,,,,,,Space,keypress(Space),,,,silence,,,,-- -- --- ------ ------- Colombian ----------- --------<br>--------- -------- --- ------- -- ------- ---- -- ------<br>-- --- -------- -------- ---------- ---- ---- ---- ------<br>-- --------- -- ---- -- --- -- --- ------- -- - -----<br>---------- -- -- -- ---- ----- -- ------ -- --- ------<br>-------,304293.8000000715,304292.60000002384,303190.077,303196.2000000477,303206.731,304305.57,,5,Colombian
screen,html.Screen,2_3_1_0_1_6,2022-02-18T15:16:34.321Z,,,,,,,,,,,,,,,,,48,,,,,,,,,,,,,,447.13000004767673,,response,,,,10,A,,,,,,Space,keypress(Space),,,,silence,,,,-- -- --- ------ ------- --------- legislation --------<br>--------- -------- --- ------- -- ------- ---- -- ------<br>-- --- -------- -------- ---------- ---- ---- ---- ------<br>-- --------- -- ---- -- --- -- --- ------- -- - -----<br>---------- -- -- -- ---- ----- -- ------ -- --- ------<br>-------,304753.8000000715,304752.7000000477,304288.916,304294,304305.57,304755.291,,6,legislation
screen,html.Screen,2_3_1_0_1_7,2022-02-18T15:16:34.823Z,,,,,,,,,,,,,,,,,48,,,,,,,,,,,,,,499.1090000953409,,response,,,,10,A,,,,,,Space,keypress(Space),,,,silence,,,,-- -- --- ------ ------- --------- ----------- requires<br>--------- -------- --- ------- -- ------- ---- -- ------<br>-- --- -------- -------- ---------- ---- ---- ---- ------<br>-- --------- -- ---- -- --- -- --- ------- -- - -----<br>---------- -- -- -- ---- ----- -- ------ -- --- ------<br>-------,305255.5,305254.40000009537,304738.637,304754.10000002384,304755.291,305271.598,,7,requires
screen,html.Screen,2_3_1_0_1_8,2022-02-18T15:16:35.356Z,,,,,,,,,,,,,,,,,48,,,,,,,,,,,,,,515.5020000238437,,response,,,,10,A,,,,,,Space,keypress(Space),,,,silence,,,,-- -- --- ------ ------- --------- ----------- --------<br>travelers -------- --- ------- -- ------- ---- -- ------<br>-- --- -------- -------- ---------- ---- ---- ---- ------<br>-- --------- -- ---- -- --- -- --- ------- -- - -----<br>---------- -- -- -- ---- ----- -- ------ -- --- ------<br>-------,305788.2000000477,305787.10000002384,305254.944,305255.8000000715,305271.598,305804.551,,8,travelers
screen,html.Screen,2_3_1_0_1_9,2022-02-18T15:16:35.776Z,,,,,,,,,,,,,,,,,48,,,,,,,,,,,,,,402.94900000002235,,response,,,,10,A,,,,,,Space,keypress(Space),,,,silence,,,,-- -- --- ------ ------- --------- ----------- --------<br>--------- entering --- ------- -- ------- ---- -- ------<br>-- --- -------- -------- ---------- ---- ---- ---- ------<br>-- --------- -- ---- -- --- -- --- ------- -- - -----<br>---------- -- -- -- ---- ----- -- ------ -- --- ------<br>-------,306208.7000000477,306207.5,305787.897,305788.5,305804.551,306220.942,,9,entering
screen,html.Screen,2_3_1_0_1_10,2022-02-18T15:16:36.122Z,,,,,,,,,,,,,,,,,48,,,,,,,,,,,,,,332.65800002386095,,response,,,,10,A,,,,,,Space,keypress(Space),,,,silence,,,,-- -- --- ------ ------- --------- ----------- --------<br>--------- -------- the ------- -- ------- ---- -- ------<br>-- --- -------- -------- ---------- ---- ---- ---- ------<br>-- --------- -- ---- -- --- -- --- ------- -- - -----<br>---------- -- -- -- ---- ----- -- ------ -- --- ------<br>-------,306554.8000000715,306553.60000002384,306204.288,306209,306220.942,306570.615,,10,the
screen,html.Screen,2_3_1_0_1_11,2022-02-18T15:16:36.427Z,,,,,,,,,,,,,,,,,48,,,,,,,,,,,,,,287.8850000000093,,response,,,,10,A,,,,,,Space,keypress(Space),,,,silence,,,,-- -- --- ------ ------- --------- ----------- --------<br>--------- -------- --- country -- ------- ---- -- ------<br>-- --- -------- -------- ---------- ---- ---- ---- ------<br>-- --------- -- ---- -- --- -- --- ------- -- - -----<br>---------- -- -- -- ---- ----- -- ------ -- --- ------<br>-------,306859.7000000477,306858.5,306553.961,306555.10000002384,306570.615,306870.514,,11,country
screen,html.Screen,2_3_1_0_1_12,2022-02-18T15:16:36.805Z,,,,,,,,,,,,,,,,,48,,,,,,,,,,,,,,365.7860000715009,,response,,,,10,A,,,,,,Space,keypress(Space),,,,silence,,,,-- -- --- ------ ------- --------- ----------- --------<br>--------- -------- --- ------- to ------- ---- -- ------<br>-- --- -------- -------- ---------- ---- ---- ---- ------<br>-- --------- -- ---- -- --- -- --- ------- -- - -----<br>---------- -- -- -- ---- ----- -- ------ -- --- ------<br>-------,307237.7000000477,307236.3000000715,306853.86,306859.90000009537,306870.514,307253.542,,12,to
screen,html.Screen,2_3_1_0_1_13,2022-02-18T15:16:37.378Z,,,,,,,,,,,,,,,,,48,,,,,,,,,,,,,,556.3580000953516,,response,,,,10,A,,,,,,Space,keypress(Space),,,,silence,,,,-- -- --- ------ ------- --------- ----------- --------<br>--------- -------- --- ------- -- declare ---- -- ------<br>-- --- -------- -------- ---------- ---- ---- ---- ------<br>-- --------- -- ---- -- --- -- --- ------- -- - -----<br>---------- -- -- -- ---- ----- -- ------ -- --- ------<br>-------,307811.10000002384,307809.90000009537,307236.888,307237.90000009537,307253.542,307819.995,,13,declare
screen,html.Screen,2_3_1_0_1_14,2022-02-18T15:16:37.723Z,,,,,,,,,,,,,,,,,48,,,,,,,,,,,,,,334.2050000476884,,response,,,,10,A,,,,,,Space,keypress(Space),,,,silence,,,,-- -- --- ------ ------- --------- ----------- --------<br>--------- -------- --- ------- -- ------- cash -- ------<br>-- --- -------- -------- ---------- ---- ---- ---- ------<br>-- --------- -- ---- -- --- -- --- ------- -- - -----<br>---------- -- -- -- ---- ----- -- ------ -- --- ------<br>-------,308155.40000009537,308154.2000000477,307803.341,307811.5,307819.995,308169.469,,14,cash
screen,html.Screen,2_3_1_0_1_15,2022-02-18T15:16:38.153Z,,,,,,,,,,,,,,,,,48,,,,,,,,,,,,,,415.23100004770095,,response,,,,10,A,,,,,,Space,keypress(Space),,,,silence,,,,-- -- --- ------ ------- --------- ----------- --------<br>--------- -------- --- ------- -- ------- ---- in ------<br>-- --- -------- -------- ---------- ---- ---- ---- ------<br>-- --------- -- ---- -- --- -- --- ------- -- - -----<br>---------- -- -- -- ---- ----- -- ------ -- --- ------<br>-------,308586.2000000477,308584.7000000477,308152.815,308155.60000002384,308169.469,308602.579,,15,in
screen,html.Screen,2_3_1_0_1_16,2022-02-18T15:16:38.577Z,,,,,,,,,,,,,,,,,48,,,,,,,,,,,,,,406.1210000476567,,response,,,,10,A,,,,,,Space,keypress(Space),,,,silence,,,,-- -- --- ------ ------- --------- ----------- --------<br>--------- -------- --- ------- -- ------- ---- -- excess<br>-- --- -------- -------- ---------- ---- ---- ---- ------<br>-- --------- -- ---- -- --- -- --- ------- -- - -----<br>---------- -- -- -- ---- ----- -- ------ -- --- ------<br>-------,309010,309008.7000000477,308585.925,308586.40000009537,308602.579,309018.945,,16,excess
screen,html.Screen,2_3_1_0_1_17,2022-02-18T15:16:39.053Z,,,,,,,,,,,,,,,,,48,,,,,,,,,,,,,,465.95500009536045,,response,,,,10,A,,,,,,Space,keypress(Space),,,,silence,,,,-- -- --- ------ ------- --------- ----------- --------<br>--------- -------- --- ------- -- ------- ---- -- ------<br>of --- -------- -------- ---------- ---- ---- ---- ------<br>-- --------- -- ---- -- --- -- --- ------- -- - -----<br>---------- -- -- -- ---- ----- -- ------ -- --- ------<br>-------,309486.2000000477,309484.90000009537,309002.291,309010.3000000715,309018.945,309501.948,,17,of
screen,html.Screen,2_3_1_0_1_18,2022-02-18T15:16:39.410Z,,,,,,,,,,,,,,,,,48,,,,,,,,,,,,,,339.3520000715507,,response,,,,10,A,,,,,,Space,keypress(Space),,,,silence,,,,-- -- --- ------ ------- --------- ----------- --------<br>--------- -------- --- ------- -- ------- ---- -- ------<br>-- ten -------- -------- ---------- ---- ---- ---- ------<br>-- --------- -- ---- -- --- -- --- ------- -- - -----<br>---------- -- -- -- ---- ----- -- ------ -- --- ------<br>-------,309842.60000002384,309841.3000000715,309485.294,309486.40000009537,309501.948,309851.698,,18,ten
screen,html.Screen,2_3_1_0_1_19,2022-02-18T15:16:39.968Z,,,,,,,,,,,,,,,,,48,,,,,,,,,,,,,,547.902000023867,,response,,,,10,A,,,,,,Space,keypress(Space),,,,silence,,,,-- -- --- ------ ------- --------- ----------- --------<br>--------- -------- --- ------- -- ------- ---- -- ------<br>-- --- thousand -------- ---------- ---- ---- ---- ------<br>-- --------- -- ---- -- --- -- --- ------- -- - -----<br>---------- -- -- -- ---- ----- -- ------ -- --- ------<br>-------,310400.90000009537,310399.60000002384,309835.044,309842.90000009537,309851.698,310417.943,,19,thousand
screen,html.Screen,2_3_1_0_1_20,2022-02-18T15:16:40.441Z,,,,,,,,,,,,,,,,,48,,,,,,,,,,,,,,454.2570000476553,,response,,,,10,A,,,,,,Space,keypress(Space),,,,silence,,,,-- -- --- ------ ------- --------- ----------- --------<br>--------- -------- --- ------- -- ------- ---- -- ------<br>-- --- -------- dollars. ---------- ---- ---- ---- ------<br>-- --------- -- ---- -- --- -- --- ------- -- - -----<br>---------- -- -- -- ---- ----- -- ------ -- --- ------<br>-------,310873.60000002384,310872.2000000477,310401.289,310401.2000000477,310417.943,310884.584,,20,dollars.
screen,html.Screen,2_3_1_0_1_21,2022-02-18T15:16:42.042Z,,,,,,,,,,,,,,,,,48,,,,,,,,,,,,,,1588.4160000000265,,response,,,,10,A,,,,,,Space,keypress(Space),,,,silence,,,,-- -- --- ------ ------- --------- ----------- --------<br>--------- -------- --- ------- -- ------- ---- -- ------<br>-- --- -------- -------- Concealing ---- ---- ---- ------<br>-- --------- -- ---- -- --- -- --- ------- -- - -----<br>---------- -- -- -- ---- ----- -- ------ -- --- ------<br>-------,312474.60000002384,312473,310867.93,310874,310884.584,312483.073,,21,Concealing
screen,html.Screen,2_3_1_0_1_22,2022-02-18T15:16:42.356Z,,,,,,,,,,,,,,,,,48,,,,,,,,,,,,,,304.8270000953926,,response,,,,10,A,,,,,,Space,keypress(Space),,,,silence,,,,-- -- --- ------ ------- --------- ----------- --------<br>--------- -------- --- ------- -- ------- ---- -- ------<br>-- --- -------- -------- ---------- more ---- ---- ------<br>-- --------- -- ---- -- --- -- --- ------- -- - -----<br>---------- -- -- -- ---- ----- -- ------ -- --- ------<br>-------,312789.2000000477,312787.90000009537,312466.419,312474.90000009537,312483.073,312799.51,,22,more
screen,html.Screen,2_3_1_0_1_23,2022-02-18T15:16:42.764Z,,,,,,,,,,,,,,,,,48,,,,,,,,,,,,,,395.6900000476744,,response,,,,10,A,,,,,,Space,keypress(Space),,,,silence,,,,-- -- --- ------ ------- --------- ----------- --------<br>--------- -------- --- ------- -- ------- ---- -- ------<br>-- --- -------- -------- ---------- ---- than ---- ------<br>-- --------- -- ---- -- --- -- --- ------- -- - -----<br>---------- -- -- -- ---- ----- -- ------ -- --- ------<br>-------,313196.7000000477,313195.2000000477,312782.856,312789.5,312799.51,313199.25,,23,than
screen,html.Screen,2_3_1_0_1_24,2022-02-18T15:16:43.045Z,,,,,,,,,,,,,,,,,48,,,,,,,,,,,,,,277.0500000715256,,response,,,,10,A,,,,,,Space,keypress(Space),,,,silence,,,,-- -- --- ------ ------- --------- ----------- --------<br>--------- -------- --- ------- -- ------- ---- -- ------<br>-- --- -------- -------- ---------- ---- ---- that ------<br>-- --------- -- ---- -- --- -- --- ------- -- - -----<br>---------- -- -- -- ---- ----- -- ------ -- --- ------<br>-------,313477.7000000477,313476.3000000715,313182.596,313197,313199.25,313482.454,,24,that
screen,html.Screen,2_3_1_0_1_25,2022-02-18T15:16:43.438Z,,,,,,,,,,,,,,,,,48,,,,,,,,,,,,,,387.14600002381485,,response,,,,10,A,,,,,,Space,keypress(Space),,,,silence,,,,-- -- --- ------ ------- --------- ----------- --------<br>--------- -------- --- ------- -- ------- ---- -- ------<br>-- --- -------- -------- ---------- ---- ---- ---- amount<br>-- --------- -- ---- -- --- -- --- ------- -- - -----<br>---------- -- -- -- ---- ----- -- ------ -- --- ------<br>-------,313871,313869.60000002384,313465.8,313478,313482.454,313882.174,,25,amount
screen,html.Screen,2_3_1_0_1_26,2022-02-18T15:16:43.872Z,,,,,,,,,,,,,,,,,48,,,,,,,,,,,,,,420.52600004768465,,response,,,,10,A,,,,,,Space,keypress(Space),,,,silence,,,,-- -- --- ------ ------- --------- ----------- --------<br>--------- -------- --- ------- -- ------- ---- -- ------<br>-- --- -------- -------- ---------- ---- ---- ---- ------<br>to --------- -- ---- -- --- -- --- ------- -- - -----<br>---------- -- -- -- ---- ----- -- ------ -- --- ------<br>-------,314304.2000000477,314302.7000000477,313865.52,313871.2000000477,313882.174,314315.176,,26,to
screen,html.Screen,2_3_1_0_1_27,2022-02-18T15:16:44.083Z,,,,,,,,,,,,,,,,,48,,,,,,,,,,,,,,198.9240000238642,,response,,,,10,A,,,,,,Space,keypress(Space),,,,silence,,,,-- -- --- ------ ------- --------- ----------- --------<br>--------- -------- --- ------- -- ------- ---- -- ------<br>-- --- -------- -------- ---------- ---- ---- ---- ------<br>-- transport -- ---- -- --- -- --- ------- -- - -----<br>---------- -- -- -- ---- ----- -- ------ -- --- ------<br>-------,314515.40000009537,314514.10000002384,314298.522,314306.2000000477,314315.176,314531.723,,27,transport
screen,html.Screen,2_3_1_0_1_28,2022-02-18T15:16:44.773Z,,,,,,,,,,,,,,,,,48,,,,,,,,,,,,,,672.4770000476856,,response,,,,10,A,,,,,,Space,keypress(Space),,,,silence,,,,-- -- --- ------ ------- --------- ----------- --------<br>--------- -------- --- ------- -- ------- ---- -- ------<br>-- --- -------- -------- ---------- ---- ---- ---- ------<br>-- --------- it ---- -- --- -- --- ------- -- - -----<br>---------- -- -- -- ---- ----- -- ------ -- --- ------<br>-------,315205.7000000477,315204.2000000477,314515.069,314515.7000000477,314531.723,315214.539,,28,it
screen,html.Screen,2_3_1_0_1_29,2022-02-18T15:16:45.256Z,,,,,,,,,,,,,,,,,48,,,,,,,,,,,,,,472.5610000238521,,response,,,,10,A,,,,,,Space,keypress(Space),,,,silence,,,,-- -- --- ------ ------- --------- ----------- --------<br>--------- -------- --- ------- -- ------- ---- -- ------<br>-- --- -------- -------- ---------- ---- ---- ---- ------<br>-- --------- -- into -- --- -- --- ------- -- - -----<br>---------- -- -- -- ---- ----- -- ------ -- --- ------<br>-------,315688.5,315687.10000002384,315197.885,315205.90000009537,315214.539,315697.703,,29,into
screen,html.Screen,2_3_1_0_1_30,2022-02-18T15:16:45.599Z,,,,,,,,,,,,,,,,,48,,,,,,,,,,,,,,333.09700007154606,,response,,,,10,A,,,,,,Space,keypress(Space),,,,silence,,,,-- -- --- ------ ------- --------- ----------- --------<br>--------- -------- --- ------- -- ------- ---- -- ------<br>-- --- -------- -------- ---------- ---- ---- ---- ------<br>-- --------- -- ---- or --- -- --- ------- -- - -----<br>---------- -- -- -- ---- ----- -- ------ -- --- ------<br>-------,316032.10000002384,316030.8000000715,315681.049,315688.8000000715,315697.703,316047.267,,30,or
screen,html.Screen,2_3_1_0_1_31,2022-02-18T15:16:46.052Z,,,,,,,,,,,,,,,,,48,,,,,,,,,,,,,,436.23300000000745,,response,,,,10,A,,,,,,Space,keypress(Space),,,,silence,,,,-- -- --- ------ ------- --------- ----------- --------<br>--------- -------- --- ------- -- ------- ---- -- ------<br>-- --- -------- -------- ---------- ---- ---- ---- ------<br>-- --------- -- ---- -- out -- --- ------- -- - -----<br>---------- -- -- -- ---- ----- -- ------ -- --- ------<br>-------,316484.90000009537,316483.5,316030.613,316032.3000000715,316047.267,316496.93,,31,out
screen,html.Screen,2_3_1_0_1_32,2022-02-18T15:16:46.386Z,,,,,,,,,,,,,,,,,48,,,,,,,,,,,,,,320.87000007153256,,response,,,,10,A,,,,,,Space,keypress(Space),,,,silence,,,,-- -- --- ------ ------- --------- ----------- --------<br>--------- -------- --- ------- -- ------- ---- -- ------<br>-- --- -------- -------- ---------- ---- ---- ---- ------<br>-- --------- -- ---- -- --- of --- ------- -- - -----<br>---------- -- -- -- ---- ----- -- ------ -- --- ------<br>-------,316819.10000002384,316817.8000000715,316480.276,316485.2000000477,316496.93,316830.061,,32,of
screen,html.Screen,2_3_1_0_1_33,2022-02-18T15:16:46.707Z,,,,,,,,,,,,,,,,,48,,,,,,,,,,,,,,308.0390000238549,,response,,,,10,A,,,,,,Space,keypress(Space),,,,silence,,,,-- -- --- ------ ------- --------- ----------- --------<br>--------- -------- --- ------- -- ------- ---- -- ------<br>-- --- -------- -------- ---------- ---- ---- ---- ------<br>-- --------- -- ---- -- --- -- the ------- -- - -----<br>---------- -- -- -- ---- ----- -- ------ -- --- ------<br>-------,317139.3000000715,317138.10000002384,316813.407,316819.40000009537,316830.061,317146.544,,33,the
screen,html.Screen,2_3_1_0_1_34,2022-02-18T15:16:47.099Z,,,,,,,,,,,,,,,,,48,,,,,,,,,,,,,,383.856000095373,,response,,,,10,A,,,,,,Space,keypress(Space),,,,silence,,,,-- -- --- ------ ------- --------- ----------- --------<br>--------- -------- --- ------- -- ------- ---- -- ------<br>-- --- -------- -------- ---------- ---- ---- ---- ------<br>-- --------- -- ---- -- --- -- --- country -- - -----<br>---------- -- -- -- ---- ----- -- ------ -- --- ------<br>-------,317531.8000000715,317530.40000009537,317129.89,317139.60000002384,317146.544,317546.228,,34,country
screen,html.Screen,2_3_1_0_1_35,2022-02-18T15:16:47.490Z,,,,,,,,,,,,,,,,,48,,,,,,,,,,,,,,375.2719999999972,,response,,,,10,A,,,,,,Space,keypress(Space),,,,silence,,,,-- -- --- ------ ------- --------- ----------- --------<br>--------- -------- --- ------- -- ------- ---- -- ------<br>-- --- -------- -------- ---------- ---- ---- ---- ------<br>-- --------- -- ---- -- --- -- --- ------- is - -----<br>---------- -- -- -- ---- ----- -- ------ -- --- ------<br>-------,317922.8000000715,317921.5,317529.574,317532,317546.228,317929.278,,35,is
screen,html.Screen,2_3_1_0_1_36,2022-02-18T15:16:47.655Z,,,,,,,,,,,,,,,,,48,,,,,,,,,,,,,,157.12200009537628,,response,,,,10,A,,,,,,Space,keypress(Space),,,,silence,,,,-- -- --- ------ ------- --------- ----------- --------<br>--------- -------- --- ------- -- ------- ---- -- ------<br>-- --- -------- -------- ---------- ---- ---- ---- ------<br>-- --------- -- ---- -- --- -- --- ------- -- a -----<br>---------- -- -- -- ---- ----- -- ------ -- --- ------<br>-------,318087.7000000477,318086.40000009537,317912.624,317923,317929.278,318096.119,,36,a
screen,html.Screen,2_3_1_0_1_37,2022-02-18T15:16:48.120Z,,,,,,,,,,,,,,,,,48,,,,,,,,,,,,,,455.58100004767766,,response,,,,10,A,,,,,,Space,keypress(Space),,,,silence,,,,-- -- --- ------ ------- --------- ----------- --------<br>--------- -------- --- ------- -- ------- ---- -- ------<br>-- --- -------- -------- ---------- ---- ---- ---- ------<br>-- --------- -- ---- -- --- -- --- ------- -- - crime<br>---------- -- -- -- ---- ----- -- ------ -- --- ------<br>-------,318552.90000009537,318551.7000000477,318079.465,318087.90000009537,318096.119,318562.168,,37,crime
screen,html.Screen,2_3_1_0_1_38,2022-02-18T15:16:48.816Z,,,,,,,,,,,,,,,,,48,,,,,,,,,,,,,,685.4320000238367,,response,,,,10,A,,,,,,Space,keypress(Space),,,,silence,,,,-- -- --- ------ ------- --------- ----------- --------<br>--------- -------- --- ------- -- ------- ---- -- ------<br>-- --- -------- -------- ---------- ---- ---- ---- ------<br>-- --------- -- ---- -- --- -- --- ------- -- - -----<br>punishable -- -- -- ---- ----- -- ------ -- --- ------<br>-------,319248.8000000715,319247.60000002384,318545.514,318553.2000000477,318562.168,319261.652,,38,punishable
screen,html.Screen,2_3_1_0_1_39,2022-02-18T15:16:49.253Z,,,,,,,,,,,,,,,,,48,,,,,,,,,,,,,,423.04800004768185,,response,,,,10,A,,,,,,Space,keypress(Space),,,,silence,,,,-- -- --- ------ ------- --------- ----------- --------<br>--------- -------- --- ------- -- ------- ---- -- ------<br>-- --- -------- -------- ---------- ---- ---- ---- ------<br>-- --------- -- ---- -- --- -- --- ------- -- - -----<br>---------- by -- -- ---- ----- -- ------ -- --- ------<br>-------,319686.2000000477,319684.7000000477,319244.998,319249.2000000477,319261.652,319694.671,,39,by
screen,html.Screen,2_3_1_0_1_40,2022-02-18T15:16:49.461Z,,,,,,,,,,,,,,,,,48,,,,,,,,,,,,,,197.22900009539444,,response,,,,10,A,,,,,,Space,keypress(Space),,,,silence,,,,-- -- --- ------ ------- --------- ----------- --------<br>--------- -------- --- ------- -- ------- ---- -- ------<br>-- --- -------- -------- ---------- ---- ---- ---- ------<br>-- --------- -- ---- -- --- -- --- ------- -- - -----<br>---------- -- up -- ---- ----- -- ------ -- --- ------<br>-------,319893.5,319891.90000009537,319678.017,319686.40000009537,319694.671,319911.205,,40,up
screen,html.Screen,2_3_1_0_1_41,2022-02-18T15:16:49.806Z,,,,,,,,,,,,,,,,,48,,,,,,,,,,,,,,326.19500009535113,,response,,,,10,A,,,,,,Space,keypress(Space),,,,silence,,,,-- -- --- ------ ------- --------- ----------- --------<br>--------- -------- --- ------- -- ------- ---- -- ------<br>-- --- -------- -------- ---------- ---- ---- ---- ------<br>-- --------- -- ---- -- --- -- --- ------- -- - -----<br>---------- -- -- to ---- ----- -- ------ -- --- ------<br>-------,320238.7000000477,320237.40000009537,319894.551,319893.8000000715,319911.205,320244.321,,41,to
screen,html.Screen,2_3_1_0_1_42,2022-02-18T15:16:50.189Z,,,,,,,,,,,,,,,,,48,,,,,,,,,,,,,,375.57900009537116,,response,,,,10,A,,,,,,Space,keypress(Space),,,,silence,,,,-- -- --- ------ ------- --------- ----------- --------<br>--------- -------- --- ------- -- ------- ---- -- ------<br>-- --- -------- -------- ---------- ---- ---- ---- ------<br>-- --------- -- ---- -- --- -- --- ------- -- - -----<br>---------- -- -- -- five ----- -- ------ -- --- ------<br>-------,320621.7000000477,320619.90000009537,320227.667,320239,320244.321,320627.355,,42,five
