sender,sender_type,sender_id,timestamp,meta,,Blues,Classical,Country,Dance,Electronic,Folk,Gospel,Hip-Hop,Jazz,Latin,Musical/Film,New-age,Pop,Prolific_id,Provo_ID,R&B,Rap,Reggae,Religious,Rock,Soul,Swing,Traditional,age,artist_name,correct,correctResponse,distraction,duration,education,ended_on,familiarity,gender,headphone_check_performance,item,list,music_frequency,offensiveness,pleasantness,position_correct,preference,response,response_action,snippet_file,song_name,song_rating,sound,stimulus_1,stimulus_2,stimulus_3,text,time_commit,time_end,time_render,time_run,time_show,time_switch,url,word,word_ID
Prolific ID,html.Form,0,2022-02-02T17:53:25.888Z,"{""labjs_version"":""20.2.2"",""labjs_build"":{""flavor"":""production"",""commit"":""a25486e0c714a0ae2ce03ff94b7bb6896854dcfa""},""location"":""https://run.pavlovia.org/mvasilev/prolific2_music_e/"",""userAgent"":""Mozilla/5.0 (Macintosh; Intel Mac OS X 10.15; rv:96.0) Gecko/20100101 Firefox/96.0"",""platform"":""MacIntel"",""language"":""en-GB"",""locale"":""en-GB"",""timeZone"":""Europe/London"",""timezoneOffset"":0,""screen_width"":1440,""screen_height"":900,""scroll_width"":1440,""scroll_height"":626,""window_innerWidth"":1440,""window_innerHeight"":674,""devicePixelRatio"":2}",,,,,,,,,,,,,,,60ef2c3cdc283259112a9cd8,,,,,,,,,,,,,,,5109.48,,form submission,,,,,,,,,,,,,,,,,,,,,14383,14382,9272.36,9272,9272.52,14371.48,{},,
Introduction,html.Screen,1_0,2022-02-02T17:53:29.617Z,,,,,,,,,,,,,,,,,,,,,,,,,,,,,,,3732.5200000000004,,response,,,,,,,,,,,continue,click button,,,,,,,,,18111,18104,14370.9,14383,14371.48,18137.46,,,
Volume calibration,html.Screen,1_1,2022-02-02T17:53:44.806Z,,,,,,,,,,,,,,,,,,,,,,,,,,,,,,,15154.54,,response,,,,,,,,,,,continue,click button,,,,,,,,,33301,33292,18105.56,18112,18137.46,33304.92,,,
Task instructions,html.Screen,1_2,2022-02-02T17:53:50.866Z,,,,,,,,,,,,,,,,,,,,,,,,,,,,,,,6047.080000000002,,response,,,,,,,,,,,continue,click button,,,,,,,,,39360,39352,33293.38,33301,33304.92,39388.06,,,
Sounds,html.Screen,1_3_0_0,2022-02-02T17:53:55.128Z,,,,,,,,,,,,,,,,,,,,,,,,,,,,,,,4250.260000000002,,timeout,,,,,,,,,3,,,,,,,,O,I,S,,43623,43621.64,39353.8,39361,39388.06,43638.32,,,
Judgement,html.Screen,1_3_0_1,2022-02-02T17:53:56.259Z,,,,,,,,,,,,,,,,,,,,,,,,,,,,true,3,,1108.6800000000003,,response,,,,,,,,,3,,3,click #choice-3,,,,,O,I,S,,44753,44747,43621.64,43623,43638.32,44788.06,,,
Trial,flow.Sequence,1_3_0,2022-02-02T17:53:56.260Z,,,,,,,,,,,,,,,,,,,,,,,,,,,,,,,5358.940000000002,,completion,,,,,,,,,3,,,,,,,,O,I,S,,44754,44747,39353.8,39361,39388.06,44788.06,,,
Sounds,html.Screen,1_3_1_0,2022-02-02T17:54:00.529Z,,,,,,,,,,,,,,,,,,,,,,,,,,,,,,,4250.300000000003,,timeout,,,,,,,,,2,,,,,,,,O,S,I,,49022,49021.64,44747.98,44755,44788.06,49038.36,,,
Judgement,html.Screen,1_3_1_1,2022-02-02T17:54:01.256Z,,,,,,,,,,,,,,,,,,,,,,,,,,,,true,2,,705.6399999999994,,response,,,,,,,,,2,,2,click #choice-2,,,,,O,S,I,,49750,49744,49021.64,49023,49038.36,49771.66,,,
Trial,flow.Sequence,1_3_1,2022-02-02T17:54:01.256Z,,,,,,,,,,,,,,,,,,,,,,,,,,,,,,,4955.940000000002,,completion,,,,,,,,,2,,,,,,,,O,S,I,,49751,49744,44747.98,44754,44788.06,49771.66,,,
Sounds,html.Screen,1_3_2_0,2022-02-02T17:54:05.511Z,,,,,,,,,,,,,,,,,,,,,,,,,,,,,,,4248.939999999995,,timeout,,,,,,,,,2,,,,,,,,I,S,O,,54005,54004.3,49744.92,49751,49771.66,54020.6,,,
Judgement,html.Screen,1_3_2_1,2022-02-02T17:54:06.133Z,,,,,,,,,,,,,,,,,,,,,,,,,,,,true,2,,600.4000000000015,,response,,,,,,,,,2,,2,click #choice-2,,,,,I,S,O,,54627,54621,54004.3,54006,54020.6,54655.06,,,
Trial,flow.Sequence,1_3_2,2022-02-02T17:54:06.134Z,,,,,,,,,,,,,,,,,,,,,,,,,,,,,,,4849.3399999999965,,completion,,,,,,,,,2,,,,,,,,I,S,O,,54628,54621,49744.92,49751,49771.66,54655.06,,,
Sounds,html.Screen,1_3_3_0,2022-02-02T17:54:10.394Z,,,,,,,,,,,,,,,,,,,,,,,,,,,,,,,4249.940000000002,,timeout,,,,,,,,,1,,,,,,,,S,O,I,,58889,58888.3,54621.96,54628,54655.06,58905,,,
Judgement,html.Screen,1_3_3_1,2022-02-02T17:54:10.977Z,,,,,,,,,,,,,,,,,,,,,,,,,,,,true,1,,559,,response,,,,,,,,,1,,1,click #choice-1,,,,,S,O,I,,59471,59464,58888.3,58889,58905,59504.9,,,
Trial,flow.Sequence,1_3_3,2022-02-02T17:54:10.977Z,,,,,,,,,,,,,,,,,,,,,,,,,,,,,,,4808.940000000002,,completion,,,,,,,,,1,,,,,,,,S,O,I,,59472,59464,54621.96,54628,54655.06,59504.9,,,
Sounds,html.Screen,1_3_4_0,2022-02-02T17:54:15.243Z,,,,,,,,,,,,,,,,,,,,,,,,,,,,,,,4248.299999999996,,timeout,,,,,,,,,1,,,,,,,,S,I,O,,63738,63736.54,59465.72,59472,59504.9,63753.2,,,
Judgement,html.Screen,1_3_4_1,2022-02-02T17:54:15.902Z,,,,,,,,,,,,,,,,,,,,,,,,,,,,true,1,,636.8000000000029,,response,,,,,,,,,1,,1,click #choice-1,,,,,S,I,O,,64396,64390,63736.54,63738,63753.2,64421.88,,,
Trial,flow.Sequence,1_3_4,2022-02-02T17:54:15.902Z,,,,,,,,,,,,,,,,,,,,,,,,,,,,,,,4885.0999999999985,,completion,,,,,,,,,1,,,,,,,,S,I,O,,64396,64390,59465.72,59472,59504.9,64421.88,,,
Sounds,html.Screen,1_3_5_0,2022-02-02T17:54:20.162Z,,,,,,,,,,,,,,,,,,,,,,,,,,,,,,,4248.82,,timeout,,,,,,,,,3,,,,,,,,I,O,S,,68656,68655.02,64391.16,64397,64421.88,68670.7,,,
Judgement,html.Screen,1_3_5_1,2022-02-02T17:54:20.690Z,,,,,,,,,,,,,,,,,,,,,,,,,,,,true,3,,507.3000000000029,,response,,,,,,,,,3,,3,click #choice-3,,,,,I,O,S,,69184,69178,68655.02,68656,68670.7,69221.74,,,
Trial,flow.Sequence,1_3_5,2022-02-02T17:54:20.690Z,,,,,,,,,,,,,,,,,,,,,,,,,,,,,,,4756.120000000003,,completion,,,,,,,,,3,,,,,,,,I,O,S,,69185,69178,64391.16,64397,64421.88,69221.74,,,
Task,flow.Loop,1_3,2022-02-02T17:54:20.690Z,,,,,,,,,,,,,,,,,,,,,,,,,,,,,,,29789.940000000002,,completion,,,1,,,,,,,,,,,,,,,,,,69185,69178,39353.8,39361,39388.06,69221.74,,,
Trap,html.Screen,1_4,2022-02-02T17:54:20.691Z,,,,,,,,,,,,,,,,,,,,,,,,,,,,,,,NaN,,skipped,,,,,,,,,,,,,,,,,,,,,69186,69178,,69186,,69221.74,,,
Thanks,html.Screen,1_5,2022-02-02T17:54:23.117Z,,,,,,,,,,,,,,,,,,,,,,,,,,,,,,,2383.2599999999948,,response,,,,,,,,,,,continue,click button,,,,,,,,,71612,71605,69179.58,69186,69221.74,73788.38,,,
Headphone screening,flow.Sequence,1,2022-02-02T17:54:23.118Z,,,,,,,,,,,,,,,,,,,,,,,,,,,,,,,57233.520000000004,,completion,,,,,,,,,,,,,,,,,,,,,71612,71605,14370.9,14383,14371.48,73788.38,,,
Instructions,html.Page,2_0,2022-02-02T17:54:35.665Z,,,,,,,,,,,,,,,,,,,,,,,,,,,,,,,10369.619999999995,,form submission,,,,,,,,,,,,,,,,,,,,,84159,84158,73747.34,73747,73788.38,84171.76,,,
Holding screen,html.Screen,2_1_0_0,2022-02-02T17:54:45.661Z,,,,,,,,,,,,,,,,,,,,,,,,,,,,,,,9999.940000000002,,timeout,,,,,,,,,,,,,,,,,,,,,94155,94154.16,84145.46,84160,84171.76,94171.7,,,
screen,html.Screen,2_1_0_1_0,2022-02-02T17:54:46.728Z,,,,,,,,,,,,,,,,,53,,,,,,,,,,,,,,1045.300000000003,,response,,,,99,,,,,,,Space,keypress(Space),,,,,,,,When -- ----- -- ------ - ------- --- ----------<br>------------- ------ ------ ---- ---- ------- ----- -- ----<br>-------- ------- -- ---------- --- - --- ----- ----- ----<br>---- --- --- ----- --- ---- ---- ------- ----- ---- -------<br>--- --- -- ----- -- --- ---- -- --- ---- -- ------ ------<br>--- ----- -- ----,95222,95217,94154.16,94156,94171.7,95223.24,,0,When
screen,html.Screen,2_1_0_1_1,2022-02-02T17:54:47.242Z,,,,,,,,,,,,,,,,,53,,,,,,,,,,,,,,509.75999999999476,,response,,,,99,,,,,,,Space,keypress(Space),,,,,,,,---- it ----- -- ------ - ------- --- ----------<br>------------- ------ ------ ---- ---- ------- ----- -- ----<br>-------- ------- -- ---------- --- - --- ----- ----- ----<br>---- --- --- ----- --- ---- ---- ------- ----- ---- -------<br>--- --- -- ----- -- --- ---- -- --- ---- -- ------ ------<br>--- ----- -- ----,95736,95733,95222.88,95223,95223.24,95737.44,,1,it
screen,html.Screen,2_1_0_1_2,2022-02-02T17:54:47.779Z,,,,,,,,,,,,,,,,,53,,,,,,,,,,,,,,532.5599999999977,,response,,,,99,,,,,,,Space,keypress(Space),,,,,,,,---- -- comes -- ------ - ------- --- ----------<br>------------- ------ ------ ---- ---- ------- ----- -- ----<br>-------- ------- -- ---------- --- - --- ----- ----- ----<br>---- --- --- ----- --- ---- ---- ------- ----- ---- -------<br>--- --- -- ----- -- --- ---- -- --- ---- -- ------ ------<br>--- ----- -- ----,96273,96270,95737.1,95737,95737.44,96273.88,,2,comes
screen,html.Screen,2_1_0_1_3,2022-02-02T17:54:48.193Z,,,,,,,,,,,,,,,,,53,,,,,,,,,,,,,,410.11999999999534,,response,,,,99,,,,,,,Space,keypress(Space),,,,,,,,---- -- ----- to ------ - ------- --- ----------<br>------------- ------ ------ ---- ---- ------- ----- -- ----<br>-------- ------- -- ---------- --- - --- ----- ----- ----<br>---- --- --- ----- --- ---- ---- ------- ----- ---- -------<br>--- --- -- ----- -- --- ---- -- --- ---- -- ------ ------<br>--- ----- -- ----,96688,96684,96273.64,96274,96273.88,96689.06,,3,to
screen,html.Screen,2_1_0_1_4,2022-02-02T17:54:48.693Z,,,,,,,,,,,,,,,,,53,,,,,,,,,,,,,,493.9400000000023,,response,,,,99,,,,,,,Space,keypress(Space),,,,,,,,---- -- ----- -- having - ------- --- ----------<br>------------- ------ ------ ---- ---- ------- ----- -- ----<br>-------- ------- -- ---------- --- - --- ----- ----- ----<br>---- --- --- ----- --- ---- ---- ------- ----- ---- -------<br>--- --- -- ----- -- --- ---- -- --- ---- -- ------ ------<br>--- ----- -- ----,97187,97183,96688.72,96689,96689.06,97188.4,,4,having
screen,html.Screen,2_1_0_1_5,2022-02-02T17:54:49.097Z,,,,,,,,,,,,,,,,,53,,,,,,,,,,,,,,400.6000000000058,,response,,,,99,,,,,,,Space,keypress(Space),,,,,,,,---- -- ----- -- ------ a ------- --- ----------<br>------------- ------ ------ ---- ---- ------- ----- -- ----<br>-------- ------- -- ---------- --- - --- ----- ----- ----<br>---- --- --- ----- --- ---- ---- ------- ----- ---- -------<br>--- --- -- ----- -- --- ---- -- --- ---- -- ------ ------<br>--- ----- -- ----,97592,97589,97188.04,97188,97188.4,97592.68,,5,a
screen,html.Screen,2_1_0_1_6,2022-02-02T17:54:49.588Z,,,,,,,,,,,,,,,,,53,,,,,,,,,,,,,,486.320000000007,,response,,,,99,,,,,,,Space,keypress(Space),,,,,,,,---- -- ----- -- ------ - lasting --- ----------<br>------------- ------ ------ ---- ---- ------- ----- -- ----<br>-------- ------- -- ---------- --- - --- ----- ----- ----<br>---- --- --- ----- --- ---- ---- ------- ----- ---- -------<br>--- --- -- ----- -- --- ---- -- --- ---- -- ------ ------<br>--- ----- -- ----,98083,98079,97592.34,97592,97592.68,98083.08,,6,lasting
screen,html.Screen,2_1_0_1_7,2022-02-02T17:54:50.000Z,,,,,,,,,,,,,,,,,53,,,,,,,,,,,,,,407.91999999999825,,response,,,,99,,,,,,,Space,keypress(Space),,,,,,,,---- -- ----- -- ------ - ------- and ----------<br>------------- ------ ------ ---- ---- ------- ----- -- ----<br>-------- ------- -- ---------- --- - --- ----- ----- ----<br>---- --- --- ----- --- ---- ---- ------- ----- ---- -------<br>--- --- -- ----- -- --- ---- -- --- ---- -- ------ ------<br>--- ----- -- ----,98495,98491,98082.78,98083,98083.08,98495.52,,7,and
screen,html.Screen,2_1_0_1_8,2022-02-02T17:54:50.424Z,,,,,,,,,,,,,,,,,53,,,,,,,,,,,,,,418.4799999999959,,response,,,,99,,,,,,,Space,keypress(Space),,,,,,,,---- -- ----- -- ------ - ------- --- fulfilling<br>------------- ------ ------ ---- ---- ------- ----- -- ----<br>-------- ------- -- ---------- --- - --- ----- ----- ----<br>---- --- --- ----- --- ---- ---- ------- ----- ---- -------<br>--- --- -- ----- -- --- ---- -- --- ---- -- ------ ------<br>--- ----- -- ----,98919,98914,98495.24,98495,98495.52,98919.46,,8,fulfilling
screen,html.Screen,2_1_0_1_9,2022-02-02T17:54:50.902Z,,,,,,,,,,,,,,,,,53,,,,,,,,,,,,,,473.5399999999936,,response,,,,99,,,,,,,Space,keypress(Space),,,,,,,,"---- -- ----- -- ------ - ------- --- ----------<br>relationship, ------ ------ ---- ---- ------- ----- -- ----<br>-------- ------- -- ---------- --- - --- ----- ----- ----<br>---- --- --- ----- --- ---- ---- ------- ----- ---- -------<br>--- --- -- ----- -- --- ---- -- --- ---- -- ------ ------<br>--- ----- -- ----",99396,99393,98919.12,98919,98919.46,99396.86,,9,"relationship,"
screen,html.Screen,2_1_0_1_10,2022-02-02T17:54:51.689Z,,,,,,,,,,,,,,,,,53,,,,,,,,,,,,,,783.1399999999994,,response,,,,99,,,,,,,Space,keypress(Space),,,,,,,,---- -- ----- -- ------ - ------- --- ----------<br>------------- common ------ ---- ---- ------- ----- -- ----<br>-------- ------- -- ---------- --- - --- ----- ----- ----<br>---- --- --- ----- --- ---- ---- ------- ----- ---- -------<br>--- --- -- ----- -- --- ---- -- --- ---- -- ------ ------<br>--- ----- -- ----,100183,100180,99396.56,99396,99396.86,100184.04,,10,common
screen,html.Screen,2_1_0_1_11,2022-02-02T17:54:52.045Z,,,,,,,,,,,,,,,,,53,,,,,,,,,,,,,,351.9600000000064,,response,,,,99,,,,,,,Space,keypress(Space),,,,,,,,---- -- ----- -- ------ - ------- --- ----------<br>------------- ------ wisdom ---- ---- ------- ----- -- ----<br>-------- ------- -- ---------- --- - --- ----- ----- ----<br>---- --- --- ----- --- ---- ---- ------- ----- ---- -------<br>--- --- -- ----- -- --- ---- -- --- ---- -- ------ ------<br>--- ----- -- ----,100539,100536,100183.7,100183,100184.04,100540.16,,11,wisdom
screen,html.Screen,2_1_0_1_12,2022-02-02T17:54:52.497Z,,,,,,,,,,,,,,,,,53,,,,,,,,,,,,,,448.8399999999965,,response,,,,99,,,,,,,Space,keypress(Space),,,,,,,,---- -- ----- -- ------ - ------- --- ----------<br>------------- ------ ------ says ---- ------- ----- -- ----<br>-------- ------- -- ---------- --- - --- ----- ----- ----<br>---- --- --- ----- --- ---- ---- ------- ----- ---- -------<br>--- --- -- ----- -- --- ---- -- --- ---- -- ------ ------<br>--- ----- -- ----,100991,100989,100539.9,100540,100540.16,100992.58,,12,says
screen,html.Screen,2_1_0_1_13,2022-02-02T17:54:52.828Z,,,,,,,,,,,,,,,,,53,,,,,,,,,,,,,,326.41999999999825,,response,,,,99,,,,,,,Space,keypress(Space),,,,,,,,---- -- ----- -- ------ - ------- --- ----------<br>------------- ------ ------ ---- that ------- ----- -- ----<br>-------- ------- -- ---------- --- - --- ----- ----- ----<br>---- --- --- ----- --- ---- ---- ------- ----- ---- -------<br>--- --- -- ----- -- --- ---- -- --- ---- -- ------ ------<br>--- ----- -- ----,101322,101319,100992.24,100992,100992.58,101323.24,,13,that
screen,html.Screen,2_1_0_1_14,2022-02-02T17:54:53.176Z,,,,,,,,,,,,,,,,,53,,,,,,,,,,,,,,343.75999999999476,,response,,,,99,,,,,,,Space,keypress(Space),,,,,,,,---- -- ----- -- ------ - ------- --- ----------<br>------------- ------ ------ ---- ---- feeling ----- -- ----<br>-------- ------- -- ---------- --- - --- ----- ----- ----<br>---- --- --- ----- --- ---- ---- ------- ----- ---- -------<br>--- --- -- ----- -- --- ---- -- --- ---- -- ------ ------<br>--- ----- -- ----,101670,101667,101322.96,101322,101323.24,101670.8,,14,feeling
screen,html.Screen,2_1_0_1_15,2022-02-02T17:54:53.791Z,,,,,,,,,,,,,,,,,53,,,,,,,,,,,,,,610.1999999999971,,response,,,,99,,,,,,,Space,keypress(Space),,,,,,,,---- -- ----- -- ------ - ------- --- ----------<br>------------- ------ ------ ---- ---- ------- close -- ----<br>-------- ------- -- ---------- --- - --- ----- ----- ----<br>---- --- --- ----- --- ---- ---- ------- ----- ---- -------<br>--- --- -- ----- -- --- ---- -- --- ---- -- ------ ------<br>--- ----- -- ----,102284,102281,101670.54,101670,101670.8,102285.04,,15,close
screen,html.Screen,2_1_0_1_16,2022-02-02T17:54:54.141Z,,,,,,,,,,,,,,,,,53,,,,,,,,,,,,,,346.9600000000064,,response,,,,99,,,,,,,Space,keypress(Space),,,,,,,,---- -- ----- -- ------ - ------- --- ----------<br>------------- ------ ------ ---- ---- ------- ----- to ----<br>-------- ------- -- ---------- --- - --- ----- ----- ----<br>---- --- --- ----- --- ---- ---- ------- ----- ---- -------<br>--- --- -- ----- -- --- ---- -- --- ---- -- ------ ------<br>--- ----- -- ----,102636,102632,102284.8,102285,102285.04,102671.66,,16,to
screen,html.Screen,2_1_0_1_17,2022-02-02T17:54:54.448Z,,,,,,,,,,,,,,,,,53,,,,,,,,,,,,,,267.3399999999965,,response,,,,99,,,,,,,Space,keypress(Space),,,,,,,,---- -- ----- -- ------ - ------- --- ----------<br>------------- ------ ------ ---- ---- ------- ----- -- your<br>-------- ------- -- ---------- --- - --- ----- ----- ----<br>---- --- --- ----- --- ---- ---- ------- ----- ---- -------<br>--- --- -- ----- -- --- ---- -- --- ---- -- ------ ------<br>--- ----- -- ----,102942,102939,102636.16,102636,102671.66,102942.98,,17,your
screen,html.Screen,2_1_0_1_18,2022-02-02T17:54:54.933Z,,,,,,,,,,,,,,,,,53,,,,,,,,,,,,,,481.0200000000041,,response,,,,99,,,,,,,Space,keypress(Space),,,,,,,,---- -- ----- -- ------ - ------- --- ----------<br>------------- ------ ------ ---- ---- ------- ----- -- ----<br>romantic ------- -- ---------- --- - --- ----- ----- ----<br>---- --- --- ----- --- ---- ---- ------- ----- ---- -------<br>--- --- -- ----- -- --- ---- -- --- ---- -- ------ ------<br>--- ----- -- ----,103428,103424,102942.74,102942,102942.98,103428.64,,18,romantic
screen,html.Screen,2_1_0_1_19,2022-02-02T17:54:55.337Z,,,,,,,,,,,,,,,,,53,,,,,,,,,,,,,,400.3600000000006,,response,,,,99,,,,,,,Space,keypress(Space),,,,,,,,---- -- ----- -- ------ - ------- --- ----------<br>------------- ------ ------ ---- ---- ------- ----- -- ----<br>-------- partner -- ---------- --- - --- ----- ----- ----<br>---- --- --- ----- --- ---- ---- ------- ----- ---- -------<br>--- --- -- ----- -- --- ---- -- --- ---- -- ------ ------<br>--- ----- -- ----,103832,103829,103428.32,103428,103428.64,103832.42,,19,partner
screen,html.Screen,2_1_0_1_20,2022-02-02T17:54:55.721Z,,,,,,,,,,,,,,,,,53,,,,,,,,,,,,,,379.58000000000175,,response,,,,99,,,,,,,Space,keypress(Space),,,,,,,,---- -- ----- -- ------ - ------- --- ----------<br>------------- ------ ------ ---- ---- ------- ----- -- ----<br>-------- ------- is ---------- --- - --- ----- ----- ----<br>---- --- --- ----- --- ---- ---- ------- ----- ---- -------<br>--- --- -- ----- -- --- ---- -- --- ---- -- ------ ------<br>--- ----- -- ----,104215,104212,103832.18,103832,103832.42,104216,,20,is
screen,html.Screen,2_1_0_1_21,2022-02-02T17:54:56.370Z,,,,,,,,,,,,,,,,,53,,,,,,,,,,,,,,645,,response,,,,99,,,,,,,Space,keypress(Space),,,,,,,,---- -- ----- -- ------ - ------- --- ----------<br>------------- ------ ------ ---- ---- ------- ----- -- ----<br>-------- ------- -- paramount. --- - --- ----- ----- ----<br>---- --- --- ----- --- ---- ---- ------- ----- ---- -------<br>--- --- -- ----- -- --- ---- -- --- ---- -- ------ ------<br>--- ----- -- ----,104864,104861,104215.6,104215,104216,104865.52,,21,paramount.
screen,html.Screen,2_1_0_1_22,2022-02-02T17:54:56.836Z,,,,,,,,,,,,,,,,,53,,,,,,,,,,,,,,461.4799999999959,,response,,,,99,,,,,,,Space,keypress(Space),,,,,,,,---- -- ----- -- ------ - ------- --- ----------<br>------------- ------ ------ ---- ---- ------- ----- -- ----<br>-------- ------- -- ---------- But - --- ----- ----- ----<br>---- --- --- ----- --- ---- ---- ------- ----- ---- -------<br>--- --- -- ----- -- --- ---- -- --- ---- -- ------ ------<br>--- ----- -- ----,105330,105327,104865.12,104865,104865.52,105331.36,,22,But
screen,html.Screen,2_1_0_1_23,2022-02-02T17:54:57.158Z,,,,,,,,,,,,,,,,,53,,,,,,,,,,,,,,317.6399999999994,,response,,,,99,,,,,,,Space,keypress(Space),,,,,,,,---- -- ----- -- ------ - ------- --- ----------<br>------------- ------ ------ ---- ---- ------- ----- -- ----<br>-------- ------- -- ---------- --- a --- ----- ----- ----<br>---- --- --- ----- --- ---- ---- ------- ----- ---- -------<br>--- --- -- ----- -- --- ---- -- --- ---- -- ------ ------<br>--- ----- -- ----,105653,105649,105331,105330,105331.36,105653.4,,23,a
screen,html.Screen,2_1_0_1_24,2022-02-02T17:54:57.484Z,,,,,,,,,,,,,,,,,53,,,,,,,,,,,,,,321.6000000000058,,response,,,,99,,,,,,,Space,keypress(Space),,,,,,,,---- -- ----- -- ------ - ------- --- ----------<br>------------- ------ ------ ---- ---- ------- ----- -- ----<br>-------- ------- -- ---------- --- - new ----- ----- ----<br>---- --- --- ----- --- ---- ---- ------- ----- ---- -------<br>--- --- -- ----- -- --- ---- -- --- ---- -- ------ ------<br>--- ----- -- ----,105978,105975,105653.18,105653,105653.4,105978.66,,24,new
screen,html.Screen,2_1_0_1_25,2022-02-02T17:54:57.856Z,,,,,,,,,,,,,,,,,53,,,,,,,,,,,,,,368.3399999999965,,response,,,,99,,,,,,,Space,keypress(Space),,,,,,,,---- -- ----- -- ------ - ------- --- ----------<br>------------- ------ ------ ---- ---- ------- ----- -- ----<br>-------- ------- -- ---------- --- - --- study ----- ----<br>---- --- --- ----- --- ---- ---- ------- ----- ---- -------<br>--- --- -- ----- -- --- ---- -- --- ---- -- ------ ------<br>--- ----- -- ----,106350,106347,105978.32,105978,105978.66,106350.86,,25,study
screen,html.Screen,2_1_0_1_26,2022-02-02T17:54:58.288Z,,,,,,,,,,,,,,,,,53,,,,,,,,,,,,,,428.1399999999994,,response,,,,99,,,,,,,Space,keypress(Space),,,,,,,,---- -- ----- -- ------ - ------- --- ----------<br>------------- ------ ------ ---- ---- ------- ----- -- ----<br>-------- ------- -- ---------- --- - --- ----- finds ----<br>---- --- --- ----- --- ---- ---- ------- ----- ---- -------<br>--- --- -- ----- -- --- ---- -- --- ---- -- ------ ------<br>--- ----- -- ----,106782,106779,106350.5,106351,106350.86,106782.48,,26,finds
screen,html.Screen,2_1_0_1_27,2022-02-02T17:54:58.704Z,,,,,,,,,,,,,,,,,53,,,,,,,,,,,,,,412.5200000000041,,response,,,,99,,,,,,,Space,keypress(Space),,,,,,,,---- -- ----- -- ------ - ------- --- ----------<br>------------- ------ ------ ---- ---- ------- ----- -- ----<br>-------- ------- -- ---------- --- - --- ----- ----- that<br>---- --- --- ----- --- ---- ---- ------- ----- ---- -------<br>--- --- -- ----- -- --- ---- -- --- ---- -- ------ ------<br>--- ----- -- ----,107198,107195,106782.2,106782,106782.48,107198.64,,27,that
screen,html.Screen,2_1_0_1_28,2022-02-02T17:54:59.143Z,,,,,,,,,,,,,,,,,53,,,,,,,,,,,,,,435.3600000000006,,response,,,,99,,,,,,,Space,keypress(Space),,,,,,,,---- -- ----- -- ------ - ------- --- ----------<br>------------- ------ ------ ---- ---- ------- ----- -- ----<br>-------- ------- -- ---------- --- - --- ----- ----- ----<br>it's --- --- ----- --- ---- ---- ------- ----- ---- -------<br>--- --- -- ----- -- --- ---- -- --- ---- -- ------ ------<br>--- ----- -- ----,107636,107634,107198.34,107198,107198.64,107637.2,,28,it's
screen,html.Screen,2_1_0_1_29,2022-02-02T17:54:59.401Z,,,,,,,,,,,,,,,,,53,,,,,,,,,,,,,,253.8000000000029,,response,,,,99,,,,,,,Space,keypress(Space),,,,,,,,---- -- ----- -- ------ - ------- --- ----------<br>------------- ------ ------ ---- ---- ------- ----- -- ----<br>-------- ------- -- ---------- --- - --- ----- ----- ----<br>---- not --- ----- --- ---- ---- ------- ----- ---- -------<br>--- --- -- ----- -- --- ---- -- --- ---- -- ------ ------<br>--- ----- -- ----,107894,107891,107636.98,107636,107637.2,107895.22,,29,not
screen,html.Screen,2_1_0_1_30,2022-02-02T17:54:59.758Z,,,,,,,,,,,,,,,,,53,,,,,,,,,,,,,,353.77999999999884,,response,,,,99,,,,,,,Space,keypress(Space),,,,,,,,---- -- ----- -- ------ - ------- --- ----------<br>------------- ------ ------ ---- ---- ------- ----- -- ----<br>-------- ------- -- ---------- --- - --- ----- ----- ----<br>---- --- how ----- --- ---- ---- ------- ----- ---- -------<br>--- --- -- ----- -- --- ---- -- --- ---- -- ------ ------<br>--- ----- -- ----,108253,108249,107894.92,107895,107895.22,108253.14,,30,how
screen,html.Screen,2_1_0_1_31,2022-02-02T17:55:00.378Z,,,,,,,,,,,,,,,,,53,,,,,,,,,,,,,,614.8600000000006,,response,,,,99,,,,,,,Space,keypress(Space),,,,,,,,---- -- ----- -- ------ - ------- --- ----------<br>------------- ------ ------ ---- ---- ------- ----- -- ----<br>-------- ------- -- ---------- --- - --- ----- ----- ----<br>---- --- --- close --- ---- ---- ------- ----- ---- -------<br>--- --- -- ----- -- --- ---- -- --- ---- -- ------ ------<br>--- ----- -- ----,108872,108868,108252.84,108253,108253.14,108872.62,,31,close
screen,html.Screen,2_1_0_1_32,2022-02-02T17:55:00.640Z,,,,,,,,,,,,,,,,,53,,,,,,,,,,,,,,258.38000000000466,,response,,,,99,,,,,,,Space,keypress(Space),,,,,,,,---- -- ----- -- ------ - ------- --- ----------<br>------------- ------ ------ ---- ---- ------- ----- -- ----<br>-------- ------- -- ---------- --- - --- ----- ----- ----<br>---- --- --- ----- you ---- ---- ------- ----- ---- -------<br>--- --- -- ----- -- --- ---- -- --- ---- -- ------ ------<br>--- ----- -- ----,109134,109131,108872.4,108872,108872.62,109134.9,,32,you
screen,html.Screen,2_1_0_1_33,2022-02-02T17:55:01.086Z,,,,,,,,,,,,,,,,,53,,,,,,,,,,,,,,441.1000000000058,,response,,,,99,,,,,,,Space,keypress(Space),,,,,,,,---- -- ----- -- ------ - ------- --- ----------<br>------------- ------ ------ ---- ---- ------- ----- -- ----<br>-------- ------- -- ---------- --- - --- ----- ----- ----<br>---- --- --- ----- --- feel ---- ------- ----- ---- -------<br>--- --- -- ----- -- --- ---- -- --- ---- -- ------ ------<br>--- ----- -- ----,109580,109576,109134.62,109134,109134.9,109580.52,,33,feel
screen,html.Screen,2_1_0_1_34,2022-02-02T17:55:01.444Z,,,,,,,,,,,,,,,,,53,,,,,,,,,,,,,,354.4799999999959,,response,,,,99,,,,,,,Space,keypress(Space),,,,,,,,---- -- ----- -- ------ - ------- --- ----------<br>------------- ------ ------ ---- ---- ------- ----- -- ----<br>-------- ------- -- ---------- --- - --- ----- ----- ----<br>---- --- --- ----- --- ---- that ------- ----- ---- -------<br>--- --- -- ----- -- --- ---- -- --- ---- -- ------ ------<br>--- ----- -- ----,109938,109935,109580.3,109581,109580.52,109938.84,,34,that
screen,html.Screen,2_1_0_1_35,2022-02-02T17:55:01.828Z,,,,,,,,,,,,,,,,,53,,,,,,,,,,,,,,380.1600000000035,,response,,,,99,,,,,,,Space,keypress(Space),,,,,,,,---- -- ----- -- ------ - ------- --- ----------<br>------------- ------ ------ ---- ---- ------- ----- -- ----<br>-------- ------- -- ---------- --- - --- ----- ----- ----<br>---- --- --- ----- --- ---- ---- matters ----- ---- -------<br>--- --- -- ----- -- --- ---- -- --- ---- -- ------ ------<br>--- ----- -- ----,110322,110319,109938.48,109938,109938.84,110322.9,,35,matters
screen,html.Screen,2_1_0_1_36,2022-02-02T17:55:02.215Z,,,,,,,,,,,,,,,,,53,,,,,,,,,,,,,,383.1000000000058,,response,,,,99,,,,,,,Space,keypress(Space),,,,,,,,"---- -- ----- -- ------ - ------- --- ----------<br>------------- ------ ------ ---- ---- ------- ----- -- ----<br>-------- ------- -- ---------- --- - --- ----- ----- ----<br>---- --- --- ----- --- ---- ---- ------- most, ---- -------<br>--- --- -- ----- -- --- ---- -- --- ---- -- ------ ------<br>--- ----- -- ----",110709,110706,110322.58,110323,110322.9,110709.92,,36,"most,"
screen,html.Screen,2_1_0_1_37,2022-02-02T17:55:02.832Z,,,,,,,,,,,,,,,,,53,,,,,,,,,,,,,,614.0800000000017,,response,,,,99,,,,,,,Space,keypress(Space),,,,,,,,---- -- ----- -- ------ - ------- --- ----------<br>------------- ------ ------ ---- ---- ------- ----- -- ----<br>-------- ------- -- ---------- --- - --- ----- ----- ----<br>---- --- --- ----- --- ---- ---- ------- ----- it's -------<br>--- --- -- ----- -- --- ---- -- --- ---- -- ------ ------<br>--- ----- -- ----,111327,111324,110709.64,110709,110709.92,111327.7,,37,it's
screen,html.Screen,2_1_0_1_38,2022-02-02T17:55:03.145Z,,,,,,,,,,,,,,,,,53,,,,,,,,,,,,,,309.3000000000029,,response,,,,99,,,,,,,Space,keypress(Space),,,,,,,,---- -- ----- -- ------ - ------- --- ----------<br>------------- ------ ------ ---- ---- ------- ----- -- ----<br>-------- ------- -- ---------- --- - --- ----- ----- ----<br>---- --- --- ----- --- ---- ---- ------- ----- ---- whether<br>--- --- -- ----- -- --- ---- -- --- ---- -- ------ ------<br>--- ----- -- ----,111639,111637,111327.46,111327,111327.7,111640.26,,38,whether
screen,html.Screen,2_1_0_1_39,2022-02-02T17:55:03.597Z,,,,,,,,,,,,,,,,,53,,,,,,,,,,,,,,447.74000000000524,,response,,,,99,,,,,,,Space,keypress(Space),,,,,,,,---- -- ----- -- ------ - ------- --- ----------<br>------------- ------ ------ ---- ---- ------- ----- -- ----<br>-------- ------- -- ---------- --- - --- ----- ----- ----<br>---- --- --- ----- --- ---- ---- ------- ----- ---- -------<br>you --- -- ----- -- --- ---- -- --- ---- -- ------ ------<br>--- ----- -- ----,112091,112088,111639.94,111639,111640.26,112091.8,,39,you
screen,html.Screen,2_1_0_1_40,2022-02-02T17:55:04.044Z,,,,,,,,,,,,,,,,,53,,,,,,,,,,,,,,443.1999999999971,,response,,,,99,,,,,,,Space,keypress(Space),,,,,,,,---- -- ----- -- ------ - ------- --- ----------<br>------------- ------ ------ ---- ---- ------- ----- -- ----<br>-------- ------- -- ---------- --- - --- ----- ----- ----<br>---- --- --- ----- --- ---- ---- ------- ----- ---- -------<br>--- are -- ----- -- --- ---- -- --- ---- -- ------ ------<br>--- ----- -- ----,112538,112535,112091.42,112091,112091.8,112538.6,,40,are
screen,html.Screen,2_1_0_1_41,2022-02-02T17:55:04.484Z,,,,,,,,,,,,,,,,,53,,,,,,,,,,,,,,436.3999999999942,,response,,,,99,,,,,,,Space,keypress(Space),,,,,,,,---- -- ----- -- ------ - ------- --- ----------<br>------------- ------ ------ ---- ---- ------- ----- -- ----<br>-------- ------- -- ---------- --- - --- ----- ----- ----<br>---- --- --- ----- --- ---- ---- ------- ----- ---- -------<br>--- --- as ----- -- --- ---- -- --- ---- -- ------ ------<br>--- ----- -- ----,112978,112975,112538.3,112538,112538.6,112979,,41,as
screen,html.Screen,2_1_0_1_42,2022-02-02T17:55:04.947Z,,,,,,,,,,,,,,,,,53,,,,,,,,,,,,,,459,,response,,,,99,,,,,,,Space,keypress(Space),,,,,,,,---- -- ----- -- ------ - ------- --- ----------<br>------------- ------ ------ ---- ---- ------- ----- -- ----<br>-------- ------- -- ---------- --- - --- ----- ----- ----<br>---- --- --- ----- --- ---- ---- ------- ----- ---- -------<br>--- --- -- close -- --- ---- -- --- ---- -- ------ ------<br>--- ----- -- ----,113441,113438,112978.78,112978,112979,113442.16,,42,close
screen,html.Screen,2_1_0_1_43,2022-02-02T17:55:05.315Z,,,,,,,,,,,,,,,,,53,,,,,,,,,,,,,,362.8399999999965,,response,,,,99,,,,,,,Space,keypress(Space),,,,,,,,---- -- ----- -- ------ - ------- --- ----------<br>------------- ------ ------ ---- ---- ------- ----- -- ----<br>-------- ------- -- ---------- --- - --- ----- ----- ----<br>---- --- --- ----- --- ---- ---- ------- ----- ---- -------<br>--- --- -- ----- as --- ---- -- --- ---- -- ------ ------<br>--- ----- -- ----,113808,113805,113441.88,113442,113442.16,113809.06,,43,as
screen,html.Screen,2_1_0_1_44,2022-02-02T17:55:05.668Z,,,,,,,,,,,,,,,,,53,,,,,,,,,,,,,,349.9400000000023,,response,,,,99,,,,,,,Space,keypress(Space),,,,,,,,---- -- ----- -- ------ - ------- --- ----------<br>------------- ------ ------ ---- ---- ------- ----- -- ----<br>-------- ------- -- ---------- --- - --- ----- ----- ----<br>---- --- --- ----- --- ---- ---- ------- ----- ---- -------<br>--- --- -- ----- -- you ---- -- --- ---- -- ------ ------<br>--- ----- -- ----,114162,114159,113808.66,113808,113809.06,114163.18,,44,you
screen,html.Screen,2_1_0_1_45,2022-02-02T17:55:06.022Z,,,,,,,,,,,,,,,,,53,,,,,,,,,,,,,,348.820000000007,,response,,,,99,,,,,,,Space,keypress(Space),,,,,,,,---- -- ----- -- ------ - ------- --- ----------<br>------------- ------ ------ ---- ---- ------- ----- -- ----<br>-------- ------- -- ---------- --- - --- ----- ----- ----<br>---- --- --- ----- --- ---- ---- ------- ----- ---- -------<br>--- --- -- ----- -- --- want -- --- ---- -- ------ ------<br>--- ----- -- ----,114516,114512,114162.84,114163,114163.18,114516.28,,45,want
screen,html.Screen,2_1_0_1_46,2022-02-02T17:55:06.357Z,,,,,,,,,,,,,,,,,53,,,,,,,,,,,,,,331.72000000000116,,response,,,,99,,,,,,,Space,keypress(Space),,,,,,,,---- -- ----- -- ------ - ------- --- ----------<br>------------- ------ ------ ---- ---- ------- ----- -- ----<br>-------- ------- -- ---------- --- - --- ----- ----- ----<br>---- --- --- ----- --- ---- ---- ------- ----- ---- -------<br>--- --- -- ----- -- --- ---- to --- ---- -- ------ ------<br>--- ----- -- ----,114851,114848,114515.96,114516,114516.28,114851.58,,46,to
screen,html.Screen,2_1_0_1_47,2022-02-02T17:55:06.702Z,,,,,,,,,,,,,,,,,53,,,,,,,,,,,,,,340.41999999999825,,response,,,,99,,,,,,,Space,keypress(Space),,,,,,,,"---- -- ----- -- ------ - ------- --- ----------<br>------------- ------ ------ ---- ---- ------- ----- -- ----<br>-------- ------- -- ---------- --- - --- ----- ----- ----<br>---- --- --- ----- --- ---- ---- ------- ----- ---- -------<br>--- --- -- ----- -- --- ---- -- be, ---- -- ------ ------<br>--- ----- -- ----",115196,115192,114851.26,114851,114851.58,115196.92,,47,"be,"
screen,html.Screen,2_1_0_1_48,2022-02-02T17:55:07.069Z,,,,,,,,,,,,,,,,,53,,,,,,,,,,,,,,363.08000000000175,,response,,,,99,,,,,,,Space,keypress(Space),,,,,,,,---- -- ----- -- ------ - ------- --- ----------<br>------------- ------ ------ ---- ---- ------- ----- -- ----<br>-------- ------- -- ---------- --- - --- ----- ----- ----<br>---- --- --- ----- --- ---- ---- ------- ----- ---- -------<br>--- --- -- ----- -- --- ---- -- --- even -- ------ ------<br>--- ----- -- ----,115564,115560,115196.56,115196,115196.92,115564.58,,48,even
screen,html.Screen,2_1_0_1_49,2022-02-02T17:55:07.474Z,,,,,,,,,,,,,,,,,53,,,,,,,,,,,,,,401.41999999999825,,response,,,,99,,,,,,,Space,keypress(Space),,,,,,,,---- -- ----- -- ------ - ------- --- ----------<br>------------- ------ ------ ---- ---- ------- ----- -- ----<br>-------- ------- -- ---------- --- - --- ----- ----- ----<br>---- --- --- ----- --- ---- ---- ------- ----- ---- -------<br>--- --- -- ----- -- --- ---- -- --- ---- if ------ ------<br>--- ----- -- ----,115968,115966,115564.24,115564,115564.58,115969.1,,49,if
screen,html.Screen,2_1_0_1_50,2022-02-02T17:55:07.804Z,,,,,,,,,,,,,,,,,53,,,,,,,,,,,,,,325.8999999999942,,response,,,,99,,,,,,,Space,keypress(Space),,,,,,,,---- -- ----- -- ------ - ------- --- ----------<br>------------- ------ ------ ---- ---- ------- ----- -- ----<br>-------- ------- -- ---------- --- - --- ----- ----- ----<br>---- --- --- ----- --- ---- ---- ------- ----- ---- -------<br>--- --- -- ----- -- --- ---- -- --- ---- -- that's ------<br>--- ----- -- ----,116298,116295,115968.88,115968,115969.1,116298.44,,50,that's
screen,html.Screen,2_1_0_1_51,2022-02-02T17:55:08.171Z,,,,,,,,,,,,,,,,,53,,,,,,,,,,,,,,363.5599999999977,,response,,,,99,,,,,,,Space,keypress(Space),,,,,,,,---- -- ----- -- ------ - ------- --- ----------<br>------------- ------ ------ ---- ---- ------- ----- -- ----<br>-------- ------- -- ---------- --- - --- ----- ----- ----<br>---- --- --- ----- --- ---- ---- ------- ----- ---- -------<br>--- --- -- ----- -- --- ---- -- --- ---- -- ------ really<br>--- ----- -- ----,116665,116662,116298.16,116298,116298.44,116665.8,,51,really
screen,html.Screen,2_1_0_1_52,2022-02-02T17:55:08.528Z,,,,,,,,,,,,,,,,,53,,,,,,,,,,,,,,352.1999999999971,,response,,,,99,,,,,,,Space,keypress(Space),,,,,,,,---- -- ----- -- ------ - ------- --- ----------<br>------------- ------ ------ ---- ---- ------- ----- -- ----<br>-------- ------- -- ---------- --- - --- ----- ----- ----<br>---- --- --- ----- --- ---- ---- ------- ----- ---- -------<br>--- --- -- ----- -- --- ---- -- --- ---- -- ------ ------<br>not ----- -- ----,117022,117018,116665.5,116666,116665.8,117022.6,,52,not
screen,html.Screen,2_1_0_1_53,2022-02-02T17:55:08.884Z,,,,,,,,,,,,,,,,,53,,,,,,,,,,,,,,352.3999999999942,,response,,,,99,,,,,,,Space,keypress(Space),,,,,,,,---- -- ----- -- ------ - ------- --- ----------<br>------------- ------ ------ ---- ---- ------- ----- -- ----<br>-------- ------- -- ---------- --- - --- ----- ----- ----<br>---- --- --- ----- --- ---- ---- ------- ----- ---- -------<br>--- --- -- ----- -- --- ---- -- --- ---- -- ------ ------<br>--- close -- ----,117378,117375,117022.32,117022,117022.6,117378.76,,53,close
screen,html.Screen,2_1_0_1_54,2022-02-02T17:55:09.247Z,,,,,,,,,,,,,,,,,53,,,,,,,,,,,,,,359.24000000000524,,response,,,,99,,,,,,,Space,keypress(Space),,,,,,,,---- -- ----- -- ------ - ------- --- ----------<br>------------- ------ ------ ---- ---- ------- ----- -- ----<br>-------- ------- -- ---------- --- - --- ----- ----- ----<br>---- --- --- ----- --- ---- ---- ------- ----- ---- -------<br>--- --- -- ----- -- --- ---- -- --- ---- -- ------ ------<br>--- ----- at ----,117742,117738,117378.46,117378,117378.76,117742.18,,54,at
screen,html.Screen,2_1_0_1_55,2022-02-02T17:55:09.970Z,,,,,,,,,,,,,,,,,53,,,,,,,,,,,,,,718.820000000007,,response,,,,99,,,,,,,Space,keypress(Space),,,,,,,,---- -- ----- -- ------ - ------- --- ----------<br>------------- ------ ------ ---- ---- ------- ----- -- ----<br>-------- ------- -- ---------- --- - --- ----- ----- ----<br>---- --- --- ----- --- ---- ---- ------- ----- ---- -------<br>--- --- -- ----- -- --- ---- -- --- ---- -- ------ ------<br>--- ----- -- all.,118465,118461,117741.86,117742,117742.18,118465.46,,55,all.
Item 99,flow.Loop,2_1_0_1,2022-02-02T17:55:09.971Z,,,,,,,,,,,,,,,,,,,,,,,,,,,,,,,24289.300000000003,,completion,,,,,E,,,,,,,,,,,silence,,,,,118465,118461,94154.16,94156,94171.7,118465.46,,,
Question 1,html.Screen,2_1_0_2,2022-02-02T17:55:13.664Z,,,,,,,,,,,,,,,,,,,,,,,,,,,,true,FALSE,,3684.5399999999936,,response,,,,99,E,,,,,,FALSE,click #choice-2,,,,silence,,,,,122157,122150,118465.14,118465,118465.46,122187.94,,,
Question 2,html.Screen,2_1_0_3,2022-02-02T17:55:18.171Z,,,,,,,,,,,,,,,,,,,,,,,,,,,,true,TRUE,,4470.059999999998,,response,,,,99,E,,,,,,TRUE,click #choice-1,,,,silence,,,,,126665,126658,122151.18,122158,122187.94,126688.36,,,
Item 99,flow.Sequence,2_1_0,2022-02-02T17:55:18.171Z,,,,,,,,,,,,,,,,,,,,,,,,,,,,,,,42486.240000000005,,completion,,,,,,,,,,,,,,,,,,,,,126665,126658,84145.46,84160,84171.76,126688.36,,,
Holding screen,html.Screen,2_1_1_0,2022-02-02T17:55:28.179Z,,,,,,,,,,,,,,,,,,,,,,,,,,,,,,,10000.099999999991,,timeout,,,,,,,,,,,,,,,,,,,,,136672,136671.8,126659.46,126666,126688.36,136688.46,,,
screen,html.Screen,2_1_1_1_0,2022-02-02T17:55:28.892Z,,,,,,,,,,,,,,,,,54,,,,,,,,,,,,,,690.5400000000081,,response,,,,100,,,,,,,Space,keypress(Space),,,,,,,,At --- ---- --- ------ ----- ------- ---- -- --- ------- --<br>------- ---------- ------ -- ----- -- ----- -- ---- ------<br>--- ----- --- --- ------ -------- ----- --- ------ ----- --<br>----- ----- ---------- --- --- ------ ------ ---- -- ------<br>------- --- ------ ----- --- ---- ------- -- ---- --- --<br>------- ------,137386,137379,136671.8,136673,136688.46,137387.48,,0,At
screen,html.Screen,2_1_1_1_1,2022-02-02T17:55:29.284Z,,,,,,,,,,,,,,,,,54,,,,,,,,,,,,,,386.5199999999895,,response,,,,100,,,,,,,Space,keypress(Space),,,,,,,,-- the ---- --- ------ ----- ------- ---- -- --- ------- --<br>------- ---------- ------ -- ----- -- ----- -- ---- ------<br>--- ----- --- --- ------ -------- ----- --- ------ ----- --<br>----- ----- ---------- --- --- ------ ------ ---- -- ------<br>------- --- ------ ----- --- ---- ------- -- ---- --- --<br>------- ------,137778,137774,137387.16,137387,137387.48,137778.74,,1,the
screen,html.Screen,2_1_1_1_2,2022-02-02T17:55:29.767Z,,,,,,,,,,,,,,,,,54,,,,,,,,,,,,,,456.2600000000093,,response,,,,100,,,,,,,Space,keypress(Space),,,,,,,,-- --- time --- ------ ----- ------- ---- -- --- ------- --<br>------- ---------- ------ -- ----- -- ----- -- ---- ------<br>--- ----- --- --- ------ -------- ----- --- ------ ----- --<br>----- ----- ---------- --- --- ------ ------ ---- -- ------<br>------- --- ------ ----- --- ---- ------- -- ---- --- --<br>------- ------,138261,138235,137778.42,137778,137778.74,138261.54,,2,time
screen,html.Screen,2_1_1_1_3,2022-02-02T17:55:30.161Z,,,,,,,,,,,,,,,,,54,,,,,,,,,,,,,,389.45999999999185,,response,,,,100,,,,,,,Space,keypress(Space),,,,,,,,-- --- ---- the ------ ----- ------- ---- -- --- ------- --<br>------- ---------- ------ -- ----- -- ----- -- ---- ------<br>--- ----- --- --- ------ -------- ----- --- ------ ----- --<br>----- ----- ---------- --- --- ------ ------ ---- -- ------<br>------- --- ------ ----- --- ---- ------- -- ---- --- --<br>------- ------,138655,138651,138261.44,138261,138261.54,138656.2,,3,the
screen,html.Screen,2_1_1_1_4,2022-02-02T17:55:30.598Z,,,,,,,,,,,,,,,,,54,,,,,,,,,,,,,,431.79999999998836,,response,,,,100,,,,,,,Space,keypress(Space),,,,,,,,-- --- ---- --- French ----- ------- ---- -- --- ------- --<br>------- ---------- ------ -- ----- -- ----- -- ---- ------<br>--- ----- --- --- ------ -------- ----- --- ------ ----- --<br>----- ----- ---------- --- --- ------ ------ ---- -- ------<br>------- --- ------ ----- --- ---- ------- -- ---- --- --<br>------- ------,139092,139088,138655.88,138656,138656.2,139093.3,,4,French
screen,html.Screen,2_1_1_1_5,2022-02-02T17:55:30.991Z,,,,,,,,,,,,,,,,,54,,,,,,,,,,,,,,389.70000000001164,,response,,,,100,,,,,,,Space,keypress(Space),,,,,,,,-- --- ---- --- ------ crown ------- ---- -- --- ------- --<br>------- ---------- ------ -- ----- -- ----- -- ---- ------<br>--- ----- --- --- ------ -------- ----- --- ------ ----- --<br>----- ----- ---------- --- --- ------ ------ ---- -- ------<br>------- --- ------ ----- --- ---- ------- -- ---- --- --<br>------- ------,139485,139483,139092.96,139093,139093.3,139485.76,,5,crown
screen,html.Screen,2_1_1_1_6,2022-02-02T17:55:31.416Z,,,,,,,,,,,,,,,,,54,,,,,,,,,,,,,,421.2399999999907,,response,,,,100,,,,,,,Space,keypress(Space),,,,,,,,-- --- ---- --- ------ ----- secured ---- -- --- ------- --<br>------- ---------- ------ -- ----- -- ----- -- ---- ------<br>--- ----- --- --- ------ -------- ----- --- ------ ----- --<br>----- ----- ---------- --- --- ------ ------ ---- -- ------<br>------- --- ------ ----- --- ---- ------- -- ---- --- --<br>------- ------,139910,139907,139485.5,139485,139485.76,139910.64,,6,secured
screen,html.Screen,2_1_1_1_7,2022-02-02T17:55:31.852Z,,,,,,,,,,,,,,,,,54,,,,,,,,,,,,,,431.35999999998603,,response,,,,100,,,,,,,Space,keypress(Space),,,,,,,,-- --- ---- --- ------ ----- ------- much -- --- ------- --<br>------- ---------- ------ -- ----- -- ----- -- ---- ------<br>--- ----- --- --- ------ -------- ----- --- ------ ----- --<br>----- ----- ---------- --- --- ------ ------ ---- -- ------<br>------- --- ------ ----- --- ---- ------- -- ---- --- --<br>------- ------,140346,140342,139910.36,139910,139910.64,140346.68,,7,much
screen,html.Screen,2_1_1_1_8,2022-02-02T17:55:32.318Z,,,,,,,,,,,,,,,,,54,,,,,,,,,,,,,,461.320000000007,,response,,,,100,,,,,,,Space,keypress(Space),,,,,,,,-- --- ---- --- ------ ----- ------- ---- of --- ------- --<br>------- ---------- ------ -- ----- -- ----- -- ---- ------<br>--- ----- --- --- ------ -------- ----- --- ------ ----- --<br>----- ----- ---------- --- --- ------ ------ ---- -- ------<br>------- --- ------ ----- --- ---- ------- -- ---- --- --<br>------- ------,140812,140808,140346.36,140346,140346.68,140812.54,,8,of
screen,html.Screen,2_1_1_1_9,2022-02-02T17:55:32.649Z,,,,,,,,,,,,,,,,,54,,,,,,,,,,,,,,326.45999999999185,,response,,,,100,,,,,,,Space,keypress(Space),,,,,,,,-- --- ---- --- ------ ----- ------- ---- -- its ------- --<br>------- ---------- ------ -- ----- -- ----- -- ---- ------<br>--- ----- --- --- ------ -------- ----- --- ------ ----- --<br>----- ----- ---------- --- --- ------ ------ ---- -- ------<br>------- --- ------ ----- --- ---- ------- -- ---- --- --<br>------- ------,141144,141139,140812.3,140812,140812.54,141144.68,,9,its
screen,html.Screen,2_1_1_1_10,2022-02-02T17:55:33.098Z,,,,,,,,,,,,,,,,,54,,,,,,,,,,,,,,442.320000000007,,response,,,,100,,,,,,,Space,keypress(Space),,,,,,,,-- --- ---- --- ------ ----- ------- ---- -- --- revenue --<br>------- ---------- ------ -- ----- -- ----- -- ---- ------<br>--- ----- --- --- ------ -------- ----- --- ------ ----- --<br>----- ----- ---------- --- --- ------ ------ ---- -- ------<br>------- --- ------ ----- --- ---- ------- -- ---- --- --<br>------- ------,141592,141587,141144.32,141145,141144.68,141593.18,,10,revenue
screen,html.Screen,2_1_1_1_11,2022-02-02T17:55:33.603Z,,,,,,,,,,,,,,,,,54,,,,,,,,,,,,,,500.820000000007,,response,,,,100,,,,,,,Space,keypress(Space),,,,,,,,-- --- ---- --- ------ ----- ------- ---- -- --- ------- by<br>------- ---------- ------ -- ----- -- ----- -- ---- ------<br>--- ----- --- --- ------ -------- ----- --- ------ ----- --<br>----- ----- ---------- --- --- ------ ------ ---- -- ------<br>------- --- ------ ----- --- ---- ------- -- ---- --- --<br>------- ------,142097,142094,141592.84,141593,141593.18,142097.88,,11,by
screen,html.Screen,2_1_1_1_12,2022-02-02T17:55:34.047Z,,,,,,,,,,,,,,,,,54,,,,,,,,,,,,,,440.11999999999534,,response,,,,100,,,,,,,Space,keypress(Space),,,,,,,,-- --- ---- --- ------ ----- ------- ---- -- --- ------- --<br>issuing ---------- ------ -- ----- -- ----- -- ---- ------<br>--- ----- --- --- ------ -------- ----- --- ------ ----- --<br>----- ----- ---------- --- --- ------ ------ ---- -- ------<br>------- --- ------ ----- --- ---- ------- -- ---- --- --<br>------- ------,142541,142538,142097.66,142097,142097.88,142541.72,,12,issuing
screen,html.Screen,2_1_1_1_13,2022-02-02T17:55:34.468Z,,,,,,,,,,,,,,,,,54,,,,,,,,,,,,,,417.27999999999884,,response,,,,100,,,,,,,Space,keypress(Space),,,,,,,,-- --- ---- --- ------ ----- ------- ---- -- --- ------- --<br>------- government ------ -- ----- -- ----- -- ---- ------<br>--- ----- --- --- ------ -------- ----- --- ------ ----- --<br>----- ----- ---------- --- --- ------ ------ ---- -- ------<br>------- --- ------ ----- --- ---- ------- -- ---- --- --<br>------- ------,142962,142959,142541.36,142541,142541.72,142962.68,,13,government
screen,html.Screen,2_1_1_1_14,2022-02-02T17:55:35.104Z,,,,,,,,,,,,,,,,,54,,,,,,,,,,,,,,632.320000000007,,response,,,,100,,,,,,,Space,keypress(Space),,,,,,,,-- --- ---- --- ------ ----- ------- ---- -- --- ------- --<br>------- ---------- bonds. -- ----- -- ----- -- ---- ------<br>--- ----- --- --- ------ -------- ----- --- ------ ----- --<br>----- ----- ---------- --- --- ------ ------ ---- -- ------<br>------- --- ------ ----- --- ---- ------- -- ---- --- --<br>------- ------,143599,143595,142962.38,142962,142962.68,143599.32,,14,bonds.
screen,html.Screen,2_1_1_1_15,2022-02-02T17:55:37.131Z,,,,,,,,,,,,,,,,,54,,,,,,,,,,,,,,2021.679999999993,,response,,,,100,,,,,,,Space,keypress(Space),,,,,,,,-- --- ---- --- ------ ----- ------- ---- -- --- ------- --<br>------- ---------- ------ In ----- -- ----- -- ---- ------<br>--- ----- --- --- ------ -------- ----- --- ------ ----- --<br>----- ----- ---------- --- --- ------ ------ ---- -- ------<br>------- --- ------ ----- --- ---- ------- -- ---- --- --<br>------- ------,145624,145621,143599.02,143599,143599.32,145624.66,,15,In
screen,html.Screen,2_1_1_1_16,2022-02-02T17:55:37.756Z,,,,,,,,,,,,,,,,,54,,,,,,,,,,,,,,622.3399999999965,,response,,,,100,,,,,,,Space,keypress(Space),,,,,,,,"-- --- ---- --- ------ ----- ------- ---- -- --- ------- --<br>------- ---------- ------ -- 1727, -- ----- -- ---- ------<br>--- ----- --- --- ------ -------- ----- --- ------ ----- --<br>----- ----- ---------- --- --- ------ ------ ---- -- ------<br>------- --- ------ ----- --- ---- ------- -- ---- --- --<br>------- ------",146251,146247,145624.44,145624,145624.66,146251.28,,16,"1727,"
screen,html.Screen,2_1_1_1_17,2022-02-02T17:55:38.285Z,,,,,,,,,,,,,,,,,54,,,,,,,,,,,,,,524.7200000000012,,response,,,,100,,,,,,,Space,keypress(Space),,,,,,,,-- --- ---- --- ------ ----- ------- ---- -- --- ------- --<br>------- ---------- ------ -- ----- in ----- -- ---- ------<br>--- ----- --- --- ------ -------- ----- --- ------ ----- --<br>----- ----- ---------- --- --- ------ ------ ---- -- ------<br>------- --- ------ ----- --- ---- ------- -- ---- --- --<br>------- ------,146779,146776,146250.94,146251,146251.28,146779.96,,17,in
screen,html.Screen,2_1_1_1_18,2022-02-02T17:55:38.721Z,,,,,,,,,,,,,,,,,54,,,,,,,,,,,,,,432.04000000000815,,response,,,,100,,,,,,,Space,keypress(Space),,,,,,,,-- --- ---- --- ------ ----- ------- ---- -- --- ------- --<br>------- ---------- ------ -- ----- -- order -- ---- ------<br>--- ----- --- --- ------ -------- ----- --- ------ ----- --<br>----- ----- ---------- --- --- ------ ------ ---- -- ------<br>------- --- ------ ----- --- ---- ------- -- ---- --- --<br>------- ------,147214,147212,146779.66,146779,146779.96,147215.28,,18,order
screen,html.Screen,2_1_1_1_19,2022-02-02T17:55:39.074Z,,,,,,,,,,,,,,,,,54,,,,,,,,,,,,,,349.72000000000116,,response,,,,100,,,,,,,Space,keypress(Space),,,,,,,,-- --- ---- --- ------ ----- ------- ---- -- --- ------- --<br>------- ---------- ------ -- ----- -- ----- to ---- ------<br>--- ----- --- --- ------ -------- ----- --- ------ ----- --<br>----- ----- ---------- --- --- ------ ------ ---- -- ------<br>------- --- ------ ----- --- ---- ------- -- ---- --- --<br>------- ------,147568,147565,147214.98,147215,147215.28,147569.46,,19,to
screen,html.Screen,2_1_1_1_20,2022-02-02T17:55:39.518Z,,,,,,,,,,,,,,,,,54,,,,,,,,,,,,,,439.54000000000815,,response,,,,100,,,,,,,Space,keypress(Space),,,,,,,,-- --- ---- --- ------ ----- ------- ---- -- --- ------- --<br>------- ---------- ------ -- ----- -- ----- -- save ------<br>--- ----- --- --- ------ -------- ----- --- ------ ----- --<br>----- ----- ---------- --- --- ------ ------ ---- -- ------<br>------- --- ------ ----- --- ---- ------- -- ---- --- --<br>------- ------,148012,148009,147569.06,147569,147569.46,148013.06,,20,save
screen,html.Screen,2_1_1_1_21,2022-02-02T17:55:39.949Z,,,,,,,,,,,,,,,,,54,,,,,,,,,,,,,,426.9400000000023,,response,,,,100,,,,,,,Space,keypress(Space),,,,,,,,"-- --- ---- --- ------ ----- ------- ---- -- --- ------- --<br>------- ---------- ------ -- ----- -- ----- -- ---- money,<br>--- ----- --- --- ------ -------- ----- --- ------ ----- --<br>----- ----- ---------- --- --- ------ ------ ---- -- ------<br>------- --- ------ ----- --- ---- ------- -- ---- --- --<br>------- ------",148443,148440,148012.82,148013,148013.06,148443.54,,21,"money,"
screen,html.Screen,2_1_1_1_22,2022-02-02T17:55:40.469Z,,,,,,,,,,,,,,,,,54,,,,,,,,,,,,,,515.4599999999919,,response,,,,100,,,,,,,Space,keypress(Space),,,,,,,,-- --- ---- --- ------ ----- ------- ---- -- --- ------- --<br>------- ---------- ------ -- ----- -- ----- -- ---- ------<br>the ----- --- --- ------ -------- ----- --- ------ ----- --<br>----- ----- ---------- --- --- ------ ------ ---- -- ------<br>------- --- ------ ----- --- ---- ------- -- ---- --- --<br>------- ------,148963,148959,148443.22,148443,148443.54,148963.54,,22,the
screen,html.Screen,2_1_1_1_23,2022-02-02T17:55:40.914Z,,,,,,,,,,,,,,,,,54,,,,,,,,,,,,,,440.45999999999185,,response,,,,100,,,,,,,Space,keypress(Space),,,,,,,,-- --- ---- --- ------ ----- ------- ---- -- --- ------- --<br>------- ---------- ------ -- ----- -- ----- -- ---- ------<br>--- state --- --- ------ -------- ----- --- ------ ----- --<br>----- ----- ---------- --- --- ------ ------ ---- -- ------<br>------- --- ------ ----- --- ---- ------- -- ---- --- --<br>------- ------,149407,149404,148963.2,148963,148963.54,149408.14,,23,state
screen,html.Screen,2_1_1_1_24,2022-02-02T17:55:41.508Z,,,,,,,,,,,,,,,,,54,,,,,,,,,,,,,,589.859999999986,,response,,,,100,,,,,,,Space,keypress(Space),,,,,,,,-- --- ---- --- ------ ----- ------- ---- -- --- ------- --<br>------- ---------- ------ -- ----- -- ----- -- ---- ------<br>--- ----- cut --- ------ -------- ----- --- ------ ----- --<br>----- ----- ---------- --- --- ------ ------ ---- -- ------<br>------- --- ------ ----- --- ---- ------- -- ---- --- --<br>------- ------,150001,149998,149407.82,149408,149408.14,150002.54,,24,cut
screen,html.Screen,2_1_1_1_25,2022-02-02T17:55:41.842Z,,,,,,,,,,,,,,,,,54,,,,,,,,,,,,,,329.45999999999185,,response,,,,100,,,,,,,Space,keypress(Space),,,,,,,,-- --- ---- --- ------ ----- ------- ---- -- --- ------- --<br>------- ---------- ------ -- ----- -- ----- -- ---- ------<br>--- ----- --- the ------ -------- ----- --- ------ ----- --<br>----- ----- ---------- --- --- ------ ------ ---- -- ------<br>------- --- ------ ----- --- ---- ------- -- ---- --- --<br>------- ------,150336,150332,150002.18,150002,150002.54,150336.12,,25,the
screen,html.Screen,2_1_1_1_26,2022-02-02T17:55:42.187Z,,,,,,,,,,,,,,,,,54,,,,,,,,,,,,,,341.88000000000466,,response,,,,100,,,,,,,Space,keypress(Space),,,,,,,,-- --- ---- --- ------ ----- ------- ---- -- --- ------- --<br>------- ---------- ------ -- ----- -- ----- -- ---- ------<br>--- ----- --- --- bonds' -------- ----- --- ------ ----- --<br>----- ----- ---------- --- --- ------ ------ ---- -- ------<br>------- --- ------ ----- --- ---- ------- -- ---- --- --<br>------- ------,150682,150678,150335.8,150336,150336.12,150682.16,,26,bonds'
screen,html.Screen,2_1_1_1_27,2022-02-02T17:55:42.647Z,,,,,,,,,,,,,,,,,54,,,,,,,,,,,,,,455.8399999999965,,response,,,,100,,,,,,,Space,keypress(Space),,,,,,,,-- --- ---- --- ------ ----- ------- ---- -- --- ------- --<br>------- ---------- ------ -- ----- -- ----- -- ---- ------<br>--- ----- --- --- ------ interest ----- --- ------ ----- --<br>----- ----- ---------- --- --- ------ ------ ---- -- ------<br>------- --- ------ ----- --- ---- ------- -- ---- --- --<br>------- ------,151142,151138,150681.82,150682,150682.16,151141.98,,27,interest
screen,html.Screen,2_1_1_1_28,2022-02-02T17:55:43.123Z,,,,,,,,,,,,,,,,,54,,,,,,,,,,,,,,471.0199999999895,,response,,,,100,,,,,,,Space,keypress(Space),,,,,,,,-- --- ---- --- ------ ----- ------- ---- -- --- ------- --<br>------- ---------- ------ -- ----- -- ----- -- ---- ------<br>--- ----- --- --- ------ -------- rate. --- ------ ----- --<br>----- ----- ---------- --- --- ------ ------ ---- -- ------<br>------- --- ------ ----- --- ---- ------- -- ---- --- --<br>------- ------,151616,151613,151141.76,151142,151141.98,151617.48,,28,rate.
screen,html.Screen,2_1_1_1_29,2022-02-02T17:55:43.965Z,,,,,,,,,,,,,,,,,54,,,,,,,,,,,,,,837.5199999999895,,response,,,,100,,,,,,,Space,keypress(Space),,,,,,,,-- --- ---- --- ------ ----- ------- ---- -- --- ------- --<br>------- ---------- ------ -- ----- -- ----- -- ---- ------<br>--- ----- --- --- ------ -------- ----- The ------ ----- --<br>----- ----- ---------- --- --- ------ ------ ---- -- ------<br>------- --- ------ ----- --- ---- ------- -- ---- --- --<br>------- ------,152458,152455,151617.12,151617,151617.48,152459.04,,29,The
screen,html.Screen,2_1_1_1_30,2022-02-02T17:55:44.297Z,,,,,,,,,,,,,,,,,54,,,,,,,,,,,,,,327.95999999999185,,response,,,,100,,,,,,,Space,keypress(Space),,,,,,,,-- --- ---- --- ------ ----- ------- ---- -- --- ------- --<br>------- ---------- ------ -- ----- -- ----- -- ---- ------<br>--- ----- --- --- ------ -------- ----- --- market ----- --<br>----- ----- ---------- --- --- ------ ------ ---- -- ------<br>------- --- ------ ----- --- ---- ------- -- ---- --- --<br>------- ------,152791,152787,152458.74,152458,152459.04,152791.24,,30,market
screen,html.Screen,2_1_1_1_31,2022-02-02T17:55:44.649Z,,,,,,,,,,,,,,,,,54,,,,,,,,,,,,,,347.7600000000093,,response,,,,100,,,,,,,Space,keypress(Space),,,,,,,,-- --- ---- --- ------ ----- ------- ---- -- --- ------- --<br>------- ---------- ------ -- ----- -- ----- -- ---- ------<br>--- ----- --- --- ------ -------- ----- --- ------ value --<br>----- ----- ---------- --- --- ------ ------ ---- -- ------<br>------- --- ------ ----- --- ---- ------- -- ---- --- --<br>------- ------,153142,153139,152791,152791,152791.24,153143.14,,31,value
screen,html.Screen,2_1_1_1_32,2022-02-02T17:55:45.014Z,,,,,,,,,,,,,,,,,54,,,,,,,,,,,,,,360.85999999998603,,response,,,,100,,,,,,,Space,keypress(Space),,,,,,,,-- --- ---- --- ------ ----- ------- ---- -- --- ------- --<br>------- ---------- ------ -- ----- -- ----- -- ---- ------<br>--- ----- --- --- ------ -------- ----- --- ------ ----- of<br>----- ----- ---------- --- --- ------ ------ ---- -- ------<br>------- --- ------ ----- --- ---- ------- -- ---- --- --<br>------- ------,153508,153504,153142.8,153143,153143.14,153508.96,,32,of
screen,html.Screen,2_1_1_1_33,2022-02-02T17:55:45.423Z,,,,,,,,,,,,,,,,,54,,,,,,,,,,,,,,405.04000000000815,,response,,,,100,,,,,,,Space,keypress(Space),,,,,,,,-- --- ---- --- ------ ----- ------- ---- -- --- ------- --<br>------- ---------- ------ -- ----- -- ----- -- ---- ------<br>--- ----- --- --- ------ -------- ----- --- ------ ----- --<br>these ----- ---------- --- --- ------ ------ ---- -- ------<br>------- --- ------ ----- --- ---- ------- -- ---- --- --<br>------- ------,153917,153914,153508.64,153508,153508.96,153918.22,,33,these
screen,html.Screen,2_1_1_1_34,2022-02-02T17:55:45.755Z,,,,,,,,,,,,,,,,,54,,,,,,,,,,,,,,327.77999999999884,,response,,,,100,,,,,,,Space,keypress(Space),,,,,,,,-- --- ---- --- ------ ----- ------- ---- -- --- ------- --<br>------- ---------- ------ -- ----- -- ----- -- ---- ------<br>--- ----- --- --- ------ -------- ----- --- ------ ----- --<br>----- bonds ---------- --- --- ------ ------ ---- -- ------<br>------- --- ------ ----- --- ---- ------- -- ---- --- --<br>------- ------,154249,154246,153917.86,153917,153918.22,154249.96,,34,bonds
screen,html.Screen,2_1_1_1_35,2022-02-02T17:55:46.470Z,,,,,,,,,,,,,,,,,54,,,,,,,,,,,,,,710.0400000000081,,response,,,,100,,,,,,,Space,keypress(Space),,,,,,,,"-- --- ---- --- ------ ----- ------- ---- -- --- ------- --<br>------- ---------- ------ -- ----- -- ----- -- ---- ------<br>--- ----- --- --- ------ -------- ----- --- ------ ----- --<br>----- ----- plummeted, --- --- ------ ------ ---- -- ------<br>------- --- ------ ----- --- ---- ------- -- ---- --- --<br>------- ------",154963,154960,154249.7,154249,154249.96,154963.92,,35,"plummeted,"
screen,html.Screen,2_1_1_1_36,2022-02-02T17:55:46.729Z,,,,,,,,,,,,,,,,,54,,,,,,,,,,,,,,256.0799999999872,,response,,,,100,,,,,,,Space,keypress(Space),,,,,,,,-- --- ---- --- ------ ----- ------- ---- -- --- ------- --<br>------- ---------- ------ -- ----- -- ----- -- ---- ------<br>--- ----- --- --- ------ -------- ----- --- ------ ----- --<br>----- ----- ---------- and --- ------ ------ ---- -- ------<br>------- --- ------ ----- --- ---- ------- -- ---- --- --<br>------- ------,155223,155220,154963.44,154963,154963.92,155223.9,,36,and
screen,html.Screen,2_1_1_1_37,2022-02-02T17:55:47.133Z,,,,,,,,,,,,,,,,,54,,,,,,,,,,,,,,400.1000000000058,,response,,,,100,,,,,,,Space,keypress(Space),,,,,,,,-- --- ---- --- ------ ----- ------- ---- -- --- ------- --<br>------- ---------- ------ -- ----- -- ----- -- ---- ------<br>--- ----- --- --- ------ -------- ----- --- ------ ----- --<br>----- ----- ---------- --- the ------ ------ ---- -- ------<br>------- --- ------ ----- --- ---- ------- -- ---- --- --<br>------- ------,155627,155624,155223.56,155223,155223.9,155627.98,,37,the
screen,html.Screen,2_1_1_1_38,2022-02-02T17:55:47.592Z,,,,,,,,,,,,,,,,,54,,,,,,,,,,,,,,454.0199999999895,,response,,,,100,,,,,,,Space,keypress(Space),,,,,,,,-- --- ---- --- ------ ----- ------- ---- -- --- ------- --<br>------- ---------- ------ -- ----- -- ----- -- ---- ------<br>--- ----- --- --- ------ -------- ----- --- ------ ----- --<br>----- ----- ---------- --- --- market ------ ---- -- ------<br>------- --- ------ ----- --- ---- ------- -- ---- --- --<br>------- ------,156086,156082,155627.66,155627,155627.98,156086.26,,38,market
screen,html.Screen,2_1_1_1_39,2022-02-02T17:55:48.036Z,,,,,,,,,,,,,,,,,54,,,,,,,,,,,,,,440.7399999999907,,response,,,,100,,,,,,,Space,keypress(Space),,,,,,,,-- --- ---- --- ------ ----- ------- ---- -- --- ------- --<br>------- ---------- ------ -- ----- -- ----- -- ---- ------<br>--- ----- --- --- ------ -------- ----- --- ------ ----- --<br>----- ----- ---------- --- --- ------ became ---- -- ------<br>------- --- ------ ----- --- ---- ------- -- ---- --- --<br>------- ------,156530,156527,156085.94,156086,156086.26,156530.5,,39,became
screen,html.Screen,2_1_1_1_40,2022-02-02T17:55:48.438Z,,,,,,,,,,,,,,,,,54,,,,,,,,,,,,,,397.5,,response,,,,100,,,,,,,Space,keypress(Space),,,,,,,,-- --- ---- --- ------ ----- ------- ---- -- --- ------- --<br>------- ---------- ------ -- ----- -- ----- -- ---- ------<br>--- ----- --- --- ------ -------- ----- --- ------ ----- --<br>----- ----- ---------- --- --- ------ ------ wary -- ------<br>------- --- ------ ----- --- ---- ------- -- ---- --- --<br>------- ------,156932,156928,156530.2,156530,156530.5,156932.66,,40,wary
screen,html.Screen,2_1_1_1_41,2022-02-02T17:55:48.864Z,,,,,,,,,,,,,,,,,54,,,,,,,,,,,,,,421.3399999999965,,response,,,,100,,,,,,,Space,keypress(Space),,,,,,,,-- --- ---- --- ------ ----- ------- ---- -- --- ------- --<br>------- ---------- ------ -- ----- -- ----- -- ---- ------<br>--- ----- --- --- ------ -------- ----- --- ------ ----- --<br>----- ----- ---------- --- --- ------ ------ ---- of ------<br>------- --- ------ ----- --- ---- ------- -- ---- --- --<br>------- ------,157357,157354,156932.34,156932,156932.66,157358.1,,41,of
screen,html.Screen,2_1_1_1_42,2022-02-02T17:55:49.342Z,,,,,,,,,,,,,,,,,54,,,,,,,,,,,,,,474.8999999999942,,response,,,,100,,,,,,,Space,keypress(Space),,,,,,,,-- --- ---- --- ------ ----- ------- ---- -- --- ------- --<br>------- ---------- ------ -- ----- -- ----- -- ---- ------<br>--- ----- --- --- ------ -------- ----- --- ------ ----- --<br>----- ----- ---------- --- --- ------ ------ ---- -- French<br>------- --- ------ ----- --- ---- ------- -- ---- --- --<br>------- ------,157836,157833,157357.78,157358,157358.1,157836.46,,42,French
screen,html.Screen,2_1_1_1_43,2022-02-02T17:55:49.945Z,,,,,,,,,,,,,,,,,54,,,,,,,,,,,,,,599.5400000000081,,response,,,,100,,,,,,,Space,keypress(Space),,,,,,,,-- --- ---- --- ------ ----- ------- ---- -- --- ------- --<br>------- ---------- ------ -- ----- -- ----- -- ---- ------<br>--- ----- --- --- ------ -------- ----- --- ------ ----- --<br>----- ----- ---------- --- --- ------ ------ ---- -- ------<br>credit. --- ------ ----- --- ---- ------- -- ---- --- --<br>------- ------,158439,158436,157836.16,157836,157836.46,158439.84,,43,credit.
screen,html.Screen,2_1_1_1_44,2022-02-02T17:55:51.590Z,,,,,,,,,,,,,,,,,54,,,,,,,,,,,,,,1641.1600000000035,,response,,,,100,,,,,,,Space,keypress(Space),,,,,,,,-- --- ---- --- ------ ----- ------- ---- -- --- ------- --<br>------- ---------- ------ -- ----- -- ----- -- ---- ------<br>--- ----- --- --- ------ -------- ----- --- ------ ----- --<br>----- ----- ---------- --- --- ------ ------ ---- -- ------<br>------- The ------ ----- --- ---- ------- -- ---- --- --<br>------- ------,160084,160081,158439.5,158439,158439.84,160084.96,,44,The
screen,html.Screen,2_1_1_1_45,2022-02-02T17:55:52.139Z,,,,,,,,,,,,,,,,,54,,,,,,,,,,,,,,545.0400000000081,,response,,,,100,,,,,,,Space,keypress(Space),,,,,,,,-- --- ---- --- ------ ----- ------- ---- -- --- ------- --<br>------- ---------- ------ -- ----- -- ----- -- ---- ------<br>--- ----- --- --- ------ -------- ----- --- ------ ----- --<br>----- ----- ---------- --- --- ------ ------ ---- -- ------<br>------- --- French ----- --- ---- ------- -- ---- --- --<br>------- ------,160633,160630,160084.66,160085,160084.96,160634.2,,45,French
screen,html.Screen,2_1_1_1_46,2022-02-02T17:55:52.511Z,,,,,,,,,,,,,,,,,54,,,,,,,,,,,,,,366.79999999998836,,response,,,,100,,,,,,,Space,keypress(Space),,,,,,,,-- --- ---- --- ------ ----- ------- ---- -- --- ------- --<br>------- ---------- ------ -- ----- -- ----- -- ---- ------<br>--- ----- --- --- ------ -------- ----- --- ------ ----- --<br>----- ----- ---------- --- --- ------ ------ ---- -- ------<br>------- --- ------ state --- ---- ------- -- ---- --- --<br>------- ------,161004,161001,160633.88,160633,160634.2,161004.86,,46,state
screen,html.Screen,2_1_1_1_47,2022-02-02T17:55:53.172Z,,,,,,,,,,,,,,,,,54,,,,,,,,,,,,,,658.140000000014,,response,,,,100,,,,,,,Space,keypress(Space),,,,,,,,-- --- ---- --- ------ ----- ------- ---- -- --- ------- --<br>------- ---------- ------ -- ----- -- ----- -- ---- ------<br>--- ----- --- --- ------ -------- ----- --- ------ ----- --<br>----- ----- ---------- --- --- ------ ------ ---- -- ------<br>------- --- ------ ----- was ---- ------- -- ---- --- --<br>------- ------,161665,161663,161004.62,161004,161004.86,161665.98,,47,was
screen,html.Screen,2_1_1_1_48,2022-02-02T17:55:53.545Z,,,,,,,,,,,,,,,,,54,,,,,,,,,,,,,,370.0199999999895,,response,,,,100,,,,,,,Space,keypress(Space),,,,,,,,-- --- ---- --- ------ ----- ------- ---- -- --- ------- --<br>------- ---------- ------ -- ----- -- ----- -- ---- ------<br>--- ----- --- --- ------ -------- ----- --- ------ ----- --<br>----- ----- ---------- --- --- ------ ------ ---- -- ------<br>------- --- ------ ----- --- left ------- -- ---- --- --<br>------- ------,162039,162036,161665.68,161665,161665.98,162039.42,,48,left
screen,html.Screen,2_1_1_1_49,2022-02-02T17:55:53.879Z,,,,,,,,,,,,,,,,,54,,,,,,,,,,,,,,329.5799999999872,,response,,,,100,,,,,,,Space,keypress(Space),,,,,,,,-- --- ---- --- ------ ----- ------- ---- -- --- ------- --<br>------- ---------- ------ -- ----- -- ----- -- ---- ------<br>--- ----- --- --- ------ -------- ----- --- ------ ----- --<br>----- ----- ---------- --- --- ------ ------ ---- -- ------<br>------- --- ------ ----- --- ---- without -- ---- --- --<br>------- ------,162373,162369,162039.08,162039,162039.42,162373.86,,49,without
screen,html.Screen,2_1_1_1_50,2022-02-02T17:55:54.213Z,,,,,,,,,,,,,,,,,54,,,,,,,,,,,,,,329.14000000001397,,response,,,,100,,,,,,,Space,keypress(Space),,,,,,,,-- --- ---- --- ------ ----- ------- ---- -- --- ------- --<br>------- ---------- ------ -- ----- -- ----- -- ---- ------<br>--- ----- --- --- ------ -------- ----- --- ------ ----- --<br>----- ----- ---------- --- --- ------ ------ ---- -- ------<br>------- --- ------ ----- --- ---- ------- an ---- --- --<br>------- ------,162706,162703,162373.52,162374,162373.86,162707,,50,an
screen,html.Screen,2_1_1_1_51,2022-02-02T17:55:54.537Z,,,,,,,,,,,,,,,,,54,,,,,,,,,,,,,,322,,response,,,,100,,,,,,,Space,keypress(Space),,,,,,,,-- --- ---- --- ------ ----- ------- ---- -- --- ------- --<br>------- ---------- ------ -- ----- -- ----- -- ---- ------<br>--- ----- --- --- ------ -------- ----- --- ------ ----- --<br>----- ----- ---------- --- --- ------ ------ ---- -- ------<br>------- --- ------ ----- --- ---- ------- -- easy --- --<br>------- ------,163031,163029,162706.66,162707,162707,163031.46,,51,easy
screen,html.Screen,2_1_1_1_52,2022-02-02T17:55:54.901Z,,,,,,,,,,,,,,,,,54,,,,,,,,,,,,,,359.54000000000815,,response,,,,100,,,,,,,Space,keypress(Space),,,,,,,,-- --- ---- --- ------ ----- ------- ---- -- --- ------- --<br>------- ---------- ------ -- ----- -- ----- -- ---- ------<br>--- ----- --- --- ------ -------- ----- --- ------ ----- --<br>----- ----- ---------- --- --- ------ ------ ---- -- ------<br>------- --- ------ ----- --- ---- ------- -- ---- way --<br>------- ------,163395,163391,163031.18,163031,163031.46,163395.08,,52,way
screen,html.Screen,2_1_1_1_53,2022-02-02T17:55:55.391Z,,,,,,,,,,,,,,,,,54,,,,,,,,,,,,,,486.9200000000128,,response,,,,100,,,,,,,Space,keypress(Space),,,,,,,,-- --- ---- --- ------ ----- ------- ---- -- --- ------- --<br>------- ---------- ------ -- ----- -- ----- -- ---- ------<br>--- ----- --- --- ------ -------- ----- --- ------ ----- --<br>----- ----- ---------- --- --- ------ ------ ---- -- ------<br>------- --- ------ ----- --- ---- ------- -- ---- --- of<br>------- ------,163885,163882,163394.8,163395,163395.08,163885.32,,53,of
screen,html.Screen,2_1_1_1_54,2022-02-02T17:55:55.764Z,,,,,,,,,,,,,,,,,54,,,,,,,,,,,,,,369.679999999993,,response,,,,100,,,,,,,Space,keypress(Space),,,,,,,,-- --- ---- --- ------ ----- ------- ---- -- --- ------- --<br>------- ---------- ------ -- ----- -- ----- -- ---- ------<br>--- ----- --- --- ------ -------- ----- --- ------ ----- --<br>----- ----- ---------- --- --- ------ ------ ---- -- ------<br>------- --- ------ ----- --- ---- ------- -- ---- --- --<br>raising ------,164257,164255,163885.02,163885,163885.32,164258.36,,54,raising
screen,html.Screen,2_1_1_1_55,2022-02-02T17:55:56.096Z,,,,,,,,,,,,,,,,,54,,,,,,,,,,,,,,327.64000000001397,,response,,,,100,,,,,,,Space,keypress(Space),,,,,,,,-- --- ---- --- ------ ----- ------- ---- -- --- ------- --<br>------- ---------- ------ -- ----- -- ----- -- ---- ------<br>--- ----- --- --- ------ -------- ----- --- ------ ----- --<br>----- ----- ---------- --- --- ------ ------ ---- -- ------<br>------- --- ------ ----- --- ---- ------- -- ---- --- --<br>------- money.,164590,164586,164258.02,164257,164258.36,164591.3,,55,money.
Item 100,flow.Loop,2_1_1_1,2022-02-02T17:55:56.097Z,,,,,,,,,,,,,,,,,,,,,,,,,,,,,,,27897.540000000008,,completion,,,,,E,,,,,,,,,,,silence,,,,,164591,164586,136671.8,136673,136688.46,164591.3,,,
Question 1,html.Screen,2_1_1_2,2022-02-02T17:56:01.915Z,,,,,,,,,,,,,,,,,,,,,,,,,,,,false,TRUE,,5814.700000000012,,response,,,,100,E,,,,,,FALSE,click #choice-2,,,,silence,,,,,170409,170406,164591.02,164591,164591.3,170406.76,,,
Question 2,html.Screen,2_1_1_3,2022-02-02T17:56:05.117Z,,,,,,,,,,,,,,,,,,,,,,,,,,,,false,FALSE,,3194.2399999999907,,response,,,,100,E,,,,,,TRUE,click #choice-1,,,,silence,,,,,173611,173601,170406.74,170409,170406.76,173604.24,,,
Item 100,flow.Sequence,2_1_1,2022-02-02T17:56:05.118Z,,,,,,,,,,,,,,,,,,,,,,,,,,,,,,,46912.64,,completion,,,,,,,,,,,,,,,,,,,,,173612,173601,126659.46,126666,126688.36,173604.24,,,
End of Practice,html.Page,2_1_2,2022-02-02T17:56:10.095Z,,,,,,,,,,,,,,,,,,,,,,,,,,,,,,,4983.760000000009,,form submission,,,,,,,,,,,,,,,,,,,,,178589,178588,173602.9,173612,173604.24,178605.04,,,
Practice,flow.Sequence,2_1,2022-02-02T17:56:10.095Z,,,,,,,,,,,,,,,,,,,,,,,,,,,,,,,94416.24,,completion,,,,,,,,,,,,,,,,,,,,,178589,178588,84145.46,84160,84171.76,178605.04,,,
Trap_instruction,html.Page,2_2_0,2022-02-02T17:56:13.315Z,,,,,,,,,,,,,,,,,,,,,,,,,,,,,,,3202.959999999992,,form submission,,,,,,,,,,,,,,,,,,,,,181808,181808,178578.1,178589,178605.04,181838.38,,,
trap_trial,html.Screen,2_2_1,2022-02-02T17:56:16.026Z,,,,,,,,,,,,,,,,,,,,,,,,,,,,true,1,,2672.6199999999953,,response,,,,,,,,,,,1,click #choice-1,,,,,,,,,184519,184511,181798.62,181809,181838.38,184555.02,,,
end of trap trial,html.Page,2_2_2,2022-02-02T17:56:17.333Z,,,,,,,,,,,,,,,,,,,,,,,,,,,,,,,1270.9800000000105,,form submission,,,,,,,,,,,,,,,,,,,,,185827,185826,184512.78,184519,184555.02,185821.14,,,
Trap 1,flow.Sequence,2_2,2022-02-02T17:56:17.333Z,,,,,,,,,,,,,,,,,,,,,,,,,,,,,,,7220.959999999992,,completion,,,,,,,,,,,,,,,,,,,,,185827,185826,178578.1,178589,178605.04,185821.14,,,
Standby,html.Page,2_3_0,2022-02-02T17:56:25.313Z,,,,,,,,,,,,,,,,,,,,,,,,,,,,,,,8000.579999999987,,timeout,,,,,,,,,,,,,,,,,,,,,193807,193805.06,185818.38,185828,185821.14,193821.72,,,
Holding screen,html.Screen,2_3_1_0_0,2022-02-02T17:56:32.312Z,,,,,,,,,,,,,,,,,,,,,,,,,,,,,,,6999.9800000000105,,timeout,,,,,,,,,,,,,,,,,,,,,200806,200805.02,193805.06,193808,193821.72,200821.7,,,
screen,html.Screen,2_3_1_0_1_0,2022-02-02T17:56:33.050Z,,,,,,,,,,,,,,,,,51,,,,,,,,,,,,,,717.2999999999884,,response,,,,13,E,,,,,,Space,keypress(Space),,,,lyrical,,,,American -------- --- --- ---- --- --- ------ -- --------<br>---- --------- --- ------- ------------ ---------- ---------<br>--- ---------- ------- ---------- ------- -- -------- ----<br>---- --- ------ ----- ------ -- ---- --- ----- -- - -------<br>-------- -- --- --- -- ----- ----------- ----- -----------<br>---- --- ---------- --- ---- --- -- ----------,201544,201539,200805.02,200807,200821.7,201544.84,,0,American
screen,html.Screen,2_3_1_0_1_1,2022-02-02T17:56:33.561Z,,,,,,,,,,,,,,,,,51,,,,,,,,,,,,,,506.1600000000035,,response,,,,13,E,,,,,,Space,keypress(Space),,,,lyrical,,,,-------- industry --- --- ---- --- --- ------ -- --------<br>---- --------- --- ------- ------------ ---------- ---------<br>--- ---------- ------- ---------- ------- -- -------- ----<br>---- --- ------ ----- ------ -- ---- --- ----- -- - -------<br>-------- -- --- --- -- ----- ----------- ----- -----------<br>---- --- ---------- --- ---- --- -- ----------,202055,202051,201544.42,201544,201544.84,202055.94,,1,industry
screen,html.Screen,2_3_1_0_1_2,2022-02-02T17:56:34.107Z,,,,,,,,,,,,,,,,,51,,,,,,,,,,,,,,539.0599999999977,,response,,,,13,E,,,,,,Space,keypress(Space),,,,lyrical,,,,-------- -------- may --- ---- --- --- ------ -- --------<br>---- --------- --- ------- ------------ ---------- ---------<br>--- ---------- ------- ---------- ------- -- -------- ----<br>---- --- ------ ----- ------ -- ---- --- ----- -- - -------<br>-------- -- --- --- -- ----- ----------- ----- -----------<br>---- --- ---------- --- ---- --- -- ----------,202600,202595,202055.7,202055,202055.94,202600.9,,2,may
screen,html.Screen,2_3_1_0_1_3,2022-02-02T17:56:34.535Z,,,,,,,,,,,,,,,,,51,,,,,,,,,,,,,,424.1000000000058,,response,,,,13,E,,,,,,Space,keypress(Space),,,,lyrical,,,,-------- -------- --- not ---- --- --- ------ -- --------<br>---- --------- --- ------- ------------ ---------- ---------<br>--- ---------- ------- ---------- ------- -- -------- ----<br>---- --- ------ ----- ------ -- ---- --- ----- -- - -------<br>-------- -- --- --- -- ----- ----------- ----- -----------<br>---- --- ---------- --- ---- --- -- ----------,203028,203025,202600.54,202600,202600.9,203028.96,,3,not
screen,html.Screen,2_3_1_0_1_4,2022-02-02T17:56:34.969Z,,,,,,,,,,,,,,,,,51,,,,,,,,,,,,,,431.04000000000815,,response,,,,13,E,,,,,,Space,keypress(Space),,,,lyrical,,,,-------- -------- --- --- know --- --- ------ -- --------<br>---- --------- --- ------- ------------ ---------- ---------<br>--- ---------- ------- ---------- ------- -- -------- ----<br>---- --- ------ ----- ------ -- ---- --- ----- -- - -------<br>-------- -- --- --- -- ----- ----------- ----- -----------<br>---- --- ---------- --- ---- --- -- ----------,203463,203460,203028.66,203028,203028.96,203463.34,,4,know
screen,html.Screen,2_3_1_0_1_5,2022-02-02T17:56:35.364Z,,,,,,,,,,,,,,,,,51,,,,,,,,,,,,,,390.6600000000035,,response,,,,13,E,,,,,,Space,keypress(Space),,,,lyrical,,,,"-------- -------- --- --- ---- it, --- ------ -- --------<br>---- --------- --- ------- ------------ ---------- ---------<br>--- ---------- ------- ---------- ------- -- -------- ----<br>---- --- ------ ----- ------ -- ---- --- ----- -- - -------<br>-------- -- --- --- -- ----- ----------- ----- -----------<br>---- --- ---------- --- ---- --- -- ----------",203857,203854,203463.04,203463,203463.34,203858.32,,5,"it,"
screen,html.Screen,2_3_1_0_1_6,2022-02-02T17:56:35.892Z,,,,,,,,,,,,,,,,,51,,,,,,,,,,,,,,523.679999999993,,response,,,,13,E,,,,,,Space,keypress(Space),,,,lyrical,,,,-------- -------- --- --- ---- --- but ------ -- --------<br>---- --------- --- ------- ------------ ---------- ---------<br>--- ---------- ------- ---------- ------- -- -------- ----<br>---- --- ------ ----- ------ -- ---- --- ----- -- - -------<br>-------- -- --- --- -- ----- ----------- ----- -----------<br>---- --- ---------- --- ---- --- -- ----------,204385,204382,203858.02,203858,203858.32,204386.02,,6,but
screen,html.Screen,2_3_1_0_1_7,2022-02-02T17:56:36.490Z,,,,,,,,,,,,,,,,,51,,,,,,,,,,,,,,593.9800000000105,,response,,,,13,E,,,,,,Space,keypress(Space),,,,lyrical,,,,-------- -------- --- --- ---- --- --- debate -- --------<br>---- --------- --- ------- ------------ ---------- ---------<br>--- ---------- ------- ---------- ------- -- -------- ----<br>---- --- ------ ----- ------ -- ---- --- ----- -- - -------<br>-------- -- --- --- -- ----- ----------- ----- -----------<br>---- --- ---------- --- ---- --- -- ----------,204983,204980,204385.72,204386,204386.02,204984.12,,7,debate
screen,html.Screen,2_3_1_0_1_8,2022-02-02T17:56:36.832Z,,,,,,,,,,,,,,,,,51,,,,,,,,,,,,,,336.88000000000466,,response,,,,13,E,,,,,,Space,keypress(Space),,,,lyrical,,,,-------- -------- --- --- ---- --- --- ------ in --------<br>---- --------- --- ------- ------------ ---------- ---------<br>--- ---------- ------- ---------- ------- -- -------- ----<br>---- --- ------ ----- ------ -- ---- --- ----- -- - -------<br>-------- -- --- --- -- ----- ----------- ----- -----------<br>---- --- ---------- --- ---- --- -- ----------,205325,205321,204983.78,204983,204984.12,205325.44,,8,in
screen,html.Screen,2_3_1_0_1_9,2022-02-02T17:56:37.460Z,,,,,,,,,,,,,,,,,51,,,,,,,,,,,,,,626.5599999999977,,response,,,,13,E,,,,,,Space,keypress(Space),,,,lyrical,,,,-------- -------- --- --- ---- --- --- ------ -- Congress<br>---- --------- --- ------- ------------ ---------- ---------<br>--- ---------- ------- ---------- ------- -- -------- ----<br>---- --- ------ ----- ------ -- ---- --- ----- -- - -------<br>-------- -- --- --- -- ----- ----------- ----- -----------<br>---- --- ---------- --- ---- --- -- ----------,205955,205952,205325.16,205325,205325.44,205955.32,,9,Congress
screen,html.Screen,2_3_1_0_1_10,2022-02-02T17:56:38.135Z,,,,,,,,,,,,,,,,,51,,,,,,,,,,,,,,670.679999999993,,response,,,,13,E,,,,,,Space,keypress(Space),,,,lyrical,,,,-------- -------- --- --- ---- --- --- ------ -- --------<br>over --------- --- ------- ------------ ---------- ---------<br>--- ---------- ------- ---------- ------- -- -------- ----<br>---- --- ------ ----- ------ -- ---- --- ----- -- - -------<br>-------- -- --- --- -- ----- ----------- ----- -----------<br>---- --- ---------- --- ---- --- -- ----------,206630,206626,205955,205955,205955.32,206630.26,,10,over
screen,html.Screen,2_3_1_0_1_11,2022-02-02T17:56:38.553Z,,,,,,,,,,,,,,,,,51,,,,,,,,,,,,,,412.7399999999907,,response,,,,13,E,,,,,,Space,keypress(Space),,,,lyrical,,,,-------- -------- --- --- ---- --- --- ------ -- --------<br>---- reforming --- ------- ------------ ---------- ---------<br>--- ---------- ------- ---------- ------- -- -------- ----<br>---- --- ------ ----- ------ -- ---- --- ----- -- - -------<br>-------- -- --- --- -- ----- ----------- ----- -----------<br>---- --- ---------- --- ---- --- -- ----------,207046,207043,206629.92,206630,206630.26,207046.58,,11,reforming
screen,html.Screen,2_3_1_0_1_12,2022-02-02T17:56:38.930Z,,,,,,,,,,,,,,,,,51,,,,,,,,,,,,,,373.4200000000128,,response,,,,13,E,,,,,,Space,keypress(Space),,,,lyrical,,,,-------- -------- --- --- ---- --- --- ------ -- --------<br>---- --------- the ------- ------------ ---------- ---------<br>--- ---------- ------- ---------- ------- -- -------- ----<br>---- --- ------ ----- ------ -- ---- --- ----- -- - -------<br>-------- -- --- --- -- ----- ----------- ----- -----------<br>---- --- ---------- --- ---- --- -- ----------,207423,207420,207046.24,207046,207046.58,207424.18,,12,the
screen,html.Screen,2_3_1_0_1_13,2022-02-02T17:56:39.294Z,,,,,,,,,,,,,,,,,51,,,,,,,,,,,,,,351.820000000007,,response,,,,13,E,,,,,,Space,keypress(Space),,,,lyrical,,,,-------- -------- --- --- ---- --- --- ------ -- --------<br>---- --------- --- federal ------------ ---------- ---------<br>--- ---------- ------- ---------- ------- -- -------- ----<br>---- --- ------ ----- ------ -- ---- --- ----- -- - -------<br>-------- -- --- --- -- ----- ----------- ----- -----------<br>---- --- ---------- --- ---- --- -- ----------,207787,207776,207423.86,207424,207424.18,207788.08,,13,federal
screen,html.Screen,2_3_1_0_1_14,2022-02-02T17:56:39.817Z,,,,,,,,,,,,,,,,,51,,,,,,,,,,,,,,518.9200000000128,,response,,,,13,E,,,,,,Space,keypress(Space),,,,lyrical,,,,-------- -------- --- --- ---- --- --- ------ -- --------<br>---- --------- --- ------- government's ---------- ---------<br>--- ---------- ------- ---------- ------- -- -------- ----<br>---- --- ------ ----- ------ -- ---- --- ----- -- - -------<br>-------- -- --- --- -- ----- ----------- ----- -----------<br>---- --- ---------- --- ---- --- -- ----------,208311,208307,207787.96,207788,207788.08,208311.64,,14,government's
screen,html.Screen,2_3_1_0_1_15,2022-02-02T17:56:40.230Z,,,,,,,,,,,,,,,,,51,,,,,,,,,,,,,,409.35999999998603,,response,,,,13,E,,,,,,Space,keypress(Space),,,,lyrical,,,,-------- -------- --- --- ---- --- --- ------ -- --------<br>---- --------- --- ------- ------------ regulatory ---------<br>--- ---------- ------- ---------- ------- -- -------- ----<br>---- --- ------ ----- ------ -- ---- --- ----- -- - -------<br>-------- -- --- --- -- ----- ----------- ----- -----------<br>---- --- ---------- --- ---- --- -- ----------,208724,208721,208311.38,208311,208311.64,208724.68,,15,regulatory
screen,html.Screen,2_3_1_0_1_16,2022-02-02T17:56:40.844Z,,,,,,,,,,,,,,,,,51,,,,,,,,,,,,,,609.320000000007,,response,,,,13,E,,,,,,Space,keypress(Space),,,,lyrical,,,,-------- -------- --- --- ---- --- --- ------ -- --------<br>---- --------- --- ------- ------------ ---------- apparatus<br>--- ---------- ------- ---------- ------- -- -------- ----<br>---- --- ------ ----- ------ -- ---- --- ----- -- - -------<br>-------- -- --- --- -- ----- ----------- ----- -----------<br>---- --- ---------- --- ---- --- -- ----------,209337,209334,208724.4,208724,208724.68,209337.92,,16,apparatus
screen,html.Screen,2_3_1_0_1_17,2022-02-02T17:56:41.247Z,,,,,,,,,,,,,,,,,51,,,,,,,,,,,,,,400.0799999999872,,response,,,,13,E,,,,,,Space,keypress(Space),,,,lyrical,,,,-------- -------- --- --- ---- --- --- ------ -- --------<br>---- --------- --- ------- ------------ ---------- ---------<br>may ---------- ------- ---------- ------- -- -------- ----<br>---- --- ------ ----- ------ -- ---- --- ----- -- - -------<br>-------- -- --- --- -- ----- ----------- ----- -----------<br>---- --- ---------- --- ---- --- -- ----------,209741,209738,209337.68,209337,209337.92,209741.3,,17,may
screen,html.Screen,2_3_1_0_1_18,2022-02-02T17:56:41.817Z,,,,,,,,,,,,,,,,,51,,,,,,,,,,,,,,565.7000000000116,,response,,,,13,E,,,,,,Space,keypress(Space),,,,lyrical,,,,-------- -------- --- --- ---- --- --- ------ -- --------<br>---- --------- --- ------- ------------ ---------- ---------<br>--- profoundly ------- ---------- ------- -- -------- ----<br>---- --- ------ ----- ------ -- ---- --- ----- -- - -------<br>-------- -- --- --- -- ----- ----------- ----- -----------<br>---- --- ---------- --- ---- --- -- ----------,210310,210307,209741.08,209741,209741.3,210311.08,,18,profoundly
screen,html.Screen,2_3_1_0_1_19,2022-02-02T17:56:42.182Z,,,,,,,,,,,,,,,,,51,,,,,,,,,,,,,,360.9200000000128,,response,,,,13,E,,,,,,Space,keypress(Space),,,,lyrical,,,,-------- -------- --- --- ---- --- --- ------ -- --------<br>---- --------- --- ------- ------------ ---------- ---------<br>--- ---------- improve ---------- ------- -- -------- ----<br>---- --- ------ ----- ------ -- ---- --- ----- -- - -------<br>-------- -- --- --- -- ----- ----------- ----- -----------<br>---- --- ---------- --- ---- --- -- ----------,210675,210672,210310.78,210311,210311.08,210675.62,,19,improve
screen,html.Screen,2_3_1_0_1_20,2022-02-02T17:56:42.656Z,,,,,,,,,,,,,,,,,51,,,,,,,,,,,,,,470.38000000000466,,response,,,,13,E,,,,,,Space,keypress(Space),,,,lyrical,,,,-------- -------- --- --- ---- --- --- ------ -- --------<br>---- --------- --- ------- ------------ ---------- ---------<br>--- ---------- ------- companies' ------- -- -------- ----<br>---- --- ------ ----- ------ -- ---- --- ----- -- - -------<br>-------- -- --- --- -- ----- ----------- ----- -----------<br>---- --- ---------- --- ---- --- -- ----------,211150,211146,210675.36,210675,210675.62,211150.36,,20,companies'
screen,html.Screen,2_3_1_0_1_21,2022-02-02T17:56:43.251Z,,,,,,,,,,,,,,,,,51,,,,,,,,,,,,,,592.640000000014,,response,,,,13,E,,,,,,Space,keypress(Space),,,,lyrical,,,,-------- -------- --- --- ---- --- --- ------ -- --------<br>---- --------- --- ------- ------------ ---------- ---------<br>--- ---------- ------- ---------- ability -- -------- ----<br>---- --- ------ ----- ------ -- ---- --- ----- -- - -------<br>-------- -- --- --- -- ----- ----------- ----- -----------<br>---- --- ---------- --- ---- --- -- ----------,211744,211743,211150.02,211150,211150.36,211745.24,,21,ability
screen,html.Screen,2_3_1_0_1_22,2022-02-02T17:56:43.618Z,,,,,,,,,,,,,,,,,51,,,,,,,,,,,,,,363.7600000000093,,response,,,,13,E,,,,,,Space,keypress(Space),,,,lyrical,,,,-------- -------- --- --- ---- --- --- ------ -- --------<br>---- --------- --- ------- ------------ ---------- ---------<br>--- ---------- ------- ---------- ------- to -------- ----<br>---- --- ------ ----- ------ -- ---- --- ----- -- - -------<br>-------- -- --- --- -- ----- ----------- ----- -----------<br>---- --- ---------- --- ---- --- -- ----------,212112,212109,211744.96,211745,211745.24,212112.2,,22,to
screen,html.Screen,2_3_1_0_1_23,2022-02-02T17:56:44.030Z,,,,,,,,,,,,,,,,,51,,,,,,,,,,,,,,408.79999999998836,,response,,,,13,E,,,,,,Space,keypress(Space),,,,lyrical,,,,-------- -------- --- --- ---- --- --- ------ -- --------<br>---- --------- --- ------- ------------ ---------- ---------<br>--- ---------- ------- ---------- ------- -- survive. ----<br>---- --- ------ ----- ------ -- ---- --- ----- -- - -------<br>-------- -- --- --- -- ----- ----------- ----- -----------<br>---- --- ---------- --- ---- --- -- ----------,212525,212521,212111.96,212112,212112.2,212524.74,,23,survive.
screen,html.Screen,2_3_1_0_1_24,2022-02-02T17:56:44.588Z,,,,,,,,,,,,,,,,,51,,,,,,,,,,,,,,554.2600000000093,,response,,,,13,E,,,,,,Space,keypress(Space),,,,lyrical,,,,-------- -------- --- --- ---- --- --- ------ -- --------<br>---- --------- --- ------- ------------ ---------- ---------<br>--- ---------- ------- ---------- ------- -- -------- This<br>---- --- ------ ----- ------ -- ---- --- ----- -- - -------<br>-------- -- --- --- -- ----- ----------- ----- -----------<br>---- --- ---------- --- ---- --- -- ----------,213082,213079,212524.44,212525,212524.74,213082.48,,24,This
screen,html.Screen,2_3_1_0_1_25,2022-02-02T17:56:45.188Z,,,,,,,,,,,,,,,,,51,,,,,,,,,,,,,,595.5199999999895,,response,,,,13,E,,,,,,Space,keypress(Space),,,,lyrical,,,,-------- -------- --- --- ---- --- --- ------ -- --------<br>---- --------- --- ------- ------------ ---------- ---------<br>--- ---------- ------- ---------- ------- -- -------- ----<br>week --- ------ ----- ------ -- ---- --- ----- -- - -------<br>-------- -- --- --- -- ----- ----------- ----- -----------<br>---- --- ---------- --- ---- --- -- ----------,213680,213678,213082.2,213082,213082.48,213681.64,,25,week
screen,html.Screen,2_3_1_0_1_26,2022-02-02T17:56:45.643Z,,,,,,,,,,,,,,,,,51,,,,,,,,,,,,,,451.35999999998603,,response,,,,13,E,,,,,,Space,keypress(Space),,,,lyrical,,,,-------- -------- --- --- ---- --- --- ------ -- --------<br>---- --------- --- ------- ------------ ---------- ---------<br>--- ---------- ------- ---------- ------- -- -------- ----<br>---- the ------ ----- ------ -- ---- --- ----- -- - -------<br>-------- -- --- --- -- ----- ----------- ----- -----------<br>---- --- ---------- --- ---- --- -- ----------,214137,214133,213681.34,213681,213681.64,214137.28,,26,the
screen,html.Screen,2_3_1_0_1_27,2022-02-02T17:56:46.303Z,,,,,,,,,,,,,,,,,51,,,,,,,,,,,,,,655.7200000000012,,response,,,,13,E,,,,,,Space,keypress(Space),,,,lyrical,,,,-------- -------- --- --- ---- --- --- ------ -- --------<br>---- --------- --- ------- ------------ ---------- ---------<br>--- ---------- ------- ---------- ------- -- -------- ----<br>---- --- Senate ----- ------ -- ---- --- ----- -- - -------<br>-------- -- --- --- -- ----- ----------- ----- -----------<br>---- --- ---------- --- ---- --- -- ----------,214796,214793,214136.92,214137,214137.28,214796.98,,27,Senate
screen,html.Screen,2_3_1_0_1_28,2022-02-02T17:56:48.401Z,,,,,,,,,,,,,,,,,51,,,,,,,,,,,,,,2074.0199999999895,,response,,,,13,E,,,,,,Space,keypress(Space),,,,lyrical,,,,-------- -------- --- --- ---- --- --- ------ -- --------<br>---- --------- --- ------- ------------ ---------- ---------<br>--- ---------- ------- ---------- ------- -- -------- ----<br>---- --- ------ seems ------ -- ---- --- ----- -- - -------<br>-------- -- --- --- -- ----- ----------- ----- -----------<br>---- --- ---------- --- ---- --- -- ----------,216895,216871,214796.58,214797,214796.98,216894.9,,28,seems
screen,html.Screen,2_3_1_0_1_29,2022-02-02T17:56:49.041Z,,,,,,,,,,,,,,,,,51,,,,,,,,,,,,,,636.1000000000058,,response,,,,13,E,,,,,,Space,keypress(Space),,,,lyrical,,,,-------- -------- --- --- ---- --- --- ------ -- --------<br>---- --------- --- ------- ------------ ---------- ---------<br>--- ---------- ------- ---------- ------- -- -------- ----<br>---- --- ------ ----- poised -- ---- --- ----- -- - -------<br>-------- -- --- --- -- ----- ----------- ----- -----------<br>---- --- ---------- --- ---- --- -- ----------,217535,217531,216894.64,216895,216894.9,217535.16,,29,poised
screen,html.Screen,2_3_1_0_1_30,2022-02-02T17:56:49.435Z,,,,,,,,,,,,,,,,,51,,,,,,,,,,,,,,391.8399999999965,,response,,,,13,E,,,,,,Space,keypress(Space),,,,lyrical,,,,-------- -------- --- --- ---- --- --- ------ -- --------<br>---- --------- --- ------- ------------ ---------- ---------<br>--- ---------- ------- ---------- ------- -- -------- ----<br>---- --- ------ ----- ------ to ---- --- ----- -- - -------<br>-------- -- --- --- -- ----- ----------- ----- -----------<br>---- --- ---------- --- ---- --- -- ----------,217930,217927,217534.82,217535,217535.16,217930.2,,30,to
screen,html.Screen,2_3_1_0_1_31,2022-02-02T17:56:49.825Z,,,,,,,,,,,,,,,,,51,,,,,,,,,,,,,,385.79999999998836,,response,,,,13,E,,,,,,Space,keypress(Space),,,,lyrical,,,,-------- -------- --- --- ---- --- --- ------ -- --------<br>---- --------- --- ------- ------------ ---------- ---------<br>--- ---------- ------- ---------- ------- -- -------- ----<br>---- --- ------ ----- ------ -- join --- ----- -- - -------<br>-------- -- --- --- -- ----- ----------- ----- -----------<br>---- --- ---------- --- ---- --- -- ----------,218320,218316,217929.86,217930,217930.2,218319.88,,31,join
screen,html.Screen,2_3_1_0_1_32,2022-02-02T17:56:50.162Z,,,,,,,,,,,,,,,,,51,,,,,,,,,,,,,,332.11999999999534,,response,,,,13,E,,,,,,Space,keypress(Space),,,,lyrical,,,,-------- -------- --- --- ---- --- --- ------ -- --------<br>---- --------- --- ------- ------------ ---------- ---------<br>--- ---------- ------- ---------- ------- -- -------- ----<br>---- --- ------ ----- ------ -- ---- the ----- -- - -------<br>-------- -- --- --- -- ----- ----------- ----- -----------<br>---- --- ---------- --- ---- --- -- ----------,218655,218652,218319.62,218320,218319.88,218655.92,,32,the
screen,html.Screen,2_3_1_0_1_33,2022-02-02T17:56:50.482Z,,,,,,,,,,,,,,,,,51,,,,,,,,,,,,,,317.0799999999872,,response,,,,13,E,,,,,,Space,keypress(Space),,,,lyrical,,,,-------- -------- --- --- ---- --- --- ------ -- --------<br>---- --------- --- ------- ------------ ---------- ---------<br>--- ---------- ------- ---------- ------- -- -------- ----<br>---- --- ------ ----- ------ -- ---- --- House -- - -------<br>-------- -- --- --- -- ----- ----------- ----- -----------<br>---- --- ---------- --- ---- --- -- ----------,218976,218973,218655.7,218656,218655.92,218976.2,,33,House
screen,html.Screen,2_3_1_0_1_34,2022-02-02T17:56:50.959Z,,,,,,,,,,,,,,,,,51,,,,,,,,,,,,,,472.79999999998836,,response,,,,13,E,,,,,,Space,keypress(Space),,,,lyrical,,,,-------- -------- --- --- ---- --- --- ------ -- --------<br>---- --------- --- ------- ------------ ---------- ---------<br>--- ---------- ------- ---------- ------- -- -------- ----<br>---- --- ------ ----- ------ -- ---- --- ----- in - -------<br>-------- -- --- --- -- ----- ----------- ----- -----------<br>---- --- ---------- --- ---- --- -- ----------,219453,219449,218975.9,218976,218976.2,219453.06,,34,in
screen,html.Screen,2_3_1_0_1_35,2022-02-02T17:56:51.658Z,,,,,,,,,,,,,,,,,51,,,,,,,,,,,,,,694.9400000000023,,response,,,,13,E,,,,,,Space,keypress(Space),,,,lyrical,,,,-------- -------- --- --- ---- --- --- ------ -- --------<br>---- --------- --- ------- ------------ ---------- ---------<br>--- ---------- ------- ---------- ------- -- -------- ----<br>---- --- ------ ----- ------ -- ---- --- ----- -- a -------<br>-------- -- --- --- -- ----- ----------- ----- -----------<br>---- --- ---------- --- ---- --- -- ----------,220151,220148,219452.76,219453,219453.06,220152.04,,35,a
screen,html.Screen,2_3_1_0_1_36,2022-02-02T17:56:52.296Z,,,,,,,,,,,,,,,,,51,,,,,,,,,,,,,,633.9599999999919,,response,,,,13,E,,,,,,Space,keypress(Space),,,,lyrical,,,,-------- -------- --- --- ---- --- --- ------ -- --------<br>---- --------- --- ------- ------------ ---------- ---------<br>--- ---------- ------- ---------- ------- -- -------- ----<br>---- --- ------ ----- ------ -- ---- --- ----- -- - massive<br>-------- -- --- --- -- ----- ----------- ----- -----------<br>---- --- ---------- --- ---- --- -- ----------,220789,220786,220151.72,220152,220152.04,220790.24,,36,massive
screen,html.Screen,2_3_1_0_1_37,2022-02-02T17:56:53.076Z,,,,,,,,,,,,,,,,,51,,,,,,,,,,,,,,776.7600000000093,,response,,,,13,E,,,,,,Space,keypress(Space),,,,lyrical,,,,-------- -------- --- --- ---- --- --- ------ -- --------<br>---- --------- --- ------- ------------ ---------- ---------<br>--- ---------- ------- ---------- ------- -- -------- ----<br>---- --- ------ ----- ------ -- ---- --- ----- -- - -------<br>overhaul -- --- --- -- ----- ----------- ----- -----------<br>---- --- ---------- --- ---- --- -- ----------,221570,221567,220789.96,220790,220790.24,221571.06,,37,overhaul
screen,html.Screen,2_3_1_0_1_38,2022-02-02T17:56:53.412Z,,,,,,,,,,,,,,,,,51,,,,,,,,,,,,,,332.9400000000023,,response,,,,13,E,,,,,,Space,keypress(Space),,,,lyrical,,,,-------- -------- --- --- ---- --- --- ------ -- --------<br>---- --------- --- ------- ------------ ---------- ---------<br>--- ---------- ------- ---------- ------- -- -------- ----<br>---- --- ------ ----- ------ -- ---- --- ----- -- - -------<br>-------- of --- --- -- ----- ----------- ----- -----------<br>---- --- ---------- --- ---- --- -- ----------,221906,221904,221570.72,221570,221571.06,221906.8,,38,of
screen,html.Screen,2_3_1_0_1_39,2022-02-02T17:56:53.803Z,,,,,,,,,,,,,,,,,51,,,,,,,,,,,,,,386.20000000001164,,response,,,,13,E,,,,,,Space,keypress(Space),,,,lyrical,,,,-------- -------- --- --- ---- --- --- ------ -- --------<br>---- --------- --- ------- ------------ ---------- ---------<br>--- ---------- ------- ---------- ------- -- -------- ----<br>---- --- ------ ----- ------ -- ---- --- ----- -- - -------<br>-------- -- the --- -- ----- ----------- ----- -----------<br>---- --- ---------- --- ---- --- -- ----------,222297,222293,221906.52,221906,221906.8,222298.44,,39,the
screen,html.Screen,2_3_1_0_1_40,2022-02-02T17:56:54.194Z,,,,,,,,,,,,,,,,,51,,,,,,,,,,,,,,385.5599999999977,,response,,,,13,E,,,,,,Space,keypress(Space),,,,lyrical,,,,-------- -------- --- --- ---- --- --- ------ -- --------<br>---- --------- --- ------- ------------ ---------- ---------<br>--- ---------- ------- ---------- ------- -- -------- ----<br>---- --- ------ ----- ------ -- ---- --- ----- -- - -------<br>-------- -- --- way -- ----- ----------- ----- -----------<br>---- --- ---------- --- ---- --- -- ----------,222687,222684,222297.56,222297,222298.44,222687.9,,40,way
screen,html.Screen,2_3_1_0_1_41,2022-02-02T17:56:54.559Z,,,,,,,,,,,,,,,,,51,,,,,,,,,,,,,,360.1000000000058,,response,,,,13,E,,,,,,Space,keypress(Space),,,,lyrical,,,,-------- -------- --- --- ---- --- --- ------ -- --------<br>---- --------- --- ------- ------------ ---------- ---------<br>--- ---------- ------- ---------- ------- -- -------- ----<br>---- --- ------ ----- ------ -- ---- --- ----- -- - -------<br>-------- -- --- --- in ----- ----------- ----- -----------<br>---- --- ---------- --- ---- --- -- ----------,223052,223048,222687.66,222687,222687.9,223052.74,,41,in
screen,html.Screen,2_3_1_0_1_42,2022-02-02T17:56:54.855Z,,,,,,,,,,,,,,,,,51,,,,,,,,,,,,,,292.2600000000093,,response,,,,13,E,,,,,,Space,keypress(Space),,,,lyrical,,,,-------- -------- --- --- ---- --- --- ------ -- --------<br>---- --------- --- ------- ------------ ---------- ---------<br>--- ---------- ------- ---------- ------- -- -------- ----<br>---- --- ------ ----- ------ -- ---- --- ----- -- - -------<br>-------- -- --- --- -- which ----------- ----- -----------<br>---- --- ---------- --- ---- --- -- ----------,223348,223345,223052.44,223052,223052.74,223349.44,,42,which
screen,html.Screen,2_3_1_0_1_43,2022-02-02T17:56:55.455Z,,,,,,,,,,,,,,,,,51,,,,,,,,,,,,,,595.5599999999977,,response,,,,13,E,,,,,,Space,keypress(Space),,,,lyrical,,,,-------- -------- --- --- ---- --- --- ------ -- --------<br>---- --------- --- ------- ------------ ---------- ---------<br>--- ---------- ------- ---------- ------- -- -------- ----<br>---- --- ------ ----- ------ -- ---- --- ----- -- - -------<br>-------- -- --- --- -- ----- bureaucrats ----- -----------<br>---- --- ---------- --- ---- --- -- ----------,223948,223945,223349.18,223349,223349.44,223949.04,,43,bureaucrats
screen,html.Screen,2_3_1_0_1_44,2022-02-02T17:56:55.898Z,,,,,,,,,,,,,,,,,51,,,,,,,,,,,,,,438.95999999999185,,response,,,,13,E,,,,,,Space,keypress(Space),,,,lyrical,,,,-------- -------- --- --- ---- --- --- ------ -- --------<br>---- --------- --- ------- ------------ ---------- ---------<br>--- ---------- ------- ---------- ------- -- -------- ----<br>---- --- ------ ----- ------ -- ---- --- ----- -- - -------<br>-------- -- --- --- -- ----- ----------- enact -----------<br>---- --- ---------- --- ---- --- -- ----------,224391,224388,223948.72,223948,223949.04,224392.12,,44,enact
screen,html.Screen,2_3_1_0_1_45,2022-02-02T17:56:56.680Z,,,,,,,,,,,,,,,,,51,,,,,,,,,,,,,,777.8800000000047,,response,,,,13,E,,,,,,Space,keypress(Space),,,,lyrical,,,,-------- -------- --- --- ---- --- --- ------ -- --------<br>---- --------- --- ------- ------------ ---------- ---------<br>--- ---------- ------- ---------- ------- -- -------- ----<br>---- --- ------ ----- ------ -- ---- --- ----- -- - -------<br>-------- -- --- --- -- ----- ----------- ----- regulations<br>---- --- ---------- --- ---- --- -- ----------,225173,225170,224391.82,224392,224392.12,225173.82,,45,regulations
screen,html.Screen,2_3_1_0_1_46,2022-02-02T17:56:57.665Z,,,,,,,,,,,,,,,,,51,,,,,,,,,,,,,,981.179999999993,,response,,,,13,E,,,,,,Space,keypress(Space),,,,lyrical,,,,-------- -------- --- --- ---- --- --- ------ -- --------<br>---- --------- --- ------- ------------ ---------- ---------<br>--- ---------- ------- ---------- ------- -- -------- ----<br>---- --- ------ ----- ------ -- ---- --- ----- -- - -------<br>-------- -- --- --- -- ----- ----------- ----- -----------<br>that --- ---------- --- ---- --- -- ----------,226158,226155,225173.46,225173,225173.82,226158.66,,46,that
screen,html.Screen,2_3_1_0_1_47,2022-02-02T17:56:58.035Z,,,,,,,,,,,,,,,,,51,,,,,,,,,,,,,,366.3399999999965,,response,,,,13,E,,,,,,Space,keypress(Space),,,,lyrical,,,,-------- -------- --- --- ---- --- --- ------ -- --------<br>---- --------- --- ------- ------------ ---------- ---------<br>--- ---------- ------- ---------- ------- -- -------- ----<br>---- --- ------ ----- ------ -- ---- --- ----- -- - -------<br>-------- -- --- --- -- ----- ----------- ----- -----------<br>---- are ---------- --- ---- --- -- ----------,226529,226525,226158.44,226158,226158.66,226529.12,,47,are
screen,html.Screen,2_3_1_0_1_48,2022-02-02T17:56:58.793Z,,,,,,,,,,,,,,,,,51,,,,,,,,,,,,,,754.8800000000047,,response,,,,13,E,,,,,,Space,keypress(Space),,,,lyrical,,,,-------- -------- --- --- ---- --- --- ------ -- --------<br>---- --------- --- ------- ------------ ---------- ---------<br>--- ---------- ------- ---------- ------- -- -------- ----<br>---- --- ------ ----- ------ -- ---- --- ----- -- - -------<br>-------- -- --- --- -- ----- ----------- ----- -----------<br>---- --- strangling --- ---- --- -- ----------,227286,227284,226528.76,226529,226529.12,227287.26,,48,strangling
screen,html.Screen,2_3_1_0_1_49,2022-02-02T17:56:59.173Z,,,,,,,,,,,,,,,,,51,,,,,,,,,,,,,,375.7399999999907,,response,,,,13,E,,,,,,Space,keypress(Space),,,,lyrical,,,,-------- -------- --- --- ---- --- --- ------ -- --------<br>---- --------- --- ------- ------------ ---------- ---------<br>--- ---------- ------- ---------- ------- -- -------- ----<br>---- --- ------ ----- ------ -- ---- --- ----- -- - -------<br>-------- -- --- --- -- ----- ----------- ----- -----------<br>---- --- ---------- the ---- --- -- ----------,227665,227663,227286.9,227286,227287.26,227666.24,,49,the
screen,html.Screen,2_3_1_0_1_50,2022-02-02T17:56:59.494Z,,,,,,,,,,,,,,,,,51,,,,,,,,,,,,,,317.7600000000093,,response,,,,13,E,,,,,,Space,keypress(Space),,,,lyrical,,,,-------- -------- --- --- ---- --- --- ------ -- --------<br>---- --------- --- ------- ------------ ---------- ---------<br>--- ---------- ------- ---------- ------- -- -------- ----<br>---- --- ------ ----- ------ -- ---- --- ----- -- - -------<br>-------- -- --- --- -- ----- ----------- ----- -----------<br>---- --- ---------- --- life --- -- ----------,227987,227984,227666.06,227666,227666.24,227988.34,,50,life
