sender,sender_type,sender_id,timestamp,meta,,Blues,Classical,Country,Dance,Electronic,Folk,Gospel,Hip-Hop,Jazz,Latin,Musical/Film,New-age,Pop,Prolific_id,Provo_ID,R&B,Rap,Reggae,Religious,Rock,Soul,Swing,Traditional,age,artist_name,correct,correctResponse,distraction,duration,education,ended_on,familiarity,gender,headphone_check_performance,item,list,music_frequency,offensiveness,pleasantness,position_correct,preference,response,response_action,snippet_file,song_name,song_rating,sound,stimulus_1,stimulus_2,stimulus_3,text,time_commit,time_end,time_render,time_run,time_show,time_switch,url,word,word_ID
Prolific ID,html.Form,0,2022-02-17T10:47:44.234Z,"{""labjs_version"":""20.2.2"",""labjs_build"":{""flavor"":""production"",""commit"":""a25486e0c714a0ae2ce03ff94b7bb6896854dcfa""},""location"":""https://run.pavlovia.org/mvasilev/prolific2_music_c/"",""userAgent"":""Mozilla/5.0 (Macintosh; Intel Mac OS X 10_15_7) AppleWebKit/537.36 (KHTML, like Gecko) Chrome/98.0.4758.102 Safari/537.36"",""platform"":""MacIntel"",""language"":""en-GB"",""locale"":""en-GB"",""timeZone"":""Europe/London"",""timezoneOffset"":0,""screen_width"":2240,""screen_height"":1260,""scroll_width"":1200,""scroll_height"":947,""window_innerWidth"":1200,""window_innerHeight"":995,""devicePixelRatio"":2}",,,,,,,,,,,,,,,600713a1ef06551629886703,,,,,,,,,,,,,,,7247.41300000596,,form submission,,,,,,,,,,,,,,,,,,,,,11054.799999982119,11054.40000000596,3790.321,3801,3806.987,11056.697,{},,
Introduction,html.Screen,1_0,2022-02-17T10:47:51.379Z,,,,,,,,,,,,,,,,,,,,,,,,,,,,,,,7139.1029999821185,,response,,,,,,,,,,,continue,click button,,,,,,,,,18200.19999998808,18195.79999998212,11040.031,11055.199999988079,11056.697,18206.411,,,
Volume calibration,html.Screen,1_1,2022-02-17T10:48:12.134Z,,,,,,,,,,,,,,,,,,,,,,,,,,,,,,,20745.18899999404,,response,,,,,,,,,,,continue,click button,,,,,,,,,38955.59999999404,38951.59999999404,18189.745,18200.5,18206.411,38955.581,,,
Task instructions,html.Screen,1_2,2022-02-17T10:48:17.316Z,,,,,,,,,,,,,,,,,,,,,,,,,,,,,,,5180.118999988081,,response,,,,,,,,,,,continue,click button,,,,,,,,,44137.90000000596,44135.69999998808,38938.915,38955.90000000596,38955.581,44138.707,,,
Sounds,html.Screen,1_3_0_0,2022-02-17T10:48:21.555Z,,,,,,,,,,,,,,,,,,,,,,,,,,,,,,,4249.8299999999945,,timeout,,,,,,,,,3,,,,,,,,O,I,S,,48376.29999998212,48371.871,44122.041,44138.09999999404,44138.707,48388.537,,,
Judgement,html.Screen,1_3_0_1,2022-02-17T10:48:23.821Z,,,,,,,,,,,,,,,,,,,,,,,,,,,,true,3,,2251.9630000000034,,response,,,,,,,,,3,,3,click #choice-3,,,,,O,I,S,,50642.69999998808,50640.5,48371.871,48376.5,48388.537,50655.113,,,
Trial,flow.Sequence,1_3_0,2022-02-17T10:48:23.822Z,,,,,,,,,,,,,,,,,,,,,,,,,,,,,,,6501.792999999998,,completion,,,,,,,,,3,,,,,,,,O,I,S,,50643.09999999404,50640.5,44122.041,44138.09999999404,44138.707,50655.113,,,
Sounds,html.Screen,1_3_1_0,2022-02-17T10:48:28.069Z,,,,,,,,,,,,,,,,,,,,,,,,,,,,,,,4249.830000000002,,timeout,,,,,,,,,2,,,,,,,,O,S,I,,54890.59999999404,54888.277,50638.447,50643.5,50655.113,54904.943,,,
Judgement,html.Screen,1_3_1_1,2022-02-17T10:48:28.702Z,,,,,,,,,,,,,,,,,,,,,,,,,,,,true,2,,615.7569999880798,,response,,,,,,,,,2,,2,click #choice-2,,,,,O,S,I,,55523.40000000596,55520.69999998808,54888.277,54890.79999998212,54904.943,55538.251,,,
Trial,flow.Sequence,1_3_1,2022-02-17T10:48:28.702Z,,,,,,,,,,,,,,,,,,,,,,,,,,,,,,,4865.5869999880815,,completion,,,,,,,,,2,,,,,,,,O,S,I,,55523.90000000596,55520.69999998808,50638.447,50643.09999999404,50655.113,55538.251,,,
Sounds,html.Screen,1_3_2_0,2022-02-17T10:48:32.952Z,,,,,,,,,,,,,,,,,,,,,,,,,,,,,,,4249.830000000002,,timeout,,,,,,,,,1,,,,,,,,S,I,O,,59773.90000000596,59771.415,55521.585,55524,55538.251,59788.081,,,
Judgement,html.Screen,1_3_2_1,2022-02-17T10:48:33.644Z,,,,,,,,,,,,,,,,,,,,,,,,,,,,true,1,,674.3190000059622,,response,,,,,,,,,1,,1,click #choice-1,,,,,S,I,O,,60464.90000000596,60462.40000000596,59771.415,59774,59788.081,60471.387,,,
Trial,flow.Sequence,1_3_2,2022-02-17T10:48:33.644Z,,,,,,,,,,,,,,,,,,,,,,,,,,,,,,,4924.149000005964,,completion,,,,,,,,,1,,,,,,,,S,I,O,,60465.40000000596,60462.40000000596,55521.585,55524,55538.251,60471.387,,,
Sounds,html.Screen,1_3_3_0,2022-02-17T10:48:37.885Z,,,,,,,,,,,,,,,,,,,,,,,,,,,,,,,4249.8299999999945,,timeout,,,,,,,,,3,,,,,,,,I,O,S,,64706.19999998808,64704.551,60454.721,60465.69999998808,60471.387,64721.217,,,
Judgement,html.Screen,1_3_3_1,2022-02-17T10:48:38.558Z,,,,,,,,,,,,,,,,,,,,,,,,,,,,true,3,,654.4829999880822,,response,,,,,,,,,3,,3,click #choice-3,,,,,I,O,S,,65379.40000000596,65375.69999998808,64704.551,64706.40000000596,64721.217,65387.857,,,
Trial,flow.Sequence,1_3_3,2022-02-17T10:48:38.558Z,,,,,,,,,,,,,,,,,,,,,,,,,,,,,,,4904.312999988077,,completion,,,,,,,,,3,,,,,,,,I,O,S,,65379.59999999404,65375.69999998808,60454.721,60465.59999999404,60471.387,65387.857,,,
Sounds,html.Screen,1_3_4_0,2022-02-17T10:48:42.803Z,,,,,,,,,,,,,,,,,,,,,,,,,,,,,,,4249.830000000002,,timeout,,,,,,,,,1,,,,,,,,S,O,I,,69624,69621.021,65371.191,65379.79999998212,65387.857,69637.687,,,
Judgement,html.Screen,1_3_4_1,2022-02-17T10:48:43.777Z,,,,,,,,,,,,,,,,,,,,,,,,,,,,true,1,,958.0129999880737,,response,,,,,,,,,1,,1,click #choice-1,,,,,S,O,I,,70598.19999998808,70595.69999998808,69621.021,69624.09999999404,69637.687,70604.315,,,
Trial,flow.Sequence,1_3_4,2022-02-17T10:48:43.777Z,,,,,,,,,,,,,,,,,,,,,,,,,,,,,,,5207.8429999880755,,completion,,,,,,,,,1,,,,,,,,S,O,I,,70598.5,70595.69999998808,65371.191,65379.59999999404,65387.857,70604.315,,,
Sounds,html.Screen,1_3_5_0,2022-02-17T10:48:48.018Z,,,,,,,,,,,,,,,,,,,,,,,,,,,,,,,4249.830000000002,,timeout,,,,,,,,,2,,,,,,,,I,S,O,,74839.29999998212,74837.479,70587.649,70598.59999999404,70604.315,74854.145,,,
Judgement,html.Screen,1_3_5_1,2022-02-17T10:48:48.639Z,,,,,,,,,,,,,,,,,,,,,,,,,,,,true,2,,603.4549999940355,,response,,,,,,,,,2,,2,click #choice-2,,,,,I,S,O,,75460.5,75457.59999999404,74837.479,74839.40000000596,74854.145,75470.787,,,
Trial,flow.Sequence,1_3_5,2022-02-17T10:48:48.639Z,,,,,,,,,,,,,,,,,,,,,,,,,,,,,,,4853.284999994037,,completion,,,,,,,,,2,,,,,,,,I,S,O,,75460.69999998808,75457.59999999404,70587.649,70598.5,70604.315,75470.787,,,
Task,flow.Loop,1_3,2022-02-17T10:48:48.645Z,,,,,,,,,,,,,,,,,,,,,,,,,,,,,,,31318.892999994037,,completion,,,1,,,,,,,,,,,,,,,,,,75466.59999999404,75457.59999999404,44122.041,44138,44138.707,75470.787,,,
Trap,html.Screen,1_4,2022-02-17T10:48:48.646Z,,,,,,,,,,,,,,,,,,,,,,,,,,,,,,,NaN,,skipped,,,,,,,,,,,,,,,,,,,,,75467.09999999404,75457.59999999404,,75467.09999999404,,75470.787,,,
Thanks,html.Screen,1_5,2022-02-17T10:48:54.284Z,,,,,,,,,,,,,,,,,,,,,,,,,,,,,,,5632.412999988082,,response,,,,,,,,,,,continue,click button,,,,,,,,,81105.09999999404,81103.19999998808,75454.121,75467.19999998808,75470.787,84170.439,,,
Headphone screening,flow.Sequence,1,2022-02-17T10:48:54.284Z,,,,,,,,,,,,,,,,,,,,,,,,,,,,,,,70046.50299998808,,completion,,,,,,,,,,,,,,,,,,,,,81105.29999998212,81103.19999998808,11040.031,11055.09999999404,11056.697,84170.439,,,
Instructions,html.Page,2_0,2022-02-17T10:49:33.753Z,,,,,,,,,,,,,,,,,,,,,,,,,,,,,,,36403.46100000596,,form submission,,,,,,,,,,,,,,,,,,,,,120574.40000000596,120573.90000000596,84153.773,84158.29999998212,84170.439,120587.908,,,
Holding screen,html.Screen,2_1_0_0,2022-02-17T10:49:43.752Z,,,,,,,,,,,,,,,,,,,,,,,,,,,,,,,9999.600000000006,,timeout,,,,,,,,,,,,,,,,,,,,,130573.09999999404,130570.842,120571.242,120574.59999999404,120587.908,130587.508,,,
screen,html.Screen,2_1_0_1_0,2022-02-17T10:49:45.410Z,,,,,,,,,,,,,,,,,53,,,,,,,,,,,,,,1637.291999982117,,response,,,,99,,,,,,,Space,keypress(Space),,,,,,,,When -- ----- -- ------ - ------- --- ----------<br>------------- ------ ------ ---- ---- ------- ----- -- ----<br>-------- ------- -- ---------- --- - --- ----- ----- ----<br>---- --- --- ----- --- ---- ---- ------- ----- ---- -------<br>--- --- -- ----- -- --- ---- -- --- ---- -- ------ ------<br>--- ----- -- ----,132232.09999999404,132224.79999998212,130570.842,130573.40000000596,130587.508,132237.442,,0,When
screen,html.Screen,2_1_0_1_1,2022-02-17T10:49:46.399Z,,,,,,,,,,,,,,,,,53,,,,,,,,,,,,,,979.2579999880691,,response,,,,99,,,,,,,Space,keypress(Space),,,,,,,,---- it ----- -- ------ - ------- --- ----------<br>------------- ------ ------ ---- ---- ------- ----- -- ----<br>-------- ------- -- ---------- --- - --- ----- ----- ----<br>---- --- --- ----- --- ---- ---- ------- ----- ---- -------<br>--- --- -- ----- -- --- ---- -- --- ---- -- ------ ------<br>--- ----- -- ----,133220.59999999404,133216.69999998808,132220.776,132232.29999998212,132237.442,133237.402,,1,it
screen,html.Screen,2_1_0_1_2,2022-02-17T10:49:47.264Z,,,,,,,,,,,,,,,,,53,,,,,,,,,,,,,,843.2979999880772,,response,,,,99,,,,,,,Space,keypress(Space),,,,,,,,---- -- comes -- ------ - ------- --- ----------<br>------------- ------ ------ ---- ---- ------- ----- -- ----<br>-------- ------- -- ---------- --- - --- ----- ----- ----<br>---- --- --- ----- --- ---- ---- ------- ----- ---- -------<br>--- --- -- ----- -- --- ---- -- --- ---- -- ------ ------<br>--- ----- -- ----,134085.19999998808,134080.69999998808,133220.736,133220.90000000596,133237.402,134087.368,,2,comes
screen,html.Screen,2_1_0_1_3,2022-02-17T10:49:48.130Z,,,,,,,,,,,,,,,,,53,,,,,,,,,,,,,,860.1320000000123,,response,,,,99,,,,,,,Space,keypress(Space),,,,,,,,---- -- ----- to ------ - ------- --- ----------<br>------------- ------ ------ ---- ---- ------- ----- -- ----<br>-------- ------- -- ---------- --- - --- ----- ----- ----<br>---- --- --- ----- --- ---- ---- ------- ----- ---- -------<br>--- --- -- ----- -- --- ---- -- --- ---- -- ------ ------<br>--- ----- -- ----,134951.59999999404,134947.5,134070.702,134085.40000000596,134087.368,134954,,3,to
screen,html.Screen,2_1_0_1_4,2022-02-17T10:49:48.883Z,,,,,,,,,,,,,,,,,53,,,,,,,,,,,,,,746.6999999880791,,response,,,,99,,,,,,,Space,keypress(Space),,,,,,,,---- -- ----- -- having - ------- --- ----------<br>------------- ------ ------ ---- ---- ------- ----- -- ----<br>-------- ------- -- ---------- --- - --- ----- ----- ----<br>---- --- --- ----- --- ---- ---- ------- ----- ---- -------<br>--- --- -- ----- -- --- ---- -- --- ---- -- ------ ------<br>--- ----- -- ----,135704.79999998212,135700.69999998808,134937.334,134951.79999998212,134954,135720.636,,4,having
screen,html.Screen,2_1_0_1_5,2022-02-17T10:49:49.471Z,,,,,,,,,,,,,,,,,53,,,,,,,,,,,,,,566.2640000059619,,response,,,,99,,,,,,,Space,keypress(Space),,,,,,,,---- -- ----- -- ------ a ------- --- ----------<br>------------- ------ ------ ---- ---- ------- ----- -- ----<br>-------- ------- -- ---------- --- - --- ----- ----- ----<br>---- --- --- ----- --- ---- ---- ------- ----- ---- -------<br>--- --- -- ----- -- --- ---- -- --- ---- -- ------ ------<br>--- ----- -- ----,136293,136286.90000000596,135703.97,135705,135720.636,136303.946,,5,a
screen,html.Screen,2_1_0_1_6,2022-02-17T10:49:50.235Z,,,,,,,,,,,,,,,,,53,,,,,,,,,,,,,,748.3539999821223,,response,,,,99,,,,,,,Space,keypress(Space),,,,,,,,---- -- ----- -- ------ - lasting --- ----------<br>------------- ------ ------ ---- ---- ------- ----- -- ----<br>-------- ------- -- ---------- --- - --- ----- ----- ----<br>---- --- --- ----- --- ---- ---- ------- ----- ---- -------<br>--- --- -- ----- -- --- ---- -- --- ---- -- ------ ------<br>--- ----- -- ----,137056.5,137052.29999998212,136287.28,136293.09999999404,136303.946,137070.582,,6,lasting
screen,html.Screen,2_1_0_1_7,2022-02-17T10:49:50.796Z,,,,,,,,,,,,,,,,,53,,,,,,,,,,,,,,542.5179999940447,,response,,,,99,,,,,,,Space,keypress(Space),,,,,,,,---- -- ----- -- ------ - ------- and ----------<br>------------- ------ ------ ---- ---- ------- ----- -- ----<br>-------- ------- -- ---------- --- - --- ----- ----- ----<br>---- --- --- ----- --- ---- ---- ------- ----- ---- -------<br>--- --- -- ----- -- --- ---- -- --- ---- -- ------ ------<br>--- ----- -- ----,137617.40000000596,137613.09999999404,137053.916,137056.59999999404,137070.582,137620.56,,7,and
screen,html.Screen,2_1_0_1_8,2022-02-17T10:49:51.484Z,,,,,,,,,,,,,,,,,53,,,,,,,,,,,,,,680.5399999940419,,response,,,,99,,,,,,,Space,keypress(Space),,,,,,,,---- -- ----- -- ------ - ------- --- fulfilling<br>------------- ------ ------ ---- ---- ------- ----- -- ----<br>-------- ------- -- ---------- --- - --- ----- ----- ----<br>---- --- --- ----- --- ---- ---- ------- ----- ---- -------<br>--- --- -- ----- -- --- ---- -- --- ---- -- ------ ------<br>--- ----- -- ----,138305.59999999404,138301.09999999404,137603.894,137617.5,137620.56,138320.532,,8,fulfilling
screen,html.Screen,2_1_0_1_9,2022-02-17T10:49:52.326Z,,,,,,,,,,,,,,,,,53,,,,,,,,,,,,,,823.067999994033,,response,,,,99,,,,,,,Space,keypress(Space),,,,,,,,"---- -- ----- -- ------ - ------- --- ----------<br>relationship, ------ ------ ---- ---- ------- ----- -- ----<br>-------- ------- -- ---------- --- - --- ----- ----- ----<br>---- --- --- ----- --- ---- ---- ------- ----- ---- -------<br>--- --- -- ----- -- --- ---- -- --- ---- -- ------ ------<br>--- ----- -- ----",139147.69999998808,139143.59999999404,138303.866,138305.79999998212,138320.532,139153.832,,9,"relationship,"
screen,html.Screen,2_1_0_1_10,2022-02-17T10:49:52.957Z,,,,,,,,,,,,,,,,,53,,,,,,,,,,,,,,620.8679999880842,,response,,,,99,,,,,,,Space,keypress(Space),,,,,,,,---- -- ----- -- ------ - ------- --- ----------<br>------------- common ------ ---- ---- ------- ----- -- ----<br>-------- ------- -- ---------- --- - --- ----- ----- ----<br>---- --- --- ----- --- ---- ---- ------- ----- ---- -------<br>--- --- -- ----- -- --- ---- -- --- ---- -- ------ ------<br>--- ----- -- ----,139779,139774.69999998808,139137.166,139148,139153.832,139787.14,,10,common
screen,html.Screen,2_1_0_1_11,2022-02-17T10:49:53.733Z,,,,,,,,,,,,,,,,,53,,,,,,,,,,,,,,763.4599999940256,,response,,,,99,,,,,,,Space,keypress(Space),,,,,,,,---- -- ----- -- ------ - ------- --- ----------<br>------------- ------ wisdom ---- ---- ------- ----- -- ----<br>-------- ------- -- ---------- --- - --- ----- ----- ----<br>---- --- --- ----- --- ---- ---- ------- ----- ---- -------<br>--- --- -- ----- -- --- ---- -- --- ---- -- ------ ------<br>--- ----- -- ----,140555,140550.59999999404,139770.474,139779.19999998808,139787.14,140570.442,,11,wisdom
screen,html.Screen,2_1_0_1_12,2022-02-17T10:49:54.397Z,,,,,,,,,,,,,,,,,53,,,,,,,,,,,,,,643.05799999999,,response,,,,99,,,,,,,Space,keypress(Space),,,,,,,,---- -- ----- -- ------ - ------- --- ----------<br>------------- ------ ------ says ---- ------- ----- -- ----<br>-------- ------- -- ---------- --- - --- ----- ----- ----<br>---- --- --- ----- --- ---- ---- ------- ----- ---- -------<br>--- --- -- ----- -- --- ---- -- --- ---- -- ------ ------<br>--- ----- -- ----,141218.29999998212,141213.5,140553.776,140555.09999999404,140570.442,141220.416,,12,says
screen,html.Screen,2_1_0_1_13,2022-02-17T10:49:55.071Z,,,,,,,,,,,,,,,,,53,,,,,,,,,,,,,,667.6839999940421,,response,,,,99,,,,,,,Space,keypress(Space),,,,,,,,---- -- ----- -- ------ - ------- --- ----------<br>------------- ------ ------ ---- that ------- ----- -- ----<br>-------- ------- -- ---------- --- - --- ----- ----- ----<br>---- --- --- ----- --- ---- ---- ------- ----- ---- -------<br>--- --- -- ----- -- --- ---- -- --- ---- -- ------ ------<br>--- ----- -- ----,141892.5,141888.09999999404,141203.75,141218.5,141220.416,141903.722,,13,that
screen,html.Screen,2_1_0_1_14,2022-02-17T10:49:55.646Z,,,,,,,,,,,,,,,,,53,,,,,,,,,,,,,,558.8779999940307,,response,,,,99,,,,,,,Space,keypress(Space),,,,,,,,---- -- ----- -- ------ - ------- --- ----------<br>------------- ------ ------ ---- ---- feeling ----- -- ----<br>-------- ------- -- ---------- --- - --- ----- ----- ----<br>---- --- --- ----- --- ---- ---- ------- ----- ---- -------<br>--- --- -- ----- -- --- ---- -- --- ---- -- ------ ------<br>--- ----- -- ----,142467.59999999404,142462.59999999404,141887.056,141892.69999998808,141903.722,142470.366,,14,feeling
screen,html.Screen,2_1_0_1_15,2022-02-17T10:49:56.501Z,,,,,,,,,,,,,,,,,53,,,,,,,,,,,,,,848.1339999999909,,response,,,,99,,,,,,,Space,keypress(Space),,,,,,,,---- -- ----- -- ------ - ------- --- ----------<br>------------- ------ ------ ---- ---- ------- close -- ----<br>-------- ------- -- ---------- --- - --- ----- ----- ----<br>---- --- --- ----- --- ---- ---- ------- ----- ---- -------<br>--- --- -- ----- -- --- ---- -- --- ---- -- ------ ------<br>--- ----- -- ----,143322.79999998212,143318.5,142453.7,142467.90000000596,142470.366,143336.998,,15,close
screen,html.Screen,2_1_0_1_16,2022-02-17T10:49:56.994Z,,,,,,,,,,,,,,,,,53,,,,,,,,,,,,,,474.8019999821263,,response,,,,99,,,,,,,Space,keypress(Space),,,,,,,,---- -- ----- -- ------ - ------- --- ----------<br>------------- ------ ------ ---- ---- ------- ----- to ----<br>-------- ------- -- ---------- --- - --- ----- ----- ----<br>---- --- --- ----- --- ---- ---- ------- ----- ---- -------<br>--- --- -- ----- -- --- ---- -- --- ---- -- ------ ------<br>--- ----- -- ----,143815.59999999404,143811.79999998212,143320.332,143322.79999998212,143336.998,143820.312,,16,to
screen,html.Screen,2_1_0_1_17,2022-02-17T10:49:57.581Z,,,,,,,,,,,,,,,,,53,,,,,,,,,,,,,,578.1879999999946,,response,,,,99,,,,,,,Space,keypress(Space),,,,,,,,---- -- ----- -- ------ - ------- --- ----------<br>------------- ------ ------ ---- ---- ------- ----- -- your<br>-------- ------- -- ---------- --- - --- ----- ----- ----<br>---- --- --- ----- --- ---- ---- ------- ----- ---- -------<br>--- --- -- ----- -- --- ---- -- --- ---- -- ------ ------<br>--- ----- -- ----,144402.69999998808,144398.5,143803.646,143815.69999998808,143820.312,144420.288,,17,your
screen,html.Screen,2_1_0_1_18,2022-02-17T10:49:58.222Z,,,,,,,,,,,,,,,,,53,,,,,,,,,,,,,,619.7119999999995,,response,,,,99,,,,,,,Space,keypress(Space),,,,,,,,---- -- ----- -- ------ - ------- --- ----------<br>------------- ------ ------ ---- ---- ------- ----- -- ----<br>romantic ------- -- ---------- --- - --- ----- ----- ----<br>---- --- --- ----- --- ---- ---- ------- ----- ---- -------<br>--- --- -- ----- -- --- ---- -- --- ---- -- ------ ------<br>--- ----- -- ----,145043.90000000596,145040,144403.622,144403,144420.288,145053.596,,18,romantic
screen,html.Screen,2_1_0_1_19,2022-02-17T10:49:58.728Z,,,,,,,,,,,,,,,,,53,,,,,,,,,,,,,,491.6039999880886,,response,,,,99,,,,,,,Space,keypress(Space),,,,,,,,---- -- ----- -- ------ - ------- --- ----------<br>------------- ------ ------ ---- ---- ------- ----- -- ----<br>-------- partner -- ---------- --- - --- ----- ----- ----<br>---- --- --- ----- --- ---- ---- ------- ----- ---- -------<br>--- --- -- ----- -- --- ---- -- --- ---- -- ------ ------<br>--- ----- -- ----,145549.90000000596,145545.19999998808,145036.93,145044.09999999404,145053.596,145553.576,,19,partner
screen,html.Screen,2_1_0_1_20,2022-02-17T10:49:59.380Z,,,,,,,,,,,,,,,,,53,,,,,,,,,,,,,,643.2239999821177,,response,,,,99,,,,,,,Space,keypress(Space),,,,,,,,---- -- ----- -- ------ - ------- --- ----------<br>------------- ------ ------ ---- ---- ------- ----- -- ----<br>-------- ------- is ---------- --- - --- ----- ----- ----<br>---- --- --- ----- --- ---- ---- ------- ----- ---- -------<br>--- --- -- ----- -- --- ---- -- --- ---- -- ------ ------<br>--- ----- -- ----,146201.29999998212,146196.79999998212,145536.91,145550.09999999404,145553.576,146203.55,,20,is
screen,html.Screen,2_1_0_1_21,2022-02-17T10:50:01.517Z,,,,,,,,,,,,,,,,,53,,,,,,,,,,,,,,2130.7499999821302,,response,,,,99,,,,,,,Space,keypress(Space),,,,,,,,---- -- ----- -- ------ - ------- --- ----------<br>------------- ------ ------ ---- ---- ------- ----- -- ----<br>-------- ------- -- paramount. --- - --- ----- ----- ----<br>---- --- --- ----- --- ---- ---- ------- ----- ---- -------<br>--- --- -- ----- -- --- ---- -- --- ---- -- ------ ------<br>--- ----- -- ----,148338.09999999404,148334.29999998212,146186.884,146201.29999998212,146203.55,148353.464,,21,paramount.
screen,html.Screen,2_1_0_1_22,2022-02-17T10:50:02.383Z,,,,,,,,,,,,,,,,,53,,,,,,,,,,,,,,847.0359999999928,,response,,,,99,,,,,,,Space,keypress(Space),,,,,,,,---- -- ----- -- ------ - ------- --- ----------<br>------------- ------ ------ ---- ---- ------- ----- -- ----<br>-------- ------- -- ---------- But - --- ----- ----- ----<br>---- --- --- ----- --- ---- ---- ------- ----- ---- -------<br>--- --- -- ----- -- --- ---- -- --- ---- -- ------ ------<br>--- ----- -- ----,149204.40000000596,149200.5,148336.798,148338.19999998808,148353.464,149220.096,,22,But
screen,html.Screen,2_1_0_1_23,2022-02-17T10:50:03.059Z,,,,,,,,,,,,,,,,,53,,,,,,,,,,,,,,656.4040000000095,,response,,,,99,,,,,,,Space,keypress(Space),,,,,,,,---- -- ----- -- ------ - ------- --- ----------<br>------------- ------ ------ ---- ---- ------- ----- -- ----<br>-------- ------- -- ---------- --- a --- ----- ----- ----<br>---- --- --- ----- --- ---- ---- ------- ----- ---- -------<br>--- --- -- ----- -- --- ---- -- --- ---- -- ------ ------<br>--- ----- -- ----,149880.40000000596,149876.5,149203.43,149204.59999999404,149220.096,149886.736,,23,a
screen,html.Screen,2_1_0_1_24,2022-02-17T10:50:03.621Z,,,,,,,,,,,,,,,,,53,,,,,,,,,,,,,,552.3639999940351,,response,,,,99,,,,,,,Space,keypress(Space),,,,,,,,---- -- ----- -- ------ - ------- --- ----------<br>------------- ------ ------ ---- ---- ------- ----- -- ----<br>-------- ------- -- ---------- --- - new ----- ----- ----<br>---- --- --- ----- --- ---- ---- ------- ----- ---- -------<br>--- --- -- ----- -- --- ---- -- --- ---- -- ------ ------<br>--- ----- -- ----,150442.90000000596,150439.09999999404,149870.07,149880.69999998808,149886.736,150453.38,,24,new
screen,html.Screen,2_1_0_1_25,2022-02-17T10:50:04.150Z,,,,,,,,,,,,,,,,,53,,,,,,,,,,,,,,513.919999982114,,response,,,,99,,,,,,,Space,keypress(Space),,,,,,,,---- -- ----- -- ------ - ------- --- ----------<br>------------- ------ ------ ---- ---- ------- ----- -- ----<br>-------- ------- -- ---------- --- - --- study ----- ----<br>---- --- --- ----- --- ---- ---- ------- ----- ---- -------<br>--- --- -- ----- -- --- ---- -- --- ---- -- ------ ------<br>--- ----- -- ----,150971.5,150967.29999998212,150436.714,150443.09999999404,150453.38,150986.692,,25,study
screen,html.Screen,2_1_0_1_26,2022-02-17T10:50:04.781Z,,,,,,,,,,,,,,,,,53,,,,,,,,,,,,,,611.80799999999,,response,,,,99,,,,,,,Space,keypress(Space),,,,,,,,---- -- ----- -- ------ - ------- --- ----------<br>------------- ------ ------ ---- ---- ------- ----- -- ----<br>-------- ------- -- ---------- --- - --- ----- finds ----<br>---- --- --- ----- --- ---- ---- ------- ----- ---- -------<br>--- --- -- ----- -- --- ---- -- --- ---- -- ------ ------<br>--- ----- -- ----,151603,151598.5,150970.026,150971.59999999404,150986.692,151620,,26,finds
screen,html.Screen,2_1_0_1_27,2022-02-17T10:50:05.400Z,,,,,,,,,,,,,,,,,53,,,,,,,,,,,,,,597.1999999880791,,response,,,,99,,,,,,,Space,keypress(Space),,,,,,,,---- -- ----- -- ------ - ------- --- ----------<br>------------- ------ ------ ---- ---- ------- ----- -- ----<br>-------- ------- -- ---------- --- - --- ----- ----- that<br>---- --- --- ----- --- ---- ---- ------- ----- ---- -------<br>--- --- -- ----- -- --- ---- -- --- ---- -- ------ ------<br>--- ----- -- ----,152221.59999999404,152217.19999998808,151603.334,151603.29999998212,151620,152236.642,,27,that
screen,html.Screen,2_1_0_1_28,2022-02-17T10:50:05.997Z,,,,,,,,,,,,,,,,,53,,,,,,,,,,,,,,576.2580000059679,,response,,,,99,,,,,,,Space,keypress(Space),,,,,,,,---- -- ----- -- ------ - ------- --- ----------<br>------------- ------ ------ ---- ---- ------- ----- -- ----<br>-------- ------- -- ---------- --- - --- ----- ----- ----<br>it's --- --- ----- --- ---- ---- ------- ----- ---- -------<br>--- --- -- ----- -- --- ---- -- --- ---- -- ------ ------<br>--- ----- -- ----,152818.59999999404,152812.90000000596,152219.976,152221.79999998212,152236.642,152819.952,,28,it's
screen,html.Screen,2_1_0_1_29,2022-02-17T10:50:06.513Z,,,,,,,,,,,,,,,,,53,,,,,,,,,,,,,,510.0480000000098,,response,,,,99,,,,,,,Space,keypress(Space),,,,,,,,---- -- ----- -- ------ - ------- --- ----------<br>------------- ------ ------ ---- ---- ------- ----- -- ----<br>-------- ------- -- ---------- --- - --- ----- ----- ----<br>---- not --- ----- --- ---- ---- ------- ----- ---- -------<br>--- --- -- ----- -- --- ---- -- --- ---- -- ------ ------<br>--- ----- -- ----,153334.29999998212,153330,152803.286,152818.79999998212,152819.952,153336.598,,29,not
screen,html.Screen,2_1_0_1_30,2022-02-17T10:50:07.042Z,,,,,,,,,,,,,,,,,53,,,,,,,,,,,,,,522.1019999880809,,response,,,,99,,,,,,,Space,keypress(Space),,,,,,,,---- -- ----- -- ------ - ------- --- ----------<br>------------- ------ ------ ---- ---- ------- ----- -- ----<br>-------- ------- -- ---------- --- - --- ----- ----- ----<br>---- --- how ----- --- ---- ---- ------- ----- ---- -------<br>--- --- -- ----- -- --- ---- -- --- ---- -- ------ ------<br>--- ----- -- ----,153863.40000000596,153858.69999998808,153319.932,153334.29999998212,153336.598,153869.91,,30,how
screen,html.Screen,2_1_0_1_31,2022-02-17T10:50:07.715Z,,,,,,,,,,,,,,,,,53,,,,,,,,,,,,,,663.0899999999965,,response,,,,99,,,,,,,Space,keypress(Space),,,,,,,,---- -- ----- -- ------ - ------- --- ----------<br>------------- ------ ------ ---- ---- ------- ----- -- ----<br>-------- ------- -- ---------- --- - --- ----- ----- ----<br>---- --- --- close --- ---- ---- ------- ----- ---- -------<br>--- --- -- ----- -- --- ---- -- --- ---- -- ------ ------<br>--- ----- -- ----,154536.90000000596,154533,153853.244,153863.59999999404,153869.91,154553.216,,31,close
screen,html.Screen,2_1_0_1_32,2022-02-17T10:50:08.267Z,,,,,,,,,,,,,,,,,53,,,,,,,,,,,,,,531.2840000000142,,response,,,,99,,,,,,,Space,keypress(Space),,,,,,,,---- -- ----- -- ------ - ------- --- ----------<br>------------- ------ ------ ---- ---- ------- ----- -- ----<br>-------- ------- -- ---------- --- - --- ----- ----- ----<br>---- --- --- ----- you ---- ---- ------- ----- ---- -------<br>--- --- -- ----- -- --- ---- -- --- ---- -- ------ ------<br>--- ----- -- ----,155088.69999998808,155084.5,154536.55,154537.09999999404,154553.216,155103.194,,32,you
screen,html.Screen,2_1_0_1_33,2022-02-17T10:50:08.874Z,,,,,,,,,,,,,,,,,53,,,,,,,,,,,,,,589.0059999880905,,response,,,,99,,,,,,,Space,keypress(Space),,,,,,,,---- -- ----- -- ------ - ------- --- ----------<br>------------- ------ ------ ---- ---- ------- ----- -- ----<br>-------- ------- -- ---------- --- - --- ----- ----- ----<br>---- --- --- ----- --- feel ---- ------- ----- ---- -------<br>--- --- -- ----- -- --- ---- -- --- ---- -- ------ ------<br>--- ----- -- ----,155696.09999999404,155692.19999998808,155086.528,155088.90000000596,155103.194,155703.17,,33,feel
screen,html.Screen,2_1_0_1_34,2022-02-17T10:50:09.404Z,,,,,,,,,,,,,,,,,53,,,,,,,,,,,,,,517.7300000059477,,response,,,,99,,,,,,,Space,keypress(Space),,,,,,,,---- -- ----- -- ------ - ------- --- ----------<br>------------- ------ ------ ---- ---- ------- ----- -- ----<br>-------- ------- -- ---------- --- - --- ----- ----- ----<br>---- --- --- ----- --- ---- that ------- ----- ---- -------<br>--- --- -- ----- -- --- ---- -- --- ---- -- ------ ------<br>--- ----- -- ----,156226,156220.90000000596,155686.504,155696.29999998212,155703.17,156236.482,,34,that
screen,html.Screen,2_1_0_1_35,2022-02-17T10:50:10.136Z,,,,,,,,,,,,,,,,,53,,,,,,,,,,,,,,716.71799998809,,response,,,,99,,,,,,,Space,keypress(Space),,,,,,,,---- -- ----- -- ------ - ------- --- ----------<br>------------- ------ ------ ---- ---- ------- ----- -- ----<br>-------- ------- -- ---------- --- - --- ----- ----- ----<br>---- --- --- ----- --- ---- ---- matters ----- ---- -------<br>--- --- -- ----- -- --- ---- -- --- ---- -- ------ ------<br>--- ----- -- ----,156957.29999998212,156953.19999998808,156219.816,156226.29999998212,156236.482,156969.786,,35,matters
screen,html.Screen,2_1_0_1_36,2022-02-17T10:50:10.778Z,,,,,,,,,,,,,,,,,53,,,,,,,,,,,,,,624.8139999940468,,response,,,,99,,,,,,,Space,keypress(Space),,,,,,,,"---- -- ----- -- ------ - ------- --- ----------<br>------------- ------ ------ ---- ---- ------- ----- -- ----<br>-------- ------- -- ---------- --- - --- ----- ----- ----<br>---- --- --- ----- --- ---- ---- ------- most, ---- -------<br>--- --- -- ----- -- --- ---- -- --- ---- -- ------ ------<br>--- ----- -- ----",157599.29999998212,157594.59999999404,156953.12,156957.69999998808,156969.786,157603.094,,36,"most,"
screen,html.Screen,2_1_0_1_37,2022-02-17T10:50:11.363Z,,,,,,,,,,,,,,,,,53,,,,,,,,,,,,,,576.6059999880672,,response,,,,99,,,,,,,Space,keypress(Space),,,,,,,,---- -- ----- -- ------ - ------- --- ----------<br>------------- ------ ------ ---- ---- ------- ----- -- ----<br>-------- ------- -- ---------- --- - --- ----- ----- ----<br>---- --- --- ----- --- ---- ---- ------- ----- it's -------<br>--- --- -- ----- -- --- ---- -- --- ---- -- ------ ------<br>--- ----- -- ----,158184.59999999404,158179.69999998808,157586.428,157599.59999999404,157603.094,158186.404,,37,it's
screen,html.Screen,2_1_0_1_38,2022-02-17T10:50:11.889Z,,,,,,,,,,,,,,,,,53,,,,,,,,,,,,,,520.3959999821091,,response,,,,99,,,,,,,Space,keypress(Space),,,,,,,,---- -- ----- -- ------ - ------- --- ----------<br>------------- ------ ------ ---- ---- ------- ----- -- ----<br>-------- ------- -- ---------- --- - --- ----- ----- ----<br>---- --- --- ----- --- ---- ---- ------- ----- ---- whether<br>--- --- -- ----- -- --- ---- -- --- ---- -- ------ ------<br>--- ----- -- ----,158710.59999999404,158706.79999998212,158169.738,158184.90000000596,158186.404,158719.716,,38,whether
screen,html.Screen,2_1_0_1_39,2022-02-17T10:50:12.373Z,,,,,,,,,,,,,,,,,53,,,,,,,,,,,,,,470.7840000000142,,response,,,,99,,,,,,,Space,keypress(Space),,,,,,,,---- -- ----- -- ------ - ------- --- ----------<br>------------- ------ ------ ---- ---- ------- ----- -- ----<br>-------- ------- -- ---------- --- - --- ----- ----- ----<br>---- --- --- ----- --- ---- ---- ------- ----- ---- -------<br>you --- -- ----- -- --- ---- -- --- ---- -- ------ ------<br>--- ----- -- ----,159194.79999998212,159190.5,158703.05,158710.69999998808,158719.716,159203.03,,39,you
screen,html.Screen,2_1_0_1_40,2022-02-17T10:50:12.824Z,,,,,,,,,,,,,,,,,53,,,,,,,,,,,,,,438.97000000000116,,response,,,,99,,,,,,,Space,keypress(Space),,,,,,,,---- -- ----- -- ------ - ------- --- ----------<br>------------- ------ ------ ---- ---- ------- ----- -- ----<br>-------- ------- -- ---------- --- - --- ----- ----- ----<br>---- --- --- ----- --- ---- ---- ------- ----- ---- -------<br>--- are -- ----- -- --- ---- -- --- ---- -- ------ ------<br>--- ----- -- ----,159645.90000000596,159642,159186.364,159195,159203.03,159653.012,,40,are
screen,html.Screen,2_1_0_1_41,2022-02-17T10:50:13.266Z,,,,,,,,,,,,,,,,,53,,,,,,,,,,,,,,429.8880000059726,,response,,,,99,,,,,,,Space,keypress(Space),,,,,,,,---- -- ----- -- ------ - ------- --- ----------<br>------------- ------ ------ ---- ---- ------- ----- -- ----<br>-------- ------- -- ---------- --- - --- ----- ----- ----<br>---- --- --- ----- --- ---- ---- ------- ----- ---- -------<br>--- --- as ----- -- --- ---- -- --- ---- -- ------ ------<br>--- ----- -- ----,160087.69999998808,160082.90000000596,159636.346,159646.09999999404,159653.012,160102.994,,41,as
screen,html.Screen,2_1_0_1_42,2022-02-17T10:50:13.736Z,,,,,,,,,,,,,,,,,53,,,,,,,,,,,,,,450.4060000059544,,response,,,,99,,,,,,,Space,keypress(Space),,,,,,,,---- -- ----- -- ------ - ------- --- ----------<br>------------- ------ ------ ---- ---- ------- ----- -- ----<br>-------- ------- -- ---------- --- - --- ----- ----- ----<br>---- --- --- ----- --- ---- ---- ------- ----- ---- -------<br>--- --- -- close -- --- ---- -- --- ---- -- ------ ------<br>--- ----- -- ----,160557.69999998808,160553.40000000596,160086.328,160087.79999998212,160102.994,160569.642,,42,close
screen,html.Screen,2_1_0_1_43,2022-02-17T10:50:14.345Z,,,,,,,,,,,,,,,,,53,,,,,,,,,,,,,,592.0579999880865,,response,,,,99,,,,,,,Space,keypress(Space),,,,,,,,---- -- ----- -- ------ - ------- --- ----------<br>------------- ------ ------ ---- ---- ------- ----- -- ----<br>-------- ------- -- ---------- --- - --- ----- ----- ----<br>---- --- --- ----- --- ---- ---- ------- ----- ---- -------<br>--- --- -- ----- as --- ---- -- --- ---- -- ------ ------<br>--- ----- -- ----,161166.5,161161.69999998808,160552.976,160557.79999998212,160569.642,161169.618,,43,as
screen,html.Screen,2_1_0_1_44,2022-02-17T10:50:14.827Z,,,,,,,,,,,,,,,,,53,,,,,,,,,,,,,,474.5819999880914,,response,,,,99,,,,,,,Space,keypress(Space),,,,,,,,---- -- ----- -- ------ - ------- --- ----------<br>------------- ------ ------ ---- ---- ------- ----- -- ----<br>-------- ------- -- ---------- --- - --- ----- ----- ----<br>---- --- --- ----- --- ---- ---- ------- ----- ---- -------<br>--- --- -- ----- -- you ---- -- --- ---- -- ------ ------<br>--- ----- -- ----,161648.19999998808,161644.19999998808,161152.952,161166.59999999404,161169.618,161652.932,,44,you
screen,html.Screen,2_1_0_1_45,2022-02-17T10:50:15.287Z,,,,,,,,,,,,,,,,,53,,,,,,,,,,,,,,451.3679999821179,,response,,,,99,,,,,,,Space,keypress(Space),,,,,,,,---- -- ----- -- ------ - ------- --- ----------<br>------------- ------ ------ ---- ---- ------- ----- -- ----<br>-------- ------- -- ---------- --- - --- ----- ----- ----<br>---- --- --- ----- --- ---- ---- ------- ----- ---- -------<br>--- --- -- ----- -- --- want -- --- ---- -- ------ ------<br>--- ----- -- ----,162108.59999999404,162104.29999998212,161636.266,161648.29999998212,161652.932,162119.58,,45,want
screen,html.Screen,2_1_0_1_46,2022-02-17T10:50:15.727Z,,,,,,,,,,,,,,,,,53,,,,,,,,,,,,,,425.32000000597327,,response,,,,99,,,,,,,Space,keypress(Space),,,,,,,,---- -- ----- -- ------ - ------- --- ----------<br>------------- ------ ------ ---- ---- ------- ----- -- ----<br>-------- ------- -- ---------- --- - --- ----- ----- ----<br>---- --- --- ----- --- ---- ---- ------- ----- ---- -------<br>--- --- -- ----- -- --- ---- to --- ---- -- ------ ------<br>--- ----- -- ----,162548.90000000596,162544.90000000596,162102.914,162108.90000000596,162119.58,162552.896,,46,to
screen,html.Screen,2_1_0_1_47,2022-02-17T10:50:16.538Z,,,,,,,,,,,,,,,,,53,,,,,,,,,,,,,,801.6039999999921,,response,,,,99,,,,,,,Space,keypress(Space),,,,,,,,"---- -- ----- -- ------ - ------- --- ----------<br>------------- ------ ------ ---- ---- ------- ----- -- ----<br>-------- ------- -- ---------- --- - --- ----- ----- ----<br>---- --- --- ----- --- ---- ---- ------- ----- ---- -------<br>--- --- -- ----- -- --- ---- -- be, ---- -- ------ ------<br>--- ----- -- ----",163359.5,163354.5,162536.23,162549.19999998808,162552.896,163369.53,,47,"be,"
screen,html.Screen,2_1_0_1_48,2022-02-17T10:50:17.224Z,,,,,,,,,,,,,,,,,53,,,,,,,,,,,,,,671.2699999821198,,response,,,,99,,,,,,,Space,keypress(Space),,,,,,,,---- -- ----- -- ------ - ------- --- ----------<br>------------- ------ ------ ---- ---- ------- ----- -- ----<br>-------- ------- -- ---------- --- - --- ----- ----- ----<br>---- --- --- ----- --- ---- ---- ------- ----- ---- -------<br>--- --- -- ----- -- --- ---- -- --- even -- ------ ------<br>--- ----- -- ----,164045.59999999404,164040.79999998212,163352.864,163359.59999999404,163369.53,164052.836,,48,even
screen,html.Screen,2_1_0_1_49,2022-02-17T10:50:18.011Z,,,,,,,,,,,,,,,,,53,,,,,,,,,,,,,,775.5640000059502,,response,,,,99,,,,,,,Space,keypress(Space),,,,,,,,---- -- ----- -- ------ - ------- --- ----------<br>------------- ------ ------ ---- ---- ------- ----- -- ----<br>-------- ------- -- ---------- --- - --- ----- ----- ----<br>---- --- --- ----- --- ---- ---- ------- ----- ---- -------<br>--- --- -- ----- -- --- ---- -- --- ---- if ------ ------<br>--- ----- -- ----,164832.5,164828.40000000596,164036.17,164045.69999998808,164052.836,164836.138,,49,if
screen,html.Screen,2_1_0_1_50,2022-02-17T10:50:18.560Z,,,,,,,,,,,,,,,,,53,,,,,,,,,,,,,,541.6619999821123,,response,,,,99,,,,,,,Space,keypress(Space),,,,,,,,---- -- ----- -- ------ - ------- --- ----------<br>------------- ------ ------ ---- ---- ------- ----- -- ----<br>-------- ------- -- ---------- --- - --- ----- ----- ----<br>---- --- --- ----- --- ---- ---- ------- ----- ---- -------<br>--- --- -- ----- -- --- ---- -- --- ---- -- that's ------<br>--- ----- -- ----,165381.69999998808,165377.79999998212,164819.472,164832.59999999404,164836.138,165386.116,,50,that's
screen,html.Screen,2_1_0_1_51,2022-02-17T10:50:19.122Z,,,,,,,,,,,,,,,,,53,,,,,,,,,,,,,,554.58399998807,,response,,,,99,,,,,,,Space,keypress(Space),,,,,,,,---- -- ----- -- ------ - ------- --- ----------<br>------------- ------ ------ ---- ---- ------- ----- -- ----<br>-------- ------- -- ---------- --- - --- ----- ----- ----<br>---- --- --- ----- --- ---- ---- ------- ----- ---- -------<br>--- --- -- ----- -- --- ---- -- --- ---- -- ------ really<br>--- ----- -- ----,165944,165940.69999998808,165369.45,165382,165386.116,165952.76,,51,really
screen,html.Screen,2_1_0_1_52,2022-02-17T10:50:19.609Z,,,,,,,,,,,,,,,,,53,,,,,,,,,,,,,,473.14000000595115,,response,,,,99,,,,,,,Space,keypress(Space),,,,,,,,---- -- ----- -- ------ - ------- --- ----------<br>------------- ------ ------ ---- ---- ------- ----- -- ----<br>-------- ------- -- ---------- --- - --- ----- ----- ----<br>---- --- --- ----- --- ---- ---- ------- ----- ---- -------<br>--- --- -- ----- -- --- ---- -- --- ---- -- ------ ------<br>not ----- -- ----,166430.40000000596,166425.90000000596,165936.094,165944.09999999404,165952.76,166436.074,,52,not
screen,html.Screen,2_1_0_1_53,2022-02-17T10:50:20.069Z,,,,,,,,,,,,,,,,,53,,,,,,,,,,,,,,450.42600000000675,,response,,,,99,,,,,,,Space,keypress(Space),,,,,,,,---- -- ----- -- ------ - ------- --- ----------<br>------------- ------ ------ ---- ---- ------- ----- -- ----<br>-------- ------- -- ---------- --- - --- ----- ----- ----<br>---- --- --- ----- --- ---- ---- ------- ----- ---- -------<br>--- --- -- ----- -- --- ---- -- --- ---- -- ------ ------<br>--- close -- ----,166891.09999999404,166886.5,166419.408,166430.59999999404,166436.074,166902.722,,53,close
screen,html.Screen,2_1_0_1_54,2022-02-17T10:50:20.486Z,,,,,,,,,,,,,,,,,53,,,,,,,,,,,,,,400.57799998210976,,response,,,,99,,,,,,,Space,keypress(Space),,,,,,,,---- -- ----- -- ------ - ------- --- ----------<br>------------- ------ ------ ---- ---- ------- ----- -- ----<br>-------- ------- -- ---------- --- - --- ----- ----- ----<br>---- --- --- ----- --- ---- ---- ------- ----- ---- -------<br>--- --- -- ----- -- --- ---- -- --- ---- -- ------ ------<br>--- ----- at ----,167307.19999998808,167303.29999998212,166886.056,166891.40000000596,166902.722,167319.372,,54,at
screen,html.Screen,2_1_0_1_55,2022-02-17T10:50:21.465Z,,,,,,,,,,,,,,,,,53,,,,,,,,,,,,,,962.7279999940365,,response,,,,99,,,,,,,Space,keypress(Space),,,,,,,,---- -- ----- -- ------ - ------- --- ----------<br>------------- ------ ------ ---- ---- ------- ----- -- ----<br>-------- ------- -- ---------- --- - --- ----- ----- ----<br>---- --- --- ----- --- ---- ---- ------- ----- ---- -------<br>--- --- -- ----- -- --- ---- -- --- ---- -- ------ ------<br>--- ----- -- all.,168286.5,168282.09999999404,167302.706,167307.40000000596,167319.372,168302.666,,55,all.
Item 99,flow.Loop,2_1_0_1,2022-02-17T10:50:21.465Z,,,,,,,,,,,,,,,,,,,,,,,,,,,,,,,37694.59199999404,,completion,,,,,C,,,,,,,,,,,silence,,,,,168286.90000000596,168282.09999999404,130570.842,130573.19999998808,130587.508,168302.666,,,
Question 1,html.Screen,2_1_0_2,2022-02-17T10:50:26.049Z,,,,,,,,,,,,,,,,,,,,,,,,,,,,false,FALSE,,4565.933999994042,,response,,,,99,C,,,,,,TRUE,click #choice-1,,,,silence,,,,,172870.79999998212,172868.59999999404,168286,168286.90000000596,168302.666,172885.816,,,
Question 2,html.Screen,2_1_0_3,2022-02-17T10:50:30.585Z,,,,,,,,,,,,,,,,,,,,,,,,,,,,true,TRUE,,4518.383999988087,,response,,,,99,C,,,,,,TRUE,click #choice-1,,,,silence,,,,,177406.29999998212,177404.19999998808,172869.15,172870.90000000596,172885.816,177418.968,,,
Item 99,flow.Sequence,2_1_0,2022-02-17T10:50:30.585Z,,,,,,,,,,,,,,,,,,,,,,,,,,,,,,,56816.29199998808,,completion,,,,,,,,,,,,,,,,,,,,,177406.40000000596,177404.19999998808,120571.242,120574.59999999404,120587.908,177418.968,,,
Holding screen,html.Screen,2_1_1_0,2022-02-17T10:50:40.583Z,,,,,,,,,,,,,,,,,,,,,,,,,,,,,,,9999.600000000006,,timeout,,,,,,,,,,,,,,,,,,,,,187404.40000000596,187401.902,177402.302,177406.59999999404,177418.968,187418.568,,,
screen,html.Screen,2_1_1_1_0,2022-02-17T10:50:41.556Z,,,,,,,,,,,,,,,,,54,,,,,,,,,,,,,,955.8320000059612,,response,,,,100,,,,,,,Space,keypress(Space),,,,,,,,At --- ---- --- ------ ----- ------- ---- -- --- ------- --<br>------- ---------- ------ -- ----- -- ----- -- ---- ------<br>--- ----- --- --- ------ -------- ----- --- ------ ----- --<br>----- ----- ---------- --- --- ------ ------ ---- -- ------<br>------- --- ------ ----- --- ---- ------- -- ---- --- --<br>------- ------,188377.69999998808,188374.40000000596,187401.902,187404.59999999404,187418.568,188385.196,,0,At
screen,html.Screen,2_1_1_1_1,2022-02-17T10:50:42.333Z,,,,,,,,,,,,,,,,,54,,,,,,,,,,,,,,765.6039999821223,,response,,,,100,,,,,,,Space,keypress(Space),,,,,,,,-- the ---- --- ------ ----- ------- ---- -- --- ------- --<br>------- ---------- ------ -- ----- -- ----- -- ---- ------<br>--- ----- --- --- ------ -------- ----- --- ------ ----- --<br>----- ----- ---------- --- --- ------ ------ ---- -- ------<br>------- --- ------ ----- --- ---- ------- -- ---- --- --<br>------- ------,189155.09999999404,189150.79999998212,188368.53,188377.90000000596,188385.196,189168.498,,1,the
screen,html.Screen,2_1_1_1_2,2022-02-17T10:50:42.964Z,,,,,,,,,,,,,,,,,54,,,,,,,,,,,,,,612.2019999880868,,response,,,,100,,,,,,,Space,keypress(Space),,,,,,,,-- --- time --- ------ ----- ------- ---- -- --- ------- --<br>------- ---------- ------ -- ----- -- ----- -- ---- ------<br>--- ----- --- --- ------ -------- ----- --- ------ ----- --<br>----- ----- ---------- --- --- ------ ------ ---- -- ------<br>------- --- ------ ----- --- ---- ------- -- ---- --- --<br>------- ------,189785.5,189780.69999998808,189151.832,189155.29999998212,189168.498,189801.806,,2,time
screen,html.Screen,2_1_1_1_3,2022-02-17T10:50:43.480Z,,,,,,,,,,,,,,,,,54,,,,,,,,,,,,,,496.39399998806766,,response,,,,100,,,,,,,Space,keypress(Space),,,,,,,,-- --- ---- the ------ ----- ------- ---- -- --- ------- --<br>------- ---------- ------ -- ----- -- ----- -- ---- ------<br>--- ----- --- --- ------ -------- ----- --- ------ ----- --<br>----- ----- ---------- --- --- ------ ------ ---- -- ------<br>------- --- ------ ----- --- ---- ------- -- ---- --- --<br>------- ------,190302.19999998808,190298.19999998808,189785.14,189785.59999999404,189801.806,190318.452,,3,the
screen,html.Screen,2_1_1_1_4,2022-02-17T10:50:44.077Z,,,,,,,,,,,,,,,,,54,,,,,,,,,,,,,,575.8479999821284,,response,,,,100,,,,,,,Space,keypress(Space),,,,,,,,-- --- ---- --- French ----- ------- ---- -- --- ------- --<br>------- ---------- ------ -- ----- -- ----- -- ---- ------<br>--- ----- --- --- ------ -------- ----- --- ------ ----- --<br>----- ----- ---------- --- --- ------ ------ ---- -- ------<br>------- --- ------ ----- --- ---- ------- -- ---- --- --<br>------- ------,190899,190894.29999998212,190301.786,190302.40000000596,190318.452,190901.762,,4,French
screen,html.Screen,2_1_1_1_5,2022-02-17T10:50:44.527Z,,,,,,,,,,,,,,,,,54,,,,,,,,,,,,,,443.1380000059726,,response,,,,100,,,,,,,Space,keypress(Space),,,,,,,,-- --- ---- --- ------ crown ------- ---- -- --- ------- --<br>------- ---------- ------ -- ----- -- ----- -- ---- ------<br>--- ----- --- --- ------ -------- ----- --- ------ ----- --<br>----- ----- ---------- --- --- ------ ------ ---- -- ------<br>------- --- ------ ----- --- ---- ------- -- ---- --- --<br>------- ------,191348.29999998212,191344.90000000596,190885.096,190899.09999999404,190901.762,191351.744,,5,crown
screen,html.Screen,2_1_1_1_6,2022-02-17T10:50:44.977Z,,,,,,,,,,,,,,,,,54,,,,,,,,,,,,,,442.55599998211255,,response,,,,100,,,,,,,Space,keypress(Space),,,,,,,,-- --- ---- --- ------ ----- secured ---- -- --- ------- --<br>------- ---------- ------ -- ----- -- ----- -- ---- ------<br>--- ----- --- --- ------ -------- ----- --- ------ ----- --<br>----- ----- ---------- --- --- ------ ------ ---- -- ------<br>------- --- ------ ----- --- ---- ------- -- ---- --- --<br>------- ------,191799,191794.29999998212,191335.078,191348.5,191351.744,191801.726,,6,secured
screen,html.Screen,2_1_1_1_7,2022-02-17T10:50:45.403Z,,,,,,,,,,,,,,,,,54,,,,,,,,,,,,,,418.7740000000049,,response,,,,100,,,,,,,Space,keypress(Space),,,,,,,,-- --- ---- --- ------ ----- ------- much -- --- ------- --<br>------- ---------- ------ -- ----- -- ----- -- ---- ------<br>--- ----- --- --- ------ -------- ----- --- ------ ----- --<br>----- ----- ---------- --- --- ------ ------ ---- -- ------<br>------- --- ------ ----- --- ---- ------- -- ---- --- --<br>------- ------,192224.59999999404,192220.5,191785.06,191799.19999998808,191801.726,192235.042,,7,much
screen,html.Screen,2_1_1_1_8,2022-02-17T10:50:46.134Z,,,,,,,,,,,,,,,,,54,,,,,,,,,,,,,,716.7579999821319,,response,,,,100,,,,,,,Space,keypress(Space),,,,,,,,-- --- ---- --- ------ ----- ------- ---- of --- ------- --<br>------- ---------- ------ -- ----- -- ----- -- ---- ------<br>--- ----- --- --- ------ -------- ----- --- ------ ----- --<br>----- ----- ---------- --- --- ------ ------ ---- -- ------<br>------- --- ------ ----- --- ---- ------- -- ---- --- --<br>------- ------,192956,192951.79999998212,192218.376,192224.90000000596,192235.042,192968.346,,8,of
screen,html.Screen,2_1_1_1_9,2022-02-17T10:50:46.541Z,,,,,,,,,,,,,,,,,54,,,,,,,,,,,,,,389.7539999940491,,response,,,,100,,,,,,,Space,keypress(Space),,,,,,,,-- --- ---- --- ------ ----- ------- ---- -- its ------- --<br>------- ---------- ------ -- ----- -- ----- -- ---- ------<br>--- ----- --- --- ------ -------- ----- --- ------ ----- --<br>----- ----- ---------- --- --- ------ ------ ---- -- ------<br>------- --- ------ ----- --- ---- ------- -- ---- --- --<br>------- ------,193363.09999999404,193358.09999999404,192951.68,192956.09999999404,192968.346,193368.33,,9,its
screen,html.Screen,2_1_1_1_10,2022-02-17T10:50:47.068Z,,,,,,,,,,,,,,,,,54,,,,,,,,,,,,,,516.9699999821314,,response,,,,100,,,,,,,Space,keypress(Space),,,,,,,,-- --- ---- --- ------ ----- ------- ---- -- --- revenue --<br>------- ---------- ------ -- ----- -- ----- -- ---- ------<br>--- ----- --- --- ------ -------- ----- --- ------ ----- --<br>----- ----- ---------- --- --- ------ ------ ---- -- ------<br>------- --- ------ ----- --- ---- ------- -- ---- --- --<br>------- ------,193889.5,193885.29999998212,193351.664,193363.40000000596,193368.33,193901.642,,10,revenue
screen,html.Screen,2_1_1_1_11,2022-02-17T10:50:47.610Z,,,,,,,,,,,,,,,,,54,,,,,,,,,,,,,,525.5579999880865,,response,,,,100,,,,,,,Space,keypress(Space),,,,,,,,-- --- ---- --- ------ ----- ------- ---- -- --- ------- by<br>------- ---------- ------ -- ----- -- ----- -- ---- ------<br>--- ----- --- --- ------ -------- ----- --- ------ ----- --<br>----- ----- ---------- --- --- ------ ------ ---- -- ------<br>------- --- ------ ----- --- ---- ------- -- ---- --- --<br>------- ------,194431.79999998212,194427.19999998808,193884.976,193889.59999999404,193901.642,194434.954,,11,by
screen,html.Screen,2_1_1_1_12,2022-02-17T10:50:48.192Z,,,,,,,,,,,,,,,,,54,,,,,,,,,,,,,,575.0460000000021,,response,,,,100,,,,,,,Space,keypress(Space),,,,,,,,-- --- ---- --- ------ ----- ------- ---- -- --- ------- --<br>issuing ---------- ------ -- ----- -- ----- -- ---- ------<br>--- ----- --- --- ------ -------- ----- --- ------ ----- --<br>----- ----- ---------- --- --- ------ ------ ---- -- ------<br>------- --- ------ ----- --- ---- ------- -- ---- --- --<br>------- ------,195014.09999999404,195010,194418.288,194432.09999999404,194434.954,195018.264,,12,issuing
screen,html.Screen,2_1_1_1_13,2022-02-17T10:50:48.723Z,,,,,,,,,,,,,,,,,54,,,,,,,,,,,,,,522.2360000000044,,response,,,,100,,,,,,,Space,keypress(Space),,,,,,,,-- --- ---- --- ------ ----- ------- ---- -- --- ------- --<br>------- government ------ -- ----- -- ----- -- ---- ------<br>--- ----- --- --- ------ -------- ----- --- ------ ----- --<br>----- ----- ---------- --- --- ------ ------ ---- -- ------<br>------- --- ------ ----- --- ---- ------- -- ---- --- --<br>------- ------,195544.40000000596,195540.5,195001.598,195014.29999998212,195018.264,195551.576,,13,government
screen,html.Screen,2_1_1_1_14,2022-02-17T10:50:51.064Z,,,,,,,,,,,,,,,,,54,,,,,,,,,,,,,,2329.2239999821177,,response,,,,100,,,,,,,Space,keypress(Space),,,,,,,,-- --- ---- --- ------ ----- ------- ---- -- --- ------- --<br>------- ---------- bonds. -- ----- -- ----- -- ---- ------<br>--- ----- --- --- ------ -------- ----- --- ------ ----- --<br>----- ----- ---------- --- --- ------ ------ ---- -- ------<br>------- --- ------ ----- --- ---- ------- -- ---- --- --<br>------- ------,197885.29999998212,197880.79999998212,195534.91,195544.59999999404,195551.576,197901.482,,14,bonds.
screen,html.Screen,2_1_1_1_15,2022-02-17T10:50:52.436Z,,,,,,,,,,,,,,,,,54,,,,,,,,,,,,,,1351.518000000011,,response,,,,100,,,,,,,Space,keypress(Space),,,,,,,,-- --- ---- --- ------ ----- ------- ---- -- --- ------- --<br>------- ---------- ------ In ----- -- ----- -- ---- ------<br>--- ----- --- --- ------ -------- ----- --- ------ ----- --<br>----- ----- ---------- --- --- ------ ------ ---- -- ------<br>------- --- ------ ----- --- ---- ------- -- ---- --- --<br>------- ------,199257.79999998212,199253,197884.816,197885.5,197901.482,199268.094,,15,In
screen,html.Screen,2_1_1_1_16,2022-02-17T10:50:54.156Z,,,,,,,,,,,,,,,,,54,,,,,,,,,,,,,,1704.8060000059486,,response,,,,100,,,,,,,Space,keypress(Space),,,,,,,,"-- --- ---- --- ------ ----- ------- ---- -- --- ------- --<br>------- ---------- ------ -- 1727, -- ----- -- ---- ------<br>--- ----- --- --- ------ -------- ----- --- ------ ----- --<br>----- ----- ---------- --- --- ------ ------ ---- -- ------<br>------- --- ------ ----- --- ---- ------- -- ---- --- --<br>------- ------",200977.79999998212,200972.90000000596,199251.428,199258,199268.094,200984.692,,16,"1727,"
screen,html.Screen,2_1_1_1_17,2022-02-17T10:50:55.001Z,,,,,,,,,,,,,,,,,54,,,,,,,,,,,,,,833.5079999880691,,response,,,,100,,,,,,,Space,keypress(Space),,,,,,,,-- --- ---- --- ------ ----- ------- ---- -- --- ------- --<br>------- ---------- ------ -- ----- in ----- -- ---- ------<br>--- ----- --- --- ------ -------- ----- --- ------ ----- --<br>----- ----- ---------- --- --- ------ ------ ---- -- ------<br>------- --- ------ ----- --- ---- ------- -- ---- --- --<br>------- ------,201822.5,201818.19999998808,200968.026,200978,200984.692,201834.658,,17,in
screen,html.Screen,2_1_1_1_18,2022-02-17T10:50:55.855Z,,,,,,,,,,,,,,,,,54,,,,,,,,,,,,,,838.2420000059647,,response,,,,100,,,,,,,Space,keypress(Space),,,,,,,,-- --- ---- --- ------ ----- ------- ---- -- --- ------- --<br>------- ---------- ------ -- ----- -- order -- ---- ------<br>--- ----- --- --- ------ -------- ----- --- ------ ----- --<br>----- ----- ---------- --- --- ------ ------ ---- -- ------<br>------- --- ------ ----- --- ---- ------- -- ---- --- --<br>------- ------,202676.79999998212,202672.90000000596,201817.992,201822.59999999404,201834.658,202684.624,,18,order
screen,html.Screen,2_1_1_1_19,2022-02-17T10:50:56.283Z,,,,,,,,,,,,,,,,,54,,,,,,,,,,,,,,416.1759999821079,,response,,,,100,,,,,,,Space,keypress(Space),,,,,,,,-- --- ---- --- ------ ----- ------- ---- -- --- ------- --<br>------- ---------- ------ -- ----- -- ----- to ---- ------<br>--- ----- --- --- ------ -------- ----- --- ------ ----- --<br>----- ----- ---------- --- --- ------ ------ ---- -- ------<br>------- --- ------ ----- --- ---- ------- -- ---- --- --<br>------- ------,203104.59999999404,203100.79999998212,202667.958,202677,202684.624,203117.94,,19,to
screen,html.Screen,2_1_1_1_20,2022-02-17T10:50:56.765Z,,,,,,,,,,,,,,,,,54,,,,,,,,,,,,,,464.46000000595814,,response,,,,100,,,,,,,Space,keypress(Space),,,,,,,,-- --- ---- --- ------ ----- ------- ---- -- --- ------- --<br>------- ---------- ------ -- ----- -- ----- -- save ------<br>--- ----- --- --- ------ -------- ----- --- ------ ----- --<br>----- ----- ---------- --- --- ------ ------ ---- -- ------<br>------- --- ------ ----- --- ---- ------- -- ---- --- --<br>------- ------,203587,203582.40000000596,203101.274,203104.69999998808,203117.94,203601.254,,20,save
screen,html.Screen,2_1_1_1_21,2022-02-17T10:50:57.443Z,,,,,,,,,,,,,,,,,54,,,,,,,,,,,,,,658.3459999940533,,response,,,,100,,,,,,,Space,keypress(Space),,,,,,,,"-- --- ---- --- ------ ----- ------- ---- -- --- ------- --<br>------- ---------- ------ -- ----- -- ----- -- ---- money,<br>--- ----- --- --- ------ -------- ----- --- ------ ----- --<br>----- ----- ---------- --- --- ------ ------ ---- -- ------<br>------- --- ------ ----- --- ---- ------- -- ---- --- --<br>------- ------",204264.5,204259.59999999404,203584.588,203587.09999999404,203601.254,204267.894,,21,"money,"
screen,html.Screen,2_1_1_1_22,2022-02-17T10:50:58.466Z,,,,,,,,,,,,,,,,,54,,,,,,,,,,,,,,1015.3059999880788,,response,,,,100,,,,,,,Space,keypress(Space),,,,,,,,-- --- ---- --- ------ ----- ------- ---- -- --- ------- --<br>------- ---------- ------ -- ----- -- ----- -- ---- ------<br>the ----- --- --- ------ -------- ----- --- ------ ----- --<br>----- ----- ---------- --- --- ------ ------ ---- -- ------<br>------- --- ------ ----- --- ---- ------- -- ---- --- --<br>------- ------,205287.79999998212,205283.19999998808,204251.228,204264.59999999404,204267.894,205301.186,,22,the
screen,html.Screen,2_1_1_1_23,2022-02-17T10:50:59.185Z,,,,,,,,,,,,,,,,,54,,,,,,,,,,,,,,701.4139999940526,,response,,,,100,,,,,,,Space,keypress(Space),,,,,,,,-- --- ---- --- ------ ----- ------- ---- -- --- ------- --<br>------- ---------- ------ -- ----- -- ----- -- ---- ------<br>--- state --- --- ------ -------- ----- --- ------ ----- --<br>----- ----- ---------- --- --- ------ ------ ---- -- ------<br>------- --- ------ ----- --- ---- ------- -- ---- --- --<br>------- ------,206006.59999999404,206002.59999999404,205284.52,205288,205301.186,206017.824,,23,state
screen,html.Screen,2_1_1_1_24,2022-02-17T10:50:59.792Z,,,,,,,,,,,,,,,,,54,,,,,,,,,,,,,,592.4759999821254,,response,,,,100,,,,,,,Space,keypress(Space),,,,,,,,-- --- ---- --- ------ ----- ------- ---- -- --- ------- --<br>------- ---------- ------ -- ----- -- ----- -- ---- ------<br>--- ----- cut --- ------ -------- ----- --- ------ ----- --<br>----- ----- ---------- --- --- ------ ------ ---- -- ------<br>------- --- ------ ----- --- ---- ------- -- ---- --- --<br>------- ------,206614,206610.29999998212,206001.158,206006.79999998212,206017.824,206617.8,,24,cut
screen,html.Screen,2_1_1_1_25,2022-02-17T10:51:00.300Z,,,,,,,,,,,,,,,,,54,,,,,,,,,,,,,,499.20000000001164,,response,,,,100,,,,,,,Space,keypress(Space),,,,,,,,-- --- ---- --- ------ ----- ------- ---- -- --- ------- --<br>------- ---------- ------ -- ----- -- ----- -- ---- ------<br>--- ----- --- the ------ -------- ----- --- ------ ----- --<br>----- ----- ---------- --- --- ------ ------ ---- -- ------<br>------- --- ------ ----- --- ---- ------- -- ---- --- --<br>------- ------,207121.29999998212,207117,206601.134,206614.09999999404,206617.8,207134.446,,25,the
screen,html.Screen,2_1_1_1_26,2022-02-17T10:51:00.906Z,,,,,,,,,,,,,,,,,54,,,,,,,,,,,,,,589.3539999821223,,response,,,,100,,,,,,,Space,keypress(Space),,,,,,,,-- --- ---- --- ------ ----- ------- ---- -- --- ------- --<br>------- ---------- ------ -- ----- -- ----- -- ---- ------<br>--- ----- --- --- bonds' -------- ----- --- ------ ----- --<br>----- ----- ---------- --- --- ------ ------ ---- -- ------<br>------- --- ------ ----- --- ---- ------- -- ---- --- --<br>------- ------,207728.29999998212,207723.79999998212,207117.78,207121.59999999404,207134.446,207734.422,,26,bonds'
screen,html.Screen,2_1_1_1_27,2022-02-17T10:51:01.380Z,,,,,,,,,,,,,,,,,54,,,,,,,,,,,,,,462.17799999404815,,response,,,,100,,,,,,,Space,keypress(Space),,,,,,,,-- --- ---- --- ------ ----- ------- ---- -- --- ------- --<br>------- ---------- ------ -- ----- -- ----- -- ---- ------<br>--- ----- --- --- ------ interest ----- --- ------ ----- --<br>----- ----- ---------- --- --- ------ ------ ---- -- ------<br>------- --- ------ ----- --- ---- ------- -- ---- --- --<br>------- ------,208201.29999998212,208196.59999999404,207717.756,207728.40000000596,207734.422,208217.736,,27,interest
screen,html.Screen,2_1_1_1_28,2022-02-17T10:51:01.806Z,,,,,,,,,,,,,,,,,54,,,,,,,,,,,,,,406.0639999821142,,response,,,,100,,,,,,,Space,keypress(Space),,,,,,,,-- --- ---- --- ------ ----- ------- ---- -- --- ------- --<br>------- ---------- ------ -- ----- -- ----- -- ---- ------<br>--- ----- --- --- ------ -------- rate. --- ------ ----- --<br>----- ----- ---------- --- --- ------ ------ ---- -- ------<br>------- --- ------ ----- --- ---- ------- -- ---- --- --<br>------- ------,208628,208623.79999998212,208201.07,208201.5,208217.736,208634.386,,28,rate.
screen,html.Screen,2_1_1_1_29,2022-02-17T10:51:02.369Z,,,,,,,,,,,,,,,,,54,,,,,,,,,,,,,,552.2139999940409,,response,,,,100,,,,,,,Space,keypress(Space),,,,,,,,-- --- ---- --- ------ ----- ------- ---- -- --- ------- --<br>------- ---------- ------ -- ----- -- ----- -- ---- ------<br>--- ----- --- --- ------ -------- ----- The ------ ----- --<br>----- ----- ---------- --- --- ------ ------ ---- -- ------<br>------- --- ------ ----- --- ---- ------- -- ---- --- --<br>------- ------,209190.79999998212,209186.59999999404,208617.72,208628.09999999404,208634.386,209201.03,,29,The
screen,html.Screen,2_1_1_1_30,2022-02-17T10:51:02.932Z,,,,,,,,,,,,,,,,,54,,,,,,,,,,,,,,547.9700000000012,,response,,,,100,,,,,,,Space,keypress(Space),,,,,,,,-- --- ---- --- ------ ----- ------- ---- -- --- ------- --<br>------- ---------- ------ -- ----- -- ----- -- ---- ------<br>--- ----- --- --- ------ -------- ----- --- market ----- --<br>----- ----- ---------- --- --- ------ ------ ---- -- ------<br>------- --- ------ ----- --- ---- ------- -- ---- --- --<br>------- ------,209754,209749,209184.364,209191.09999999404,209201.03,209767.674,,30,market
screen,html.Screen,2_1_1_1_31,2022-02-17T10:51:03.370Z,,,,,,,,,,,,,,,,,54,,,,,,,,,,,,,,419.92599999404047,,response,,,,100,,,,,,,Space,keypress(Space),,,,,,,,-- --- ---- --- ------ ----- ------- ---- -- --- ------- --<br>------- ---------- ------ -- ----- -- ----- -- ---- ------<br>--- ----- --- --- ------ -------- ----- --- ------ value --<br>----- ----- ---------- --- --- ------ ------ ---- -- ------<br>------- --- ------ ----- --- ---- ------- -- ---- --- --<br>------- ------,210191.69999998808,210187.59999999404,209751.008,209754.09999999404,209767.674,210200.99,,31,value
screen,html.Screen,2_1_1_1_32,2022-02-17T10:51:03.864Z,,,,,,,,,,,,,,,,,54,,,,,,,,,,,,,,480.2099999880884,,response,,,,100,,,,,,,Space,keypress(Space),,,,,,,,-- --- ---- --- ------ ----- ------- ---- -- --- ------- --<br>------- ---------- ------ -- ----- -- ----- -- ---- ------<br>--- ----- --- --- ------ -------- ----- --- ------ ----- of<br>----- ----- ---------- --- --- ------ ------ ---- -- ------<br>------- --- ------ ----- --- ---- ------- -- ---- --- --<br>------- ------,210685.40000000596,210681.19999998808,210184.324,210192,210200.99,210700.97,,32,of
screen,html.Screen,2_1_1_1_33,2022-02-17T10:51:04.326Z,,,,,,,,,,,,,,,,,54,,,,,,,,,,,,,,442.2299999880779,,response,,,,100,,,,,,,Space,keypress(Space),,,,,,,,-- --- ---- --- ------ ----- ------- ---- -- --- ------- --<br>------- ---------- ------ -- ----- -- ----- -- ---- ------<br>--- ----- --- --- ------ -------- ----- --- ------ ----- --<br>these ----- ---------- --- --- ------ ------ ---- -- ------<br>------- --- ------ ----- --- ---- ------- -- ---- --- --<br>------- ------,211148.09999999404,211143.19999998808,210684.304,210685.5,210700.97,211150.952,,33,these
screen,html.Screen,2_1_1_1_34,2022-02-17T10:51:04.698Z,,,,,,,,,,,,,,,,,54,,,,,,,,,,,,,,364.6479999940493,,response,,,,100,,,,,,,Space,keypress(Space),,,,,,,,-- --- ---- --- ------ ----- ------- ---- -- --- ------- --<br>------- ---------- ------ -- ----- -- ----- -- ---- ------<br>--- ----- --- --- ------ -------- ----- --- ------ ----- --<br>----- bonds ---------- --- --- ------ ------ ---- -- ------<br>------- --- ------ ----- --- ---- ------- -- ---- --- --<br>------- ------,211519.69999998808,211515.59999999404,211134.286,211148.19999998808,211150.952,211534.27,,34,bonds
screen,html.Screen,2_1_1_1_35,2022-02-17T10:51:05.529Z,,,,,,,,,,,,,,,,,54,,,,,,,,,,,,,,812.1300000059709,,response,,,,100,,,,,,,Space,keypress(Space),,,,,,,,"-- --- ---- --- ------ ----- ------- ---- -- --- ------- --<br>------- ---------- ------ -- ----- -- ----- -- ---- ------<br>--- ----- --- --- ------ -------- ----- --- ------ ----- --<br>----- ----- plummeted, --- --- ------ ------ ---- -- ------<br>------- --- ------ ----- --- ---- ------- -- ---- --- --<br>------- ------",212351,212346.40000000596,211517.604,211519.90000000596,211534.27,212367.57,,35,"plummeted,"
screen,html.Screen,2_1_1_1_36,2022-02-17T10:51:06.002Z,,,,,,,,,,,,,,,,,54,,,,,,,,,,,,,,452.1299999880721,,response,,,,100,,,,,,,Space,keypress(Space),,,,,,,,-- --- ---- --- ------ ----- ------- ---- -- --- ------- --<br>------- ---------- ------ -- ----- -- ----- -- ---- ------<br>--- ----- --- --- ------ -------- ----- --- ------ ----- --<br>----- ----- ---------- and --- ------ ------ ---- -- ------<br>------- --- ------ ----- --- ---- ------- -- ---- --- --<br>------- ------,212823.79999998212,212819.69999998808,212350.904,212351.19999998808,212367.57,212834.218,,36,and
screen,html.Screen,2_1_1_1_37,2022-02-17T10:51:06.544Z,,,,,,,,,,,,,,,,,54,,,,,,,,,,,,,,526.381999994046,,response,,,,100,,,,,,,Space,keypress(Space),,,,,,,,-- --- ---- --- ------ ----- ------- ---- -- --- ------- --<br>------- ---------- ------ -- ----- -- ----- -- ---- ------<br>--- ----- --- --- ------ -------- ----- --- ------ ----- --<br>----- ----- ---------- --- the ------ ------ ---- -- ------<br>------- --- ------ ----- --- ---- ------- -- ---- --- --<br>------- ------,213365.69999998808,213360.59999999404,212817.552,212824,212834.218,213367.53,,37,the
screen,html.Screen,2_1_1_1_38,2022-02-17T10:51:07.352Z,,,,,,,,,,,,,,,,,54,,,,,,,,,,,,,,802.1699999880802,,response,,,,100,,,,,,,Space,keypress(Space),,,,,,,,-- --- ---- --- ------ ----- ------- ---- -- --- ------- --<br>------- ---------- ------ -- ----- -- ----- -- ---- ------<br>--- ----- --- --- ------ -------- ----- --- ------ ----- --<br>----- ----- ---------- --- --- market ------ ---- -- ------<br>------- --- ------ ----- --- ---- ------- -- ---- --- --<br>------- ------,214173.69999998808,214169.69999998808,213350.864,213365.90000000596,213367.53,214184.164,,38,market
screen,html.Screen,2_1_1_1_39,2022-02-17T10:51:07.859Z,,,,,,,,,,,,,,,,,54,,,,,,,,,,,,,,492.33600000001024,,response,,,,100,,,,,,,Space,keypress(Space),,,,,,,,-- --- ---- --- ------ ----- ------- ---- -- --- ------- --<br>------- ---------- ------ -- ----- -- ----- -- ---- ------<br>--- ----- --- --- ------ -------- ----- --- ------ ----- --<br>----- ----- ---------- --- --- ------ became ---- -- ------<br>------- --- ------ ----- --- ---- ------- -- ---- --- --<br>------- ------,214680.69999998808,214676.5,214167.498,214173.90000000596,214184.164,214684.144,,39,became
screen,html.Screen,2_1_1_1_40,2022-02-17T10:51:08.343Z,,,,,,,,,,,,,,,,,54,,,,,,,,,,,,,,476.25600000596023,,response,,,,100,,,,,,,Space,keypress(Space),,,,,,,,-- --- ---- --- ------ ----- ------- ---- -- --- ------- --<br>------- ---------- ------ -- ----- -- ----- -- ---- ------<br>--- ----- --- --- ------ -------- ----- --- ------ ----- --<br>----- ----- ---------- --- --- ------ ------ wary -- ------<br>------- --- ------ ----- --- ---- ------- -- ---- --- --<br>------- ------,215164.79999998212,215160.40000000596,214667.478,214680.90000000596,214684.144,215167.458,,40,wary
screen,html.Screen,2_1_1_1_41,2022-02-17T10:51:08.894Z,,,,,,,,,,,,,,,,,54,,,,,,,,,,,,,,544.1419999940263,,response,,,,100,,,,,,,Space,keypress(Space),,,,,,,,-- --- ---- --- ------ ----- ------- ---- -- --- ------- --<br>------- ---------- ------ -- ----- -- ----- -- ---- ------<br>--- ----- --- --- ------ -------- ----- --- ------ ----- --<br>----- ----- ---------- --- --- ------ ------ ---- of ------<br>------- --- ------ ----- --- ---- ------- -- ---- --- --<br>------- ------,215715.90000000596,215711.59999999404,215150.792,215165.09999999404,215167.458,215717.436,,41,of
screen,html.Screen,2_1_1_1_42,2022-02-17T10:51:09.354Z,,,,,,,,,,,,,,,,,54,,,,,,,,,,,,,,454.1639999940526,,response,,,,100,,,,,,,Space,keypress(Space),,,,,,,,-- --- ---- --- ------ ----- ------- ---- -- --- ------- --<br>------- ---------- ------ -- ----- -- ----- -- ---- ------<br>--- ----- --- --- ------ -------- ----- --- ------ ----- --<br>----- ----- ---------- --- --- ------ ------ ---- -- French<br>------- --- ------ ----- --- ---- ------- -- ---- --- --<br>------- ------,216175.79999998212,216171.59999999404,215700.77,215716,215717.436,216184.084,,42,French
screen,html.Screen,2_1_1_1_43,2022-02-17T10:51:09.761Z,,,,,,,,,,,,,,,,,54,,,,,,,,,,,,,,393.8160000059579,,response,,,,100,,,,,,,Space,keypress(Space),,,,,,,,-- --- ---- --- ------ ----- ------- ---- -- --- ------- --<br>------- ---------- ------ -- ----- -- ----- -- ---- ------<br>--- ----- --- --- ------ -------- ----- --- ------ ----- --<br>----- ----- ---------- --- --- ------ ------ ---- -- ------<br>credit. --- ------ ----- --- ---- ------- -- ---- --- --<br>------- ------,216582.59999999404,216577.90000000596,216167.418,216175.90000000596,216184.084,216600.734,,43,credit.
screen,html.Screen,2_1_1_1_44,2022-02-17T10:51:10.705Z,,,,,,,,,,,,,,,,,54,,,,,,,,,,,,,,921.5659999821219,,response,,,,100,,,,,,,Space,keypress(Space),,,,,,,,-- --- ---- --- ------ ----- ------- ---- -- --- ------- --<br>------- ---------- ------ -- ----- -- ----- -- ---- ------<br>--- ----- --- --- ------ -------- ----- --- ------ ----- --<br>----- ----- ---------- --- --- ------ ------ ---- -- ------<br>------- The ------ ----- --- ---- ------- -- ---- --- --<br>------- ------,217526.59999999404,217522.29999998212,216584.068,216582.90000000596,216600.734,217534.03,,44,The
screen,html.Screen,2_1_1_1_45,2022-02-17T10:51:11.189Z,,,,,,,,,,,,,,,,,54,,,,,,,,,,,,,,471.97000000000116,,response,,,,100,,,,,,,Space,keypress(Space),,,,,,,,-- --- ---- --- ------ ----- ------- ---- -- --- ------- --<br>------- ---------- ------ -- ----- -- ----- -- ---- ------<br>--- ----- --- --- ------ -------- ----- --- ------ ----- --<br>----- ----- ---------- --- --- ------ ------ ---- -- ------<br>------- --- French ----- --- ---- ------- -- ---- --- --<br>------- ------,218010.19999998808,218006,217517.364,217526.69999998808,217534.03,218017.344,,45,French
screen,html.Screen,2_1_1_1_46,2022-02-17T10:51:11.628Z,,,,,,,,,,,,,,,,,54,,,,,,,,,,,,,,428.25599999402766,,response,,,,100,,,,,,,Space,keypress(Space),,,,,,,,-- --- ---- --- ------ ----- ------- ---- -- --- ------- --<br>------- ---------- ------ -- ----- -- ----- -- ---- ------<br>--- ----- --- --- ------ -------- ----- --- ------ ----- --<br>----- ----- ---------- --- --- ------ ------ ---- -- ------<br>------- --- ------ state --- ---- ------- -- ---- --- --<br>------- ------,218449.69999998808,218445.59999999404,218000.678,218010.40000000596,218017.344,218467.326,,46,state
screen,html.Screen,2_1_1_1_47,2022-02-17T10:51:12.089Z,,,,,,,,,,,,,,,,,54,,,,,,,,,,,,,,439.4739999821177,,response,,,,100,,,,,,,Space,keypress(Space),,,,,,,,-- --- ---- --- ------ ----- ------- ---- -- --- ------- --<br>------- ---------- ------ -- ----- -- ----- -- ---- ------<br>--- ----- --- --- ------ -------- ----- --- ------ ----- --<br>----- ----- ---------- --- --- ------ ------ ---- -- ------<br>------- --- ------ ----- was ---- ------- -- ---- --- --<br>------- ------,218911,218906.79999998212,218450.66,218449.90000000596,218467.326,218917.308,,47,was
screen,html.Screen,2_1_1_1_48,2022-02-17T10:51:12.573Z,,,,,,,,,,,,,,,,,54,,,,,,,,,,,,,,472.9919999821286,,response,,,,100,,,,,,,Space,keypress(Space),,,,,,,,-- --- ---- --- ------ ----- ------- ---- -- --- ------- --<br>------- ---------- ------ -- ----- -- ----- -- ---- ------<br>--- ----- --- --- ------ -------- ----- --- ------ ----- --<br>----- ----- ---------- --- --- ------ ------ ---- -- ------<br>------- --- ------ ----- --- left ------- -- ---- --- --<br>------- ------,219394.5,219390.29999998212,218900.642,218911.29999998212,218917.308,219400.622,,48,left
screen,html.Screen,2_1_1_1_49,2022-02-17T10:51:13.012Z,,,,,,,,,,,,,,,,,54,,,,,,,,,,,,,,428.1779999821156,,response,,,,100,,,,,,,Space,keypress(Space),,,,,,,,-- --- ---- --- ------ ----- ------- ---- -- --- ------- --<br>------- ---------- ------ -- ----- -- ----- -- ---- ------<br>--- ----- --- --- ------ -------- ----- --- ------ ----- --<br>----- ----- ---------- --- --- ------ ------ ---- -- ------<br>------- --- ------ ----- --- ---- without -- ---- --- --<br>------- ------,219834,219828.79999998212,219383.956,219394.59999999404,219400.622,219850.604,,49,without
screen,html.Screen,2_1_1_1_50,2022-02-17T10:51:13.440Z,,,,,,,,,,,,,,,,,54,,,,,,,,,,,,,,406.095999988087,,response,,,,100,,,,,,,Space,keypress(Space),,,,,,,,-- --- ---- --- ------ ----- ------- ---- -- --- ------- --<br>------- ---------- ------ -- ----- -- ----- -- ---- ------<br>--- ----- --- --- ------ -------- ----- --- ------ ----- --<br>----- ----- ---------- --- --- ------ ------ ---- -- ------<br>------- --- ------ ----- --- ---- ------- an ---- --- --<br>------- ------,220261.69999998808,220256.69999998808,219833.938,219834.19999998808,219850.604,220267.254,,50,an
screen,html.Screen,2_1_1_1_51,2022-02-17T10:51:13.834Z,,,,,,,,,,,,,,,,,54,,,,,,,,,,,,,,383.4459999880928,,response,,,,100,,,,,,,Space,keypress(Space),,,,,,,,-- --- ---- --- ------ ----- ------- ---- -- --- ------- --<br>------- ---------- ------ -- ----- -- ----- -- ---- ------<br>--- ----- --- --- ------ -------- ----- --- ------ ----- --<br>----- ----- ---------- --- --- ------ ------ ---- -- ------<br>------- --- ------ ----- --- ---- ------- -- easy --- --<br>------- ------,220655.29999998212,220650.69999998808,220250.588,220261.90000000596,220267.254,220667.238,,51,easy
screen,html.Screen,2_1_1_1_52,2022-02-17T10:51:14.305Z,,,,,,,,,,,,,,,,,54,,,,,,,,,,,,,,455.5619999821065,,response,,,,100,,,,,,,Space,keypress(Space),,,,,,,,-- --- ---- --- ------ ----- ------- ---- -- --- ------- --<br>------- ---------- ------ -- ----- -- ----- -- ---- ------<br>--- ----- --- --- ------ -------- ----- --- ------ ----- --<br>----- ----- ---------- --- --- ------ ------ ---- -- ------<br>------- --- ------ ----- --- ---- ------- -- ---- way --<br>------- ------,221127.19999998808,221122.79999998212,220650.572,220655.5,220667.238,221133.886,,52,way
screen,html.Screen,2_1_1_1_53,2022-02-17T10:51:14.721Z,,,,,,,,,,,,,,,,,54,,,,,,,,,,,,,,405.01400000596186,,response,,,,100,,,,,,,Space,keypress(Space),,,,,,,,-- --- ---- --- ------ ----- ------- ---- -- --- ------- --<br>------- ---------- ------ -- ----- -- ----- -- ---- ------<br>--- ----- --- --- ------ -------- ----- --- ------ ----- --<br>----- ----- ---------- --- --- ------ ------ ---- -- ------<br>------- --- ------ ----- --- ---- ------- -- ---- --- of<br>------- ------,221543,221538.90000000596,221117.22,221127.29999998212,221133.886,221550.536,,53,of
screen,html.Screen,2_1_1_1_54,2022-02-17T10:51:15.127Z,,,,,,,,,,,,,,,,,54,,,,,,,,,,,,,,393.7639999821258,,response,,,,100,,,,,,,Space,keypress(Space),,,,,,,,-- --- ---- --- ------ ----- ------- ---- -- --- ------- --<br>------- ---------- ------ -- ----- -- ----- -- ---- ------<br>--- ----- --- --- ------ -------- ----- --- ------ ----- --<br>----- ----- ---------- --- --- ------ ------ ---- -- ------<br>------- --- ------ ----- --- ---- ------- -- ---- --- --<br>raising ------,221948.5,221944.29999998212,221533.87,221543.09999999404,221550.536,221950.52,,54,raising
screen,html.Screen,2_1_1_1_55,2022-02-17T10:51:15.732Z,,,,,,,,,,,,,,,,,54,,,,,,,,,,,,,,599.3800000059709,,response,,,,100,,,,,,,Space,keypress(Space),,,,,,,,-- --- ---- --- ------ ----- ------- ---- -- --- ------- --<br>------- ---------- ------ -- ----- -- ----- -- ---- ------<br>--- ----- --- --- ------ -------- ----- --- ------ ----- --<br>----- ----- ---------- --- --- ------ ------ ---- -- ------<br>------- --- ------ ----- --- ---- ------- -- ---- --- --<br>------- money.,222554.09999999404,222549.90000000596,221933.854,221948.69999998808,221950.52,222567.162,,55,money.
Item 100,flow.Loop,2_1_1_1,2022-02-17T10:51:15.733Z,,,,,,,,,,,,,,,,,,,,,,,,,,,,,,,35131.33200000596,,completion,,,,,C,,,,,,,,,,,silence,,,,,222554.69999998808,222549.90000000596,187401.902,187404.40000000596,187418.568,222567.162,,,
Question 1,html.Screen,2_1_1_2,2022-02-17T10:51:20.658Z,,,,,,,,,,,,,,,,,,,,,,,,,,,,false,TRUE,,4910.537999988068,,response,,,,100,C,,,,,,FALSE,click #choice-2,,,,silence,,,,,227479.90000000596,227477.69999998808,222550.496,222554.90000000596,222567.162,227483.632,,,
Question 2,html.Screen,2_1_1_3,2022-02-17T10:51:22.872Z,,,,,,,,,,,,,,,,,,,,,,,,,,,,true,FALSE,,2208.268000005948,,response,,,,100,C,,,,,,FALSE,click #choice-2,,,,silence,,,,,229694.19999998808,229691.90000000596,227466.966,227480.09999999404,227483.632,229700.21,,,
Item 100,flow.Sequence,2_1_1,2022-02-17T10:51:22.873Z,,,,,,,,,,,,,,,,,,,,,,,,,,,,,,,52272.93200000597,,completion,,,,,,,,,,,,,,,,,,,,,229694.5,229691.90000000596,177402.302,177406.59999999404,177418.968,229700.21,,,
End of Practice,html.Page,2_1_2,2022-02-17T10:51:26.564Z,,,,,,,,,,,,,,,,,,,,,,,,,,,,,,,3684.989999988087,,form submission,,,,,,,,,,,,,,,,,,,,,233385.69999998808,233385.19999998808,229683.544,229694.59999999404,229700.21,233400.062,,,
Practice,flow.Sequence,2_1,2022-02-17T10:51:26.564Z,,,,,,,,,,,,,,,,,,,,,,,,,,,,,,,112797.29199998808,,completion,,,,,,,,,,,,,,,,,,,,,233386,233385.19999998808,120571.242,120574.5,120587.908,233400.062,,,
Trap_instruction,html.Page,2_2_0,2022-02-17T10:51:29.330Z,,,,,,,,,,,,,,,,,,,,,,,,,,,,,,,2751.338000005955,,form submission,,,,,,,,,,,,,,,,,,,,,236151.69999998808,236151.40000000596,233383.396,233386.09999999404,233400.062,236166.618,,,
trap_trial,html.Screen,2_2_1,2022-02-17T10:51:34.156Z,,,,,,,,,,,,,,,,,,,,,,,,,,,,true,1,,4808.981999994052,,response,,,,,,,,,,,1,click #choice-1,,,,,,,,,240977.69999998808,240975.59999999404,236149.952,236151.69999998808,236166.618,240983.092,,,
end of trap trial,html.Page,2_2_2,2022-02-17T10:51:35.712Z,,,,,,,,,,,,,,,,,,,,,,,,,,,,,,,1549.9079999999958,,form submission,,,,,,,,,,,,,,,,,,,,,242533.29999998212,242533,240966.426,240977.90000000596,240983.092,242533.03,,,
Trap 1,flow.Sequence,2_2,2022-02-17T10:51:35.712Z,,,,,,,,,,,,,,,,,,,,,,,,,,,,,,,9132.937999999995,,completion,,,,,,,,,,,,,,,,,,,,,242533.59999999404,242533,233383.396,233386.09999999404,233400.062,242533.03,,,
Standby,html.Page,2_3_0,2022-02-17T10:51:43.696Z,,,,,,,,,,,,,,,,,,,,,,,,,,,,,,,7999.679999999993,,timeout,,,,,,,,,,,,,,,,,,,,,250518,250516.044,242516.364,242533.69999998808,242533.03,250532.71,,,
Holding screen,html.Screen,2_3_1_0_0,2022-02-17T10:51:50.697Z,,,,,,,,,,,,,,,,,,,,,,,,,,,,,,,6999.720000000001,,timeout,,,,,,,,,,,,,,,,,,,,,257518.29999998212,257515.764,250516.044,250518.19999998808,250532.71,257532.43,,,
screen,html.Screen,2_3_1_0_1_0,2022-02-17T10:51:53.095Z,,,,,,,,,,,,,,,,,2,,,,,,,,,,,,,,2380.1699999940465,,response,,,,1,C,,,,,,Space,keypress(Space),,,,instrumental,,,,Two ---- ------ --- ------- ---------- ------- ----------<br>--- --------- --- ----------- ------- ----- ------- ---<br>--------- ---- -- --- ---- -- --------- -- ---- -------<br>-- --------- ------ --- ----- ------ ---- --- --------- --<br>------ - ---- -- --- ----------- ------- ---- ----- -----<br>--- -------- - ------ ---- -- ----- ---- --- --- -----------<br>-- -------,259916.5,259912.59999999404,257515.764,257518.59999999404,257532.43,259932.334,,0,Two
screen,html.Screen,2_3_1_0_1_1,2022-02-17T10:51:53.555Z,,,,,,,,,,,,,,,,,2,,,,,,,,,,,,,,439.8659999880765,,response,,,,1,C,,,,,,Space,keypress(Space),,,,instrumental,,,,--- days ------ --- ------- ---------- ------- ----------<br>--- --------- --- ----------- ------- ----- ------- ---<br>--------- ---- -- --- ---- -- --------- -- ---- -------<br>-- --------- ------ --- ----- ------ ---- --- --------- --<br>------ - ---- -- --- ----------- ------- ---- ----- -----<br>--- -------- - ------ ---- -- ----- ---- --- --- -----------<br>-- -------,260376.40000000596,260372.19999998808,259915.668,259916.59999999404,259932.334,260382.316,,1,days
screen,html.Screen,2_3_1_0_1_2,2022-02-17T10:51:53.960Z,,,,,,,,,,,,,,,,,2,,,,,,,,,,,,,,395.88399998808745,,response,,,,1,C,,,,,,Space,keypress(Space),,,,instrumental,,,,"--- ---- later, --- ------- ---------- ------- ----------<br>--- --------- --- ----------- ------- ----- ------- ---<br>--------- ---- -- --- ---- -- --------- -- ---- -------<br>-- --------- ------ --- ----- ------ ---- --- --------- --<br>------ - ---- -- --- ----------- ------- ---- ----- -----<br>--- -------- - ------ ---- -- ----- ---- --- --- -----------<br>-- -------",260782.29999998212,260778.19999998808,260365.65,260376.59999999404,260382.316,260798.966,,2,"later,"
screen,html.Screen,2_3_1_0_1_3,2022-02-17T10:51:54.378Z,,,,,,,,,,,,,,,,,2,,,,,,,,,,,,,,396.13399999405374,,response,,,,1,C,,,,,,Space,keypress(Space),,,,instrumental,,,,--- ---- ------ the ------- ---------- ------- ----------<br>--- --------- --- ----------- ------- ----- ------- ---<br>--------- ---- -- --- ---- -- --------- -- ---- -------<br>-- --------- ------ --- ----- ------ ---- --- --------- --<br>------ - ---- -- --- ----------- ------- ---- ----- -----<br>--- -------- - ------ ---- -- ----- ---- --- --- -----------<br>-- -------,261199.90000000596,261195.09999999404,260782.3,260782.5,260798.966,261215.616,,3,the
screen,html.Screen,2_3_1_0_1_4,2022-02-17T10:51:54.771Z,,,,,,,,,,,,,,,,,2,,,,,,,,,,,,,,373.1839999821095,,response,,,,1,C,,,,,,Space,keypress(Space),,,,instrumental,,,,--- ---- ------ --- British ---------- ------- ----------<br>--- --------- --- ----------- ------- ----- ------- ---<br>--------- ---- -- --- ---- -- --------- -- ---- -------<br>-- --------- ------ --- ----- ------ ---- --- --------- --<br>------ - ---- -- --- ----------- ------- ---- ----- -----<br>--- -------- - ------ ---- -- ----- ---- --- --- -----------<br>-- -------,261593,261588.79999998212,261198.95,261200,261215.616,261598.934,,4,British
screen,html.Screen,2_3_1_0_1_5,2022-02-17T10:51:55.188Z,,,,,,,,,,,,,,,,,2,,,,,,,,,,,,,,407.16599999403115,,response,,,,1,C,,,,,,Space,keypress(Space),,,,instrumental,,,,--- ---- ------ --- ------- astronomer ------- ----------<br>--- --------- --- ----------- ------- ----- ------- ---<br>--------- ---- -- --- ---- -- --------- -- ---- -------<br>-- --------- ------ --- ----- ------ ---- --- --------- --<br>------ - ---- -- --- ----------- ------- ---- ----- -----<br>--- -------- - ------ ---- -- ----- ---- --- --- -----------<br>-- -------,262010.29999998212,262006.09999999404,261582.268,261593.09999999404,261598.934,262015.584,,5,astronomer
screen,html.Screen,2_3_1_0_1_6,2022-02-17T10:51:55.693Z,,,,,,,,,,,,,,,,,2,,,,,,,,,,,,,,495.6159999880765,,response,,,,1,C,,,,,,Space,keypress(Space),,,,instrumental,,,,--- ---- ------ --- ------- ---------- Richard ----------<br>--- --------- --- ----------- ------- ----- ------- ---<br>--------- ---- -- --- ---- -- --------- -- ---- -------<br>-- --------- ------ --- ----- ------ ---- --- --------- --<br>------ - ---- -- --- ----------- ------- ---- ----- -----<br>--- -------- - ------ ---- -- ----- ---- --- --- -----------<br>-- -------,262515.1999999881,262511.1999999881,261998.918,262010.40000000596,262015.584,262532.23,,6,Richard
screen,html.Screen,2_3_1_0_1_7,2022-02-17T10:51:56.166Z,,,,,,,,,,,,,,,,,2,,,,,,,,,,,,,,451.36999999405816,,response,,,,1,C,,,,,,Space,keypress(Space),,,,instrumental,,,,--- ---- ------ --- ------- ---------- ------- Carrington<br>--- --------- --- ----------- ------- ----- ------- ---<br>--------- ---- -- --- ---- -- --------- -- ---- -------<br>-- --------- ------ --- ----- ------ ---- --- --------- --<br>------ - ---- -- --- ----------- ------- ---- ----- -----<br>--- -------- - ------ ---- -- ----- ---- --- --- -----------<br>-- -------,262987.59999999404,262983.59999999404,262515.564,262515.2999999821,262532.23,262998.878,,7,Carrington
screen,html.Screen,2_3_1_0_1_8,2022-02-17T10:51:56.615Z,,,,,,,,,,,,,,,,,2,,,,,,,,,,,,,,434.1219999999739,,response,,,,1,C,,,,,,Space,keypress(Space),,,,instrumental,,,,--- ---- ------ --- ------- ---------- ------- ----------<br>was --------- --- ----------- ------- ----- ------- ---<br>--------- ---- -- --- ---- -- --------- -- ---- -------<br>-- --------- ------ --- ----- ------ ---- --- --------- --<br>------ - ---- -- --- ----------- ------- ---- ----- -----<br>--- -------- - ------ ---- -- ----- ---- --- --- -----------<br>-- -------,263437.2999999821,263433,262982.212,262987.7999999821,262998.878,263448.86,,8,was
screen,html.Screen,2_3_1_0_1_9,2022-02-17T10:51:57.100Z,,,,,,,,,,,,,,,,,2,,,,,,,,,,,,,,468.7399999940535,,response,,,,1,C,,,,,,Space,keypress(Space),,,,instrumental,,,,--- ---- ------ --- ------- ---------- ------- ----------<br>--- observing --- ----------- ------- ----- ------- ---<br>--------- ---- -- --- ---- -- --------- -- ---- -------<br>-- --------- ------ --- ----- ------ ---- --- --------- --<br>------ - ---- -- --- ----------- ------- ---- ----- -----<br>--- -------- - ------ ---- -- ----- ---- --- --- -----------<br>-- -------,263921.59999999404,263917.59999999404,263432.194,263437.5,263448.86,263932.174,,9,observing
screen,html.Screen,2_3_1_0_1_10,2022-02-17T10:51:57.527Z,,,,,,,,,,,,,,,,,2,,,,,,,,,,,,,,412.82600000000093,,response,,,,1,C,,,,,,Space,keypress(Space),,,,instrumental,,,,--- ---- ------ --- ------- ---------- ------- ----------<br>--- --------- the ----------- ------- ----- ------- ---<br>--------- ---- -- --- ---- -- --------- -- ---- -------<br>-- --------- ------ --- ----- ------ ---- --- --------- --<br>------ - ---- -- --- ----------- ------- ---- ----- -----<br>--- -------- - ------ ---- -- ----- ---- --- --- -----------<br>-- -------,264348.7999999821,264345,263915.508,263921.7999999821,263932.174,264365.49,,10,the
screen,html.Screen,2_3_1_0_1_11,2022-02-17T10:51:57.953Z,,,,,,,,,,,,,,,,,2,,,,,,,,,,,,,,406.5100000000093,,response,,,,1,C,,,,,,Space,keypress(Space),,,,instrumental,,,,--- ---- ------ --- ------- ---------- ------- ----------<br>--- --------- --- interesting ------- ----- ------- ---<br>--------- ---- -- --- ---- -- --------- -- ---- -------<br>-- --------- ------ --- ----- ------ ---- --- --------- --<br>------ - ---- -- --- ----------- ------- ---- ----- -----<br>--- -------- - ------ ---- -- ----- ---- --- --- -----------<br>-- -------,264775.09999999404,264772,264348.824,264348.7999999821,264365.49,264782.14,,11,interesting
screen,html.Screen,2_3_1_0_1_12,2022-02-17T10:51:58.450Z,,,,,,,,,,,,,,,,,2,,,,,,,,,,,,,,485.2600000059465,,response,,,,1,C,,,,,,Space,keypress(Space),,,,instrumental,,,,--- ---- ------ --- ------- ---------- ------- ----------<br>--- --------- --- ----------- sunspot ----- ------- ---<br>--------- ---- -- --- ---- -- --------- -- ---- -------<br>-- --------- ------ --- ----- ------ ---- --- --------- --<br>------ - ---- -- --- ----------- ------- ---- ----- -----<br>--- -------- - ------ ---- -- ----- ---- --- --- -----------<br>-- -------,265271.6999999881,265267.40000000596,264765.474,264775.2999999821,264782.14,265282.12,,12,sunspot
screen,html.Screen,2_3_1_0_1_13,2022-02-17T10:51:59.046Z,,,,,,,,,,,,,,,,,2,,,,,,,,,,,,,,581.6799999821233,,response,,,,1,C,,,,,,Space,keypress(Space),,,,instrumental,,,,--- ---- ------ --- ------- ---------- ------- ----------<br>--- --------- --- ----------- ------- group ------- ---<br>--------- ---- -- --- ---- -- --------- -- ---- -------<br>-- --------- ------ --- ----- ------ ---- --- --------- --<br>------ - ---- -- --- ----------- ------- ---- ----- -----<br>--- -------- - ------ ---- -- ----- ---- --- --- -----------<br>-- -------,265868.2999999821,265863.7999999821,265265.454,265271.90000000596,265282.12,265882.096,,13,group
screen,html.Screen,2_3_1_0_1_14,2022-02-17T10:51:59.518Z,,,,,,,,,,,,,,,,,2,,,,,,,,,,,,,,454.00399999402,,response,,,,1,C,,,,,,Space,keypress(Space),,,,instrumental,,,,--- ---- ------ --- ------- ---------- ------- ----------<br>--- --------- --- ----------- ------- ----- through ---<br>--------- ---- -- --- ---- -- --------- -- ---- -------<br>-- --------- ------ --- ----- ------ ---- --- --------- --<br>------ - ---- -- --- ----------- ------- ---- ----- -----<br>--- -------- - ------ ---- -- ----- ---- --- --- -----------<br>-- -------,266339.90000000596,266336.09999999404,265865.43,265868.40000000596,265882.096,266348.744,,14,through
screen,html.Screen,2_3_1_0_1_15,2022-02-17T10:52:00.002Z,,,,,,,,,,,,,,,,,2,,,,,,,,,,,,,,470.955999988073,,response,,,,1,C,,,,,,Space,keypress(Space),,,,instrumental,,,,--- ---- ------ --- ------- ---------- ------- ----------<br>--- --------- --- ----------- ------- ----- ------- his<br>--------- ---- -- --- ---- -- --------- -- ---- -------<br>-- --------- ------ --- ----- ------ ---- --- --------- --<br>------ - ---- -- --- ----------- ------- ---- ----- -----<br>--- -------- - ------ ---- -- ----- ---- --- --- -----------<br>-- -------,266823.7999999821,266819.6999999881,266332.078,266340,266348.744,266832.058,,15,his
screen,html.Screen,2_3_1_0_1_16,2022-02-17T10:52:00.700Z,,,,,,,,,,,,,,,,,2,,,,,,,,,,,,,,685.64199998806,,response,,,,1,C,,,,,,Space,keypress(Space),,,,instrumental,,,,--- ---- ------ --- ------- ---------- ------- ----------<br>--- --------- --- ----------- ------- ----- ------- ---<br>telescope ---- -- --- ---- -- --------- -- ---- -------<br>-- --------- ------ --- ----- ------ ---- --- --------- --<br>------ - ---- -- --- ----------- ------- ---- ----- -----<br>--- -------- - ------ ---- -- ----- ---- --- --- -----------<br>-- -------,267522.09999999404,267517.6999999881,266815.392,266823.90000000596,266832.058,267532.03,,16,telescope
screen,html.Screen,2_3_1_0_1_17,2022-02-17T10:52:01.117Z,,,,,,,,,,,,,,,,,2,,,,,,,,,,,,,,403.46999999997206,,response,,,,1,C,,,,,,Space,keypress(Space),,,,instrumental,,,,--- ---- ------ --- ------- ---------- ------- ----------<br>--- --------- --- ----------- ------- ----- ------- ---<br>--------- when -- --- ---- -- --------- -- ---- -------<br>-- --------- ------ --- ----- ------ ---- --- --------- --<br>------ - ---- -- --- ----------- ------- ---- ----- -----<br>--- -------- - ------ ---- -- ----- ---- --- --- -----------<br>-- -------,267939.40000000596,267935.5,267515.364,267522.1999999881,267532.03,267948.68,,17,when
screen,html.Screen,2_3_1_0_1_18,2022-02-17T10:52:01.520Z,,,,,,,,,,,,,,,,,2,,,,,,,,,,,,,,389.6199999821256,,response,,,,1,C,,,,,,Space,keypress(Space),,,,instrumental,,,,--- ---- ------ --- ------- ---------- ------- ----------<br>--- --------- --- ----------- ------- ----- ------- ---<br>--------- ---- he --- ---- -- --------- -- ---- -------<br>-- --------- ------ --- ----- ------ ---- --- --------- --<br>------ - ---- -- --- ----------- ------- ---- ----- -----<br>--- -------- - ------ ---- -- ----- ---- --- --- -----------<br>-- -------,268342.09999999404,268338.2999999821,267932.014,267939.40000000596,267948.68,268348.664,,18,he
screen,html.Screen,2_3_1_0_1_19,2022-02-17T10:52:01.870Z,,,,,,,,,,,,,,,,,2,,,,,,,,,,,,,,338.7360000059707,,response,,,,1,C,,,,,,Space,keypress(Space),,,,instrumental,,,,--- ---- ------ --- ------- ---------- ------- ----------<br>--- --------- --- ----------- ------- ----- ------- ---<br>--------- ---- -- saw ---- -- --------- -- ---- -------<br>-- --------- ------ --- ----- ------ ---- --- --------- --<br>------ - ---- -- --- ----------- ------- ---- ----- -----<br>--- -------- - ------ ---- -- ----- ---- --- --- -----------<br>-- -------,268691.5,268687.40000000596,268331.998,268342.2999999821,268348.664,268698.65,,19,saw
screen,html.Screen,2_3_1_0_1_20,2022-02-17T10:52:02.185Z,,,,,,,,,,,,,,,,,2,,,,,,,,,,,,,,303.8499999999767,,response,,,,1,C,,,,,,Space,keypress(Space),,,,instrumental,,,,--- ---- ------ --- ------- ---------- ------- ----------<br>--- --------- --- ----------- ------- ----- ------- ---<br>--------- ---- -- --- what -- --------- -- ---- -------<br>-- --------- ------ --- ----- ------ ---- --- --------- --<br>------ - ---- -- --- ----------- ------- ---- ----- -----<br>--- -------- - ------ ---- -- ----- ---- --- --- -----------<br>-- -------,269006.59999999404,269002.5,268681.984,268691.6999999881,268698.65,269015.304,,20,what
screen,html.Screen,2_3_1_0_1_21,2022-02-17T10:52:02.522Z,,,,,,,,,,,,,,,,,2,,,,,,,,,,,,,,324.7959999940358,,response,,,,1,C,,,,,,Space,keypress(Space),,,,instrumental,,,,--- ---- ------ --- ------- ---------- ------- ----------<br>--- --------- --- ----------- ------- ----- ------- ---<br>--------- ---- -- --- ---- he --------- -- ---- -------<br>-- --------- ------ --- ----- ------ ---- --- --------- --<br>------ - ---- -- --- ----------- ------- ---- ----- -----<br>--- -------- - ------ ---- -- ----- ---- --- --- -----------<br>-- -------,269344.1999999881,269340.09999999404,268998.638,269006.7999999821,269015.304,269348.624,,21,he
screen,html.Screen,2_3_1_0_1_22,2022-02-17T10:52:02.893Z,,,,,,,,,,,,,,,,,2,,,,,,,,,,,,,,362.4759999940288,,response,,,,1,C,,,,,,Space,keypress(Space),,,,instrumental,,,,--- ---- ------ --- ------- ---------- ------- ----------<br>--- --------- --- ----------- ------- ----- ------- ---<br>--------- ---- -- --- ---- -- described -- ---- -------<br>-- --------- ------ --- ----- ------ ---- --- --------- --<br>------ - ---- -- --- ----------- ------- ---- ----- -----<br>--- -------- - ------ ---- -- ----- ---- --- --- -----------<br>-- -------,269715,269711.09999999404,269331.958,269344.40000000596,269348.624,269731.942,,22,described
screen,html.Screen,2_3_1_0_1_23,2022-02-17T10:52:03.243Z,,,,,,,,,,,,,,,,,2,,,,,,,,,,,,,,327.95800000597956,,response,,,,1,C,,,,,,Space,keypress(Space),,,,instrumental,,,,--- ---- ------ --- ------- ---------- ------- ----------<br>--- --------- --- ----------- ------- ----- ------- ---<br>--------- ---- -- --- ---- -- --------- as ---- -------<br>-- --------- ------ --- ----- ------ ---- --- --------- --<br>------ - ---- -- --- ----------- ------- ---- ----- -----<br>--- -------- - ------ ---- -- ----- ---- --- --- -----------<br>-- -------,270065.40000000596,270059.90000000596,269715.276,269715.09999999404,269731.942,270081.928,,23,as
screen,html.Screen,2_3_1_0_1_24,2022-02-17T10:52:03.601Z,,,,,,,,,,,,,,,,,2,,,,,,,,,,,,,,337.47200000594603,,response,,,,1,C,,,,,,Space,keypress(Space),,,,instrumental,,,,"--- ---- ------ --- ------- ---------- ------- ----------<br>--- --------- --- ----------- ------- ----- ------- ---<br>--------- ---- -- --- ---- -- --------- -- ""two -------<br>-- --------- ------ --- ----- ------ ---- --- --------- --<br>------ - ---- -- --- ----------- ------- ---- ----- -----<br>--- -------- - ------ ---- -- ----- ---- --- --- -----------<br>-- -------",270423.09999999404,270419.40000000596,270065.262,270065.5,270081.928,270431.914,,24,"""two"
screen,html.Screen,2_3_1_0_1_25,2022-02-17T10:52:04.197Z,,,,,,,,,,,,,,,,,2,,,,,,,,,,,,,,582.4860000059707,,response,,,,1,C,,,,,,Space,keypress(Space),,,,instrumental,,,,--- ---- ------ --- ------- ---------- ------- ----------<br>--- --------- --- ----------- ------- ----- ------- ---<br>--------- ---- -- --- ---- -- --------- -- ---- patches<br>-- --------- ------ --- ----- ------ ---- --- --------- --<br>------ - ---- -- --- ----------- ------- ---- ----- -----<br>--- -------- - ------ ---- -- ----- ---- --- --- -----------<br>-- -------,271019,271014.40000000596,270415.248,270423.2999999821,270431.914,271031.89,,25,patches
screen,html.Screen,2_3_1_0_1_26,2022-02-17T10:52:04.649Z,,,,,,,,,,,,,,,,,2,,,,,,,,,,,,,,434.5100000059465,,response,,,,1,C,,,,,,Space,keypress(Space),,,,instrumental,,,,--- ---- ------ --- ------- ---------- ------- ----------<br>--- --------- --- ----------- ------- ----- ------- ---<br>--------- ---- -- --- ---- -- --------- -- ---- -------<br>of --------- ------ --- ----- ------ ---- --- --------- --<br>------ - ---- -- --- ----------- ------- ---- ----- -----<br>--- -------- - ------ ---- -- ----- ---- --- --- -----------<br>-- -------,271470.40000000596,271466.40000000596,271015.224,271019.1999999881,271031.89,271481.872,,26,of
screen,html.Screen,2_3_1_0_1_27,2022-02-17T10:52:05.346Z,,,,,,,,,,,,,,,,,2,,,,,,,,,,,,,,681.9279999821447,,response,,,,1,C,,,,,,Space,keypress(Space),,,,instrumental,,,,--- ---- ------ --- ------- ---------- ------- ----------<br>--- --------- --- ----------- ------- ----- ------- ---<br>--------- ---- -- --- ---- -- --------- -- ---- -------<br>-- intensely ------ --- ----- ------ ---- --- --------- --<br>------ - ---- -- --- ----------- ------- ---- ----- -----<br>--- -------- - ------ ---- -- ----- ---- --- --- -----------<br>-- -------,272168.09999999404,272163.7999999821,271465.206,271470.6999999881,271481.872,272181.844,,27,intensely
screen,html.Screen,2_3_1_0_1_28,2022-02-17T10:52:05.840Z,,,,,,,,,,,,,,,,,2,,,,,,,,,,,,,,475.3559999880963,,response,,,,1,C,,,,,,Space,keypress(Space),,,,instrumental,,,,--- ---- ------ --- ------- ---------- ------- ----------<br>--- --------- --- ----------- ------- ----- ------- ---<br>--------- ---- -- --- ---- -- --------- -- ---- -------<br>-- --------- bright --- ----- ------ ---- --- --------- --<br>------ - ---- -- --- ----------- ------- ---- ----- -----<br>--- -------- - ------ ---- -- ----- ---- --- --- -----------<br>-- -------,272661.40000000596,272657.1999999881,272165.178,272168.1999999881,272181.844,272665.158,,28,bright
screen,html.Screen,2_3_1_0_1_29,2022-02-17T10:52:06.492Z,,,,,,,,,,,,,,,,,2,,,,,,,,,,,,,,644.4419999940437,,response,,,,1,C,,,,,,Space,keypress(Space),,,,instrumental,,,,--- ---- ------ --- ------- ---------- ------- ----------<br>--- --------- --- ----------- ------- ----- ------- ---<br>--------- ---- -- --- ---- -- --------- -- ---- -------<br>-- --------- ------ and ----- ------ ---- --- --------- --<br>------ - ---- -- --- ----------- ------- ---- ----- -----<br>--- -------- - ------ ---- -- ----- ---- --- --- -----------<br>-- -------,273313.2999999821,273309.59999999404,272648.492,272661.59999999404,272665.158,273315.132,,29,and
screen,html.Screen,2_3_1_0_1_30,2022-02-17T10:52:06.843Z,,,,,,,,,,,,,,,,,2,,,,,,,,,,,,,,344.86800000001676,,response,,,,1,C,,,,,,Space,keypress(Space),,,,instrumental,,,,--- ---- ------ --- ------- ---------- ------- ----------<br>--- --------- --- ----------- ------- ----- ------- ---<br>--------- ---- -- --- ---- -- --------- -- ---- -------<br>-- --------- ------ --- white ------ ---- --- --------- --<br>------ - ---- -- --- ----------- ------- ---- ----- -----<br>--- -------- - ------ ---- -- ----- ---- --- --- -----------<br>-- -------,273664.7999999821,273660,273298.466,273313.59999999404,273315.132,273681.784,,30,white
screen,html.Screen,2_3_1_0_1_31,2022-02-17T10:52:07.394Z,,,,,,,,,,,,,,,,,2,,,,,,,,,,,,,,529.3159999940544,,response,,,,1,C,,,,,,Space,keypress(Space),,,,instrumental,,,,"--- ---- ------ --- ------- ---------- ------- ----------<br>--- --------- --- ----------- ------- ----- ------- ---<br>--------- ---- -- --- ---- -- --------- -- ---- -------<br>-- --------- ------ --- ----- light"" ---- --- --------- --<br>------ - ---- -- --- ----------- ------- ---- ----- -----<br>--- -------- - ------ ---- -- ----- ---- --- --- -----------<br>-- -------",274215.40000000596,274211.09999999404,273665.118,273665,273681.784,274231.762,,31,"light"""
screen,html.Screen,2_3_1_0_1_32,2022-02-17T10:52:07.821Z,,,,,,,,,,,,,,,,,2,,,,,,,,,,,,,,406.7380000000121,,response,,,,1,C,,,,,,Space,keypress(Space),,,,instrumental,,,,--- ---- ------ --- ------- ---------- ------- ----------<br>--- --------- --- ----------- ------- ----- ------- ---<br>--------- ---- -- --- ---- -- --------- -- ---- -------<br>-- --------- ------ --- ----- ------ over --- --------- --<br>------ - ---- -- --- ----------- ------- ---- ----- -----<br>--- -------- - ------ ---- -- ----- ---- --- --- -----------<br>-- -------,274642.5,274638.5,274215.096,274215.59999999404,274231.762,274648.412,,32,over
screen,html.Screen,2_3_1_0_1_33,2022-02-17T10:52:08.227Z,,,,,,,,,,,,,,,,,2,,,,,,,,,,,,,,396.38799998210743,,response,,,,1,C,,,,,,Space,keypress(Space),,,,instrumental,,,,--- ---- ------ --- ------- ---------- ------- ----------<br>--- --------- --- ----------- ------- ----- ------- ---<br>--------- ---- -- --- ---- -- --------- -- ---- -------<br>-- --------- ------ --- ----- ------ ---- the --------- --<br>------ - ---- -- --- ----------- ------- ---- ----- -----<br>--- -------- - ------ ---- -- ----- ---- --- --- -----------<br>-- -------,275049.09999999404,275044.7999999821,274631.746,274642.7999999821,274648.412,275065.062,,33,the
screen,html.Screen,2_3_1_0_1_34,2022-02-17T10:52:08.652Z,,,,,,,,,,,,,,,,,2,,,,,,,,,,,,,,405.3380000059842,,response,,,,1,C,,,,,,Space,keypress(Space),,,,instrumental,,,,--- ---- ------ --- ------- ---------- ------- ----------<br>--- --------- --- ----------- ------- ----- ------- ---<br>--------- ---- -- --- ---- -- --------- -- ---- -------<br>-- --------- ------ --- ----- ------ ---- --- sunspots. --<br>------ - ---- -- --- ----------- ------- ---- ----- -----<br>--- -------- - ------ ---- -- ----- ---- --- --- -----------<br>-- -------,275474.1999999881,275470.40000000596,275048.396,275049.2999999821,275065.062,275481.712,,34,sunspots.
screen,html.Screen,2_3_1_0_1_35,2022-02-17T10:52:09.237Z,,,,,,,,,,,,,,,,,2,,,,,,,,,,,,,,572.9879999880795,,response,,,,1,C,,,,,,Space,keypress(Space),,,,instrumental,,,,--- ---- ------ --- ------- ---------- ------- ----------<br>--- --------- --- ----------- ------- ----- ------- ---<br>--------- ---- -- --- ---- -- --------- -- ---- -------<br>-- --------- ------ --- ----- ------ ---- --- --------- He<br>------ - ---- -- --- ----------- ------- ---- ----- -----<br>--- -------- - ------ ---- -- ----- ---- --- --- -----------<br>-- -------,276059.40000000596,276054.6999999881,275465.046,275474.40000000596,275481.712,276065.022,,35,He
screen,html.Screen,2_3_1_0_1_36,2022-02-17T10:52:09.677Z,,,,,,,,,,,,,,,,,2,,,,,,,,,,,,,,429.17799998808187,,response,,,,1,C,,,,,,Space,keypress(Space),,,,instrumental,,,,--- ---- ------ --- ------- ---------- ------- ----------<br>--- --------- --- ----------- ------- ----- ------- ---<br>--------- ---- -- --- ---- -- --------- -- ---- -------<br>-- --------- ------ --- ----- ------ ---- --- --------- --<br>jotted - ---- -- --- ----------- ------- ---- ----- -----<br>--- -------- - ------ ---- -- ----- ---- --- --- -----------<br>-- -------,276498.90000000596,276494.1999999881,276048.356,276059.59999999404,276065.022,276515.004,,36,jotted
screen,html.Screen,2_3_1_0_1_37,2022-02-17T10:52:10.014Z,,,,,,,,,,,,,,,,,2,,,,,,,,,,,,,,316.09599999402417,,response,,,,1,C,,,,,,Space,keypress(Space),,,,instrumental,,,,--- ---- ------ --- ------- ---------- ------- ----------<br>--- --------- --- ----------- ------- ----- ------- ---<br>--------- ---- -- --- ---- -- --------- -- ---- -------<br>-- --------- ------ --- ----- ------ ---- --- --------- --<br>------ a ---- -- --- ----------- ------- ---- ----- -----<br>--- -------- - ------ ---- -- ----- ---- --- --- -----------<br>-- -------,276835.6999999881,276831.09999999404,276498.338,276499,276515.004,276848.324,,37,a
