sender,sender_type,sender_id,timestamp,meta,,Blues,Classical,Country,Dance,Electronic,Folk,Gospel,Hip-Hop,Jazz,Latin,Musical/Film,New-age,Pop,Prolific_id,Provo_ID,R&B,Rap,Reggae,Religious,Rock,Soul,Swing,Traditional,age,artist_name,correct,correctResponse,distraction,duration,education,ended_on,familiarity,gender,headphone_check_performance,item,list,music_frequency,offensiveness,pleasantness,position_correct,preference,response,response_action,snippet_file,song_name,song_rating,sound,stimulus_1,stimulus_2,stimulus_3,text,time_commit,time_end,time_render,time_run,time_show,time_switch,url,word,word_ID
Prolific ID,html.Form,0,2022-02-03T15:37:44.980Z,"{""labjs_version"":""20.2.2"",""labjs_build"":{""flavor"":""production"",""commit"":""a25486e0c714a0ae2ce03ff94b7bb6896854dcfa""},""location"":""https://run.pavlovia.org/mvasilev/prolific2_music_b/"",""userAgent"":""Mozilla/5.0 (Windows NT 10.0; Win64; x64) AppleWebKit/537.36 (KHTML, like Gecko) Chrome/97.0.4692.99 Safari/537.36"",""platform"":""Win32"",""language"":""en-GB"",""locale"":""en-GB"",""timeZone"":""Europe/London"",""timezoneOffset"":0,""screen_width"":1920,""screen_height"":1080,""scroll_width"":1920,""scroll_height"":889,""window_innerWidth"":1920,""window_innerHeight"":937,""devicePixelRatio"":1}",,,,,,,,,,,,,,,61f2abc1a09e72f23cbaf47f,,,,,,,,,,,,,,,8739.982,,form submission,,,,,,,,,,,,,,,,,,,,,19488.300000000745,19488,10731.802,10746.5,10748.018,19497.168,{},,
Introduction,html.Screen,1_0,2022-02-03T15:37:51.372Z,,,,,,,,,,,,,,,,,,,,,,,,,,,,,,,6381.3319999999985,,response,,,,,,,,,,,continue,click button,,,,,,,,,25880.699999999255,25878.5,19480.567,19488.599999997765,19497.168,25901.234,,,
Volume calibration,html.Screen,1_1,2022-02-03T15:38:25.141Z,,,,,,,,,,,,,,,,,,,,,,,,,,,,,,,33745.66599999851,,response,,,,,,,,,,,continue,click button,,,,,,,,,59649.5,59646.89999999851,25863.597,25880.800000000745,25901.234,59659.935,,,
Task instructions,html.Screen,1_2,2022-02-03T15:38:42.754Z,,,,,,,,,,,,,,,,,,,,,,,,,,,,,,,17601.664999997767,,response,,,,,,,,,,,continue,click button,,,,,,,,,77262.30000000075,77261.59999999776,59643.471,59649.699999999255,59659.935,77275.058,,,
Sounds,html.Screen,1_3_0_0,2022-02-03T15:38:47.003Z,,,,,,,,,,,,,,,,,,,,,,,,,,,,,,,4249.553999999989,,timeout,,,,,,,,,3,,,,,,,,O,I,S,,81511.30000000075,81507.984,77258.418,77262.39999999851,77275.058,81524.612,,,
Judgement,html.Screen,1_3_0_1,2022-02-03T15:38:47.934Z,,,,,,,,,,,,,,,,,,,,,,,,,,,,true,3,,917.7879999985162,,response,,,,,,,,,3,,3,click #choice-3,,,,,O,I,S,,82443.09999999776,82442.39999999851,81507.984,81511.5,81524.612,82457.722,,,
Trial,flow.Sequence,1_3_0,2022-02-03T15:38:47.935Z,,,,,,,,,,,,,,,,,,,,,,,,,,,,,,,5167.341999998505,,completion,,,,,,,,,3,,,,,,,,O,I,S,,82443.30000000075,82442.39999999851,77258.418,77262.39999999851,77275.058,82457.722,,,
Sounds,html.Screen,1_3_1_0,2022-02-03T15:38:52.182Z,,,,,,,,,,,,,,,,,,,,,,,,,,,,,,,4249.616000000009,,timeout,,,,,,,,,1,,,,,,,,S,I,O,,86691.09999999776,86690.541,82440.893,82443.5,82457.722,86707.338,,,
Judgement,html.Screen,1_3_1_1,2022-02-03T15:38:52.834Z,,,,,,,,,,,,,,,,,,,,,,,,,,,,true,1,,635.0619999985065,,response,,,,,,,,,1,,1,click #choice-1,,,,,S,I,O,,87343.09999999776,87342.39999999851,86690.541,86691.19999999925,86707.338,87356.992,,,
Trial,flow.Sequence,1_3_1,2022-02-03T15:38:52.835Z,,,,,,,,,,,,,,,,,,,,,,,,,,,,,,,4884.677999998516,,completion,,,,,,,,,1,,,,,,,,S,I,O,,87343.30000000075,87342.39999999851,82440.893,82443.39999999851,82457.722,87356.992,,,
Sounds,html.Screen,1_3_2_0,2022-02-03T15:38:57.083Z,,,,,,,,,,,,,,,,,,,,,,,,,,,,,,,4249.664000000004,,timeout,,,,,,,,,2,,,,,,,,I,S,O,,91591.59999999776,91590.258,87340.366,87343.5,87356.992,91606.656,,,
Judgement,html.Screen,1_3_2_1,2022-02-03T15:38:58.008Z,,,,,,,,,,,,,,,,,,,,,,,,,,,,true,2,,909.7439999985072,,response,,,,,,,,,2,,2,click #choice-2,,,,,I,S,O,,92517,92516.39999999851,91590.258,91591.80000000075,91606.656,92523.416,,,
Trial,flow.Sequence,1_3_2,2022-02-03T15:38:58.008Z,,,,,,,,,,,,,,,,,,,,,,,,,,,,,,,5159.4079999985115,,completion,,,,,,,,,2,,,,,,,,I,S,O,,92517.19999999925,92516.39999999851,87340.366,87343.30000000075,87356.992,92523.416,,,
Sounds,html.Screen,1_3_3_0,2022-02-03T15:39:02.249Z,,,,,,,,,,,,,,,,,,,,,,,,,,,,,,,4249.639999999999,,timeout,,,,,,,,,3,,,,,,,,I,O,S,,96757.59999999776,96756.424,92506.748,92517.39999999851,92523.416,96773.056,,,
Judgement,html.Screen,1_3_3_1,2022-02-03T15:39:02.932Z,,,,,,,,,,,,,,,,,,,,,,,,,,,,false,3,,667.2440000007482,,response,,,,,,,,,3,,2,click #choice-2,,,,,I,O,S,,97440.89999999851,97440.30000000075,96756.424,96757.80000000075,96773.056,97455.958,,,
Trial,flow.Sequence,1_3_3,2022-02-03T15:39:02.932Z,,,,,,,,,,,,,,,,,,,,,,,,,,,,,,,4916.884000000748,,completion,,,,,,,,,3,,,,,,,,I,O,S,,97441,97440.30000000075,92506.748,92517.30000000075,92523.416,97455.958,,,
Sounds,html.Screen,1_3_4_0,2022-02-03T15:39:07.181Z,,,,,,,,,,,,,,,,,,,,,,,,,,,,,,,4250.006999999998,,timeout,,,,,,,,,1,,,,,,,,S,O,I,,101690.19999999925,101688.957,97439.381,97441.09999999776,97455.958,101705.965,,,
Judgement,html.Screen,1_3_4_1,2022-02-03T15:39:07.848Z,,,,,,,,,,,,,,,,,,,,,,,,,,,,true,1,,650.6349999977683,,response,,,,,,,,,1,,1,click #choice-1,,,,,S,O,I,,102357.19999999925,102356.59999999776,101688.957,101690.5,101705.965,102372.394,,,
Trial,flow.Sequence,1_3_4,2022-02-03T15:39:07.849Z,,,,,,,,,,,,,,,,,,,,,,,,,,,,,,,4900.641999997766,,completion,,,,,,,,,1,,,,,,,,S,O,I,,102357.39999999851,102356.59999999776,97439.381,97441,97455.958,102372.394,,,
Sounds,html.Screen,1_3_5_0,2022-02-03T15:39:12.098Z,,,,,,,,,,,,,,,,,,,,,,,,,,,,,,,4249.472999999998,,timeout,,,,,,,,,2,,,,,,,,O,S,I,,106606.80000000075,106605.331,102355.557,102357.5,102372.394,106621.867,,,
Judgement,html.Screen,1_3_5_1,2022-02-03T15:39:12.583Z,,,,,,,,,,,,,,,,,,,,,,,,,,,,true,2,,469.4330000007467,,response,,,,,,,,,2,,2,click #choice-2,,,,,O,S,I,,107091.89999999851,107091.30000000075,106605.331,106607,106621.867,107105.377,,,
Trial,flow.Sequence,1_3_5,2022-02-03T15:39:12.583Z,,,,,,,,,,,,,,,,,,,,,,,,,,,,,,,4718.906000000745,,completion,,,,,,,,,2,,,,,,,,O,S,I,,107091.89999999851,107091.30000000075,102355.557,102357.39999999851,102372.394,107105.377,,,
Task,flow.Loop,1_3,2022-02-03T15:39:12.586Z,,,,,,,,,,,,,,,,,,,,,,,,,,,,,,,29816.24200000074,,completion,,,0.8333333333333334,,,,,,,,,,,,,,,,,,107094.5,107091.30000000075,77258.418,77262.39999999851,77275.058,107105.377,,,
Trap,html.Screen,1_4,2022-02-03T15:39:12.586Z,,,,,,,,,,,,,,,,,,,,,,,,,,,,,,,NaN,,skipped,,,,,,,,,,,,,,,,,,,,,107095.19999999925,107091.30000000075,,107095.09999999776,,107105.377,,,
Thanks,html.Screen,1_5,2022-02-03T15:39:16.662Z,,,,,,,,,,,,,,,,,,,,,,,,,,,,,,,4065.2229999977717,,response,,,,,,,,,,,continue,click button,,,,,,,,,111171.19999999925,111170.59999999776,107088.582,107095.30000000075,107105.377,114537.577,,,
Headphone screening,flow.Sequence,1,2022-02-03T15:39:16.663Z,,,,,,,,,,,,,,,,,,,,,,,,,,,,,,,91673.43199999776,,completion,,,,,,,,,,,,,,,,,,,,,111171.5,111170.59999999776,19480.567,19488.5,19497.168,114537.577,,,
Instructions,html.Page,2_0,2022-02-03T15:39:36.788Z,,,,,,,,,,,,,,,,,,,,,,,,,,,,,,,16759.52299999776,,form submission,,,,,,,,,,,,,,,,,,,,,131297.19999999925,131297.09999999776,114520.894,114538.89999999851,114537.577,131302.649,,,
Holding screen,html.Screen,2_1_0_0,2022-02-03T15:39:46.777Z,,,,,,,,,,,,,,,,,,,,,,,,,,,,,,,10015.570999999996,,timeout,,,,,,,,,,,,,,,,,,,,,141286.09999999776,141284.949,131286.163,131297.30000000075,131302.649,141318.22,,,
screen,html.Screen,2_1_0_1_0,2022-02-03T15:39:48.337Z,,,,,,,,,,,,,,,,,53,,,,,,,,,,,,,,1525.4799999992538,,response,,,,99,,,,,,,Space,keypress(Space),,,,,,,,When -- ----- -- ------ - ------- --- ----------<br>------------- ------ ------ ---- ---- ------- ----- -- ----<br>-------- ------- -- ---------- --- - --- ----- ----- ----<br>---- --- --- ----- --- ---- ---- ------- ----- ---- -------<br>--- --- -- ----- -- --- ---- -- --- ---- -- ------ ------<br>--- ----- -- ----,142846.3999999985,142843.69999999925,141284.949,141286.5,141318.22,142851.386,,0,When
screen,html.Screen,2_1_0_1_1,2022-02-03T15:39:49.037Z,,,,,,,,,,,,,,,,,53,,,,,,,,,,,,,,694.5139999985113,,response,,,,99,,,,,,,Space,keypress(Space),,,,,,,,---- it ----- -- ------ - ------- --- ----------<br>------------- ------ ------ ---- ---- ------- ----- -- ----<br>-------- ------- -- ---------- --- - --- ----- ----- ----<br>---- --- --- ----- --- ---- ---- ------- ----- ---- -------<br>--- --- -- ----- -- --- ---- -- --- ---- -- ------ ------<br>--- ----- -- ----,143546.8999999985,143545.8999999985,142834.819,142846.5,142851.386,143551.284,,1,it
screen,html.Screen,2_1_0_1_2,2022-02-03T15:39:49.646Z,,,,,,,,,,,,,,,,,53,,,,,,,,,,,,,,602.9159999992407,,response,,,,99,,,,,,,Space,keypress(Space),,,,,,,,---- -- comes -- ------ - ------- --- ----------<br>------------- ------ ------ ---- ---- ------- ----- -- ----<br>-------- ------- -- ---------- --- - --- ----- ----- ----<br>---- --- --- ----- --- ---- ---- ------- ----- ---- -------<br>--- --- -- ----- -- --- ---- -- --- ---- -- ------ ------<br>--- ----- -- ----,144155.09999999776,144154.19999999925,143535.027,143547.19999999925,143551.284,144168.234,,2,comes
screen,html.Screen,2_1_0_1_3,2022-02-03T15:39:50.063Z,,,,,,,,,,,,,,,,,53,,,,,,,,,,,,,,403.0660000007483,,response,,,,99,,,,,,,Space,keypress(Space),,,,,,,,---- -- ----- to ------ - ------- --- ----------<br>------------- ------ ------ ---- ---- ------- ----- -- ----<br>-------- ------- -- ---------- --- - --- ----- ----- ----<br>---- --- --- ----- --- ---- ---- ------- ----- ---- -------<br>--- --- -- ----- -- --- ---- -- --- ---- -- ------ ------<br>--- ----- -- ----,144572.30000000075,144571.30000000075,144151.641,144155.3999999985,144168.234,144584.856,,3,to
screen,html.Screen,2_1_0_1_4,2022-02-03T15:39:50.835Z,,,,,,,,,,,,,,,,,53,,,,,,,,,,,,,,758.7439999977651,,response,,,,99,,,,,,,Space,keypress(Space),,,,,,,,---- -- ----- -- having - ------- --- ----------<br>------------- ------ ------ ---- ---- ------- ----- -- ----<br>-------- ------- -- ---------- --- - --- ----- ----- ----<br>---- --- --- ----- --- ---- ---- ------- ----- ---- -------<br>--- --- -- ----- -- --- ---- -- --- ---- -- ------ ------<br>--- ----- -- ----,145344.5,145343.59999999776,144567.949,144572.59999999776,144584.856,145351.131,,4,having
screen,html.Screen,2_1_0_1_5,2022-02-03T15:39:51.452Z,,,,,,,,,,,,,,,,,53,,,,,,,,,,,,,,608.9689999977709,,response,,,,99,,,,,,,Space,keypress(Space),,,,,,,,---- -- ----- -- ------ a ------- --- ----------<br>------------- ------ ------ ---- ---- ------- ----- -- ----<br>-------- ------- -- ---------- --- - --- ----- ----- ----<br>---- --- --- ----- --- ---- ---- ------- ----- ---- -------<br>--- --- -- ----- -- --- ---- -- --- ---- -- ------ ------<br>--- ----- -- ----,145961.09999999776,145960.09999999776,145334.813,145344.80000000075,145351.131,145984.678,,5,a
screen,html.Screen,2_1_0_1_6,2022-02-03T15:39:52.022Z,,,,,,,,,,,,,,,,,53,,,,,,,,,,,,,,545.9219999977504,,response,,,,99,,,,,,,Space,keypress(Space),,,,,,,,---- -- ----- -- ------ - lasting --- ----------<br>------------- ------ ------ ---- ---- ------- ----- -- ----<br>-------- ------- -- ---------- --- - --- ----- ----- ----<br>---- --- --- ----- --- ---- ---- ------- ----- ---- -------<br>--- --- -- ----- -- --- ---- -- --- ---- -- ------ ------<br>--- ----- -- ----,146531.19999999925,146530.59999999776,145967.717,145961.30000000075,145984.678,146534.316,,6,lasting
screen,html.Screen,2_1_0_1_7,2022-02-03T15:39:52.701Z,,,,,,,,,,,,,,,,,53,,,,,,,,,,,,,,675.8839999992633,,response,,,,99,,,,,,,Space,keypress(Space),,,,,,,,---- -- ----- -- ------ - ------- and ----------<br>------------- ------ ------ ---- ---- ------- ----- -- ----<br>-------- ------- -- ---------- --- - --- ----- ----- ----<br>---- --- --- ----- --- ---- ---- ------- ----- ---- -------<br>--- --- -- ----- -- --- ---- -- --- ---- -- ------ ------<br>--- ----- -- ----,147210.69999999925,147210.19999999925,146518.056,146531.19999999925,146534.316,147217.585,,7,and
screen,html.Screen,2_1_0_1_8,2022-02-03T15:39:53.452Z,,,,,,,,,,,,,,,,,53,,,,,,,,,,,,,,742.814999998518,,response,,,,99,,,,,,,Space,keypress(Space),,,,,,,,---- -- ----- -- ------ - ------- --- fulfilling<br>------------- ------ ------ ---- ---- ------- ----- -- ----<br>-------- ------- -- ---------- --- - --- ----- ----- ----<br>---- --- --- ----- --- ---- ---- ------- ----- ---- -------<br>--- --- -- ----- -- --- ---- -- --- ---- -- ------ ------<br>--- ----- -- ----,147961.3999999985,147960.3999999985,147201.321,147210.69999999925,147217.585,147967.571,,8,fulfilling
screen,html.Screen,2_1_0_1_9,2022-02-03T15:39:54.556Z,,,,,,,,,,,,,,,,,53,,,,,,,,,,,,,,1096.9290000000037,,response,,,,99,,,,,,,Space,keypress(Space),,,,,,,,"---- -- ----- -- ------ - ------- --- ----------<br>relationship, ------ ------ ---- ---- ------- ----- -- ----<br>-------- ------- -- ---------- --- - --- ----- ----- ----<br>---- --- --- ----- --- ---- ---- ------- ----- ---- -------<br>--- --- -- ----- -- --- ---- -- --- ---- -- ------ ------<br>--- ----- -- ----",149065.5,149064.5,147951.259,147961.69999999925,147967.571,149090.498,,9,"relationship,"
screen,html.Screen,2_1_0_1_10,2022-02-03T15:39:55.172Z,,,,,,,,,,,,,,,,,53,,,,,,,,,,,,,,590.2019999992626,,response,,,,99,,,,,,,Space,keypress(Space),,,,,,,,---- -- ----- -- ------ - ------- --- ----------<br>------------- common ------ ---- ---- ------- ----- -- ----<br>-------- ------- -- ---------- --- - --- ----- ----- ----<br>---- --- --- ----- --- ---- ---- ------- ----- ---- -------<br>--- --- -- ----- -- --- ---- -- --- ---- -- ------ ------<br>--- ----- -- ----,149681.69999999925,149680.69999999925,149051.205,149065.80000000075,149090.498,149684.106,,10,common
screen,html.Screen,2_1_0_1_11,2022-02-03T15:39:55.854Z,,,,,,,,,,,,,,,,,53,,,,,,,,,,,,,,678.6940000007453,,response,,,,99,,,,,,,Space,keypress(Space),,,,,,,,---- -- ----- -- ------ - ------- --- ----------<br>------------- ------ wisdom ---- ---- ------- ----- -- ----<br>-------- ------- -- ---------- --- - --- ----- ----- ----<br>---- --- --- ----- --- ---- ---- ------- ----- ---- -------<br>--- --- -- ----- -- --- ---- -- --- ---- -- ------ ------<br>--- ----- -- ----,150363.69999999925,150362.80000000075,149667.659,149682,149684.106,150367.339,,11,wisdom
screen,html.Screen,2_1_0_1_12,2022-02-03T15:39:56.426Z,,,,,,,,,,,,,,,,,53,,,,,,,,,,,,,,566.7609999977576,,response,,,,99,,,,,,,Space,keypress(Space),,,,,,,,---- -- ----- -- ------ - ------- --- ----------<br>------------- ------ ------ says ---- ------- ----- -- ----<br>-------- ------- -- ---------- --- - --- ----- ----- ----<br>---- --- --- ----- --- ---- ---- ------- ----- ---- -------<br>--- --- -- ----- -- --- ---- -- --- ---- -- ------ ------<br>--- ----- -- ----,150935.19999999925,150934.09999999776,150351.023,150364,150367.339,150950.635,,12,says
screen,html.Screen,2_1_0_1_13,2022-02-03T15:39:56.999Z,,,,,,,,,,,,,,,,,53,,,,,,,,,,,,,,556.4649999977555,,response,,,,99,,,,,,,Space,keypress(Space),,,,,,,,---- -- ----- -- ------ - ------- --- ----------<br>------------- ------ ------ ---- that ------- ----- -- ----<br>-------- ------- -- ---------- --- - --- ----- ----- ----<br>---- --- --- ----- --- ---- ---- ------- ----- ---- -------<br>--- --- -- ----- -- --- ---- -- --- ---- -- ------ ------<br>--- ----- -- ----,151508,151507.09999999776,150934.241,150935.5,150950.635,151517.518,,13,that
screen,html.Screen,2_1_0_1_14,2022-02-03T15:39:57.688Z,,,,,,,,,,,,,,,,,53,,,,,,,,,,,,,,679.4819999999891,,response,,,,99,,,,,,,Space,keypress(Space),,,,,,,,---- -- ----- -- ------ - ------- --- ----------<br>------------- ------ ------ ---- ---- feeling ----- -- ----<br>-------- ------- -- ---------- --- - --- ----- ----- ----<br>---- --- --- ----- --- ---- ---- ------- ----- ---- -------<br>--- --- -- ----- -- --- ---- -- --- ---- -- ------ ------<br>--- ----- -- ----,152197.8999999985,152197,151500.672,151508.30000000075,151517.518,152200.494,,14,feeling
screen,html.Screen,2_1_0_1_15,2022-02-03T15:39:58.400Z,,,,,,,,,,,,,,,,,53,,,,,,,,,,,,,,707.6059999977588,,response,,,,99,,,,,,,Space,keypress(Space),,,,,,,,---- -- ----- -- ------ - ------- --- ----------<br>------------- ------ ------ ---- ---- ------- close -- ----<br>-------- ------- -- ---------- --- - --- ----- ----- ----<br>---- --- --- ----- --- ---- ---- ------- ----- ---- -------<br>--- --- -- ----- -- --- ---- -- --- ---- -- ------ ------<br>--- ----- -- ----,152909,152908.09999999776,152183.891,152198.19999999925,152200.494,152917.095,,15,close
screen,html.Screen,2_1_0_1_16,2022-02-03T15:39:58.869Z,,,,,,,,,,,,,,,,,53,,,,,,,,,,,,,,460.6049999992538,,response,,,,99,,,,,,,Space,keypress(Space),,,,,,,,---- -- ----- -- ------ - ------- --- ----------<br>------------- ------ ------ ---- ---- ------- ----- to ----<br>-------- ------- -- ---------- --- - --- ----- ----- ----<br>---- --- --- ----- --- ---- ---- ------- ----- ---- -------<br>--- --- -- ----- -- --- ---- -- --- ---- -- ------ ------<br>--- ----- -- ----,153378.59999999776,153377.69999999925,152900.485,152909.30000000075,152917.095,153383.716,,16,to
screen,html.Screen,2_1_0_1_17,2022-02-03T15:39:59.545Z,,,,,,,,,,,,,,,,,53,,,,,,,,,,,,,,669.7840000000142,,response,,,,99,,,,,,,Space,keypress(Space),,,,,,,,---- -- ----- -- ------ - ------- --- ----------<br>------------- ------ ------ ---- ---- ------- ----- -- your<br>-------- ------- -- ---------- --- - --- ----- ----- ----<br>---- --- --- ----- --- ---- ---- ------- ----- ---- -------<br>--- --- -- ----- -- --- ---- -- --- ---- -- ------ ------<br>--- ----- -- ----,154054.5,154053.5,153367.067,153378.8999999985,153383.716,154067.079,,17,your
screen,html.Screen,2_1_0_1_18,2022-02-03T15:40:00.299Z,,,,,,,,,,,,,,,,,53,,,,,,,,,,,,,,740.5209999977669,,response,,,,99,,,,,,,Space,keypress(Space),,,,,,,,---- -- ----- -- ------ - ------- --- ----------<br>------------- ------ ------ ---- ---- ------- ----- -- ----<br>romantic ------- -- ---------- --- - --- ----- ----- ----<br>---- --- --- ----- --- ---- ---- ------- ----- ---- -------<br>--- --- -- ----- -- --- ---- -- --- ---- -- ------ ------<br>--- ----- -- ----,154808,154807.59999999776,154050.373,154054.80000000075,154067.079,154817.163,,18,romantic
screen,html.Screen,2_1_0_1_19,2022-02-03T15:40:01.085Z,,,,,,,,,,,,,,,,,53,,,,,,,,,,,,,,776.4369999977644,,response,,,,99,,,,,,,Space,keypress(Space),,,,,,,,---- -- ----- -- ------ - ------- --- ----------<br>------------- ------ ------ ---- ---- ------- ----- -- ----<br>-------- partner -- ---------- --- - --- ----- ----- ----<br>---- --- --- ----- --- ---- ---- ------- ----- ---- -------<br>--- --- -- ----- -- --- ---- -- --- ---- -- ------ ------<br>--- ----- -- ----,155594.5,155593.59999999776,154800.301,154808.09999999776,154817.163,155600.141,,19,partner
screen,html.Screen,2_1_0_1_20,2022-02-03T15:40:01.758Z,,,,,,,,,,,,,,,,,53,,,,,,,,,,,,,,666.6590000007418,,response,,,,99,,,,,,,Space,keypress(Space),,,,,,,,---- -- ----- -- ------ - ------- --- ----------<br>------------- ------ ------ ---- ---- ------- ----- -- ----<br>-------- ------- is ---------- --- - --- ----- ----- ----<br>---- --- --- ----- --- ---- ---- ------- ----- ---- -------<br>--- --- -- ----- -- --- ---- -- --- ---- -- ------ ------<br>--- ----- -- ----,156267.09999999776,156266.80000000075,155583.838,155594.80000000075,155600.141,156283.45,,20,is
screen,html.Screen,2_1_0_1_21,2022-02-03T15:40:02.477Z,,,,,,,,,,,,,,,,,53,,,,,,,,,,,,,,702.3500000007334,,response,,,,99,,,,,,,Space,keypress(Space),,,,,,,,---- -- ----- -- ------ - ------- --- ----------<br>------------- ------ ------ ---- ---- ------- ----- -- ----<br>-------- ------- -- paramount. --- - --- ----- ----- ----<br>---- --- --- ----- --- ---- ---- ------- ----- ---- -------<br>--- --- -- ----- -- --- ---- -- --- ---- -- ------ ------<br>--- ----- -- ----,156986.69999999925,156985.80000000075,156266.835,156267.30000000075,156283.45,157000.031,,21,paramount.
screen,html.Screen,2_1_0_1_22,2022-02-03T15:40:03.087Z,,,,,,,,,,,,,,,,,53,,,,,,,,,,,,,,595.2690000007569,,response,,,,99,,,,,,,Space,keypress(Space),,,,,,,,---- -- ----- -- ------ - ------- --- ----------<br>------------- ------ ------ ---- ---- ------- ----- -- ----<br>-------- ------- -- ---------- But - --- ----- ----- ----<br>---- --- --- ----- --- ---- ---- ------- ----- ---- -------<br>--- --- -- ----- -- --- ---- -- --- ---- -- ------ ------<br>--- ----- -- ----,157596.19999999925,157595.30000000075,156983.696,156986.8999999985,157000.031,157599.959,,22,But
screen,html.Screen,2_1_0_1_23,2022-02-03T15:40:03.697Z,,,,,,,,,,,,,,,,,53,,,,,,,,,,,,,,605.8410000007425,,response,,,,99,,,,,,,Space,keypress(Space),,,,,,,,---- -- ----- -- ------ - ------- --- ----------<br>------------- ------ ------ ---- ---- ------- ----- -- ----<br>-------- ------- -- ---------- --- a --- ----- ----- ----<br>---- --- --- ----- --- ---- ---- ------- ----- ---- -------<br>--- --- -- ----- -- --- ---- -- --- ---- -- ------ ------<br>--- ----- -- ----,158206.80000000075,158205.80000000075,157583.34,157596.5,157599.959,158216.558,,23,a
screen,html.Screen,2_1_0_1_24,2022-02-03T15:40:04.197Z,,,,,,,,,,,,,,,,,53,,,,,,,,,,,,,,489.74200000075507,,response,,,,99,,,,,,,Space,keypress(Space),,,,,,,,---- -- ----- -- ------ - ------- --- ----------<br>------------- ------ ------ ---- ---- ------- ----- -- ----<br>-------- ------- -- ---------- --- - new ----- ----- ----<br>---- --- --- ----- --- ---- ---- ------- ----- ---- -------<br>--- --- -- ----- -- --- ---- -- --- ---- -- ------ ------<br>--- ----- -- ----,158706.80000000075,158706.30000000075,158200.209,158207.19999999925,158216.558,158716.595,,24,new
screen,html.Screen,2_1_0_1_25,2022-02-03T15:40:04.869Z,,,,,,,,,,,,,,,,,53,,,,,,,,,,,,,,660.7050000007439,,response,,,,99,,,,,,,Space,keypress(Space),,,,,,,,---- -- ----- -- ------ - ------- --- ----------<br>------------- ------ ------ ---- ---- ------- ----- -- ----<br>-------- ------- -- ---------- --- - --- study ----- ----<br>---- --- --- ----- --- ---- ---- ------- ----- ---- -------<br>--- --- -- ----- -- --- ---- -- --- ---- -- ------ ------<br>--- ----- -- ----,159378.30000000075,159377.30000000075,158700.122,158706.8999999985,158716.595,159383.088,,25,study
screen,html.Screen,2_1_0_1_26,2022-02-03T15:40:05.368Z,,,,,,,,,,,,,,,,,53,,,,,,,,,,,,,,493.1119999992661,,response,,,,99,,,,,,,Space,keypress(Space),,,,,,,,---- -- ----- -- ------ - ------- --- ----------<br>------------- ------ ------ ---- ---- ------- ----- -- ----<br>-------- ------- -- ---------- --- - --- ----- finds ----<br>---- --- --- ----- --- ---- ---- ------- ----- ---- -------<br>--- --- -- ----- -- --- ---- -- --- ---- -- ------ ------<br>--- ----- -- ----,159877.19999999925,159876.19999999925,159366.71,159378.59999999776,159383.088,159883.044,,26,finds
screen,html.Screen,2_1_0_1_27,2022-02-03T15:40:05.834Z,,,,,,,,,,,,,,,,,53,,,,,,,,,,,,,,460.25600000075065,,response,,,,99,,,,,,,Space,keypress(Space),,,,,,,,---- -- ----- -- ------ - ------- --- ----------<br>------------- ------ ------ ---- ---- ------- ----- -- ----<br>-------- ------- -- ---------- --- - --- ----- ----- that<br>---- --- --- ----- --- ---- ---- ------- ----- ---- -------<br>--- --- -- ----- -- --- ---- -- --- ---- -- ------ ------<br>--- ----- -- ----,160343.69999999925,160343.30000000075,159866.618,159877.5,159883.044,160350.023,,27,that
screen,html.Screen,2_1_0_1_28,2022-02-03T15:40:06.374Z,,,,,,,,,,,,,,,,,53,,,,,,,,,,,,,,532.6769999992684,,response,,,,99,,,,,,,Space,keypress(Space),,,,,,,,---- -- ----- -- ------ - ------- --- ----------<br>------------- ------ ------ ---- ---- ------- ----- -- ----<br>-------- ------- -- ---------- --- - --- ----- ----- ----<br>it's --- --- ----- --- ---- ---- ------- ----- ---- -------<br>--- --- -- ----- -- --- ---- -- --- ---- -- ------ ------<br>--- ----- -- ----,160883.80000000075,160882.69999999925,160333.028,160343.69999999925,160350.023,160899.745,,28,it's
screen,html.Screen,2_1_0_1_29,2022-02-03T15:40:06.891Z,,,,,,,,,,,,,,,,,53,,,,,,,,,,,,,,500.25500000000466,,response,,,,99,,,,,,,Space,keypress(Space),,,,,,,,---- -- ----- -- ------ - ------- --- ----------<br>------------- ------ ------ ---- ---- ------- ----- -- ----<br>-------- ------- -- ---------- --- - --- ----- ----- ----<br>---- not --- ----- --- ---- ---- ------- ----- ---- -------<br>--- --- -- ----- -- --- ---- -- --- ---- -- ------ ------<br>--- ----- -- ----,161400.80000000075,161400,160883.18,160884.09999999776,160899.745,161416.265,,29,not
screen,html.Screen,2_1_0_1_30,2022-02-03T15:40:07.401Z,,,,,,,,,,,,,,,,,53,,,,,,,,,,,,,,494.0350000007311,,response,,,,99,,,,,,,Space,keypress(Space),,,,,,,,---- -- ----- -- ------ - ------- --- ----------<br>------------- ------ ------ ---- ---- ------- ----- -- ----<br>-------- ------- -- ---------- --- - --- ----- ----- ----<br>---- --- how ----- --- ---- ---- ------- ----- ---- -------<br>--- --- -- ----- -- --- ---- -- --- ---- -- ------ ------<br>--- ----- -- ----,161910.69999999925,161910.30000000075,161399.69,161400.8999999985,161416.265,161916.114,,30,how
screen,html.Screen,2_1_0_1_31,2022-02-03T15:40:07.950Z,,,,,,,,,,,,,,,,,53,,,,,,,,,,,,,,542.1860000007437,,response,,,,99,,,,,,,Space,keypress(Space),,,,,,,,---- -- ----- -- ------ - ------- --- ----------<br>------------- ------ ------ ---- ---- ------- ----- -- ----<br>-------- ------- -- ---------- --- - --- ----- ----- ----<br>---- --- --- close --- ---- ---- ------- ----- ---- -------<br>--- --- -- ----- -- --- ---- -- --- ---- -- ------ ------<br>--- ----- -- ----,162459.19999999925,162458.30000000075,161899.562,161910.80000000075,161916.114,162466.129,,31,close
screen,html.Screen,2_1_0_1_32,2022-02-03T15:40:08.387Z,,,,,,,,,,,,,,,,,53,,,,,,,,,,,,,,429.87100000001374,,response,,,,99,,,,,,,Space,keypress(Space),,,,,,,,---- -- ----- -- ------ - ------- --- ----------<br>------------- ------ ------ ---- ---- ------- ----- -- ----<br>-------- ------- -- ---------- --- - --- ----- ----- ----<br>---- --- --- ----- you ---- ---- ------- ----- ---- -------<br>--- --- -- ----- -- --- ---- -- --- ---- -- ------ ------<br>--- ----- -- ----,162896.8999999985,162896,162449.407,162459.5,162466.129,162899.412,,32,you
screen,html.Screen,2_1_0_1_33,2022-02-03T15:40:09.099Z,,,,,,,,,,,,,,,,,53,,,,,,,,,,,,,,708.2879999992438,,response,,,,99,,,,,,,Space,keypress(Space),,,,,,,,---- -- ----- -- ------ - ------- --- ----------<br>------------- ------ ------ ---- ---- ------- ----- -- ----<br>-------- ------- -- ---------- --- - --- ----- ----- ----<br>---- --- --- ----- --- feel ---- ------- ----- ---- -------<br>--- --- -- ----- -- --- ---- -- --- ---- -- ------ ------<br>--- ----- -- ----,163608.19999999925,163607.69999999925,162882.817,162897.19999999925,162899.412,163615.928,,33,feel
screen,html.Screen,2_1_0_1_34,2022-02-03T15:40:09.547Z,,,,,,,,,,,,,,,,,53,,,,,,,,,,,,,,439.8720000007306,,response,,,,99,,,,,,,Space,keypress(Space),,,,,,,,---- -- ----- -- ------ - ------- --- ----------<br>------------- ------ ------ ---- ---- ------- ----- -- ----<br>-------- ------- -- ---------- --- - --- ----- ----- ----<br>---- --- --- ----- --- ---- that ------- ----- ---- -------<br>--- --- -- ----- -- --- ---- -- --- ---- -- ------ ------<br>--- ----- -- ----,164056.19999999925,164055.80000000075,163599.553,163608.69999999925,163615.928,164065.844,,34,that
screen,html.Screen,2_1_0_1_35,2022-02-03T15:40:10.093Z,,,,,,,,,,,,,,,,,53,,,,,,,,,,,,,,535.255999997753,,response,,,,99,,,,,,,Space,keypress(Space),,,,,,,,---- -- ----- -- ------ - ------- --- ----------<br>------------- ------ ------ ---- ---- ------- ----- -- ----<br>-------- ------- -- ---------- --- - --- ----- ----- ----<br>---- --- --- ----- --- ---- ---- matters ----- ---- -------<br>--- --- -- ----- -- --- ---- -- --- ---- -- ------ ------<br>--- ----- -- ----,164602,164601.09999999776,164049.204,164056.30000000075,164065.844,164615.907,,35,matters
screen,html.Screen,2_1_0_1_36,2022-02-03T15:40:10.812Z,,,,,,,,,,,,,,,,,53,,,,,,,,,,,,,,704.3930000007385,,response,,,,99,,,,,,,Space,keypress(Space),,,,,,,,"---- -- ----- -- ------ - ------- --- ----------<br>------------- ------ ------ ---- ---- ------- ----- -- ----<br>-------- ------- -- ---------- --- - --- ----- ----- ----<br>---- --- --- ----- --- ---- ---- ------- most, ---- -------<br>--- --- -- ----- -- --- ---- -- --- ---- -- ------ ------<br>--- ----- -- ----",165321.5,165320.30000000075,164599.156,164602.3999999985,164615.907,165332.797,,36,"most,"
screen,html.Screen,2_1_0_1_37,2022-02-03T15:40:11.289Z,,,,,,,,,,,,,,,,,53,,,,,,,,,,,,,,465.1029999985185,,response,,,,99,,,,,,,Space,keypress(Space),,,,,,,,---- -- ----- -- ------ - ------- --- ----------<br>------------- ------ ------ ---- ---- ------- ----- -- ----<br>-------- ------- -- ---------- --- - --- ----- ----- ----<br>---- --- --- ----- --- ---- ---- ------- ----- it's -------<br>--- --- -- ----- -- --- ---- -- --- ---- -- ------ ------<br>--- ----- -- ----,165798.80000000075,165797.8999999985,165316.242,165321.80000000075,165332.797,165816.019,,37,it's
screen,html.Screen,2_1_0_1_38,2022-02-03T15:40:11.898Z,,,,,,,,,,,,,,,,,53,,,,,,,,,,,,,,590.9809999999998,,response,,,,99,,,,,,,Space,keypress(Space),,,,,,,,---- -- ----- -- ------ - ------- --- ----------<br>------------- ------ ------ ---- ---- ------- ----- -- ----<br>-------- ------- -- ---------- --- - --- ----- ----- ----<br>---- --- --- ----- --- ---- ---- ------- ----- ---- whether<br>--- --- -- ----- -- --- ---- -- --- ---- -- ------ ------<br>--- ----- -- ----,166407.8999999985,166407,165799.17,165799.09999999776,165816.019,166415.775,,38,whether
screen,html.Screen,2_1_0_1_39,2022-02-03T15:40:12.326Z,,,,,,,,,,,,,,,,,53,,,,,,,,,,,,,,418.6249999985157,,response,,,,99,,,,,,,Space,keypress(Space),,,,,,,,---- -- ----- -- ------ - ------- --- ----------<br>------------- ------ ------ ---- ---- ------- ----- -- ----<br>-------- ------- -- ---------- --- - --- ----- ----- ----<br>---- --- --- ----- --- ---- ---- ------- ----- ---- -------<br>you --- -- ----- -- --- ---- -- --- ---- -- ------ ------<br>--- ----- -- ----,166835.09999999776,166834.3999999985,166399.161,166408.19999999925,166415.775,166849.009,,39,you
screen,html.Screen,2_1_0_1_40,2022-02-03T15:40:12.823Z,,,,,,,,,,,,,,,,,53,,,,,,,,,,,,,,482.39099999851896,,response,,,,99,,,,,,,Space,keypress(Space),,,,,,,,---- -- ----- -- ------ - ------- --- ----------<br>------------- ------ ------ ---- ---- ------- ----- -- ----<br>-------- ------- -- ---------- --- - --- ----- ----- ----<br>---- --- --- ----- --- ---- ---- ------- ----- ---- -------<br>--- are -- ----- -- --- ---- -- --- ---- -- ------ ------<br>--- ----- -- ----,167332.30000000075,167331.3999999985,166832.462,166835.30000000075,166849.009,167349.156,,40,are
screen,html.Screen,2_1_0_1_41,2022-02-03T15:40:13.386Z,,,,,,,,,,,,,,,,,53,,,,,,,,,,,,,,546.0439999992668,,response,,,,99,,,,,,,Space,keypress(Space),,,,,,,,---- -- ----- -- ------ - ------- --- ----------<br>------------- ------ ------ ---- ---- ------- ----- -- ----<br>-------- ------- -- ---------- --- - --- ----- ----- ----<br>---- --- --- ----- --- ---- ---- ------- ----- ---- -------<br>--- --- as ----- -- --- ---- -- --- ---- -- ------ ------<br>--- ----- -- ----,167895.69999999925,167895.19999999925,167332.307,167332.59999999776,167349.156,167898.868,,41,as
screen,html.Screen,2_1_0_1_42,2022-02-03T15:40:13.840Z,,,,,,,,,,,,,,,,,53,,,,,,,,,,,,,,449.4320000007574,,response,,,,99,,,,,,,Space,keypress(Space),,,,,,,,---- -- ----- -- ------ - ------- --- ----------<br>------------- ------ ------ ---- ---- ------- ----- -- ----<br>-------- ------- -- ---------- --- - --- ----- ----- ----<br>---- --- --- ----- --- ---- ---- ------- ----- ---- -------<br>--- --- -- close -- --- ---- -- --- ---- -- ------ ------<br>--- ----- -- ----,168349.30000000075,168348.30000000075,167882.284,167895.8999999985,167898.868,168365.552,,42,close
screen,html.Screen,2_1_0_1_43,2022-02-03T15:40:14.317Z,,,,,,,,,,,,,,,,,53,,,,,,,,,,,,,,460.34799999851384,,response,,,,99,,,,,,,Space,keypress(Space),,,,,,,,---- -- ----- -- ------ - ------- --- ----------<br>------------- ------ ------ ---- ---- ------- ----- -- ----<br>-------- ------- -- ---------- --- - --- ----- ----- ----<br>---- --- --- ----- --- ---- ---- ------- ----- ---- -------<br>--- --- -- ----- as --- ---- -- --- ---- -- ------ ------<br>--- ----- -- ----,168826.8999999985,168825.8999999985,168348.92,168349.5,168365.552,168832.142,,43,as
screen,html.Screen,2_1_0_1_44,2022-02-03T15:40:14.745Z,,,,,,,,,,,,,,,,,53,,,,,,,,,,,,,,421.0579999992624,,response,,,,99,,,,,,,Space,keypress(Space),,,,,,,,---- -- ----- -- ------ - ------- --- ----------<br>------------- ------ ------ ---- ---- ------- ----- -- ----<br>-------- ------- -- ---------- --- - --- ----- ----- ----<br>---- --- --- ----- --- ---- ---- ------- ----- ---- -------<br>--- --- -- ----- -- you ---- -- --- ---- -- ------ ------<br>--- ----- -- ----,169254.30000000075,169253.19999999925,168815.57,168827.09999999776,168832.142,169265.729,,44,you
screen,html.Screen,2_1_0_1_45,2022-02-03T15:40:15.206Z,,,,,,,,,,,,,,,,,53,,,,,,,,,,,,,,449.1709999985178,,response,,,,99,,,,,,,Space,keypress(Space),,,,,,,,---- -- ----- -- ------ - ------- --- ----------<br>------------- ------ ------ ---- ---- ------- ----- -- ----<br>-------- ------- -- ---------- --- - --- ----- ----- ----<br>---- --- --- ----- --- ---- ---- ------- ----- ---- -------<br>--- --- -- ----- -- --- want -- --- ---- -- ------ ------<br>--- ----- -- ----,169715.80000000075,169714.8999999985,169248.817,169254.5,169265.729,169732.058,,45,want
screen,html.Screen,2_1_0_1_46,2022-02-03T15:40:15.634Z,,,,,,,,,,,,,,,,,53,,,,,,,,,,,,,,410.8419999985199,,response,,,,99,,,,,,,Space,keypress(Space),,,,,,,,---- -- ----- -- ------ - ------- --- ----------<br>------------- ------ ------ ---- ---- ------- ----- -- ----<br>-------- ------- -- ---------- --- - --- ----- ----- ----<br>---- --- --- ----- --- ---- ---- ------- ----- ---- -------<br>--- --- -- ----- -- --- ---- to --- ---- -- ------ ------<br>--- ----- -- ----,170143.8999999985,170142.8999999985,169715.629,169716.09999999776,169732.058,170148.677,,46,to
screen,html.Screen,2_1_0_1_47,2022-02-03T15:40:16.116Z,,,,,,,,,,,,,,,,,53,,,,,,,,,,,,,,476.22299999851384,,response,,,,99,,,,,,,Space,keypress(Space),,,,,,,,"---- -- ----- -- ------ - ------- --- ----------<br>------------- ------ ------ ---- ---- ------- ----- -- ----<br>-------- ------- -- ---------- --- - --- ----- ----- ----<br>---- --- --- ----- --- ---- ---- ------- ----- ---- -------<br>--- --- -- ----- -- --- ---- -- be, ---- -- ------ ------<br>--- ----- -- ----",170625.80000000075,170624.8999999985,170132.343,170144.09999999776,170148.677,170631.999,,47,"be,"
screen,html.Screen,2_1_0_1_48,2022-02-03T15:40:16.707Z,,,,,,,,,,,,,,,,,53,,,,,,,,,,,,,,584.1009999977541,,response,,,,99,,,,,,,Space,keypress(Space),,,,,,,,---- -- ----- -- ------ - ------- --- ----------<br>------------- ------ ------ ---- ---- ------- ----- -- ----<br>-------- ------- -- ---------- --- - --- ----- ----- ----<br>---- --- --- ----- --- ---- ---- ------- ----- ---- -------<br>--- --- -- ----- -- --- ---- -- --- even -- ------ ------<br>--- ----- -- ----,171216.59999999776,171216.09999999776,170615.298,170626.09999999776,170631.999,171231.843,,48,even
screen,html.Screen,2_1_0_1_49,2022-02-03T15:40:17.179Z,,,,,,,,,,,,,,,,,53,,,,,,,,,,,,,,455.4570000007516,,response,,,,99,,,,,,,Space,keypress(Space),,,,,,,,---- -- ----- -- ------ - ------- --- ----------<br>------------- ------ ------ ---- ---- ------- ----- -- ----<br>-------- ------- -- ---------- --- - --- ----- ----- ----<br>---- --- --- ----- --- ---- ---- ------- ----- ---- -------<br>--- --- -- ----- -- --- ---- -- --- ---- if ------ ------<br>--- ----- -- ----,171688,171687.30000000075,171215.518,171216.59999999776,171231.843,171698.546,,49,if
screen,html.Screen,2_1_0_1_50,2022-02-03T15:40:17.708Z,,,,,,,,,,,,,,,,,53,,,,,,,,,,,,,,518.254000000743,,response,,,,99,,,,,,,Space,keypress(Space),,,,,,,,---- -- ----- -- ------ - ------- --- ----------<br>------------- ------ ------ ---- ---- ------- ----- -- ----<br>-------- ------- -- ---------- --- - --- ----- ----- ----<br>---- --- --- ----- --- ---- ---- ------- ----- ---- -------<br>--- --- -- ----- -- --- ---- -- --- ---- -- that's ------<br>--- ----- -- ----,172217.59999999776,172216.80000000075,171682.196,171688.30000000075,171698.546,172231.835,,50,that's
screen,html.Screen,2_1_0_1_51,2022-02-03T15:40:18.259Z,,,,,,,,,,,,,,,,,53,,,,,,,,,,,,,,535.6650000000081,,response,,,,99,,,,,,,Space,keypress(Space),,,,,,,,---- -- ----- -- ------ - ------- --- ----------<br>------------- ------ ------ ---- ---- ------- ----- -- ----<br>-------- ------- -- ---------- --- - --- ----- ----- ----<br>---- --- --- ----- --- ---- ---- ------- ----- ---- -------<br>--- --- -- ----- -- --- ---- -- --- ---- -- ------ really<br>--- ----- -- ----,172767.8999999985,172767.5,172215.136,172217.8999999985,172231.835,172781.711,,51,really
screen,html.Screen,2_1_0_1_52,2022-02-03T15:40:18.712Z,,,,,,,,,,,,,,,,,53,,,,,,,,,,,,,,438.5890000007348,,response,,,,99,,,,,,,Space,keypress(Space),,,,,,,,---- -- ----- -- ------ - ------- --- ----------<br>------------- ------ ------ ---- ---- ------- ----- -- ----<br>-------- ------- -- ---------- --- - --- ----- ----- ----<br>---- --- --- ----- --- ---- ---- ------- ----- ---- -------<br>--- --- -- ----- -- --- ---- -- --- ---- -- ------ ------<br>not ----- -- ----,173221.30000000075,173220.30000000075,172765.136,172768,172781.711,173231.692,,52,not
screen,html.Screen,2_1_0_1_53,2022-02-03T15:40:19.261Z,,,,,,,,,,,,,,,,,53,,,,,,,,,,,,,,538.0079999992449,,response,,,,99,,,,,,,Space,keypress(Space),,,,,,,,---- -- ----- -- ------ - ------- --- ----------<br>------------- ------ ------ ---- ---- ------- ----- -- ----<br>-------- ------- -- ---------- --- - --- ----- ----- ----<br>---- --- --- ----- --- ---- ---- ------- ----- ---- -------<br>--- --- -- ----- -- --- ---- -- --- ---- -- ------ ------<br>--- close -- ----,173770.59999999776,173769.69999999925,173215.068,173221.59999999776,173231.692,173781.956,,53,close
screen,html.Screen,2_1_0_1_54,2022-02-03T15:40:19.688Z,,,,,,,,,,,,,,,,,53,,,,,,,,,,,,,,415.0439999999944,,response,,,,99,,,,,,,Space,keypress(Space),,,,,,,,---- -- ----- -- ------ - ------- --- ----------<br>------------- ------ ------ ---- ---- ------- ----- -- ----<br>-------- ------- -- ---------- --- - --- ----- ----- ----<br>---- --- --- ----- --- ---- ---- ------- ----- ---- -------<br>--- --- -- ----- -- --- ---- -- --- ---- -- ------ ------<br>--- ----- at ----,174197.80000000075,174197,173765.282,173770.8999999985,173781.956,174215.215,,54,at
screen,html.Screen,2_1_0_1_55,2022-02-03T15:40:20.339Z,,,,,,,,,,,,,,,,,53,,,,,,,,,,,,,,632.2850000000035,,response,,,,99,,,,,,,Space,keypress(Space),,,,,,,,---- -- ----- -- ------ - ------- --- ----------<br>------------- ------ ------ ---- ---- ------- ----- -- ----<br>-------- ------- -- ---------- --- - --- ----- ----- ----<br>---- --- --- ----- --- ---- ---- ------- ----- ---- -------<br>--- --- -- ----- -- --- ---- -- --- ---- -- ------ ------<br>--- ----- -- all.,174848,174847.5,174198.321,174198.09999999776,174215.215,174864.818,,55,all.
Item 99,flow.Loop,2_1_0_1,2022-02-03T15:40:20.339Z,,,,,,,,,,,,,,,,,,,,,,,,,,,,,,,33529.28,,completion,,,,,B,,,,,,,,,,,silence,,,,,174848.19999999925,174847.5,141284.949,141286.3999999985,141318.22,174864.818,,,
Question 1,html.Screen,2_1_0_2,2022-02-03T15:40:28.083Z,,,,,,,,,,,,,,,,,,,,,,,,,,,,true,FALSE,,7726.682000000001,,response,,,,99,B,,,,,,FALSE,click #choice-2,,,,silence,,,,,182592.19999999925,182591.5,174848.434,174848.30000000075,174864.818,182597.358,,,
Question 2,html.Screen,2_1_0_3,2022-02-03T15:40:36.138Z,,,,,,,,,,,,,,,,,,,,,,,,,,,,true,TRUE,,8049.141999999993,,response,,,,99,B,,,,,,TRUE,click #choice-1,,,,silence,,,,,190647.19999999925,190646.5,182580.732,182592.19999999925,182597.358,190679.918,,,
Item 99,flow.Sequence,2_1_0,2022-02-03T15:40:36.138Z,,,,,,,,,,,,,,,,,,,,,,,,,,,,,,,59343.850999999995,,completion,,,,,,,,,,,,,,,,,,,,,190647.3999999985,190646.5,131286.163,131297.30000000075,131302.649,190679.918,,,
Holding screen,html.Screen,2_1_1_0,2022-02-03T15:40:46.154Z,,,,,,,,,,,,,,,,,,,,,,,,,,,,,,,9999.372000000003,,timeout,,,,,,,,,,,,,,,,,,,,,200663.19999999925,200662.478,190663.296,190647.3999999985,190679.918,200679.29,,,
screen,html.Screen,2_1_1_1_0,2022-02-03T15:40:47.461Z,,,,,,,,,,,,,,,,,54,,,,,,,,,,,,,,1290.510000000737,,response,,,,100,,,,,,,Space,keypress(Space),,,,,,,,At --- ---- --- ------ ----- ------- ---- -- --- ------- --<br>------- ---------- ------ -- ----- -- ----- -- ---- ------<br>--- ----- --- --- ------ -------- ----- --- ------ ----- --<br>----- ----- ---------- --- --- ------ ------ ---- -- ------<br>------- --- ------ ----- --- ---- ------- -- ---- --- --<br>------- ------,201970.19999999925,201969.80000000075,200662.478,200663.30000000075,200679.29,201978.999,,0,At
screen,html.Screen,2_1_1_1_1,2022-02-03T15:40:48.046Z,,,,,,,,,,,,,,,,,54,,,,,,,,,,,,,,575.3010000007343,,response,,,,100,,,,,,,Space,keypress(Space),,,,,,,,-- the ---- --- ------ ----- ------- ---- -- --- ------- --<br>------- ---------- ------ -- ----- -- ----- -- ---- ------<br>--- ----- --- --- ------ -------- ----- --- ------ ----- --<br>----- ----- ---------- --- --- ------ ------ ---- -- ------<br>------- --- ------ ----- --- ---- ------- -- ---- --- --<br>------- ------,202555.19999999925,202554.30000000075,201962.391,201970.19999999925,201978.999,202562.052,,1,the
screen,html.Screen,2_1_1_1_2,2022-02-03T15:40:48.653Z,,,,,,,,,,,,,,,,,54,,,,,,,,,,,,,,599.1479999992589,,response,,,,100,,,,,,,Space,keypress(Space),,,,,,,,-- --- time --- ------ ----- ------- ---- -- --- ------- --<br>------- ---------- ------ -- ----- -- ----- -- ---- ------<br>--- ----- --- --- ------ -------- ----- --- ------ ----- --<br>----- ----- ---------- --- --- ------ ------ ---- -- ------<br>------- --- ------ ----- --- ---- ------- -- ---- --- --<br>------- ------,203162,203161.19999999925,202545.74,202555.5,202562.052,203178.804,,2,time
screen,html.Screen,2_1_1_1_3,2022-02-03T15:40:49.061Z,,,,,,,,,,,,,,,,,54,,,,,,,,,,,,,,390.49600000074133,,response,,,,100,,,,,,,Space,keypress(Space),,,,,,,,-- --- ---- the ------ ----- ------- ---- -- --- ------- --<br>------- ---------- ------ -- ----- -- ----- -- ---- ------<br>--- ----- --- --- ------ -------- ----- --- ------ ----- --<br>----- ----- ---------- --- --- ------ ------ ---- -- ------<br>------- --- ------ ----- --- ---- ------- -- ---- --- --<br>------- ------,203570.19999999925,203569.30000000075,203162.239,203162.30000000075,203178.804,203578.624,,3,the
screen,html.Screen,2_1_1_1_4,2022-02-03T15:40:49.561Z,,,,,,,,,,,,,,,,,54,,,,,,,,,,,,,,490.9759999977541,,response,,,,100,,,,,,,Space,keypress(Space),,,,,,,,-- --- ---- --- French ----- ------- ---- -- --- ------- --<br>------- ---------- ------ -- ----- -- ----- -- ---- ------<br>--- ----- --- --- ------ -------- ----- --- ------ ----- --<br>----- ----- ---------- --- --- ------ ------ ---- -- ------<br>------- --- ------ ----- --- ---- ------- -- ---- --- --<br>------- ------,204070.5,204069.59999999776,203562.04,203570.3999999985,203578.624,204078.613,,4,French
screen,html.Screen,2_1_1_1_5,2022-02-03T15:40:50.027Z,,,,,,,,,,,,,,,,,54,,,,,,,,,,,,,,457.2869999984978,,response,,,,100,,,,,,,Space,keypress(Space),,,,,,,,-- --- ---- --- ------ crown ------- ---- -- --- ------- --<br>------- ---------- ------ -- ----- -- ----- -- ---- ------<br>--- ----- --- --- ------ -------- ----- --- ------ ----- --<br>----- ----- ---------- --- --- ------ ------ ---- -- ------<br>------- --- ------ ----- --- ---- ------- -- ---- --- --<br>------- ------,204536.8999999985,204535.8999999985,204061.995,204070.80000000075,204078.613,204545.215,,5,crown
screen,html.Screen,2_1_1_1_6,2022-02-03T15:40:50.641Z,,,,,,,,,,,,,,,,,54,,,,,,,,,,,,,,604.6849999985134,,response,,,,100,,,,,,,Space,keypress(Space),,,,,,,,-- --- ---- --- ------ ----- secured ---- -- --- ------- --<br>------- ---------- ------ -- ----- -- ----- -- ---- ------<br>--- ----- --- --- ------ -------- ----- --- ------ ----- --<br>----- ----- ---------- --- --- ------ ------ ---- -- ------<br>------- --- ------ ----- --- ---- ------- -- ---- --- --<br>------- ------,205150.80000000075,205149.8999999985,204528.893,204537.09999999776,204545.215,205161.741,,6,secured
screen,html.Screen,2_1_1_1_7,2022-02-03T15:40:51.121Z,,,,,,,,,,,,,,,,,54,,,,,,,,,,,,,,467.6589999985008,,response,,,,100,,,,,,,Space,keypress(Space),,,,,,,,-- --- ---- --- ------ ----- ------- much -- --- ------- --<br>------- ---------- ------ -- ----- -- ----- -- ---- ------<br>--- ----- --- --- ------ -------- ----- --- ------ ----- --<br>----- ----- ---------- --- --- ------ ------ ---- -- ------<br>------- --- ------ ----- --- ---- ------- -- ---- --- --<br>------- ------,205630.30000000075,205629.3999999985,205145.201,205151.09999999776,205161.741,205645.088,,7,much
screen,html.Screen,2_1_1_1_8,2022-02-03T15:40:51.562Z,,,,,,,,,,,,,,,,,54,,,,,,,,,,,,,,425.511999997776,,response,,,,100,,,,,,,Space,keypress(Space),,,,,,,,-- --- ---- --- ------ ----- ------- ---- of --- ------- --<br>------- ---------- ------ -- ----- -- ----- -- ---- ------<br>--- ----- --- --- ------ -------- ----- --- ------ ----- --<br>----- ----- ---------- --- --- ------ ------ ---- -- ------<br>------- --- ------ ----- --- ---- ------- -- ---- --- --<br>------- ------,206071.09999999776,206070.59999999776,205628.715,205630.5,205645.088,206078.47,,8,of
screen,html.Screen,2_1_1_1_9,2022-02-03T15:40:52.029Z,,,,,,,,,,,,,,,,,54,,,,,,,,,,,,,,459.8300000007439,,response,,,,100,,,,,,,Space,keypress(Space),,,,,,,,-- --- ---- --- ------ ----- ------- ---- -- its ------- --<br>------- ---------- ------ -- ----- -- ----- -- ---- ------<br>--- ----- --- --- ------ -------- ----- --- ------ ----- --<br>----- ----- ---------- --- --- ------ ------ ---- -- ------<br>------- --- ------ ----- --- ---- ------- -- ---- --- --<br>------- ------,206538.69999999925,206538.30000000075,206061.739,206071.30000000075,206078.47,206545.381,,9,its
screen,html.Screen,2_1_1_1_10,2022-02-03T15:40:52.632Z,,,,,,,,,,,,,,,,,54,,,,,,,,,,,,,,595.119000000006,,response,,,,100,,,,,,,Space,keypress(Space),,,,,,,,-- --- ---- --- ------ ----- ------- ---- -- --- revenue --<br>------- ---------- ------ -- ----- -- ----- -- ---- ------<br>--- ----- --- --- ------ -------- ----- --- ------ ----- --<br>----- ----- ---------- --- --- ------ ------ ---- -- ------<br>------- --- ------ ----- --- ---- ------- -- ---- --- --<br>------- ------,207141.3999999985,207140.5,206528.465,206539.30000000075,206545.381,207144.944,,10,revenue
screen,html.Screen,2_1_1_1_11,2022-02-03T15:40:53.109Z,,,,,,,,,,,,,,,,,54,,,,,,,,,,,,,,472.9559999985213,,response,,,,100,,,,,,,Space,keypress(Space),,,,,,,,-- --- ---- --- ------ ----- ------- ---- -- --- ------- by<br>------- ---------- ------ -- ----- -- ----- -- ---- ------<br>--- ----- --- --- ------ -------- ----- --- ------ ----- --<br>----- ----- ---------- --- --- ------ ------ ---- -- ------<br>------- --- ------ ----- --- ---- ------- -- ---- --- --<br>------- ------,207618.8999999985,207617.8999999985,207128.261,207141.69999999925,207144.944,207628.431,,11,by
screen,html.Screen,2_1_1_1_12,2022-02-03T15:40:53.697Z,,,,,,,,,,,,,,,,,54,,,,,,,,,,,,,,576.8690000007336,,response,,,,100,,,,,,,Space,keypress(Space),,,,,,,,-- --- ---- --- ------ ----- ------- ---- -- --- ------- --<br>issuing ---------- ------ -- ----- -- ----- -- ---- ------<br>--- ----- --- --- ------ -------- ----- --- ------ ----- --<br>----- ----- ---------- --- --- ------ ------ ---- -- ------<br>------- --- ------ ----- --- ---- ------- -- ---- --- --<br>------- ------,208206.09999999776,208205.30000000075,207611.958,207619.09999999776,207628.431,208211.418,,12,issuing
screen,html.Screen,2_1_1_1_13,2022-02-03T15:40:54.276Z,,,,,,,,,,,,,,,,,54,,,,,,,,,,,,,,572.8820000007399,,response,,,,100,,,,,,,Space,keypress(Space),,,,,,,,-- --- ---- --- ------ ----- ------- ---- -- --- ------- --<br>------- government ------ -- ----- -- ----- -- ---- ------<br>--- ----- --- --- ------ -------- ----- --- ------ ----- --<br>----- ----- ---------- --- --- ------ ------ ---- -- ------<br>------- --- ------ ----- --- ---- ------- -- ---- --- --<br>------- ------,208785.19999999925,208784.30000000075,208194.77,208206.3999999985,208211.418,208794.781,,13,government
screen,html.Screen,2_1_1_1_14,2022-02-03T15:40:55.322Z,,,,,,,,,,,,,,,,,54,,,,,,,,,,,,,,1035.6189999985218,,response,,,,100,,,,,,,Space,keypress(Space),,,,,,,,-- --- ---- --- ------ ----- ------- ---- -- --- ------- --<br>------- ---------- bonds. -- ----- -- ----- -- ---- ------<br>--- ----- --- --- ------ -------- ----- --- ------ ----- --<br>----- ----- ---------- --- --- ------ ------ ---- -- ------<br>------- --- ------ ----- --- ---- ------- -- ---- --- --<br>------- ------,209831.30000000075,209830.3999999985,208778.073,208785.59999999776,208794.781,209844.692,,14,bonds.
screen,html.Screen,2_1_1_1_15,2022-02-03T15:40:55.821Z,,,,,,,,,,,,,,,,,54,,,,,,,,,,,,,,484.9079999977548,,response,,,,100,,,,,,,Space,keypress(Space),,,,,,,,-- --- ---- --- ------ ----- ------- ---- -- --- ------- --<br>------- ---------- ------ In ----- -- ----- -- ---- ------<br>--- ----- --- --- ------ -------- ----- --- ------ ----- --<br>----- ----- ---------- --- --- ------ ------ ---- -- ------<br>------- --- ------ ----- --- ---- ------- -- ---- --- --<br>------- ------,210329.8999999985,210329.59999999776,209828.1,209831.59999999776,209844.692,210344.592,,15,In
screen,html.Screen,2_1_1_1_16,2022-02-03T15:40:56.741Z,,,,,,,,,,,,,,,,,54,,,,,,,,,,,,,,905.0079999977606,,response,,,,100,,,,,,,Space,keypress(Space),,,,,,,,"-- --- ---- --- ------ ----- ------- ---- -- --- ------- --<br>------- ---------- ------ -- 1727, -- ----- -- ---- ------<br>--- ----- --- --- ------ -------- ----- --- ------ ----- --<br>----- ----- ---------- --- --- ------ ------ ---- -- ------<br>------- --- ------ ----- --- ---- ------- -- ---- --- --<br>------- ------",211250.3999999985,211249.59999999776,210328.03,210330,210344.592,211261.193,,16,"1727,"
screen,html.Screen,2_1_1_1_17,2022-02-03T15:40:57.452Z,,,,,,,,,,,,,,,,,54,,,,,,,,,,,,,,699.4069999977655,,response,,,,100,,,,,,,Space,keypress(Space),,,,,,,,-- --- ---- --- ------ ----- ------- ---- -- --- ------- --<br>------- ---------- ------ -- ----- in ----- -- ---- ------<br>--- ----- --- --- ------ -------- ----- --- ------ ----- --<br>----- ----- ---------- --- --- ------ ------ ---- -- ------<br>------- --- ------ ----- --- ---- ------- -- ---- --- --<br>------- ------,211961.69999999925,211960.59999999776,211244.833,211250.59999999776,211261.193,211978.076,,17,in
screen,html.Screen,2_1_1_1_18,2022-02-03T15:40:58.132Z,,,,,,,,,,,,,,,,,54,,,,,,,,,,,,,,662.9239999999991,,response,,,,100,,,,,,,Space,keypress(Space),,,,,,,,-- --- ---- --- ------ ----- ------- ---- -- --- ------- --<br>------- ---------- ------ -- ----- -- order -- ---- ------<br>--- ----- --- --- ------ -------- ----- --- ------ ----- --<br>----- ----- ---------- --- --- ------ ------ ---- -- ------<br>------- --- ------ ----- --- ---- ------- -- ---- --- --<br>------- ------,212641.80000000075,212641,211961.373,211962,211978.076,212644.393,,18,order
screen,html.Screen,2_1_1_1_19,2022-02-03T15:40:58.609Z,,,,,,,,,,,,,,,,,54,,,,,,,,,,,,,,473.10699999998906,,response,,,,100,,,,,,,Space,keypress(Space),,,,,,,,-- --- ---- --- ------ ----- ------- ---- -- --- ------- --<br>------- ---------- ------ -- ----- -- ----- to ---- ------<br>--- ----- --- --- ------ -------- ----- --- ------ ----- --<br>----- ----- ---------- --- --- ------ ------ ---- -- ------<br>------- --- ------ ----- --- ---- ------- -- ---- --- --<br>------- ------,213118.3999999985,213117.5,212627.784,212642.09999999776,212644.393,213127.836,,19,to
screen,html.Screen,2_1_1_1_20,2022-02-03T15:40:59.206Z,,,,,,,,,,,,,,,,,54,,,,,,,,,,,,,,587.2639999977546,,response,,,,100,,,,,,,Space,keypress(Space),,,,,,,,-- --- ---- --- ------ ----- ------- ---- -- --- ------- --<br>------- ---------- ------ -- ----- -- ----- -- save ------<br>--- ----- --- --- ------ -------- ----- --- ------ ----- --<br>----- ----- ---------- --- --- ------ ------ ---- -- ------<br>------- --- ------ ----- --- ---- ------- -- ---- --- --<br>------- ------,213715.80000000075,213715.09999999776,213111.375,213118.69999999925,213127.836,213727.657,,20,save
screen,html.Screen,2_1_1_1_21,2022-02-03T15:40:59.690Z,,,,,,,,,,,,,,,,,54,,,,,,,,,,,,,,470.74299999850336,,response,,,,100,,,,,,,Space,keypress(Space),,,,,,,,"-- --- ---- --- ------ ----- ------- ---- -- --- ------- --<br>------- ---------- ------ -- ----- -- ----- -- ---- money,<br>--- ----- --- --- ------ -------- ----- --- ------ ----- --<br>----- ----- ---------- --- --- ------ ------ ---- -- ------<br>------- --- ------ ----- --- ---- ------- -- ---- --- --<br>------- ------",214199.19999999925,214198.3999999985,213711.322,213716.09999999776,213727.657,214210.902,,21,"money,"
screen,html.Screen,2_1_1_1_22,2022-02-03T15:41:00.355Z,,,,,,,,,,,,,,,,,54,,,,,,,,,,,,,,653.0979999999981,,response,,,,100,,,,,,,Space,keypress(Space),,,,,,,,-- --- ---- --- ------ ----- ------- ---- -- --- ------- --<br>------- ---------- ------ -- ----- -- ----- -- ---- ------<br>the ----- --- --- ------ -------- ----- --- ------ ----- --<br>----- ----- ---------- --- --- ------ ------ ---- -- ------<br>------- --- ------ ----- --- ---- ------- -- ---- --- --<br>------- ------,214864.59999999776,214864,214194.621,214199.59999999776,214210.902,214877.678,,22,the
screen,html.Screen,2_1_1_1_23,2022-02-03T15:41:00.864Z,,,,,,,,,,,,,,,,,54,,,,,,,,,,,,,,494.9219999977504,,response,,,,100,,,,,,,Space,keypress(Space),,,,,,,,-- --- ---- --- ------ ----- ------- ---- -- --- ------- --<br>------- ---------- ------ -- ----- -- ----- -- ---- ------<br>--- state --- --- ------ -------- ----- --- ------ ----- --<br>----- ----- ---------- --- --- ------ ------ ---- -- ------<br>------- --- ------ ----- --- ---- ------- -- ---- --- --<br>------- ------,215373,215372.59999999776,214860.868,214864.59999999776,214877.678,215377.379,,23,state
screen,html.Screen,2_1_1_1_24,2022-02-03T15:41:01.288Z,,,,,,,,,,,,,,,,,54,,,,,,,,,,,,,,418.72099999777856,,response,,,,100,,,,,,,Space,keypress(Space),,,,,,,,-- --- ---- --- ------ ----- ------- ---- -- --- ------- --<br>------- ---------- ------ -- ----- -- ----- -- ---- ------<br>--- ----- cut --- ------ -------- ----- --- ------ ----- --<br>----- ----- ---------- --- --- ------ ------ ---- -- ------<br>------- --- ------ ----- --- ---- ------- -- ---- --- --<br>------- ------,215797.09999999776,215796.09999999776,215361.036,215373.09999999776,215377.379,215810.696,,24,cut
screen,html.Screen,2_1_1_1_25,2022-02-03T15:41:01.697Z,,,,,,,,,,,,,,,,,54,,,,,,,,,,,,,,395.00399999925867,,response,,,,100,,,,,,,Space,keypress(Space),,,,,,,,-- --- ---- --- ------ ----- ------- ---- -- --- ------- --<br>------- ---------- ------ -- ----- -- ----- -- ---- ------<br>--- ----- --- the ------ -------- ----- --- ------ ----- --<br>----- ----- ---------- --- --- ------ ------ ---- -- ------<br>------- --- ------ ----- --- ---- ------- -- ---- --- --<br>------- ------,216206.30000000075,216205.69999999925,215794.382,215797.5,215810.696,216210.642,,25,the
screen,html.Screen,2_1_1_1_26,2022-02-03T15:41:02.150Z,,,,,,,,,,,,,,,,,54,,,,,,,,,,,,,,448.35800000000745,,response,,,,100,,,,,,,Space,keypress(Space),,,,,,,,-- --- ---- --- ------ ----- ------- ---- -- --- ------- --<br>------- ---------- ------ -- ----- -- ----- -- ---- ------<br>--- ----- --- --- bonds' -------- ----- --- ------ ----- --<br>----- ----- ---------- --- --- ------ ------ ---- -- ------<br>------- --- ------ ----- --- ---- ------- -- ---- --- --<br>------- ------,216659.8999999985,216659,216194.057,216206.30000000075,216210.642,216677.506,,26,bonds'
screen,html.Screen,2_1_1_1_27,2022-02-03T15:41:02.687Z,,,,,,,,,,,,,,,,,54,,,,,,,,,,,,,,518.2940000007511,,response,,,,100,,,,,,,Space,keypress(Space),,,,,,,,-- --- ---- --- ------ ----- ------- ---- -- --- ------- --<br>------- ---------- ------ -- ----- -- ----- -- ---- ------<br>--- ----- --- --- ------ interest ----- --- ------ ----- --<br>----- ----- ---------- --- --- ------ ------ ---- -- ------<br>------- --- ------ ----- --- ---- ------- -- ---- --- --<br>------- ------,217196.80000000075,217195.80000000075,216660.715,216660.19999999925,216677.506,217210.804,,27,interest
screen,html.Screen,2_1_1_1_28,2022-02-03T15:41:03.246Z,,,,,,,,,,,,,,,,,54,,,,,,,,,,,,,,543.3959999992512,,response,,,,100,,,,,,,Space,keypress(Space),,,,,,,,-- --- ---- --- ------ ----- ------- ---- -- --- ------- --<br>------- ---------- ------ -- ----- -- ----- -- ---- ------<br>--- ----- --- --- ------ -------- rate. --- ------ ----- --<br>----- ----- ---------- --- --- ------ ------ ---- -- ------<br>------- --- ------ ----- --- ---- ------- -- ---- --- --<br>------- ------,217755.09999999776,217754.19999999925,217194.022,217197,217210.804,217760.528,,28,rate.
screen,html.Screen,2_1_1_1_29,2022-02-03T15:41:03.942Z,,,,,,,,,,,,,,,,,54,,,,,,,,,,,,,,689.8719999985187,,response,,,,100,,,,,,,Space,keypress(Space),,,,,,,,-- --- ---- --- ------ ----- ------- ---- -- --- ------- --<br>------- ---------- ------ -- ----- -- ----- -- ---- ------<br>--- ----- --- --- ------ -------- ----- The ------ ----- --<br>----- ----- ---------- --- --- ------ ------ ---- -- ------<br>------- --- ------ ----- --- ---- ------- -- ---- --- --<br>------- ------,218451.30000000075,218450.3999999985,217744.058,217755.30000000075,217760.528,218460.481,,29,The
screen,html.Screen,2_1_1_1_30,2022-02-03T15:41:04.453Z,,,,,,,,,,,,,,,,,54,,,,,,,,,,,,,,500.61899999776506,,response,,,,100,,,,,,,Space,keypress(Space),,,,,,,,-- --- ---- --- ------ ----- ------- ---- -- --- ------- --<br>------- ---------- ------ -- ----- -- ----- -- ---- ------<br>--- ----- --- --- ------ -------- ----- --- market ----- --<br>----- ----- ---------- --- --- ------ ------ ---- -- ------<br>------- --- ------ ----- --- ---- ------- -- ---- --- --<br>------- ------,218961.8999999985,218961.09999999776,218443.861,218451.59999999776,218460.481,218977.422,,30,market
screen,html.Screen,2_1_1_1_31,2022-02-03T15:41:05.160Z,,,,,,,,,,,,,,,,,54,,,,,,,,,,,,,,691.4779999985185,,response,,,,100,,,,,,,Space,keypress(Space),,,,,,,,-- --- ---- --- ------ ----- ------- ---- -- --- ------- --<br>------- ---------- ------ -- ----- -- ----- -- ---- ------<br>--- ----- --- --- ------ -------- ----- --- ------ value --<br>----- ----- ---------- --- --- ------ ------ ---- -- ------<br>------- --- ------ ----- --- ---- ------- -- ---- --- --<br>------- ------,219669.80000000075,219668.8999999985,218960.434,218962.19999999925,218977.422,219676.985,,31,value
screen,html.Screen,2_1_1_1_32,2022-02-03T15:41:05.637Z,,,,,,,,,,,,,,,,,54,,,,,,,,,,,,,,468.2149999992689,,response,,,,100,,,,,,,Space,keypress(Space),,,,,,,,-- --- ---- --- ------ ----- ------- ---- -- --- ------- --<br>------- ---------- ------ -- ----- -- ----- -- ---- ------<br>--- ----- --- --- ------ -------- ----- --- ------ ----- of<br>----- ----- ---------- --- --- ------ ------ ---- -- ------<br>------- --- ------ ----- --- ---- ------- -- ---- --- --<br>------- ------,220146.09999999776,220145.19999999925,219660.719,219670.09999999776,219676.985,220160.525,,32,of
screen,html.Screen,2_1_1_1_33,2022-02-03T15:41:06.176Z,,,,,,,,,,,,,,,,,54,,,,,,,,,,,,,,524.0749999977706,,response,,,,100,,,,,,,Space,keypress(Space),,,,,,,,-- --- ---- --- ------ ----- ------- ---- -- --- ------- --<br>------- ---------- ------ -- ----- -- ----- -- ---- ------<br>--- ----- --- --- ------ -------- ----- --- ------ ----- --<br>these ----- ---------- --- --- ------ ------ ---- -- ------<br>------- --- ------ ----- --- ---- ------- -- ---- --- --<br>------- ------,220685.5,220684.59999999776,220143.974,220146.3999999985,220160.525,220693.576,,33,these
screen,html.Screen,2_1_1_1_34,2022-02-03T15:41:06.711Z,,,,,,,,,,,,,,,,,54,,,,,,,,,,,,,,525.4239999999991,,response,,,,100,,,,,,,Space,keypress(Space),,,,,,,,-- --- ---- --- ------ ----- ------- ---- -- --- ------- --<br>------- ---------- ------ -- ----- -- ----- -- ---- ------<br>--- ----- --- --- ------ -------- ----- --- ------ ----- --<br>----- bonds ---------- --- --- ------ ------ ---- -- ------<br>------- --- ------ ----- --- ---- ------- -- ---- --- --<br>------- ------,221220,221219,220677.235,220685.80000000075,220693.576,221226.795,,34,bonds
screen,html.Screen,2_1_1_1_35,2022-02-03T15:41:07.414Z,,,,,,,,,,,,,,,,,54,,,,,,,,,,,,,,695.5050000007323,,response,,,,100,,,,,,,Space,keypress(Space),,,,,,,,"-- --- ---- --- ------ ----- ------- ---- -- --- ------- --<br>------- ---------- ------ -- ----- -- ----- -- ---- ------<br>--- ----- --- --- ------ -------- ----- --- ------ ----- --<br>----- ----- plummeted, --- --- ------ ------ ---- -- ------<br>------- --- ------ ----- --- ---- ------- -- ---- --- --<br>------- ------",221923,221922.30000000075,221210.492,221220.30000000075,221226.795,221926.775,,35,"plummeted,"
screen,html.Screen,2_1_1_1_36,2022-02-03T15:41:07.881Z,,,,,,,,,,,,,,,,,54,,,,,,,,,,,,,,463.2250000000058,,response,,,,100,,,,,,,Space,keypress(Space),,,,,,,,-- --- ---- --- ------ ----- ------- ---- -- --- ------- --<br>------- ---------- ------ -- ----- -- ----- -- ---- ------<br>--- ----- --- --- ------ -------- ----- --- ------ ----- --<br>----- ----- ---------- and --- ------ ------ ---- -- ------<br>------- --- ------ ----- --- ---- ------- -- ---- --- --<br>------- ------,222390.30000000075,222390,221910.373,221923.30000000075,221926.775,222393.376,,36,and
screen,html.Screen,2_1_1_1_37,2022-02-03T15:41:08.277Z,,,,,,,,,,,,,,,,,54,,,,,,,,,,,,,,392.42400000075577,,response,,,,100,,,,,,,Space,keypress(Space),,,,,,,,-- --- ---- --- ------ ----- ------- ---- -- --- ------- --<br>------- ---------- ------ -- ----- -- ----- -- ---- ------<br>--- ----- --- --- ------ -------- ----- --- ------ ----- --<br>----- ----- ---------- --- the ------ ------ ---- -- ------<br>------- --- ------ ----- --- ---- ------- -- ---- --- --<br>------- ------,222786.59999999776,222785.80000000075,222377.05,222390.3999999985,222393.376,222793.308,,37,the
screen,html.Screen,2_1_1_1_38,2022-02-03T15:41:08.787Z,,,,,,,,,,,,,,,,,54,,,,,,,,,,,,,,501.79199999777484,,response,,,,100,,,,,,,Space,keypress(Space),,,,,,,,-- --- ---- --- ------ ----- ------- ---- -- --- ------- --<br>------- ---------- ------ -- ----- -- ----- -- ---- ------<br>--- ----- --- --- ------ -------- ----- --- ------ ----- --<br>----- ----- ---------- --- --- market ------ ---- -- ------<br>------- --- ------ ----- --- ---- ------- -- ---- --- --<br>------- ------,223296,223295.09999999776,222776.897,222786.80000000075,222793.308,223309.982,,38,market
screen,html.Screen,2_1_1_1_39,2022-02-03T15:41:09.290Z,,,,,,,,,,,,,,,,,54,,,,,,,,,,,,,,488.4179999985208,,response,,,,100,,,,,,,Space,keypress(Space),,,,,,,,-- --- ---- --- ------ ----- ------- ---- -- --- ------- --<br>------- ---------- ------ -- ----- -- ----- -- ---- ------<br>--- ----- --- --- ------ -------- ----- --- ------ ----- --<br>----- ----- ---------- --- --- ------ became ---- -- ------<br>------- --- ------ ----- --- ---- ------- -- ---- --- --<br>------- ------,223799.30000000075,223798.3999999985,223293.377,223296.5,223309.982,223809.93,,39,became
screen,html.Screen,2_1_1_1_40,2022-02-03T15:41:09.714Z,,,,,,,,,,,,,,,,,54,,,,,,,,,,,,,,412.96999999851687,,response,,,,100,,,,,,,Space,keypress(Space),,,,,,,,-- --- ---- --- ------ ----- ------- ---- -- --- ------- --<br>------- ---------- ------ -- ----- -- ----- -- ---- ------<br>--- ----- --- --- ------ -------- ----- --- ------ ----- --<br>----- ----- ---------- --- --- ------ ------ wary -- ------<br>------- --- ------ ----- --- ---- ------- -- ---- --- --<br>------- ------,224223.30000000075,224222.8999999985,223793.327,223799.59999999776,223809.93,224243.482,,40,wary
screen,html.Screen,2_1_1_1_41,2022-02-03T15:41:10.183Z,,,,,,,,,,,,,,,,,54,,,,,,,,,,,,,,447.7179999992659,,response,,,,100,,,,,,,Space,keypress(Space),,,,,,,,-- --- ---- --- ------ ----- ------- ---- -- --- ------- --<br>------- ---------- ------ -- ----- -- ----- -- ---- ------<br>--- ----- --- --- ------ -------- ----- --- ------ ----- --<br>----- ----- ---------- --- --- ------ ------ ---- of ------<br>------- --- ------ ----- --- ---- ------- -- ---- --- --<br>------- ------,224692.09999999776,224691.19999999925,224226.628,224223.3999999985,224243.482,224720.294,,41,of
screen,html.Screen,2_1_1_1_42,2022-02-03T15:41:10.673Z,,,,,,,,,,,,,,,,,54,,,,,,,,,,,,,,460.8059999977704,,response,,,,100,,,,,,,Space,keypress(Space),,,,,,,,-- --- ---- --- ------ ----- ------- ---- -- --- ------- --<br>------- ---------- ------ -- ----- -- ----- -- ---- ------<br>--- ----- --- --- ------ -------- ----- --- ------ ----- --<br>----- ----- ---------- --- --- ------ ------ ---- -- French<br>------- --- ------ ----- --- ---- ------- -- ---- --- --<br>------- ------,225181.8999999985,225181.09999999776,224676.794,224692.3999999985,224720.294,225193.126,,42,French
screen,html.Screen,2_1_1_1_43,2022-02-03T15:41:11.271Z,,,,,,,,,,,,,,,,,54,,,,,,,,,,,,,,586.3740000000107,,response,,,,100,,,,,,,Space,keypress(Space),,,,,,,,-- --- ---- --- ------ ----- ------- ---- -- --- ------- --<br>------- ---------- ------ -- ----- -- ----- -- ---- ------<br>--- ----- --- --- ------ -------- ----- --- ------ ----- --<br>----- ----- ---------- --- --- ------ ------ ---- -- ------<br>credit. --- ------ ----- --- ---- ------- -- ---- --- --<br>------- ------,225780.30000000075,225779.5,225176.696,225182.19999999925,225193.126,225793.031,,43,credit.
screen,html.Screen,2_1_1_1_44,2022-02-03T15:41:11.844Z,,,,,,,,,,,,,,,,,54,,,,,,,,,,,,,,559.7690000007569,,response,,,,100,,,,,,,Space,keypress(Space),,,,,,,,-- --- ---- --- ------ ----- ------- ---- -- --- ------- --<br>------- ---------- ------ -- ----- -- ----- -- ---- ------<br>--- ----- --- --- ------ -------- ----- --- ------ ----- --<br>----- ----- ---------- --- --- ------ ------ ---- -- ------<br>------- The ------ ----- --- ---- ------- -- ---- --- --<br>------- ------,226353.09999999776,226352.80000000075,225776.745,225780.5,225793.031,226360.091,,44,The
screen,html.Screen,2_1_1_1_45,2022-02-03T15:41:12.340Z,,,,,,,,,,,,,,,,,54,,,,,,,,,,,,,,488.50899999777903,,response,,,,100,,,,,,,Space,keypress(Space),,,,,,,,-- --- ---- --- ------ ----- ------- ---- -- --- ------- --<br>------- ---------- ------ -- ----- -- ----- -- ---- ------<br>--- ----- --- --- ------ -------- ----- --- ------ ----- --<br>----- ----- ---------- --- --- ------ ------ ---- -- ------<br>------- --- French ----- --- ---- ------- -- ---- --- --<br>------- ------,226849.59999999776,226848.59999999776,226342.991,226353.19999999925,226360.091,226859.703,,45,French
screen,html.Screen,2_1_1_1_46,2022-02-03T15:41:12.732Z,,,,,,,,,,,,,,,,,54,,,,,,,,,,,,,,380.3969999977562,,response,,,,100,,,,,,,Space,keypress(Space),,,,,,,,-- --- ---- --- ------ ----- ------- ---- -- --- ------- --<br>------- ---------- ------ -- ----- -- ----- -- ---- ------<br>--- ----- --- --- ------ -------- ----- --- ------ ----- --<br>----- ----- ---------- --- --- ------ ------ ---- -- ------<br>------- --- ------ state --- ---- ------- -- ---- --- --<br>------- ------,227241,227240.09999999776,226843.163,226849.8999999985,226859.703,227272.457,,46,state
screen,html.Screen,2_1_1_1_47,2022-02-03T15:41:13.149Z,,,,,,,,,,,,,,,,,54,,,,,,,,,,,,,,385.3430000007502,,response,,,,100,,,,,,,Space,keypress(Space),,,,,,,,-- --- ---- --- ------ ----- ------- ---- -- --- ------- --<br>------- ---------- ------ -- ----- -- ----- -- ---- ------<br>--- ----- --- --- ------ -------- ----- --- ------ ----- --<br>----- ----- ---------- --- --- ------ ------ ---- -- ------<br>------- --- ------ ----- was ---- ------- -- ---- --- --<br>------- ------,227658.69999999925,227657.80000000075,227226.42,227241.30000000075,227272.457,227692.822,,47,was
screen,html.Screen,2_1_1_1_48,2022-02-03T15:41:13.557Z,,,,,,,,,,,,,,,,,54,,,,,,,,,,,,,,372.8779999992694,,response,,,,100,,,,,,,Space,keypress(Space),,,,,,,,-- --- ---- --- ------ ----- ------- ---- -- --- ------- --<br>------- ---------- ------ -- ----- -- ----- -- ---- ------<br>--- ----- --- --- ------ -------- ----- --- ------ ----- --<br>----- ----- ---------- --- --- ------ ------ ---- -- ------<br>------- --- ------ ----- --- left ------- -- ---- --- --<br>------- ------,228066.5,228065.69999999925,227676.624,227659,227692.822,228076.322,,48,left
screen,html.Screen,2_1_1_1_49,2022-02-03T15:41:13.995Z,,,,,,,,,,,,,,,,,54,,,,,,,,,,,,,,427.4780000007595,,response,,,,100,,,,,,,Space,keypress(Space),,,,,,,,-- --- ---- --- ------ ----- ------- ---- -- --- ------- --<br>------- ---------- ------ -- ----- -- ----- -- ---- ------<br>--- ----- --- --- ------ -------- ----- --- ------ ----- --<br>----- ----- ---------- --- --- ------ ------ ---- -- ------<br>------- --- ------ ----- --- ---- without -- ---- --- --<br>------- ------,228504.69999999925,228503.80000000075,228059.798,228066.69999999925,228076.322,228509.451,,49,without
screen,html.Screen,2_1_1_1_50,2022-02-03T15:41:14.397Z,,,,,,,,,,,,,,,,,54,,,,,,,,,,,,,,396.3490000007441,,response,,,,100,,,,,,,Space,keypress(Space),,,,,,,,-- --- ---- --- ------ ----- ------- ---- -- --- ------- --<br>------- ---------- ------ -- ----- -- ----- -- ---- ------<br>--- ----- --- --- ------ -------- ----- --- ------ ----- --<br>----- ----- ---------- --- --- ------ ------ ---- -- ------<br>------- --- ------ ----- --- ---- ------- an ---- --- --<br>------- ------,228906.59999999776,228905.80000000075,228492.77,228504.8999999985,228509.451,228909.392,,50,an
screen,html.Screen,2_1_1_1_51,2022-02-03T15:41:14.813Z,,,,,,,,,,,,,,,,,54,,,,,,,,,,,,,,412.4080000007525,,response,,,,100,,,,,,,Space,keypress(Space),,,,,,,,-- --- ---- --- ------ ----- ------- ---- -- --- ------- --<br>------- ---------- ------ -- ----- -- ----- -- ---- ------<br>--- ----- --- --- ------ -------- ----- --- ------ ----- --<br>----- ----- ---------- --- --- ------ ------ ---- -- ------<br>------- --- ------ ----- --- ---- ------- -- easy --- --<br>------- ------,229322.80000000075,229321.80000000075,228892.872,228906.8999999985,228909.392,229326.042,,51,easy
screen,html.Screen,2_1_1_1_52,2022-02-03T15:41:15.226Z,,,,,,,,,,,,,,,,,54,,,,,,,,,,,,,,408.95800000001327,,response,,,,100,,,,,,,Space,keypress(Space),,,,,,,,-- --- ---- --- ------ ----- ------- ---- -- --- ------- --<br>------- ---------- ------ -- ----- -- ----- -- ---- ------<br>--- ----- --- --- ------ -------- ----- --- ------ ----- --<br>----- ----- ---------- --- --- ------ ------ ---- -- ------<br>------- --- ------ ----- --- ---- ------- -- ---- way --<br>------- ------,229735.8999999985,229735,229309.773,229323.19999999925,229326.042,229742.655,,52,way
screen,html.Screen,2_1_1_1_53,2022-02-03T15:41:15.588Z,,,,,,,,,,,,,,,,,54,,,,,,,,,,,,,,353.444999997766,,response,,,,100,,,,,,,Space,keypress(Space),,,,,,,,-- --- ---- --- ------ ----- ------- ---- -- --- ------- --<br>------- ---------- ------ -- ----- -- ----- -- ---- ------<br>--- ----- --- --- ------ -------- ----- --- ------ ----- --<br>----- ----- ---------- --- --- ------ ------ ---- -- ------<br>------- --- ------ ----- --- ---- ------- -- ---- --- of<br>------- ------,230097,230096.09999999776,229726.047,229736.09999999776,229742.655,230109.42,,53,of
screen,html.Screen,2_1_1_1_54,2022-02-03T15:41:16.008Z,,,,,,,,,,,,,,,,,54,,,,,,,,,,,,,,406.679999997752,,response,,,,100,,,,,,,Space,keypress(Space),,,,,,,,-- --- ---- --- ------ ----- ------- ---- -- --- ------- --<br>------- ---------- ------ -- ----- -- ----- -- ---- ------<br>--- ----- --- --- ------ -------- ----- --- ------ ----- --<br>----- ----- ---------- --- --- ------ ------ ---- -- ------<br>------- --- ------ ----- --- ---- ------- -- ---- --- --<br>raising ------,230517,230516.09999999776,230092.824,230097.30000000075,230109.42,230526.195,,54,raising
screen,html.Screen,2_1_1_1_55,2022-02-03T15:41:16.566Z,,,,,,,,,,,,,,,,,54,,,,,,,,,,,,,,548.1050000007381,,response,,,,100,,,,,,,Space,keypress(Space),,,,,,,,-- --- ---- --- ------ ----- ------- ---- -- --- ------- --<br>------- ---------- ------ -- ----- -- ----- -- ---- ------<br>--- ----- --- --- ------ -------- ----- --- ------ ----- --<br>----- ----- ---------- --- --- ------ ------ ---- -- ------<br>------- --- ------ ----- --- ---- ------- -- ---- --- --<br>------- money.,231075.19999999925,231074.30000000075,230509.325,230517.19999999925,230526.195,231092.445,,55,money.
Item 100,flow.Loop,2_1_1_1,2022-02-03T15:41:16.566Z,,,,,,,,,,,,,,,,,,,,,,,,,,,,,,,30395.010000000737,,completion,,,,,B,,,,,,,,,,,silence,,,,,231075.80000000075,231074.30000000075,200662.478,200663.19999999925,200679.29,231092.445,,,
Question 1,html.Screen,2_1_1_2,2022-02-03T15:41:19.682Z,,,,,,,,,,,,,,,,,,,,,,,,,,,,true,TRUE,,3098.154999997758,,response,,,,100,B,,,,,,TRUE,click #choice-1,,,,silence,,,,,234191.19999999925,234190.59999999776,231076.103,231076,231092.445,234211.634,,,
Question 2,html.Screen,2_1_1_3,2022-02-03T15:41:22.676Z,,,,,,,,,,,,,,,,,,,,,,,,,,,,true,FALSE,,2972.965999997774,,response,,,,100,B,,,,,,FALSE,click #choice-2,,,,silence,,,,,237185.19999999925,237184.59999999776,234175.734,234191.30000000075,234211.634,237191.848,,,
Item 100,flow.Sequence,2_1_1,2022-02-03T15:41:22.676Z,,,,,,,,,,,,,,,,,,,,,,,,,,,,,,,46504.68199999776,,completion,,,,,,,,,,,,,,,,,,,,,237185.3999999985,237184.59999999776,190663.296,190647.3999999985,190679.918,237191.848,,,
End of Practice,html.Page,2_1_2,2022-02-03T15:41:28.029Z,,,,,,,,,,,,,,,,,,,,,,,,,,,,,,,5345.251999997767,,form submission,,,,,,,,,,,,,,,,,,,,,242537.30000000075,242537.09999999776,237175.521,237185.5,237191.848,242541.296,,,
Practice,flow.Sequence,2_1,2022-02-03T15:41:28.029Z,,,,,,,,,,,,,,,,,,,,,,,,,,,,,,,111234.45099999776,,completion,,,,,,,,,,,,,,,,,,,,,242537.3999999985,242537.09999999776,131286.163,131297.30000000075,131302.649,242541.296,,,
Trap_instruction,html.Page,2_2_0,2022-02-03T15:41:33.304Z,,,,,,,,,,,,,,,,,,,,,,,,,,,,,,,5271.603999998508,,form submission,,,,,,,,,,,,,,,,,,,,,247813.09999999776,247812.8999999985,242524.728,242537.5,242541.296,247824.074,,,
trap_trial,html.Screen,2_2_1,2022-02-03T15:41:37.650Z,,,,,,,,,,,,,,,,,,,,,,,,,,,,true,1,,4334.325999998517,,response,,,,,,,,,,,1,click #choice-1,,,,,,,,,252159,252158.3999999985,247807.497,247813.19999999925,247824.074,252173.669,,,
end of trap trial,html.Page,2_2_2,2022-02-03T15:41:39.456Z,,,,,,,,,,,,,,,,,,,,,,,,,,,,,,,1791.3310000000056,,form submission,,,,,,,,,,,,,,,,,,,,,253965.09999999776,253965,252157.086,252159.09999999776,252173.669,253973.534,,,
Trap 1,flow.Sequence,2_2,2022-02-03T15:41:39.457Z,,,,,,,,,,,,,,,,,,,,,,,,,,,,,,,11423.703999999998,,completion,,,,,,,,,,,,,,,,,,,,,253965.19999999925,253965,242524.728,242537.5,242541.296,253973.534,,,
Standby,html.Page,2_3_0,2022-02-03T15:41:47.448Z,,,,,,,,,,,,,,,,,,,,,,,,,,,,,,,7999.131999999983,,timeout,,,,,,,,,,,,,,,,,,,,,261957,261956.377,253957.148,253965.30000000075,253973.534,261972.666,,,
Holding screen,html.Screen,2_3_1_0_0,2022-02-03T15:41:54.448Z,,,,,,,,,,,,,,,,,,,,,,,,,,,,,,,6999.354000000021,,timeout,,,,,,,,,,,,,,,,,,,,,268956.19999999925,268955.345,261956.377,261957,261972.666,268972.02,,,
screen,html.Screen,2_3_1_0_1_0,2022-02-03T15:41:55.822Z,,,,,,,,,,,,,,,,,48,,,,,,,,,,,,,,1358.1799999992363,,response,,,,10,B,,,,,,Space,keypress(Space),,,,lyrical,,,,As -- --- ------ ------- --------- ----------- --------<br>--------- -------- --- ------- -- ------- ---- -- ------<br>-- --- -------- -------- ---------- ---- ---- ---- ------<br>-- --------- -- ---- -- --- -- --- ------- -- - -----<br>---------- -- -- -- ---- ----- -- ------ -- --- ------<br>-------,270331,270330.19999999925,268955.345,268956.3999999985,268972.02,270338.551,,0,As
screen,html.Screen,2_3_1_0_1_1,2022-02-03T15:41:56.264Z,,,,,,,,,,,,,,,,,48,,,,,,,,,,,,,,433.2490000007674,,response,,,,10,B,,,,,,Space,keypress(Space),,,,lyrical,,,,-- in --- ------ ------- --------- ----------- --------<br>--------- -------- --- ------- -- ------- ---- -- ------<br>-- --- -------- -------- ---------- ---- ---- ---- ------<br>-- --------- -- ---- -- --- -- --- ------- -- - -----<br>---------- -- -- -- ---- ----- -- ------ -- --- ------<br>-------,270772.69999999925,270771.80000000075,270322.086,270331.3999999985,270338.551,270788.489,,1,in
screen,html.Screen,2_3_1_0_1_2,2022-02-03T15:41:56.618Z,,,,,,,,,,,,,,,,,48,,,,,,,,,,,,,,337.9109999985085,,response,,,,10,B,,,,,,Space,keypress(Space),,,,lyrical,,,,-- -- the ------ ------- --------- ----------- --------<br>--------- -------- --- ------- -- ------- ---- -- ------<br>-- --- -------- -------- ---------- ---- ---- ---- ------<br>-- --------- -- ---- -- --- -- --- ------- -- - -----<br>---------- -- -- -- ---- ----- -- ------ -- --- ------<br>-------,271126.69999999925,271126.3999999985,270772.259,270772.8999999985,270788.489,271138.364,,2,the
screen,html.Screen,2_3_1_0_1_3,2022-02-03T15:41:57.138Z,,,,,,,,,,,,,,,,,48,,,,,,,,,,,,,,507.83599999925354,,response,,,,10,B,,,,,,Space,keypress(Space),,,,lyrical,,,,-- -- --- United ------- --------- ----------- --------<br>--------- -------- --- ------- -- ------- ---- -- ------<br>-- --- -------- -------- ---------- ---- ---- ---- ------<br>-- --------- -- ---- -- --- -- --- ------- -- - -----<br>---------- -- -- -- ---- ----- -- ------ -- --- ------<br>-------,271646.59999999776,271646.19999999925,271121.844,271126.8999999985,271138.364,271655.131,,3,United
screen,html.Screen,2_3_1_0_1_4,2022-02-03T15:41:57.642Z,,,,,,,,,,,,,,,,,48,,,,,,,,,,,,,,494.6690000007511,,response,,,,10,B,,,,,,Space,keypress(Space),,,,lyrical,,,,"-- -- --- ------ States, --------- ----------- --------<br>--------- -------- --- ------- -- ------- ---- -- ------<br>-- --- -------- -------- ---------- ---- ---- ---- ------<br>-- --------- -- ---- -- --- -- --- ------- -- - -----<br>---------- -- -- -- ---- ----- -- ------ -- --- ------<br>-------",272150.69999999925,272149.80000000075,271638.72,271646.59999999776,271655.131,272155.351,,4,"States,"
screen,html.Screen,2_3_1_0_1_5,2022-02-03T15:41:58.352Z,,,,,,,,,,,,,,,,,48,,,,,,,,,,,,,,703.7489999977406,,response,,,,10,B,,,,,,Space,keypress(Space),,,,lyrical,,,,-- -- --- ------ ------- Colombian ----------- --------<br>--------- -------- --- ------- -- ------- ---- -- ------<br>-- --- -------- -------- ---------- ---- ---- ---- ------<br>-- --------- -- ---- -- --- -- --- ------- -- - -----<br>---------- -- -- -- ---- ----- -- ------ -- --- ------<br>-------,272860.09999999776,272859.09999999776,272138.344,272151,272155.351,272871.605,,5,Colombian
screen,html.Screen,2_3_1_0_1_6,2022-02-03T15:41:59.151Z,,,,,,,,,,,,,,,,,48,,,,,,,,,,,,,,787.3950000000186,,response,,,,10,B,,,,,,Space,keypress(Space),,,,lyrical,,,,-- -- --- ------ ------- --------- legislation --------<br>--------- -------- --- ------- -- ------- ---- -- ------<br>-- --- -------- -------- ---------- ---- ---- ---- ------<br>-- --------- -- ---- -- --- -- --- ------- -- - -----<br>---------- -- -- -- ---- ----- -- ------ -- --- ------<br>-------,273660,273659,272855.204,272860.3999999985,272871.605,273671.561,,6,legislation
screen,html.Screen,2_3_1_0_1_7,2022-02-03T15:42:00.008Z,,,,,,,,,,,,,,,,,48,,,,,,,,,,,,,,844.439000000013,,response,,,,10,B,,,,,,Space,keypress(Space),,,,lyrical,,,,-- -- --- ------ ------- --------- ----------- requires<br>--------- -------- --- ------- -- ------- ---- -- ------<br>-- --- -------- -------- ---------- ---- ---- ---- ------<br>-- --------- -- ---- -- --- -- --- ------- -- - -----<br>---------- -- -- -- ---- ----- -- ------ -- --- ------<br>-------,274516.8999999985,274516,273655.259,273660.19999999925,273671.561,274521.437,,7,requires
screen,html.Screen,2_3_1_0_1_8,2022-02-03T15:42:00.733Z,,,,,,,,,,,,,,,,,48,,,,,,,,,,,,,,719.7629999992787,,response,,,,10,B,,,,,,Space,keypress(Space),,,,lyrical,,,,-- -- --- ------ ------- --------- ----------- --------<br>travelers -------- --- ------- -- ------- ---- -- ------<br>-- --- -------- -------- ---------- ---- ---- ---- ------<br>-- --------- -- ---- -- --- -- --- ------- -- - -----<br>---------- -- -- -- ---- ----- -- ------ -- --- ------<br>-------,275241.59999999776,275241.19999999925,274505.066,274517.19999999925,274521.437,275255.159,,8,travelers
screen,html.Screen,2_3_1_0_1_9,2022-02-03T15:42:01.285Z,,,,,,,,,,,,,,,,,48,,,,,,,,,,,,,,537.8410000000149,,response,,,,10,B,,,,,,Space,keypress(Space),,,,lyrical,,,,-- -- --- ------ ------- --------- ----------- --------<br>--------- entering --- ------- -- ------- ---- -- ------<br>-- --- -------- -------- ---------- ---- ---- ---- ------<br>-- --------- -- ---- -- --- -- --- ------- -- - -----<br>---------- -- -- -- ---- ----- -- ------ -- --- ------<br>-------,275793.5,275793,275238.474,275241.59999999776,275255.159,275804.869,,9,entering
screen,html.Screen,2_3_1_0_1_10,2022-02-03T15:42:01.709Z,,,,,,,,,,,,,,,,,48,,,,,,,,,,,,,,412.13099999999395,,response,,,,10,B,,,,,,Space,keypress(Space),,,,lyrical,,,,-- -- --- ------ ------- --------- ----------- --------<br>--------- -------- the ------- -- ------- ---- -- ------<br>-- --- -------- -------- ---------- ---- ---- ---- ------<br>-- --------- -- ---- -- --- -- --- ------- -- - -----<br>---------- -- -- -- ---- ----- -- ------ -- --- ------<br>-------,276217.80000000075,276217,275788.287,275793.59999999776,275804.869,276221.347,,10,the
screen,html.Screen,2_3_1_0_1_11,2022-02-03T15:42:02.229Z,,,,,,,,,,,,,,,,,48,,,,,,,,,,,,,,514.9530000007362,,response,,,,10,B,,,,,,Space,keypress(Space),,,,lyrical,,,,-- -- --- ------ ------- --------- ----------- --------<br>--------- -------- --- country -- ------- ---- -- ------<br>-- --- -------- -------- ---------- ---- ---- ---- ------<br>-- --------- -- ---- -- --- -- --- ------- -- - -----<br>---------- -- -- -- ---- ----- -- ------ -- --- ------<br>-------,276737.19999999925,276736.30000000075,276205.029,276218.09999999776,276221.347,276771.47,,11,country
screen,html.Screen,2_3_1_0_1_12,2022-02-03T15:42:02.634Z,,,,,,,,,,,,,,,,,48,,,,,,,,,,,,,,370.62999999779277,,response,,,,10,B,,,,,,Space,keypress(Space),,,,lyrical,,,,-- -- --- ------ ------- --------- ----------- --------<br>--------- -------- --- ------- to ------- ---- -- ------<br>-- --- -------- -------- ---------- ---- ---- ---- ------<br>-- --------- -- ---- -- --- -- --- ------- -- - -----<br>---------- -- -- -- ---- ----- -- ------ -- --- ------<br>-------,277143,277142.09999999776,276754.583,276737.59999999776,276771.47,277154.924,,12,to
screen,html.Screen,2_3_1_0_1_13,2022-02-03T15:42:03.244Z,,,,,,,,,,,,,,,,,48,,,,,,,,,,,,,,597.0760000000009,,response,,,,10,B,,,,,,Space,keypress(Space),,,,lyrical,,,,-- -- --- ------ ------- --------- ----------- --------<br>--------- -------- --- ------- -- declare ---- -- ------<br>-- --- -------- -------- ---------- ---- ---- ---- ------<br>-- --------- -- ---- -- --- -- --- ------- -- - -----<br>---------- -- -- -- ---- ----- -- ------ -- --- ------<br>-------,277752.8999999985,277752,277138.084,277143.3999999985,277154.924,277786.739,,13,declare
screen,html.Screen,2_3_1_0_1_14,2022-02-03T15:42:03.985Z,,,,,,,,,,,,,,,,,48,,,,,,,,,,,,,,706.5610000007437,,response,,,,10,B,,,,,,Space,keypress(Space),,,,lyrical,,,,-- -- --- ------ ------- --------- ----------- --------<br>--------- -------- --- ------- -- ------- cash -- ------<br>-- --- -------- -------- ---------- ---- ---- ---- ------<br>-- --------- -- ---- -- --- -- --- ------- -- - -----<br>---------- -- -- -- ---- ----- -- ------ -- --- ------<br>-------,278493.69999999925,278493.30000000075,277737.818,277753.19999999925,277786.739,278504.692,,14,cash
screen,html.Screen,2_3_1_0_1_15,2022-02-03T15:42:04.745Z,,,,,,,,,,,,,,,,,48,,,,,,,,,,,,,,748.1080000007642,,response,,,,10,B,,,,,,Space,keypress(Space),,,,lyrical,,,,-- -- --- ------ ------- --------- ----------- --------<br>--------- -------- --- ------- -- ------- ---- in ------<br>-- --- -------- -------- ---------- ---- ---- ---- ------<br>-- --------- -- ---- -- --- -- --- ------- -- - -----<br>---------- -- -- -- ---- ----- -- ------ -- --- ------<br>-------,279253.8999999985,279252.80000000075,278488.049,278493.80000000075,278504.692,279270.998,,15,in
screen,html.Screen,2_3_1_0_1_16,2022-02-03T15:42:05.305Z,,,,,,,,,,,,,,,,,48,,,,,,,,,,,,,,541.7019999992335,,response,,,,10,B,,,,,,Space,keypress(Space),,,,lyrical,,,,-- -- --- ------ ------- --------- ----------- --------<br>--------- -------- --- ------- -- ------- ---- -- excess<br>-- --- -------- -------- ---------- ---- ---- ---- ------<br>-- --------- -- ---- -- --- -- --- ------- -- - -----<br>---------- -- -- -- ---- ----- -- ------ -- --- ------<br>-------,279813.59999999776,279812.69999999925,279254.398,279254.19999999925,279270.998,279820.93,,16,excess
screen,html.Screen,2_3_1_0_1_17,2022-02-03T15:42:05.736Z,,,,,,,,,,,,,,,,,48,,,,,,,,,,,,,,422.46999999851687,,response,,,,10,B,,,,,,Space,keypress(Space),,,,lyrical,,,,-- -- --- ------ ------- --------- ----------- --------<br>--------- -------- --- ------- -- ------- ---- -- ------<br>of --- -------- -------- ---------- ---- ---- ---- ------<br>-- --------- -- ---- -- --- -- --- ------- -- - -----<br>---------- -- -- -- ---- ----- -- ------ -- --- ------<br>-------,280244.19999999925,280243.3999999985,279804.65,279813.8999999985,279820.93,280254.334,,17,of
screen,html.Screen,2_3_1_0_1_18,2022-02-03T15:42:06.384Z,,,,,,,,,,,,,,,,,48,,,,,,,,,,,,,,638.2659999977914,,response,,,,10,B,,,,,,Space,keypress(Space),,,,lyrical,,,,-- -- --- ------ ------- --------- ----------- --------<br>--------- -------- --- ------- -- ------- ---- -- ------<br>-- ten -------- -------- ---------- ---- ---- ---- ------<br>-- --------- -- ---- -- --- -- --- ------- -- - -----<br>---------- -- -- -- ---- ----- -- ------ -- --- ------<br>-------,280893,280892.59999999776,280237.542,280244.3999999985,280254.334,280904.029,,18,ten
screen,html.Screen,2_3_1_0_1_19,2022-02-03T15:42:06.947Z,,,,,,,,,,,,,,,,,48,,,,,,,,,,,,,,550.5709999977844,,response,,,,10,B,,,,,,Space,keypress(Space),,,,lyrical,,,,-- -- --- ------ ------- --------- ----------- --------<br>--------- -------- --- ------- -- ------- ---- -- ------<br>-- --- thousand -------- ---------- ---- ---- ---- ------<br>-- --------- -- ---- -- --- -- --- ------- -- - -----<br>---------- -- -- -- ---- ----- -- ------ -- --- ------<br>-------,281455.59999999776,281454.59999999776,280887.562,280893.19999999925,280904.029,281470.757,,19,thousand
screen,html.Screen,2_3_1_0_1_20,2022-02-03T15:42:07.811Z,,,,,,,,,,,,,,,,,48,,,,,,,,,,,,,,848.4429999992717,,response,,,,10,B,,,,,,Space,keypress(Space),,,,lyrical,,,,-- -- --- ------ ------- --------- ----------- --------<br>--------- -------- --- ------- -- ------- ---- -- ------<br>-- --- -------- dollars. ---------- ---- ---- ---- ------<br>-- --------- -- ---- -- --- -- --- ------- -- - -----<br>---------- -- -- -- ---- ----- -- ------ -- --- ------<br>-------,282320.09999999776,282319.19999999925,281454.369,281455.80000000075,281470.757,282354.08,,20,dollars.
screen,html.Screen,2_3_1_0_1_21,2022-02-03T15:42:08.678Z,,,,,,,,,,,,,,,,,48,,,,,,,,,,,,,,831.2200000007288,,response,,,,10,B,,,,,,Space,keypress(Space),,,,lyrical,,,,-- -- --- ------ ------- --------- ----------- --------<br>--------- -------- --- ------- -- ------- ---- -- ------<br>-- --- -------- -------- Concealing ---- ---- ---- ------<br>-- --------- -- ---- -- --- -- --- ------- -- - -----<br>---------- -- -- -- ---- ----- -- ------ -- --- ------<br>-------,283186.19999999925,283185.30000000075,282337.671,282320.3999999985,282354.08,283220.616,,21,Concealing
screen,html.Screen,2_3_1_0_1_22,2022-02-03T15:42:09.203Z,,,,,,,,,,,,,,,,,48,,,,,,,,,,,,,,490.48399999778485,,response,,,,10,B,,,,,,Space,keypress(Space),,,,lyrical,,,,-- -- --- ------ ------- --------- ----------- --------<br>--------- -------- --- ------- -- ------- ---- -- ------<br>-- --- -------- -------- ---------- more ---- ---- ------<br>-- --------- -- ---- -- --- -- --- ------- -- - -----<br>---------- -- -- -- ---- ----- -- ------ -- --- ------<br>-------,283712,283711.09999999776,283204.287,283186.5,283220.616,283720.475,,22,more
screen,html.Screen,2_3_1_0_1_23,2022-02-03T15:42:09.717Z,,,,,,,,,,,,,,,,,48,,,,,,,,,,,,,,503.92499999853317,,response,,,,10,B,,,,,,Space,keypress(Space),,,,lyrical,,,,-- -- --- ------ ------- --------- ----------- --------<br>--------- -------- --- ------- -- ------- ---- -- ------<br>-- --- -------- -------- ---------- ---- than ---- ------<br>-- --------- -- ---- -- --- -- --- ------- -- - -----<br>---------- -- -- -- ---- ----- -- ------ -- --- ------<br>-------,284225.5,284224.3999999985,283704.051,283712.30000000075,283720.475,284237.671,,23,than
screen,html.Screen,2_3_1_0_1_24,2022-02-03T15:42:10.180Z,,,,,,,,,,,,,,,,,48,,,,,,,,,,,,,,450.329000000027,,response,,,,10,B,,,,,,Space,keypress(Space),,,,lyrical,,,,-- -- --- ------ ------- --------- ----------- --------<br>--------- -------- --- ------- -- ------- ---- -- ------<br>-- --- -------- -------- ---------- ---- ---- that ------<br>-- --------- -- ---- -- --- -- --- ------- -- - -----<br>---------- -- -- -- ---- ----- -- ------ -- --- ------<br>-------,284689,284688,284220.507,284225.69999999925,284237.671,284703.812,,24,that
screen,html.Screen,2_3_1_0_1_25,2022-02-03T15:42:10.764Z,,,,,,,,,,,,,,,,,48,,,,,,,,,,,,,,567.9880000007688,,response,,,,10,B,,,,,,Space,keypress(Space),,,,lyrical,,,,-- -- --- ------ ------- --------- ----------- --------<br>--------- -------- --- ------- -- ------- ---- -- ------<br>-- --- -------- -------- ---------- ---- ---- ---- amount<br>-- --------- -- ---- -- --- -- --- ------- -- - -----<br>---------- -- -- -- ---- ----- -- ------ -- --- ------<br>-------,285272.69999999925,285271.80000000075,284687.144,284689.19999999925,284703.812,285287.265,,25,amount
screen,html.Screen,2_3_1_0_1_26,2022-02-03T15:42:11.194Z,,,,,,,,,,,,,,,,,48,,,,,,,,,,,,,,414.0350000007311,,response,,,,10,B,,,,,,Space,keypress(Space),,,,lyrical,,,,-- -- --- ------ ------- --------- ----------- --------<br>--------- -------- --- ------- -- ------- ---- -- ------<br>-- --- -------- -------- ---------- ---- ---- ---- ------<br>to --------- -- ---- -- --- -- --- ------- -- - -----<br>---------- -- -- -- ---- ----- -- ------ -- --- ------<br>-------,285702.19999999925,285701.30000000075,285270.405,285273,285287.265,285727.255,,26,to
screen,html.Screen,2_3_1_0_1_27,2022-02-03T15:42:11.760Z,,,,,,,,,,,,,,,,,48,,,,,,,,,,,,,,540.2449999999953,,response,,,,10,B,,,,,,Space,keypress(Space),,,,lyrical,,,,-- -- --- ------ ------- --------- ----------- --------<br>--------- -------- --- ------- -- ------- ---- -- ------<br>-- --- -------- -------- ---------- ---- ---- ---- ------<br>-- transport -- ---- -- --- -- --- ------- -- - -----<br>---------- -- -- -- ---- ----- -- ------ -- --- ------<br>-------,286268.3999999985,286267.5,285687.304,285702.5,285727.255,286292.614,,27,transport
screen,html.Screen,2_3_1_0_1_28,2022-02-03T15:42:12.306Z,,,,,,,,,,,,,,,,,48,,,,,,,,,,,,,,521.4859999977634,,response,,,,10,B,,,,,,Space,keypress(Space),,,,lyrical,,,,-- -- --- ------ ------- --------- ----------- --------<br>--------- -------- --- ------- -- ------- ---- -- ------<br>-- --- -------- -------- ---------- ---- ---- ---- ------<br>-- --------- it ---- -- --- -- --- ------- -- - -----<br>---------- -- -- -- ---- ----- -- ------ -- --- ------<br>-------,286815.09999999776,286814.09999999776,286253.98,286268.69999999925,286292.614,286820.214,,28,it
screen,html.Screen,2_3_1_0_1_29,2022-02-03T15:42:12.763Z,,,,,,,,,,,,,,,,,48,,,,,,,,,,,,,,450.2860000000219,,response,,,,10,B,,,,,,Space,keypress(Space),,,,lyrical,,,,-- -- --- ------ ------- --------- ----------- --------<br>--------- -------- --- ------- -- ------- ---- -- ------<br>-- --- -------- -------- ---------- ---- ---- ---- ------<br>-- --------- -- into -- --- -- --- ------- -- - -----<br>---------- -- -- -- ---- ----- -- ------ -- --- ------<br>-------,287271.30000000075,287270.5,286803.584,286815.3999999985,286820.214,287287.145,,29,into
screen,html.Screen,2_3_1_0_1_30,2022-02-03T15:42:13.432Z,,,,,,,,,,,,,,,,,48,,,,,,,,,,,,,,652.6550000007264,,response,,,,10,B,,,,,,Space,keypress(Space),,,,lyrical,,,,-- -- --- ------ ------- --------- ----------- --------<br>--------- -------- --- ------- -- ------- ---- -- ------<br>-- --- -------- -------- ---------- ---- ---- ---- ------<br>-- --------- -- ---- or --- -- --- ------- -- - -----<br>---------- -- -- -- ---- ----- -- ------ -- --- ------<br>-------,287940.59999999776,287939.80000000075,287270.419,287271.59999999776,287287.145,287953.834,,30,or
screen,html.Screen,2_3_1_0_1_31,2022-02-03T15:42:14.093Z,,,,,,,,,,,,,,,,,48,,,,,,,,,,,,,,646.9660000007716,,response,,,,10,B,,,,,,Space,keypress(Space),,,,lyrical,,,,-- -- --- ------ ------- --------- ----------- --------<br>--------- -------- --- ------- -- ------- ---- -- ------<br>-- --- -------- -------- ---------- ---- ---- ---- ------<br>-- --------- -- ---- -- out -- --- ------- -- - -----<br>---------- -- -- -- ---- ----- -- ------ -- --- ------<br>-------,288601.3999999985,288600.80000000075,287936.843,287940.69999999925,287953.834,288603.311,,31,out
screen,html.Screen,2_3_1_0_1_32,2022-02-03T15:42:14.614Z,,,,,,,,,,,,,,,,,48,,,,,,,,,,,,,,518.189000000013,,response,,,,10,B,,,,,,Space,keypress(Space),,,,lyrical,,,,-- -- --- ------ ------- --------- ----------- --------<br>--------- -------- --- ------- -- ------- ---- -- ------<br>-- --- -------- -------- ---------- ---- ---- ---- ------<br>-- --------- -- ---- -- --- of --- ------- -- - -----<br>---------- -- -- -- ---- ----- -- ------ -- --- ------<br>-------,289122.5,289121.5,288586.989,288601.5,288603.311,289136.634,,32,of
screen,html.Screen,2_3_1_0_1_33,2022-02-03T15:42:15.030Z,,,,,,,,,,,,,,,,,48,,,,,,,,,,,,,,400.86599999998,,response,,,,10,B,,,,,,Space,keypress(Space),,,,lyrical,,,,-- -- --- ------ ------- --------- ----------- --------<br>--------- -------- --- ------- -- ------- ---- -- ------<br>-- --- -------- -------- ---------- ---- ---- ---- ------<br>-- --------- -- ---- -- --- -- the ------- -- - -----<br>---------- -- -- -- ---- ----- -- ------ -- --- ------<br>-------,289538.3999999985,289537.5,289120.253,289122.69999999925,289136.634,289553.518,,33,the
screen,html.Screen,2_3_1_0_1_34,2022-02-03T15:42:15.607Z,,,,,,,,,,,,,,,,,48,,,,,,,,,,,,,,561.1819999992731,,response,,,,10,B,,,,,,Space,keypress(Space),,,,lyrical,,,,-- -- --- ------ ------- --------- ----------- --------<br>--------- -------- --- ------- -- ------- ---- -- ------<br>-- --- -------- -------- ---------- ---- ---- ---- ------<br>-- --------- -- ---- -- --- -- --- country -- - -----<br>---------- -- -- -- ---- ----- -- ------ -- --- ------<br>-------,290115.59999999776,290114.69999999925,289536.674,289538.59999999776,289553.518,290119.922,,34,country
screen,html.Screen,2_3_1_0_1_35,2022-02-03T15:42:16.070Z,,,,,,,,,,,,,,,,,48,,,,,,,,,,,,,,457.67799999774434,,response,,,,10,B,,,,,,Space,keypress(Space),,,,lyrical,,,,-- -- --- ------ ------- --------- ----------- --------<br>--------- -------- --- ------- -- ------- ---- -- ------<br>-- --- -------- -------- ---------- ---- ---- ---- ------<br>-- --------- -- ---- -- --- -- --- ------- is - -----<br>---------- -- -- -- ---- ----- -- ------ -- --- ------<br>-------,290578.3999999985,290577.59999999776,290103.216,290115.80000000075,290119.922,290586.682,,35,is
screen,html.Screen,2_3_1_0_1_36,2022-02-03T15:42:16.450Z,,,,,,,,,,,,,,,,,48,,,,,,,,,,,,,,371.61800000077346,,response,,,,10,B,,,,,,Space,keypress(Space),,,,lyrical,,,,-- -- --- ------ ------- --------- ----------- --------<br>--------- -------- --- ------- -- ------- ---- -- ------<br>-- --- -------- -------- ---------- ---- ---- ---- ------<br>-- --------- -- ---- -- --- -- --- ------- -- a -----<br>---------- -- -- -- ---- ----- -- ------ -- --- ------<br>-------,290959.09999999776,290958.30000000075,290570.178,290578.69999999925,290586.682,290969.816,,36,a
screen,html.Screen,2_3_1_0_1_37,2022-02-03T15:42:16.871Z,,,,,,,,,,,,,,,,,48,,,,,,,,,,,,,,408.98400000075344,,response,,,,10,B,,,,,,Space,keypress(Space),,,,lyrical,,,,-- -- --- ------ ------- --------- ----------- --------<br>--------- -------- --- ------- -- ------- ---- -- ------<br>-- --- -------- -------- ---------- ---- ---- ---- ------<br>-- --------- -- ---- -- --- -- --- ------- -- - crime<br>---------- -- -- -- ---- ----- -- ------ -- --- ------<br>-------,291379.09999999776,291378.80000000075,290953.157,290959.3999999985,290969.816,291386.342,,37,crime
screen,html.Screen,2_3_1_0_1_38,2022-02-03T15:42:17.256Z,,,,,,,,,,,,,,,,,48,,,,,,,,,,,,,,377.35799999925075,,response,,,,10,B,,,,,,Space,keypress(Space),,,,lyrical,,,,-- -- --- ------ ------- --------- ----------- --------<br>--------- -------- --- ------- -- ------- ---- -- ------<br>-- --- -------- -------- ---------- ---- ---- ---- ------<br>-- --------- -- ---- -- --- -- --- ------- -- - -----<br>punishable -- -- -- ---- ----- -- ------ -- --- ------<br>-------,291764.5,291763.69999999925,291370.055,291379.19999999925,291386.342,291769.709,,38,punishable
screen,html.Screen,2_3_1_0_1_39,2022-02-03T15:42:17.716Z,,,,,,,,,,,,,,,,,48,,,,,,,,,,,,,,453.89099999779137,,response,,,,10,B,,,,,,Space,keypress(Space),,,,lyrical,,,,-- -- --- ------ ------- --------- ----------- --------<br>--------- -------- --- ------- -- ------- ---- -- ------<br>-- --- -------- -------- ---------- ---- ---- ---- ------<br>-- --------- -- ---- -- --- -- --- ------- -- - -----<br>---------- by -- -- ---- ----- -- ------ -- --- ------<br>-------,292224.5,292223.59999999776,291753.018,291764.69999999925,291769.709,292236.533,,39,by
screen,html.Screen,2_3_1_0_1_40,2022-02-03T15:42:18.061Z,,,,,,,,,,,,,,,,,48,,,,,,,,,,,,,,332.4670000000042,,response,,,,10,B,,,,,,Space,keypress(Space),,,,lyrical,,,,-- -- --- ------ ------- --------- ----------- --------<br>--------- -------- --- ------- -- ------- ---- -- ------<br>-- --- -------- -------- ---------- ---- ---- ---- ------<br>-- --------- -- ---- -- --- -- --- ------- -- - -----<br>---------- -- up -- ---- ----- -- ------ -- --- ------<br>-------,292569.80000000075,292569,292219.943,292224.80000000075,292236.533,292586.335,,40,up
screen,html.Screen,2_3_1_0_1_41,2022-02-03T15:42:18.482Z,,,,,,,,,,,,,,,,,48,,,,,,,,,,,,,,402.864999999234,,response,,,,10,B,,,,,,Space,keypress(Space),,,,lyrical,,,,-- -- --- ------ ------- --------- ----------- --------<br>--------- -------- --- ------- -- ------- ---- -- ------<br>-- --- -------- -------- ---------- ---- ---- ---- ------<br>-- --------- -- ---- -- --- -- --- ------- -- - -----<br>---------- -- -- to ---- ----- -- ------ -- --- ------<br>-------,292990.19999999925,292989.19999999925,292569.72,292570.19999999925,292586.335,293003.205,,41,to
screen,html.Screen,2_3_1_0_1_42,2022-02-03T15:42:18.824Z,,,,,,,,,,,,,,,,,48,,,,,,,,,,,,,,328.49499999923864,,response,,,,10,B,,,,,,Space,keypress(Space),,,,lyrical,,,,-- -- --- ------ ------- --------- ----------- --------<br>--------- -------- --- ------- -- ------- ---- -- ------<br>-- --- -------- -------- ---------- ---- ---- ---- ------<br>-- --------- -- ---- -- --- -- --- ------- -- - -----<br>---------- -- -- -- five ----- -- ------ -- --- ------<br>-------,293332.69999999925,293331.69999999925,292986.327,292990.59999999776,293003.205,293336.234,,42,five
