sender,sender_type,sender_id,timestamp,meta,,Blues,Classical,Country,Dance,Electronic,Folk,Gospel,Hip-Hop,Jazz,Latin,Musical/Film,New-age,Pop,Prolific_id,Provo_ID,R&B,Rap,Reggae,Religious,Rock,Soul,Swing,Traditional,age,artist_name,correct,correctResponse,distraction,duration,education,ended_on,familiarity,gender,headphone_check_performance,item,list,music_frequency,offensiveness,pleasantness,position_correct,preference,response,response_action,snippet_file,song_name,song_rating,sound,stimulus_1,stimulus_2,stimulus_3,text,time_commit,time_end,time_render,time_run,time_show,time_switch,url,word,word_ID
Prolific ID,html.Form,0,2022-02-15T16:26:31.192Z,"{""labjs_version"":""20.2.2"",""labjs_build"":{""flavor"":""production"",""commit"":""a25486e0c714a0ae2ce03ff94b7bb6896854dcfa""},""location"":""https://run.pavlovia.org/mvasilev/prolific2_music_b/"",""userAgent"":""Mozilla/5.0 (Macintosh; Intel Mac OS X 10_14_6) AppleWebKit/605.1.15 (KHTML, like Gecko) Version/14.1.2 Safari/605.1.15"",""platform"":""MacIntel"",""language"":""en-gb"",""locale"":""en-GB"",""timeZone"":""Europe/London"",""timezoneOffset"":0,""screen_width"":1280,""screen_height"":800,""scroll_width"":1280,""scroll_height"":608,""window_innerWidth"":1280,""window_innerHeight"":656,""devicePixelRatio"":2}",,,,,,,,,,,,,,,5f77a902fc647a327b77004a,,,,,,,,,,,,,,,5546,,form submission,,,,,,,,,,,,,,,,,,,,,17323,17322,11750,11733,11776,17351,{},,
Introduction,html.Screen,1_0,2022-02-15T16:26:36.571Z,,,,,,,,,,,,,,,,,,,,,,,,,,,,,,,5289,,response,,,,,,,,,,,continue,click button,,,,,,,,,22702,22626,17337,17323,17351,22728,,,
Volume calibration,html.Screen,1_1,2022-02-15T16:26:56.326Z,,,,,,,,,,,,,,,,,,,,,,,,,,,,,,,19668,,response,,,,,,,,,,,continue,click button,,,,,,,,,42456,42379,22711,22702,22728,42482,,,
Task instructions,html.Screen,1_2,2022-02-15T16:27:04.568Z,,,,,,,,,,,,,,,,,,,,,,,,,,,,,,,8154,,response,,,,,,,,,,,continue,click button,,,,,,,,,50698,50619,42465,42456,42482,50737,,,
Sounds,html.Screen,1_3_0_0,2022-02-15T16:27:08.837Z,,,,,,,,,,,,,,,,,,,,,,,,,,,,,,,4245,,timeout,,,,,,,,,1,,,,,,,,S,I,O,,54967,54966,50720,50698,50737,54982,,,
Judgement,html.Screen,1_3_0_1,2022-02-15T16:27:09.757Z,,,,,,,,,,,,,,,,,,,,,,,,,,,,true,1,,837.0000000000073,,response,,,,,,,,,1,,1,click #choice-1,,,,,S,I,O,,55887,55803.00000000001,54966,54969,54982,55916,,,
Trial,flow.Sequence,1_3_0,2022-02-15T16:27:09.758Z,,,,,,,,,,,,,,,,,,,,,,,,,,,,,,,5066.000000000007,,completion,,,,,,,,,1,,,,,,,,S,I,O,,55888,55803.00000000001,50720,50698,50737,55916,,,
Sounds,html.Screen,1_3_1_0,2022-02-15T16:27:14.022Z,,,,,,,,,,,,,,,,,,,,,,,,,,,,,,,4251,,timeout,,,,,,,,,2,,,,,,,,O,S,I,,60151,60151,55900,55888,55916,60167,,,
Judgement,html.Screen,1_3_1_1,2022-02-15T16:27:15.185Z,,,,,,,,,,,,,,,,,,,,,,,,,,,,true,2,,1088.0000000000073,,response,,,,,,,,,2,,2,click #choice-2,,,,,O,S,I,,61315,61239.00000000001,60151,60151,60167,61334,,,
Trial,flow.Sequence,1_3_1,2022-02-15T16:27:15.186Z,,,,,,,,,,,,,,,,,,,,,,,,,,,,,,,5323.000000000007,,completion,,,,,,,,,2,,,,,,,,O,S,I,,61315,61239.00000000001,55900,55888,55916,61334,,,
Sounds,html.Screen,1_3_2_0,2022-02-15T16:27:19.442Z,,,,,,,,,,,,,,,,,,,,,,,,,,,,,,,4253,,timeout,,,,,,,,,2,,,,,,,,I,S,O,,65571,65571,61319,61315,61334,65587,,,
Judgement,html.Screen,1_3_2_1,2022-02-15T16:27:20.078Z,,,,,,,,,,,,,,,,,,,,,,,,,,,,true,2,,559,,response,,,,,,,,,2,,2,click #choice-2,,,,,I,S,O,,66207.00000000001,66130,65571,65571,65587,66237,,,
Trial,flow.Sequence,1_3_2,2022-02-15T16:27:20.078Z,,,,,,,,,,,,,,,,,,,,,,,,,,,,,,,4796,,completion,,,,,,,,,2,,,,,,,,I,S,O,,66207.00000000001,66130,61319,61315,61334,66237,,,
Sounds,html.Screen,1_3_3_0,2022-02-15T16:27:24.344Z,,,,,,,,,,,,,,,,,,,,,,,,,,,,,,,4252,,timeout,,,,,,,,,3,,,,,,,,I,O,S,,70473,70473,66221,66208,66237,70489,,,
Judgement,html.Screen,1_3_3_1,2022-02-15T16:27:25.002Z,,,,,,,,,,,,,,,,,,,,,,,,,,,,true,3,,581,,response,,,,,,,,,3,,3,click #choice-3,,,,,I,O,S,,71131,71054,70473,70474,70489,71156,,,
Trial,flow.Sequence,1_3_3,2022-02-15T16:27:25.002Z,,,,,,,,,,,,,,,,,,,,,,,,,,,,,,,4817,,completion,,,,,,,,,3,,,,,,,,I,O,S,,71131,71054,66221,66207.00000000001,66237,71156,,,
Sounds,html.Screen,1_3_4_0,2022-02-15T16:27:29.263Z,,,,,,,,,,,,,,,,,,,,,,,,,,,,,,,4253,,timeout,,,,,,,,,1,,,,,,,,S,O,I,,75392,75392,71139,71131,71156,75409,,,
Judgement,html.Screen,1_3_4_1,2022-02-15T16:27:29.830Z,,,,,,,,,,,,,,,,,,,,,,,,,,,,true,1,,490,,response,,,,,,,,,1,,1,click #choice-1,,,,,S,O,I,,75959,75882,75392,75392,75409,75992,,,
Trial,flow.Sequence,1_3_4,2022-02-15T16:27:29.830Z,,,,,,,,,,,,,,,,,,,,,,,,,,,,,,,4726,,completion,,,,,,,,,1,,,,,,,,S,O,I,,75960.00000000001,75882,71139,71131,71156,75992,,,
Sounds,html.Screen,1_3_5_0,2022-02-15T16:27:34.098Z,,,,,,,,,,,,,,,,,,,,,,,,,,,,,,,4252,,timeout,,,,,,,,,3,,,,,,,,O,I,S,,80227,80227,75976,75960.00000000001,75992,80244,,,
Judgement,html.Screen,1_3_5_1,2022-02-15T16:27:34.938Z,,,,,,,,,,,,,,,,,,,,,,,,,,,,true,3,,763,,response,,,,,,,,,3,,3,click #choice-3,,,,,O,I,S,,81067,80990,80227,80227,80244,81095,,,
Trial,flow.Sequence,1_3_5,2022-02-15T16:27:34.938Z,,,,,,,,,,,,,,,,,,,,,,,,,,,,,,,4998,,completion,,,,,,,,,3,,,,,,,,O,I,S,,81067,80990,75976,75960.00000000001,75992,81095,,,
Task,flow.Loop,1_3,2022-02-15T16:27:34.941Z,,,,,,,,,,,,,,,,,,,,,,,,,,,,,,,30253,,completion,,,1,,,,,,,,,,,,,,,,,,81069,80990,50720,50698,50737,81095,,,
Trap,html.Screen,1_4,2022-02-15T16:27:34.941Z,,,,,,,,,,,,,,,,,,,,,,,,,,,,,,,NaN,,skipped,,,,,,,,,,,,,,,,,,,,,81070.00000000001,80990,,81070.00000000001,,81095,,,
Thanks,html.Screen,1_5,2022-02-15T16:27:37.720Z,,,,,,,,,,,,,,,,,,,,,,,,,,,,,,,2695,,response,,,,,,,,,,,continue,click button,,,,,,,,,83849,83772,81077,81070.00000000001,81095,88414,,,
Headphone screening,flow.Sequence,1,2022-02-15T16:27:37.721Z,,,,,,,,,,,,,,,,,,,,,,,,,,,,,,,66421,,completion,,,,,,,,,,,,,,,,,,,,,83849,83772,17337,17323,17351,88414,,,
Instructions,html.Page,2_0,2022-02-15T16:28:14.347Z,,,,,,,,,,,,,,,,,,,,,,,,,,,,,,,32060,,form submission,,,,,,,,,,,,,,,,,,,,,120474,120474,88402,88396,88414,120503,,,
Holding screen,html.Screen,2_1_0_0,2022-02-15T16:28:24.354Z,,,,,,,,,,,,,,,,,,,,,,,,,,,,,,,9998,,timeout,,,,,,,,,,,,,,,,,,,,,130481,130481,120487,120475.00000000001,120503,130501,,,
screen,html.Screen,2_1_0_1_0,2022-02-15T16:28:25.368Z,,,,,,,,,,,,,,,,,53,,,,,,,,,,,,,,935,,response,,,,99,,,,,,,Space,keypress(Space),,,,,,,,When -- ----- -- ------ - ------- --- ----------<br>------------- ------ ------ ---- ---- ------- ----- -- ----<br>-------- ------- -- ---------- --- - --- ----- ----- ----<br>---- --- --- ----- --- ---- ---- ------- ----- ---- -------<br>--- --- -- ----- -- --- ---- -- --- ---- -- ------ ------<br>--- ----- -- ----,131496,131416,130481,130481,130501,131529,,0,When
screen,html.Screen,2_1_0_1_1,2022-02-15T16:28:25.824Z,,,,,,,,,,,,,,,,,53,,,,,,,,,,,,,,358,,response,,,,99,,,,,,,Space,keypress(Space),,,,,,,,---- it ----- -- ------ - ------- --- ----------<br>------------- ------ ------ ---- ---- ------- ----- -- ----<br>-------- ------- -- ---------- --- - --- ----- ----- ----<br>---- --- --- ----- --- ---- ---- ------- ----- ---- -------<br>--- --- -- ----- -- --- ---- -- --- ---- -- ------ ------<br>--- ----- -- ----,131951,131872,131514,131496,131529,131979,,1,it
screen,html.Screen,2_1_0_1_2,2022-02-15T16:28:26.416Z,,,,,,,,,,,,,,,,,53,,,,,,,,,,,,,,500,,response,,,,99,,,,,,,Space,keypress(Space),,,,,,,,---- -- comes -- ------ - ------- --- ----------<br>------------- ------ ------ ---- ---- ------- ----- -- ----<br>-------- ------- -- ---------- --- - --- ----- ----- ----<br>---- --- --- ----- --- ---- ---- ------- ----- ---- -------<br>--- --- -- ----- -- --- ---- -- --- ---- -- ------ ------<br>--- ----- -- ----,132543,132464,131964,131951,131979,132580,,2,comes
screen,html.Screen,2_1_0_1_3,2022-02-15T16:28:26.920Z,,,,,,,,,,,,,,,,,53,,,,,,,,,,,,,,404,,response,,,,99,,,,,,,Space,keypress(Space),,,,,,,,---- -- ----- to ------ - ------- --- ----------<br>------------- ------ ------ ---- ---- ------- ----- -- ----<br>-------- ------- -- ---------- --- - --- ----- ----- ----<br>---- --- --- ----- --- ---- ---- ------- ----- ---- -------<br>--- --- -- ----- -- --- ---- -- --- ---- -- ------ ------<br>--- ----- -- ----,133047,132968,132564,132543,132580,133080,,3,to
screen,html.Screen,2_1_0_1_4,2022-02-15T16:28:27.378Z,,,,,,,,,,,,,,,,,53,,,,,,,,,,,,,,361,,response,,,,99,,,,,,,Space,keypress(Space),,,,,,,,---- -- ----- -- having - ------- --- ----------<br>------------- ------ ------ ---- ---- ------- ----- -- ----<br>-------- ------- -- ---------- --- - --- ----- ----- ----<br>---- --- --- ----- --- ---- ---- ------- ----- ---- -------<br>--- --- -- ----- -- --- ---- -- --- ---- -- ------ ------<br>--- ----- -- ----,133505,133424,133063,133047,133080,133548,,4,having
screen,html.Screen,2_1_0_1_5,2022-02-15T16:28:27.728Z,,,,,,,,,,,,,,,,,53,,,,,,,,,,,,,,246,,response,,,,99,,,,,,,Space,keypress(Space),,,,,,,,---- -- ----- -- ------ a ------- --- ----------<br>------------- ------ ------ ---- ---- ------- ----- -- ----<br>-------- ------- -- ---------- --- - --- ----- ----- ----<br>---- --- --- ----- --- ---- ---- ------- ----- ---- -------<br>--- --- -- ----- -- --- ---- -- --- ---- -- ------ ------<br>--- ----- -- ----,133855,133776,133530,133505,133548,133881,,5,a
screen,html.Screen,2_1_0_1_6,2022-02-15T16:28:28.216Z,,,,,,,,,,,,,,,,,53,,,,,,,,,,,,,,400,,response,,,,99,,,,,,,Space,keypress(Space),,,,,,,,---- -- ----- -- ------ - lasting --- ----------<br>------------- ------ ------ ---- ---- ------- ----- -- ----<br>-------- ------- -- ---------- --- - --- ----- ----- ----<br>---- --- --- ----- --- ---- ---- ------- ----- ---- -------<br>--- --- -- ----- -- --- ---- -- --- ---- -- ------ ------<br>--- ----- -- ----,134343,134264,133864,133855,133881,134381,,6,lasting
screen,html.Screen,2_1_0_1_7,2022-02-15T16:28:28.608Z,,,,,,,,,,,,,,,,,53,,,,,,,,,,,,,,291,,response,,,,99,,,,,,,Space,keypress(Space),,,,,,,,---- -- ----- -- ------ - ------- and ----------<br>------------- ------ ------ ---- ---- ------- ----- -- ----<br>-------- ------- -- ---------- --- - --- ----- ----- ----<br>---- --- --- ----- --- ---- ---- ------- ----- ---- -------<br>--- --- -- ----- -- --- ---- -- --- ---- -- ------ ------<br>--- ----- -- ----,134735,134656,134365,134343,134381,134764,,7,and
screen,html.Screen,2_1_0_1_8,2022-02-15T16:28:29.113Z,,,,,,,,,,,,,,,,,53,,,,,,,,,,,,,,413,,response,,,,99,,,,,,,Space,keypress(Space),,,,,,,,---- -- ----- -- ------ - ------- --- fulfilling<br>------------- ------ ------ ---- ---- ------- ----- -- ----<br>-------- ------- -- ---------- --- - --- ----- ----- ----<br>---- --- --- ----- --- ---- ---- ------- ----- ---- -------<br>--- --- -- ----- -- --- ---- -- --- ---- -- ------ ------<br>--- ----- -- ----,135240,135160,134747,134735,134764,135281,,8,fulfilling
screen,html.Screen,2_1_0_1_9,2022-02-15T16:28:29.728Z,,,,,,,,,,,,,,,,,53,,,,,,,,,,,,,,511,,response,,,,99,,,,,,,Space,keypress(Space),,,,,,,,"---- -- ----- -- ------ - ------- --- ----------<br>relationship, ------ ------ ---- ---- ------- ----- -- ----<br>-------- ------- -- ---------- --- - --- ----- ----- ----<br>---- --- --- ----- --- ---- ---- ------- ----- ---- -------<br>--- --- -- ----- -- --- ---- -- --- ---- -- ------ ------<br>--- ----- -- ----",135855,135776,135265,135240,135281,135882,,9,"relationship,"
screen,html.Screen,2_1_0_1_10,2022-02-15T16:28:30.497Z,,,,,,,,,,,,,,,,,53,,,,,,,,,,,,,,679,,response,,,,99,,,,,,,Space,keypress(Space),,,,,,,,---- -- ----- -- ------ - ------- --- ----------<br>------------- common ------ ---- ---- ------- ----- -- ----<br>-------- ------- -- ---------- --- - --- ----- ----- ----<br>---- --- --- ----- --- ---- ---- ------- ----- ---- -------<br>--- --- -- ----- -- --- ---- -- --- ---- -- ------ ------<br>--- ----- -- ----,136624,136544,135865,135855,135882,136657,,10,common
screen,html.Screen,2_1_0_1_11,2022-02-15T16:28:31.136Z,,,,,,,,,,,,,,,,,53,,,,,,,,,,,,,,544,,response,,,,99,,,,,,,Space,keypress(Space),,,,,,,,---- -- ----- -- ------ - ------- --- ----------<br>------------- ------ wisdom ---- ---- ------- ----- -- ----<br>-------- ------- -- ---------- --- - --- ----- ----- ----<br>---- --- --- ----- --- ---- ---- ------- ----- ---- -------<br>--- --- -- ----- -- --- ---- -- --- ---- -- ------ ------<br>--- ----- -- ----,137263,137184,136640,136624,136657,137290,,11,wisdom
screen,html.Screen,2_1_0_1_12,2022-02-15T16:28:31.584Z,,,,,,,,,,,,,,,,,53,,,,,,,,,,,,,,358,,response,,,,99,,,,,,,Space,keypress(Space),,,,,,,,---- -- ----- -- ------ - ------- --- ----------<br>------------- ------ ------ says ---- ------- ----- -- ----<br>-------- ------- -- ---------- --- - --- ----- ----- ----<br>---- --- --- ----- --- ---- ---- ------- ----- ---- -------<br>--- --- -- ----- -- --- ---- -- --- ---- -- ------ ------<br>--- ----- -- ----,137712,137632,137274,137264,137290,137740,,12,says
screen,html.Screen,2_1_0_1_13,2022-02-15T16:28:32.097Z,,,,,,,,,,,,,,,,,53,,,,,,,,,,,,,,420,,response,,,,99,,,,,,,Space,keypress(Space),,,,,,,,---- -- ----- -- ------ - ------- --- ----------<br>------------- ------ ------ ---- that ------- ----- -- ----<br>-------- ------- -- ---------- --- - --- ----- ----- ----<br>---- --- --- ----- --- ---- ---- ------- ----- ---- -------<br>--- --- -- ----- -- --- ---- -- --- ---- -- ------ ------<br>--- ----- -- ----,138224,138144,137724,137712,137740,138258,,13,that
screen,html.Screen,2_1_0_1_14,2022-02-15T16:28:32.472Z,,,,,,,,,,,,,,,,,53,,,,,,,,,,,,,,279,,response,,,,99,,,,,,,Space,keypress(Space),,,,,,,,---- -- ----- -- ------ - ------- --- ----------<br>------------- ------ ------ ---- ---- feeling ----- -- ----<br>-------- ------- -- ---------- --- - --- ----- ----- ----<br>---- --- --- ----- --- ---- ---- ------- ----- ---- -------<br>--- --- -- ----- -- --- ---- -- --- ---- -- ------ ------<br>--- ----- -- ----,138600,138520,138241,138224,138258,138625,,14,feeling
screen,html.Screen,2_1_0_1_15,2022-02-15T16:28:32.904Z,,,,,,,,,,,,,,,,,53,,,,,,,,,,,,,,345,,response,,,,99,,,,,,,Space,keypress(Space),,,,,,,,---- -- ----- -- ------ - ------- --- ----------<br>------------- ------ ------ ---- ---- ------- close -- ----<br>-------- ------- -- ---------- --- - --- ----- ----- ----<br>---- --- --- ----- --- ---- ---- ------- ----- ---- -------<br>--- --- -- ----- -- --- ---- -- --- ---- -- ------ ------<br>--- ----- -- ----,139031,138952,138607,138600,138625,139057,,15,close
screen,html.Screen,2_1_0_1_16,2022-02-15T16:28:33.200Z,,,,,,,,,,,,,,,,,53,,,,,,,,,,,,,,206,,response,,,,99,,,,,,,Space,keypress(Space),,,,,,,,---- -- ----- -- ------ - ------- --- ----------<br>------------- ------ ------ ---- ---- ------- ----- to ----<br>-------- ------- -- ---------- --- - --- ----- ----- ----<br>---- --- --- ----- --- ---- ---- ------- ----- ---- -------<br>--- --- -- ----- -- --- ---- -- --- ---- -- ------ ------<br>--- ----- -- ----,139327,139248,139042,139031,139057,139357,,16,to
screen,html.Screen,2_1_0_1_17,2022-02-15T16:28:33.696Z,,,,,,,,,,,,,,,,,53,,,,,,,,,,,,,,402,,response,,,,99,,,,,,,Space,keypress(Space),,,,,,,,---- -- ----- -- ------ - ------- --- ----------<br>------------- ------ ------ ---- ---- ------- ----- -- your<br>-------- ------- -- ---------- --- - --- ----- ----- ----<br>---- --- --- ----- --- ---- ---- ------- ----- ---- -------<br>--- --- -- ----- -- --- ---- -- --- ---- -- ------ ------<br>--- ----- -- ----,139823,139744,139342,139327,139357,139858,,17,your
screen,html.Screen,2_1_0_1_18,2022-02-15T16:28:34.120Z,,,,,,,,,,,,,,,,,53,,,,,,,,,,,,,,327,,response,,,,99,,,,,,,Space,keypress(Space),,,,,,,,---- -- ----- -- ------ - ------- --- ----------<br>------------- ------ ------ ---- ---- ------- ----- -- ----<br>romantic ------- -- ---------- --- - --- ----- ----- ----<br>---- --- --- ----- --- ---- ---- ------- ----- ---- -------<br>--- --- -- ----- -- --- ---- -- --- ---- -- ------ ------<br>--- ----- -- ----,140247,140168,139841,139823,139858,140275,,18,romantic
screen,html.Screen,2_1_0_1_19,2022-02-15T16:28:34.448Z,,,,,,,,,,,,,,,,,53,,,,,,,,,,,,,,237,,response,,,,99,,,,,,,Space,keypress(Space),,,,,,,,---- -- ----- -- ------ - ------- --- ----------<br>------------- ------ ------ ---- ---- ------- ----- -- ----<br>-------- partner -- ---------- --- - --- ----- ----- ----<br>---- --- --- ----- --- ---- ---- ------- ----- ---- -------<br>--- --- -- ----- -- --- ---- -- --- ---- -- ------ ------<br>--- ----- -- ----,140575.00000000003,140496,140259,140247,140275,140609,,19,partner
screen,html.Screen,2_1_0_1_20,2022-02-15T16:28:34.872Z,,,,,,,,,,,,,,,,,53,,,,,,,,,,,,,,328.0000000000291,,response,,,,99,,,,,,,Space,keypress(Space),,,,,,,,---- -- ----- -- ------ - ------- --- ----------<br>------------- ------ ------ ---- ---- ------- ----- -- ----<br>-------- ------- is ---------- --- - --- ----- ----- ----<br>---- --- --- ----- --- ---- ---- ------- ----- ---- -------<br>--- --- -- ----- -- --- ---- -- --- ---- -- ------ ------<br>--- ----- -- ----,140999,140920.00000000003,140592,140575.00000000003,140609,141025,,20,is
screen,html.Screen,2_1_0_1_21,2022-02-15T16:28:35.960Z,,,,,,,,,,,,,,,,,53,,,,,,,,,,,,,,999,,response,,,,99,,,,,,,Space,keypress(Space),,,,,,,,---- -- ----- -- ------ - ------- --- ----------<br>------------- ------ ------ ---- ---- ------- ----- -- ----<br>-------- ------- -- paramount. --- - --- ----- ----- ----<br>---- --- --- ----- --- ---- ---- ------- ----- ---- -------<br>--- --- -- ----- -- --- ---- -- --- ---- -- ------ ------<br>--- ----- -- ----,142087,142008,141009,140999,141025,142119,,21,paramount.
screen,html.Screen,2_1_0_1_22,2022-02-15T16:28:36.824Z,,,,,,,,,,,,,,,,,53,,,,,,,,,,,,,,769,,response,,,,99,,,,,,,Space,keypress(Space),,,,,,,,---- -- ----- -- ------ - ------- --- ----------<br>------------- ------ ------ ---- ---- ------- ----- -- ----<br>-------- ------- -- ---------- But - --- ----- ----- ----<br>---- --- --- ----- --- ---- ---- ------- ----- ---- -------<br>--- --- -- ----- -- --- ---- -- --- ---- -- ------ ------<br>--- ----- -- ----,142951,142872,142103,142087,142119,142987,,22,But
screen,html.Screen,2_1_0_1_23,2022-02-15T16:28:37.200Z,,,,,,,,,,,,,,,,,53,,,,,,,,,,,,,,277,,response,,,,99,,,,,,,Space,keypress(Space),,,,,,,,---- -- ----- -- ------ - ------- --- ----------<br>------------- ------ ------ ---- ---- ------- ----- -- ----<br>-------- ------- -- ---------- --- a --- ----- ----- ----<br>---- --- --- ----- --- ---- ---- ------- ----- ---- -------<br>--- --- -- ----- -- --- ---- -- --- ---- -- ------ ------<br>--- ----- -- ----,143327,143248,142971,142951,142987,143353,,23,a
screen,html.Screen,2_1_0_1_24,2022-02-15T16:28:37.785Z,,,,,,,,,,,,,,,,,53,,,,,,,,,,,,,,487,,response,,,,99,,,,,,,Space,keypress(Space),,,,,,,,---- -- ----- -- ------ - ------- --- ----------<br>------------- ------ ------ ---- ---- ------- ----- -- ----<br>-------- ------- -- ---------- --- - new ----- ----- ----<br>---- --- --- ----- --- ---- ---- ------- ----- ---- -------<br>--- --- -- ----- -- --- ---- -- --- ---- -- ------ ------<br>--- ----- -- ----,143912,143824,143337,143327,143353,143953,,24,new
screen,html.Screen,2_1_0_1_25,2022-02-15T16:28:38.881Z,,,,,,,,,,,,,,,,,53,,,,,,,,,,,,,,992,,response,,,,99,,,,,,,Space,keypress(Space),,,,,,,,---- -- ----- -- ------ - ------- --- ----------<br>------------- ------ ------ ---- ---- ------- ----- -- ----<br>-------- ------- -- ---------- --- - --- study ----- ----<br>---- --- --- ----- --- ---- ---- ------- ----- ---- -------<br>--- --- -- ----- -- --- ---- -- --- ---- -- ------ ------<br>--- ----- -- ----,145008,144928,143936,143912,143953,145037,,25,study
screen,html.Screen,2_1_0_1_26,2022-02-15T16:28:39.361Z,,,,,,,,,,,,,,,,,53,,,,,,,,,,,,,,387.0000000000291,,response,,,,99,,,,,,,Space,keypress(Space),,,,,,,,---- -- ----- -- ------ - ------- --- ----------<br>------------- ------ ------ ---- ---- ------- ----- -- ----<br>-------- ------- -- ---------- --- - --- ----- finds ----<br>---- --- --- ----- --- ---- ---- ------- ----- ---- -------<br>--- --- -- ----- -- --- ---- -- --- ---- -- ------ ------<br>--- ----- -- ----,145488,145408.00000000003,145021,145008,145037,145520,,26,finds
screen,html.Screen,2_1_0_1_27,2022-02-15T16:28:39.865Z,,,,,,,,,,,,,,,,,53,,,,,,,,,,,,,,407,,response,,,,99,,,,,,,Space,keypress(Space),,,,,,,,---- -- ----- -- ------ - ------- --- ----------<br>------------- ------ ------ ---- ---- ------- ----- -- ----<br>-------- ------- -- ---------- --- - --- ----- ----- that<br>---- --- --- ----- --- ---- ---- ------- ----- ---- -------<br>--- --- -- ----- -- --- ---- -- --- ---- -- ------ ------<br>--- ----- -- ----,145992,145911,145504,145488,145520,146022,,27,that
screen,html.Screen,2_1_0_1_28,2022-02-15T16:28:40.656Z,,,,,,,,,,,,,,,,,53,,,,,,,,,,,,,,698,,response,,,,99,,,,,,,Space,keypress(Space),,,,,,,,---- -- ----- -- ------ - ------- --- ----------<br>------------- ------ ------ ---- ---- ------- ----- -- ----<br>-------- ------- -- ---------- --- - --- ----- ----- ----<br>it's --- --- ----- --- ---- ---- ------- ----- ---- -------<br>--- --- -- ----- -- --- ---- -- --- ---- -- ------ ------<br>--- ----- -- ----,146783.00000000003,146703,146005,145992,146022,146824,,28,it's
screen,html.Screen,2_1_0_1_29,2022-02-15T16:28:41.361Z,,,,,,,,,,,,,,,,,53,,,,,,,,,,,,,,598,,response,,,,99,,,,,,,Space,keypress(Space),,,,,,,,---- -- ----- -- ------ - ------- --- ----------<br>------------- ------ ------ ---- ---- ------- ----- -- ----<br>-------- ------- -- ---------- --- - --- ----- ----- ----<br>---- not --- ----- --- ---- ---- ------- ----- ---- -------<br>--- --- -- ----- -- --- ---- -- --- ---- -- ------ ------<br>--- ----- -- ----,147488,147407,146809,146784,146824,147525,,29,not
screen,html.Screen,2_1_0_1_30,2022-02-15T16:28:42.032Z,,,,,,,,,,,,,,,,,53,,,,,,,,,,,,,,570,,response,,,,99,,,,,,,Space,keypress(Space),,,,,,,,---- -- ----- -- ------ - ------- --- ----------<br>------------- ------ ------ ---- ---- ------- ----- -- ----<br>-------- ------- -- ---------- --- - --- ----- ----- ----<br>---- --- how ----- --- ---- ---- ------- ----- ---- -------<br>--- --- -- ----- -- --- ---- -- --- ---- -- ------ ------<br>--- ----- -- ----,148159,148079,147509,147488,147525,148191,,30,how
screen,html.Screen,2_1_0_1_31,2022-02-15T16:28:42.737Z,,,,,,,,,,,,,,,,,53,,,,,,,,,,,,,,607.0000000000291,,response,,,,99,,,,,,,Space,keypress(Space),,,,,,,,---- -- ----- -- ------ - ------- --- ----------<br>------------- ------ ------ ---- ---- ------- ----- -- ----<br>-------- ------- -- ---------- --- - --- ----- ----- ----<br>---- --- --- close --- ---- ---- ------- ----- ---- -------<br>--- --- -- ----- -- --- ---- -- --- ---- -- ------ ------<br>--- ----- -- ----,148864,148783.00000000003,148176,148159,148191,148893,,31,close
screen,html.Screen,2_1_0_1_32,2022-02-15T16:28:43.288Z,,,,,,,,,,,,,,,,,53,,,,,,,,,,,,,,459,,response,,,,99,,,,,,,Space,keypress(Space),,,,,,,,---- -- ----- -- ------ - ------- --- ----------<br>------------- ------ ------ ---- ---- ------- ----- -- ----<br>-------- ------- -- ---------- --- - --- ----- ----- ----<br>---- --- --- ----- you ---- ---- ------- ----- ---- -------<br>--- --- -- ----- -- --- ---- -- --- ---- -- ------ ------<br>--- ----- -- ----,149415,149335,148876,148864,148893,149442,,32,you
screen,html.Screen,2_1_0_1_33,2022-02-15T16:28:43.720Z,,,,,,,,,,,,,,,,,53,,,,,,,,,,,,,,341,,response,,,,99,,,,,,,Space,keypress(Space),,,,,,,,---- -- ----- -- ------ - ------- --- ----------<br>------------- ------ ------ ---- ---- ------- ----- -- ----<br>-------- ------- -- ---------- --- - --- ----- ----- ----<br>---- --- --- ----- --- feel ---- ------- ----- ---- -------<br>--- --- -- ----- -- --- ---- -- --- ---- -- ------ ------<br>--- ----- -- ----,149847,149767,149426,149415,149442,149876,,33,feel
screen,html.Screen,2_1_0_1_34,2022-02-15T16:28:44.216Z,,,,,,,,,,,,,,,,,53,,,,,,,,,,,,,,403,,response,,,,99,,,,,,,Space,keypress(Space),,,,,,,,---- -- ----- -- ------ - ------- --- ----------<br>------------- ------ ------ ---- ---- ------- ----- -- ----<br>-------- ------- -- ---------- --- - --- ----- ----- ----<br>---- --- --- ----- --- ---- that ------- ----- ---- -------<br>--- --- -- ----- -- --- ---- -- --- ---- -- ------ ------<br>--- ----- -- ----,150343,150263,149860,149847,149876,150376,,34,that
screen,html.Screen,2_1_0_1_35,2022-02-15T16:28:44.792Z,,,,,,,,,,,,,,,,,53,,,,,,,,,,,,,,479,,response,,,,99,,,,,,,Space,keypress(Space),,,,,,,,---- -- ----- -- ------ - ------- --- ----------<br>------------- ------ ------ ---- ---- ------- ----- -- ----<br>-------- ------- -- ---------- --- - --- ----- ----- ----<br>---- --- --- ----- --- ---- ---- matters ----- ---- -------<br>--- --- -- ----- -- --- ---- -- --- ---- -- ------ ------<br>--- ----- -- ----,150919,150839,150360,150343,150376,150959,,35,matters
screen,html.Screen,2_1_0_1_36,2022-02-15T16:28:45.504Z,,,,,,,,,,,,,,,,,53,,,,,,,,,,,,,,608.0000000000291,,response,,,,99,,,,,,,Space,keypress(Space),,,,,,,,"---- -- ----- -- ------ - ------- --- ----------<br>------------- ------ ------ ---- ---- ------- ----- -- ----<br>-------- ------- -- ---------- --- - --- ----- ----- ----<br>---- --- --- ----- --- ---- ---- ------- most, ---- -------<br>--- --- -- ----- -- --- ---- -- --- ---- -- ------ ------<br>--- ----- -- ----",151631,151551.00000000003,150943,150919,150959,151665,,36,"most,"
screen,html.Screen,2_1_0_1_37,2022-02-15T16:28:46.112Z,,,,,,,,,,,,,,,,,53,,,,,,,,,,,,,,510,,response,,,,99,,,,,,,Space,keypress(Space),,,,,,,,---- -- ----- -- ------ - ------- --- ----------<br>------------- ------ ------ ---- ---- ------- ----- -- ----<br>-------- ------- -- ---------- --- - --- ----- ----- ----<br>---- --- --- ----- --- ---- ---- ------- ----- it's -------<br>--- --- -- ----- -- --- ---- -- --- ---- -- ------ ------<br>--- ----- -- ----,152239,152159,151649,151631,151665,152282,,37,it's
screen,html.Screen,2_1_0_1_38,2022-02-15T16:28:46.560Z,,,,,,,,,,,,,,,,,53,,,,,,,,,,,,,,341,,response,,,,99,,,,,,,Space,keypress(Space),,,,,,,,---- -- ----- -- ------ - ------- --- ----------<br>------------- ------ ------ ---- ---- ------- ----- -- ----<br>-------- ------- -- ---------- --- - --- ----- ----- ----<br>---- --- --- ----- --- ---- ---- ------- ----- ---- whether<br>--- --- -- ----- -- --- ---- -- --- ---- -- ------ ------<br>--- ----- -- ----,152687,152607,152266,152239,152282,152715,,38,whether
screen,html.Screen,2_1_0_1_39,2022-02-15T16:28:46.992Z,,,,,,,,,,,,,,,,,53,,,,,,,,,,,,,,340.0000000000291,,response,,,,99,,,,,,,Space,keypress(Space),,,,,,,,---- -- ----- -- ------ - ------- --- ----------<br>------------- ------ ------ ---- ---- ------- ----- -- ----<br>-------- ------- -- ---------- --- - --- ----- ----- ----<br>---- --- --- ----- --- ---- ---- ------- ----- ---- -------<br>you --- -- ----- -- --- ---- -- --- ---- -- ------ ------<br>--- ----- -- ----,153119,153039.00000000003,152699,152687,152715,153149,,39,you
screen,html.Screen,2_1_0_1_40,2022-02-15T16:28:47.521Z,,,,,,,,,,,,,,,,,53,,,,,,,,,,,,,,434,,response,,,,99,,,,,,,Space,keypress(Space),,,,,,,,---- -- ----- -- ------ - ------- --- ----------<br>------------- ------ ------ ---- ---- ------- ----- -- ----<br>-------- ------- -- ---------- --- - --- ----- ----- ----<br>---- --- --- ----- --- ---- ---- ------- ----- ---- -------<br>--- are -- ----- -- --- ---- -- --- ---- -- ------ ------<br>--- ----- -- ----,153648,153567,153133,153119,153149,153683,,40,are
screen,html.Screen,2_1_0_1_41,2022-02-15T16:28:48.040Z,,,,,,,,,,,,,,,,,53,,,,,,,,,,,,,,421,,response,,,,99,,,,,,,Space,keypress(Space),,,,,,,,---- -- ----- -- ------ - ------- --- ----------<br>------------- ------ ------ ---- ---- ------- ----- -- ----<br>-------- ------- -- ---------- --- - --- ----- ----- ----<br>---- --- --- ----- --- ---- ---- ------- ----- ---- -------<br>--- --- as ----- -- --- ---- -- --- ---- -- ------ ------<br>--- ----- -- ----,154167,154087,153666,153648,153683,154199,,41,as
screen,html.Screen,2_1_0_1_42,2022-02-15T16:28:48.529Z,,,,,,,,,,,,,,,,,53,,,,,,,,,,,,,,392.0000000000291,,response,,,,99,,,,,,,Space,keypress(Space),,,,,,,,---- -- ----- -- ------ - ------- --- ----------<br>------------- ------ ------ ---- ---- ------- ----- -- ----<br>-------- ------- -- ---------- --- - --- ----- ----- ----<br>---- --- --- ----- --- ---- ---- ------- ----- ---- -------<br>--- --- -- close -- --- ---- -- --- ---- -- ------ ------<br>--- ----- -- ----,154655,154575.00000000003,154183,154167,154199,154683,,42,close
screen,html.Screen,2_1_0_1_43,2022-02-15T16:28:48.936Z,,,,,,,,,,,,,,,,,53,,,,,,,,,,,,,,316,,response,,,,99,,,,,,,Space,keypress(Space),,,,,,,,---- -- ----- -- ------ - ------- --- ----------<br>------------- ------ ------ ---- ---- ------- ----- -- ----<br>-------- ------- -- ---------- --- - --- ----- ----- ----<br>---- --- --- ----- --- ---- ---- ------- ----- ---- -------<br>--- --- -- ----- as --- ---- -- --- ---- -- ------ ------<br>--- ----- -- ----,155063.00000000003,154983,154667,154655,154683,155099,,43,as
screen,html.Screen,2_1_0_1_44,2022-02-15T16:28:49.330Z,,,,,,,,,,,,,,,,,53,,,,,,,,,,,,,,291,,response,,,,99,,,,,,,Space,keypress(Space),,,,,,,,---- -- ----- -- ------ - ------- --- ----------<br>------------- ------ ------ ---- ---- ------- ----- -- ----<br>-------- ------- -- ---------- --- - --- ----- ----- ----<br>---- --- --- ----- --- ---- ---- ------- ----- ---- -------<br>--- --- -- ----- -- you ---- -- --- ---- -- ------ ------<br>--- ----- -- ----,155457,155375,155084,155063.00000000003,155099,155484,,44,you
screen,html.Screen,2_1_0_1_45,2022-02-15T16:28:49.817Z,,,,,,,,,,,,,,,,,53,,,,,,,,,,,,,,396,,response,,,,99,,,,,,,Space,keypress(Space),,,,,,,,---- -- ----- -- ------ - ------- --- ----------<br>------------- ------ ------ ---- ---- ------- ----- -- ----<br>-------- ------- -- ---------- --- - --- ----- ----- ----<br>---- --- --- ----- --- ---- ---- ------- ----- ---- -------<br>--- --- -- ----- -- --- want -- --- ---- -- ------ ------<br>--- ----- -- ----,155944.00000000003,155863,155467,155457,155484,155984,,45,want
screen,html.Screen,2_1_0_1_46,2022-02-15T16:28:50.217Z,,,,,,,,,,,,,,,,,53,,,,,,,,,,,,,,296,,response,,,,99,,,,,,,Space,keypress(Space),,,,,,,,---- -- ----- -- ------ - ------- --- ----------<br>------------- ------ ------ ---- ---- ------- ----- -- ----<br>-------- ------- -- ---------- --- - --- ----- ----- ----<br>---- --- --- ----- --- ---- ---- ------- ----- ---- -------<br>--- --- -- ----- -- --- ---- to --- ---- -- ------ ------<br>--- ----- -- ----,156344,156263,155967,155944.00000000003,155984,156368,,46,to
screen,html.Screen,2_1_0_1_47,2022-02-15T16:28:50.665Z,,,,,,,,,,,,,,,,,53,,,,,,,,,,,,,,361,,response,,,,99,,,,,,,Space,keypress(Space),,,,,,,,"---- -- ----- -- ------ - ------- --- ----------<br>------------- ------ ------ ---- ---- ------- ----- -- ----<br>-------- ------- -- ---------- --- - --- ----- ----- ----<br>---- --- --- ----- --- ---- ---- ------- ----- ---- -------<br>--- --- -- ----- -- --- ---- -- be, ---- -- ------ ------<br>--- ----- -- ----",156792,156711,156350,156344,156368,156827,,47,"be,"
screen,html.Screen,2_1_0_1_48,2022-02-15T16:28:51.209Z,,,,,,,,,,,,,,,,,53,,,,,,,,,,,,,,444,,response,,,,99,,,,,,,Space,keypress(Space),,,,,,,,---- -- ----- -- ------ - ------- --- ----------<br>------------- ------ ------ ---- ---- ------- ----- -- ----<br>-------- ------- -- ---------- --- - --- ----- ----- ----<br>---- --- --- ----- --- ---- ---- ------- ----- ---- -------<br>--- --- -- ----- -- --- ---- -- --- even -- ------ ------<br>--- ----- -- ----,157335,157255,156811,156792,156827,157377,,48,even
screen,html.Screen,2_1_0_1_49,2022-02-15T16:28:51.697Z,,,,,,,,,,,,,,,,,53,,,,,,,,,,,,,,382,,response,,,,99,,,,,,,Space,keypress(Space),,,,,,,,---- -- ----- -- ------ - ------- --- ----------<br>------------- ------ ------ ---- ---- ------- ----- -- ----<br>-------- ------- -- ---------- --- - --- ----- ----- ----<br>---- --- --- ----- --- ---- ---- ------- ----- ---- -------<br>--- --- -- ----- -- --- ---- -- --- ---- if ------ ------<br>--- ----- -- ----,157824,157743,157361,157336,157377,157861,,49,if
screen,html.Screen,2_1_0_1_50,2022-02-15T16:28:52.217Z,,,,,,,,,,,,,,,,,53,,,,,,,,,,,,,,419,,response,,,,99,,,,,,,Space,keypress(Space),,,,,,,,---- -- ----- -- ------ - ------- --- ----------<br>------------- ------ ------ ---- ---- ------- ----- -- ----<br>-------- ------- -- ---------- --- - --- ----- ----- ----<br>---- --- --- ----- --- ---- ---- ------- ----- ---- -------<br>--- --- -- ----- -- --- ---- -- --- ---- -- that's ------<br>--- ----- -- ----,158344,158263,157844,157824,157861,158378,,50,that's
screen,html.Screen,2_1_0_1_51,2022-02-15T16:28:52.665Z,,,,,,,,,,,,,,,,,53,,,,,,,,,,,,,,350,,response,,,,99,,,,,,,Space,keypress(Space),,,,,,,,---- -- ----- -- ------ - ------- --- ----------<br>------------- ------ ------ ---- ---- ------- ----- -- ----<br>-------- ------- -- ---------- --- - --- ----- ----- ----<br>---- --- --- ----- --- ---- ---- ------- ----- ---- -------<br>--- --- -- ----- -- --- ---- -- --- ---- -- ------ really<br>--- ----- -- ----,158792,158711,158361,158344,158378,158827,,51,really
screen,html.Screen,2_1_0_1_52,2022-02-15T16:28:53.137Z,,,,,,,,,,,,,,,,,53,,,,,,,,,,,,,,371,,response,,,,99,,,,,,,Space,keypress(Space),,,,,,,,---- -- ----- -- ------ - ------- --- ----------<br>------------- ------ ------ ---- ---- ------- ----- -- ----<br>-------- ------- -- ---------- --- - --- ----- ----- ----<br>---- --- --- ----- --- ---- ---- ------- ----- ---- -------<br>--- --- -- ----- -- --- ---- -- --- ---- -- ------ ------<br>not ----- -- ----,159264,159183,158812,158792,158827,159295,,52,not
screen,html.Screen,2_1_0_1_53,2022-02-15T16:28:53.602Z,,,,,,,,,,,,,,,,,53,,,,,,,,,,,,,,369,,response,,,,99,,,,,,,Space,keypress(Space),,,,,,,,---- -- ----- -- ------ - ------- --- ----------<br>------------- ------ ------ ---- ---- ------- ----- -- ----<br>-------- ------- -- ---------- --- - --- ----- ----- ----<br>---- --- --- ----- --- ---- ---- ------- ----- ---- -------<br>--- --- -- ----- -- --- ---- -- --- ---- -- ------ ------<br>--- close -- ----,159728,159647,159278,159264,159295,159762,,53,close
screen,html.Screen,2_1_0_1_54,2022-02-15T16:28:54.033Z,,,,,,,,,,,,,,,,,53,,,,,,,,,,,,,,334,,response,,,,99,,,,,,,Space,keypress(Space),,,,,,,,---- -- ----- -- ------ - ------- --- ----------<br>------------- ------ ------ ---- ---- ------- ----- -- ----<br>-------- ------- -- ---------- --- - --- ----- ----- ----<br>---- --- --- ----- --- ---- ---- ------- ----- ---- -------<br>--- --- -- ----- -- --- ---- -- --- ---- -- ------ ------<br>--- ----- at ----,160159,160079,159745,159728,159762,160195,,54,at
screen,html.Screen,2_1_0_1_55,2022-02-15T16:28:54.953Z,,,,,,,,,,,,,,,,,53,,,,,,,,,,,,,,820,,response,,,,99,,,,,,,Space,keypress(Space),,,,,,,,---- -- ----- -- ------ - ------- --- ----------<br>------------- ------ ------ ---- ---- ------- ----- -- ----<br>-------- ------- -- ---------- --- - --- ----- ----- ----<br>---- --- --- ----- --- ---- ---- ------- ----- ---- -------<br>--- --- -- ----- -- --- ---- -- --- ---- -- ------ ------<br>--- ----- -- all.,161079,160999,160179,160159,160195,161112,,55,all.
Item 99,flow.Loop,2_1_0_1,2022-02-15T16:28:54.953Z,,,,,,,,,,,,,,,,,,,,,,,,,,,,,,,30498,,completion,,,,,B,,,,,,,,,,,silence,,,,,161080,160999,130481,130481,130501,161112,,,
Question 1,html.Screen,2_1_0_2,2022-02-15T16:29:02.122Z,,,,,,,,,,,,,,,,,,,,,,,,,,,,false,FALSE,,7073,,response,,,,99,B,,,,,,TRUE,click #choice-1,,,,silence,,,,,168249,168169,161096,161080,161112,168280,,,
Question 2,html.Screen,2_1_0_3,2022-02-15T16:29:06.326Z,,,,,,,,,,,,,,,,,,,,,,,,,,,,true,TRUE,,4110,,response,,,,99,B,,,,,,TRUE,click #choice-1,,,,silence,,,,,172452,172373,168263,168249,168280,172473,,,
Item 99,flow.Sequence,2_1_0,2022-02-15T16:29:06.326Z,,,,,,,,,,,,,,,,,,,,,,,,,,,,,,,51870,,completion,,,,,,,,,,,,,,,,,,,,,172452,172373,120487,120475.00000000001,120503,172473,,,
Holding screen,html.Screen,2_1_1_0,2022-02-15T16:29:16.332Z,,,,,,,,,,,,,,,,,,,,,,,,,,,,,,,10000,,timeout,,,,,,,,,,,,,,,,,,,,,182458,182458,172455,172452,172473,182473,,,
screen,html.Screen,2_1_1_1_0,2022-02-15T16:29:17.369Z,,,,,,,,,,,,,,,,,54,,,,,,,,,,,,,,956.0000000000291,,response,,,,100,,,,,,,Space,keypress(Space),,,,,,,,At --- ---- --- ------ ----- ------- ---- -- --- ------- --<br>------- ---------- ------ -- ----- -- ----- -- ---- ------<br>--- ----- --- --- ------ -------- ----- --- ------ ----- --<br>----- ----- ---------- --- --- ------ ------ ---- -- ------<br>------- --- ------ ----- --- ---- ------- -- ---- --- --<br>------- ------,183495,183414.00000000003,182458,182458,182473,183524,,0,At
screen,html.Screen,2_1_1_1_1,2022-02-15T16:29:17.729Z,,,,,,,,,,,,,,,,,54,,,,,,,,,,,,,,266,,response,,,,100,,,,,,,Space,keypress(Space),,,,,,,,-- the ---- --- ------ ----- ------- ---- -- --- ------- --<br>------- ---------- ------ -- ----- -- ----- -- ---- ------<br>--- ----- --- --- ------ -------- ----- --- ------ ----- --<br>----- ----- ---------- --- --- ------ ------ ---- -- ------<br>------- --- ------ ----- --- ---- ------- -- ---- --- --<br>------- ------,183855,183774,183508,183495,183524,183874,,1,the
screen,html.Screen,2_1_1_1_2,2022-02-15T16:29:18.099Z,,,,,,,,,,,,,,,,,54,,,,,,,,,,,,,,285,,response,,,,100,,,,,,,Space,keypress(Space),,,,,,,,-- --- time --- ------ ----- ------- ---- -- --- ------- --<br>------- ---------- ------ -- ----- -- ----- -- ---- ------<br>--- ----- --- --- ------ -------- ----- --- ------ ----- --<br>----- ----- ---------- --- --- ------ ------ ---- -- ------<br>------- --- ------ ----- --- ---- ------- -- ---- --- --<br>------- ------,184225,184142,183857,183855,183874,184258,,2,time
screen,html.Screen,2_1_1_1_3,2022-02-15T16:29:18.505Z,,,,,,,,,,,,,,,,,54,,,,,,,,,,,,,,308,,response,,,,100,,,,,,,Space,keypress(Space),,,,,,,,-- --- ---- the ------ ----- ------- ---- -- --- ------- --<br>------- ---------- ------ -- ----- -- ----- -- ---- ------<br>--- ----- --- --- ------ -------- ----- --- ------ ----- --<br>----- ----- ---------- --- --- ------ ------ ---- -- ------<br>------- --- ------ ----- --- ---- ------- -- ---- --- --<br>------- ------,184631,184550,184242,184225,184258,184658,,3,the
screen,html.Screen,2_1_1_1_4,2022-02-15T16:29:18.978Z,,,,,,,,,,,,,,,,,54,,,,,,,,,,,,,,380,,response,,,,100,,,,,,,Space,keypress(Space),,,,,,,,-- --- ---- --- French ----- ------- ---- -- --- ------- --<br>------- ---------- ------ -- ----- -- ----- -- ---- ------<br>--- ----- --- --- ------ -------- ----- --- ------ ----- --<br>----- ----- ---------- --- --- ------ ------ ---- -- ------<br>------- --- ------ ----- --- ---- ------- -- ---- --- --<br>------- ------,185104,185022,184642,184631,184658,185142,,4,French
screen,html.Screen,2_1_1_1_5,2022-02-15T16:29:19.330Z,,,,,,,,,,,,,,,,,54,,,,,,,,,,,,,,249,,response,,,,100,,,,,,,Space,keypress(Space),,,,,,,,-- --- ---- --- ------ crown ------- ---- -- --- ------- --<br>------- ---------- ------ -- ----- -- ----- -- ---- ------<br>--- ----- --- --- ------ -------- ----- --- ------ ----- --<br>----- ----- ---------- --- --- ------ ------ ---- -- ------<br>------- --- ------ ----- --- ---- ------- -- ---- --- --<br>------- ------,185456.00000000003,185374,185125,185104,185142,185476,,5,crown
screen,html.Screen,2_1_1_1_6,2022-02-15T16:29:19.746Z,,,,,,,,,,,,,,,,,54,,,,,,,,,,,,,,331,,response,,,,100,,,,,,,Space,keypress(Space),,,,,,,,-- --- ---- --- ------ ----- secured ---- -- --- ------- --<br>------- ---------- ------ -- ----- -- ----- -- ---- ------<br>--- ----- --- --- ------ -------- ----- --- ------ ----- --<br>----- ----- ---------- --- --- ------ ------ ---- -- ------<br>------- --- ------ ----- --- ---- ------- -- ---- --- --<br>------- ------,185871,185790,185459,185456.00000000003,185476,185908,,6,secured
screen,html.Screen,2_1_1_1_7,2022-02-15T16:29:20.154Z,,,,,,,,,,,,,,,,,54,,,,,,,,,,,,,,306,,response,,,,100,,,,,,,Space,keypress(Space),,,,,,,,-- --- ---- --- ------ ----- ------- much -- --- ------- --<br>------- ---------- ------ -- ----- -- ----- -- ---- ------<br>--- ----- --- --- ------ -------- ----- --- ------ ----- --<br>----- ----- ---------- --- --- ------ ------ ---- -- ------<br>------- --- ------ ----- --- ---- ------- -- ---- --- --<br>------- ------,186280,186198,185892,185872,185908,186308,,7,much
screen,html.Screen,2_1_1_1_8,2022-02-15T16:29:20.546Z,,,,,,,,,,,,,,,,,54,,,,,,,,,,,,,,297,,response,,,,100,,,,,,,Space,keypress(Space),,,,,,,,-- --- ---- --- ------ ----- ------- ---- of --- ------- --<br>------- ---------- ------ -- ----- -- ----- -- ---- ------<br>--- ----- --- --- ------ -------- ----- --- ------ ----- --<br>----- ----- ---------- --- --- ------ ------ ---- -- ------<br>------- --- ------ ----- --- ---- ------- -- ---- --- --<br>------- ------,186672,186590,186293,186280,186308,186704,,8,of
screen,html.Screen,2_1_1_1_9,2022-02-15T16:29:20.858Z,,,,,,,,,,,,,,,,,54,,,,,,,,,,,,,,215.0000000000291,,response,,,,100,,,,,,,Space,keypress(Space),,,,,,,,-- --- ---- --- ------ ----- ------- ---- -- its ------- --<br>------- ---------- ------ -- ----- -- ----- -- ---- ------<br>--- ----- --- --- ------ -------- ----- --- ------ ----- --<br>----- ----- ---------- --- --- ------ ------ ---- -- ------<br>------- --- ------ ----- --- ---- ------- -- ---- --- --<br>------- ------,186984,186902.00000000003,186687,186672,186704,187003,,9,its
screen,html.Screen,2_1_1_1_10,2022-02-15T16:29:21.201Z,,,,,,,,,,,,,,,,,54,,,,,,,,,,,,,,260,,response,,,,100,,,,,,,Space,keypress(Space),,,,,,,,-- --- ---- --- ------ ----- ------- ---- -- --- revenue --<br>------- ---------- ------ -- ----- -- ----- -- ---- ------<br>--- ----- --- --- ------ -------- ----- --- ------ ----- --<br>----- ----- ---------- --- --- ------ ------ ---- -- ------<br>------- --- ------ ----- --- ---- ------- -- ---- --- --<br>------- ------,187327,187246,186986,186984,187003,187353,,10,revenue
screen,html.Screen,2_1_1_1_11,2022-02-15T16:29:21.594Z,,,,,,,,,,,,,,,,,54,,,,,,,,,,,,,,301,,response,,,,100,,,,,,,Space,keypress(Space),,,,,,,,-- --- ---- --- ------ ----- ------- ---- -- --- ------- by<br>------- ---------- ------ -- ----- -- ----- -- ---- ------<br>--- ----- --- --- ------ -------- ----- --- ------ ----- --<br>----- ----- ---------- --- --- ------ ------ ---- -- ------<br>------- --- ------ ----- --- ---- ------- -- ---- --- --<br>------- ------,187720,187638,187337,187327,187353,187753,,11,by
screen,html.Screen,2_1_1_1_12,2022-02-15T16:29:22.042Z,,,,,,,,,,,,,,,,,54,,,,,,,,,,,,,,350,,response,,,,100,,,,,,,Space,keypress(Space),,,,,,,,-- --- ---- --- ------ ----- ------- ---- -- --- ------- --<br>issuing ---------- ------ -- ----- -- ----- -- ---- ------<br>--- ----- --- --- ------ -------- ----- --- ------ ----- --<br>----- ----- ---------- --- --- ------ ------ ---- -- ------<br>------- --- ------ ----- --- ---- ------- -- ---- --- --<br>------- ------,188168,188086,187736,187722,187753,188203,,12,issuing
screen,html.Screen,2_1_1_1_13,2022-02-15T16:29:22.490Z,,,,,,,,,,,,,,,,,54,,,,,,,,,,,,,,347,,response,,,,100,,,,,,,Space,keypress(Space),,,,,,,,-- --- ---- --- ------ ----- ------- ---- -- --- ------- --<br>------- government ------ -- ----- -- ----- -- ---- ------<br>--- ----- --- --- ------ -------- ----- --- ------ ----- --<br>----- ----- ---------- --- --- ------ ------ ---- -- ------<br>------- --- ------ ----- --- ---- ------- -- ---- --- --<br>------- ------,188615,188534,188187,188168,188203,188654,,13,government
screen,html.Screen,2_1_1_1_14,2022-02-15T16:29:22.882Z,,,,,,,,,,,,,,,,,54,,,,,,,,,,,,,,288.0000000000291,,response,,,,100,,,,,,,Space,keypress(Space),,,,,,,,-- --- ---- --- ------ ----- ------- ---- -- --- ------- --<br>------- ---------- bonds. -- ----- -- ----- -- ---- ------<br>--- ----- --- --- ------ -------- ----- --- ------ ----- --<br>----- ----- ---------- --- --- ------ ------ ---- -- ------<br>------- --- ------ ----- --- ---- ------- -- ---- --- --<br>------- ------,189008,188926.00000000003,188638,188615,188654,189037,,14,bonds.
screen,html.Screen,2_1_1_1_15,2022-02-15T16:29:23.458Z,,,,,,,,,,,,,,,,,54,,,,,,,,,,,,,,481,,response,,,,100,,,,,,,Space,keypress(Space),,,,,,,,-- --- ---- --- ------ ----- ------- ---- -- --- ------- --<br>------- ---------- ------ In ----- -- ----- -- ---- ------<br>--- ----- --- --- ------ -------- ----- --- ------ ----- --<br>----- ----- ---------- --- --- ------ ------ ---- -- ------<br>------- --- ------ ----- --- ---- ------- -- ---- --- --<br>------- ------,189583,189502,189021,189008,189037,189621,,15,In
screen,html.Screen,2_1_1_1_16,2022-02-15T16:29:23.842Z,,,,,,,,,,,,,,,,,54,,,,,,,,,,,,,,282,,response,,,,100,,,,,,,Space,keypress(Space),,,,,,,,"-- --- ---- --- ------ ----- ------- ---- -- --- ------- --<br>------- ---------- ------ -- 1727, -- ----- -- ---- ------<br>--- ----- --- --- ------ -------- ----- --- ------ ----- --<br>----- ----- ---------- --- --- ------ ------ ---- -- ------<br>------- --- ------ ----- --- ---- ------- -- ---- --- --<br>------- ------",189967,189886,189604,189584,189621,189988,,16,"1727,"
screen,html.Screen,2_1_1_1_17,2022-02-15T16:29:24.850Z,,,,,,,,,,,,,,,,,54,,,,,,,,,,,,,,923,,response,,,,100,,,,,,,Space,keypress(Space),,,,,,,,-- --- ---- --- ------ ----- ------- ---- -- --- ------- --<br>------- ---------- ------ -- ----- in ----- -- ---- ------<br>--- ----- --- --- ------ -------- ----- --- ------ ----- --<br>----- ----- ---------- --- --- ------ ------ ---- -- ------<br>------- --- ------ ----- --- ---- ------- -- ---- --- --<br>------- ------,190976,190894,189971,189967,189988,191006,,17,in
screen,html.Screen,2_1_1_1_18,2022-02-15T16:29:25.290Z,,,,,,,,,,,,,,,,,54,,,,,,,,,,,,,,345,,response,,,,100,,,,,,,Space,keypress(Space),,,,,,,,-- --- ---- --- ------ ----- ------- ---- -- --- ------- --<br>------- ---------- ------ -- ----- -- order -- ---- ------<br>--- ----- --- --- ------ -------- ----- --- ------ ----- --<br>----- ----- ---------- --- --- ------ ------ ---- -- ------<br>------- --- ------ ----- --- ---- ------- -- ---- --- --<br>------- ------,191416,191334,190989,190976,191006,191455,,18,order
screen,html.Screen,2_1_1_1_19,2022-02-15T16:29:26.017Z,,,,,,,,,,,,,,,,,54,,,,,,,,,,,,,,624,,response,,,,100,,,,,,,Space,keypress(Space),,,,,,,,-- --- ---- --- ------ ----- ------- ---- -- --- ------- --<br>------- ---------- ------ -- ----- -- ----- to ---- ------<br>--- ----- --- --- ------ -------- ----- --- ------ ----- --<br>----- ----- ---------- --- --- ------ ------ ---- -- ------<br>------- --- ------ ----- --- ---- ------- -- ---- --- --<br>------- ------,192143,192062,191438,191416,191455,192180,,19,to
screen,html.Screen,2_1_1_1_20,2022-02-15T16:29:26.457Z,,,,,,,,,,,,,,,,,54,,,,,,,,,,,,,,338,,response,,,,100,,,,,,,Space,keypress(Space),,,,,,,,-- --- ---- --- ------ ----- ------- ---- -- --- ------- --<br>------- ---------- ------ -- ----- -- ----- -- save ------<br>--- ----- --- --- ------ -------- ----- --- ------ ----- --<br>----- ----- ---------- --- --- ------ ------ ---- -- ------<br>------- --- ------ ----- --- ---- ------- -- ---- --- --<br>------- ------,192583,192502,192164,192143,192180,192614,,20,save
screen,html.Screen,2_1_1_1_21,2022-02-15T16:29:27.129Z,,,,,,,,,,,,,,,,,54,,,,,,,,,,,,,,577,,response,,,,100,,,,,,,Space,keypress(Space),,,,,,,,"-- --- ---- --- ------ ----- ------- ---- -- --- ------- --<br>------- ---------- ------ -- ----- -- ----- -- ---- money,<br>--- ----- --- --- ------ -------- ----- --- ------ ----- --<br>----- ----- ---------- --- --- ------ ------ ---- -- ------<br>------- --- ------ ----- --- ---- ------- -- ---- --- --<br>------- ------",193255,193174,192597,192583,192614,193298,,21,"money,"
screen,html.Screen,2_1_1_1_22,2022-02-15T16:29:27.641Z,,,,,,,,,,,,,,,,,54,,,,,,,,,,,,,,405,,response,,,,100,,,,,,,Space,keypress(Space),,,,,,,,-- --- ---- --- ------ ----- ------- ---- -- --- ------- --<br>------- ---------- ------ -- ----- -- ----- -- ---- ------<br>the ----- --- --- ------ -------- ----- --- ------ ----- --<br>----- ----- ---------- --- --- ------ ------ ---- -- ------<br>------- --- ------ ----- --- ---- ------- -- ---- --- --<br>------- ------,193767,193686,193281,193255,193298,193798,,22,the
screen,html.Screen,2_1_1_1_23,2022-02-15T16:29:28.065Z,,,,,,,,,,,,,,,,,54,,,,,,,,,,,,,,329,,response,,,,100,,,,,,,Space,keypress(Space),,,,,,,,-- --- ---- --- ------ ----- ------- ---- -- --- ------- --<br>------- ---------- ------ -- ----- -- ----- -- ---- ------<br>--- state --- --- ------ -------- ----- --- ------ ----- --<br>----- ----- ---------- --- --- ------ ------ ---- -- ------<br>------- --- ------ ----- --- ---- ------- -- ---- --- --<br>------- ------,194191,194110,193781,193767,193798,194231,,23,state
screen,html.Screen,2_1_1_1_24,2022-02-15T16:29:28.545Z,,,,,,,,,,,,,,,,,54,,,,,,,,,,,,,,374,,response,,,,100,,,,,,,Space,keypress(Space),,,,,,,,-- --- ---- --- ------ ----- ------- ---- -- --- ------- --<br>------- ---------- ------ -- ----- -- ----- -- ---- ------<br>--- ----- cut --- ------ -------- ----- --- ------ ----- --<br>----- ----- ---------- --- --- ------ ------ ---- -- ------<br>------- --- ------ ----- --- ---- ------- -- ---- --- --<br>------- ------,194671,194590,194216,194191,194231,194698,,24,cut
screen,html.Screen,2_1_1_1_25,2022-02-15T16:29:28.921Z,,,,,,,,,,,,,,,,,54,,,,,,,,,,,,,,284,,response,,,,100,,,,,,,Space,keypress(Space),,,,,,,,-- --- ---- --- ------ ----- ------- ---- -- --- ------- --<br>------- ---------- ------ -- ----- -- ----- -- ---- ------<br>--- ----- --- the ------ -------- ----- --- ------ ----- --<br>----- ----- ---------- --- --- ------ ------ ---- -- ------<br>------- --- ------ ----- --- ---- ------- -- ---- --- --<br>------- ------,195047,194966,194682,194671,194698,195065,,25,the
screen,html.Screen,2_1_1_1_26,2022-02-15T16:29:29.282Z,,,,,,,,,,,,,,,,,54,,,,,,,,,,,,,,278,,response,,,,100,,,,,,,Space,keypress(Space),,,,,,,,-- --- ---- --- ------ ----- ------- ---- -- --- ------- --<br>------- ---------- ------ -- ----- -- ----- -- ---- ------<br>--- ----- --- --- bonds' -------- ----- --- ------ ----- --<br>----- ----- ---------- --- --- ------ ------ ---- -- ------<br>------- --- ------ ----- --- ---- ------- -- ---- --- --<br>------- ------,195407,195326,195048,195047,195065,195433,,26,bonds'
screen,html.Screen,2_1_1_1_27,2022-02-15T16:29:29.706Z,,,,,,,,,,,,,,,,,54,,,,,,,,,,,,,,335,,response,,,,100,,,,,,,Space,keypress(Space),,,,,,,,-- --- ---- --- ------ ----- ------- ---- -- --- ------- --<br>------- ---------- ------ -- ----- -- ----- -- ---- ------<br>--- ----- --- --- ------ interest ----- --- ------ ----- --<br>----- ----- ---------- --- --- ------ ------ ---- -- ------<br>------- --- ------ ----- --- ---- ------- -- ---- --- --<br>------- ------,195831.00000000003,195750,195415,195407,195433,195865,,27,interest
screen,html.Screen,2_1_1_1_28,2022-02-15T16:29:30.074Z,,,,,,,,,,,,,,,,,54,,,,,,,,,,,,,,269,,response,,,,100,,,,,,,Space,keypress(Space),,,,,,,,-- --- ---- --- ------ ----- ------- ---- -- --- ------- --<br>------- ---------- ------ -- ----- -- ----- -- ---- ------<br>--- ----- --- --- ------ -------- rate. --- ------ ----- --<br>----- ----- ---------- --- --- ------ ------ ---- -- ------<br>------- --- ------ ----- --- ---- ------- -- ---- --- --<br>------- ------,196199,196118,195849,195831.00000000003,195865,196232,,28,rate.
screen,html.Screen,2_1_1_1_29,2022-02-15T16:29:31.875Z,,,,,,,,,,,,,,,,,54,,,,,,,,,,,,,,1703,,response,,,,100,,,,,,,Space,keypress(Space),,,,,,,,-- --- ---- --- ------ ----- ------- ---- -- --- ------- --<br>------- ---------- ------ -- ----- -- ----- -- ---- ------<br>--- ----- --- --- ------ -------- ----- The ------ ----- --<br>----- ----- ---------- --- --- ------ ------ ---- -- ------<br>------- --- ------ ----- --- ---- ------- -- ---- --- --<br>------- ------,198000,197918,196215,196199,196232,198040,,29,The
screen,html.Screen,2_1_1_1_30,2022-02-15T16:29:32.322Z,,,,,,,,,,,,,,,,,54,,,,,,,,,,,,,,342,,response,,,,100,,,,,,,Space,keypress(Space),,,,,,,,-- --- ---- --- ------ ----- ------- ---- -- --- ------- --<br>------- ---------- ------ -- ----- -- ----- -- ---- ------<br>--- ----- --- --- ------ -------- ----- --- market ----- --<br>----- ----- ---------- --- --- ------ ------ ---- -- ------<br>------- --- ------ ----- --- ---- ------- -- ---- --- --<br>------- ------,198447,198366,198024,198000,198040,198474,,30,market
screen,html.Screen,2_1_1_1_31,2022-02-15T16:29:32.714Z,,,,,,,,,,,,,,,,,54,,,,,,,,,,,,,,300,,response,,,,100,,,,,,,Space,keypress(Space),,,,,,,,-- --- ---- --- ------ ----- ------- ---- -- --- ------- --<br>------- ---------- ------ -- ----- -- ----- -- ---- ------<br>--- ----- --- --- ------ -------- ----- --- ------ value --<br>----- ----- ---------- --- --- ------ ------ ---- -- ------<br>------- --- ------ ----- --- ---- ------- -- ---- --- --<br>------- ------,198840,198758,198458,198447,198474,198857,,31,value
screen,html.Screen,2_1_1_1_32,2022-02-15T16:29:33.474Z,,,,,,,,,,,,,,,,,54,,,,,,,,,,,,,,677,,response,,,,100,,,,,,,Space,keypress(Space),,,,,,,,-- --- ---- --- ------ ----- ------- ---- -- --- ------- --<br>------- ---------- ------ -- ----- -- ----- -- ---- ------<br>--- ----- --- --- ------ -------- ----- --- ------ ----- of<br>----- ----- ---------- --- --- ------ ------ ---- -- ------<br>------- --- ------ ----- --- ---- ------- -- ---- --- --<br>------- ------,199599.00000000003,199518,198841,198840,198857,199641,,32,of
screen,html.Screen,2_1_1_1_33,2022-02-15T16:29:33.930Z,,,,,,,,,,,,,,,,,54,,,,,,,,,,,,,,349.0000000000291,,response,,,,100,,,,,,,Space,keypress(Space),,,,,,,,-- --- ---- --- ------ ----- ------- ---- -- --- ------- --<br>------- ---------- ------ -- ----- -- ----- -- ---- ------<br>--- ----- --- --- ------ -------- ----- --- ------ ----- --<br>these ----- ---------- --- --- ------ ------ ---- -- ------<br>------- --- ------ ----- --- ---- ------- -- ---- --- --<br>------- ------,200055,199974.00000000003,199625,199600,199641,200091,,33,these
screen,html.Screen,2_1_1_1_34,2022-02-15T16:29:34.514Z,,,,,,,,,,,,,,,,,54,,,,,,,,,,,,,,483,,response,,,,100,,,,,,,Space,keypress(Space),,,,,,,,-- --- ---- --- ------ ----- ------- ---- -- --- ------- --<br>------- ---------- ------ -- ----- -- ----- -- ---- ------<br>--- ----- --- --- ------ -------- ----- --- ------ ----- --<br>----- bonds ---------- --- --- ------ ------ ---- -- ------<br>------- --- ------ ----- --- ---- ------- -- ---- --- --<br>------- ------,200640.00000000003,200558,200075,200057.00000000003,200091,200675,,34,bonds
screen,html.Screen,2_1_1_1_35,2022-02-15T16:29:35.418Z,,,,,,,,,,,,,,,,,54,,,,,,,,,,,,,,803.0000000000291,,response,,,,100,,,,,,,Space,keypress(Space),,,,,,,,"-- --- ---- --- ------ ----- ------- ---- -- --- ------- --<br>------- ---------- ------ -- ----- -- ----- -- ---- ------<br>--- ----- --- --- ------ -------- ----- --- ------ ----- --<br>----- ----- plummeted, --- --- ------ ------ ---- -- ------<br>------- --- ------ ----- --- ---- ------- -- ---- --- --<br>------- ------",201543,201462.00000000003,200659,200640.00000000003,200675,201576,,35,"plummeted,"
screen,html.Screen,2_1_1_1_36,2022-02-15T16:29:35.938Z,,,,,,,,,,,,,,,,,54,,,,,,,,,,,,,,423,,response,,,,100,,,,,,,Space,keypress(Space),,,,,,,,-- --- ---- --- ------ ----- ------- ---- -- --- ------- --<br>------- ---------- ------ -- ----- -- ----- -- ---- ------<br>--- ----- --- --- ------ -------- ----- --- ------ ----- --<br>----- ----- ---------- and --- ------ ------ ---- -- ------<br>------- --- ------ ----- --- ---- ------- -- ---- --- --<br>------- ------,202063.00000000003,201982,201559,201543,201576,202094,,36,and
screen,html.Screen,2_1_1_1_37,2022-02-15T16:29:36.370Z,,,,,,,,,,,,,,,,,54,,,,,,,,,,,,,,337.0000000000291,,response,,,,100,,,,,,,Space,keypress(Space),,,,,,,,-- --- ---- --- ------ ----- ------- ---- -- --- ------- --<br>------- ---------- ------ -- ----- -- ----- -- ---- ------<br>--- ----- --- --- ------ -------- ----- --- ------ ----- --<br>----- ----- ---------- --- the ------ ------ ---- -- ------<br>------- --- ------ ----- --- ---- ------- -- ---- --- --<br>------- ------,202496,202414.00000000003,202077,202063.00000000003,202094,202527,,37,the
screen,html.Screen,2_1_1_1_38,2022-02-15T16:29:36.914Z,,,,,,,,,,,,,,,,,54,,,,,,,,,,,,,,447,,response,,,,100,,,,,,,Space,keypress(Space),,,,,,,,-- --- ---- --- ------ ----- ------- ---- -- --- ------- --<br>------- ---------- ------ -- ----- -- ----- -- ---- ------<br>--- ----- --- --- ------ -------- ----- --- ------ ----- --<br>----- ----- ---------- --- --- market ------ ---- -- ------<br>------- --- ------ ----- --- ---- ------- -- ---- --- --<br>------- ------,203039.00000000003,202958,202511,202496,202527,203078,,38,market
screen,html.Screen,2_1_1_1_39,2022-02-15T16:29:37.370Z,,,,,,,,,,,,,,,,,54,,,,,,,,,,,,,,352.0000000000291,,response,,,,100,,,,,,,Space,keypress(Space),,,,,,,,-- --- ---- --- ------ ----- ------- ---- -- --- ------- --<br>------- ---------- ------ -- ----- -- ----- -- ---- ------<br>--- ----- --- --- ------ -------- ----- --- ------ ----- --<br>----- ----- ---------- --- --- ------ became ---- -- ------<br>------- --- ------ ----- --- ---- ------- -- ---- --- --<br>------- ------,203495,203414.00000000003,203062,203039.00000000003,203078,203528,,39,became
screen,html.Screen,2_1_1_1_40,2022-02-15T16:29:37.890Z,,,,,,,,,,,,,,,,,54,,,,,,,,,,,,,,422,,response,,,,100,,,,,,,Space,keypress(Space),,,,,,,,-- --- ---- --- ------ ----- ------- ---- -- --- ------- --<br>------- ---------- ------ -- ----- -- ----- -- ---- ------<br>--- ----- --- --- ------ -------- ----- --- ------ ----- --<br>----- ----- ---------- --- --- ------ ------ wary -- ------<br>------- --- ------ ----- --- ---- ------- -- ---- --- --<br>------- ------,204015.00000000003,203934,203512,203495,203528,204044,,40,wary
screen,html.Screen,2_1_1_1_41,2022-02-15T16:29:38.451Z,,,,,,,,,,,,,,,,,54,,,,,,,,,,,,,,466,,response,,,,100,,,,,,,Space,keypress(Space),,,,,,,,-- --- ---- --- ------ ----- ------- ---- -- --- ------- --<br>------- ---------- ------ -- ----- -- ----- -- ---- ------<br>--- ----- --- --- ------ -------- ----- --- ------ ----- --<br>----- ----- ---------- --- --- ------ ------ ---- of ------<br>------- --- ------ ----- --- ---- ------- -- ---- --- --<br>------- ------,204576,204494,204028,204015.00000000003,204044,204612,,41,of
screen,html.Screen,2_1_1_1_42,2022-02-15T16:29:38.954Z,,,,,,,,,,,,,,,,,54,,,,,,,,,,,,,,403,,response,,,,100,,,,,,,Space,keypress(Space),,,,,,,,-- --- ---- --- ------ ----- ------- ---- -- --- ------- --<br>------- ---------- ------ -- ----- -- ----- -- ---- ------<br>--- ----- --- --- ------ -------- ----- --- ------ ----- --<br>----- ----- ---------- --- --- ------ ------ ---- -- French<br>------- --- ------ ----- --- ---- ------- -- ---- --- --<br>------- ------,205079,204998,204595,204576,204612,205112,,42,French
screen,html.Screen,2_1_1_1_43,2022-02-15T16:29:40.011Z,,,,,,,,,,,,,,,,,54,,,,,,,,,,,,,,959,,response,,,,100,,,,,,,Space,keypress(Space),,,,,,,,-- --- ---- --- ------ ----- ------- ---- -- --- ------- --<br>------- ---------- ------ -- ----- -- ----- -- ---- ------<br>--- ----- --- --- ------ -------- ----- --- ------ ----- --<br>----- ----- ---------- --- --- ------ ------ ---- -- ------<br>credit. --- ------ ----- --- ---- ------- -- ---- --- --<br>------- ------,206136,206054,205095,205079,205112,206162,,43,credit.
screen,html.Screen,2_1_1_1_44,2022-02-15T16:29:40.594Z,,,,,,,,,,,,,,,,,54,,,,,,,,,,,,,,492,,response,,,,100,,,,,,,Space,keypress(Space),,,,,,,,-- --- ---- --- ------ ----- ------- ---- -- --- ------- --<br>------- ---------- ------ -- ----- -- ----- -- ---- ------<br>--- ----- --- --- ------ -------- ----- --- ------ ----- --<br>----- ----- ---------- --- --- ------ ------ ---- -- ------<br>------- The ------ ----- --- ---- ------- -- ---- --- --<br>------- ------,206719,206638,206146,206136,206162,206750,,44,The
screen,html.Screen,2_1_1_1_45,2022-02-15T16:29:41.211Z,,,,,,,,,,,,,,,,,54,,,,,,,,,,,,,,521,,response,,,,100,,,,,,,Space,keypress(Space),,,,,,,,-- --- ---- --- ------ ----- ------- ---- -- --- ------- --<br>------- ---------- ------ -- ----- -- ----- -- ---- ------<br>--- ----- --- --- ------ -------- ----- --- ------ ----- --<br>----- ----- ---------- --- --- ------ ------ ---- -- ------<br>------- --- French ----- --- ---- ------- -- ---- --- --<br>------- ------,207336,207254,206733,206719,206750,207368,,45,French
screen,html.Screen,2_1_1_1_46,2022-02-15T16:29:41.674Z,,,,,,,,,,,,,,,,,54,,,,,,,,,,,,,,368.0000000000291,,response,,,,100,,,,,,,Space,keypress(Space),,,,,,,,-- --- ---- --- ------ ----- ------- ---- -- --- ------- --<br>------- ---------- ------ -- ----- -- ----- -- ---- ------<br>--- ----- --- --- ------ -------- ----- --- ------ ----- --<br>----- ----- ---------- --- --- ------ ------ ---- -- ------<br>------- --- ------ state --- ---- ------- -- ---- --- --<br>------- ------,207799,207718.00000000003,207350,207336,207368,207834,,46,state
screen,html.Screen,2_1_1_1_47,2022-02-15T16:29:42.163Z,,,,,,,,,,,,,,,,,54,,,,,,,,,,,,,,388.0000000000291,,response,,,,100,,,,,,,Space,keypress(Space),,,,,,,,-- --- ---- --- ------ ----- ------- ---- -- --- ------- --<br>------- ---------- ------ -- ----- -- ----- -- ---- ------<br>--- ----- --- --- ------ -------- ----- --- ------ ----- --<br>----- ----- ---------- --- --- ------ ------ ---- -- ------<br>------- --- ------ ----- was ---- ------- -- ---- --- --<br>------- ------,208288,208206.00000000003,207818,207799,207834,208317,,47,was
screen,html.Screen,2_1_1_1_48,2022-02-15T16:29:42.682Z,,,,,,,,,,,,,,,,,54,,,,,,,,,,,,,,424,,response,,,,100,,,,,,,Space,keypress(Space),,,,,,,,-- --- ---- --- ------ ----- ------- ---- -- --- ------- --<br>------- ---------- ------ -- ----- -- ----- -- ---- ------<br>--- ----- --- --- ------ -------- ----- --- ------ ----- --<br>----- ----- ---------- --- --- ------ ------ ---- -- ------<br>------- --- ------ ----- --- left ------- -- ---- --- --<br>------- ------,208807.00000000003,208726,208302,208288,208317,208835,,48,left
screen,html.Screen,2_1_1_1_49,2022-02-15T16:29:43.107Z,,,,,,,,,,,,,,,,,54,,,,,,,,,,,,,,332,,response,,,,100,,,,,,,Space,keypress(Space),,,,,,,,-- --- ---- --- ------ ----- ------- ---- -- --- ------- --<br>------- ---------- ------ -- ----- -- ----- -- ---- ------<br>--- ----- --- --- ------ -------- ----- --- ------ ----- --<br>----- ----- ---------- --- --- ------ ------ ---- -- ------<br>------- --- ------ ----- --- ---- without -- ---- --- --<br>------- ------,209232,209150,208818,208807.00000000003,208835,209268,,49,without
screen,html.Screen,2_1_1_1_50,2022-02-15T16:29:43.579Z,,,,,,,,,,,,,,,,,54,,,,,,,,,,,,,,371,,response,,,,100,,,,,,,Space,keypress(Space),,,,,,,,-- --- ---- --- ------ ----- ------- ---- -- --- ------- --<br>------- ---------- ------ -- ----- -- ----- -- ---- ------<br>--- ----- --- --- ------ -------- ----- --- ------ ----- --<br>----- ----- ---------- --- --- ------ ------ ---- -- ------<br>------- --- ------ ----- --- ---- ------- an ---- --- --<br>------- ------,209704,209622,209251,209233,209268,209735,,50,an
screen,html.Screen,2_1_1_1_51,2022-02-15T16:29:44.010Z,,,,,,,,,,,,,,,,,54,,,,,,,,,,,,,,335,,response,,,,100,,,,,,,Space,keypress(Space),,,,,,,,-- --- ---- --- ------ ----- ------- ---- -- --- ------- --<br>------- ---------- ------ -- ----- -- ----- -- ---- ------<br>--- ----- --- --- ------ -------- ----- --- ------ ----- --<br>----- ----- ---------- --- --- ------ ------ ---- -- ------<br>------- --- ------ ----- --- ---- ------- -- easy --- --<br>------- ------,210136,210054,209719,209704,209735,210168,,51,easy
screen,html.Screen,2_1_1_1_52,2022-02-15T16:29:44.490Z,,,,,,,,,,,,,,,,,54,,,,,,,,,,,,,,382,,response,,,,100,,,,,,,Space,keypress(Space),,,,,,,,-- --- ---- --- ------ ----- ------- ---- -- --- ------- --<br>------- ---------- ------ -- ----- -- ----- -- ---- ------<br>--- ----- --- --- ------ -------- ----- --- ------ ----- --<br>----- ----- ---------- --- --- ------ ------ ---- -- ------<br>------- --- ------ ----- --- ---- ------- -- ---- way --<br>------- ------,210615,210534,210152,210136,210168,210652,,52,way
screen,html.Screen,2_1_1_1_53,2022-02-15T16:29:45.146Z,,,,,,,,,,,,,,,,,54,,,,,,,,,,,,,,554,,response,,,,100,,,,,,,Space,keypress(Space),,,,,,,,-- --- ---- --- ------ ----- ------- ---- -- --- ------- --<br>------- ---------- ------ -- ----- -- ----- -- ---- ------<br>--- ----- --- --- ------ -------- ----- --- ------ ----- --<br>----- ----- ---------- --- --- ------ ------ ---- -- ------<br>------- --- ------ ----- --- ---- ------- -- ---- --- of<br>------- ------,211271.00000000003,211190,210636,210616,210652,211302,,53,of
screen,html.Screen,2_1_1_1_54,2022-02-15T16:29:45.507Z,,,,,,,,,,,,,,,,,54,,,,,,,,,,,,,,263,,response,,,,100,,,,,,,Space,keypress(Space),,,,,,,,-- --- ---- --- ------ ----- ------- ---- -- --- ------- --<br>------- ---------- ------ -- ----- -- ----- -- ---- ------<br>--- ----- --- --- ------ -------- ----- --- ------ ----- --<br>----- ----- ---------- --- --- ------ ------ ---- -- ------<br>------- --- ------ ----- --- ---- ------- -- ---- --- --<br>raising ------,211632,211549,211286,211271.00000000003,211302,211653,,54,raising
screen,html.Screen,2_1_1_1_55,2022-02-15T16:29:46.082Z,,,,,,,,,,,,,,,,,54,,,,,,,,,,,,,,488,,response,,,,100,,,,,,,Space,keypress(Space),,,,,,,,-- --- ---- --- ------ ----- ------- ---- -- --- ------- --<br>------- ---------- ------ -- ----- -- ----- -- ---- ------<br>--- ----- --- --- ------ -------- ----- --- ------ ----- --<br>----- ----- ---------- --- --- ------ ------ ---- -- ------<br>------- --- ------ ----- --- ---- ------- -- ---- --- --<br>------- money.,212207,212125,211637,211634,211653,212244,,55,money.
Item 100,flow.Loop,2_1_1_1,2022-02-15T16:29:46.083Z,,,,,,,,,,,,,,,,,,,,,,,,,,,,,,,29652,,completion,,,,,B,,,,,,,,,,,silence,,,,,212207,212125,182458,182458,182473,212244,,,
Question 1,html.Screen,2_1_1_2,2022-02-15T16:29:49.252Z,,,,,,,,,,,,,,,,,,,,,,,,,,,,true,TRUE,,3067.000000000029,,response,,,,100,B,,,,,,TRUE,click #choice-1,,,,silence,,,,,215376,215295.00000000003,212228,212208,212244,215395,,,
Question 2,html.Screen,2_1_1_3,2022-02-15T16:29:53.504Z,,,,,,,,,,,,,,,,,,,,,,,,,,,,true,FALSE,,4163,,response,,,,100,B,,,,,,FALSE,click #choice-2,,,,silence,,,,,219628,219544,215381,215377,215395,219652,,,
Item 100,flow.Sequence,2_1_1,2022-02-15T16:29:53.504Z,,,,,,,,,,,,,,,,,,,,,,,,,,,,,,,47071,,completion,,,,,,,,,,,,,,,,,,,,,219628,219544,172455,172452,172473,219652,,,
End of Practice,html.Page,2_1_2,2022-02-15T16:29:56.943Z,,,,,,,,,,,,,,,,,,,,,,,,,,,,,,,3414,,form submission,,,,,,,,,,,,,,,,,,,,,223066,223066,219636,219628,219652,223088,,,
Practice,flow.Sequence,2_1,2022-02-15T16:29:56.943Z,,,,,,,,,,,,,,,,,,,,,,,,,,,,,,,102563,,completion,,,,,,,,,,,,,,,,,,,,,223066,223066,120487,120475.00000000001,120503,223088,,,
Trap_instruction,html.Page,2_2_0,2022-02-15T16:30:01.399Z,,,,,,,,,,,,,,,,,,,,,,,,,,,,,,,4434,,form submission,,,,,,,,,,,,,,,,,,,,,227522,227522,223071,223066,223088,227540,,,
trap_trial,html.Screen,2_2_1,2022-02-15T16:30:05.740Z,,,,,,,,,,,,,,,,,,,,,,,,,,,,true,1,,4248,,response,,,,,,,,,,,1,click #choice-1,,,,,,,,,231862,231779,227531,227522,227540,231904,,,
end of trap trial,html.Page,2_2_2,2022-02-15T16:30:07.519Z,,,,,,,,,,,,,,,,,,,,,,,,,,,,,,,1737,,form submission,,,,,,,,,,,,,,,,,,,,,233642,233641,231899,231862,231904,233667,,,
Trap 1,flow.Sequence,2_2,2022-02-15T16:30:07.519Z,,,,,,,,,,,,,,,,,,,,,,,,,,,,,,,10553,,completion,,,,,,,,,,,,,,,,,,,,,233642,233641,223071,223066,223088,233667,,,
Standby,html.Page,2_3_0,2022-02-15T16:30:15.521Z,,,,,,,,,,,,,,,,,,,,,,,,,,,,,,,7992,,timeout,,,,,,,,,,,,,,,,,,,,,241643,241643,233650,233642,233667,241659,,,
Holding screen,html.Screen,2_3_1_0_0,2022-02-15T16:30:22.529Z,,,,,,,,,,,,,,,,,,,,,,,,,,,,,,,7007,,timeout,,,,,,,,,,,,,,,,,,,,,248650,248650,241643,241644,241659,248666,,,
screen,html.Screen,2_3_1_0_1_0,2022-02-15T16:30:23.482Z,,,,,,,,,,,,,,,,,15,,,,,,,,,,,,,,857,,response,,,,7,B,,,,,,Space,keypress(Space),,,,lyrical,,,,Greg --------- ---------- - --- ------- -- --- ------------<br>----- -- -------- ------- ---- ------ - -------- ---- -----<br>--- ------- ---- -- --- -------- --- - ----- ------ ---- --<br>-------- --- -------- -------- --- -------- ---- -- ----- -<br>-------- ---- --- ---------- --------- -- ------- ------ -<br>--------- ----- -----,249604,249507,248650,248650,248666,249633,,0,Greg
screen,html.Screen,2_3_1_0_1_1,2022-02-15T16:30:23.887Z,,,,,,,,,,,,,,,,,15,,,,,,,,,,,,,,307,,response,,,,7,B,,,,,,Space,keypress(Space),,,,lyrical,,,,"---- Anderson, ---------- - --- ------- -- --- ------------<br>----- -- -------- ------- ---- ------ - -------- ---- -----<br>--- ------- ---- -- --- -------- --- - ----- ------ ---- --<br>-------- --- -------- -------- --- -------- ---- -- ----- -<br>-------- ---- --- ---------- --------- -- ------- ------ -<br>--------- ----- -----",250008,249923,249616,249604,249633,250050,,1,"Anderson,"
screen,html.Screen,2_3_1_0_1_2,2022-02-15T16:30:24.503Z,,,,,,,,,,,,,,,,,15,,,,,,,,,,,,,,505.0000000000291,,response,,,,7,B,,,,,,Space,keypress(Space),,,,lyrical,,,,---- --------- considered - --- ------- -- --- ------------<br>----- -- -------- ------- ---- ------ - -------- ---- -----<br>--- ------- ---- -- --- -------- --- - ----- ------ ---- --<br>-------- --- -------- -------- --- -------- ---- -- ----- -<br>-------- ---- --- ---------- --------- -- ------- ------ -<br>--------- ----- -----,250624,250539.00000000003,250034,250008,250050,250667,,2,considered
screen,html.Screen,2_3_1_0_1_3,2022-02-15T16:30:24.911Z,,,,,,,,,,,,,,,,,15,,,,,,,,,,,,,,296,,response,,,,7,B,,,,,,Space,keypress(Space),,,,lyrical,,,,---- --------- ---------- a --- ------- -- --- ------------<br>----- -- -------- ------- ---- ------ - -------- ---- -----<br>--- ------- ---- -- --- -------- --- - ----- ------ ---- --<br>-------- --- -------- -------- --- -------- ---- -- ----- -<br>-------- ---- --- ---------- --------- -- ------- ------ -<br>--------- ----- -----,251032,250947,250651,250624,250667,251050,,3,a
screen,html.Screen,2_3_1_0_1_4,2022-02-15T16:30:25.279Z,,,,,,,,,,,,,,,,,15,,,,,,,,,,,,,,281,,response,,,,7,B,,,,,,Space,keypress(Space),,,,lyrical,,,,---- --------- ---------- - key ------- -- --- ------------<br>----- -- -------- ------- ---- ------ - -------- ---- -----<br>--- ------- ---- -- --- -------- --- - ----- ------ ---- --<br>-------- --- -------- -------- --- -------- ---- -- ----- -<br>-------- ---- --- ---------- --------- -- ------- ------ -<br>--------- ----- -----,251401,251315,251034,251032,251050,251434,,4,key
screen,html.Screen,2_3_1_0_1_5,2022-02-15T16:30:25.704Z,,,,,,,,,,,,,,,,,15,,,,,,,,,,,,,,321,,response,,,,7,B,,,,,,Space,keypress(Space),,,,lyrical,,,,---- --------- ---------- - --- witness -- --- ------------<br>----- -- -------- ------- ---- ------ - -------- ---- -----<br>--- ------- ---- -- --- -------- --- - ----- ------ ---- --<br>-------- --- -------- -------- --- -------- ---- -- ----- -<br>-------- ---- --- ---------- --------- -- ------- ------ -<br>--------- ----- -----,251825.00000000003,251739,251418,251401,251434,251854,,5,witness
screen,html.Screen,2_3_1_0_1_6,2022-02-15T16:30:26.079Z,,,,,,,,,,,,,,,,,15,,,,,,,,,,,,,,278,,response,,,,7,B,,,,,,Space,keypress(Space),,,,lyrical,,,,---- --------- ---------- - --- ------- by --- ------------<br>----- -- -------- ------- ---- ------ - -------- ---- -----<br>--- ------- ---- -- --- -------- --- - ----- ------ ---- --<br>-------- --- -------- -------- --- -------- ---- -- ----- -<br>-------- ---- --- ---------- --------- -- ------- ------ -<br>--------- ----- -----,252200.00000000003,252115,251837,251825.00000000003,251854,252220,,6,by
screen,html.Screen,2_3_1_0_1_7,2022-02-15T16:30:26.398Z,,,,,,,,,,,,,,,,,15,,,,,,,,,,,,,,232,,response,,,,7,B,,,,,,Space,keypress(Space),,,,lyrical,,,,---- --------- ---------- - --- ------- -- the ------------<br>----- -- -------- ------- ---- ------ - -------- ---- -----<br>--- ------- ---- -- --- -------- --- - ----- ------ ---- --<br>-------- --- -------- -------- --- -------- ---- -- ----- -<br>-------- ---- --- ---------- --------- -- ------- ------ -<br>--------- ----- -----,252520,252435,252203,252201,252220,252536,,7,the
screen,html.Screen,2_3_1_0_1_8,2022-02-15T16:30:27.062Z,,,,,,,,,,,,,,,,,15,,,,,,,,,,,,,,578.0000000000291,,response,,,,7,B,,,,,,Space,keypress(Space),,,,lyrical,,,,"---- --------- ---------- - --- ------- -- --- prosecution,<br>----- -- -------- ------- ---- ------ - -------- ---- -----<br>--- ------- ---- -- --- -------- --- - ----- ------ ---- --<br>-------- --- -------- -------- --- -------- ---- -- ----- -<br>-------- ---- --- ---------- --------- -- ------- ------ -<br>--------- ----- -----",253184,253099.00000000003,252521,252520,252536,253221,,8,"prosecution,"
screen,html.Screen,2_3_1_0_1_9,2022-02-15T16:30:27.790Z,,,,,,,,,,,,,,,,,15,,,,,,,,,,,,,,623,,response,,,,7,B,,,,,,Space,keypress(Space),,,,lyrical,,,,---- --------- ---------- - --- ------- -- --- ------------<br>vowed -- -------- ------- ---- ------ - -------- ---- -----<br>--- ------- ---- -- --- -------- --- - ----- ------ ---- --<br>-------- --- -------- -------- --- -------- ---- -- ----- -<br>-------- ---- --- ---------- --------- -- ------- ------ -<br>--------- ----- -----,253912,253827,253204,253184,253221,253955,,9,vowed
screen,html.Screen,2_3_1_0_1_10,2022-02-15T16:30:28.350Z,,,,,,,,,,,,,,,,,15,,,,,,,,,,,,,,448,,response,,,,7,B,,,,,,Space,keypress(Space),,,,lyrical,,,,---- --------- ---------- - --- ------- -- --- ------------<br>----- he -------- ------- ---- ------ - -------- ---- -----<br>--- ------- ---- -- --- -------- --- - ----- ------ ---- --<br>-------- --- -------- -------- --- -------- ---- -- ----- -<br>-------- ---- --- ---------- --------- -- ------- ------ -<br>--------- ----- -----,254472,254386,253938,253912,253955,254504,,10,he
screen,html.Screen,2_3_1_0_1_11,2022-02-15T16:30:28.894Z,,,,,,,,,,,,,,,,,15,,,,,,,,,,,,,,441,,response,,,,7,B,,,,,,Space,keypress(Space),,,,lyrical,,,,---- --------- ---------- - --- ------- -- --- ------------<br>----- -- wouldn't ------- ---- ------ - -------- ---- -----<br>--- ------- ---- -- --- -------- --- - ----- ------ ---- --<br>-------- --- -------- -------- --- -------- ---- -- ----- -<br>-------- ---- --- ---------- --------- -- ------- ------ -<br>--------- ----- -----,255016,254930,254489,254472,254504,255055,,11,wouldn't
screen,html.Screen,2_3_1_0_1_12,2022-02-15T16:30:29.342Z,,,,,,,,,,,,,,,,,15,,,,,,,,,,,,,,340,,response,,,,7,B,,,,,,Space,keypress(Space),,,,lyrical,,,,---- --------- ---------- - --- ------- -- --- ------------<br>----- -- -------- testify ---- ------ - -------- ---- -----<br>--- ------- ---- -- --- -------- --- - ----- ------ ---- --<br>-------- --- -------- -------- --- -------- ---- -- ----- -<br>-------- ---- --- ---------- --------- -- ------- ------ -<br>--------- ----- -----,255463,255378,255038,255016,255055,255505,,12,testify
screen,html.Screen,2_3_1_0_1_13,2022-02-15T16:30:29.807Z,,,,,,,,,,,,,,,,,15,,,,,,,,,,,,,,353,,response,,,,7,B,,,,,,Space,keypress(Space),,,,lyrical,,,,---- --------- ---------- - --- ------- -- --- ------------<br>----- -- -------- ------- when ------ - -------- ---- -----<br>--- ------- ---- -- --- -------- --- - ----- ------ ---- --<br>-------- --- -------- -------- --- -------- ---- -- ----- -<br>-------- ---- --- ---------- --------- -- ------- ------ -<br>--------- ----- -----,255928,255842,255489,255463,255505,255955,,13,when
screen,html.Screen,2_3_1_0_1_14,2022-02-15T16:30:30.271Z,,,,,,,,,,,,,,,,,15,,,,,,,,,,,,,,366.9999999999709,,response,,,,7,B,,,,,,Space,keypress(Space),,,,lyrical,,,,---- --------- ---------- - --- ------- -- --- ------------<br>----- -- -------- ------- ---- served - -------- ---- -----<br>--- ------- ---- -- --- -------- --- - ----- ------ ---- --<br>-------- --- -------- -------- --- -------- ---- -- ----- -<br>-------- ---- --- ---------- --------- -- ------- ------ -<br>--------- ----- -----,256392,256305.99999999997,255939,255928,255955,256422,,14,served
screen,html.Screen,2_3_1_0_1_15,2022-02-15T16:30:30.687Z,,,,,,,,,,,,,,,,,15,,,,,,,,,,,,,,316.9999999999709,,response,,,,7,B,,,,,,Space,keypress(Space),,,,lyrical,,,,---- --------- ---------- - --- ------- -- --- ------------<br>----- -- -------- ------- ---- ------ a -------- ---- -----<br>--- ------- ---- -- --- -------- --- - ----- ------ ---- --<br>-------- --- -------- -------- --- -------- ---- -- ----- -<br>-------- ---- --- ---------- --------- -- ------- ------ -<br>--------- ----- -----,256808,256721.99999999997,256405,256392,256422,256846,,15,a
screen,html.Screen,2_3_1_0_1_16,2022-02-15T16:30:31.623Z,,,,,,,,,,,,,,,,,15,,,,,,,,,,,,,,828.0000000000291,,response,,,,7,B,,,,,,Space,keypress(Space),,,,lyrical,,,,---- --------- ---------- - --- ------- -- --- ------------<br>----- -- -------- ------- ---- ------ - subpoena ---- -----<br>--- ------- ---- -- --- -------- --- - ----- ------ ---- --<br>-------- --- -------- -------- --- -------- ---- -- ----- -<br>-------- ---- --- ---------- --------- -- ------- ------ -<br>--------- ----- -----,257744.00000000003,257658.00000000003,256830,256808,256846,257781,,16,subpoena
screen,html.Screen,2_3_1_0_1_17,2022-02-15T16:30:32.071Z,,,,,,,,,,,,,,,,,15,,,,,,,,,,,,,,343,,response,,,,7,B,,,,,,Space,keypress(Space),,,,lyrical,,,,---- --------- ---------- - --- ------- -- --- ------------<br>----- -- -------- ------- ---- ------ - -------- last -----<br>--- ------- ---- -- --- -------- --- - ----- ------ ---- --<br>-------- --- -------- -------- --- -------- ---- -- ----- -<br>-------- ---- --- ---------- --------- -- ------- ------ -<br>--------- ----- -----,258192,258106,257763,257745,257781,258230,,17,last
screen,html.Screen,2_3_1_0_1_18,2022-02-15T16:30:33.151Z,,,,,,,,,,,,,,,,,15,,,,,,,,,,,,,,971.9999999999709,,response,,,,7,B,,,,,,Space,keypress(Space),,,,lyrical,,,,---- --------- ---------- - --- ------- -- --- ------------<br>----- -- -------- ------- ---- ------ - -------- ---- week.<br>--- ------- ---- -- --- -------- --- - ----- ------ ---- --<br>-------- --- -------- -------- --- -------- ---- -- ----- -<br>-------- ---- --- ---------- --------- -- ------- ------ -<br>--------- ----- -----,259272,259185.99999999997,258214,258192,258230,259314,,18,week.
screen,html.Screen,2_3_1_0_1_19,2022-02-15T16:30:33.847Z,,,,,,,,,,,,,,,,,15,,,,,,,,,,,,,,584,,response,,,,7,B,,,,,,Space,keypress(Space),,,,lyrical,,,,---- --------- ---------- - --- ------- -- --- ------------<br>----- -- -------- ------- ---- ------ - -------- ---- -----<br>His ------- ---- -- --- -------- --- - ----- ------ ---- --<br>-------- --- -------- -------- --- -------- ---- -- ----- -<br>-------- ---- --- ---------- --------- -- ------- ------ -<br>--------- ----- -----,259968.00000000003,259882,259298,259273.00000000003,259314,259998,,19,His
screen,html.Screen,2_3_1_0_1_20,2022-02-15T16:30:34.343Z,,,,,,,,,,,,,,,,,15,,,,,,,,,,,,,,397,,response,,,,7,B,,,,,,Space,keypress(Space),,,,lyrical,,,,---- --------- ---------- - --- ------- -- --- ------------<br>----- -- -------- ------- ---- ------ - -------- ---- -----<br>--- lawyers ---- -- --- -------- --- - ----- ------ ---- --<br>-------- --- -------- -------- --- -------- ---- -- ----- -<br>-------- ---- --- ---------- --------- -- ------- ------ -<br>--------- ----- -----,260464,260378,259981,259968.00000000003,259998,260498,,20,lawyers
screen,html.Screen,2_3_1_0_1_21,2022-02-15T16:30:34.799Z,,,,,,,,,,,,,,,,,15,,,,,,,,,,,,,,352,,response,,,,7,B,,,,,,Space,keypress(Space),,,,lyrical,,,,---- --------- ---------- - --- ------- -- --- ------------<br>----- -- -------- ------- ---- ------ - -------- ---- -----<br>--- ------- said -- --- -------- --- - ----- ------ ---- --<br>-------- --- -------- -------- --- -------- ---- -- ----- -<br>-------- ---- --- ---------- --------- -- ------- ------ -<br>--------- ----- -----,260920.00000000003,260834,260482,260465.00000000003,260498,260949,,21,said
screen,html.Screen,2_3_1_0_1_22,2022-02-15T16:30:35.295Z,,,,,,,,,,,,,,,,,15,,,,,,,,,,,,,,397.9999999999709,,response,,,,7,B,,,,,,Space,keypress(Space),,,,lyrical,,,,---- --------- ---------- - --- ------- -- --- ------------<br>----- -- -------- ------- ---- ------ - -------- ---- -----<br>--- ------- ---- he --- -------- --- - ----- ------ ---- --<br>-------- --- -------- -------- --- -------- ---- -- ----- -<br>-------- ---- --- ---------- --------- -- ------- ------ -<br>--------- ----- -----,261416,261329.99999999997,260932,260920.00000000003,260949,261449,,22,he
screen,html.Screen,2_3_1_0_1_23,2022-02-15T16:30:35.687Z,,,,,,,,,,,,,,,,,15,,,,,,,,,,,,,,289.9999999999709,,response,,,,7,B,,,,,,Space,keypress(Space),,,,lyrical,,,,---- --------- ---------- - --- ------- -- --- ------------<br>----- -- -------- ------- ---- ------ - -------- ---- -----<br>--- ------- ---- -- was -------- --- - ----- ------ ---- --<br>-------- --- -------- -------- --- -------- ---- -- ----- -<br>-------- ---- --- ---------- --------- -- ------- ------ -<br>--------- ----- -----,261808,261721.99999999997,261432,261416,261449,261833,,23,was
screen,html.Screen,2_3_1_0_1_24,2022-02-15T16:30:36.326Z,,,,,,,,,,,,,,,,,15,,,,,,,,,,,,,,547,,response,,,,7,B,,,,,,Space,keypress(Space),,,,lyrical,,,,---- --------- ---------- - --- ------- -- --- ------------<br>----- -- -------- ------- ---- ------ - -------- ---- -----<br>--- ------- ---- -- --- prepared --- - ----- ------ ---- --<br>-------- --- -------- -------- --- -------- ---- -- ----- -<br>-------- ---- --- ---------- --------- -- ------- ------ -<br>--------- ----- -----,262447,262362,261815,261808,261833,262485,,24,prepared
screen,html.Screen,2_3_1_0_1_25,2022-02-15T16:30:37.103Z,,,,,,,,,,,,,,,,,15,,,,,,,,,,,,,,669.0000000000582,,response,,,,7,B,,,,,,Space,keypress(Space),,,,lyrical,,,,---- --------- ---------- - --- ------- -- --- ------------<br>----- -- -------- ------- ---- ------ - -------- ---- -----<br>--- ------- ---- -- --- -------- for - ----- ------ ---- --<br>-------- --- -------- -------- --- -------- ---- -- ----- -<br>-------- ---- --- ---------- --------- -- ------- ------ -<br>--------- ----- -----,263224,263138.00000000006,262469,262448,262485,263252,,25,for
screen,html.Screen,2_3_1_0_1_26,2022-02-15T16:30:37.575Z,,,,,,,,,,,,,,,,,15,,,,,,,,,,,,,,374,,response,,,,7,B,,,,,,Space,keypress(Space),,,,lyrical,,,,---- --------- ---------- - --- ------- -- --- ------------<br>----- -- -------- ------- ---- ------ - -------- ---- -----<br>--- ------- ---- -- --- -------- --- a ----- ------ ---- --<br>-------- --- -------- -------- --- -------- ---- -- ----- -<br>-------- ---- --- ---------- --------- -- ------- ------ -<br>--------- ----- -----,263696,263610,263236,263224,263252,263736,,26,a
screen,html.Screen,2_3_1_0_1_27,2022-02-15T16:30:37.967Z,,,,,,,,,,,,,,,,,15,,,,,,,,,,,,,,282,,response,,,,7,B,,,,,,Space,keypress(Space),,,,lyrical,,,,---- --------- ---------- - --- ------- -- --- ------------<br>----- -- -------- ------- ---- ------ - -------- ---- -----<br>--- ------- ---- -- --- -------- --- - third ------ ---- --<br>-------- --- -------- -------- --- -------- ---- -- ----- -<br>-------- ---- --- ---------- --------- -- ------- ------ -<br>--------- ----- -----,264087,264002,263720,263696,263736,264119,,27,third
screen,html.Screen,2_3_1_0_1_28,2022-02-15T16:30:38.559Z,,,,,,,,,,,,,,,,,15,,,,,,,,,,,,,,491,,response,,,,7,B,,,,,,Space,keypress(Space),,,,lyrical,,,,---- --------- ---------- - --- ------- -- --- ------------<br>----- -- -------- ------- ---- ------ - -------- ---- -----<br>--- ------- ---- -- --- -------- --- - ----- prison ---- --<br>-------- --- -------- -------- --- -------- ---- -- ----- -<br>-------- ---- --- ---------- --------- -- ------- ------ -<br>--------- ----- -----,264679.00000000006,264594,264103,264088,264119,264720,,28,prison
screen,html.Screen,2_3_1_0_1_29,2022-02-15T16:30:39.151Z,,,,,,,,,,,,,,,,,15,,,,,,,,,,,,,,482,,response,,,,7,B,,,,,,Space,keypress(Space),,,,lyrical,,,,---- --------- ---------- - --- ------- -- --- ------------<br>----- -- -------- ------- ---- ------ - -------- ---- -----<br>--- ------- ---- -- --- -------- --- - ----- ------ stay --<br>-------- --- -------- -------- --- -------- ---- -- ----- -<br>-------- ---- --- ---------- --------- -- ------- ------ -<br>--------- ----- -----,265272,265186,264704,264680,264720,265303,,29,stay
screen,html.Screen,2_3_1_0_1_30,2022-02-15T16:30:39.647Z,,,,,,,,,,,,,,,,,15,,,,,,,,,,,,,,395,,response,,,,7,B,,,,,,Space,keypress(Space),,,,lyrical,,,,---- --------- ---------- - --- ------- -- --- ------------<br>----- -- -------- ------- ---- ------ - -------- ---- -----<br>--- ------- ---- -- --- -------- --- - ----- ------ ---- to<br>-------- --- -------- -------- --- -------- ---- -- ----- -<br>-------- ---- --- ---------- --------- -- ------- ------ -<br>--------- ----- -----,265768,265682,265287,265272,265303,265804,,30,to
screen,html.Screen,2_3_1_0_1_31,2022-02-15T16:30:40.320Z,,,,,,,,,,,,,,,,,15,,,,,,,,,,,,,,567,,response,,,,7,B,,,,,,Space,keypress(Space),,,,lyrical,,,,---- --------- ---------- - --- ------- -- --- ------------<br>----- -- -------- ------- ---- ------ - -------- ---- -----<br>--- ------- ---- -- --- -------- --- - ----- ------ ---- --<br>maintain --- -------- -------- --- -------- ---- -- ----- -<br>-------- ---- --- ---------- --------- -- ------- ------ -<br>--------- ----- -----,266440,266354,265787,265768,265804,266471,,31,maintain
screen,html.Screen,2_3_1_0_1_32,2022-02-15T16:30:40.655Z,,,,,,,,,,,,,,,,,15,,,,,,,,,,,,,,235,,response,,,,7,B,,,,,,Space,keypress(Space),,,,lyrical,,,,---- --------- ---------- - --- ------- -- --- ------------<br>----- -- -------- ------- ---- ------ - -------- ---- -----<br>--- ------- ---- -- --- -------- --- - ----- ------ ---- --<br>-------- his -------- -------- --- -------- ---- -- ----- -<br>-------- ---- --- ---------- --------- -- ------- ------ -<br>--------- ----- -----,266776,266690,266455,266441.00000000006,266471,266804,,32,his
screen,html.Screen,2_3_1_0_1_33,2022-02-15T16:30:41.039Z,,,,,,,,,,,,,,,,,15,,,,,,,,,,,,,,287,,response,,,,7,B,,,,,,Space,keypress(Space),,,,lyrical,,,,---- --------- ---------- - --- ------- -- --- ------------<br>----- -- -------- ------- ---- ------ - -------- ---- -----<br>--- ------- ---- -- --- -------- --- - ----- ------ ---- --<br>-------- --- silence. -------- --- -------- ---- -- ----- -<br>-------- ---- --- ---------- --------- -- ------- ------ -<br>--------- ----- -----,267160,267074,266787,266776,266804,267176,,33,silence.
screen,html.Screen,2_3_1_0_1_34,2022-02-15T16:30:41.615Z,,,,,,,,,,,,,,,,,15,,,,,,,,,,,,,,489,,response,,,,7,B,,,,,,Space,keypress(Space),,,,lyrical,,,,---- --------- ---------- - --- ------- -- --- ------------<br>----- -- -------- ------- ---- ------ - -------- ---- -----<br>--- ------- ---- -- --- -------- --- - ----- ------ ---- --<br>-------- --- -------- Anderson --- -------- ---- -- ----- -<br>-------- ---- --- ---------- --------- -- ------- ------ -<br>--------- ----- -----,267736,267650,267161,267160,267176,267776,,34,Anderson
screen,html.Screen,2_3_1_0_1_35,2022-02-15T16:30:42.039Z,,,,,,,,,,,,,,,,,15,,,,,,,,,,,,,,314,,response,,,,7,B,,,,,,Space,keypress(Space),,,,lyrical,,,,---- --------- ---------- - --- ------- -- --- ------------<br>----- -- -------- ------- ---- ------ - -------- ---- -----<br>--- ------- ---- -- --- -------- --- - ----- ------ ---- --<br>-------- --- -------- -------- was -------- ---- -- ----- -<br>-------- ---- --- ---------- --------- -- ------- ------ -<br>--------- ----- -----,268160,268074,267760,267736,267776,268193,,35,was
screen,html.Screen,2_3_1_0_1_36,2022-02-15T16:30:42.479Z,,,,,,,,,,,,,,,,,15,,,,,,,,,,,,,,337,,response,,,,7,B,,,,,,Space,keypress(Space),,,,lyrical,,,,---- --------- ---------- - --- ------- -- --- ------------<br>----- -- -------- ------- ---- ------ - -------- ---- -----<br>--- ------- ---- -- --- -------- --- - ----- ------ ---- --<br>-------- --- -------- -------- --- released ---- -- ----- -<br>-------- ---- --- ---------- --------- -- ------- ------ -<br>--------- ----- -----,268600,268514,268177,268160,268193,268626,,36,released
screen,html.Screen,2_3_1_0_1_37,2022-02-15T16:30:42.952Z,,,,,,,,,,,,,,,,,15,,,,,,,,,,,,,,375,,response,,,,7,B,,,,,,Space,keypress(Space),,,,lyrical,,,,---- --------- ---------- - --- ------- -- --- ------------<br>----- -- -------- ------- ---- ------ - -------- ---- -----<br>--- ------- ---- -- --- -------- --- - ----- ------ ---- --<br>-------- --- -------- -------- --- -------- July -- ----- -<br>-------- ---- --- ---------- --------- -- ------- ------ -<br>--------- ----- -----,269072,268986,268611,268600,268626,269111,,37,July
screen,html.Screen,2_3_1_0_1_38,2022-02-15T16:30:43.423Z,,,,,,,,,,,,,,,,,15,,,,,,,,,,,,,,365,,response,,,,7,B,,,,,,Space,keypress(Space),,,,lyrical,,,,---- --------- ---------- - --- ------- -- --- ------------<br>----- -- -------- ------- ---- ------ - -------- ---- -----<br>--- ------- ---- -- --- -------- --- - ----- ------ ---- --<br>-------- --- -------- -------- --- -------- ---- 20 ----- -<br>-------- ---- --- ---------- --------- -- ------- ------ -<br>--------- ----- -----,269544,269458,269093,269073,269111,269577,,38,20
screen,html.Screen,2_3_1_0_1_39,2022-02-15T16:30:44.136Z,,,,,,,,,,,,,,,,,15,,,,,,,,,,,,,,609,,response,,,,7,B,,,,,,Space,keypress(Space),,,,lyrical,,,,---- --------- ---------- - --- ------- -- --- ------------<br>----- -- -------- ------- ---- ------ - -------- ---- -----<br>--- ------- ---- -- --- -------- --- - ----- ------ ---- --<br>-------- --- -------- -------- --- -------- ---- -- after -<br>-------- ---- --- ---------- --------- -- ------- ------ -<br>--------- ----- -----,270257,270170,269561,269544,269577,270294,,39,after
screen,html.Screen,2_3_1_0_1_40,2022-02-15T16:30:44.887Z,,,,,,,,,,,,,,,,,15,,,,,,,,,,,,,,644,,response,,,,7,B,,,,,,Space,keypress(Space),,,,lyrical,,,,---- --------- ---------- - --- ------- -- --- ------------<br>----- -- -------- ------- ---- ------ - -------- ---- -----<br>--- ------- ---- -- --- -------- --- - ----- ------ ---- --<br>-------- --- -------- -------- --- -------- ---- -- ----- a<br>-------- ---- --- ---------- --------- -- ------- ------ -<br>--------- ----- -----,271008,270922,270278,270257,270294,271045,,40,a
screen,html.Screen,2_3_1_0_1_41,2022-02-15T16:30:45.440Z,,,,,,,,,,,,,,,,,15,,,,,,,,,,,,,,446,,response,,,,7,B,,,,,,Space,keypress(Space),,,,lyrical,,,,---- --------- ---------- - --- ------- -- --- ------------<br>----- -- -------- ------- ---- ------ - -------- ---- -----<br>--- ------- ---- -- --- -------- --- - ----- ------ ---- --<br>-------- --- -------- -------- --- -------- ---- -- ----- -<br>two-week ---- --- ---------- --------- -- ------- ------ -<br>--------- ----- -----,271560,271474,271028,271008,271045,271595,,41,two-week
screen,html.Screen,2_3_1_0_1_42,2022-02-15T16:30:45.951Z,,,,,,,,,,,,,,,,,15,,,,,,,,,,,,,,408,,response,,,,7,B,,,,,,Space,keypress(Space),,,,lyrical,,,,---- --------- ---------- - --- ------- -- --- ------------<br>----- -- -------- ------- ---- ------ - -------- ---- -----<br>--- ------- ---- -- --- -------- --- - ----- ------ ---- --<br>-------- --- -------- -------- --- -------- ---- -- ----- -<br>-------- stay --- ---------- --------- -- ------- ------ -<br>--------- ----- -----,272072,271986,271578,271560,271595,272102,,42,stay
screen,html.Screen,2_3_1_0_1_43,2022-02-15T16:30:46.400Z,,,,,,,,,,,,,,,,,15,,,,,,,,,,,,,,349,,response,,,,7,B,,,,,,Space,keypress(Space),,,,lyrical,,,,---- --------- ---------- - --- ------- -- --- ------------<br>----- -- -------- ------- ---- ------ - -------- ---- -----<br>--- ------- ---- -- --- -------- --- - ----- ------ ---- --<br>-------- --- -------- -------- --- -------- ---- -- ----- -<br>-------- ---- for ---------- --------- -- ------- ------ -<br>--------- ----- -----,272520,272434,272085,272072,272102,272551,,43,for
screen,html.Screen,2_3_1_0_1_44,2022-02-15T16:30:46.871Z,,,,,,,,,,,,,,,,,15,,,,,,,,,,,,,,371,,response,,,,7,B,,,,,,Space,keypress(Space),,,,lyrical,,,,---- --------- ---------- - --- ------- -- --- ------------<br>----- -- -------- ------- ---- ------ - -------- ---- -----<br>--- ------- ---- -- --- -------- --- - ----- ------ ---- --<br>-------- --- -------- -------- --- -------- ---- -- ----- -<br>-------- ---- --- previously --------- -- ------- ------ -<br>--------- ----- -----,272992,272906,272535,272520,272551,273019,,44,previously
screen,html.Screen,2_3_1_0_1_45,2022-02-15T16:30:47.343Z,,,,,,,,,,,,,,,,,15,,,,,,,,,,,,,,376,,response,,,,7,B,,,,,,Space,keypress(Space),,,,lyrical,,,,---- --------- ---------- - --- ------- -- --- ------------<br>----- -- -------- ------- ---- ------ - -------- ---- -----<br>--- ------- ---- -- --- -------- --- - ----- ------ ---- --<br>-------- --- -------- -------- --- -------- ---- -- ----- -<br>-------- ---- --- ---------- declining -- ------- ------ -<br>--------- ----- -----,273464,273378,273002,272992,273019,273502,,45,declining
screen,html.Screen,2_3_1_0_1_46,2022-02-15T16:30:47.751Z,,,,,,,,,,,,,,,,,15,,,,,,,,,,,,,,300,,response,,,,7,B,,,,,,Space,keypress(Space),,,,lyrical,,,,---- --------- ---------- - --- ------- -- --- ------------<br>----- -- -------- ------- ---- ------ - -------- ---- -----<br>--- ------- ---- -- --- -------- --- - ----- ------ ---- --<br>-------- --- -------- -------- --- -------- ---- -- ----- -<br>-------- ---- --- ---------- --------- to ------- ------ -<br>--------- ----- -----,273872,273786,273486,273464,273502,273902,,46,to
screen,html.Screen,2_3_1_0_1_47,2022-02-15T16:30:48.223Z,,,,,,,,,,,,,,,,,15,,,,,,,,,,,,,,372,,response,,,,7,B,,,,,,Space,keypress(Space),,,,lyrical,,,,---- --------- ---------- - --- ------- -- --- ------------<br>----- -- -------- ------- ---- ------ - -------- ---- -----<br>--- ------- ---- -- --- -------- --- - ----- ------ ---- --<br>-------- --- -------- -------- --- -------- ---- -- ----- -<br>-------- ---- --- ---------- --------- -- testify ------ -<br>--------- ----- -----,274344,274258,273886,273872,273902,274386,,47,testify
screen,html.Screen,2_3_1_0_1_48,2022-02-15T16:30:48.671Z,,,,,,,,,,,,,,,,,15,,,,,,,,,,,,,,336,,response,,,,7,B,,,,,,Space,keypress(Space),,,,lyrical,,,,---- --------- ---------- - --- ------- -- --- ------------<br>----- -- -------- ------- ---- ------ - -------- ---- -----<br>--- ------- ---- -- --- -------- --- - ----- ------ ---- --<br>-------- --- -------- -------- --- -------- ---- -- ----- -<br>-------- ---- --- ---------- --------- -- ------- before -<br>--------- ----- -----,274791,274706,274370,274344,274386,274819,,48,before
screen,html.Screen,2_3_1_0_1_49,2022-02-15T16:30:49.239Z,,,,,,,,,,,,,,,,,15,,,,,,,,,,,,,,470,,response,,,,7,B,,,,,,Space,keypress(Space),,,,lyrical,,,,---- --------- ---------- - --- ------- -- --- ------------<br>----- -- -------- ------- ---- ------ - -------- ---- -----<br>--- ------- ---- -- --- -------- --- - ----- ------ ---- --<br>-------- --- -------- -------- --- -------- ---- -- ----- -<br>-------- ---- --- ---------- --------- -- ------- ------ a<br>--------- ----- -----,275360,275274,274804,274792.00000000006,274819,275386,,49,a
screen,html.Screen,2_3_1_0_1_50,2022-02-15T16:30:49.760Z,,,,,,,,,,,,,,,,,15,,,,,,,,,,,,,,423,,response,,,,7,B,,,,,,Space,keypress(Space),,,,lyrical,,,,---- --------- ---------- - --- ------- -- --- ------------<br>----- -- -------- ------- ---- ------ - -------- ---- -----<br>--- ------- ---- -- --- -------- --- - ----- ------ ---- --<br>-------- --- -------- -------- --- -------- ---- -- ----- -<br>-------- ---- --- ---------- --------- -- ------- ------ -<br>different ----- -----,275880,275794,275371,275360,275386,275920,,50,different
screen,html.Screen,2_3_1_0_1_51,2022-02-15T16:30:50.224Z,,,,,,,,,,,,,,,,,15,,,,,,,,,,,,,,355,,response,,,,7,B,,,,,,Space,keypress(Space),,,,lyrical,,,,---- --------- ---------- - --- ------- -- --- ------------<br>----- -- -------- ------- ---- ------ - -------- ---- -----<br>--- ------- ---- -- --- -------- --- - ----- ------ ---- --<br>-------- --- -------- -------- --- -------- ---- -- ----- -<br>-------- ---- --- ---------- --------- -- ------- ------ -<br>--------- grand -----,276344,276258,275903,275880,275920,276387,,51,grand
screen,html.Screen,2_3_1_0_1_52,2022-02-15T16:30:51.287Z,,,,,,,,,,,,,,,,,15,,,,,,,,,,,,,,952,,response,,,,7,B,,,,,,Space,keypress(Space),,,,lyrical,,,,---- --------- ---------- - --- ------- -- --- ------------<br>----- -- -------- ------- ---- ------ - -------- ---- -----<br>--- ------- ---- -- --- -------- --- - ----- ------ ---- --<br>-------- --- -------- -------- --- -------- ---- -- ----- -<br>-------- ---- --- ---------- --------- -- ------- ------ -<br>--------- ----- jury.,277408,277322,276370,276344,276387,277447,,52,jury.
Item 7,flow.Loop,2_3_1_0_1,2022-02-15T16:30:51.288Z,,,,,,,,,,,,,,,,,,,,,,,,,,,,,,,28656,,completion,,,,,,,,,,,,,,,,,,,,,277408,277322,248650,248650,248666,277447,,,
Question 1,html.Screen,2_3_1_0_2,2022-02-15T16:30:53.431Z,,,,,,,,,,,,,,,,,,,,,,,,,,,,true,FALSE,,2037,,response,,,,7,B,,,,,,FALSE,click #choice-2,,,,lyrical,,,,,279551,279466,277429,277408,277447,279581,,,
Question 2,html.Screen,2_3_1_0_3,2022-02-15T16:30:56.301Z,,,,,,,,,,,,,,,,,,,,,,,,,,,,true,TRUE,,2773,,response,,,,7,B,,,,,,TRUE,click #choice-1,,,,lyrical,,,,,282421,282336,279563,279551,279581,282450,,,
Item 7,flow.Sequence,2_3_1_0,2022-02-15T16:30:56.301Z,,,,,,,,,,,,,,,,,,,,,,,,,,,,,,,40677,,completion,,,,,,,,,,,,,,,,,,,,,282422,282336,241643,241644,241659,282450,,,
Holding screen,html.Screen,2_3_1_1_0,2022-02-15T16:31:03.309Z,,,,,,,,,,,,,,,,,,,,,,,,,,,,,,,6995,,timeout,,,,,,,,,,,,,,,,,,,,,289429.00000000006,289429,282433,282422,282450,289445,,,
screen,html.Screen,2_3_1_1_1_0,2022-02-15T16:31:04.434Z,,,,,,,,,,,,,,,,,51,,,,,,,,,,,,,,1037,,response,,,,13,B,,,,,,Space,keypress(Space),,,,lyrical,,,,American -------- --- --- ---- --- --- ------ -- --------<br>---- --------- --- ------- ------------ ---------- ---------<br>--- ---------- ------- ---------- ------- -- -------- ----<br>---- --- ------ ----- ------ -- ---- --- ----- -- - -------<br>-------- -- --- --- -- ----- ----------- ----- -----------<br>---- --- ---------- --- ---- --- -- ----------,290554.00000000006,290466,289429,289430,289445,290596,,0,American
screen,html.Screen,2_3_1_1_1_1,2022-02-15T16:31:04.961Z,,,,,,,,,,,,,,,,,51,,,,,,,,,,,,,,415,,response,,,,13,B,,,,,,Space,keypress(Space),,,,lyrical,,,,-------- industry --- --- ---- --- --- ------ -- --------<br>---- --------- --- ------- ------------ ---------- ---------<br>--- ---------- ------- ---------- ------- -- -------- ----<br>---- --- ------ ----- ------ -- ---- --- ----- -- - -------<br>-------- -- --- --- -- ----- ----------- ----- -----------<br>---- --- ---------- --- ---- --- -- ----------,291081,290994,290579,290554.00000000006,290596,291113,,1,industry
screen,html.Screen,2_3_1_1_1_2,2022-02-15T16:31:05.273Z,,,,,,,,,,,,,,,,,51,,,,,,,,,,,,,,210,,response,,,,13,B,,,,,,Space,keypress(Space),,,,lyrical,,,,-------- -------- may --- ---- --- --- ------ -- --------<br>---- --------- --- ------- ------------ ---------- ---------<br>--- ---------- ------- ---------- ------- -- -------- ----<br>---- --- ------ ----- ------ -- ---- --- ----- -- - -------<br>-------- -- --- --- -- ----- ----------- ----- -----------<br>---- --- ---------- --- ---- --- -- ----------,291393,291306,291096,291081,291113,291413,,2,may
screen,html.Screen,2_3_1_1_1_3,2022-02-15T16:31:05.673Z,,,,,,,,,,,,,,,,,51,,,,,,,,,,,,,,309,,response,,,,13,B,,,,,,Space,keypress(Space),,,,lyrical,,,,-------- -------- --- not ---- --- --- ------ -- --------<br>---- --------- --- ------- ------------ ---------- ---------<br>--- ---------- ------- ---------- ------- -- -------- ----<br>---- --- ------ ----- ------ -- ---- --- ----- -- - -------<br>-------- -- --- --- -- ----- ----------- ----- -----------<br>---- --- ---------- --- ---- --- -- ----------,291793,291706,291397,291393,291413,291830,,3,not
