sender,sender_type,sender_id,timestamp,meta,,Blues,Classical,Country,Dance,Electronic,Folk,Gospel,Hip-Hop,Jazz,Latin,Musical/Film,New-age,Pop,Prolific_id,Provo_ID,R&B,Rap,Reggae,Religious,Rock,Soul,Swing,Traditional,age,artist_name,correct,correctResponse,distraction,duration,education,ended_on,familiarity,gender,headphone_check_performance,item,list,music_frequency,offensiveness,pleasantness,position_correct,preference,response,response_action,snippet_file,song_name,song_rating,sound,stimulus_1,stimulus_2,stimulus_3,text,time_commit,time_end,time_render,time_run,time_show,time_switch,url,word,word_ID
Prolific ID,html.Form,0,2022-02-03T15:33:36.124Z,"{""labjs_version"":""20.2.2"",""labjs_build"":{""flavor"":""production"",""commit"":""a25486e0c714a0ae2ce03ff94b7bb6896854dcfa""},""location"":""https://run.pavlovia.org/mvasilev/prolific2_music_b/"",""userAgent"":""Mozilla/5.0 (X11; CrOS x86_64 14324.80.0) AppleWebKit/537.36 (KHTML, like Gecko) Chrome/97.0.4692.102 Safari/537.36"",""platform"":""Linux x86_64"",""language"":""en-GB"",""locale"":""ja"",""timeZone"":""Europe/London"",""timezoneOffset"":0,""screen_width"":1536,""screen_height"":864,""scroll_width"":1536,""scroll_height"":662,""window_innerWidth"":1536,""window_innerHeight"":710,""devicePixelRatio"":1.25}",,,,,,,,,,,,,,,5f0b4c408bf3692972604ad0,,,,,,,,,,,,,,,11414.12699999851,,form submission,,,,,,,,,,,,,,,,,,,,,20327.300000000745,20325.89999999851,8878.459,8892.89999999851,8911.773,20354.603,{},,
Introduction,html.Screen,1_0,2022-02-03T15:33:40.033Z,,,,,,,,,,,,,,,,,,,,,,,,,,,,,,,3875.697000000746,,response,,,,,,,,,,,continue,click button,,,,,,,,,24236.199999999255,24230.300000000745,20337.946,20328.89999999851,20354.603,24239.002,,,
Volume calibration,html.Screen,1_1,2022-02-03T15:34:06.772Z,,,,,,,,,,,,,,,,,,,,,,,,,,,,,,,26724.89799999851,,response,,,,,,,,,,,continue,click button,,,,,,,,,50975.300000000745,50963.89999999851,24222.345,24236.60000000149,24239.002,50983.028,,,
Task instructions,html.Screen,1_2,2022-02-03T15:34:16.167Z,,,,,,,,,,,,,,,,,,,,,,,,,,,,,,,9385.972000000002,,response,,,,,,,,,,,continue,click button,,,,,,,,,60370.800000000745,60369,50966.371,50975.5,50983.028,60381.724,,,
Sounds,html.Screen,1_3_0_0,2022-02-03T15:34:20.413Z,,,,,,,,,,,,,,,,,,,,,,,,,,,,,,,4244.134999999995,,timeout,,,,,,,,,1,,,,,,,,S,O,I,,64616.10000000149,64609.202,60365.067,60371.10000000149,60381.724,64625.859,,,
Judgement,html.Screen,1_3_0_1,2022-02-03T15:34:21.225Z,,,,,,,,,,,,,,,,,,,,,,,,,,,,true,1,,799.6410000000033,,response,,,,,,,,,1,,1,click #choice-1,,,,,S,O,I,,65428.39999999851,65425.5,64609.202,64616.39999999851,64625.859,65438.114,,,
Trial,flow.Sequence,1_3_0,2022-02-03T15:34:21.226Z,,,,,,,,,,,,,,,,,,,,,,,,,,,,,,,5043.775999999998,,completion,,,,,,,,,1,,,,,,,,S,O,I,,65429,65425.5,60365.067,60371,60381.724,65438.114,,,
Sounds,html.Screen,1_3_1_0,2022-02-03T15:34:25.468Z,,,,,,,,,,,,,,,,,,,,,,,,,,,,,,,4247.547999999995,,timeout,,,,,,,,,2,,,,,,,,I,S,O,,69671.39999999851,69669.005,65421.457,65429.89999999851,65438.114,69685.662,,,
Judgement,html.Screen,1_3_1_1,2022-02-03T15:34:25.891Z,,,,,,,,,,,,,,,,,,,,,,,,,,,,true,2,,406.9380000014935,,response,,,,,,,,,2,,2,click #choice-2,,,,,I,S,O,,70094.80000000075,70092.60000000149,69669.005,69671.80000000075,69685.662,70111.088,,,
Trial,flow.Sequence,1_3_1,2022-02-03T15:34:25.892Z,,,,,,,,,,,,,,,,,,,,,,,,,,,,,,,4654.486000001489,,completion,,,,,,,,,2,,,,,,,,I,S,O,,70095.30000000075,70092.60000000149,65421.457,65429.199999999255,65438.114,70111.088,,,
Sounds,html.Screen,1_3_2_0,2022-02-03T15:34:30.145Z,,,,,,,,,,,,,,,,,,,,,,,,,,,,,,,4252.975999999995,,timeout,,,,,,,,,2,,,,,,,,O,S,I,,74348.80000000075,74347.407,70094.431,70095.60000000149,70111.088,74364.064,,,
Judgement,html.Screen,1_3_2_1,2022-02-03T15:34:30.562Z,,,,,,,,,,,,,,,,,,,,,,,,,,,,true,2,,399.03600000149163,,response,,,,,,,,,2,,2,click #choice-2,,,,,O,S,I,,74765,74763.10000000149,74347.407,74349.10000000149,74364.064,74774.911,,,
Trial,flow.Sequence,1_3_2,2022-02-03T15:34:30.562Z,,,,,,,,,,,,,,,,,,,,,,,,,,,,,,,4652.012000001487,,completion,,,,,,,,,2,,,,,,,,O,S,I,,74765.5,74763.10000000149,70094.431,70095.5,70111.088,74774.911,,,
Sounds,html.Screen,1_3_3_0,2022-02-03T15:34:34.810Z,,,,,,,,,,,,,,,,,,,,,,,,,,,,,,,4252.981000000014,,timeout,,,,,,,,,3,,,,,,,,O,I,S,,79012.89999999851,79011.235,74758.254,74765.69999999925,74774.911,79027.892,,,
Judgement,html.Screen,1_3_3_1,2022-02-03T15:34:35.203Z,,,,,,,,,,,,,,,,,,,,,,,,,,,,true,3,,376.40800000073796,,response,,,,,,,,,3,,3,click #choice-3,,,,,O,I,S,,79406.69999999925,79404.30000000075,79011.235,79013.19999999925,79027.892,79413.61,,,
Trial,flow.Sequence,1_3_3,2022-02-03T15:34:35.204Z,,,,,,,,,,,,,,,,,,,,,,,,,,,,,,,4629.389000000752,,completion,,,,,,,,,3,,,,,,,,O,I,S,,79407,79404.30000000075,74758.254,74765.60000000149,74774.911,79413.61,,,
Sounds,html.Screen,1_3_4_0,2022-02-03T15:34:39.452Z,,,,,,,,,,,,,,,,,,,,,,,,,,,,,,,4257.981,,timeout,,,,,,,,,3,,,,,,,,I,O,S,,83655.80000000075,83654.934,79396.953,79407.19999999925,79413.61,83671.591,,,
Judgement,html.Screen,1_3_4_1,2022-02-03T15:34:39.850Z,,,,,,,,,,,,,,,,,,,,,,,,,,,,true,3,,379.90899999999965,,response,,,,,,,,,3,,3,click #choice-3,,,,,I,O,S,,84053.19999999925,84051.5,83654.934,83655.89999999851,83671.591,84062.36,,,
Trial,flow.Sequence,1_3_4,2022-02-03T15:34:39.850Z,,,,,,,,,,,,,,,,,,,,,,,,,,,,,,,4637.889999999999,,completion,,,,,,,,,3,,,,,,,,I,O,S,,84053.60000000149,84051.5,79396.953,79407.19999999925,79413.61,84062.36,,,
Sounds,html.Screen,1_3_5_0,2022-02-03T15:34:44.102Z,,,,,,,,,,,,,,,,,,,,,,,,,,,,,,,4257.770999999993,,timeout,,,,,,,,,1,,,,,,,,S,I,O,,88305.10000000149,88303.474,84045.703,84053.80000000075,84062.36,88320.131,,,
Judgement,html.Screen,1_3_5_1,2022-02-03T15:34:44.516Z,,,,,,,,,,,,,,,,,,,,,,,,,,,,true,1,,397.36900000000605,,response,,,,,,,,,1,,1,click #choice-1,,,,,S,I,O,,88719.80000000075,88717.5,88303.474,88305.39999999851,88320.131,88738.07,,,
Trial,flow.Sequence,1_3_5,2022-02-03T15:34:44.517Z,,,,,,,,,,,,,,,,,,,,,,,,,,,,,,,4655.139999999999,,completion,,,,,,,,,1,,,,,,,,S,I,O,,88720.19999999925,88717.5,84045.703,84053.69999999925,84062.36,88738.07,,,
Task,flow.Loop,1_3,2022-02-03T15:34:44.529Z,,,,,,,,,,,,,,,,,,,,,,,,,,,,,,,28335.775999999998,,completion,,,1,,,,,,,,,,,,,,,,,,88732.30000000075,88717.5,60365.067,60370.89999999851,60381.724,88738.07,,,
Trap,html.Screen,1_4,2022-02-03T15:34:44.532Z,,,,,,,,,,,,,,,,,,,,,,,,,,,,,,,NaN,,skipped,,,,,,,,,,,,,,,,,,,,,88735.19999999925,88717.5,,88734.89999999851,,88738.07,,,
Thanks,html.Screen,1_5,2022-02-03T15:34:47.196Z,,,,,,,,,,,,,,,,,,,,,,,,,,,,,,,2659.030000001483,,response,,,,,,,,,,,continue,click button,,,,,,,,,91399.10000000149,91397.10000000149,88721.413,88735.39999999851,88738.07,93593.305,,,
Headphone screening,flow.Sequence,1,2022-02-03T15:34:47.196Z,,,,,,,,,,,,,,,,,,,,,,,,,,,,,,,71042.49700000149,,completion,,,,,,,,,,,,,,,,,,,,,91399.69999999925,91397.10000000149,20337.946,20328.699999999255,20354.603,93593.305,,,
Instructions,html.Page,2_0,2022-02-03T15:35:13.144Z,,,,,,,,,,,,,,,,,,,,,,,,,,,,,,,23753.995000000752,,form submission,,,,,,,,,,,,,,,,,,,,,117347.69999999925,117347.30000000075,93493.363,93530.69999999925,93593.305,117361.412,,,
Holding screen,html.Screen,2_1_0_0,2022-02-03T15:35:23.148Z,,,,,,,,,,,,,,,,,,,,,,,,,,,,,,,10022.074000000008,,timeout,,,,,,,,,,,,,,,,,,,,,127351.60000000149,127350.172,117344.755,117347.80000000075,117361.412,127383.486,,,
screen,html.Screen,2_1_0_1_0,2022-02-03T15:35:24.284Z,,,,,,,,,,,,,,,,,53,,,,,,,,,,,,,,1095.3140000007406,,response,,,,99,,,,,,,Space,keypress(Space),,,,,,,,When -- ----- -- ------ - ------- --- ----------<br>------------- ------ ------ ---- ---- ------- ----- -- ----<br>-------- ------- -- ---------- --- - --- ----- ----- ----<br>---- --- --- ----- --- ---- ---- ------- ----- ---- -------<br>--- --- -- ----- -- --- ---- -- --- ---- -- ------ ------<br>--- ----- -- ----,128487.10000000149,128478.80000000075,127350.172,127352,127383.486,128500.144,,0,When
screen,html.Screen,2_1_0_1_1,2022-02-03T15:35:24.854Z,,,,,,,,,,,,,,,,,53,,,,,,,,,,,,,,554.7559999985097,,response,,,,99,,,,,,,Space,keypress(Space),,,,,,,,---- it ----- -- ------ - ------- --- ----------<br>------------- ------ ------ ---- ---- ------- ----- -- ----<br>-------- ------- -- ---------- --- - --- ----- ----- ----<br>---- --- --- ----- --- ---- ---- ------- ----- ---- -------<br>--- --- -- ----- -- --- ---- -- --- ---- -- ------ ------<br>--- ----- -- ----,129057.60000000149,129054.89999999851,128483.487,128487.19999999925,128500.144,129071.417,,1,it
screen,html.Screen,2_1_0_1_2,2022-02-03T15:35:25.445Z,,,,,,,,,,,,,,,,,53,,,,,,,,,,,,,,575.0829999999987,,response,,,,99,,,,,,,Space,keypress(Space),,,,,,,,---- -- comes -- ------ - ------- --- ----------<br>------------- ------ ------ ---- ---- ------- ----- -- ----<br>-------- ------- -- ---------- --- - --- ----- ----- ----<br>---- --- --- ----- --- ---- ---- ------- ----- ---- -------<br>--- --- -- ----- -- --- ---- -- --- ---- -- ------ ------<br>--- ----- -- ----,129648.89999999851,129646.5,129054.76,129057.89999999851,129071.417,129656.916,,2,comes
screen,html.Screen,2_1_0_1_3,2022-02-03T15:35:25.962Z,,,,,,,,,,,,,,,,,53,,,,,,,,,,,,,,506.48399999851245,,response,,,,99,,,,,,,Space,keypress(Space),,,,,,,,---- -- ----- to ------ - ------- --- ----------<br>------------- ------ ------ ---- ---- ------- ----- -- ----<br>-------- ------- -- ---------- --- - --- ----- ----- ----<br>---- --- --- ----- --- ---- ---- ------- ----- ---- -------<br>--- --- -- ----- -- --- ---- -- --- ---- -- ------ ------<br>--- ----- -- ----,130165.60000000149,130163.39999999851,129640.259,129649.10000000149,129656.916,130177.228,,3,to
screen,html.Screen,2_1_0_1_4,2022-02-03T15:35:26.473Z,,,,,,,,,,,,,,,,,53,,,,,,,,,,,,,,497.07200000074226,,response,,,,99,,,,,,,Space,keypress(Space),,,,,,,,---- -- ----- -- having - ------- --- ----------<br>------------- ------ ------ ---- ---- ------- ----- -- ----<br>-------- ------- -- ---------- --- - --- ----- ----- ----<br>---- --- --- ----- --- ---- ---- ------- ----- ---- -------<br>--- --- -- ----- -- --- ---- -- --- ---- -- ------ ------<br>--- ----- -- ----,130676.5,130674.30000000075,130160.571,130165.80000000075,130177.228,130683.407,,4,having
screen,html.Screen,2_1_0_1_5,2022-02-03T15:35:26.876Z,,,,,,,,,,,,,,,,,53,,,,,,,,,,,,,,393.5929999999935,,response,,,,99,,,,,,,Space,keypress(Space),,,,,,,,---- -- ----- -- ------ a ------- --- ----------<br>------------- ------ ------ ---- ---- ------- ----- -- ----<br>-------- ------- -- ---------- --- - --- ----- ----- ----<br>---- --- --- ----- --- ---- ---- ------- ----- ---- -------<br>--- --- -- ----- -- --- ---- -- --- ---- -- ------ ------<br>--- ----- -- ----,131079.30000000075,131077,130666.75,130676.80000000075,130683.407,131093.842,,5,a
screen,html.Screen,2_1_0_1_6,2022-02-03T15:35:27.364Z,,,,,,,,,,,,,,,,,53,,,,,,,,,,,,,,471.6579999999958,,response,,,,99,,,,,,,Space,keypress(Space),,,,,,,,---- -- ----- -- ------ - lasting --- ----------<br>------------- ------ ------ ---- ---- ------- ----- -- ----<br>-------- ------- -- ---------- --- - --- ----- ----- ----<br>---- --- --- ----- --- ---- ---- ------- ----- ---- -------<br>--- --- -- ----- -- --- ---- -- --- ---- -- ------ ------<br>--- ----- -- ----,131567.6000000015,131565.5,131077.185,131079.6000000015,131093.842,131577.24,,6,lasting
screen,html.Screen,2_1_0_1_7,2022-02-03T15:35:27.879Z,,,,,,,,,,,,,,,,,53,,,,,,,,,,,,,,502.7600000000093,,response,,,,99,,,,,,,Space,keypress(Space),,,,,,,,---- -- ----- -- ------ - ------- and ----------<br>------------- ------ ------ ---- ---- ------- ----- -- ----<br>-------- ------- -- ---------- --- - --- ----- ----- ----<br>---- --- --- ----- --- ---- ---- ------- ----- ---- -------<br>--- --- -- ----- -- --- ---- -- --- ---- -- ------ ------<br>--- ----- -- ----,132082.30000000075,132080,131560.583,131567.8999999985,131577.24,132096.03,,7,and
screen,html.Screen,2_1_0_1_8,2022-02-03T15:35:28.385Z,,,,,,,,,,,,,,,,,53,,,,,,,,,,,,,,489.36999999851105,,response,,,,99,,,,,,,Space,keypress(Space),,,,,,,,---- -- ----- -- ------ - ------- --- fulfilling<br>------------- ------ ------ ---- ---- ------- ----- -- ----<br>-------- ------- -- ---------- --- - --- ----- ----- ----<br>---- --- --- ----- --- ---- ---- ------- ----- ---- -------<br>--- --- -- ----- -- --- ---- -- --- ---- -- ------ ------<br>--- ----- -- ----,132587.8999999985,132585.3999999985,132079.373,132082.69999999925,132096.03,132599.645,,8,fulfilling
screen,html.Screen,2_1_0_1_9,2022-02-03T15:35:29.232Z,,,,,,,,,,,,,,,,,53,,,,,,,,,,,,,,834.7549999985204,,response,,,,99,,,,,,,Space,keypress(Space),,,,,,,,"---- -- ----- -- ------ - ------- --- ----------<br>relationship, ------ ------ ---- ---- ------- ----- -- ----<br>-------- ------- -- ---------- --- - --- ----- ----- ----<br>---- --- --- ----- --- ---- ---- ------- ----- ---- -------<br>--- --- -- ----- -- --- ---- -- --- ---- -- ------ ------<br>--- ----- -- ----",133435.5,133434.3999999985,132582.988,132588.1000000015,132599.645,133436.646,,9,"relationship,"
screen,html.Screen,2_1_0_1_10,2022-02-03T15:35:29.740Z,,,,,,,,,,,,,,,,,53,,,,,,,,,,,,,,504.053999999247,,response,,,,99,,,,,,,Space,keypress(Space),,,,,,,,---- -- ----- -- ------ - ------- --- ----------<br>------------- common ------ ---- ---- ------- ----- -- ----<br>-------- ------- -- ---------- --- - --- ----- ----- ----<br>---- --- --- ----- --- ---- ---- ------- ----- ---- -------<br>--- --- -- ----- -- --- ---- -- --- ---- -- ------ ------<br>--- ----- -- ----,133943.19999999925,133940.69999999925,133419.989,133436,133436.646,133957.348,,10,common
screen,html.Screen,2_1_0_1_11,2022-02-03T15:35:30.245Z,,,,,,,,,,,,,,,,,53,,,,,,,,,,,,,,489.15200000000186,,response,,,,99,,,,,,,Space,keypress(Space),,,,,,,,---- -- ----- -- ------ - ------- --- ----------<br>------------- ------ wisdom ---- ---- ------- ----- -- ----<br>-------- ------- -- ---------- --- - --- ----- ----- ----<br>---- --- --- ----- --- ---- ---- ------- ----- ---- -------<br>--- --- -- ----- -- --- ---- -- --- ---- -- ------ ------<br>--- ----- -- ----,134448.80000000075,134446.5,133940.691,133943.5,133957.348,134457.869,,11,wisdom
screen,html.Screen,2_1_0_1_12,2022-02-03T15:35:30.666Z,,,,,,,,,,,,,,,,,53,,,,,,,,,,,,,,409.3309999992489,,response,,,,99,,,,,,,Space,keypress(Space),,,,,,,,---- -- ----- -- ------ - ------- --- ----------<br>------------- ------ ------ says ---- ------- ----- -- ----<br>-------- ------- -- ---------- --- - --- ----- ----- ----<br>---- --- --- ----- --- ---- ---- ------- ----- ---- -------<br>--- --- -- ----- -- --- ---- -- --- ---- -- ------ ------<br>--- ----- -- ----,134869.6000000015,134867.19999999925,134441.212,134449,134457.869,134881.849,,12,says
screen,html.Screen,2_1_0_1_13,2022-02-03T15:35:31.062Z,,,,,,,,,,,,,,,,,53,,,,,,,,,,,,,,381.2510000015027,,response,,,,99,,,,,,,Space,keypress(Space),,,,,,,,---- -- ----- -- ------ - ------- --- ----------<br>------------- ------ ------ ---- that ------- ----- -- ----<br>-------- ------- -- ---------- --- - --- ----- ----- ----<br>---- --- --- ----- --- ---- ---- ------- ----- ---- -------<br>--- --- -- ----- -- --- ---- -- --- ---- -- ------ ------<br>--- ----- -- ----,135265.3999999985,135263.1000000015,134865.192,134869.80000000075,134881.849,135269.019,,13,that
screen,html.Screen,2_1_0_1_14,2022-02-03T15:35:31.544Z,,,,,,,,,,,,,,,,,53,,,,,,,,,,,,,,476.48099999999977,,response,,,,99,,,,,,,Space,keypress(Space),,,,,,,,---- -- ----- -- ------ - ------- --- ----------<br>------------- ------ ------ ---- ---- feeling ----- -- ----<br>-------- ------- -- ---------- --- - --- ----- ----- ----<br>---- --- --- ----- --- ---- ---- ------- ----- ---- -------<br>--- --- -- ----- -- --- ---- -- --- ---- -- ------ ------<br>--- ----- -- ----,135747.8999999985,135745.5,135252.362,135265.69999999925,135269.019,135765.215,,14,feeling
screen,html.Screen,2_1_0_1_15,2022-02-03T15:35:32.021Z,,,,,,,,,,,,,,,,,53,,,,,,,,,,,,,,456.7850000000035,,response,,,,99,,,,,,,Space,keypress(Space),,,,,,,,---- -- ----- -- ------ - ------- --- ----------<br>------------- ------ ------ ---- ---- ------- close -- ----<br>-------- ------- -- ---------- --- - --- ----- ----- ----<br>---- --- --- ----- --- ---- ---- ------- ----- ---- -------<br>--- --- -- ----- -- --- ---- -- --- ---- -- ------ ------<br>--- ----- -- ----,136224.5,136222,135748.558,135748.1000000015,135765.215,136227.225,,15,close
screen,html.Screen,2_1_0_1_16,2022-02-03T15:35:32.354Z,,,,,,,,,,,,,,,,,53,,,,,,,,,,,,,,327.17499999850406,,response,,,,99,,,,,,,Space,keypress(Space),,,,,,,,---- -- ----- -- ------ - ------- --- ----------<br>------------- ------ ------ ---- ---- ------- ----- to ----<br>-------- ------- -- ---------- --- - --- ----- ----- ----<br>---- --- --- ----- --- ---- ---- ------- ----- ---- -------<br>--- --- -- ----- -- --- ---- -- --- ---- -- ------ ------<br>--- ----- -- ----,136557,136554.3999999985,136210.568,136224.80000000075,136227.225,136558.486,,16,to
screen,html.Screen,2_1_0_1_17,2022-02-03T15:35:32.801Z,,,,,,,,,,,,,,,,,53,,,,,,,,,,,,,,443.2139999992505,,response,,,,99,,,,,,,Space,keypress(Space),,,,,,,,---- -- ----- -- ------ - ------- --- ----------<br>------------- ------ ------ ---- ---- ------- ----- -- your<br>-------- ------- -- ---------- --- - --- ----- ----- ----<br>---- --- --- ----- --- ---- ---- ------- ----- ---- -------<br>--- --- -- ----- -- --- ---- -- --- ---- -- ------ ------<br>--- ----- -- ----,137004.19999999925,137001.69999999925,136541.829,136557.19999999925,136558.486,137008.07,,17,your
screen,html.Screen,2_1_0_1_18,2022-02-03T15:35:33.325Z,,,,,,,,,,,,,,,,,53,,,,,,,,,,,,,,517.5300000014831,,response,,,,99,,,,,,,Space,keypress(Space),,,,,,,,---- -- ----- -- ------ - ------- --- ----------<br>------------- ------ ------ ---- ---- ------- ----- -- ----<br>romantic ------- -- ---------- --- - --- ----- ----- ----<br>---- --- --- ----- --- ---- ---- ------- ----- ---- -------<br>--- --- -- ----- -- --- ---- -- --- ---- -- ------ ------<br>--- ----- -- ----,137528.1000000015,137525.6000000015,136991.413,137004.30000000075,137008.07,137537.306,,18,romantic
screen,html.Screen,2_1_0_1_19,2022-02-03T15:35:33.826Z,,,,,,,,,,,,,,,,,53,,,,,,,,,,,,,,489.89399999924353,,response,,,,99,,,,,,,Space,keypress(Space),,,,,,,,---- -- ----- -- ------ - ------- --- ----------<br>------------- ------ ------ ---- ---- ------- ----- -- ----<br>-------- partner -- ---------- --- - --- ----- ----- ----<br>---- --- --- ----- --- ---- ---- ------- ----- ---- -------<br>--- --- -- ----- -- --- ---- -- --- ---- -- ------ ------<br>--- ----- -- ----,138029.69999999925,138027.19999999925,137520.649,137528.30000000075,137537.306,138033.463,,19,partner
screen,html.Screen,2_1_0_1_20,2022-02-03T15:35:34.237Z,,,,,,,,,,,,,,,,,53,,,,,,,,,,,,,,404.43699999852106,,response,,,,99,,,,,,,Space,keypress(Space),,,,,,,,---- -- ----- -- ------ - ------- --- ----------<br>------------- ------ ------ ---- ---- ------- ----- -- ----<br>-------- ------- is ---------- --- - --- ----- ----- ----<br>---- --- --- ----- --- ---- ---- ------- ----- ---- -------<br>--- --- -- ----- -- --- ---- -- --- ---- -- ------ ------<br>--- ----- -- ----,138440.3999999985,138437.8999999985,138016.806,138029.8999999985,138033.463,138445.078,,20,is
screen,html.Screen,2_1_0_1_21,2022-02-03T15:35:34.711Z,,,,,,,,,,,,,,,,,53,,,,,,,,,,,,,,462.9219999999914,,response,,,,99,,,,,,,Space,keypress(Space),,,,,,,,---- -- ----- -- ------ - ------- --- ----------<br>------------- ------ ------ ---- ---- ------- ----- -- ----<br>-------- ------- -- paramount. --- - --- ----- ----- ----<br>---- --- --- ----- --- ---- ---- ------- ----- ---- -------<br>--- --- -- ----- -- --- ---- -- --- ---- -- ------ ------<br>--- ----- -- ----,138914.30000000075,138908,138428.421,138440.69999999925,138445.078,138924.588,,21,paramount.
screen,html.Screen,2_1_0_1_22,2022-02-03T15:35:35.501Z,,,,,,,,,,,,,,,,,53,,,,,,,,,,,,,,776.4120000000112,,response,,,,99,,,,,,,Space,keypress(Space),,,,,,,,---- -- ----- -- ------ - ------- --- ----------<br>------------- ------ ------ ---- ---- ------- ----- -- ----<br>-------- ------- -- ---------- But - --- ----- ----- ----<br>---- --- --- ----- --- ---- ---- ------- ----- ---- -------<br>--- --- -- ----- -- --- ---- -- --- ---- -- ------ ------<br>--- ----- -- ----,139704.1000000015,139701,138907.931,138914.5,138924.588,139711.856,,22,But
screen,html.Screen,2_1_0_1_23,2022-02-03T15:35:35.839Z,,,,,,,,,,,,,,,,,53,,,,,,,,,,,,,,327.8439999992552,,response,,,,99,,,,,,,Space,keypress(Space),,,,,,,,---- -- ----- -- ------ - ------- --- ----------<br>------------- ------ ------ ---- ---- ------- ----- -- ----<br>-------- ------- -- ---------- --- a --- ----- ----- ----<br>---- --- --- ----- --- ---- ---- ------- ----- ---- -------<br>--- --- -- ----- -- --- ---- -- --- ---- -- ------ ------<br>--- ----- -- ----,140042,140039.69999999925,139695.199,139704.30000000075,139711.856,140050.778,,23,a
screen,html.Screen,2_1_0_1_24,2022-02-03T15:35:36.221Z,,,,,,,,,,,,,,,,,53,,,,,,,,,,,,,,371.82200000149896,,response,,,,99,,,,,,,Space,keypress(Space),,,,,,,,---- -- ----- -- ------ - ------- --- ----------<br>------------- ------ ------ ---- ---- ------- ----- -- ----<br>-------- ------- -- ---------- --- - new ----- ----- ----<br>---- --- --- ----- --- ---- ---- ------- ----- ---- -------<br>--- --- -- ----- -- --- ---- -- --- ---- -- ------ ------<br>--- ----- -- ----,140424.5,140422.6000000015,140034.121,140042.30000000075,140050.778,140440.584,,24,new
screen,html.Screen,2_1_0_1_25,2022-02-03T15:35:36.624Z,,,,,,,,,,,,,,,,,53,,,,,,,,,,,,,,384.1159999992524,,response,,,,99,,,,,,,Space,keypress(Space),,,,,,,,---- -- ----- -- ------ - ------- --- ----------<br>------------- ------ ------ ---- ---- ------- ----- -- ----<br>-------- ------- -- ---------- --- - --- study ----- ----<br>---- --- --- ----- --- ---- ---- ------- ----- ---- -------<br>--- --- -- ----- -- --- ---- -- --- ---- -- ------ ------<br>--- ----- -- ----,140827.3999999985,140824.69999999925,140423.927,140424.80000000075,140440.584,140841.05,,25,study
screen,html.Screen,2_1_0_1_26,2022-02-03T15:35:37.003Z,,,,,,,,,,,,,,,,,53,,,,,,,,,,,,,,362.55000000150176,,response,,,,99,,,,,,,Space,keypress(Space),,,,,,,,---- -- ----- -- ------ - ------- --- ----------<br>------------- ------ ------ ---- ---- ------- ----- -- ----<br>-------- ------- -- ---------- --- - --- ----- finds ----<br>---- --- --- ----- --- ---- ---- ------- ----- ---- -------<br>--- --- -- ----- -- --- ---- -- --- ---- -- ------ ------<br>--- ----- -- ----,141206.3999999985,141203.6000000015,140824.393,140827.6000000015,140841.05,141210.02,,26,finds
screen,html.Screen,2_1_0_1_27,2022-02-03T15:35:37.450Z,,,,,,,,,,,,,,,,,53,,,,,,,,,,,,,,439.28000000075554,,response,,,,99,,,,,,,Space,keypress(Space),,,,,,,,---- -- ----- -- ------ - ------- --- ----------<br>------------- ------ ------ ---- ---- ------- ----- -- ----<br>-------- ------- -- ---------- --- - --- ----- ----- that<br>---- --- --- ----- --- ---- ---- ------- ----- ---- -------<br>--- --- -- ----- -- --- ---- -- --- ---- -- ------ ------<br>--- ----- -- ----,141652.8999999985,141649.30000000075,141193.363,141206.69999999925,141210.02,141656.141,,27,that
screen,html.Screen,2_1_0_1_28,2022-02-03T15:35:37.980Z,,,,,,,,,,,,,,,,,53,,,,,,,,,,,,,,504.5589999992517,,response,,,,99,,,,,,,Space,keypress(Space),,,,,,,,---- -- ----- -- ------ - ------- --- ----------<br>------------- ------ ------ ---- ---- ------- ----- -- ----<br>-------- ------- -- ---------- --- - --- ----- ----- ----<br>it's --- --- ----- --- ---- ---- ------- ----- ---- -------<br>--- --- -- ----- -- --- ---- -- --- ---- -- ------ ------<br>--- ----- -- ----,142183.30000000075,142160.69999999925,141639.484,141653.3999999985,141656.141,142201.358,,28,it's
screen,html.Screen,2_1_0_1_29,2022-02-03T15:35:38.365Z,,,,,,,,,,,,,,,,,53,,,,,,,,,,,,,,364.9420000007376,,response,,,,99,,,,,,,Space,keypress(Space),,,,,,,,---- -- ----- -- ------ - ------- --- ----------<br>------------- ------ ------ ---- ---- ------- ----- -- ----<br>-------- ------- -- ---------- --- - --- ----- ----- ----<br>---- not --- ----- --- ---- ---- ------- ----- ---- -------<br>--- --- -- ----- -- --- ---- -- --- ---- -- ------ ------<br>--- ----- -- ----,142568.8999999985,142566.30000000075,142184.701,142183.3999999985,142201.358,142584.057,,29,not
screen,html.Screen,2_1_0_1_30,2022-02-03T15:35:38.759Z,,,,,,,,,,,,,,,,,53,,,,,,,,,,,,,,375.64299999925424,,response,,,,99,,,,,,,Space,keypress(Space),,,,,,,,---- -- ----- -- ------ - ------- --- ----------<br>------------- ------ ------ ---- ---- ------- ----- -- ----<br>-------- ------- -- ---------- --- - --- ----- ----- ----<br>---- --- how ----- --- ---- ---- ------- ----- ---- -------<br>--- --- -- ----- -- --- ---- -- --- ---- -- ------ ------<br>--- ----- -- ----,142962,142959.69999999925,142567.4,142569.1000000015,142584.057,142968.206,,30,how
screen,html.Screen,2_1_0_1_31,2022-02-03T15:35:39.144Z,,,,,,,,,,,,,,,,,53,,,,,,,,,,,,,,376.59400000073947,,response,,,,99,,,,,,,Space,keypress(Space),,,,,,,,---- -- ----- -- ------ - ------- --- ----------<br>------------- ------ ------ ---- ---- ------- ----- -- ----<br>-------- ------- -- ---------- --- - --- ----- ----- ----<br>---- --- --- close --- ---- ---- ------- ----- ---- -------<br>--- --- -- ----- -- --- ---- -- --- ---- -- ------ ------<br>--- ----- -- ----,143347.6000000015,143344.80000000075,142951.549,142962.19999999925,142968.206,143361.308,,31,close
screen,html.Screen,2_1_0_1_32,2022-02-03T15:35:39.590Z,,,,,,,,,,,,,,,,,53,,,,,,,,,,,,,,429.69200000001,,response,,,,99,,,,,,,Space,keypress(Space),,,,,,,,---- -- ----- -- ------ - ------- --- ----------<br>------------- ------ ------ ---- ---- ------- ----- -- ----<br>-------- ------- -- ---------- --- - --- ----- ----- ----<br>---- --- --- ----- you ---- ---- ------- ----- ---- -------<br>--- --- -- ----- -- --- ---- -- --- ---- -- ------ ------<br>--- ----- -- ----,143793.30000000075,143791,143344.651,143347.8999999985,143361.308,143797.195,,32,you
screen,html.Screen,2_1_0_1_33,2022-02-03T15:35:39.957Z,,,,,,,,,,,,,,,,,53,,,,,,,,,,,,,,360.304999999993,,response,,,,99,,,,,,,Space,keypress(Space),,,,,,,,---- -- ----- -- ------ - ------- --- ----------<br>------------- ------ ------ ---- ---- ------- ----- -- ----<br>-------- ------- -- ---------- --- - --- ----- ----- ----<br>---- --- --- ----- --- feel ---- ------- ----- ---- -------<br>--- --- -- ----- -- --- ---- -- --- ---- -- ------ ------<br>--- ----- -- ----,144160.6000000015,144157.5,143780.538,143793.5,143797.195,144171.394,,33,feel
screen,html.Screen,2_1_0_1_34,2022-02-03T15:35:40.321Z,,,,,,,,,,,,,,,,,53,,,,,,,,,,,,,,350.9060000007448,,response,,,,99,,,,,,,Space,keypress(Space),,,,,,,,---- -- ----- -- ------ - ------- --- ----------<br>------------- ------ ------ ---- ---- ------- ----- -- ----<br>-------- ------- -- ---------- --- - --- ----- ----- ----<br>---- --- --- ----- --- ---- that ------- ----- ---- -------<br>--- --- -- ----- -- --- ---- -- --- ---- -- ------ ------<br>--- ----- -- ----,144524.3999999985,144522.30000000075,144154.737,144160.8999999985,144171.394,144526.945,,34,that
screen,html.Screen,2_1_0_1_35,2022-02-03T15:35:40.749Z,,,,,,,,,,,,,,,,,53,,,,,,,,,,,,,,422.9549999985029,,response,,,,99,,,,,,,Space,keypress(Space),,,,,,,,---- -- ----- -- ------ - ------- --- ----------<br>------------- ------ ------ ---- ---- ------- ----- -- ----<br>-------- ------- -- ---------- --- - --- ----- ----- ----<br>---- --- --- ----- --- ---- ---- matters ----- ---- -------<br>--- --- -- ----- -- --- ---- -- --- ---- -- ------ ------<br>--- ----- -- ----,144952.80000000075,144949.8999999985,144510.288,144524.69999999925,144526.945,144957.822,,35,matters
screen,html.Screen,2_1_0_1_36,2022-02-03T15:35:41.171Z,,,,,,,,,,,,,,,,,53,,,,,,,,,,,,,,412.4780000007595,,response,,,,99,,,,,,,Space,keypress(Space),,,,,,,,"---- -- ----- -- ------ - ------- --- ----------<br>------------- ------ ------ ---- ---- ------- ----- -- ----<br>-------- ------- -- ---------- --- - --- ----- ----- ----<br>---- --- --- ----- --- ---- ---- ------- most, ---- -------<br>--- --- -- ----- -- --- ---- -- --- ---- -- ------ ------<br>--- ----- -- ----",145374.30000000075,145370.30000000075,144941.165,144953.1000000015,144957.822,145386.797,,36,"most,"
screen,html.Screen,2_1_0_1_37,2022-02-03T15:35:41.574Z,,,,,,,,,,,,,,,,,53,,,,,,,,,,,,,,386.7030000000086,,response,,,,99,,,,,,,Space,keypress(Space),,,,,,,,---- -- ----- -- ------ - ------- --- ----------<br>------------- ------ ------ ---- ---- ------- ----- -- ----<br>-------- ------- -- ---------- --- - --- ----- ----- ----<br>---- --- --- ----- --- ---- ---- ------- ----- it's -------<br>--- --- -- ----- -- --- ---- -- --- ---- -- ------ ------<br>--- ----- -- ----,145777.1000000015,145773.5,145370.14,145374.5,145386.797,145791.014,,37,it's
screen,html.Screen,2_1_0_1_38,2022-02-03T15:35:42.011Z,,,,,,,,,,,,,,,,,53,,,,,,,,,,,,,,420.7860000007495,,response,,,,99,,,,,,,Space,keypress(Space),,,,,,,,---- -- ----- -- ------ - ------- --- ----------<br>------------- ------ ------ ---- ---- ------- ----- -- ----<br>-------- ------- -- ---------- --- - --- ----- ----- ----<br>---- --- --- ----- --- ---- ---- ------- ----- ---- whether<br>--- --- -- ----- -- --- ---- -- --- ---- -- ------ ------<br>--- ----- -- ----,146214,146211.80000000075,145774.357,145777.3999999985,145791.014,146222.739,,38,whether
screen,html.Screen,2_1_0_1_39,2022-02-03T15:35:42.447Z,,,,,,,,,,,,,,,,,53,,,,,,,,,,,,,,424.1609999985085,,response,,,,99,,,,,,,Space,keypress(Space),,,,,,,,---- -- ----- -- ------ - ------- --- ----------<br>------------- ------ ------ ---- ---- ------- ----- -- ----<br>-------- ------- -- ---------- --- - --- ----- ----- ----<br>---- --- --- ----- --- ---- ---- ------- ----- ---- -------<br>you --- -- ----- -- --- ---- -- --- ---- -- ------ ------<br>--- ----- -- ----,146650,146646.8999999985,146206.082,146214.1000000015,146222.739,146661.382,,39,you
screen,html.Screen,2_1_0_1_40,2022-02-03T15:35:42.820Z,,,,,,,,,,,,,,,,,53,,,,,,,,,,,,,,359.2180000014778,,response,,,,99,,,,,,,Space,keypress(Space),,,,,,,,---- -- ----- -- ------ - ------- --- ----------<br>------------- ------ ------ ---- ---- ------- ----- -- ----<br>-------- ------- -- ---------- --- - --- ----- ----- ----<br>---- --- --- ----- --- ---- ---- ------- ----- ---- -------<br>--- are -- ----- -- --- ---- -- --- ---- -- ------ ------<br>--- ----- -- ----,147023,147020.6000000015,146644.725,146650.19999999925,146661.382,147032.951,,40,are
screen,html.Screen,2_1_0_1_41,2022-02-03T15:35:43.266Z,,,,,,,,,,,,,,,,,53,,,,,,,,,,,,,,433.248999999254,,response,,,,99,,,,,,,Space,keypress(Space),,,,,,,,---- -- ----- -- ------ - ------- --- ----------<br>------------- ------ ------ ---- ---- ------- ----- -- ----<br>-------- ------- -- ---------- --- - --- ----- ----- ----<br>---- --- --- ----- --- ---- ---- ------- ----- ---- -------<br>--- --- as ----- -- --- ---- -- --- ---- -- ------ ------<br>--- ----- -- ----,147469,147466.19999999925,147016.294,147023.19999999925,147032.951,147473.282,,41,as
screen,html.Screen,2_1_0_1_42,2022-02-03T15:35:43.705Z,,,,,,,,,,,,,,,,,53,,,,,,,,,,,,,,433.01800000073854,,response,,,,99,,,,,,,Space,keypress(Space),,,,,,,,---- -- ----- -- ------ - ------- --- ----------<br>------------- ------ ------ ---- ---- ------- ----- -- ----<br>-------- ------- -- ---------- --- - --- ----- ----- ----<br>---- --- --- ----- --- ---- ---- ------- ----- ---- -------<br>--- --- -- close -- --- ---- -- --- ---- -- ------ ------<br>--- ----- -- ----,147908.6000000015,147906.30000000075,147456.625,147469.19999999925,147473.282,147911.749,,42,close
screen,html.Screen,2_1_0_1_43,2022-02-03T15:35:44.094Z,,,,,,,,,,,,,,,,,53,,,,,,,,,,,,,,382.7509999999893,,response,,,,99,,,,,,,Space,keypress(Space),,,,,,,,---- -- ----- -- ------ - ------- --- ----------<br>------------- ------ ------ ---- ---- ------- ----- -- ----<br>-------- ------- -- ---------- --- - --- ----- ----- ----<br>---- --- --- ----- --- ---- ---- ------- ----- ---- -------<br>--- --- -- ----- as --- ---- -- --- ---- -- ------ ------<br>--- ----- -- ----,148297,148294.5,147895.092,147908.80000000075,147911.749,148308.233,,43,as
screen,html.Screen,2_1_0_1_44,2022-02-03T15:35:44.450Z,,,,,,,,,,,,,,,,,53,,,,,,,,,,,,,,342.76699999999255,,response,,,,99,,,,,,,Space,keypress(Space),,,,,,,,---- -- ----- -- ------ - ------- --- ----------<br>------------- ------ ------ ---- ---- ------- ----- -- ----<br>-------- ------- -- ---------- --- - --- ----- ----- ----<br>---- --- --- ----- --- ---- ---- ------- ----- ---- -------<br>--- --- -- ----- -- you ---- -- --- ---- -- ------ ------<br>--- ----- -- ----,148653.5,148651,148291.576,148297.19999999925,148308.233,148663.905,,44,you
screen,html.Screen,2_1_0_1_45,2022-02-03T15:35:44.939Z,,,,,,,,,,,,,,,,,53,,,,,,,,,,,,,,471.99499999851105,,response,,,,99,,,,,,,Space,keypress(Space),,,,,,,,---- -- ----- -- ------ - ------- --- ----------<br>------------- ------ ------ ---- ---- ------- ----- -- ----<br>-------- ------- -- ---------- --- - --- ----- ----- ----<br>---- --- --- ----- --- ---- ---- ------- ----- ---- -------<br>--- --- -- ----- -- --- want -- --- ---- -- ------ ------<br>--- ----- -- ----,149142.3999999985,149135.8999999985,148647.248,148653.80000000075,148663.905,149151.977,,45,want
screen,html.Screen,2_1_0_1_46,2022-02-03T15:35:45.315Z,,,,,,,,,,,,,,,,,53,,,,,,,,,,,,,,363.9229999984964,,response,,,,99,,,,,,,Space,keypress(Space),,,,,,,,---- -- ----- -- ------ - ------- --- ----------<br>------------- ------ ------ ---- ---- ------- ----- -- ----<br>-------- ------- -- ---------- --- - --- ----- ----- ----<br>---- --- --- ----- --- ---- ---- ------- ----- ---- -------<br>--- --- -- ----- -- --- ---- to --- ---- -- ------ ------<br>--- ----- -- ----,149518.80000000075,149515.8999999985,149135.32,149144,149151.977,149528.854,,46,to
screen,html.Screen,2_1_0_1_47,2022-02-03T15:35:45.763Z,,,,,,,,,,,,,,,,,53,,,,,,,,,,,,,,434.24600000149803,,response,,,,99,,,,,,,Space,keypress(Space),,,,,,,,"---- -- ----- -- ------ - ------- --- ----------<br>------------- ------ ------ ---- ---- ------- ----- -- ----<br>-------- ------- -- ---------- --- - --- ----- ----- ----<br>---- --- --- ----- --- ---- ---- ------- ----- ---- -------<br>--- --- -- ----- -- --- ---- -- be, ---- -- ------ ------<br>--- ----- -- ----",149966.3999999985,149963.1000000015,149512.197,149519.1000000015,149528.854,149979.489,,47,"be,"
screen,html.Screen,2_1_0_1_48,2022-02-03T15:35:46.501Z,,,,,,,,,,,,,,,,,53,,,,,,,,,,,,,,722.3110000007437,,response,,,,99,,,,,,,Space,keypress(Space),,,,,,,,---- -- ----- -- ------ - ------- --- ----------<br>------------- ------ ------ ---- ---- ------- ----- -- ----<br>-------- ------- -- ---------- --- - --- ----- ----- ----<br>---- --- --- ----- --- ---- ---- ------- ----- ---- -------<br>--- --- -- ----- -- --- ---- -- --- even -- ------ ------<br>--- ----- -- ----,150703.8999999985,150701.80000000075,149962.832,149966.69999999925,149979.489,150716.149,,48,even
screen,html.Screen,2_1_0_1_49,2022-02-03T15:35:46.873Z,,,,,,,,,,,,,,,,,53,,,,,,,,,,,,,,357.250999998505,,response,,,,99,,,,,,,Space,keypress(Space),,,,,,,,---- -- ----- -- ------ - ------- --- ----------<br>------------- ------ ------ ---- ---- ------- ----- -- ----<br>-------- ------- -- ---------- --- - --- ----- ----- ----<br>---- --- --- ----- --- ---- ---- ------- ----- ---- -------<br>--- --- -- ----- -- --- ---- -- --- ---- if ------ ------<br>--- ----- -- ----,151076.1000000015,151073.3999999985,150699.492,150704.1000000015,150716.149,151086.643,,49,if
screen,html.Screen,2_1_0_1_50,2022-02-03T15:35:47.322Z,,,,,,,,,,,,,,,,,53,,,,,,,,,,,,,,436.1570000007341,,response,,,,99,,,,,,,Space,keypress(Space),,,,,,,,---- -- ----- -- ------ - ------- --- ----------<br>------------- ------ ------ ---- ---- ------- ----- -- ----<br>-------- ------- -- ---------- --- - --- ----- ----- ----<br>---- --- --- ----- --- ---- ---- ------- ----- ---- -------<br>--- --- -- ----- -- --- ---- -- --- ---- -- that's ------<br>--- ----- -- ----,151525.6000000015,151522.80000000075,151069.986,151076.30000000075,151086.643,151542.53,,50,that's
screen,html.Screen,2_1_0_1_51,2022-02-03T15:35:47.758Z,,,,,,,,,,,,,,,,,53,,,,,,,,,,,,,,415.86999999851105,,response,,,,99,,,,,,,Space,keypress(Space),,,,,,,,---- -- ----- -- ------ - ------- --- ----------<br>------------- ------ ------ ---- ---- ------- ----- -- ----<br>-------- ------- -- ---------- --- - --- ----- ----- ----<br>---- --- --- ----- --- ---- ---- ------- ----- ---- -------<br>--- --- -- ----- -- --- ---- -- --- ---- -- ------ really<br>--- ----- -- ----,151961,151958.3999999985,151525.873,151525.8999999985,151542.53,151962.815,,51,really
screen,html.Screen,2_1_0_1_52,2022-02-03T15:35:48.182Z,,,,,,,,,,,,,,,,,53,,,,,,,,,,,,,,420.08499999850756,,response,,,,99,,,,,,,Space,keypress(Space),,,,,,,,---- -- ----- -- ------ - ------- --- ----------<br>------------- ------ ------ ---- ---- ------- ----- -- ----<br>-------- ------- -- ---------- --- - --- ----- ----- ----<br>---- --- --- ----- --- ---- ---- ------- ----- ---- -------<br>--- --- -- ----- -- --- ---- -- --- ---- -- ------ ------<br>not ----- -- ----,152384.8999999985,152382.8999999985,151946.158,151961.30000000075,151962.815,152394.563,,52,not
screen,html.Screen,2_1_0_1_53,2022-02-03T15:35:48.571Z,,,,,,,,,,,,,,,,,53,,,,,,,,,,,,,,374.43700000000536,,response,,,,99,,,,,,,Space,keypress(Space),,,,,,,,---- -- ----- -- ------ - ------- --- ----------<br>------------- ------ ------ ---- ---- ------- ----- -- ----<br>-------- ------- -- ---------- --- - --- ----- ----- ----<br>---- --- --- ----- --- ---- ---- ------- ----- ---- -------<br>--- --- -- ----- -- --- ---- -- --- ---- -- ------ ------<br>--- close -- ----,152774,152769,152377.906,152385.1000000015,152394.563,152784.393,,53,close
screen,html.Screen,2_1_0_1_54,2022-02-03T15:35:48.931Z,,,,,,,,,,,,,,,,,53,,,,,,,,,,,,,,347.00699999849894,,response,,,,99,,,,,,,Space,keypress(Space),,,,,,,,---- -- ----- -- ------ - ------- --- ----------<br>------------- ------ ------ ---- ---- ------- ----- -- ----<br>-------- ------- -- ---------- --- - --- ----- ----- ----<br>---- --- --- ----- --- ---- ---- ------- ----- ---- -------<br>--- --- -- ----- -- --- ---- -- --- ---- -- ------ ------<br>--- ----- at ----,153134,153131.3999999985,152767.736,152774.19999999925,152784.393,153141.217,,54,at
screen,html.Screen,2_1_0_1_55,2022-02-03T15:35:49.370Z,,,,,,,,,,,,,,,,,53,,,,,,,,,,,,,,429.98299999925075,,response,,,,99,,,,,,,Space,keypress(Space),,,,,,,,---- -- ----- -- ------ - ------- --- ----------<br>------------- ------ ------ ---- ---- ------- ----- -- ----<br>-------- ------- -- ---------- --- - --- ----- ----- ----<br>---- --- --- ----- --- ---- ---- ------- ----- ---- -------<br>--- --- -- ----- -- --- ---- -- --- ---- -- ------ ------<br>--- ----- -- all.,153573.3999999985,153571.19999999925,153124.56,153134.19999999925,153141.217,153584.88,,55,all.
Item 99,flow.Loop,2_1_0_1,2022-02-03T15:35:49.371Z,,,,,,,,,,,,,,,,,,,,,,,,,,,,,,,26187.71399999925,,completion,,,,,B,,,,,,,,,,,silence,,,,,153573.8999999985,153571.19999999925,127350.172,127351.89999999851,127383.486,153584.88,,,
Question 1,html.Screen,2_1_0_2,2022-02-03T15:35:54.920Z,,,,,,,,,,,,,,,,,,,,,,,,,,,,true,FALSE,,5536.92000000074,,response,,,,99,B,,,,,,FALSE,click #choice-2,,,,silence,,,,,159123.80000000075,159121.80000000075,153568.223,153574.19999999925,153584.88,159147.789,,,
Question 2,html.Screen,2_1_0_3,2022-02-03T15:35:58.847Z,,,,,,,,,,,,,,,,,,,,,,,,,,,,true,TRUE,,3900.2110000000102,,response,,,,99,B,,,,,,TRUE,click #choice-1,,,,silence,,,,,163050.5,163048,159114.475,159124.1000000015,159147.789,163070.732,,,
Item 99,flow.Sequence,2_1_0,2022-02-03T15:35:58.847Z,,,,,,,,,,,,,,,,,,,,,,,,,,,,,,,45686.588,,completion,,,,,,,,,,,,,,,,,,,,,163050.80000000075,163048,117344.755,117347.80000000075,117361.412,163070.732,,,
Holding screen,html.Screen,2_1_1_0,2022-02-03T15:36:08.850Z,,,,,,,,,,,,,,,,,,,,,,,,,,,,,,,9997.900000000023,,timeout,,,,,,,,,,,,,,,,,,,,,173053.1000000015,173051.975,163054.075,163051,163070.732,173068.632,,,
screen,html.Screen,2_1_1_1_0,2022-02-03T15:36:09.845Z,,,,,,,,,,,,,,,,,54,,,,,,,,,,,,,,973.1680000007327,,response,,,,100,,,,,,,Space,keypress(Space),,,,,,,,At --- ---- --- ------ ----- ------- ---- -- --- ------- --<br>------- ---------- ------ -- ----- -- ----- -- ---- ------<br>--- ----- --- --- ------ -------- ----- --- ------ ----- --<br>----- ----- ---------- --- --- ------ ------ ---- -- ------<br>------- --- ------ ----- --- ---- ------- -- ---- --- --<br>------- ------,174048,174041.80000000075,173051.975,173053.30000000075,173068.632,174048.683,,0,At
screen,html.Screen,2_1_1_1_1,2022-02-03T15:36:10.327Z,,,,,,,,,,,,,,,,,54,,,,,,,,,,,,,,479.51699999926495,,response,,,,100,,,,,,,Space,keypress(Space),,,,,,,,-- the ---- --- ------ ----- ------- ---- -- --- ------- --<br>------- ---------- ------ -- ----- -- ----- -- ---- ------<br>--- ----- --- --- ------ -------- ----- --- ------ ----- --<br>----- ----- ---------- --- --- ------ ------ ---- -- ------<br>------- --- ------ ----- --- ---- ------- -- ---- --- --<br>------- ------,174530.6000000015,174528.19999999925,174032.026,174048.30000000075,174048.683,174532.165,,1,the
screen,html.Screen,2_1_1_1_2,2022-02-03T15:36:10.841Z,,,,,,,,,,,,,,,,,54,,,,,,,,,,,,,,509.5349999992468,,response,,,,100,,,,,,,Space,keypress(Space),,,,,,,,-- --- time --- ------ ----- ------- ---- -- --- ------- --<br>------- ---------- ------ -- ----- -- ----- -- ---- ------<br>--- ----- --- --- ------ -------- ----- --- ------ ----- --<br>----- ----- ---------- --- --- ------ ------ ---- -- ------<br>------- --- ------ ----- --- ---- ------- -- ---- --- --<br>------- ------,175044.30000000075,175041.69999999925,174515.508,174530.80000000075,174532.165,175062.029,,2,time
screen,html.Screen,2_1_1_1_3,2022-02-03T15:36:11.346Z,,,,,,,,,,,,,,,,,54,,,,,,,,,,,,,,484.97099999999045,,response,,,,100,,,,,,,Space,keypress(Space),,,,,,,,-- --- ---- the ------ ----- ------- ---- -- --- ------- --<br>------- ---------- ------ -- ----- -- ----- -- ---- ------<br>--- ----- --- --- ------ -------- ----- --- ------ ----- --<br>----- ----- ---------- --- --- ------ ------ ---- -- ------<br>------- --- ------ ----- --- ---- ------- -- ---- --- --<br>------- ------,175549.19999999925,175547,175045.372,175044.5,175062.029,175561.078,,3,the
screen,html.Screen,2_1_1_1_4,2022-02-03T15:36:11.851Z,,,,,,,,,,,,,,,,,54,,,,,,,,,,,,,,491.0220000014815,,response,,,,100,,,,,,,Space,keypress(Space),,,,,,,,-- --- ---- --- French ----- ------- ---- -- --- ------- --<br>------- ---------- ------ -- ----- -- ----- -- ---- ------<br>--- ----- --- --- ------ -------- ----- --- ------ ----- --<br>----- ----- ---------- --- --- ------ ------ ---- -- ------<br>------- --- ------ ----- --- ---- ------- -- ---- --- --<br>------- ------,176054.6000000015,176052.1000000015,175544.421,175549.3999999985,175561.078,176062.863,,4,French
screen,html.Screen,2_1_1_1_5,2022-02-03T15:36:12.387Z,,,,,,,,,,,,,,,,,54,,,,,,,,,,,,,,524.737000001478,,response,,,,100,,,,,,,Space,keypress(Space),,,,,,,,-- --- ---- --- ------ crown ------- ---- -- --- ------- --<br>------- ---------- ------ -- ----- -- ----- -- ---- ------<br>--- ----- --- --- ------ -------- ----- --- ------ ----- --<br>----- ----- ---------- --- --- ------ ------ ---- -- ------<br>------- --- ------ ----- --- ---- ------- -- ---- --- --<br>------- ------,176590.19999999925,176587.6000000015,176046.206,176054.80000000075,176062.863,176605.038,,5,crown
screen,html.Screen,2_1_1_1_6,2022-02-03T15:36:12.913Z,,,,,,,,,,,,,,,,,54,,,,,,,,,,,,,,509.56200000148965,,response,,,,100,,,,,,,Space,keypress(Space),,,,,,,,-- --- ---- --- ------ ----- secured ---- -- --- ------- --<br>------- ---------- ------ -- ----- -- ----- -- ---- ------<br>--- ----- --- --- ------ -------- ----- --- ------ ----- --<br>----- ----- ---------- --- --- ------ ------ ---- -- ------<br>------- --- ------ ----- --- ---- ------- -- ---- --- --<br>------- ------,177116.5,177114.6000000015,176588.381,176590.5,176605.038,177122.289,,6,secured
screen,html.Screen,2_1_1_1_7,2022-02-03T15:36:13.375Z,,,,,,,,,,,,,,,,,54,,,,,,,,,,,,,,453.81100000150036,,response,,,,100,,,,,,,Space,keypress(Space),,,,,,,,-- --- ---- --- ------ ----- ------- much -- --- ------- --<br>------- ---------- ------ -- ----- -- ----- -- ---- ------<br>--- ----- --- --- ------ -------- ----- --- ------ ----- --<br>----- ----- ---------- --- --- ------ ------ ---- -- ------<br>------- --- ------ ----- --- ---- ------- -- ---- --- --<br>------- ------,177578.6000000015,177576.1000000015,177105.632,177116.80000000075,177122.289,177581.574,,7,much
screen,html.Screen,2_1_1_1_8,2022-02-03T15:36:13.752Z,,,,,,,,,,,,,,,,,54,,,,,,,,,,,,,,371.2260000007518,,response,,,,100,,,,,,,Space,keypress(Space),,,,,,,,-- --- ---- --- ------ ----- ------- ---- of --- ------- --<br>------- ---------- ------ -- ----- -- ----- -- ---- ------<br>--- ----- --- --- ------ -------- ----- --- ------ ----- --<br>----- ----- ---------- --- --- ------ ------ ---- -- ------<br>------- --- ------ ----- --- ---- ------- -- ---- --- --<br>------- ------,177955.3999999985,177952.80000000075,177564.917,177578.80000000075,177581.574,177958.865,,8,of
screen,html.Screen,2_1_1_1_9,2022-02-03T15:36:14.141Z,,,,,,,,,,,,,,,,,54,,,,,,,,,,,,,,382.73500000149943,,response,,,,100,,,,,,,Space,keypress(Space),,,,,,,,-- --- ---- --- ------ ----- ------- ---- -- its ------- --<br>------- ---------- ------ -- ----- -- ----- -- ---- ------<br>--- ----- --- --- ------ -------- ----- --- ------ ----- --<br>----- ----- ---------- --- --- ------ ------ ---- -- ------<br>------- --- ------ ----- --- ---- ------- -- ---- --- --<br>------- ------,178344,178341.6000000015,177942.208,177955.69999999925,177958.865,178355.945,,9,its
screen,html.Screen,2_1_1_1_10,2022-02-03T15:36:14.912Z,,,,,,,,,,,,,,,,,54,,,,,,,,,,,,,,756.1550000014831,,response,,,,100,,,,,,,Space,keypress(Space),,,,,,,,-- --- ---- --- ------ ----- ------- ---- -- --- revenue --<br>------- ---------- ------ -- ----- -- ----- -- ---- ------<br>--- ----- --- --- ------ -------- ----- --- ------ ----- --<br>----- ----- ---------- --- --- ------ ------ ---- -- ------<br>------- --- ------ ----- --- ---- ------- -- ---- --- --<br>------- ------,179114.8999999985,179112.1000000015,178339.288,178344.19999999925,178355.945,179125.91,,10,revenue
screen,html.Screen,2_1_1_1_11,2022-02-03T15:36:15.410Z,,,,,,,,,,,,,,,,,54,,,,,,,,,,,,,,485.5899999999965,,response,,,,100,,,,,,,Space,keypress(Space),,,,,,,,-- --- ---- --- ------ ----- ------- ---- -- --- ------- by<br>------- ---------- ------ -- ----- -- ----- -- ---- ------<br>--- ----- --- --- ------ -------- ----- --- ------ ----- --<br>----- ----- ---------- --- --- ------ ------ ---- -- ------<br>------- --- ------ ----- --- ---- ------- -- ---- --- --<br>------- ------,179613.3999999985,179611.5,179109.253,179115.1000000015,179125.91,179615.959,,11,by
screen,html.Screen,2_1_1_1_12,2022-02-03T15:36:15.948Z,,,,,,,,,,,,,,,,,54,,,,,,,,,,,,,,532.2409999992524,,response,,,,100,,,,,,,Space,keypress(Space),,,,,,,,-- --- ---- --- ------ ----- ------- ---- -- --- ------- --<br>issuing ---------- ------ -- ----- -- ----- -- ---- ------<br>--- ----- --- --- ------ -------- ----- --- ------ ----- --<br>----- ----- ---------- --- --- ------ ------ ---- -- ------<br>------- --- ------ ----- --- ---- ------- -- ---- --- --<br>------- ------,180151.1000000015,180148.19999999925,179599.302,179613.6000000015,179615.959,180160.557,,12,issuing
screen,html.Screen,2_1_1_1_13,2022-02-03T15:36:16.554Z,,,,,,,,,,,,,,,,,54,,,,,,,,,,,,,,594.3429999985092,,response,,,,100,,,,,,,Space,keypress(Space),,,,,,,,-- --- ---- --- ------ ----- ------- ---- -- --- ------- --<br>------- government ------ -- ----- -- ----- -- ---- ------<br>--- ----- --- --- ------ -------- ----- --- ------ ----- --<br>----- ----- ---------- --- --- ------ ------ ---- -- ------<br>------- --- ------ ----- --- ---- ------- -- ---- --- --<br>------- ------,180757.19999999925,180754.8999999985,180143.9,180151.30000000075,180160.557,180765.513,,13,government
screen,html.Screen,2_1_1_1_14,2022-02-03T15:36:19.552Z,,,,,,,,,,,,,,,,,54,,,,,,,,,,,,,,2987.2870000007388,,response,,,,100,,,,,,,Space,keypress(Space),,,,,,,,-- --- ---- --- ------ ----- ------- ---- -- --- ------- --<br>------- ---------- bonds. -- ----- -- ----- -- ---- ------<br>--- ----- --- --- ------ -------- ----- --- ------ ----- --<br>----- ----- ---------- --- --- ------ ------ ---- -- ------<br>------- --- ------ ----- --- ---- ------- -- ---- --- --<br>------- ------,183755.1000000015,183752.80000000075,180748.856,180757.5,180765.513,183771.606,,14,bonds.
screen,html.Screen,2_1_1_1_15,2022-02-03T15:36:19.964Z,,,,,,,,,,,,,,,,,54,,,,,,,,,,,,,,389.89400000000023,,response,,,,100,,,,,,,Space,keypress(Space),,,,,,,,-- --- ---- --- ------ ----- ------- ---- -- --- ------- --<br>------- ---------- ------ In ----- -- ----- -- ---- ------<br>--- ----- --- --- ------ -------- ----- --- ------ ----- --<br>----- ----- ---------- --- --- ------ ------ ---- -- ------<br>------- --- ------ ----- --- ---- ------- -- ---- --- --<br>------- ------,184167,184161.5,183754.949,183755.3999999985,183771.606,184174.569,,15,In
screen,html.Screen,2_1_1_1_16,2022-02-03T15:36:20.983Z,,,,,,,,,,,,,,,,,54,,,,,,,,,,,,,,1009.4310000000114,,response,,,,100,,,,,,,Space,keypress(Space),,,,,,,,"-- --- ---- --- ------ ----- ------- ---- -- --- ------- --<br>------- ---------- ------ -- 1727, -- ----- -- ---- ------<br>--- ----- --- --- ------ -------- ----- --- ------ ----- --<br>----- ----- ---------- --- --- ------ ------ ---- -- ------<br>------- --- ------ ----- --- ---- ------- -- ---- --- --<br>------- ------",185186.6000000015,185184,184157.912,184167.19999999925,184174.569,185200.726,,16,"1727,"
screen,html.Screen,2_1_1_1_17,2022-02-03T15:36:21.452Z,,,,,,,,,,,,,,,,,54,,,,,,,,,,,,,,452.7740000000049,,response,,,,100,,,,,,,Space,keypress(Space),,,,,,,,-- --- ---- --- ------ ----- ------- ---- -- --- ------- --<br>------- ---------- ------ -- ----- in ----- -- ---- ------<br>--- ----- --- --- ------ -------- ----- --- ------ ----- --<br>----- ----- ---------- --- --- ------ ------ ---- -- ------<br>------- --- ------ ----- --- ---- ------- -- ---- --- --<br>------- ------,185655.1000000015,185653.5,185184.069,185186.80000000075,185200.726,185669.992,,17,in
screen,html.Screen,2_1_1_1_18,2022-02-03T15:36:21.955Z,,,,,,,,,,,,,,,,,54,,,,,,,,,,,,,,485.00800000000163,,response,,,,100,,,,,,,Space,keypress(Space),,,,,,,,-- --- ---- --- ------ ----- ------- ---- -- --- ------- --<br>------- ---------- ------ -- ----- -- order -- ---- ------<br>--- ----- --- --- ------ -------- ----- --- ------ ----- --<br>----- ----- ---------- --- --- ------ ------ ---- -- ------<br>------- --- ------ ----- --- ---- ------- -- ---- --- --<br>------- ------,186158,186155,185653.335,185655.30000000075,185669.992,186167.897,,18,order
screen,html.Screen,2_1_1_1_19,2022-02-03T15:36:22.352Z,,,,,,,,,,,,,,,,,54,,,,,,,,,,,,,,384.6030000000028,,response,,,,100,,,,,,,Space,keypress(Space),,,,,,,,-- --- ---- --- ------ ----- ------- ---- -- --- ------- --<br>------- ---------- ------ -- ----- -- ----- to ---- ------<br>--- ----- --- --- ------ -------- ----- --- ------ ----- --<br>----- ----- ---------- --- --- ------ ------ ---- -- ------<br>------- --- ------ ----- --- ---- ------- -- ---- --- --<br>------- ------,186555,186552.5,186151.24,186158.1000000015,186167.897,186558.607,,19,to
screen,html.Screen,2_1_1_1_20,2022-02-03T15:36:22.738Z,,,,,,,,,,,,,,,,,54,,,,,,,,,,,,,,380.0929999992659,,response,,,,100,,,,,,,Space,keypress(Space),,,,,,,,-- --- ---- --- ------ ----- ------- ---- -- --- ------- --<br>------- ---------- ------ -- ----- -- ----- -- save ------<br>--- ----- --- --- ------ -------- ----- --- ------ ----- --<br>----- ----- ---------- --- --- ------ ------ ---- -- ------<br>------- --- ------ ----- --- ---- ------- -- ---- --- --<br>------- ------,186941.19999999925,186938.69999999925,186541.95,186555.19999999925,186558.607,186954.256,,20,save
screen,html.Screen,2_1_1_1_21,2022-02-03T15:36:23.253Z,,,,,,,,,,,,,,,,,54,,,,,,,,,,,,,,499.443999999261,,response,,,,100,,,,,,,Space,keypress(Space),,,,,,,,"-- --- ---- --- ------ ----- ------- ---- -- --- ------- --<br>------- ---------- ------ -- ----- -- ----- -- ---- money,<br>--- ----- --- --- ------ -------- ----- --- ------ ----- --<br>----- ----- ---------- --- --- ------ ------ ---- -- ------<br>------- --- ------ ----- --- ---- ------- -- ---- --- --<br>------- ------",187456.5,187453.69999999925,186937.599,186941.30000000075,186954.256,187458.968,,21,"money,"
screen,html.Screen,2_1_1_1_22,2022-02-03T15:36:23.760Z,,,,,,,,,,,,,,,,,54,,,,,,,,,,,,,,502.23199999926146,,response,,,,100,,,,,,,Space,keypress(Space),,,,,,,,-- --- ---- --- ------ ----- ------- ---- -- --- ------- --<br>------- ---------- ------ -- ----- -- ----- -- ---- ------<br>the ----- --- --- ------ -------- ----- --- ------ ----- --<br>----- ----- ---------- --- --- ------ ------ ---- -- ------<br>------- --- ------ ----- --- ---- ------- -- ---- --- --<br>------- ------,187963.80000000075,187961.19999999925,187442.311,187456.69999999925,187458.968,187973.911,,22,the
screen,html.Screen,2_1_1_1_23,2022-02-03T15:36:24.261Z,,,,,,,,,,,,,,,,,54,,,,,,,,,,,,,,487.3890000007523,,response,,,,100,,,,,,,Space,keypress(Space),,,,,,,,-- --- ---- --- ------ ----- ------- ---- -- --- ------- --<br>------- ---------- ------ -- ----- -- ----- -- ---- ------<br>--- state --- --- ------ -------- ----- --- ------ ----- --<br>----- ----- ---------- --- --- ------ ------ ---- -- ------<br>------- --- ------ ----- --- ---- ------- -- ---- --- --<br>------- ------,188464,188461.30000000075,187957.254,187964,187973.911,188480.608,,23,state
screen,html.Screen,2_1_1_1_24,2022-02-03T15:36:24.712Z,,,,,,,,,,,,,,,,,54,,,,,,,,,,,,,,432.6920000007376,,response,,,,100,,,,,,,Space,keypress(Space),,,,,,,,-- --- ---- --- ------ ----- ------- ---- -- --- ------- --<br>------- ---------- ------ -- ----- -- ----- -- ---- ------<br>--- ----- cut --- ------ -------- ----- --- ------ ----- --<br>----- ----- ---------- --- --- ------ ------ ---- -- ------<br>------- --- ------ ----- --- ---- ------- -- ---- --- --<br>------- ------,188915,188913.30000000075,188463.951,188464.19999999925,188480.608,188929.602,,24,cut
screen,html.Screen,2_1_1_1_25,2022-02-03T15:36:25.203Z,,,,,,,,,,,,,,,,,54,,,,,,,,,,,,,,474.3979999999865,,response,,,,100,,,,,,,Space,keypress(Space),,,,,,,,-- --- ---- --- ------ ----- ------- ---- -- --- ------- --<br>------- ---------- ------ -- ----- -- ----- -- ---- ------<br>--- ----- --- the ------ -------- ----- --- ------ ----- --<br>----- ----- ---------- --- --- ------ ------ ---- -- ------<br>------- --- ------ ----- --- ---- ------- -- ---- --- --<br>------- ------,189406.1000000015,189404,188912.945,188915.19999999925,188929.602,189412.191,,25,the
screen,html.Screen,2_1_1_1_26,2022-02-03T15:36:25.742Z,,,,,,,,,,,,,,,,,54,,,,,,,,,,,,,,530.7089999985183,,response,,,,100,,,,,,,Space,keypress(Space),,,,,,,,-- --- ---- --- ------ ----- ------- ---- -- --- ------- --<br>------- ---------- ------ -- ----- -- ----- -- ---- ------<br>--- ----- --- --- bonds' -------- ----- --- ------ ----- --<br>----- ----- ---------- --- --- ------ ------ ---- -- ------<br>------- --- ------ ----- --- ---- ------- -- ---- --- --<br>------- ------,189944.8999999985,189942.8999999985,189395.534,189406.30000000075,189412.191,189956.856,,26,bonds'
screen,html.Screen,2_1_1_1_27,2022-02-03T15:36:26.409Z,,,,,,,,,,,,,,,,,54,,,,,,,,,,,,,,653.1440000000002,,response,,,,100,,,,,,,Space,keypress(Space),,,,,,,,-- --- ---- --- ------ ----- ------- ---- -- --- ------- --<br>------- ---------- ------ -- ----- -- ----- -- ---- ------<br>--- ----- --- --- ------ interest ----- --- ------ ----- --<br>----- ----- ---------- --- --- ------ ------ ---- -- ------<br>------- --- ------ ----- --- ---- ------- -- ---- --- --<br>------- ------,190612.69999999925,190610,189940.199,189945.1000000015,189956.856,190626.114,,27,interest
screen,html.Screen,2_1_1_1_28,2022-02-03T15:36:26.920Z,,,,,,,,,,,,,,,,,54,,,,,,,,,,,,,,494.18600000074366,,response,,,,100,,,,,,,Space,keypress(Space),,,,,,,,-- --- ---- --- ------ ----- ------- ---- -- --- ------- --<br>------- ---------- ------ -- ----- -- ----- -- ---- ------<br>--- ----- --- --- ------ -------- rate. --- ------ ----- --<br>----- ----- ---------- --- --- ------ ------ ---- -- ------<br>------- --- ------ ----- --- ---- ------- -- ---- --- --<br>------- ------,191123.30000000075,191120.30000000075,190609.457,190612.8999999985,190626.114,191131.874,,28,rate.
screen,html.Screen,2_1_1_1_29,2022-02-03T15:36:27.368Z,,,,,,,,,,,,,,,,,54,,,,,,,,,,,,,,437.42600000073435,,response,,,,100,,,,,,,Space,keypress(Space),,,,,,,,-- --- ---- --- ------ ----- ------- ---- -- --- ------- --<br>------- ---------- ------ -- ----- -- ----- -- ---- ------<br>--- ----- --- --- ------ -------- ----- The ------ ----- --<br>----- ----- ---------- --- --- ------ ------ ---- -- ------<br>------- --- ------ ----- --- ---- ------- -- ---- --- --<br>------- ------,191571.8999999985,191569.30000000075,191115.217,191123.6000000015,191131.874,191588.495,,29,The
screen,html.Screen,2_1_1_1_30,2022-02-03T15:36:27.904Z,,,,,,,,,,,,,,,,,54,,,,,,,,,,,,,,516.7049999992596,,response,,,,100,,,,,,,Space,keypress(Space),,,,,,,,-- --- ---- --- ------ ----- ------- ---- -- --- ------- --<br>------- ---------- ------ -- ----- -- ----- -- ---- ------<br>--- ----- --- --- ------ -------- ----- --- market ----- --<br>----- ----- ---------- --- --- ------ ------ ---- -- ------<br>------- --- ------ ----- --- ---- ------- -- ---- --- --<br>------- ------,192107.80000000075,192105.19999999925,191571.838,191572.3999999985,191588.495,192119.12,,30,market
screen,html.Screen,2_1_1_1_31,2022-02-03T15:36:28.348Z,,,,,,,,,,,,,,,,,54,,,,,,,,,,,,,,429.88000000000466,,response,,,,100,,,,,,,Space,keypress(Space),,,,,,,,-- --- ---- --- ------ ----- ------- ---- -- --- ------- --<br>------- ---------- ------ -- ----- -- ----- -- ---- ------<br>--- ----- --- --- ------ -------- ----- --- ------ value --<br>----- ----- ---------- --- --- ------ ------ ---- -- ------<br>------- --- ------ ----- --- ---- ------- -- ---- --- --<br>------- ------,192551,192549,192102.463,192108.1000000015,192119.12,192554.142,,31,value
screen,html.Screen,2_1_1_1_32,2022-02-03T15:36:28.770Z,,,,,,,,,,,,,,,,,54,,,,,,,,,,,,,,416.75799999851733,,response,,,,100,,,,,,,Space,keypress(Space),,,,,,,,-- --- ---- --- ------ ----- ------- ---- -- --- ------- --<br>------- ---------- ------ -- ----- -- ----- -- ---- ------<br>--- ----- --- --- ------ -------- ----- --- ------ ----- of<br>----- ----- ---------- --- --- ------ ------ ---- -- ------<br>------- --- ------ ----- --- ---- ------- -- ---- --- --<br>------- ------,192973.69999999925,192970.8999999985,192537.485,192551.19999999925,192554.142,192983.546,,32,of
screen,html.Screen,2_1_1_1_33,2022-02-03T15:36:29.175Z,,,,,,,,,,,,,,,,,54,,,,,,,,,,,,,,392.8539999985078,,response,,,,100,,,,,,,Space,keypress(Space),,,,,,,,-- --- ---- --- ------ ----- ------- ---- -- --- ------- --<br>------- ---------- ------ -- ----- -- ----- -- ---- ------<br>--- ----- --- --- ------ -------- ----- --- ------ ----- --<br>these ----- ---------- --- --- ------ ------ ---- -- ------<br>------- --- ------ ----- --- ---- ------- -- ---- --- --<br>------- ------,193378.3999999985,193376.3999999985,192966.889,192973.8999999985,192983.546,193389.619,,33,these
screen,html.Screen,2_1_1_1_34,2022-02-03T15:36:29.609Z,,,,,,,,,,,,,,,,,54,,,,,,,,,,,,,,420.681000000739,,response,,,,100,,,,,,,Space,keypress(Space),,,,,,,,-- --- ---- --- ------ ----- ------- ---- -- --- ------- --<br>------- ---------- ------ -- ----- -- ----- -- ---- ------<br>--- ----- --- --- ------ -------- ----- --- ------ ----- --<br>----- bonds ---------- --- --- ------ ------ ---- -- ------<br>------- --- ------ ----- --- ---- ------- -- ---- --- --<br>------- ------,193812.69999999925,193810.30000000075,193372.962,193378.69999999925,193389.619,193827.237,,34,bonds
screen,html.Screen,2_1_1_1_35,2022-02-03T15:36:30.254Z,,,,,,,,,,,,,,,,,54,,,,,,,,,,,,,,624.5630000007513,,response,,,,100,,,,,,,Space,keypress(Space),,,,,,,,"-- --- ---- --- ------ ----- ------- ---- -- --- ------- --<br>------- ---------- ------ -- ----- -- ----- -- ---- ------<br>--- ----- --- --- ------ -------- ----- --- ------ ----- --<br>----- ----- plummeted, --- --- ------ ------ ---- -- ------<br>------- --- ------ ----- --- ---- ------- -- ---- --- --<br>------- ------",194457.69999999925,194451.80000000075,193810.58,193812.8999999985,193827.237,194459.602,,35,"plummeted,"
screen,html.Screen,2_1_1_1_36,2022-02-03T15:36:30.666Z,,,,,,,,,,,,,,,,,54,,,,,,,,,,,,,,407.3979999999865,,response,,,,100,,,,,,,Space,keypress(Space),,,,,,,,-- --- ---- --- ------ ----- ------- ---- -- --- ------- --<br>------- ---------- ------ -- ----- -- ----- -- ---- ------<br>--- ----- --- --- ------ -------- ----- --- ------ ----- --<br>----- ----- ---------- and --- ------ ------ ---- -- ------<br>------- --- ------ ----- --- ---- ------- -- ---- --- --<br>------- ------,194869.1000000015,194867,194442.945,194457.8999999985,194459.602,194873.779,,36,and
screen,html.Screen,2_1_1_1_37,2022-02-03T15:36:31.068Z,,,,,,,,,,,,,,,,,54,,,,,,,,,,,,,,394.4209999992454,,response,,,,100,,,,,,,Space,keypress(Space),,,,,,,,-- --- ---- --- ------ ----- ------- ---- -- --- ------- --<br>------- ---------- ------ -- ----- -- ----- -- ---- ------<br>--- ----- --- --- ------ -------- ----- --- ------ ----- --<br>----- ----- ---------- --- the ------ ------ ---- -- ------<br>------- --- ------ ----- --- ---- ------- -- ---- --- --<br>------- ------,195271,195268.19999999925,194857.122,194869.30000000075,194873.779,195285.933,,37,the
screen,html.Screen,2_1_1_1_38,2022-02-03T15:36:31.559Z,,,,,,,,,,,,,,,,,54,,,,,,,,,,,,,,473.86700000075507,,response,,,,100,,,,,,,Space,keypress(Space),,,,,,,,-- --- ---- --- ------ ----- ------- ---- -- --- ------- --<br>------- ---------- ------ -- ----- -- ----- -- ---- ------<br>--- ----- --- --- ------ -------- ----- --- ------ ----- --<br>----- ----- ---------- --- --- market ------ ---- -- ------<br>------- --- ------ ----- --- ---- ------- -- ---- --- --<br>------- ------,195762.6000000015,195759.80000000075,195269.276,195271.30000000075,195285.933,195771.964,,38,market
screen,html.Screen,2_1_1_1_39,2022-02-03T15:36:32.031Z,,,,,,,,,,,,,,,,,54,,,,,,,,,,,,,,458.83600000073784,,response,,,,100,,,,,,,Space,keypress(Space),,,,,,,,-- --- ---- --- ------ ----- ------- ---- -- --- ------- --<br>------- ---------- ------ -- ----- -- ----- -- ---- ------<br>--- ----- --- --- ------ -------- ----- --- ------ ----- --<br>----- ----- ---------- --- --- ------ became ---- -- ------<br>------- --- ------ ----- --- ---- ------- -- ---- --- --<br>------- ------,196234,196230.80000000075,195755.307,195762.80000000075,195771.964,196241.378,,39,became
screen,html.Screen,2_1_1_1_40,2022-02-03T15:36:32.469Z,,,,,,,,,,,,,,,,,54,,,,,,,,,,,,,,427.9220000007481,,response,,,,100,,,,,,,Space,keypress(Space),,,,,,,,-- --- ---- --- ------ ----- ------- ---- -- --- ------- --<br>------- ---------- ------ -- ----- -- ----- -- ---- ------<br>--- ----- --- --- ------ -------- ----- --- ------ ----- --<br>----- ----- ---------- --- --- ------ ------ wary -- ------<br>------- --- ------ ----- --- ---- ------- -- ---- --- --<br>------- ------,196671.8999999985,196669.30000000075,196224.721,196234.19999999925,196241.378,196685.473,,40,wary
screen,html.Screen,2_1_1_1_41,2022-02-03T15:36:32.905Z,,,,,,,,,,,,,,,,,54,,,,,,,,,,,,,,420.127000001492,,response,,,,100,,,,,,,Space,keypress(Space),,,,,,,,-- --- ---- --- ------ ----- ------- ---- -- --- ------- --<br>------- ---------- ------ -- ----- -- ----- -- ---- ------<br>--- ----- --- --- ------ -------- ----- --- ------ ----- --<br>----- ----- ---------- --- --- ------ ------ ---- of ------<br>------- --- ------ ----- --- ---- ------- -- ---- --- --<br>------- ------,197108.3999999985,197105.6000000015,196668.816,196672.1000000015,196685.473,197122.082,,41,of
screen,html.Screen,2_1_1_1_42,2022-02-03T15:36:33.410Z,,,,,,,,,,,,,,,,,54,,,,,,,,,,,,,,488.9180000000051,,response,,,,100,,,,,,,Space,keypress(Space),,,,,,,,-- --- ---- --- ------ ----- ------- ---- -- --- ------- --<br>------- ---------- ------ -- ----- -- ----- -- ---- ------<br>--- ----- --- --- ------ -------- ----- --- ------ ----- --<br>----- ----- ---------- --- --- ------ ------ ---- -- French<br>------- --- ------ ----- --- ---- ------- -- ---- --- --<br>------- ------,197613,197611,197105.425,197108.6000000015,197122.082,197625.318,,42,French
screen,html.Screen,2_1_1_1_43,2022-02-03T15:36:34.120Z,,,,,,,,,,,,,,,,,54,,,,,,,,,,,,,,695.3819999992556,,response,,,,100,,,,,,,Space,keypress(Space),,,,,,,,-- --- ---- --- ------ ----- ------- ---- -- --- ------- --<br>------- ---------- ------ -- ----- -- ----- -- ---- ------<br>--- ----- --- --- ------ -------- ----- --- ------ ----- --<br>----- ----- ---------- --- --- ------ ------ ---- -- ------<br>credit. --- ------ ----- --- ---- ------- -- ---- --- --<br>------- ------,198323.69999999925,198320.69999999925,197608.661,197613.19999999925,197625.318,198325.694,,43,credit.
screen,html.Screen,2_1_1_1_44,2022-02-03T15:36:34.698Z,,,,,,,,,,,,,,,,,54,,,,,,,,,,,,,,572.5059999992664,,response,,,,100,,,,,,,Space,keypress(Space),,,,,,,,-- --- ---- --- ------ ----- ------- ---- -- --- ------- --<br>------- ---------- ------ -- ----- -- ----- -- ---- ------<br>--- ----- --- --- ------ -------- ----- --- ------ ----- --<br>----- ----- ---------- --- --- ------ ------ ---- -- ------<br>------- The ------ ----- --- ---- ------- -- ---- --- --<br>------- ------,198901.1000000015,198898.19999999925,198309.037,198323.8999999985,198325.694,198905.839,,44,The
screen,html.Screen,2_1_1_1_45,2022-02-03T15:36:35.221Z,,,,,,,,,,,,,,,,,54,,,,,,,,,,,,,,515.8609999992477,,response,,,,100,,,,,,,Space,keypress(Space),,,,,,,,-- --- ---- --- ------ ----- ------- ---- -- --- ------- --<br>------- ---------- ------ -- ----- -- ----- -- ---- ------<br>--- ----- --- --- ------ -------- ----- --- ------ ----- --<br>----- ----- ---------- --- --- ------ ------ ---- -- ------<br>------- --- French ----- --- ---- ------- -- ---- --- --<br>------- ------,199424.30000000075,199421.69999999925,198889.182,198901.30000000075,198905.839,199432.823,,45,French
screen,html.Screen,2_1_1_1_46,2022-02-03T15:36:35.705Z,,,,,,,,,,,,,,,,,54,,,,,,,,,,,,,,472.27700000148616,,response,,,,100,,,,,,,Space,keypress(Space),,,,,,,,-- --- ---- --- ------ ----- ------- ---- -- --- ------- --<br>------- ---------- ------ -- ----- -- ----- -- ---- ------<br>--- ----- --- --- ------ -------- ----- --- ------ ----- --<br>----- ----- ---------- --- --- ------ ------ ---- -- ------<br>------- --- ------ state --- ---- ------- -- ---- --- --<br>------- ------,199907.8999999985,199905.1000000015,199416.166,199424.5,199432.823,199911.388,,46,state
screen,html.Screen,2_1_1_1_47,2022-02-03T15:36:36.187Z,,,,,,,,,,,,,,,,,54,,,,,,,,,,,,,,475.9120000007388,,response,,,,100,,,,,,,Space,keypress(Space),,,,,,,,-- --- ---- --- ------ ----- ------- ---- -- --- ------- --<br>------- ---------- ------ -- ----- -- ----- -- ---- ------<br>--- ----- --- --- ------ -------- ----- --- ------ ----- --<br>----- ----- ---------- --- --- ------ ------ ---- -- ------<br>------- --- ------ ----- was ---- ------- -- ---- --- --<br>------- ------,200390.3999999985,200387.30000000075,199894.731,199908.1000000015,199911.388,200398.603,,47,was
screen,html.Screen,2_1_1_1_48,2022-02-03T15:36:36.714Z,,,,,,,,,,,,,,,,,54,,,,,,,,,,,,,,500.3969999999972,,response,,,,100,,,,,,,Space,keypress(Space),,,,,,,,-- --- ---- --- ------ ----- ------- ---- -- --- ------- --<br>------- ---------- ------ -- ----- -- ----- -- ---- ------<br>--- ----- --- --- ------ -------- ----- --- ------ ----- --<br>----- ----- ---------- --- --- ------ ------ ---- -- ------<br>------- --- ------ ----- --- left ------- -- ---- --- --<br>------- ------,200916.8999999985,200899,200381.946,200390.6000000015,200398.603,200925.197,,48,left
screen,html.Screen,2_1_1_1_49,2022-02-03T15:36:37.148Z,,,,,,,,,,,,,,,,,54,,,,,,,,,,,,,,424.40300000150455,,response,,,,100,,,,,,,Space,keypress(Space),,,,,,,,-- --- ---- --- ------ ----- ------- ---- -- --- ------- --<br>------- ---------- ------ -- ----- -- ----- -- ---- ------<br>--- ----- --- --- ------ -------- ----- --- ------ ----- --<br>----- ----- ---------- --- --- ------ ------ ---- -- ------<br>------- --- ------ ----- --- ---- without -- ---- --- --<br>------- ------,201351.80000000075,201349.6000000015,200908.54,200917.1000000015,200925.197,201363.903,,49,without
screen,html.Screen,2_1_1_1_50,2022-02-03T15:36:37.538Z,,,,,,,,,,,,,,,,,54,,,,,,,,,,,,,,374.69700000149896,,response,,,,100,,,,,,,Space,keypress(Space),,,,,,,,-- --- ---- --- ------ ----- ------- ---- -- --- ------- --<br>------- ---------- ------ -- ----- -- ----- -- ---- ------<br>--- ----- --- --- ------ -------- ----- --- ------ ----- --<br>----- ----- ---------- --- --- ------ ------ ---- -- ------<br>------- --- ------ ----- --- ---- ------- an ---- --- --<br>------- ------,201741.30000000075,201738.6000000015,201347.246,201352,201363.903,201751.548,,50,an
screen,html.Screen,2_1_1_1_51,2022-02-03T15:36:38.097Z,,,,,,,,,,,,,,,,,54,,,,,,,,,,,,,,547.9519999999902,,response,,,,100,,,,,,,Space,keypress(Space),,,,,,,,-- --- ---- --- ------ ----- ------- ---- -- --- ------- --<br>------- ---------- ------ -- ----- -- ----- -- ---- ------<br>--- ----- --- --- ------ -------- ----- --- ------ ----- --<br>----- ----- ---------- --- --- ------ ------ ---- -- ------<br>------- --- ------ ----- --- ---- ------- -- easy --- --<br>------- ------,202300.80000000075,202299.5,201734.891,201741.6000000015,201751.548,202307.789,,51,easy
screen,html.Screen,2_1_1_1_52,2022-02-03T15:36:38.453Z,,,,,,,,,,,,,,,,,54,,,,,,,,,,,,,,346.4109999992652,,response,,,,100,,,,,,,Space,keypress(Space),,,,,,,,-- --- ---- --- ------ ----- ------- ---- -- --- ------- --<br>------- ---------- ------ -- ----- -- ----- -- ---- ------<br>--- ----- --- --- ------ -------- ----- --- ------ ----- --<br>----- ----- ---------- --- --- ------ ------ ---- -- ------<br>------- --- ------ ----- --- ---- ------- -- ---- way --<br>------- ------,202656.19999999925,202654.19999999925,202291.132,202300.8999999985,202307.789,202663.433,,52,way
screen,html.Screen,2_1_1_1_53,2022-02-03T15:36:38.820Z,,,,,,,,,,,,,,,,,54,,,,,,,,,,,,,,355.9669999985199,,response,,,,100,,,,,,,Space,keypress(Space),,,,,,,,-- --- ---- --- ------ ----- ------- ---- -- --- ------- --<br>------- ---------- ------ -- ----- -- ----- -- ---- ------<br>--- ----- --- --- ------ -------- ----- --- ------ ----- --<br>----- ----- ---------- --- --- ------ ------ ---- -- ------<br>------- --- ------ ----- --- ---- ------- -- ---- --- of<br>------- ------,203023.19999999925,203019.3999999985,202646.776,202656.3999999985,202663.433,203039.865,,53,of
screen,html.Screen,2_1_1_1_54,2022-02-03T15:36:39.301Z,,,,,,,,,,,,,,,,,54,,,,,,,,,,,,,,461.0349999985192,,response,,,,100,,,,,,,Space,keypress(Space),,,,,,,,-- --- ---- --- ------ ----- ------- ---- -- --- ------- --<br>------- ---------- ------ -- ----- -- ----- -- ---- ------<br>--- ----- --- --- ------ -------- ----- --- ------ ----- --<br>----- ----- ---------- --- --- ------ ------ ---- -- ------<br>------- --- ------ ----- --- ---- ------- -- ---- --- --<br>raising ------,203504.3999999985,203500.8999999985,203023.208,203025.69999999925,203039.865,203505.696,,54,raising
screen,html.Screen,2_1_1_1_55,2022-02-03T15:36:39.781Z,,,,,,,,,,,,,,,,,54,,,,,,,,,,,,,,476.2039999985136,,response,,,,100,,,,,,,Space,keypress(Space),,,,,,,,-- --- ---- --- ------ ----- ------- ---- -- --- ------- --<br>------- ---------- ------ -- ----- -- ----- -- ---- ------<br>--- ----- --- --- ------ -------- ----- --- ------ ----- --<br>----- ----- ---------- --- --- ------ ------ ---- -- ------<br>------- --- ------ ----- --- ---- ------- -- ---- --- --<br>------- money.,203984,203981.8999999985,203489.039,203504.6000000015,203505.696,203991.129,,55,money.
Item 100,flow.Loop,2_1_1_1,2022-02-03T15:36:39.781Z,,,,,,,,,,,,,,,,,,,,,,,,,,,,,,,30913.267999998498,,completion,,,,,B,,,,,,,,,,,silence,,,,,203984.3999999985,203981.8999999985,173051.975,173053.30000000075,173068.632,203991.129,,,
Question 1,html.Screen,2_1_1_2,2022-02-03T15:36:42.983Z,,,,,,,,,,,,,,,,,,,,,,,,,,,,true,TRUE,,3193.2709999985236,,response,,,,100,B,,,,,,TRUE,click #choice-1,,,,silence,,,,,207186.30000000075,207184.3999999985,203974.472,203984.5,203991.129,207211.664,,,
Question 2,html.Screen,2_1_1_3,2022-02-03T15:36:45.698Z,,,,,,,,,,,,,,,,,,,,,,,,,,,,true,FALSE,,2687.535999999265,,response,,,,100,B,,,,,,FALSE,click #choice-2,,,,silence,,,,,209901.30000000075,209899.19999999925,207195.007,207186.5,207211.664,209907.257,,,
Item 100,flow.Sequence,2_1_1,2022-02-03T15:36:45.698Z,,,,,,,,,,,,,,,,,,,,,,,,,,,,,,,46828.467999999266,,completion,,,,,,,,,,,,,,,,,,,,,209901.69999999925,209899.19999999925,163054.075,163051,163070.732,209907.257,,,
End of Practice,html.Page,2_1_2,2022-02-03T15:36:49.547Z,,,,,,,,,,,,,,,,,,,,,,,,,,,,,,,3842.4429999992426,,form submission,,,,,,,,,,,,,,,,,,,,,213750.19999999925,213749.69999999925,209890.6,209901.80000000075,209907.257,213775.574,,,
Practice,flow.Sequence,2_1,2022-02-03T15:36:49.549Z,,,,,,,,,,,,,,,,,,,,,,,,,,,,,,,96388.28799999926,,completion,,,,,,,,,,,,,,,,,,,,,213752.3999999985,213749.69999999925,117344.755,117347.80000000075,117361.412,213775.574,,,
Trap_instruction,html.Page,2_2_0,2022-02-03T15:36:52.957Z,,,,,,,,,,,,,,,,,,,,,,,,,,,,,,,3384.3259999985166,,form submission,,,,,,,,,,,,,,,,,,,,,217160.3999999985,217159.8999999985,213758.917,213752.69999999925,213775.574,217200.475,,,
trap_trial,html.Screen,2_2_1,2022-02-03T15:36:57.220Z,,,,,,,,,,,,,,,,,,,,,,,,,,,,true,1,,4220.424999998504,,response,,,,,,,,,,,1,click #choice-1,,,,,,,,,221423.1000000015,221420.8999999985,217167.161,217160.80000000075,217200.475,221443.616,,,
end of trap trial,html.Page,2_2_2,2022-02-03T15:36:59.019Z,,,,,,,,,,,,,,,,,,,,,,,,,,,,,,,1778.484000001481,,form submission,,,,,,,,,,,,,,,,,,,,,223222.6000000015,223222.1000000015,221426.959,221423.19999999925,221443.616,223229.476,,,
Trap 1,flow.Sequence,2_2,2022-02-03T15:36:59.020Z,,,,,,,,,,,,,,,,,,,,,,,,,,,,,,,9446.526000001497,,completion,,,,,,,,,,,,,,,,,,,,,223223,223222.1000000015,213758.917,213752.6000000015,213775.574,223229.476,,,
Standby,html.Page,2_3_0,2022-02-03T15:37:07.003Z,,,,,,,,,,,,,,,,,,,,,,,,,,,,,,,7992.257000000012,,timeout,,,,,,,,,,,,,,,,,,,,,231206.3999999985,231205.076,223212.819,223223.19999999925,223229.476,231221.733,,,
Holding screen,html.Screen,2_3_1_0_0,2022-02-03T15:37:14.008Z,,,,,,,,,,,,,,,,,,,,,,,,,,,,,,,7005.154999999999,,timeout,,,,,,,,,,,,,,,,,,,,,238211.6000000015,238210.231,231205.076,231206.80000000075,231221.733,238226.888,,,
screen,html.Screen,2_3_1_0_1_0,2022-02-03T15:37:14.881Z,,,,,,,,,,,,,,,,,15,,,,,,,,,,,,,,850.7120000014838,,response,,,,7,B,,,,,,Space,keypress(Space),,,,lyrical,,,,Greg --------- ---------- - --- ------- -- --- ------------<br>----- -- -------- ------- ---- ------ - -------- ---- -----<br>--- ------- ---- -- --- -------- --- - ----- ------ ---- --<br>-------- --- -------- -------- --- -------- ---- -- ----- -<br>-------- ---- --- ---------- --------- -- ------- ------ -<br>--------- ----- -----,239084.8999999985,239077.6000000015,238210.231,238211.8999999985,238226.888,239089.652,,0,Greg
screen,html.Screen,2_3_1_0_1_1,2022-02-03T15:37:15.499Z,,,,,,,,,,,,,,,,,15,,,,,,,,,,,,,,609.9480000014883,,response,,,,7,B,,,,,,Space,keypress(Space),,,,lyrical,,,,"---- Anderson, ---------- - --- ------- -- --- ------------<br>----- -- -------- ------- ---- ------ - -------- ---- -----<br>--- ------- ---- -- --- -------- --- - ----- ------ ---- --<br>-------- --- -------- -------- --- -------- ---- -- ----- -<br>-------- ---- --- ---------- --------- -- ------- ------ -<br>--------- ----- -----",239702.80000000075,239699.6000000015,239072.995,239085.1000000015,239089.652,239718.028,,1,"Anderson,"
screen,html.Screen,2_3_1_0_1_2,2022-02-03T15:37:16.147Z,,,,,,,,,,,,,,,,,15,,,,,,,,,,,,,,629.7720000007539,,response,,,,7,B,,,,,,Space,keypress(Space),,,,lyrical,,,,---- --------- considered - --- ------- -- --- ------------<br>----- -- -------- ------- ---- ------ - -------- ---- -----<br>--- ------- ---- -- --- -------- --- - ----- ------ ---- --<br>-------- --- -------- -------- --- -------- ---- -- ----- -<br>-------- ---- --- ---------- --------- -- ------- ------ -<br>--------- ----- -----,240350.1000000015,240347.80000000075,239701.371,239703,239718.028,240367.05,,2,considered
screen,html.Screen,2_3_1_0_1_3,2022-02-03T15:37:16.605Z,,,,,,,,,,,,,,,,,15,,,,,,,,,,,,,,438.95000000001164,,response,,,,7,B,,,,,,Space,keypress(Space),,,,lyrical,,,,---- --------- ---------- a --- ------- -- --- ------------<br>----- -- -------- ------- ---- ------ - -------- ---- -----<br>--- ------- ---- -- --- -------- --- - ----- ------ ---- --<br>-------- --- -------- -------- --- -------- ---- -- ----- -<br>-------- ---- --- ---------- --------- -- ------- ------ -<br>--------- ----- -----,240808.30000000075,240806,240350.393,240350.3999999985,240367.05,240817.648,,3,a
screen,html.Screen,2_3_1_0_1_4,2022-02-03T15:37:16.998Z,,,,,,,,,,,,,,,,,15,,,,,,,,,,,,,,380.65200000075856,,response,,,,7,B,,,,,,Space,keypress(Space),,,,lyrical,,,,---- --------- ---------- - key ------- -- --- ------------<br>----- -- -------- ------- ---- ------ - -------- ---- -----<br>--- ------- ---- -- --- -------- --- - ----- ------ ---- --<br>-------- --- -------- -------- --- -------- ---- -- ----- -<br>-------- ---- --- ---------- --------- -- ------- ------ -<br>--------- ----- -----,241201.5,241198.30000000075,240800.991,240808.5,240817.648,241210.027,,4,key
screen,html.Screen,2_3_1_0_1_5,2022-02-03T15:37:17.558Z,,,,,,,,,,,,,,,,,15,,,,,,,,,,,,,,548.7730000007432,,response,,,,7,B,,,,,,Space,keypress(Space),,,,lyrical,,,,---- --------- ---------- - --- witness -- --- ------------<br>----- -- -------- ------- ---- ------ - -------- ---- -----<br>--- ------- ---- -- --- -------- --- - ----- ------ ---- --<br>-------- --- -------- -------- --- -------- ---- -- ----- -<br>-------- ---- --- ---------- --------- -- ------- ------ -<br>--------- ----- -----,241761,241758.80000000075,241193.37,241201.69999999925,241210.027,241769.441,,5,witness
screen,html.Screen,2_3_1_0_1_6,2022-02-03T15:37:18.276Z,,,,,,,,,,,,,,,,,15,,,,,,,,,,,,,,707.2589999992633,,response,,,,7,B,,,,,,Space,keypress(Space),,,,lyrical,,,,---- --------- ---------- - --- ------- by --- ------------<br>----- -- -------- ------- ---- ------ - -------- ---- -----<br>--- ------- ---- -- --- -------- --- - ----- ------ ---- --<br>-------- --- -------- -------- --- -------- ---- -- ----- -<br>-------- ---- --- ---------- --------- -- ------- ------ -<br>--------- ----- -----,242479.6000000015,242476.69999999925,241752.784,241761.30000000075,241769.441,242490.422,,6,by
screen,html.Screen,2_3_1_0_1_7,2022-02-03T15:37:18.710Z,,,,,,,,,,,,,,,,,15,,,,,,,,,,,,,,419.4779999985185,,response,,,,7,B,,,,,,Space,keypress(Space),,,,lyrical,,,,---- --------- ---------- - --- ------- -- the ------------<br>----- -- -------- ------- ---- ------ - -------- ---- -----<br>--- ------- ---- -- --- -------- --- - ----- ------ ---- --<br>-------- --- -------- -------- --- -------- ---- -- ----- -<br>-------- ---- --- ---------- --------- -- ------- ------ -<br>--------- ----- -----,242913.5,242909.8999999985,242473.765,242479.8999999985,242490.422,242928.411,,7,the
screen,html.Screen,2_3_1_0_1_8,2022-02-03T15:37:19.659Z,,,,,,,,,,,,,,,,,15,,,,,,,,,,,,,,930.7889999992622,,response,,,,7,B,,,,,,Space,keypress(Space),,,,lyrical,,,,"---- --------- ---------- - --- ------- -- --- prosecution,<br>----- -- -------- ------- ---- ------ - -------- ---- -----<br>--- ------- ---- -- --- -------- --- - ----- ------ ---- --<br>-------- --- -------- -------- --- -------- ---- -- ----- -<br>-------- ---- --- ---------- --------- -- ------- ------ -<br>--------- ----- -----",243862.30000000075,243859.19999999925,242911.754,242913.80000000075,242928.411,243880.409,,8,"prosecution,"
screen,html.Screen,2_3_1_0_1_9,2022-02-03T15:37:20.130Z,,,,,,,,,,,,,,,,,15,,,,,,,,,,,,,,448.39100000073086,,response,,,,7,B,,,,,,Space,keypress(Space),,,,lyrical,,,,---- --------- ---------- - --- ------- -- --- ------------<br>vowed -- -------- ------- ---- ------ - -------- ---- -----<br>--- ------- ---- -- --- -------- --- - ----- ------ ---- --<br>-------- --- -------- -------- --- -------- ---- -- ----- -<br>-------- ---- --- ---------- --------- -- ------- ------ -<br>--------- ----- -----,244333.69999999925,244328.80000000075,243863.752,243862.5,243880.409,244343.661,,9,vowed
screen,html.Screen,2_3_1_0_1_10,2022-02-03T15:37:20.468Z,,,,,,,,,,,,,,,,,15,,,,,,,,,,,,,,325.1390000007523,,response,,,,7,B,,,,,,Space,keypress(Space),,,,lyrical,,,,---- --------- ---------- - --- ------- -- --- ------------<br>----- he -------- ------- ---- ------ - -------- ---- -----<br>--- ------- ---- -- --- -------- --- - ----- ------ ---- --<br>-------- --- -------- -------- --- -------- ---- -- ----- -<br>-------- ---- --- ---------- --------- -- ------- ------ -<br>--------- ----- -----,244671.1000000015,244668.80000000075,244327.004,244334,244343.661,244684.6,,10,he
screen,html.Screen,2_3_1_0_1_11,2022-02-03T15:37:20.886Z,,,,,,,,,,,,,,,,,15,,,,,,,,,,,,,,400.79999999850406,,response,,,,7,B,,,,,,Space,keypress(Space),,,,lyrical,,,,---- --------- ---------- - --- ------- -- --- ------------<br>----- -- wouldn't ------- ---- ------ - -------- ---- -----<br>--- ------- ---- -- --- -------- --- - ----- ------ ---- --<br>-------- --- -------- -------- --- -------- ---- -- ----- -<br>-------- ---- --- ---------- --------- -- ------- ------ -<br>--------- ----- -----,245089.19999999925,245085.3999999985,244667.943,244671.3999999985,244684.6,245106.68,,11,wouldn't
screen,html.Screen,2_3_1_0_1_12,2022-02-03T15:37:21.350Z,,,,,,,,,,,,,,,,,15,,,,,,,,,,,,,,444.820000000007,,response,,,,7,B,,,,,,Space,keypress(Space),,,,lyrical,,,,---- --------- ---------- - --- ------- -- --- ------------<br>----- -- -------- testify ---- ------ - -------- ---- -----<br>--- ------- ---- -- --- -------- --- - ----- ------ ---- --<br>-------- --- -------- -------- --- -------- ---- -- ----- -<br>-------- ---- --- ---------- --------- -- ------- ------ -<br>--------- ----- -----,245553.6000000015,245551.5,245090.023,245089.3999999985,245106.68,245557.549,,12,testify
screen,html.Screen,2_3_1_0_1_13,2022-02-03T15:37:21.795Z,,,,,,,,,,,,,,,,,15,,,,,,,,,,,,,,438.05100000149105,,response,,,,7,B,,,,,,Space,keypress(Space),,,,lyrical,,,,---- --------- ---------- - --- ------- -- --- ------------<br>----- -- -------- ------- when ------ - -------- ---- -----<br>--- ------- ---- -- --- -------- --- - ----- ------ ---- --<br>-------- --- -------- -------- --- -------- ---- -- ----- -<br>-------- ---- --- ---------- --------- -- ------- ------ -<br>--------- ----- -----,245998,245995.6000000015,245540.892,245553.80000000075,245557.549,246002.137,,13,when
screen,html.Screen,2_3_1_0_1_14,2022-02-03T15:37:22.903Z,,,,,,,,,,,,,,,,,15,,,,,,,,,,,,,,1101.562999999267,,response,,,,7,B,,,,,,Space,keypress(Space),,,,lyrical,,,,---- --------- ---------- - --- ------- -- --- ------------<br>----- -- -------- ------- ---- served - -------- ---- -----<br>--- ------- ---- -- --- -------- --- - ----- ------ ---- --<br>-------- --- -------- -------- --- -------- ---- -- ----- -<br>-------- ---- --- ---------- --------- -- ------- ------ -<br>--------- ----- -----,247106.5,247103.69999999925,245985.48,245998.19999999925,246002.137,247120.609,,14,served
screen,html.Screen,2_3_1_0_1_15,2022-02-03T15:37:23.215Z,,,,,,,,,,,,,,,,,15,,,,,,,,,,,,,,294.9910000014934,,response,,,,7,B,,,,,,Space,keypress(Space),,,,lyrical,,,,---- --------- ---------- - --- ------- -- --- ------------<br>----- -- -------- ------- ---- ------ a -------- ---- -----<br>--- ------- ---- -- --- -------- --- - ----- ------ ---- --<br>-------- --- -------- -------- --- -------- ---- -- ----- -<br>-------- ---- --- ---------- --------- -- ------- ------ -<br>--------- ----- -----,247418.30000000075,247415.6000000015,247103.952,247106.69999999925,247120.609,247425.503,,15,a
screen,html.Screen,2_3_1_0_1_16,2022-02-03T15:37:23.743Z,,,,,,,,,,,,,,,,,15,,,,,,,,,,,,,,517.997000000003,,response,,,,7,B,,,,,,Space,keypress(Space),,,,lyrical,,,,---- --------- ---------- - --- ------- -- --- ------------<br>----- -- -------- ------- ---- ------ - subpoena ---- -----<br>--- ------- ---- -- --- -------- --- - ----- ------ ---- --<br>-------- --- -------- -------- --- -------- ---- -- ----- -<br>-------- ---- --- ---------- --------- -- ------- ------ -<br>--------- ----- -----,247946.19999999925,247943.5,247408.846,247418.6000000015,247425.503,247961.233,,16,subpoena
screen,html.Screen,2_3_1_0_1_17,2022-02-03T15:37:24.115Z,,,,,,,,,,,,,,,,,15,,,,,,,,,,,,,,354.4669999992475,,response,,,,7,B,,,,,,Space,keypress(Space),,,,lyrical,,,,---- --------- ---------- - --- ------- -- --- ------------<br>----- -- -------- ------- ---- ------ - -------- last -----<br>--- ------- ---- -- --- -------- --- - ----- ------ ---- --<br>-------- --- -------- -------- --- -------- ---- -- ----- -<br>-------- ---- --- ---------- --------- -- ------- ------ -<br>--------- ----- -----,248318,248315.69999999925,247944.576,247946.3999999985,247961.233,248334.708,,17,last
screen,html.Screen,2_3_1_0_1_18,2022-02-03T15:37:24.524Z,,,,,,,,,,,,,,,,,15,,,,,,,,,,,,,,389.49199999924167,,response,,,,7,B,,,,,,Space,keypress(Space),,,,lyrical,,,,---- --------- ---------- - --- ------- -- --- ------------<br>----- -- -------- ------- ---- ------ - -------- ---- week.<br>--- ------- ---- -- --- -------- --- - ----- ------ ---- --<br>-------- --- -------- -------- --- -------- ---- -- ----- -<br>-------- ---- --- ---------- --------- -- ------- ------ -<br>--------- ----- -----,248727,248724.19999999925,248318.051,248318.19999999925,248334.708,248737.524,,18,week.
screen,html.Screen,2_3_1_0_1_19,2022-02-03T15:37:24.938Z,,,,,,,,,,,,,,,,,15,,,,,,,,,,,,,,397.17599999925005,,response,,,,7,B,,,,,,Space,keypress(Space),,,,lyrical,,,,---- --------- ---------- - --- ------- -- --- ------------<br>----- -- -------- ------- ---- ------ - -------- ---- -----<br>His ------- ---- -- --- -------- --- - ----- ------ ---- --<br>-------- --- -------- -------- --- -------- ---- -- ----- -<br>-------- ---- --- ---------- --------- -- ------- ------ -<br>--------- ----- -----,249141.8999999985,249134.69999999925,248720.867,248727.19999999925,248737.524,249150.693,,19,His
screen,html.Screen,2_3_1_0_1_20,2022-02-03T15:37:25.432Z,,,,,,,,,,,,,,,,,15,,,,,,,,,,,,,,480.8070000000007,,response,,,,7,B,,,,,,Space,keypress(Space),,,,lyrical,,,,---- --------- ---------- - --- ------- -- --- ------------<br>----- -- -------- ------- ---- ------ - -------- ---- -----<br>--- lawyers ---- -- --- -------- --- - ----- ------ ---- --<br>-------- --- -------- -------- --- -------- ---- -- ----- -<br>-------- ---- --- ---------- --------- -- ------- ------ -<br>--------- ----- -----,249635.19999999925,249631.5,249134.036,249142.1000000015,249150.693,249643.029,,20,lawyers
screen,html.Screen,2_3_1_0_1_21,2022-02-03T15:37:25.827Z,,,,,,,,,,,,,,,,,15,,,,,,,,,,,,,,385.37099999850034,,response,,,,7,B,,,,,,Space,keypress(Space),,,,lyrical,,,,---- --------- ---------- - --- ------- -- --- ------------<br>----- -- -------- ------- ---- ------ - -------- ---- -----<br>--- ------- said -- --- -------- --- - ----- ------ ---- --<br>-------- --- -------- -------- --- -------- ---- -- ----- -<br>-------- ---- --- ---------- --------- -- ------- ------ -<br>--------- ----- -----,250030.80000000075,250028.3999999985,249626.372,249635.30000000075,249643.029,250033.339,,21,said
screen,html.Screen,2_3_1_0_1_22,2022-02-03T15:37:26.246Z,,,,,,,,,,,,,,,,,15,,,,,,,,,,,,,,413.3609999992477,,response,,,,7,B,,,,,,Space,keypress(Space),,,,lyrical,,,,---- --------- ---------- - --- ------- -- --- ------------<br>----- -- -------- ------- ---- ------ - -------- ---- -----<br>--- ------- ---- he --- -------- --- - ----- ------ ---- --<br>-------- --- -------- -------- --- -------- ---- -- ----- -<br>-------- ---- --- ---------- --------- -- ------- ------ -<br>--------- ----- -----,250449.19999999925,250446.69999999925,250016.682,250031.1000000015,250033.339,250465.184,,22,he
screen,html.Screen,2_3_1_0_1_23,2022-02-03T15:37:26.614Z,,,,,,,,,,,,,,,,,15,,,,,,,,,,,,,,349.7159999985015,,response,,,,7,B,,,,,,Space,keypress(Space),,,,lyrical,,,,---- --------- ---------- - --- ------- -- --- ------------<br>----- -- -------- ------- ---- ------ - -------- ---- -----<br>--- ------- ---- -- was -------- --- - ----- ------ ---- --<br>-------- --- -------- -------- --- -------- ---- -- ----- -<br>-------- ---- --- ---------- --------- -- ------- ------ -<br>--------- ----- -----,250817.6000000015,250814.8999999985,250448.527,250449.3999999985,250465.184,250834.244,,23,was
screen,html.Screen,2_3_1_0_1_24,2022-02-03T15:37:27.236Z,,,,,,,,,,,,,,,,,15,,,,,,,,,,,,,,602.9559999992489,,response,,,,7,B,,,,,,Space,keypress(Space),,,,lyrical,,,,---- --------- ---------- - --- ------- -- --- ------------<br>----- -- -------- ------- ---- ------ - -------- ---- -----<br>--- ------- ---- -- --- prepared --- - ----- ------ ---- --<br>-------- --- -------- -------- --- -------- ---- -- ----- -<br>-------- ---- --- ---------- --------- -- ------- ------ -<br>--------- ----- -----,251439.3999999985,251437.19999999925,250817.587,250817.8999999985,250834.244,251451.287,,24,prepared
screen,html.Screen,2_3_1_0_1_25,2022-02-03T15:37:27.601Z,,,,,,,,,,,,,,,,,15,,,,,,,,,,,,,,350.41299999924377,,response,,,,7,B,,,,,,Space,keypress(Space),,,,lyrical,,,,---- --------- ---------- - --- ------- -- --- ------------<br>----- -- -------- ------- ---- ------ - -------- ---- -----<br>--- ------- ---- -- --- -------- for - ----- ------ ---- --<br>-------- --- -------- -------- --- -------- ---- -- ----- -<br>-------- ---- --- ---------- --------- -- ------- ------ -<br>--------- ----- -----,251804.30000000075,251801.69999999925,251434.63,251439.69999999925,251451.287,251807.445,,25,for
screen,html.Screen,2_3_1_0_1_26,2022-02-03T15:37:27.935Z,,,,,,,,,,,,,,,,,15,,,,,,,,,,,,,,328.25499999924796,,response,,,,7,B,,,,,,Space,keypress(Space),,,,lyrical,,,,---- --------- ---------- - --- ------- -- --- ------------<br>----- -- -------- ------- ---- ------ - -------- ---- -----<br>--- ------- ---- -- --- -------- --- a ----- ------ ---- --<br>-------- --- -------- -------- --- -------- ---- -- ----- -<br>-------- ---- --- ---------- --------- -- ------- ------ -<br>--------- ----- -----,252138.80000000075,252135.69999999925,251790.788,251804.5,251807.445,252156.08,,26,a
screen,html.Screen,2_3_1_0_1_27,2022-02-03T15:37:28.588Z,,,,,,,,,,,,,,,,,15,,,,,,,,,,,,,,631.6199999992677,,response,,,,7,B,,,,,,Space,keypress(Space),,,,lyrical,,,,---- --------- ---------- - --- ------- -- --- ------------<br>----- -- -------- ------- ---- ------ - -------- ---- -----<br>--- ------- ---- -- --- -------- --- - third ------ ---- --<br>-------- --- -------- -------- --- -------- ---- -- ----- -<br>-------- ---- --- ---------- --------- -- ------- ------ -<br>--------- ----- -----,252790.8999999985,252787.69999999925,252139.423,252139.19999999925,252156.08,252807.405,,27,third
screen,html.Screen,2_3_1_0_1_28,2022-02-03T15:37:29.025Z,,,,,,,,,,,,,,,,,15,,,,,,,,,,,,,,418.09500000000116,,response,,,,7,B,,,,,,Space,keypress(Space),,,,lyrical,,,,---- --------- ---------- - --- ------- -- --- ------------<br>----- -- -------- ------- ---- ------ - -------- ---- -----<br>--- ------- ---- -- --- -------- --- - ----- prison ---- --<br>-------- --- -------- -------- --- -------- ---- -- ----- -<br>-------- ---- --- ---------- --------- -- ------- ------ -<br>--------- ----- -----,253228.6000000015,253225.5,252790.748,252791.19999999925,252807.405,253241.935,,28,prison
screen,html.Screen,2_3_1_0_1_29,2022-02-03T15:37:29.507Z,,,,,,,,,,,,,,,,,15,,,,,,,,,,,,,,466.5650000000023,,response,,,,7,B,,,,,,Space,keypress(Space),,,,lyrical,,,,---- --------- ---------- - --- ------- -- --- ------------<br>----- -- -------- ------- ---- ------ - -------- ---- -----<br>--- ------- ---- -- --- -------- --- - ----- ------ stay --<br>-------- --- -------- -------- --- -------- ---- -- ----- -<br>-------- ---- --- ---------- --------- -- ------- ------ -<br>--------- ----- -----,253710.69999999925,253708.5,253225.278,253229,253241.935,253727.53,,29,stay
screen,html.Screen,2_3_1_0_1_30,2022-02-03T15:37:29.901Z,,,,,,,,,,,,,,,,,15,,,,,,,,,,,,,,372.7700000007462,,response,,,,7,B,,,,,,Space,keypress(Space),,,,lyrical,,,,---- --------- ---------- - --- ------- -- --- ------------<br>----- -- -------- ------- ---- ------ - -------- ---- -----<br>--- ------- ---- -- --- -------- --- - ----- ------ ---- to<br>-------- --- -------- -------- --- -------- ---- -- ----- -<br>-------- ---- --- ---------- --------- -- ------- ------ -<br>--------- ----- -----,254104.80000000075,254100.30000000075,253710.873,253710.8999999985,253727.53,254107.783,,30,to
screen,html.Screen,2_3_1_0_1_31,2022-02-03T15:37:30.348Z,,,,,,,,,,,,,,,,,15,,,,,,,,,,,,,,440.8170000014943,,response,,,,7,B,,,,,,Space,keypress(Space),,,,lyrical,,,,---- --------- ---------- - --- ------- -- --- ------------<br>----- -- -------- ------- ---- ------ - -------- ---- -----<br>--- ------- ---- -- --- -------- --- - ----- ------ ---- --<br>maintain --- -------- -------- --- -------- ---- -- ----- -<br>-------- ---- --- ---------- --------- -- ------- ------ -<br>--------- ----- -----,254551.1000000015,254548.6000000015,254091.126,254105,254107.783,254552.924,,31,maintain
screen,html.Screen,2_3_1_0_1_32,2022-02-03T15:37:30.700Z,,,,,,,,,,,,,,,,,15,,,,,,,,,,,,,,345.876000000746,,response,,,,7,B,,,,,,Space,keypress(Space),,,,lyrical,,,,---- --------- ---------- - --- ------- -- --- ------------<br>----- -- -------- ------- ---- ------ - -------- ---- -----<br>--- ------- ---- -- --- -------- --- - ----- ------ ---- --<br>-------- his -------- -------- --- -------- ---- -- ----- -<br>-------- ---- --- ---------- --------- -- ------- ------ -<br>--------- ----- -----,254903.19999999925,254898.80000000075,254536.267,254551.3999999985,254552.924,254919.779,,32,his
screen,html.Screen,2_3_1_0_1_33,2022-02-03T15:37:31.225Z,,,,,,,,,,,,,,,,,15,,,,,,,,,,,,,,506.62099999850034,,response,,,,7,B,,,,,,Space,keypress(Space),,,,lyrical,,,,---- --------- ---------- - --- ------- -- --- ------------<br>----- -- -------- ------- ---- ------ - -------- ---- -----<br>--- ------- ---- -- --- -------- --- - ----- ------ ---- --<br>-------- --- silence. -------- --- -------- ---- -- ----- -<br>-------- ---- --- ---------- --------- -- ------- ------ -<br>--------- ----- -----,255428.6000000015,255426.3999999985,254903.122,254903.5,254919.779,255437.583,,33,silence.
screen,html.Screen,2_3_1_0_1_34,2022-02-03T15:37:31.863Z,,,,,,,,,,,,,,,,,15,,,,,,,,,,,,,,625.8169999984966,,response,,,,7,B,,,,,,Space,keypress(Space),,,,lyrical,,,,---- --------- ---------- - --- ------- -- --- ------------<br>----- -- -------- ------- ---- ------ - -------- ---- -----<br>--- ------- ---- -- --- -------- --- - ----- ------ ---- --<br>-------- --- -------- Anderson --- -------- ---- -- ----- -<br>-------- ---- --- ---------- --------- -- ------- ------ -<br>--------- ----- -----,256065.8999999985,256063.3999999985,255420.926,255428.80000000075,255437.583,256077.888,,34,Anderson
screen,html.Screen,2_3_1_0_1_35,2022-02-03T15:37:32.268Z,,,,,,,,,,,,,,,,,15,,,,,,,,,,,,,,391.21200000148383,,response,,,,7,B,,,,,,Space,keypress(Space),,,,lyrical,,,,---- --------- ---------- - --- ------- -- --- ------------<br>----- -- -------- ------- ---- ------ - -------- ---- -----<br>--- ------- ---- -- --- -------- --- - ----- ------ ---- --<br>-------- --- -------- -------- was -------- ---- -- ----- -<br>-------- ---- --- ---------- --------- -- ------- ------ -<br>--------- ----- -----,256471.69999999925,256469.1000000015,256061.231,256066.1000000015,256077.888,256484.721,,35,was
screen,html.Screen,2_3_1_0_1_36,2022-02-03T15:37:32.782Z,,,,,,,,,,,,,,,,,15,,,,,,,,,,,,,,498.77900000000955,,response,,,,7,B,,,,,,Space,keypress(Space),,,,lyrical,,,,---- --------- ---------- - --- ------- -- --- ------------<br>----- -- -------- ------- ---- ------ - -------- ---- -----<br>--- ------- ---- -- --- -------- --- - ----- ------ ---- --<br>-------- --- -------- -------- --- released ---- -- ----- -<br>-------- ---- --- ---------- --------- -- ------- ------ -<br>--------- ----- -----,256985.6000000015,256983.5,256468.064,256472,256484.721,256987.034,,36,released
screen,html.Screen,2_3_1_0_1_37,2022-02-03T15:37:33.411Z,,,,,,,,,,,,,,,,,15,,,,,,,,,,,,,,624.5660000014759,,response,,,,7,B,,,,,,Space,keypress(Space),,,,lyrical,,,,---- --------- ---------- - --- ------- -- --- ------------<br>----- -- -------- ------- ---- ------ - -------- ---- -----<br>--- ------- ---- -- --- -------- --- - ----- ------ ---- --<br>-------- --- -------- -------- --- -------- July -- ----- -<br>-------- ---- --- ---------- --------- -- ------- ------ -<br>--------- ----- -----,257614.19999999925,257611.6000000015,256970.377,256985.80000000075,256987.034,257619.559,,37,July
screen,html.Screen,2_3_1_0_1_38,2022-02-03T15:37:34.021Z,,,,,,,,,,,,,,,,,15,,,,,,,,,,,,,,602.3409999985015,,response,,,,7,B,,,,,,Space,keypress(Space),,,,lyrical,,,,---- --------- ---------- - --- ------- -- --- ------------<br>----- -- -------- ------- ---- ------ - -------- ---- -----<br>--- ------- ---- -- --- -------- --- - ----- ------ ---- --<br>-------- --- -------- -------- --- -------- ---- 20 ----- -<br>-------- ---- --- ---------- --------- -- ------- ------ -<br>--------- ----- -----,258224.3999999985,258221.8999999985,257602.902,257614.5,257619.559,258228.687,,38,20
screen,html.Screen,2_3_1_0_1_39,2022-02-03T15:37:34.829Z,,,,,,,,,,,,,,,,,15,,,,,,,,,,,,,,801.7129999985045,,response,,,,7,B,,,,,,Space,keypress(Space),,,,lyrical,,,,---- --------- ---------- - --- ------- -- --- ------------<br>----- -- -------- ------- ---- ------ - -------- ---- -----<br>--- ------- ---- -- --- -------- --- - ----- ------ ---- --<br>-------- --- -------- -------- --- -------- ---- -- after -<br>-------- ---- --- ---------- --------- -- ------- ------ -<br>--------- ----- -----,259032.80000000075,259030.3999999985,258212.03,258224.6000000015,258228.687,259040.12,,39,after
screen,html.Screen,2_3_1_0_1_40,2022-02-03T15:37:35.248Z,,,,,,,,,,,,,,,,,15,,,,,,,,,,,,,,404.77999999851454,,response,,,,7,B,,,,,,Space,keypress(Space),,,,lyrical,,,,---- --------- ---------- - --- ------- -- --- ------------<br>----- -- -------- ------- ---- ------ - -------- ---- -----<br>--- ------- ---- -- --- -------- --- - ----- ------ ---- --<br>-------- --- -------- -------- --- -------- ---- -- ----- a<br>-------- ---- --- ---------- --------- -- ------- ------ -<br>--------- ----- -----,259451.5,259444.8999999985,259023.463,259033,259040.12,259466.068,,40,a
screen,html.Screen,2_3_1_0_1_41,2022-02-03T15:37:36.666Z,,,,,,,,,,,,,,,,,15,,,,,,,,,,,,,,1399.5320000014908,,response,,,,7,B,,,,,,Space,keypress(Space),,,,lyrical,,,,---- --------- ---------- - --- ------- -- --- ------------<br>----- -- -------- ------- ---- ------ - -------- ---- -----<br>--- ------- ---- -- --- -------- --- - ----- ------ ---- --<br>-------- --- -------- -------- --- -------- ---- -- ----- -<br>two-week ---- --- ---------- --------- -- ------- ------ -<br>--------- ----- -----,260869.19999999925,260865.6000000015,259449.411,259451.69999999925,259466.068,260877.489,,41,two-week
