sender,sender_type,sender_id,timestamp,meta,,Blues,Classical,Country,Dance,Electronic,Folk,Gospel,Hip-Hop,Jazz,Latin,Musical/Film,New-age,Pop,Prolific_id,Provo_ID,R&B,Rap,Reggae,Religious,Rock,Soul,Swing,Traditional,age,artist_name,correct,correctResponse,distraction,duration,education,ended_on,familiarity,gender,headphone_check_performance,item,list,music_frequency,offensiveness,pleasantness,position_correct,preference,response,response_action,snippet_file,song_name,song_rating,sound,stimulus_1,stimulus_2,stimulus_3,text,time_commit,time_end,time_render,time_run,time_show,time_switch,url,word,word_ID
Prolific ID,html.Form,0,2022-02-03T13:06:27.927Z,"{""labjs_version"":""20.2.2"",""labjs_build"":{""flavor"":""production"",""commit"":""a25486e0c714a0ae2ce03ff94b7bb6896854dcfa""},""location"":""https://run.pavlovia.org/mvasilev/prolific2_music_f/"",""userAgent"":""Mozilla/5.0 (Windows NT 10.0; Win64; x64) AppleWebKit/537.36 (KHTML, like Gecko) Chrome/97.0.4692.99 Safari/537.36"",""platform"":""Win32"",""language"":""en-GB"",""locale"":""en-GB"",""timeZone"":""Europe/London"",""timezoneOffset"":0,""screen_width"":1536,""screen_height"":864,""scroll_width"":1536,""scroll_height"":674,""window_innerWidth"":1536,""window_innerHeight"":722,""devicePixelRatio"":1.25}",,,,,,,,,,,,,,,614b44f281d2a39162884843,,,,,,,,,,,,,,,5057.437,,form submission,,,,,,,,,,,,,,,,,,,,,14886.800000071526,14886.5,9812.318,9817.200000047684,9829.063,14891.301,{},,
Introduction,html.Screen,1_0,2022-02-03T13:06:31.247Z,,,,,,,,,,,,,,,,,,,,,,,,,,,,,,,3314.6990000000005,,response,,,,,,,,,,,continue,click button,,,,,,,,,18206.800000071526,18206,14807.974,14887,14891.301,18221.797,,,
Volume calibration,html.Screen,1_1,2022-02-03T13:06:49.609Z,,,,,,,,,,,,,,,,,,,,,,,,,,,,,,,18344.003000071527,,response,,,,,,,,,,,continue,click button,,,,,,,,,36568,36565.800000071526,18205.154,18206.900000095367,18221.797,36572.365,,,
Task instructions,html.Screen,1_2,2022-02-03T13:07:02.447Z,,,,,,,,,,,,,,,,,,,,,,,,,,,,,,,12833.235000023844,,response,,,,,,,,,,,continue,click button,,,,,,,,,49406.300000071526,49405.60000002384,36555.789,36568,36572.365,49411.147,,,
Sounds,html.Screen,1_3_0_0,2022-02-03T13:07:06.683Z,,,,,,,,,,,,,,,,,,,,,,,,,,,,,,,4246.278000000006,,timeout,,,,,,,,,2,,,,,,,,O,S,I,,53642.5,53640.877,49394.592,49406.300000071526,49411.147,53657.425,,,
Judgement,html.Screen,1_3_0_1,2022-02-03T13:07:07.776Z,,,,,,,,,,,,,,,,,,,,,,,,,,,,true,2,,1076.8750000715227,,response,,,,,,,,,2,,2,click #choice-2,,,,,O,S,I,,54735,54734.300000071526,53640.877,53642.5,53657.425,54739.901,,,
Trial,flow.Sequence,1_3_0,2022-02-03T13:07:07.776Z,,,,,,,,,,,,,,,,,,,,,,,,,,,,,,,5323.153000071528,,completion,,,,,,,,,2,,,,,,,,O,S,I,,54735.200000047684,54734.300000071526,49394.592,49406.300000071526,49411.147,54739.901,,,
Sounds,html.Screen,1_3_1_0,2022-02-03T13:07:12.011Z,,,,,,,,,,,,,,,,,,,,,,,,,,,,,,,4246.230000000003,,timeout,,,,,,,,,1,,,,,,,,S,I,O,,58970.10000002384,58969.555,54723.143,54735.300000071526,54739.901,58986.131,,,
Judgement,html.Screen,1_3_1_1,2022-02-03T13:07:12.759Z,,,,,,,,,,,,,,,,,,,,,,,,,,,,true,1,,731.5690000476825,,response,,,,,,,,,1,,1,click #choice-1,,,,,S,I,O,,59718.5,59717.700000047684,58969.555,58970.10000002384,58986.131,59718.799,,,
Trial,flow.Sequence,1_3_1,2022-02-03T13:07:12.759Z,,,,,,,,,,,,,,,,,,,,,,,,,,,,,,,4977.799000047686,,completion,,,,,,,,,1,,,,,,,,S,I,O,,59718.700000047684,59717.700000047684,54723.143,54735.300000071526,54739.901,59718.799,,,
Sounds,html.Screen,1_3_2_0,2022-02-03T13:07:16.990Z,,,,,,,,,,,,,,,,,,,,,,,,,,,,,,,4246.4130000000005,,timeout,,,,,,,,,1,,,,,,,,S,O,I,,63949.200000047684,63948.545,59702.264,59718.800000071526,59718.799,63965.212,,,
Judgement,html.Screen,1_3_2_1,2022-02-03T13:07:17.600Z,,,,,,,,,,,,,,,,,,,,,,,,,,,,true,1,,593.3880000238423,,response,,,,,,,,,1,,1,click #choice-1,,,,,S,O,I,,64559.300000071526,64558.60000002384,63948.545,63949.300000071526,63965.212,64564.675,,,
Trial,flow.Sequence,1_3_2,2022-02-03T13:07:17.600Z,,,,,,,,,,,,,,,,,,,,,,,,,,,,,,,4839.801000023843,,completion,,,,,,,,,1,,,,,,,,S,O,I,,64559.40000009537,64558.60000002384,59702.264,59718.800000071526,59718.799,64564.675,,,
Sounds,html.Screen,1_3_3_0,2022-02-03T13:07:21.836Z,,,,,,,,,,,,,,,,,,,,,,,,,,,,,,,4246.258999999991,,timeout,,,,,,,,,3,,,,,,,,I,O,S,,68794.90000009537,68794.184,64548.015,64559.40000009537,64564.675,68810.934,,,
Judgement,html.Screen,1_3_3_1,2022-02-03T13:07:22.615Z,,,,,,,,,,,,,,,,,,,,,,,,,,,,true,3,,762.666000023848,,response,,,,,,,,,3,,3,click #choice-3,,,,,I,O,S,,69574.20000004768,69573.60000002384,68794.184,68794.90000009537,68810.934,69576.841,,,
Trial,flow.Sequence,1_3_3,2022-02-03T13:07:22.615Z,,,,,,,,,,,,,,,,,,,,,,,,,,,,,,,5008.925000023839,,completion,,,,,,,,,3,,,,,,,,I,O,S,,69574.40000009537,69573.60000002384,64548.015,64559.40000009537,64564.675,69576.841,,,
Sounds,html.Screen,1_3_4_0,2022-02-03T13:07:26.848Z,,,,,,,,,,,,,,,,,,,,,,,,,,,,,,,4246.3169999999955,,timeout,,,,,,,,,3,,,,,,,,O,I,S,,73807.10000002384,73806.496,69560.321,69574.40000009537,69576.841,73823.158,,,
Judgement,html.Screen,1_3_4_1,2022-02-03T13:07:27.303Z,,,,,,,,,,,,,,,,,,,,,,,,,,,,true,3,,438.94200002384605,,response,,,,,,,,,3,,3,click #choice-3,,,,,O,I,S,,74262.70000004768,74262.10000002384,73806.496,73807.20000004768,73823.158,74272.801,,,
Trial,flow.Sequence,1_3_4,2022-02-03T13:07:27.304Z,,,,,,,,,,,,,,,,,,,,,,,,,,,,,,,4685.2590000238415,,completion,,,,,,,,,3,,,,,,,,O,I,S,,74262.90000009537,74262.10000002384,69560.321,69574.40000009537,69576.841,74272.801,,,
Sounds,html.Screen,1_3_5_0,2022-02-03T13:07:31.544Z,,,,,,,,,,,,,,,,,,,,,,,,,,,,,,,4246.223999999987,,timeout,,,,,,,,,2,,,,,,,,I,S,O,,78503,78502.552,74256.21,74263,74272.801,78519.025,,,
Judgement,html.Screen,1_3_5_1,2022-02-03T13:07:31.991Z,,,,,,,,,,,,,,,,,,,,,,,,,,,,true,2,,430.7750000715314,,response,,,,,,,,,2,,2,click #choice-2,,,,,I,S,O,,78950.5,78949.80000007153,78502.552,78503,78519.025,78951.994,,,
Trial,flow.Sequence,1_3_5,2022-02-03T13:07:31.991Z,,,,,,,,,,,,,,,,,,,,,,,,,,,,,,,4676.999000071519,,completion,,,,,,,,,2,,,,,,,,I,S,O,,78950.60000002384,78949.80000007153,74256.21,74263,74272.801,78951.994,,,
Task,flow.Loop,1_3,2022-02-03T13:07:31.994Z,,,,,,,,,,,,,,,,,,,,,,,,,,,,,,,29538.65300007153,,completion,,,1,,,,,,,,,,,,,,,,,,78953.40000009537,78949.80000007153,49394.592,49406.300000071526,49411.147,78951.994,,,
Trap,html.Screen,1_4,2022-02-03T13:07:31.995Z,,,,,,,,,,,,,,,,,,,,,,,,,,,,,,,NaN,,skipped,,,,,,,,,,,,,,,,,,,,,78954,78949.80000007153,,78954,,78951.994,,,
Thanks,html.Screen,1_5,2022-02-03T13:07:34.808Z,,,,,,,,,,,,,,,,,,,,,,,,,,,,,,,2814.4060000953614,,response,,,,,,,,,,,continue,click button,,,,,,,,,81767.10000002384,81766.40000009537,78935.352,78954.10000002384,78951.994,85479.597,,,
Headphone screening,flow.Sequence,1,2022-02-03T13:07:34.808Z,,,,,,,,,,,,,,,,,,,,,,,,,,,,,,,66875.09900009536,,completion,,,,,,,,,,,,,,,,,,,,,81767.30000007153,81766.40000009537,14807.974,14887,14891.301,85479.597,,,
Instructions,html.Page,2_0,2022-02-03T13:08:07.224Z,,,,,,,,,,,,,,,,,,,,,,,,,,,,,,,28703.10300004769,,form submission,,,,,,,,,,,,,,,,,,,,,114182.90000009537,114182.70000004768,85462.91,85477,85479.597,114187.873,,,
Holding screen,html.Screen,2_1_0_0,2022-02-03T13:08:17.220Z,,,,,,,,,,,,,,,,,,,,,,,,,,,,,,,10007.950999999986,,timeout,,,,,,,,,,,,,,,,,,,,,124179.70000004768,124179.295,114171.362,114183,114187.873,124195.824,,,
screen,html.Screen,2_1_0_1_0,2022-02-03T13:08:18.993Z,,,,,,,,,,,,,,,,,53,,,,,,,,,,,,,,1755.1760000000068,,response,,,,99,,,,,,,Space,keypress(Space),,,,,,,,When -- ----- -- ------ - ------- --- ----------<br>------------- ------ ------ ---- ---- ------- ----- -- ----<br>-------- ------- -- ---------- --- - --- ----- ----- ----<br>---- --- --- ----- --- ---- ---- ------- ----- ---- -------<br>--- --- -- ----- -- --- ---- -- --- ---- -- ------ ------<br>--- ----- -- ----,125952.5,125951,124179.295,124179.80000007153,124195.824,125961.094,,0,When
screen,html.Screen,2_1_0_1_1,2022-02-03T13:08:19.368Z,,,,,,,,,,,,,,,,,53,,,,,,,,,,,,,,366.20600007152825,,response,,,,99,,,,,,,Space,keypress(Space),,,,,,,,---- it ----- -- ------ - ------- --- ----------<br>------------- ------ ------ ---- ---- ------- ----- -- ----<br>-------- ------- -- ---------- --- - --- ----- ----- ----<br>---- --- --- ----- --- ---- ---- ------- ----- ---- -------<br>--- --- -- ----- -- --- ---- -- --- ---- -- ------ ------<br>--- ----- -- ----,126327.70000004768,126327.30000007153,125944.416,125952.60000002384,125961.094,126344.095,,1,it
screen,html.Screen,2_1_0_1_2,2022-02-03T13:08:19.808Z,,,,,,,,,,,,,,,,,53,,,,,,,,,,,,,,422.30500009536627,,response,,,,99,,,,,,,Space,keypress(Space),,,,,,,,---- -- comes -- ------ - ------- --- ----------<br>------------- ------ ------ ---- ---- ------- ----- -- ----<br>-------- ------- -- ---------- --- - --- ----- ----- ----<br>---- --- --- ----- --- ---- ---- ------- ----- ---- -------<br>--- --- -- ----- -- --- ---- -- --- ---- -- ------ ------<br>--- ----- -- ----,126766.90000009537,126766.40000009537,126327.292,126327.80000007153,126344.095,126777.041,,2,comes
screen,html.Screen,2_1_0_1_3,2022-02-03T13:08:20.191Z,,,,,,,,,,,,,,,,,53,,,,,,,,,,,,,,373.1590000476863,,response,,,,99,,,,,,,Space,keypress(Space),,,,,,,,---- -- ----- to ------ - ------- --- ----------<br>------------- ------ ------ ---- ---- ------- ----- -- ----<br>-------- ------- -- ---------- --- - --- ----- ----- ----<br>---- --- --- ----- --- ---- ---- ------- ----- ---- -------<br>--- --- -- ----- -- --- ---- -- --- ---- -- ------ ------<br>--- ----- -- ----,127150.70000004768,127150.20000004768,126760.375,126766.90000009537,126777.041,127160.035,,3,to
screen,html.Screen,2_1_0_1_4,2022-02-03T13:08:20.648Z,,,,,,,,,,,,,,,,,53,,,,,,,,,,,,,,446.2650000715221,,response,,,,99,,,,,,,Space,keypress(Space),,,,,,,,---- -- ----- -- having - ------- --- ----------<br>------------- ------ ------ ---- ---- ------- ----- -- ----<br>-------- ------- -- ---------- --- - --- ----- ----- ----<br>---- --- --- ----- --- ---- ---- ------- ----- ---- -------<br>--- --- -- ----- -- --- ---- -- --- ---- -- ------ ------<br>--- ----- -- ----,127606.80000007153,127606.30000007153,127143.362,127150.70000004768,127160.035,127609.568,,4,having
screen,html.Screen,2_1_0_1_5,2022-02-03T13:08:21.048Z,,,,,,,,,,,,,,,,,53,,,,,,,,,,,,,,397.33200009536813,,response,,,,99,,,,,,,Space,keypress(Space),,,,,,,,---- -- ----- -- ------ a ------- --- ----------<br>------------- ------ ------ ---- ---- ------- ----- -- ----<br>-------- ------- -- ---------- --- - --- ----- ----- ----<br>---- --- --- ----- --- ---- ---- ------- ----- ---- -------<br>--- --- -- ----- -- --- ---- -- --- ---- -- ------ ------<br>--- ----- -- ----,128007.30000007153,128006.90000009537,127592.979,127606.90000009537,127609.568,128009.156,,5,a
screen,html.Screen,2_1_0_1_6,2022-02-03T13:08:21.472Z,,,,,,,,,,,,,,,,,53,,,,,,,,,,,,,,421.74400009536475,,response,,,,99,,,,,,,Space,keypress(Space),,,,,,,,---- -- ----- -- ------ - lasting --- ----------<br>------------- ------ ------ ---- ---- ------- ----- -- ----<br>-------- ------- -- ---------- --- - --- ----- ----- ----<br>---- --- --- ----- --- ---- ---- ------- ----- ---- -------<br>--- --- -- ----- -- --- ---- -- --- ---- -- ------ ------<br>--- ----- -- ----,128431.30000007153,128430.90000009537,127992.627,128007.40000009537,128009.156,128442.149,,6,lasting
screen,html.Screen,2_1_0_1_7,2022-02-03T13:08:21.911Z,,,,,,,,,,,,,,,,,53,,,,,,,,,,,,,,428.0510000476788,,response,,,,99,,,,,,,Space,keypress(Space),,,,,,,,---- -- ----- -- ------ - ------- and ----------<br>------------- ------ ------ ---- ---- ------- ----- -- ----<br>-------- ------- -- ---------- --- - --- ----- ----- ----<br>---- --- --- ----- --- ---- ---- ------- ----- ---- -------<br>--- --- -- ----- -- --- ---- -- --- ---- -- ------ ------<br>--- ----- -- ----,128870.70000004768,128870.20000004768,128425.589,128431.40000009537,128442.149,128875.028,,7,and
screen,html.Screen,2_1_0_1_8,2022-02-03T13:08:22.511Z,,,,,,,,,,,,,,,,,53,,,,,,,,,,,,,,595.172000047678,,response,,,,99,,,,,,,Space,keypress(Space),,,,,,,,---- -- ----- -- ------ - ------- --- fulfilling<br>------------- ------ ------ ---- ---- ------- ----- -- ----<br>-------- ------- -- ---------- --- - --- ----- ----- ----<br>---- --- --- ----- --- ---- ---- ------- ----- ---- -------<br>--- --- -- ----- -- --- ---- -- --- ---- -- ------ ------<br>--- ----- -- ----,129470.70000004768,129470.20000004768,128858.544,128870.80000007153,128875.028,129474.633,,8,fulfilling
screen,html.Screen,2_1_0_1_9,2022-02-03T13:08:23.975Z,,,,,,,,,,,,,,,,,53,,,,,,,,,,,,,,1459.3669999999984,,response,,,,99,,,,,,,Space,keypress(Space),,,,,,,,"---- -- ----- -- ------ - ------- --- ----------<br>relationship, ------ ------ ---- ---- ------- ----- -- ----<br>-------- ------- -- ---------- --- - --- ----- ----- ----<br>---- --- --- ----- --- ---- ---- ------- ----- ---- -------<br>--- --- -- ----- -- --- ---- -- --- ---- -- ------ ------<br>--- ----- -- ----",130934.5,130934,129457.896,129470.70000004768,129474.633,130939.94,,9,"relationship,"
screen,html.Screen,2_1_0_1_10,2022-02-03T13:08:24.576Z,,,,,,,,,,,,,,,,,53,,,,,,,,,,,,,,594.8600000715232,,response,,,,99,,,,,,,Space,keypress(Space),,,,,,,,---- -- ----- -- ------ - ------- --- ----------<br>------------- common ------ ---- ---- ------- ----- -- ----<br>-------- ------- -- ---------- --- - --- ----- ----- ----<br>---- --- --- ----- --- ---- ---- ------- ----- ---- -------<br>--- --- -- ----- -- --- ---- -- --- ---- -- ------ ------<br>--- ----- -- ----,131535.30000007153,131534.80000007153,130923.413,130934.5,130939.94,131539.489,,10,common
screen,html.Screen,2_1_0_1_11,2022-02-03T13:08:24.976Z,,,,,,,,,,,,,,,,,53,,,,,,,,,,,,,,395.41100009536603,,response,,,,99,,,,,,,Space,keypress(Space),,,,,,,,---- -- ----- -- ------ - ------- --- ----------<br>------------- ------ wisdom ---- ---- ------- ----- -- ----<br>-------- ------- -- ---------- --- - --- ----- ----- ----<br>---- --- --- ----- --- ---- ---- ------- ----- ---- -------<br>--- --- -- ----- -- --- ---- -- --- ---- -- ------ ------<br>--- ----- -- ----,131935.40000009537,131934.90000009537,131522.714,131535.40000009537,131539.489,131939.061,,11,wisdom
screen,html.Screen,2_1_0_1_12,2022-02-03T13:08:25.344Z,,,,,,,,,,,,,,,,,53,,,,,,,,,,,,,,363.83900009538047,,response,,,,99,,,,,,,Space,keypress(Space),,,,,,,,---- -- ----- -- ------ - ------- --- ----------<br>------------- ------ ------ says ---- ------- ----- -- ----<br>-------- ------- -- ---------- --- - --- ----- ----- ----<br>---- --- --- ----- --- ---- ---- ------- ----- ---- -------<br>--- --- -- ----- -- --- ---- -- --- ---- -- ------ ------<br>--- ----- -- ----,132303.5,132302.90000009537,131922.583,131935.5,131939.061,132305.404,,12,says
screen,html.Screen,2_1_0_1_13,2022-02-03T13:08:25.720Z,,,,,,,,,,,,,,,,,53,,,,,,,,,,,,,,373.09599999999045,,response,,,,99,,,,,,,Space,keypress(Space),,,,,,,,---- -- ----- -- ------ - ------- --- ----------<br>------------- ------ ------ ---- that ------- ----- -- ----<br>-------- ------- -- ---------- --- - --- ----- ----- ----<br>---- --- --- ----- --- ---- ---- ------- ----- ---- -------<br>--- --- -- ----- -- --- ---- -- --- ---- -- ------ ------<br>--- ----- -- ----,132679,132678.5,132288.881,132303.60000002384,132305.404,132688.537,,13,that
screen,html.Screen,2_1_0_1_14,2022-02-03T13:08:26.047Z,,,,,,,,,,,,,,,,,53,,,,,,,,,,,,,,317.5630000238307,,response,,,,99,,,,,,,Space,keypress(Space),,,,,,,,---- -- ----- -- ------ - ------- --- ----------<br>------------- ------ ------ ---- ---- feeling ----- -- ----<br>-------- ------- -- ---------- --- - --- ----- ----- ----<br>---- --- --- ----- --- ---- ---- ------- ----- ---- -------<br>--- --- -- ----- -- --- ---- -- --- ---- -- ------ ------<br>--- ----- -- ----,133006.5,133006.10000002384,132671.876,132679.10000002384,132688.537,133021.589,,14,feeling
screen,html.Screen,2_1_0_1_15,2022-02-03T13:08:26.536Z,,,,,,,,,,,,,,,,,53,,,,,,,,,,,,,,473.3110000953602,,response,,,,99,,,,,,,Space,keypress(Space),,,,,,,,---- -- ----- -- ------ - ------- --- ----------<br>------------- ------ ------ ---- ---- ------- close -- ----<br>-------- ------- -- ---------- --- - --- ----- ----- ----<br>---- --- --- ----- --- ---- ---- ------- ----- ---- -------<br>--- --- -- ----- -- --- ---- -- --- ---- -- ------ ------<br>--- ----- -- ----,133495.30000007153,133494.90000009537,133004.794,133006.5,133021.589,133504.377,,15,close
screen,html.Screen,2_1_0_1_16,2022-02-03T13:08:26.984Z,,,,,,,,,,,,,,,,,53,,,,,,,,,,,,,,438.4230000715179,,response,,,,99,,,,,,,Space,keypress(Space),,,,,,,,---- -- ----- -- ------ - ------- --- ----------<br>------------- ------ ------ ---- ---- ------- ----- to ----<br>-------- ------- -- ---------- --- - --- ----- ----- ----<br>---- --- --- ----- --- ---- ---- ------- ----- ---- -------<br>--- --- -- ----- -- --- ---- -- --- ---- -- ------ ------<br>--- ----- -- ----,133943.20000004768,133942.80000007153,133487.828,133495.40000009537,133504.377,133954.115,,16,to
screen,html.Screen,2_1_0_1_17,2022-02-03T13:08:27.624Z,,,,,,,,,,,,,,,,,53,,,,,,,,,,,,,,628.7850000953767,,response,,,,99,,,,,,,Space,keypress(Space),,,,,,,,---- -- ----- -- ------ - ------- --- ----------<br>------------- ------ ------ ---- ---- ------- ----- -- your<br>-------- ------- -- ---------- --- - --- ----- ----- ----<br>---- --- --- ----- --- ---- ---- ------- ----- ---- -------<br>--- --- -- ----- -- --- ---- -- --- ---- -- ------ ------<br>--- ----- -- ----,134583.40000009537,134582.90000009537,133937.351,133943.30000007153,133954.115,134586.748,,17,your
screen,html.Screen,2_1_0_1_18,2022-02-03T13:08:28.111Z,,,,,,,,,,,,,,,,,53,,,,,,,,,,,,,,483.55200007153326,,response,,,,99,,,,,,,Space,keypress(Space),,,,,,,,---- -- ----- -- ------ - ------- --- ----------<br>------------- ------ ------ ---- ---- ------- ----- -- ----<br>romantic ------- -- ---------- --- - --- ----- ----- ----<br>---- --- --- ----- --- ---- ---- ------- ----- ---- -------<br>--- --- -- ----- -- --- ---- -- --- ---- -- ------ ------<br>--- ----- -- ----,135070.70000004768,135070.30000007153,134570.093,134583.40000009537,134586.748,135086.452,,18,romantic
screen,html.Screen,2_1_0_1_19,2022-02-03T13:08:28.536Z,,,,,,,,,,,,,,,,,53,,,,,,,,,,,,,,408.4480000953772,,response,,,,99,,,,,,,Space,keypress(Space),,,,,,,,---- -- ----- -- ------ - ------- --- ----------<br>------------- ------ ------ ---- ---- ------- ----- -- ----<br>-------- partner -- ---------- --- - --- ----- ----- ----<br>---- --- --- ----- --- ---- ---- ------- ----- ---- -------<br>--- --- -- ----- -- --- ---- -- --- ---- -- ------ ------<br>--- ----- -- ----,135495.30000007153,135494.90000009537,135069.686,135070.70000004768,135086.452,135502.747,,19,partner
screen,html.Screen,2_1_0_1_20,2022-02-03T13:08:29.145Z,,,,,,,,,,,,,,,,,53,,,,,,,,,,,,,,600.6530000953644,,response,,,,99,,,,,,,Space,keypress(Space),,,,,,,,---- -- ----- -- ------ - ------- --- ----------<br>------------- ------ ------ ---- ---- ------- ----- -- ----<br>-------- ------- is ---------- --- - --- ----- ----- ----<br>---- --- --- ----- --- ---- ---- ------- ----- ---- -------<br>--- --- -- ----- -- --- ---- -- --- ---- -- ------ ------<br>--- ----- -- ----,136103.90000009537,136103.40000009537,135486.04,135495.30000007153,135502.747,136118.896,,20,is
screen,html.Screen,2_1_0_1_21,2022-02-03T13:08:30.335Z,,,,,,,,,,,,,,,,,53,,,,,,,,,,,,,,1175.3040000476758,,response,,,,99,,,,,,,Space,keypress(Space),,,,,,,,---- -- ----- -- ------ - ------- --- ----------<br>------------- ------ ------ ---- ---- ------- ----- -- ----<br>-------- ------- -- paramount. --- - --- ----- ----- ----<br>---- --- --- ----- --- ---- ---- ------- ----- ---- -------<br>--- --- -- ----- -- --- ---- -- --- ---- -- ------ ------<br>--- ----- -- ----,137294.70000004768,137294.20000004768,136102.079,136104.10000002384,136118.896,137301.049,,21,paramount.
screen,html.Screen,2_1_0_1_22,2022-02-03T13:08:30.831Z,,,,,,,,,,,,,,,,,53,,,,,,,,,,,,,,489.2510000715265,,response,,,,99,,,,,,,Space,keypress(Space),,,,,,,,---- -- ----- -- ------ - ------- --- ----------<br>------------- ------ ------ ---- ---- ------- ----- -- ----<br>-------- ------- -- ---------- But - --- ----- ----- ----<br>---- --- --- ----- --- ---- ---- ------- ----- ---- -------<br>--- --- -- ----- -- --- ---- -- --- ---- -- ------ ------<br>--- ----- -- ----,137790.70000004768,137790.30000007153,137284.517,137294.70000004768,137301.049,137800.731,,22,But
screen,html.Screen,2_1_0_1_23,2022-02-03T13:08:31.209Z,,,,,,,,,,,,,,,,,53,,,,,,,,,,,,,,366.46900004768395,,response,,,,99,,,,,,,Space,keypress(Space),,,,,,,,---- -- ----- -- ------ - ------- --- ----------<br>------------- ------ ------ ---- ---- ------- ----- -- ----<br>-------- ------- -- ---------- --- a --- ----- ----- ----<br>---- --- --- ----- --- ---- ---- ------- ----- ---- -------<br>--- --- -- ----- -- --- ---- -- --- ---- -- ------ ------<br>--- ----- -- ----,138167.90000009537,138167.20000004768,137784.082,137790.70000004768,137800.731,138183.689,,23,a
screen,html.Screen,2_1_0_1_24,2022-02-03T13:08:31.591Z,,,,,,,,,,,,,,,,,53,,,,,,,,,,,,,,366.2110000953544,,response,,,,99,,,,,,,Space,keypress(Space),,,,,,,,---- -- ----- -- ------ - ------- --- ----------<br>------------- ------ ------ ---- ---- ------- ----- -- ----<br>-------- ------- -- ---------- --- - new ----- ----- ----<br>---- --- --- ----- --- ---- ---- ------- ----- ---- -------<br>--- --- -- ----- -- --- ---- -- --- ---- -- ------ ------<br>--- ----- -- ----,138550.30000007153,138549.90000009537,138166.96,138168,138183.689,138566.759,,24,new
screen,html.Screen,2_1_0_1_25,2022-02-03T13:08:31.975Z,,,,,,,,,,,,,,,,,53,,,,,,,,,,,,,,367.2410000000091,,response,,,,99,,,,,,,Space,keypress(Space),,,,,,,,---- -- ----- -- ------ - ------- --- ----------<br>------------- ------ ------ ---- ---- ------- ----- -- ----<br>-------- ------- -- ---------- --- - --- study ----- ----<br>---- --- --- ----- --- ---- ---- ------- ----- ---- -------<br>--- --- -- ----- -- --- ---- -- --- ---- -- ------ ------<br>--- ----- -- ----,138934.5,138934,138549.951,138550.40000009537,138566.759,138949.748,,25,study
screen,html.Screen,2_1_0_1_26,2022-02-03T13:08:32.336Z,,,,,,,,,,,,,,,,,53,,,,,,,,,,,,,,344.6520000953751,,response,,,,99,,,,,,,Space,keypress(Space),,,,,,,,---- -- ----- -- ------ - ------- --- ----------<br>------------- ------ ------ ---- ---- ------- ----- -- ----<br>-------- ------- -- ---------- --- - --- ----- finds ----<br>---- --- --- ----- --- ---- ---- ------- ----- ---- -------<br>--- --- -- ----- -- --- ---- -- --- ---- -- ------ ------<br>--- ----- -- ----,139294.90000009537,139294.40000009537,138933.076,138934.5,138949.748,139299.275,,26,finds
screen,html.Screen,2_1_0_1_27,2022-02-03T13:08:32.751Z,,,,,,,,,,,,,,,,,53,,,,,,,,,,,,,,410.62500009537325,,response,,,,99,,,,,,,Space,keypress(Space),,,,,,,,---- -- ----- -- ------ - ------- --- ----------<br>------------- ------ ------ ---- ---- ------- ----- -- ----<br>-------- ------- -- ---------- --- - --- ----- ----- that<br>---- --- --- ----- --- ---- ---- ------- ----- ---- -------<br>--- --- -- ----- -- --- ---- -- --- ---- -- ------ ------<br>--- ----- -- ----,139710.30000007153,139709.90000009537,139282.728,139295,139299.275,139715.601,,27,that
screen,html.Screen,2_1_0_1_28,2022-02-03T13:08:33.232Z,,,,,,,,,,,,,,,,,53,,,,,,,,,,,,,,475.69900007153046,,response,,,,99,,,,,,,Space,keypress(Space),,,,,,,,---- -- ----- -- ------ - ------- --- ----------<br>------------- ------ ------ ---- ---- ------- ----- -- ----<br>-------- ------- -- ---------- --- - --- ----- ----- ----<br>it's --- --- ----- --- ---- ---- ------- ----- ---- -------<br>--- --- -- ----- -- --- ---- -- --- ---- -- ------ ------<br>--- ----- -- ----,140191.70000004768,140191.30000007153,139698.93,139710.30000007153,139715.601,140198.639,,28,it's
screen,html.Screen,2_1_0_1_29,2022-02-03T13:08:33.640Z,,,,,,,,,,,,,,,,,53,,,,,,,,,,,,,,399.76100009537186,,response,,,,99,,,,,,,Space,keypress(Space),,,,,,,,---- -- ----- -- ------ - ------- --- ----------<br>------------- ------ ------ ---- ---- ------- ----- -- ----<br>-------- ------- -- ---------- --- - --- ----- ----- ----<br>---- not --- ----- --- ---- ---- ------- ----- ---- -------<br>--- --- -- ----- -- --- ---- -- --- ---- -- ------ ------<br>--- ----- -- ----,140598.90000009537,140598.40000009537,140181.986,140191.80000007153,140198.639,140614.957,,29,not
screen,html.Screen,2_1_0_1_30,2022-02-03T13:08:34.063Z,,,,,,,,,,,,,,,,,53,,,,,,,,,,,,,,407.24300004768884,,response,,,,99,,,,,,,Space,keypress(Space),,,,,,,,---- -- ----- -- ------ - ------- --- ----------<br>------------- ------ ------ ---- ---- ------- ----- -- ----<br>-------- ------- -- ---------- --- - --- ----- ----- ----<br>---- --- how ----- --- ---- ---- ------- ----- ---- -------<br>--- --- -- ----- -- --- ---- -- --- ---- -- ------ ------<br>--- ----- -- ----,141022.70000004768,141022.20000004768,140598.226,140598.90000009537,140614.957,141031.195,,30,how
screen,html.Screen,2_1_0_1_31,2022-02-03T13:08:34.503Z,,,,,,,,,,,,,,,,,53,,,,,,,,,,,,,,430.804999999993,,response,,,,99,,,,,,,Space,keypress(Space),,,,,,,,---- -- ----- -- ------ - ------- --- ----------<br>------------- ------ ------ ---- ---- ------- ----- -- ----<br>-------- ------- -- ---------- --- - --- ----- ----- ----<br>---- --- --- close --- ---- ---- ------- ----- ---- -------<br>--- --- -- ----- -- --- ---- -- --- ---- -- ------ ------<br>--- ----- -- ----,141462.40000009537,141462,141014.593,141022.80000007153,141031.195,141464.016,,31,close
screen,html.Screen,2_1_0_1_32,2022-02-03T13:08:34.896Z,,,,,,,,,,,,,,,,,53,,,,,,,,,,,,,,390.3840000953642,,response,,,,99,,,,,,,Space,keypress(Space),,,,,,,,---- -- ----- -- ------ - ------- --- ----------<br>------------- ------ ------ ---- ---- ------- ----- -- ----<br>-------- ------- -- ---------- --- - --- ----- ----- ----<br>---- --- --- ----- you ---- ---- ------- ----- ---- -------<br>--- --- -- ----- -- --- ---- -- --- ---- -- ------ ------<br>--- ----- -- ----,141854.80000007153,141854.40000009537,141447.546,141462.5,141464.016,141863.849,,32,you
screen,html.Screen,2_1_0_1_33,2022-02-03T13:08:35.359Z,,,,,,,,,,,,,,,,,53,,,,,,,,,,,,,,454.25100002385443,,response,,,,99,,,,,,,Space,keypress(Space),,,,,,,,---- -- ----- -- ------ - ------- --- ----------<br>------------- ------ ------ ---- ---- ------- ----- -- ----<br>-------- ------- -- ---------- --- - --- ----- ----- ----<br>---- --- --- ----- --- feel ---- ------- ----- ---- -------<br>--- --- -- ----- -- --- ---- -- --- ---- -- ------ ------<br>--- ----- -- ----,142318.60000002384,142318.10000002384,141847.2,141854.90000009537,141863.849,142330.06,,33,feel
screen,html.Screen,2_1_0_1_34,2022-02-03T13:08:35.759Z,,,,,,,,,,,,,,,,,53,,,,,,,,,,,,,,388.2400000715279,,response,,,,99,,,,,,,Space,keypress(Space),,,,,,,,---- -- ----- -- ------ - ------- --- ----------<br>------------- ------ ------ ---- ---- ------- ----- -- ----<br>-------- ------- -- ---------- --- - --- ----- ----- ----<br>---- --- --- ----- --- ---- that ------- ----- ---- -------<br>--- --- -- ----- -- --- ---- -- --- ---- -- ------ ------<br>--- ----- -- ----,142718.80000007153,142718.30000007153,142313.455,142318.60000002384,142330.06,142729.787,,34,that
screen,html.Screen,2_1_0_1_35,2022-02-03T13:08:36.032Z,,,,,,,,,,,,,,,,,53,,,,,,,,,,,,,,261.41300004767254,,response,,,,99,,,,,,,Space,keypress(Space),,,,,,,,---- -- ----- -- ------ - ------- --- ----------<br>------------- ------ ------ ---- ---- ------- ----- -- ----<br>-------- ------- -- ---------- --- - --- ----- ----- ----<br>---- --- --- ----- --- ---- ---- matters ----- ---- -------<br>--- --- -- ----- -- --- ---- -- --- ---- -- ------ ------<br>--- ----- -- ----,142991.70000004768,142991.20000004768,142713.11,142718.80000007153,142729.787,142996.152,,35,matters
screen,html.Screen,2_1_0_1_36,2022-02-03T13:08:36.375Z,,,,,,,,,,,,,,,,,53,,,,,,,,,,,,,,338.04800004768185,,response,,,,99,,,,,,,Space,keypress(Space),,,,,,,,"---- -- ----- -- ------ - ------- --- ----------<br>------------- ------ ------ ---- ---- ------- ----- -- ----<br>-------- ------- -- ---------- --- - --- ----- ----- ----<br>---- --- --- ----- --- ---- ---- ------- most, ---- -------<br>--- --- -- ----- -- --- ---- -- --- ---- -- ------ ------<br>--- ----- -- ----",143334.80000007153,143334.20000004768,142979.418,142991.80000007153,142996.152,143345.936,,36,"most,"
screen,html.Screen,2_1_0_1_37,2022-02-03T13:08:36.960Z,,,,,,,,,,,,,,,,,53,,,,,,,,,,,,,,572.9640000953805,,response,,,,99,,,,,,,Space,keypress(Space),,,,,,,,---- -- ----- -- ------ - ------- --- ----------<br>------------- ------ ------ ---- ---- ------- ----- -- ----<br>-------- ------- -- ---------- --- - --- ----- ----- ----<br>---- --- --- ----- --- ---- ---- ------- ----- it's -------<br>--- --- -- ----- -- --- ---- -- --- ---- -- ------ ------<br>--- ----- -- ----,143919.30000007153,143918.90000009537,143329.25,143334.80000007153,143345.936,143928.734,,37,it's
screen,html.Screen,2_1_0_1_38,2022-02-03T13:08:37.567Z,,,,,,,,,,,,,,,,,53,,,,,,,,,,,,,,597.2660000000033,,response,,,,99,,,,,,,Space,keypress(Space),,,,,,,,---- -- ----- -- ------ - ------- --- ----------<br>------------- ------ ------ ---- ---- ------- ----- -- ----<br>-------- ------- -- ---------- --- - --- ----- ----- ----<br>---- --- --- ----- --- ---- ---- ------- ----- ---- whether<br>--- --- -- ----- -- --- ---- -- --- ---- -- ------ ------<br>--- ----- -- ----,144526.5,144526,143912.061,143919.40000009537,143928.734,144528.119,,38,whether
screen,html.Screen,2_1_0_1_39,2022-02-03T13:08:37.912Z,,,,,,,,,,,,,,,,,53,,,,,,,,,,,,,,343.2810000953614,,response,,,,99,,,,,,,Space,keypress(Space),,,,,,,,---- -- ----- -- ------ - ------- --- ----------<br>------------- ------ ------ ---- ---- ------- ----- -- ----<br>-------- ------- -- ---------- --- - --- ----- ----- ----<br>---- --- --- ----- --- ---- ---- ------- ----- ---- -------<br>you --- -- ----- -- --- ---- -- --- ---- -- ------ ------<br>--- ----- -- ----,144871.80000007153,144871.40000009537,144511.431,144526.5,144528.119,144877.873,,39,you
screen,html.Screen,2_1_0_1_40,2022-02-03T13:08:38.239Z,,,,,,,,,,,,,,,,,53,,,,,,,,,,,,,,319.8270000476914,,response,,,,99,,,,,,,Space,keypress(Space),,,,,,,,---- -- ----- -- ------ - ------- --- ----------<br>------------- ------ ------ ---- ---- ------- ----- -- ----<br>-------- ------- -- ---------- --- - --- ----- ----- ----<br>---- --- --- ----- --- ---- ---- ------- ----- ---- -------<br>--- are -- ----- -- --- ---- -- --- ---- -- ------ ------<br>--- ----- -- ----,145198.20000004768,145197.70000004768,144861.232,144871.90000009537,144877.873,145210.828,,40,are
screen,html.Screen,2_1_0_1_41,2022-02-03T13:08:38.688Z,,,,,,,,,,,,,,,,,53,,,,,,,,,,,,,,435.5720000953588,,response,,,,99,,,,,,,Space,keypress(Space),,,,,,,,---- -- ----- -- ------ - ------- --- ----------<br>------------- ------ ------ ---- ---- ------- ----- -- ----<br>-------- ------- -- ---------- --- - --- ----- ----- ----<br>---- --- --- ----- --- ---- ---- ------- ----- ---- -------<br>--- --- as ----- -- --- ---- -- --- ---- -- ------ ------<br>--- ----- -- ----,145646.80000007153,145646.40000009537,145194.285,145198.30000007153,145210.828,145660.506,,41,as
screen,html.Screen,2_1_0_1_42,2022-02-03T13:08:39.112Z,,,,,,,,,,,,,,,,,53,,,,,,,,,,,,,,410.3940000953735,,response,,,,99,,,,,,,Space,keypress(Space),,,,,,,,---- -- ----- -- ------ - ------- --- ----------<br>------------- ------ ------ ---- ---- ------- ----- -- ----<br>-------- ------- -- ---------- --- - --- ----- ----- ----<br>---- --- --- ----- --- ---- ---- ------- ----- ---- -------<br>--- --- -- close -- --- ---- -- --- ---- -- ------ ------<br>--- ----- -- ----,146071.30000007153,146070.90000009537,145643.882,145646.90000009537,145660.506,146076.841,,42,close
screen,html.Screen,2_1_0_1_43,2022-02-03T13:08:39.489Z,,,,,,,,,,,,,,,,,53,,,,,,,,,,,,,,370.6590000000142,,response,,,,99,,,,,,,Space,keypress(Space),,,,,,,,---- -- ----- -- ------ - ------- --- ----------<br>------------- ------ ------ ---- ---- ------- ----- -- ----<br>-------- ------- -- ---------- --- - --- ----- ----- ----<br>---- --- --- ----- --- ---- ---- ------- ----- ---- -------<br>--- --- -- ----- as --- ---- -- --- ---- -- ------ ------<br>--- ----- -- ----,146448,146447.5,146060.188,146071.30000007153,146076.841,146459.853,,43,as
screen,html.Screen,2_1_0_1_44,2022-02-03T13:08:39.847Z,,,,,,,,,,,,,,,,,53,,,,,,,,,,,,,,346.4470000715228,,response,,,,99,,,,,,,Space,keypress(Space),,,,,,,,---- -- ----- -- ------ - ------- --- ----------<br>------------- ------ ------ ---- ---- ------- ----- -- ----<br>-------- ------- -- ---------- --- - --- ----- ----- ----<br>---- --- --- ----- --- ---- ---- ------- ----- ---- -------<br>--- --- -- ----- -- you ---- -- --- ---- -- ------ ------<br>--- ----- -- ----,146806.80000007153,146806.30000007153,146443.194,146448,146459.853,146809.529,,44,you
screen,html.Screen,2_1_0_1_45,2022-02-03T13:08:40.335Z,,,,,,,,,,,,,,,,,53,,,,,,,,,,,,,,484.5710000238323,,response,,,,99,,,,,,,Space,keypress(Space),,,,,,,,---- -- ----- -- ------ - ------- --- ----------<br>------------- ------ ------ ---- ---- ------- ----- -- ----<br>-------- ------- -- ---------- --- - --- ----- ----- ----<br>---- --- --- ----- --- ---- ---- ------- ----- ---- -------<br>--- --- -- ----- -- --- want -- --- ---- -- ------ ------<br>--- ----- -- ----,147294.5,147294.10000002384,146792.88,146806.80000007153,146809.529,147309.117,,45,want
screen,html.Screen,2_1_0_1_46,2022-02-03T13:08:40.784Z,,,,,,,,,,,,,,,,,53,,,,,,,,,,,,,,433.78300009536906,,response,,,,99,,,,,,,Space,keypress(Space),,,,,,,,---- -- ----- -- ------ - ------- --- ----------<br>------------- ------ ------ ---- ---- ------- ----- -- ----<br>-------- ------- -- ---------- --- - --- ----- ----- ----<br>---- --- --- ----- --- ---- ---- ------- ----- ---- -------<br>--- --- -- ----- -- --- ---- to --- ---- -- ------ ------<br>--- ----- -- ----,147743.30000007153,147742.90000009537,147292.288,147294.60000002384,147309.117,147758.728,,46,to
screen,html.Screen,2_1_0_1_47,2022-02-03T13:08:41.135Z,,,,,,,,,,,,,,,,,53,,,,,,,,,,,,,,335.5720000715228,,response,,,,99,,,,,,,Space,keypress(Space),,,,,,,,"---- -- ----- -- ------ - ------- --- ----------<br>------------- ------ ------ ---- ---- ------- ----- -- ----<br>-------- ------- -- ---------- --- - --- ----- ----- ----<br>---- --- --- ----- --- ---- ---- ------- ----- ---- -------<br>--- --- -- ----- -- --- ---- -- be, ---- -- ------ ------<br>--- ----- -- ----",148094.80000007153,148094.30000007153,147742.019,147743.40000009537,147758.728,148108.421,,47,"be,"
screen,html.Screen,2_1_0_1_48,2022-02-03T13:08:41.719Z,,,,,,,,,,,,,,,,,53,,,,,,,,,,,,,,569.4790000953653,,response,,,,99,,,,,,,Space,keypress(Space),,,,,,,,---- -- ----- -- ------ - ------- --- ----------<br>------------- ------ ------ ---- ---- ------- ----- -- ----<br>-------- ------- -- ---------- --- - --- ----- ----- ----<br>---- --- --- ----- --- ---- ---- ------- ----- ---- -------<br>--- --- -- ----- -- --- ---- -- --- even -- ------ ------<br>--- ----- -- ----,148678.30000007153,148677.90000009537,148091.75,148094.80000007153,148108.421,148691.269,,48,even
screen,html.Screen,2_1_0_1_49,2022-02-03T13:08:42.127Z,,,,,,,,,,,,,,,,,53,,,,,,,,,,,,,,395.03100007152534,,response,,,,99,,,,,,,Space,keypress(Space),,,,,,,,---- -- ----- -- ------ - ------- --- ----------<br>------------- ------ ------ ---- ---- ------- ----- -- ----<br>-------- ------- -- ---------- --- - --- ----- ----- ----<br>---- --- --- ----- --- ---- ---- ------- ----- ---- -------<br>--- --- -- ----- -- --- ---- -- --- ---- if ------ ------<br>--- ----- -- ----,149086.70000004768,149086.30000007153,148674.428,148678.40000009537,148691.269,149090.884,,49,if
screen,html.Screen,2_1_0_1_50,2022-02-03T13:08:42.472Z,,,,,,,,,,,,,,,,,53,,,,,,,,,,,,,,340.0160000953765,,response,,,,99,,,,,,,Space,keypress(Space),,,,,,,,---- -- ----- -- ------ - ------- --- ----------<br>------------- ------ ------ ---- ---- ------- ----- -- ----<br>-------- ------- -- ---------- --- - --- ----- ----- ----<br>---- --- --- ----- --- ---- ---- ------- ----- ---- -------<br>--- --- -- ----- -- --- ---- -- --- ---- -- that's ------<br>--- ----- -- ----,149431.40000009537,149430.90000009537,149074.223,149086.80000007153,149090.884,149440.587,,50,that's
screen,html.Screen,2_1_0_1_51,2022-02-03T13:08:42.959Z,,,,,,,,,,,,,,,,,53,,,,,,,,,,,,,,477.71300007152604,,response,,,,99,,,,,,,Space,keypress(Space),,,,,,,,---- -- ----- -- ------ - ------- --- ----------<br>------------- ------ ------ ---- ---- ------- ----- -- ----<br>-------- ------- -- ---------- --- - --- ----- ----- ----<br>---- --- --- ----- --- ---- ---- ------- ----- ---- -------<br>--- --- -- ----- -- --- ---- -- --- ---- -- ------ really<br>--- ----- -- ----,149918.80000007153,149918.30000007153,149423.763,149431.40000009537,149440.587,149923.488,,51,really
screen,html.Screen,2_1_0_1_52,2022-02-03T13:08:43.288Z,,,,,,,,,,,,,,,,,53,,,,,,,,,,,,,,323.4120000953553,,response,,,,99,,,,,,,Space,keypress(Space),,,,,,,,---- -- ----- -- ------ - ------- --- ----------<br>------------- ------ ------ ---- ---- ------- ----- -- ----<br>-------- ------- -- ---------- --- - --- ----- ----- ----<br>---- --- --- ----- --- ---- ---- ------- ----- ---- -------<br>--- --- -- ----- -- --- ---- -- --- ---- -- ------ ------<br>not ----- -- ----,150247.30000007153,150246.90000009537,149906.828,149918.80000007153,149923.488,150256.541,,52,not
screen,html.Screen,2_1_0_1_53,2022-02-03T13:08:43.679Z,,,,,,,,,,,,,,,,,53,,,,,,,,,,,,,,381.75900007152813,,response,,,,99,,,,,,,Space,keypress(Space),,,,,,,,---- -- ----- -- ------ - ------- --- ----------<br>------------- ------ ------ ---- ---- ------- ----- -- ----<br>-------- ------- -- ---------- --- - --- ----- ----- ----<br>---- --- --- ----- --- ---- ---- ------- ----- ---- -------<br>--- --- -- ----- -- --- ---- -- --- ---- -- ------ ------<br>--- close -- ----,150638.70000004768,150638.30000007153,150239.873,150247.40000009537,150256.541,150639.331,,53,close
screen,html.Screen,2_1_0_1_54,2022-02-03T13:08:44.071Z,,,,,,,,,,,,,,,,,53,,,,,,,,,,,,,,390.96900007152,,response,,,,99,,,,,,,Space,keypress(Space),,,,,,,,---- -- ----- -- ------ - ------- --- ----------<br>------------- ------ ------ ---- ---- ------- ----- -- ----<br>-------- ------- -- ---------- --- - --- ----- ----- ----<br>---- --- --- ----- --- ---- ---- ------- ----- ---- -------<br>--- --- -- ----- -- --- ---- -- --- ---- -- ------ ------<br>--- ----- at ----,151030.70000004768,151030.30000007153,150622.879,150638.70000004768,150639.331,151039.178,,54,at
screen,html.Screen,2_1_0_1_55,2022-02-03T13:08:44.456Z,,,,,,,,,,,,,,,,,53,,,,,,,,,,,,,,375.722000095353,,response,,,,99,,,,,,,Space,keypress(Space),,,,,,,,---- -- ----- -- ------ - ------- --- ----------<br>------------- ------ ------ ---- ---- ------- ----- -- ----<br>-------- ------- -- ---------- --- - --- ----- ----- ----<br>---- --- --- ----- --- ---- ---- ------- ----- ---- -------<br>--- --- -- ----- -- --- ---- -- --- ---- -- ------ ------<br>--- ----- -- all.,151415.30000007153,151414.90000009537,151022.565,151030.80000007153,151039.178,151422.059,,55,all.
Item 99,flow.Loop,2_1_0_1,2022-02-03T13:08:44.456Z,,,,,,,,,,,,,,,,,,,,,,,,,,,,,,,27219.076000095374,,completion,,,,,F,,,,,,,,,,,silence,,,,,151415.30000007153,151414.90000009537,124179.295,124179.80000007153,124195.824,151422.059,,,
Question 1,html.Screen,2_1_0_2,2022-02-03T13:08:49.183Z,,,,,,,,,,,,,,,,,,,,,,,,,,,,true,FALSE,,4719.641000047675,,response,,,,99,F,,,,,,FALSE,click #choice-2,,,,silence,,,,,156142.30000007153,156141.70000004768,151405.525,151415.40000009537,151422.059,156151.281,,,
Question 2,html.Screen,2_1_0_3,2022-02-03T13:08:54.223Z,,,,,,,,,,,,,,,,,,,,,,,,,,,,true,TRUE,,5030.219000000012,,response,,,,99,F,,,,,,TRUE,click #choice-1,,,,silence,,,,,161182.10000002384,161181.5,156134.722,156142.5,156151.281,161196.862,,,
Item 99,flow.Sequence,2_1_0,2022-02-03T13:08:54.223Z,,,,,,,,,,,,,,,,,,,,,,,,,,,,,,,46993.62699999999,,completion,,,,,,,,,,,,,,,,,,,,,161182.20000004768,161181.5,114171.362,114183,114187.873,161196.862,,,
Holding screen,html.Screen,2_1_1_0,2022-02-03T13:09:04.230Z,,,,,,,,,,,,,,,,,,,,,,,,,,,,,,,10008.062999999995,,timeout,,,,,,,,,,,,,,,,,,,,,171189,171188.14,161180.329,161182.30000007153,161196.862,171204.925,,,
screen,html.Screen,2_1_1_1_0,2022-02-03T13:09:05.408Z,,,,,,,,,,,,,,,,,54,,,,,,,,,,,,,,1161.6750000238535,,response,,,,100,,,,,,,Space,keypress(Space),,,,,,,,At --- ---- --- ------ ----- ------- ---- -- --- ------- --<br>------- ---------- ------ -- ----- -- ----- -- ---- ------<br>--- ----- --- --- ------ -------- ----- --- ------ ----- --<br>----- ----- ---------- --- --- ------ ------ ---- -- ------<br>------- --- ------ ----- --- ---- ------- -- ---- --- --<br>------- ------,172367.10000002384,172366.60000002384,171188.14,171189,171204.925,172370.487,,0,At
screen,html.Screen,2_1_1_1_1,2022-02-03T13:09:05.808Z,,,,,,,,,,,,,,,,,54,,,,,,,,,,,,,,396.4130000953737,,response,,,,100,,,,,,,Space,keypress(Space),,,,,,,,-- the ---- --- ------ ----- ------- ---- -- --- ------- --<br>------- ---------- ------ -- ----- -- ----- -- ---- ------<br>--- ----- --- --- ------ -------- ----- --- ------ ----- --<br>----- ----- ---------- --- --- ------ ------ ---- -- ------<br>------- --- ------ ----- --- ---- ------- -- ---- --- --<br>------- ------,172767.20000004768,172766.90000009537,172353.898,172367.10000002384,172370.487,172770.066,,1,the
screen,html.Screen,2_1_1_1_2,2022-02-03T13:09:06.000Z,,,,,,,,,,,,,,,,,54,,,,,,,,,,,,,,188.6340000476921,,response,,,,100,,,,,,,Space,keypress(Space),,,,,,,,-- --- time --- ------ ----- ------- ---- -- --- ------- --<br>------- ---------- ------ -- ----- -- ----- -- ---- ------<br>--- ----- --- --- ------ -------- ----- --- ------ ----- --<br>----- ----- ---------- --- --- ------ ------ ---- -- ------<br>------- --- ------ ----- --- ---- ------- -- ---- --- --<br>------- ------,172959.10000002384,172958.70000004768,172753.548,172767.30000007153,172770.066,172969.972,,2,time
screen,html.Screen,2_1_1_1_3,2022-02-03T13:09:06.200Z,,,,,,,,,,,,,,,,,54,,,,,,,,,,,,,,188.52799999999115,,response,,,,100,,,,,,,Space,keypress(Space),,,,,,,,-- --- ---- the ------ ----- ------- ---- -- --- ------- --<br>------- ---------- ------ -- ----- -- ----- -- ---- ------<br>--- ----- --- --- ------ -------- ----- --- ------ ----- --<br>----- ----- ---------- --- --- ------ ------ ---- -- ------<br>------- --- ------ ----- --- ---- ------- -- ---- --- --<br>------- ------,173159,173158.5,172953.385,172959.10000002384,172969.972,173169.855,,3,the
screen,html.Screen,2_1_1_1_4,2022-02-03T13:09:06.856Z,,,,,,,,,,,,,,,,,54,,,,,,,,,,,,,,644.3450000476732,,response,,,,100,,,,,,,Space,keypress(Space),,,,,,,,-- --- ---- --- French ----- ------- ---- -- --- ------- --<br>------- ---------- ------ -- ----- -- ----- -- ---- ------<br>--- ----- --- --- ------ -------- ----- --- ------ ----- --<br>----- ----- ---------- --- --- ------ ------ ---- -- ------<br>------- --- ------ ----- --- ---- ------- -- ---- --- --<br>------- ------,173814.80000007153,173814.20000004768,173153.2,173159.10000002384,173169.855,173819.278,,4,French
screen,html.Screen,2_1_1_1_5,2022-02-03T13:09:07.048Z,,,,,,,,,,,,,,,,,54,,,,,,,,,,,,,,186.72200000000885,,response,,,,100,,,,,,,Space,keypress(Space),,,,,,,,-- --- ---- --- ------ crown ------- ---- -- --- ------- --<br>------- ---------- ------ -- ----- -- ----- -- ---- ------<br>--- ----- --- --- ------ -------- ----- --- ------ ----- --<br>----- ----- ---------- --- --- ------ ------ ---- -- ------<br>------- --- ------ ----- --- ---- ------- -- ---- --- --<br>------- ------,174006.5,174006,173802.637,173814.90000009537,173819.278,174019.088,,5,crown
screen,html.Screen,2_1_1_1_6,2022-02-03T13:09:07.431Z,,,,,,,,,,,,,,,,,54,,,,,,,,,,,,,,370.9120000000112,,response,,,,100,,,,,,,Space,keypress(Space),,,,,,,,-- --- ---- --- ------ ----- secured ---- -- --- ------- --<br>------- ---------- ------ -- ----- -- ----- -- ---- ------<br>--- ----- --- --- ------ -------- ----- --- ------ ----- --<br>----- ----- ---------- --- --- ------ ------ ---- -- ------<br>------- --- ------ ----- --- ---- ------- -- ---- --- --<br>------- ------,174390.40000009537,174390,174002.332,174006.5,174019.088,174402.162,,6,secured
screen,html.Screen,2_1_1_1_7,2022-02-03T13:09:07.624Z,,,,,,,,,,,,,,,,,54,,,,,,,,,,,,,,179.93800002383068,,response,,,,100,,,,,,,Space,keypress(Space),,,,,,,,-- --- ---- --- ------ ----- ------- much -- --- ------- --<br>------- ---------- ------ -- ----- -- ----- -- ---- ------<br>--- ----- --- --- ------ -------- ----- --- ------ ----- --<br>----- ----- ---------- --- --- ------ ------ ---- -- ------<br>------- --- ------ ----- --- ---- ------- -- ---- --- --<br>------- ------,174582.5,174582.10000002384,174385.459,174390.40000009537,174402.162,174585.095,,7,much
screen,html.Screen,2_1_1_1_8,2022-02-03T13:09:07.816Z,,,,,,,,,,,,,,,,,54,,,,,,,,,,,,,,189.7050000715244,,response,,,,100,,,,,,,Space,keypress(Space),,,,,,,,-- --- ---- --- ------ ----- ------- ---- of --- ------- --<br>------- ---------- ------ -- ----- -- ----- -- ---- ------<br>--- ----- --- --- ------ -------- ----- --- ------ ----- --<br>----- ----- ---------- --- --- ------ ------ ---- -- ------<br>------- --- ------ ----- --- ---- ------- -- ---- --- --<br>------- ------,174775.30000007153,174774.80000007153,174568.514,174582.60000002384,174585.095,174785.071,,8,of
screen,html.Screen,2_1_1_1_9,2022-02-03T13:09:08.280Z,,,,,,,,,,,,,,,,,54,,,,,,,,,,,,,,453.7290000715293,,response,,,,100,,,,,,,Space,keypress(Space),,,,,,,,-- --- ---- --- ------ ----- ------- ---- -- its ------- --<br>------- ---------- ------ -- ----- -- ----- -- ---- ------<br>--- ----- --- --- ------ -------- ----- --- ------ ----- --<br>----- ----- ---------- --- --- ------ ------ ---- -- ------<br>------- --- ------ ----- --- ---- ------- -- ---- --- --<br>------- ------,175239.20000004768,175238.80000007153,174768.45,174775.30000007153,174785.071,175251.381,,9,its
screen,html.Screen,2_1_1_1_10,2022-02-03T13:09:08.488Z,,,,,,,,,,,,,,,,,54,,,,,,,,,,,,,,194.91900007153163,,response,,,,100,,,,,,,Space,keypress(Space),,,,,,,,-- --- ---- --- ------ ----- ------- ---- -- --- revenue --<br>------- ---------- ------ -- ----- -- ----- -- ---- ------<br>--- ----- --- --- ------ -------- ----- --- ------ ----- --<br>----- ----- ---------- --- --- ------ ------ ---- -- ------<br>------- --- ------ ----- --- ---- ------- -- ---- --- --<br>------- ------,175446.70000004768,175446.30000007153,175234.717,175239.30000007153,175251.381,175451.188,,10,revenue
screen,html.Screen,2_1_1_1_11,2022-02-03T13:09:08.896Z,,,,,,,,,,,,,,,,,54,,,,,,,,,,,,,,403.61200007153093,,response,,,,100,,,,,,,Space,keypress(Space),,,,,,,,-- --- ---- --- ------ ----- ------- ---- -- --- ------- by<br>------- ---------- ------ -- ----- -- ----- -- ---- ------<br>--- ----- --- --- ------ -------- ----- --- ------ ----- --<br>----- ----- ---------- --- --- ------ ------ ---- -- ------<br>------- --- ------ ----- --- ---- ------- -- ---- --- --<br>------- ------,175855.40000009537,175854.80000007153,175434.542,175446.70000004768,175451.188,175867.52,,11,by
screen,html.Screen,2_1_1_1_12,2022-02-03T13:09:09.408Z,,,,,,,,,,,,,,,,,54,,,,,,,,,,,,,,499.3800000953779,,response,,,,100,,,,,,,Space,keypress(Space),,,,,,,,-- --- ---- --- ------ ----- ------- ---- -- --- ------- --<br>issuing ---------- ------ -- ----- -- ----- -- ---- ------<br>--- ----- --- --- ------ -------- ----- --- ------ ----- --<br>----- ----- ---------- --- --- ------ ------ ---- -- ------<br>------- --- ------ ----- --- ---- ------- -- ---- --- --<br>------- ------,176367.40000009537,176366.90000009537,175850.845,175855.40000009537,175867.52,176383.746,,12,issuing
screen,html.Screen,2_1_1_1_13,2022-02-03T13:09:09.648Z,,,,,,,,,,,,,,,,,54,,,,,,,,,,,,,,222.6540000953537,,response,,,,100,,,,,,,Space,keypress(Space),,,,,,,,-- --- ---- --- ------ ----- ------- ---- -- --- ------- --<br>------- government ------ -- ----- -- ----- -- ---- ------<br>--- ----- --- --- ------ -------- ----- --- ------ ----- --<br>----- ----- ---------- --- --- ------ ------ ---- -- ------<br>------- --- ------ ----- --- ---- ------- -- ---- --- --<br>------- ------,176606.90000009537,176606.40000009537,176366.979,176367.40000009537,176383.746,176616.844,,13,government
screen,html.Screen,2_1_1_1_14,2022-02-03T13:09:11.072Z,,,,,,,,,,,,,,,,,54,,,,,,,,,,,,,,1413.3560000476718,,response,,,,100,,,,,,,Space,keypress(Space),,,,,,,,-- --- ---- --- ------ ----- ------- ---- -- --- ------- --<br>------- ---------- bonds. -- ----- -- ----- -- ---- ------<br>--- ----- --- --- ------ -------- ----- --- ------ ----- --<br>----- ----- ---------- --- --- ------ ------ ---- -- ------<br>------- --- ------ ----- --- ---- ------- -- ---- --- --<br>------- ------,178030.5,178030.20000004768,176600.191,176606.90000009537,176616.844,178032.115,,14,bonds.
screen,html.Screen,2_1_1_1_15,2022-02-03T13:09:11.664Z,,,,,,,,,,,,,,,,,54,,,,,,,,,,,,,,590.6850000715349,,response,,,,100,,,,,,,Space,keypress(Space),,,,,,,,-- --- ---- --- ------ ----- ------- ---- -- --- ------- --<br>------- ---------- ------ In ----- -- ----- -- ---- ------<br>--- ----- --- --- ------ -------- ----- --- ------ ----- --<br>----- ----- ---------- --- --- ------ ------ ---- -- ------<br>------- --- ------ ----- --- ---- ------- -- ---- --- --<br>------- ------,178623.20000004768,178622.80000007153,178015.562,178030.5,178032.115,178631.733,,15,In
screen,html.Screen,2_1_1_1_16,2022-02-03T13:09:11.896Z,,,,,,,,,,,,,,,,,54,,,,,,,,,,,,,,223.06700007151812,,response,,,,100,,,,,,,Space,keypress(Space),,,,,,,,"-- --- ---- --- ------ ----- ------- ---- -- --- ------- --<br>------- ---------- ------ -- 1727, -- ----- -- ---- ------<br>--- ----- --- --- ------ -------- ----- --- ------ ----- --<br>----- ----- ---------- --- --- ------ ------ ---- -- ------<br>------- --- ------ ----- --- ---- ------- -- ---- --- --<br>------- ------",178855.20000004768,178854.80000007153,178614.986,178623.30000007153,178631.733,178864.776,,16,"1727,"
screen,html.Screen,2_1_1_1_17,2022-02-03T13:09:13.368Z,,,,,,,,,,,,,,,,,54,,,,,,,,,,,,,,1462.024000071513,,response,,,,100,,,,,,,Space,keypress(Space),,,,,,,,-- --- ---- --- ------ ----- ------- ---- -- --- ------- --<br>------- ---------- ------ -- ----- in ----- -- ---- ------<br>--- ----- --- --- ------ -------- ----- --- ------ ----- --<br>----- ----- ---------- --- --- ------ ------ ---- -- ------<br>------- --- ------ ----- --- ---- ------- -- ---- --- --<br>------- ------,180327.30000007153,180326.80000007153,178848.23,178855.20000004768,178864.776,180330.142,,17,in
screen,html.Screen,2_1_1_1_18,2022-02-03T13:09:13.760Z,,,,,,,,,,,,,,,,,54,,,,,,,,,,,,,,388.158000071533,,response,,,,100,,,,,,,Space,keypress(Space),,,,,,,,-- --- ---- --- ------ ----- ------- ---- -- --- ------- --<br>------- ---------- ------ -- ----- -- order -- ---- ------<br>--- ----- --- --- ------ -------- ----- --- ------ ----- --<br>----- ----- ---------- --- --- ------ ------ ---- -- ------<br>------- --- ------ ----- --- ---- ------- -- ---- --- --<br>------- ------,180718.80000007153,180718.30000007153,180313.619,180327.40000009537,180330.142,180729.876,,18,order
screen,html.Screen,2_1_1_1_19,2022-02-03T13:09:14.088Z,,,,,,,,,,,,,,,,,54,,,,,,,,,,,,,,316.3240000476944,,response,,,,100,,,,,,,Space,keypress(Space),,,,,,,,-- --- ---- --- ------ ----- ------- ---- -- --- ------- --<br>------- ---------- ------ -- ----- -- ----- to ---- ------<br>--- ----- --- --- ------ -------- ----- --- ------ ----- --<br>----- ----- ---------- --- --- ------ ------ ---- -- ------<br>------- --- ------ ----- --- ---- ------- -- ---- --- --<br>------- ------,181046.60000002384,181046.20000004768,180713.267,180718.90000009537,180729.876,181062.866,,19,to
screen,html.Screen,2_1_1_1_20,2022-02-03T13:09:14.288Z,,,,,,,,,,,,,,,,,54,,,,,,,,,,,,,,184.03400009535835,,response,,,,100,,,,,,,Space,keypress(Space),,,,,,,,-- --- ---- --- ------ ----- ------- ---- -- --- ------- --<br>------- ---------- ------ -- ----- -- ----- -- save ------<br>--- ----- --- --- ------ -------- ----- --- ------ ----- --<br>----- ----- ---------- --- --- ------ ------ ---- -- ------<br>------- --- ------ ----- --- ---- ------- -- ---- --- --<br>------- ------,181247.30000007153,181246.90000009537,181046.188,181046.70000004768,181062.866,181262.829,,20,save
screen,html.Screen,2_1_1_1_21,2022-02-03T13:09:14.752Z,,,,,,,,,,,,,,,,,54,,,,,,,,,,,,,,447.47100007152767,,response,,,,100,,,,,,,Space,keypress(Space),,,,,,,,"-- --- ---- --- ------ ----- ------- ---- -- --- ------- --<br>------- ---------- ------ -- ----- -- ----- -- ---- money,<br>--- ----- --- --- ------ -------- ----- --- ------ ----- --<br>----- ----- ---------- --- --- ------ ------ ---- -- ------<br>------- --- ------ ----- --- ---- ------- -- ---- --- --<br>------- ------",181710.80000007153,181710.30000007153,181245.982,181247.40000009537,181262.829,181712.24,,21,"money,"
screen,html.Screen,2_1_1_1_22,2022-02-03T13:09:15.152Z,,,,,,,,,,,,,,,,,54,,,,,,,,,,,,,,398.0600000715349,,response,,,,100,,,,,,,Space,keypress(Space),,,,,,,,-- --- ---- --- ------ ----- ------- ---- -- --- ------- --<br>------- ---------- ------ -- ----- -- ----- -- ---- ------<br>the ----- --- --- ------ -------- ----- --- ------ ----- --<br>----- ----- ---------- --- --- ------ ------ ---- -- ------<br>------- --- ------ ----- --- ---- ------- -- ---- --- --<br>------- ------,182110.60000002384,182110.30000007153,181695.738,181710.80000007153,181712.24,182111.878,,22,the
screen,html.Screen,2_1_1_1_23,2022-02-03T13:09:15.432Z,,,,,,,,,,,,,,,,,54,,,,,,,,,,,,,,278.9220000715286,,response,,,,100,,,,,,,Space,keypress(Space),,,,,,,,-- --- ---- --- ------ ----- ------- ---- -- --- ------- --<br>------- ---------- ------ -- ----- -- ----- -- ---- ------<br>--- state --- --- ------ -------- ----- --- ------ ----- --<br>----- ----- ---------- --- --- ------ ------ ---- -- ------<br>------- --- ------ ----- --- ---- ------- -- ---- --- --<br>------- ------,182391.10000002384,182390.80000007153,182095.393,182110.70000004768,182111.878,182395.143,,23,state
screen,html.Screen,2_1_1_1_24,2022-02-03T13:09:15.656Z,,,,,,,,,,,,,,,,,54,,,,,,,,,,,,,,219.65700007151463,,response,,,,100,,,,,,,Space,keypress(Space),,,,,,,,-- --- ---- --- ------ ----- ------- ---- -- --- ------- --<br>------- ---------- ------ -- ----- -- ----- -- ---- ------<br>--- ----- cut --- ------ -------- ----- --- ------ ----- --<br>----- ----- ---------- --- --- ------ ------ ---- -- ------<br>------- --- ------ ----- --- ---- ------- -- ---- --- --<br>------- ------,182615.20000004768,182614.80000007153,182378.401,182391.5,182395.143,182628.27,,24,cut
screen,html.Screen,2_1_1_1_25,2022-02-03T13:09:16.215Z,,,,,,,,,,,,,,,,,54,,,,,,,,,,,,,,545.7300000000105,,response,,,,100,,,,,,,Space,keypress(Space),,,,,,,,-- --- ---- --- ------ ----- ------- ---- -- --- ------- --<br>------- ---------- ------ -- ----- -- ----- -- ---- ------<br>--- ----- --- the ------ -------- ----- --- ------ ----- --<br>----- ----- ---------- --- --- ------ ------ ---- -- ------<br>------- --- ------ ----- --- ---- ------- -- ---- --- --<br>------- ------,183174.5,183174,182611.607,182615.40000009537,182628.27,183177.782,,25,the
screen,html.Screen,2_1_1_1_26,2022-02-03T13:09:16.423Z,,,,,,,,,,,,,,,,,54,,,,,,,,,,,,,,203.81800002383534,,response,,,,100,,,,,,,Space,keypress(Space),,,,,,,,-- --- ---- --- ------ ----- ------- ---- -- --- ------- --<br>------- ---------- ------ -- ----- -- ----- -- ---- ------<br>--- ----- --- --- bonds' -------- ----- --- ------ ----- --<br>----- ----- ---------- --- --- ------ ------ ---- -- ------<br>------- --- ------ ----- --- ---- ------- -- ---- --- --<br>------- ------,183382.10000002384,183381.60000002384,183161.133,183174.5,183177.782,183394.143,,26,bonds'
screen,html.Screen,2_1_1_1_27,2022-02-03T13:09:17.288Z,,,,,,,,,,,,,,,,,54,,,,,,,,,,,,,,852.1570000715146,,response,,,,100,,,,,,,Space,keypress(Space),,,,,,,,-- --- ---- --- ------ ----- ------- ---- -- --- ------- --<br>------- ---------- ------ -- ----- -- ----- -- ---- ------<br>--- ----- --- --- ------ interest ----- --- ------ ----- --<br>----- ----- ---------- --- --- ------ ------ ---- -- ------<br>------- --- ------ ----- --- ---- ------- -- ---- --- --<br>------- ------,184246.70000004768,184246.30000007153,183377.644,183382.20000004768,183394.143,184260.201,,27,interest
screen,html.Screen,2_1_1_1_28,2022-02-03T13:09:18.217Z,,,,,,,,,,,,,,,,,54,,,,,,,,,,,,,,914.9990000476828,,response,,,,100,,,,,,,Space,keypress(Space),,,,,,,,-- --- ---- --- ------ ----- ------- ---- -- --- ------- --<br>------- ---------- ------ -- ----- -- ----- -- ---- ------<br>--- ----- --- --- ------ -------- rate. --- ------ ----- --<br>----- ----- ---------- --- --- ------ ------ ---- -- ------<br>------- --- ------ ----- --- ---- ------- -- ---- --- --<br>------- ------,185175.70000004768,185175.20000004768,184243.527,184246.80000007153,184260.201,185175.891,,28,rate.
screen,html.Screen,2_1_1_1_29,2022-02-03T13:09:18.600Z,,,,,,,,,,,,,,,,,54,,,,,,,,,,,,,,382.60899999999674,,response,,,,100,,,,,,,Space,keypress(Space),,,,,,,,-- --- ---- --- ------ ----- ------- ---- -- --- ------- --<br>------- ---------- ------ -- ----- -- ----- -- ---- ------<br>--- ----- --- --- ------ -------- ----- The ------ ----- --<br>----- ----- ---------- --- --- ------ ------ ---- -- ------<br>------- --- ------ ----- --- ---- ------- -- ---- --- --<br>------- ------,185559,185558.5,185159.387,185175.70000004768,185175.891,185575.768,,29,The
screen,html.Screen,2_1_1_1_30,2022-02-03T13:09:18.776Z,,,,,,,,,,,,,,,,,54,,,,,,,,,,,,,,159.03200007151463,,response,,,,100,,,,,,,Space,keypress(Space),,,,,,,,-- --- ---- --- ------ ----- ------- ---- -- --- ------- --<br>------- ---------- ------ -- ----- -- ----- -- ---- ------<br>--- ----- --- --- ------ -------- ----- --- market ----- --<br>----- ----- ---------- --- --- ------ ------ ---- -- ------<br>------- --- ------ ----- --- ---- ------- -- ---- --- --<br>------- ------,185735.20000004768,185734.80000007153,185558.901,185559,185575.768,185742.207,,30,market
screen,html.Screen,2_1_1_1_31,2022-02-03T13:09:19.200Z,,,,,,,,,,,,,,,,,54,,,,,,,,,,,,,,416.5930000715307,,response,,,,100,,,,,,,Space,keypress(Space),,,,,,,,-- --- ---- --- ------ ----- ------- ---- -- --- ------- --<br>------- ---------- ------ -- ----- -- ----- -- ---- ------<br>--- ----- --- --- ------ -------- ----- --- ------ value --<br>----- ----- ---------- --- --- ------ ------ ---- -- ------<br>------- --- ------ ----- --- ---- ------- -- ---- --- --<br>------- ------,186159.20000004768,186158.80000007153,185725.563,185735.20000004768,185742.207,186175.176,,31,value
screen,html.Screen,2_1_1_1_32,2022-02-03T13:09:19.464Z,,,,,,,,,,,,,,,,,54,,,,,,,,,,,,,,247.12400007151882,,response,,,,100,,,,,,,Space,keypress(Space),,,,,,,,-- --- ---- --- ------ ----- ------- ---- -- --- ------- --<br>------- ---------- ------ -- ----- -- ----- -- ---- ------<br>--- ----- --- --- ------ -------- ----- --- ------ ----- of<br>----- ----- ---------- --- --- ------ ------ ---- -- ------<br>------- --- ------ ----- --- ---- ------- -- ---- --- --<br>------- ------,186422.70000004768,186422.30000007153,186158.349,186159.30000007153,186175.176,186424.914,,32,of
screen,html.Screen,2_1_1_1_33,2022-02-03T13:09:19.928Z,,,,,,,,,,,,,,,,,54,,,,,,,,,,,,,,461.78600004769396,,response,,,,100,,,,,,,Space,keypress(Space),,,,,,,,-- --- ---- --- ------ ----- ------- ---- -- --- ------- --<br>------- ---------- ------ -- ----- -- ----- -- ---- ------<br>--- ----- --- --- ------ -------- ----- --- ------ ----- --<br>these ----- ---------- --- --- ------ ------ ---- -- ------<br>------- --- ------ ----- --- ---- ------- -- ---- --- --<br>------- ------,186887.10000002384,186886.70000004768,186408.185,186422.80000007153,186424.914,186891.219,,33,these
screen,html.Screen,2_1_1_1_34,2022-02-03T13:09:20.216Z,,,,,,,,,,,,,,,,,54,,,,,,,,,,,,,,282.88100002383,,response,,,,100,,,,,,,Space,keypress(Space),,,,,,,,-- --- ---- --- ------ ----- ------- ---- -- --- ------- --<br>------- ---------- ------ -- ----- -- ----- -- ---- ------<br>--- ----- --- --- ------ -------- ----- --- ------ ----- --<br>----- bonds ---------- --- --- ------ ------ ---- -- ------<br>------- --- ------ ----- --- ---- ------- -- ---- --- --<br>------- ------,187174.5,187174.10000002384,186874.552,186887.10000002384,186891.219,187190.847,,34,bonds
screen,html.Screen,2_1_1_1_35,2022-02-03T13:09:20.408Z,,,,,,,,,,,,,,,,,54,,,,,,,,,,,,,,175.253000023833,,response,,,,100,,,,,,,Space,keypress(Space),,,,,,,,"-- --- ---- --- ------ ----- ------- ---- -- --- ------- --<br>------- ---------- ------ -- ----- -- ----- -- ---- ------<br>--- ----- --- --- ------ -------- ----- --- ------ ----- --<br>----- ----- plummeted, --- --- ------ ------ ---- -- ------<br>------- --- ------ ----- --- ---- ------- -- ---- --- --<br>------- ------",187366.60000002384,187366.10000002384,187174.177,187174.5,187190.847,187374.073,,35,"plummeted,"
screen,html.Screen,2_1_1_1_36,2022-02-03T13:09:20.872Z,,,,,,,,,,,,,,,,,54,,,,,,,,,,,,,,456.2270000715216,,response,,,,100,,,,,,,Space,keypress(Space),,,,,,,,-- --- ---- --- ------ ----- ------- ---- -- --- ------- --<br>------- ---------- ------ -- ----- -- ----- -- ---- ------<br>--- ----- --- --- ------ -------- ----- --- ------ ----- --<br>----- ----- ---------- and --- ------ ------ ---- -- ------<br>------- --- ------ ----- --- ---- ------- -- ---- --- --<br>------- ------,187830.70000004768,187830.30000007153,187357.461,187366.70000004768,187374.073,187840.299,,36,and
screen,html.Screen,2_1_1_1_37,2022-02-03T13:09:21.056Z,,,,,,,,,,,,,,,,,54,,,,,,,,,,,,,,174.0010000715265,,response,,,,100,,,,,,,Space,keypress(Space),,,,,,,,-- --- ---- --- ------ ----- ------- ---- -- --- ------- --<br>------- ---------- ------ -- ----- -- ----- -- ---- ------<br>--- ----- --- --- ------ -------- ----- --- ------ ----- --<br>----- ----- ---------- --- the ------ ------ ---- -- ------<br>------- --- ------ ----- --- ---- ------- -- ---- --- --<br>------- ------,188014.80000007153,188014.30000007153,187823.723,187830.70000004768,187840.299,188023.398,,37,the
screen,html.Screen,2_1_1_1_38,2022-02-03T13:09:21.503Z,,,,,,,,,,,,,,,,,54,,,,,,,,,,,,,,438.3020000476972,,response,,,,100,,,,,,,Space,keypress(Space),,,,,,,,-- --- ---- --- ------ ----- ------- ---- -- --- ------- --<br>------- ---------- ------ -- ----- -- ----- -- ---- ------<br>--- ----- --- --- ------ -------- ----- --- ------ ----- --<br>----- ----- ---------- --- --- market ------ ---- -- ------<br>------- --- ------ ----- --- ---- ------- -- ---- --- --<br>------- ------,188462.10000002384,188461.70000004768,188006.897,188014.90000009537,188023.398,188473.177,,38,market
screen,html.Screen,2_1_1_1_39,2022-02-03T13:09:21.687Z,,,,,,,,,,,,,,,,,54,,,,,,,,,,,,,,172.52300004768767,,response,,,,100,,,,,,,Space,keypress(Space),,,,,,,,-- --- ---- --- ------ ----- ------- ---- -- --- ------- --<br>------- ---------- ------ -- ----- -- ----- -- ---- ------<br>--- ----- --- --- ------ -------- ----- --- ------ ----- --<br>----- ----- ---------- --- --- ------ became ---- -- ------<br>------- --- ------ ----- --- ---- ------- -- ---- --- --<br>------- ------,188646.10000002384,188645.70000004768,188456.392,188462.20000004768,188473.177,188656.323,,39,became
screen,html.Screen,2_1_1_1_40,2022-02-03T13:09:22.111Z,,,,,,,,,,,,,,,,,54,,,,,,,,,,,,,,413.5770000953635,,response,,,,100,,,,,,,Space,keypress(Space),,,,,,,,-- --- ---- --- ------ ----- ------- ---- -- --- ------- --<br>------- ---------- ------ -- ----- -- ----- -- ---- ------<br>--- ----- --- --- ------ -------- ----- --- ------ ----- --<br>----- ----- ---------- --- --- ------ ------ wary -- ------<br>------- --- ------ ----- --- ---- ------- -- ---- --- --<br>------- ------,189070.40000009537,189069.90000009537,188639.548,188646.20000004768,188656.323,189072.498,,40,wary
screen,html.Screen,2_1_1_1_41,2022-02-03T13:09:22.473Z,,,,,,,,,,,,,,,,,54,,,,,,,,,,,,,,358.7020000476914,,response,,,,100,,,,,,,Space,keypress(Space),,,,,,,,-- --- ---- --- ------ ----- ------- ---- -- --- ------- --<br>------- ---------- ------ -- ----- -- ----- -- ---- ------<br>--- ----- --- --- ------ -------- ----- --- ------ ----- --<br>----- ----- ---------- --- --- ------ ------ ---- of ------<br>------- --- ------ ----- --- ---- ------- -- ---- --- --<br>------- ------,189431.70000004768,189431.20000004768,189055.983,189070.40000009537,189072.498,189438.984,,41,of
screen,html.Screen,2_1_1_1_42,2022-02-03T13:09:22.936Z,,,,,,,,,,,,,,,,,54,,,,,,,,,,,,,,455.1160000238451,,response,,,,100,,,,,,,Space,keypress(Space),,,,,,,,-- --- ---- --- ------ ----- ------- ---- -- --- ------- --<br>------- ---------- ------ -- ----- -- ----- -- ---- ------<br>--- ----- --- --- ------ -------- ----- --- ------ ----- --<br>----- ----- ---------- --- --- ------ ------ ---- -- French<br>------- --- ------ ----- --- ---- ------- -- ---- --- --<br>------- ------,189894.5,189894.10000002384,189422.328,189431.70000004768,189438.984,189905.258,,42,French
screen,html.Screen,2_1_1_1_43,2022-02-03T13:09:23.624Z,,,,,,,,,,,,,,,,,54,,,,,,,,,,,,,,676.9420000476821,,response,,,,100,,,,,,,Space,keypress(Space),,,,,,,,-- --- ---- --- ------ ----- ------- ---- -- --- ------- --<br>------- ---------- ------ -- ----- -- ----- -- ---- ------<br>--- ----- --- --- ------ -------- ----- --- ------ ----- --<br>----- ----- ---------- --- --- ------ ------ ---- -- ------<br>credit. --- ------ ----- --- ---- ------- -- ---- --- --<br>------- ------,190582.60000002384,190582.20000004768,189888.6,189894.60000002384,189905.258,190587.964,,43,credit.
screen,html.Screen,2_1_1_1_44,2022-02-03T13:09:24.111Z,,,,,,,,,,,,,,,,,54,,,,,,,,,,,,,,481.7360000476765,,response,,,,100,,,,,,,Space,keypress(Space),,,,,,,,-- --- ---- --- ------ ----- ------- ---- -- --- ------- --<br>------- ---------- ------ -- ----- -- ----- -- ---- ------<br>--- ----- --- --- ------ -------- ----- --- ------ ----- --<br>----- ----- ---------- --- --- ------ ------ ---- -- ------<br>------- The ------ ----- --- ---- ------- -- ---- --- --<br>------- ------,191070.20000004768,191069.70000004768,190571.326,190582.80000007153,190587.964,191070.801,,44,The
screen,html.Screen,2_1_1_1_45,2022-02-03T13:09:24.272Z,,,,,,,,,,,,,,,,,54,,,,,,,,,,,,,,160.19899999999325,,response,,,,100,,,,,,,Space,keypress(Space),,,,,,,,-- --- ---- --- ------ ----- ------- ---- -- --- ------- --<br>------- ---------- ------ -- ----- -- ----- -- ---- ------<br>--- ----- --- --- ------ -------- ----- --- ------ ----- --<br>----- ----- ---------- --- --- ------ ------ ---- -- ------<br>------- --- French ----- --- ---- ------- -- ---- --- --<br>------- ------,191231.40000009537,191231,191054.215,191070.30000007153,191070.801,191237.418,,45,French
screen,html.Screen,2_1_1_1_46,2022-02-03T13:09:24.744Z,,,,,,,,,,,,,,,,,54,,,,,,,,,,,,,,465.38200007152045,,response,,,,100,,,,,,,Space,keypress(Space),,,,,,,,-- --- ---- --- ------ ----- ------- ---- -- --- ------- --<br>------- ---------- ------ -- ----- -- ----- -- ---- ------<br>--- ----- --- --- ------ -------- ----- --- ------ ----- --<br>----- ----- ---------- --- --- ------ ------ ---- -- ------<br>------- --- ------ state --- ---- ------- -- ---- --- --<br>------- ------,191703.20000004768,191702.80000007153,191220.766,191231.40000009537,191237.418,191703.485,,46,state
screen,html.Screen,2_1_1_1_47,2022-02-03T13:09:24.912Z,,,,,,,,,,,,,,,,,54,,,,,,,,,,,,,,167.61500002385583,,response,,,,100,,,,,,,Space,keypress(Space),,,,,,,,-- --- ---- --- ------ ----- ------- ---- -- --- ------- --<br>------- ---------- ------ -- ----- -- ----- -- ---- ------<br>--- ----- --- --- ------ -------- ----- --- ------ ----- --<br>----- ----- ---------- --- --- ------ ------ ---- -- ------<br>------- --- ------ ----- was ---- ------- -- ---- --- --<br>------- ------,191871.40000009537,191871.10000002384,191687.016,191703.20000004768,191703.485,191886.756,,47,was
screen,html.Screen,2_1_1_1_48,2022-02-03T13:09:25.088Z,,,,,,,,,,,,,,,,,54,,,,,,,,,,,,,,160.14400009537349,,response,,,,100,,,,,,,Space,keypress(Space),,,,,,,,-- --- ---- --- ------ ----- ------- ---- -- --- ------- --<br>------- ---------- ------ -- ----- -- ----- -- ---- ------<br>--- ----- --- --- ------ -------- ----- --- ------ ----- --<br>----- ----- ---------- --- --- ------ ------ ---- -- ------<br>------- --- ------ ----- --- left ------- -- ---- --- --<br>------- ------,192047.30000007153,192046.90000009537,191870.21,191871.5,191886.756,192053.322,,48,left
screen,html.Screen,2_1_1_1_49,2022-02-03T13:09:25.729Z,,,,,,,,,,,,,,,,,54,,,,,,,,,,,,,,633.6780000000144,,response,,,,100,,,,,,,Space,keypress(Space),,,,,,,,-- --- ---- --- ------ ----- ------- ---- -- --- ------- --<br>------- ---------- ------ -- ----- -- ----- -- ---- ------<br>--- ----- --- --- ------ -------- ----- --- ------ ----- --<br>----- ----- ---------- --- --- ------ ------ ---- -- ------<br>------- --- ------ ----- --- ---- without -- ---- --- --<br>------- ------,192687.5,192687,192036.715,192047.40000009537,192053.322,192702.732,,49,without
screen,html.Screen,2_1_1_1_50,2022-02-03T13:09:25.904Z,,,,,,,,,,,,,,,,,54,,,,,,,,,,,,,,160.06800007153652,,response,,,,100,,,,,,,Space,keypress(Space),,,,,,,,-- --- ---- --- ------ ----- ------- ---- -- --- ------- --<br>------- ---------- ------ -- ----- -- ----- -- ---- ------<br>--- ----- --- --- ------ -------- ----- --- ------ ----- --<br>----- ----- ---------- --- --- ------ ------ ---- -- ------<br>------- --- ------ ----- --- ---- ------- an ---- --- --<br>------- ------,192863.30000007153,192862.80000007153,192686.051,192687.60000002384,192702.732,192869.158,,50,an
screen,html.Screen,2_1_1_1_51,2022-02-03T13:09:26.383Z,,,,,,,,,,,,,,,,,54,,,,,,,,,,,,,,472.64200007152976,,response,,,,100,,,,,,,Space,keypress(Space),,,,,,,,-- --- ---- --- ------ ----- ------- ---- -- --- ------- --<br>------- ---------- ------ -- ----- -- ----- -- ---- ------<br>--- ----- --- --- ------ -------- ----- --- ------ ----- --<br>----- ----- ---------- --- --- ------ ------ ---- -- ------<br>------- --- ------ ----- --- ---- ------- -- easy --- --<br>------- ------,193342.20000004768,193341.80000007153,192852.552,192863.30000007153,192869.158,193352.185,,51,easy
screen,html.Screen,2_1_1_1_52,2022-02-03T13:09:26.695Z,,,,,,,,,,,,,,,,,54,,,,,,,,,,,,,,301.71500009536976,,response,,,,100,,,,,,,Space,keypress(Space),,,,,,,,-- --- ---- --- ------ ----- ------- ---- -- --- ------- --<br>------- ---------- ------ -- ----- -- ----- -- ---- ------<br>--- ----- --- --- ------ -------- ----- --- ------ ----- --<br>----- ----- ---------- --- --- ------ ------ ---- -- ------<br>------- --- ------ ----- --- ---- ------- -- ---- way --<br>------- ------,193654.40000009537,193653.90000009537,193335.466,193342.30000007153,193352.185,193668.605,,52,way
screen,html.Screen,2_1_1_1_53,2022-02-03T13:09:27.048Z,,,,,,,,,,,,,,,,,54,,,,,,,,,,,,,,337.6950000715151,,response,,,,100,,,,,,,Space,keypress(Space),,,,,,,,-- --- ---- --- ------ ----- ------- ---- -- --- ------- --<br>------- ---------- ------ -- ----- -- ----- -- ---- ------<br>--- ----- --- --- ------ -------- ----- --- ------ ----- --<br>----- ----- ---------- --- --- ------ ------ ---- -- ------<br>------- --- ------ ----- --- ---- ------- -- ---- --- of<br>------- ------,194006.70000004768,194006.30000007153,193651.969,193654.5,193668.605,194018.299,,53,of
screen,html.Screen,2_1_1_1_54,2022-02-03T13:09:27.472Z,,,,,,,,,,,,,,,,,54,,,,,,,,,,,,,,412.40100004768465,,response,,,,100,,,,,,,Space,keypress(Space),,,,,,,,-- --- ---- --- ------ ----- ------- ---- -- --- ------- --<br>------- ---------- ------ -- ----- -- ----- -- ---- ------<br>--- ----- --- --- ------ -------- ----- --- ------ ----- --<br>----- ----- ---------- --- --- ------ ------ ---- -- ------<br>------- --- ------ ----- --- ---- ------- -- ---- --- --<br>raising ------,194431.10000002384,194430.70000004768,194001.663,194006.70000004768,194018.299,194434.626,,54,raising
screen,html.Screen,2_1_1_1_55,2022-02-03T13:09:28.312Z,,,,,,,,,,,,,,,,,54,,,,,,,,,,,,,,835.4740000238526,,response,,,,100,,,,,,,Space,keypress(Space),,,,,,,,-- --- ---- --- ------ ----- ------- ---- -- --- ------- --<br>------- ---------- ------ -- ----- -- ----- -- ---- ------<br>--- ----- --- --- ------ -------- ----- --- ------ ----- --<br>----- ----- ---------- --- --- ------ ------ ---- -- ------<br>------- --- ------ ----- --- ---- ------- -- ---- --- --<br>------- money.,195270.60000002384,195270.10000002384,194417.847,194431.20000004768,194434.626,195283.921,,55,money.
Item 100,flow.Loop,2_1_1_1,2022-02-03T13:09:28.312Z,,,,,,,,,,,,,,,,,,,,,,,,,,,,,,,24065.175000023853,,completion,,,,,F,,,,,,,,,,,silence,,,,,195270.70000004768,195270.10000002384,171188.14,171189,171204.925,195283.921,,,
Question 1,html.Screen,2_1_1_2,2022-02-03T13:09:30.592Z,,,,,,,,,,,,,,,,,,,,,,,,,,,,true,TRUE,,2266.8790000715235,,response,,,,100,F,,,,,,TRUE,click #choice-1,,,,silence,,,,,197551.40000009537,197550.80000007153,195267.226,195270.70000004768,195283.921,197565.104,,,
Question 2,html.Screen,2_1_1_3,2022-02-03T13:09:33.951Z,,,,,,,,,,,,,,,,,,,,,,,,,,,,true,FALSE,,3344.5960000476916,,response,,,,100,F,,,,,,FALSE,click #choice-2,,,,silence,,,,,200910.30000007153,200909.70000004768,197548.45,197551.5,197565.104,200929.006,,,
Item 100,flow.Sequence,2_1_1,2022-02-03T13:09:33.951Z,,,,,,,,,,,,,,,,,,,,,,,,,,,,,,,39712.83800004769,,completion,,,,,,,,,,,,,,,,,,,,,200910.40000009537,200909.70000004768,161180.329,161182.30000007153,161196.862,200929.006,,,
End of Practice,html.Page,2_1_2,2022-02-03T13:09:37.840Z,,,,,,,,,,,,,,,,,,,,,,,,,,,,,,,3869.494000000006,,form submission,,,,,,,,,,,,,,,,,,,,,204798.70000004768,204798.5,200912.169,200910.40000009537,200929.006,204808.925,,,
Practice,flow.Sequence,2_1,2022-02-03T13:09:37.840Z,,,,,,,,,,,,,,,,,,,,,,,,,,,,,,,90610.627,,completion,,,,,,,,,,,,,,,,,,,,,204798.70000004768,204798.5,114171.362,114183,114187.873,204808.925,,,
Trap_instruction,html.Page,2_2_0,2022-02-03T13:09:41.104Z,,,,,,,,,,,,,,,,,,,,,,,,,,,,,,,3254.2750000476954,,form submission,,,,,,,,,,,,,,,,,,,,,208063.30000007153,208063.20000004768,204792.243,204798.80000007153,204808.925,208089.435,,,
trap_trial,html.Screen,2_2_1,2022-02-03T13:09:44.663Z,,,,,,,,,,,,,,,,,,,,,,,,,,,,true,1,,3532.265000047686,,response,,,,,,,,,,,1,click #choice-1,,,,,,,,,211622.30000007153,211621.70000004768,208072.568,208063.30000007153,208089.435,211636.317,,,
end of trap trial,html.Page,2_2_2,2022-02-03T13:09:46.400Z,,,,,,,,,,,,,,,,,,,,,,,,,,,,,,,1722.4830000715156,,form submission,,,,,,,,,,,,,,,,,,,,,213359,213358.80000007153,211619.561,211622.40000009537,211636.317,213368.094,,,
Trap 1,flow.Sequence,2_2,2022-02-03T13:09:46.400Z,,,,,,,,,,,,,,,,,,,,,,,,,,,,,,,8549.875000071537,,completion,,,,,,,,,,,,,,,,,,,,,213359,213358.80000007153,204792.243,204798.80000007153,204808.925,213368.094,,,
Standby,html.Page,2_3_0,2022-02-03T13:09:54.386Z,,,,,,,,,,,,,,,,,,,,,,,,,,,,,,,7992.9009999999835,,timeout,,,,,,,,,,,,,,,,,,,,,221344.90000009537,221344.469,213351.445,213359.10000002384,213368.094,221360.995,,,
Holding screen,html.Screen,2_3_1_0_0,2022-02-03T13:10:01.379Z,,,,,,,,,,,,,,,,,,,,,,,,,,,,,,,6994.062000000005,,timeout,,,,,,,,,,,,,,,,,,,,,228338.70000004768,228338.299,221344.469,221345,221360.995,228355.057,,,
screen,html.Screen,2_3_1_0_1_0,2022-02-03T13:10:02.128Z,,,,,,,,,,,,,,,,,48,,,,,,,,,,,,,,731.8430000953667,,response,,,,10,F,,,,,,Space,keypress(Space),,,,instrumental,,,,As -- --- ------ ------- --------- ----------- --------<br>--------- -------- --- ------- -- ------- ---- -- ------<br>-- --- -------- -------- ---------- ---- ---- ---- ------<br>-- --------- -- ---- -- --- -- --- ------- -- - -----<br>---------- -- -- -- ---- ----- -- ------ -- --- ------<br>-------,229087.40000009537,229086.90000009537,228338.299,228338.90000009537,228355.057,229104.284,,0,As
screen,html.Screen,2_3_1_0_1_1,2022-02-03T13:10:02.583Z,,,,,,,,,,,,,,,,,48,,,,,,,,,,,,,,437.7159999999858,,response,,,,10,F,,,,,,Space,keypress(Space),,,,instrumental,,,,-- in --- ------ ------- --------- ----------- --------<br>--------- -------- --- ------- -- ------- ---- -- ------<br>-- --- -------- -------- ---------- ---- ---- ---- ------<br>-- --------- -- ---- -- --- -- --- ------- -- - -----<br>---------- -- -- -- ---- ----- -- ------ -- --- ------<br>-------,229542.40000009537,229542,229087.568,229087.5,229104.284,229553.991,,1,in
screen,html.Screen,2_3_1_0_1_2,2022-02-03T13:10:02.847Z,,,,,,,,,,,,,,,,,48,,,,,,,,,,,,,,252.3090000715165,,response,,,,10,F,,,,,,Space,keypress(Space),,,,instrumental,,,,-- -- the ------ ------- --------- ----------- --------<br>--------- -------- --- ------- -- ------- ---- -- ------<br>-- --- -------- -------- ---------- ---- ---- ---- ------<br>-- --------- -- ---- -- --- -- --- ------- -- - -----<br>---------- -- -- -- ---- ----- -- ------ -- --- ------<br>-------,229806.80000007153,229806.30000007153,229537.246,229542.5,229553.991,229820.41,,2,the
screen,html.Screen,2_3_1_0_1_3,2022-02-03T13:10:03.095Z,,,,,,,,,,,,,,,,,48,,,,,,,,,,,,,,233.69000002383837,,response,,,,10,F,,,,,,Space,keypress(Space),,,,instrumental,,,,-- -- --- United ------- --------- ----------- --------<br>--------- -------- --- ------- -- ------- ---- -- ------<br>-- --- -------- -------- ---------- ---- ---- ---- ------<br>-- --------- -- ---- -- --- -- --- ------- -- - -----<br>---------- -- -- -- ---- ----- -- ------ -- --- ------<br>-------,230054.60000002384,230054.10000002384,229803.747,229806.80000007153,229820.41,230070.052,,3,United
screen,html.Screen,2_3_1_0_1_4,2022-02-03T13:10:03.575Z,,,,,,,,,,,,,,,,,48,,,,,,,,,,,,,,463.8480000953714,,response,,,,10,F,,,,,,Space,keypress(Space),,,,instrumental,,,,"-- -- --- ------ States, --------- ----------- --------<br>--------- -------- --- ------- -- ------- ---- -- ------<br>-- --- -------- -------- ---------- ---- ---- ---- ------<br>-- --------- -- ---- -- --- -- --- ------- -- - -----<br>---------- -- -- -- ---- ----- -- ------ -- --- ------<br>-------",230534.40000009537,230533.90000009537,230053.435,230054.70000004768,230070.052,230536.278,,4,"States,"
screen,html.Screen,2_3_1_0_1_5,2022-02-03T13:10:04.191Z,,,,,,,,,,,,,,,,,48,,,,,,,,,,,,,,613.8220000238507,,response,,,,10,F,,,,,,Space,keypress(Space),,,,instrumental,,,,-- -- --- ------ ------- Colombian ----------- --------<br>--------- -------- --- ------- -- ------- ---- -- ------<br>-- --- -------- -------- ---------- ---- ---- ---- ------<br>-- --------- -- ---- -- --- -- --- ------- -- - -----<br>---------- -- -- -- ---- ----- -- ------ -- --- ------<br>-------,231150.60000002384,231150.10000002384,230519.66,230534.5,230536.278,231152.424,,5,Colombian
screen,html.Screen,2_3_1_0_1_6,2022-02-03T13:10:04.711Z,,,,,,,,,,,,,,,,,48,,,,,,,,,,,,,,517.7760000476846,,response,,,,10,F,,,,,,Space,keypress(Space),,,,instrumental,,,,-- -- --- ------ ------- --------- legislation --------<br>--------- -------- --- ------- -- ------- ---- -- ------<br>-- --- -------- -------- ---------- ---- ---- ---- ------<br>-- --------- -- ---- -- --- -- --- ------- -- - -----<br>---------- -- -- -- ---- ----- -- ------ -- --- ------<br>-------,231670.60000002384,231670.20000004768,231135.838,231150.70000004768,231152.424,231685.473,,6,legislation
screen,html.Screen,2_3_1_0_1_7,2022-02-03T13:10:05.279Z,,,,,,,,,,,,,,,,,48,,,,,,,,,,,,,,552.7270000476856,,response,,,,10,F,,,,,,Space,keypress(Space),,,,instrumental,,,,-- -- --- ------ ------- --------- ----------- requires<br>--------- -------- --- ------- -- ------- ---- -- ------<br>-- --- -------- -------- ---------- ---- ---- ---- ------<br>-- --------- -- ---- -- --- -- --- ------- -- - -----<br>---------- -- -- -- ---- ----- -- ------ -- --- ------<br>-------,232238.70000004768,232238.20000004768,231668.71,231670.70000004768,231685.473,232251.633,,7,requires
screen,html.Screen,2_3_1_0_1_8,2022-02-03T13:10:05.703Z,,,,,,,,,,,,,,,,,48,,,,,,,,,,,,,,410.66700007152394,,response,,,,10,F,,,,,,Space,keypress(Space),,,,instrumental,,,,-- -- --- ------ ------- --------- ----------- --------<br>travelers -------- --- ------- -- ------- ---- -- ------<br>-- --- -------- -------- ---------- ---- ---- ---- ------<br>-- --------- -- ---- -- --- -- --- ------- -- - -----<br>---------- -- -- -- ---- ----- -- ------ -- --- ------<br>-------,232662.70000004768,232662.30000007153,232234.951,232238.70000004768,232251.633,232667.907,,8,travelers
screen,html.Screen,2_3_1_0_1_9,2022-02-03T13:10:06.415Z,,,,,,,,,,,,,,,,,48,,,,,,,,,,,,,,706.1930000238353,,response,,,,10,F,,,,,,Space,keypress(Space),,,,instrumental,,,,-- -- --- ------ ------- --------- ----------- --------<br>--------- entering --- ------- -- ------- ---- -- ------<br>-- --- -------- -------- ---------- ---- ---- ---- ------<br>-- --------- -- ---- -- --- -- --- ------- -- - -----<br>---------- -- -- -- ---- ----- -- ------ -- --- ------<br>-------,233374.5,233374.10000002384,232651.264,232662.80000007153,232667.907,233383.954,,9,entering
screen,html.Screen,2_3_1_0_1_10,2022-02-03T13:10:06.760Z,,,,,,,,,,,,,,,,,48,,,,,,,,,,,,,,334.5460000000021,,response,,,,10,F,,,,,,Space,keypress(Space),,,,instrumental,,,,-- -- --- ------ ------- --------- ----------- --------<br>--------- -------- the ------- -- ------- ---- -- ------<br>-- --- -------- -------- ---------- ---- ---- ---- ------<br>-- --------- -- ---- -- --- -- --- ------- -- - -----<br>---------- -- -- -- ---- ----- -- ------ -- --- ------<br>-------,233718.90000009537,233718.5,233367.139,233374.60000002384,233383.954,233733.706,,10,the
screen,html.Screen,2_3_1_0_1_11,2022-02-03T13:10:07.287Z,,,,,,,,,,,,,,,,,48,,,,,,,,,,,,,,512.59400007152,,response,,,,10,F,,,,,,Space,keypress(Space),,,,instrumental,,,,-- -- --- ------ ------- --------- ----------- --------<br>--------- -------- --- country -- ------- ---- -- ------<br>-- --- -------- -------- ---------- ---- ---- ---- ------<br>-- --------- -- ---- -- --- -- --- ------- -- - -----<br>---------- -- -- -- ---- ----- -- ------ -- --- ------<br>-------,234246.70000004768,234246.30000007153,233716.831,233718.90000009537,233733.706,234249.718,,11,country
screen,html.Screen,2_3_1_0_1_12,2022-02-03T13:10:07.711Z,,,,,,,,,,,,,,,,,48,,,,,,,,,,,,,,420.3820000238484,,response,,,,10,F,,,,,,Space,keypress(Space),,,,instrumental,,,,-- -- --- ------ ------- --------- ----------- --------<br>--------- -------- --- ------- to ------- ---- -- ------<br>-- --- -------- -------- ---------- ---- ---- ---- ------<br>-- --------- -- ---- -- --- -- --- ------- -- - -----<br>---------- -- -- -- ---- ----- -- ------ -- --- ------<br>-------,234670.70000004768,234670.10000002384,234233.206,234246.80000007153,234249.718,234682.711,,12,to
screen,html.Screen,2_3_1_0_1_13,2022-02-03T13:10:08.279Z,,,,,,,,,,,,,,,,,48,,,,,,,,,,,,,,555.3890000238316,,response,,,,10,F,,,,,,Space,keypress(Space),,,,instrumental,,,,-- -- --- ------ ------- --------- ----------- --------<br>--------- -------- --- ------- -- declare ---- -- ------<br>-- --- -------- -------- ---------- ---- ---- ---- ------<br>-- --------- -- ---- -- --- -- --- ------- -- - -----<br>---------- -- -- -- ---- ----- -- ------ -- --- ------<br>-------,235238.60000002384,235238.10000002384,234666.162,234670.70000004768,234682.711,235248.89,,13,declare
screen,html.Screen,2_3_1_0_1_14,2022-02-03T13:10:08.951Z,,,,,,,,,,,,,,,,,48,,,,,,,,,,,,,,661.109999999986,,response,,,,10,F,,,,,,Space,keypress(Space),,,,instrumental,,,,-- -- --- ------ ------- --------- ----------- --------<br>--------- -------- --- ------- -- ------- cash -- ------<br>-- --- -------- -------- ---------- ---- ---- ---- ------<br>-- --------- -- ---- -- --- -- --- ------- -- - -----<br>---------- -- -- -- ---- ----- -- ------ -- --- ------<br>-------,235910.40000009537,235910,235232.338,235238.60000002384,235248.89,235915.059,,14,cash
screen,html.Screen,2_3_1_0_1_15,2022-02-03T13:10:09.311Z,,,,,,,,,,,,,,,,,48,,,,,,,,,,,,,,354.84100009535905,,response,,,,10,F,,,,,,Space,keypress(Space),,,,instrumental,,,,-- -- --- ------ ------- --------- ----------- --------<br>--------- -------- --- ------- -- ------- ---- in ------<br>-- --- -------- -------- ---------- ---- ---- ---- ------<br>-- --------- -- ---- -- --- -- --- ------- -- - -----<br>---------- -- -- -- ---- ----- -- ------ -- --- ------<br>-------,236270.40000009537,236269.90000009537,235898.428,235910.5,235915.059,236281.437,,15,in
screen,html.Screen,2_3_1_0_1_16,2022-02-03T13:10:09.519Z,,,,,,,,,,,,,,,,,48,,,,,,,,,,,,,,195.96300009536208,,response,,,,10,F,,,,,,Space,keypress(Space),,,,instrumental,,,,-- -- --- ------ ------- --------- ----------- --------<br>--------- -------- --- ------- -- ------- ---- -- excess<br>-- --- -------- -------- ---------- ---- ---- ---- ------<br>-- --------- -- ---- -- --- -- --- ------- -- - -----<br>---------- -- -- -- ---- ----- -- ------ -- --- ------<br>-------,236477.80000007153,236477.40000009537,236264.773,236270.40000009537,236281.437,236481.122,,16,excess
screen,html.Screen,2_3_1_0_1_17,2022-02-03T13:10:10.047Z,,,,,,,,,,,,,,,,,48,,,,,,,,,,,,,,525.1780000715225,,response,,,,10,F,,,,,,Space,keypress(Space),,,,instrumental,,,,-- -- --- ------ ------- --------- ----------- --------<br>--------- -------- --- ------- -- ------- ---- -- ------<br>of --- -------- -------- ---------- ---- ---- ---- ------<br>-- --------- -- ---- -- --- -- --- ------- -- - -----<br>---------- -- -- -- ---- ----- -- ------ -- --- ------<br>-------,237006.70000004768,237006.30000007153,236464.602,236477.90000009537,236481.122,237014.111,,17,of
screen,html.Screen,2_3_1_0_1_18,2022-02-03T13:10:10.239Z,,,,,,,,,,,,,,,,,48,,,,,,,,,,,,,,183.98900002383743,,response,,,,10,F,,,,,,Space,keypress(Space),,,,instrumental,,,,-- -- --- ------ ------- --------- ----------- --------<br>--------- -------- --- ------- -- ------- ---- -- ------<br>-- ten -------- -------- ---------- ---- ---- ---- ------<br>-- --------- -- ---- -- --- -- --- ------- -- - -----<br>---------- -- -- -- ---- ----- -- ------ -- --- ------<br>-------,237198.70000004768,237198.10000002384,236997.458,237006.80000007153,237014.111,237213.957,,18,ten
screen,html.Screen,2_3_1_0_1_19,2022-02-03T13:10:10.703Z,,,,,,,,,,,,,,,,,48,,,,,,,,,,,,,,448.0430000000051,,response,,,,10,F,,,,,,Space,keypress(Space),,,,instrumental,,,,-- -- --- ------ ------- --------- ----------- --------<br>--------- -------- --- ------- -- ------- ---- -- ------<br>-- --- thousand -------- ---------- ---- ---- ---- ------<br>-- --------- -- ---- -- --- -- --- ------- -- - -----<br>---------- -- -- -- ---- ----- -- ------ -- --- ------<br>-------,237662.5,237662,237197.301,237198.70000004768,237213.957,237663.42,,19,thousand
screen,html.Screen,2_3_1_0_1_20,2022-02-03T13:10:11.191Z,,,,,,,,,,,,,,,,,48,,,,,,,,,,,,,,486.7800000476709,,response,,,,10,F,,,,,,Space,keypress(Space),,,,instrumental,,,,-- -- --- ------ ------- --------- ----------- --------<br>--------- -------- --- ------- -- ------- ---- -- ------<br>-- --- -------- dollars. ---------- ---- ---- ---- ------<br>-- --------- -- ---- -- --- -- --- ------- -- - -----<br>---------- -- -- -- ---- ----- -- ------ -- --- ------<br>-------,238150.70000004768,238150.20000004768,237646.894,237662.60000002384,237663.42,238163.164,,20,dollars.
screen,html.Screen,2_3_1_0_1_21,2022-02-03T13:10:11.743Z,,,,,,,,,,,,,,,,,48,,,,,,,,,,,,,,539.036000047694,,response,,,,10,F,,,,,,Space,keypress(Space),,,,instrumental,,,,-- -- --- ------ ------- --------- ----------- --------<br>--------- -------- --- ------- -- ------- ---- -- ------<br>-- --- -------- -------- Concealing ---- ---- ---- ------<br>-- --------- -- ---- -- --- -- --- ------- -- - -----<br>---------- -- -- -- ---- ----- -- ------ -- --- ------<br>-------,238702.70000004768,238702.20000004768,238146.464,238150.80000007153,238163.164,238712.634,,21,Concealing
screen,html.Screen,2_3_1_0_1_22,2022-02-03T13:10:11.959Z,,,,,,,,,,,,,,,,,48,,,,,,,,,,,,,,205.36600000000908,,response,,,,10,F,,,,,,Space,keypress(Space),,,,instrumental,,,,-- -- --- ------ ------- --------- ----------- --------<br>--------- -------- --- ------- -- ------- ---- -- ------<br>-- --- -------- -------- ---------- more ---- ---- ------<br>-- --------- -- ---- -- --- -- --- ------- -- - -----<br>---------- -- -- -- ---- ----- -- ------ -- --- ------<br>-------,238918.5,238918,238695.987,238702.80000007153,238712.634,238929.121,,22,more
screen,html.Screen,2_3_1_0_1_23,2022-02-03T13:10:12.272Z,,,,,,,,,,,,,,,,,48,,,,,,,,,,,,,,301.57900004767,,response,,,,10,F,,,,,,Space,keypress(Space),,,,instrumental,,,,-- -- --- ------ ------- --------- ----------- --------<br>--------- -------- --- ------- -- ------- ---- -- ------<br>-- --- -------- -------- ---------- ---- than ---- ------<br>-- --------- -- ---- -- --- -- --- ------- -- - -----<br>---------- -- -- -- ---- ----- -- ------ -- --- ------<br>-------,239231.10000002384,239230.70000004768,238912.455,238918.60000002384,238929.121,239245.416,,23,than
screen,html.Screen,2_3_1_0_1_24,2022-02-03T13:10:12.471Z,,,,,,,,,,,,,,,,,48,,,,,,,,,,,,,,184.68400002384442,,response,,,,10,F,,,,,,Space,keypress(Space),,,,instrumental,,,,-- -- --- ------ ------- --------- ----------- --------<br>--------- -------- --- ------- -- ------- ---- -- ------<br>-- --- -------- -------- ---------- ---- ---- that ------<br>-- --------- -- ---- -- --- -- --- ------- -- - -----<br>---------- -- -- -- ---- ----- -- ------ -- --- ------<br>-------,239430.70000004768,239430.10000002384,239228.715,239231.10000002384,239245.416,239445.343,,24,that
screen,html.Screen,2_3_1_0_1_25,2022-02-03T13:10:12.744Z,,,,,,,,,,,,,,,,,48,,,,,,,,,,,,,,256.9570000715321,,response,,,,10,F,,,,,,Space,keypress(Space),,,,instrumental,,,,-- -- --- ------ ------- --------- ----------- --------<br>--------- -------- --- ------- -- ------- ---- -- ------<br>-- --- -------- -------- ---------- ---- ---- ---- amount<br>-- --------- -- ---- -- --- -- --- ------- -- - -----<br>---------- -- -- -- ---- ----- -- ------ -- --- ------<br>-------,239702.90000009537,239702.30000007153,239428.687,239430.70000004768,239445.343,239711.696,,25,amount
screen,html.Screen,2_3_1_0_1_26,2022-02-03T13:10:13.255Z,,,,,,,,,,,,,,,,,48,,,,,,,,,,,,,,502.6040000715293,,response,,,,10,F,,,,,,Space,keypress(Space),,,,instrumental,,,,-- -- --- ------ ------- --------- ----------- --------<br>--------- -------- --- ------- -- ------- ---- -- ------<br>-- --- -------- -------- ---------- ---- ---- ---- ------<br>to --------- -- ---- -- --- -- --- ------- -- - -----<br>---------- -- -- -- ---- ----- -- ------ -- --- ------<br>-------,240214.70000004768,240214.30000007153,239695.106,239702.90000009537,239711.696,240228.014,,26,to
screen,html.Screen,2_3_1_0_1_27,2022-02-03T13:10:13.680Z,,,,,,,,,,,,,,,,,48,,,,,,,,,,,,,,410.28600007153,,response,,,,10,F,,,,,,Space,keypress(Space),,,,instrumental,,,,-- -- --- ------ ------- --------- ----------- --------<br>--------- -------- --- ------- -- ------- ---- -- ------<br>-- --- -------- -------- ---------- ---- ---- ---- ------<br>-- transport -- ---- -- --- -- --- ------- -- - -----<br>---------- -- -- -- ---- ----- -- ------ -- --- ------<br>-------,240638.80000007153,240638.30000007153,240211.328,240214.70000004768,240228.014,240644.265,,27,transport
screen,html.Screen,2_3_1_0_1_28,2022-02-03T13:10:13.919Z,,,,,,,,,,,,,,,,,48,,,,,,,,,,,,,,233.73499999998603,,response,,,,10,F,,,,,,Space,keypress(Space),,,,instrumental,,,,-- -- --- ------ ------- --------- ----------- --------<br>--------- -------- --- ------- -- ------- ---- -- ------<br>-- --- -------- -------- ---------- ---- ---- ---- ------<br>-- --------- it ---- -- --- -- --- ------- -- - -----<br>---------- -- -- -- ---- ----- -- ------ -- --- ------<br>-------,240878.5,240878,240627.625,240638.90000009537,240644.265,240893.956,,28,it
screen,html.Screen,2_3_1_0_1_29,2022-02-03T13:10:14.223Z,,,,,,,,,,,,,,,,,48,,,,,,,,,,,,,,288.34400007152,,response,,,,10,F,,,,,,Space,keypress(Space),,,,instrumental,,,,-- -- --- ------ ------- --------- ----------- --------<br>--------- -------- --- ------- -- ------- ---- -- ------<br>-- --- -------- -------- ---------- ---- ---- ---- ------<br>-- --------- -- into -- --- -- --- ------- -- - -----<br>---------- -- -- -- ---- ----- -- ------ -- --- ------<br>-------,241182.70000004768,241182.30000007153,240877.287,240878.60000002384,240893.956,241193.706,,29,into
screen,html.Screen,2_3_1_0_1_30,2022-02-03T13:10:14.575Z,,,,,,,,,,,,,,,,,48,,,,,,,,,,,,,,340.4940000476781,,response,,,,10,F,,,,,,Space,keypress(Space),,,,instrumental,,,,-- -- --- ------ ------- --------- ----------- --------<br>--------- -------- --- ------- -- ------- ---- -- ------<br>-- --- -------- -------- ---------- ---- ---- ---- ------<br>-- --------- -- ---- or --- -- --- ------- -- - -----<br>---------- -- -- -- ---- ----- -- ------ -- --- ------<br>-------,241534.70000004768,241534.20000004768,241177.142,241182.70000004768,241193.706,241543.453,,30,or
screen,html.Screen,2_3_1_0_1_31,2022-02-03T13:10:14.903Z,,,,,,,,,,,,,,,,,48,,,,,,,,,,,,,,318.7470000476751,,response,,,,10,F,,,,,,Space,keypress(Space),,,,instrumental,,,,-- -- --- ------ ------- --------- ----------- --------<br>--------- -------- --- ------- -- ------- ---- -- ------<br>-- --- -------- -------- ---------- ---- ---- ---- ------<br>-- --------- -- ---- -- out -- --- ------- -- - -----<br>---------- -- -- -- ---- ----- -- ------ -- --- ------<br>-------,241862.60000002384,241862.20000004768,241526.722,241534.80000007153,241543.453,241876.552,,31,out
screen,html.Screen,2_3_1_0_1_32,2022-02-03T13:10:15.287Z,,,,,,,,,,,,,,,,,48,,,,,,,,,,,,,,369.6480000476877,,response,,,,10,F,,,,,,Space,keypress(Space),,,,instrumental,,,,-- -- --- ------ ------- --------- ----------- --------<br>--------- -------- --- ------- -- ------- ---- -- ------<br>-- --- -------- -------- ---------- ---- ---- ---- ------<br>-- --------- -- ---- -- --- of --- ------- -- - -----<br>---------- -- -- -- ---- ----- -- ------ -- --- ------<br>-------,242246.70000004768,242246.20000004768,241859.931,241862.70000004768,241876.552,242259.566,,32,of
screen,html.Screen,2_3_1_0_1_33,2022-02-03T13:10:15.558Z,,,,,,,,,,,,,,,,,48,,,,,,,,,,,,,,257.8340000953758,,response,,,,10,F,,,,,,Space,keypress(Space),,,,instrumental,,,,-- -- --- ------ ------- --------- ----------- --------<br>--------- -------- --- ------- -- ------- ---- -- ------<br>-- --- -------- -------- ---------- ---- ---- ---- ------<br>-- --------- -- ---- -- --- -- the ------- -- - -----<br>---------- -- -- -- ---- ----- -- ------ -- --- ------<br>-------,242517.70000004768,242517.40000009537,242242.88,242246.80000007153,242259.566,242525.813,,33,the
screen,html.Screen,2_3_1_0_1_34,2022-02-03T13:10:16.007Z,,,,,,,,,,,,,,,,,48,,,,,,,,,,,,,,440.2870000238472,,response,,,,10,F,,,,,,Space,keypress(Space),,,,instrumental,,,,-- -- --- ------ ------- --------- ----------- --------<br>--------- -------- --- ------- -- ------- ---- -- ------<br>-- --- -------- -------- ---------- ---- ---- ---- ------<br>-- --------- -- ---- -- --- -- --- country -- - -----<br>---------- -- -- -- ---- ----- -- ------ -- --- ------<br>-------,242966.60000002384,242966.10000002384,242509.118,242517.70000004768,242525.813,242975.6,,34,country
screen,html.Screen,2_3_1_0_1_35,2022-02-03T13:10:16.304Z,,,,,,,,,,,,,,,,,48,,,,,,,,,,,,,,286.70000007151975,,response,,,,10,F,,,,,,Space,keypress(Space),,,,instrumental,,,,-- -- --- ------ ------- --------- ----------- --------<br>--------- -------- --- ------- -- ------- ---- -- ------<br>-- --- -------- -------- ---------- ---- ---- ---- ------<br>-- --------- -- ---- -- --- -- --- ------- is - -----<br>---------- -- -- -- ---- ----- -- ------ -- --- ------<br>-------,243262.80000007153,243262.30000007153,242958.797,242966.60000002384,242975.6,243275.146,,35,is
screen,html.Screen,2_3_1_0_1_36,2022-02-03T13:10:16.655Z,,,,,,,,,,,,,,,,,48,,,,,,,,,,,,,,338.8539999999921,,response,,,,10,F,,,,,,Space,keypress(Space),,,,instrumental,,,,-- -- --- ------ ------- --------- ----------- --------<br>--------- -------- --- ------- -- ------- ---- -- ------<br>-- --- -------- -------- ---------- ---- ---- ---- ------<br>-- --------- -- ---- -- --- -- --- ------- -- a -----<br>---------- -- -- -- ---- ----- -- ------ -- --- ------<br>-------,243614.5,243614,243258.666,243262.80000007153,243275.146,243625.02,,36,a
screen,html.Screen,2_3_1_0_1_37,2022-02-03T13:10:17.007Z,,,,,,,,,,,,,,,,,48,,,,,,,,,,,,,,341.28000007153605,,response,,,,10,F,,,,,,Space,keypress(Space),,,,instrumental,,,,-- -- --- ------ ------- --------- ----------- --------<br>--------- -------- --- ------- -- ------- ---- -- ------<br>-- --- -------- -------- ---------- ---- ---- ---- ------<br>-- --------- -- ---- -- --- -- --- ------- -- - crime<br>---------- -- -- -- ---- ----- -- ------ -- --- ------<br>-------,243966.70000004768,243966.30000007153,243608.358,243614.5,243625.02,243974.61,,37,crime
screen,html.Screen,2_3_1_0_1_38,2022-02-03T13:10:17.599Z,,,,,,,,,,,,,,,,,48,,,,,,,,,,,,,,583.5900000476977,,response,,,,10,F,,,,,,Space,keypress(Space),,,,instrumental,,,,-- -- --- ------ ------- --------- ----------- --------<br>--------- -------- --- ------- -- ------- ---- -- ------<br>-- --- -------- -------- ---------- ---- ---- ---- ------<br>-- --------- -- ---- -- --- -- --- ------- -- - -----<br>punishable -- -- -- ---- ----- -- ------ -- --- ------<br>-------,244558.60000002384,244558.20000004768,243958.047,243966.70000004768,243974.61,244574.136,,38,punishable
screen,html.Screen,2_3_1_0_1_39,2022-02-03T13:10:17.791Z,,,,,,,,,,,,,,,,,48,,,,,,,,,,,,,,175.96400002384325,,response,,,,10,F,,,,,,Space,keypress(Space),,,,instrumental,,,,-- -- --- ------ ------- --------- ----------- --------<br>--------- -------- --- ------- -- ------- ---- -- ------<br>-- --- -------- -------- ---------- ---- ---- ---- ------<br>-- --------- -- ---- -- --- -- --- ------- -- - -----<br>---------- by -- -- ---- ----- -- ------ -- --- ------<br>-------,244750.60000002384,244750.10000002384,244557.373,244558.70000004768,244574.136,244757.225,,39,by
screen,html.Screen,2_3_1_0_1_40,2022-02-03T13:10:18.023Z,,,,,,,,,,,,,,,,,48,,,,,,,,,,,,,,224.6750000953616,,response,,,,10,F,,,,,,Space,keypress(Space),,,,instrumental,,,,-- -- --- ------ ------- --------- ----------- --------<br>--------- -------- --- ------- -- ------- ---- -- ------<br>-- --- -------- -------- ---------- ---- ---- ---- ------<br>-- --------- -- ---- -- --- -- --- ------- -- - -----<br>---------- -- up -- ---- ----- -- ------ -- --- ------<br>-------,244982.20000004768,244981.90000009537,244740.699,244750.60000002384,244757.225,244990.493,,40,up
screen,html.Screen,2_3_1_0_1_41,2022-02-03T13:10:18.279Z,,,,,,,,,,,,,,,,,48,,,,,,,,,,,,,,247.8070000715379,,response,,,,10,F,,,,,,Space,keypress(Space),,,,instrumental,,,,-- -- --- ------ ------- --------- ----------- --------<br>--------- -------- --- ------- -- ------- ---- -- ------<br>-- --- -------- -------- ---------- ---- ---- ---- ------<br>-- --------- -- ---- -- --- -- --- ------- -- - -----<br>---------- -- -- to ---- ----- -- ------ -- --- ------<br>-------,245238.80000007153,245238.30000007153,244973.761,244982.30000007153,244990.493,245240.122,,41,to
screen,html.Screen,2_3_1_0_1_42,2022-02-03T13:10:18.527Z,,,,,,,,,,,,,,,,,48,,,,,,,,,,,,,,245.87799999999697,,response,,,,10,F,,,,,,Space,keypress(Space),,,,instrumental,,,,-- -- --- ------ ------- --------- ----------- --------<br>--------- -------- --- ------- -- ------- ---- -- ------<br>-- --- -------- -------- ---------- ---- ---- ---- ------<br>-- --------- -- ---- -- --- -- --- ------- -- - -----<br>---------- -- -- -- five ----- -- ------ -- --- ------<br>-------,245486.5,245486,245223.619,245238.80000007153,245240.122,245489.869,,42,five
