sender,sender_type,sender_id,timestamp,meta,,Blues,Classical,Country,Dance,Electronic,Folk,Gospel,Hip-Hop,Jazz,Latin,Musical/Film,New-age,Pop,Prolific_id,Provo_ID,R&B,Rap,Reggae,Religious,Rock,Soul,Swing,Traditional,age,artist_name,correct,correctResponse,distraction,duration,education,ended_on,familiarity,gender,headphone_check_performance,item,list,music_frequency,offensiveness,pleasantness,position_correct,preference,response,response_action,snippet_file,song_name,song_rating,sound,stimulus_1,stimulus_2,stimulus_3,text,time_commit,time_end,time_render,time_run,time_show,time_switch,url,word,word_ID
Prolific ID,html.Form,0,2022-02-17T11:13:30.896Z,"{""labjs_version"":""20.2.2"",""labjs_build"":{""flavor"":""production"",""commit"":""a25486e0c714a0ae2ce03ff94b7bb6896854dcfa""},""location"":""https://run.pavlovia.org/mvasilev/prolific2_music_c/"",""userAgent"":""Mozilla/5.0 (X11; CrOS x86_64 14388.52.0) AppleWebKit/537.36 (KHTML, like Gecko) Chrome/98.0.4758.91 Safari/537.36"",""platform"":""Linux x86_64"",""language"":""en-GB"",""locale"":""en-GB"",""timeZone"":""Europe/London"",""timezoneOffset"":0,""screen_width"":1366,""screen_height"":768,""scroll_width"":1366,""scroll_height"":569,""window_innerWidth"":1366,""window_innerHeight"":617,""devicePixelRatio"":1}",,,,,,,,,,,,,,,5f57c77fc54e382d46b65cfa,,,,,,,,,,,,,,,7689.460999999954,,form submission,,,,,,,,,,,,,,,,,,,,,17581.29999999993,17580.699999999953,9591.193,9867.29999999993,9891.239,17590.438,{},,
Introduction,html.Screen,1_0,2022-02-17T11:13:32.742Z,,,,,,,,,,,,,,,,,,,,,,,,,,,,,,,1833.7619999999552,,response,,,,,,,,,,,continue,click button,,,,,,,,,19427.09999999986,19424.199999999953,17573.774,17581.699999999953,17590.438,19440.255,,,
Volume calibration,html.Screen,1_1,2022-02-17T11:13:34.083Z,,,,,,,,,,,,,,,,,,,,,,,,,,,,,,,1322.9449999999524,,response,,,,,,,,,,,continue,click button,,,,,,,,,20768.199999999953,20763.199999999953,19423.591,19427.300000000047,19440.255,20790.115,,,
Task instructions,html.Screen,1_2,2022-02-17T11:13:35.101Z,,,,,,,,,,,,,,,,,,,,,,,,,,,,,,,993.8849999999984,,response,,,,,,,,,,,continue,click button,,,,,,,,,21785.800000000047,21784,20773.451,20768.300000000047,20790.115,21790.01,,,
Sounds,html.Screen,1_3_0_0,2022-02-17T11:13:39.341Z,,,,,,,,,,,,,,,,,,,,,,,,,,,,,,,4249.560000000001,,timeout,,,,,,,,,1,,,,,,,,S,O,I,,26026.399999999907,26022.917,21773.346,21786,21790.01,26039.57,,,
Judgement,html.Screen,1_3_0_1,2022-02-17T11:13:39.882Z,,,,,,,,,,,,,,,,,,,,,,,,,,,,true,1,,524.7300000000469,,response,,,,,,,,,1,,1,click #choice-1,,,,,S,O,I,,26566.800000000047,26564.300000000047,26022.917,26026.59999999986,26039.57,26572.848,,,
Trial,flow.Sequence,1_3_0,2022-02-17T11:13:39.882Z,,,,,,,,,,,,,,,,,,,,,,,,,,,,,,,4774.290000000048,,completion,,,,,,,,,1,,,,,,,,S,O,I,,26567.09999999986,26564.300000000047,21773.346,21786,21790.01,26572.848,,,
Sounds,html.Screen,1_3_1_0,2022-02-17T11:13:44.122Z,,,,,,,,,,,,,,,,,,,,,,,,,,,,,,,4249.565999999999,,timeout,,,,,,,,,2,,,,,,,,O,S,I,,30807.300000000047,30805.758,26556.184,26567.399999999907,26572.848,30822.414,,,
Judgement,html.Screen,1_3_1_1,2022-02-17T11:13:44.552Z,,,,,,,,,,,,,,,,,,,,,,,,,,,,true,2,,412.58599999999933,,response,,,,,,,,,2,,2,click #choice-2,,,,,O,S,I,,31237,31235,30805.758,30807.5,30822.414,31239.033,,,
Trial,flow.Sequence,1_3_1,2022-02-17T11:13:44.552Z,,,,,,,,,,,,,,,,,,,,,,,,,,,,,,,4662.151999999998,,completion,,,,,,,,,2,,,,,,,,O,S,I,,31237.199999999953,31235,26556.184,26567.199999999953,26572.848,31239.033,,,
Sounds,html.Screen,1_3_2_0,2022-02-17T11:13:48.788Z,,,,,,,,,,,,,,,,,,,,,,,,,,,,,,,4249.564999999999,,timeout,,,,,,,,,1,,,,,,,,S,I,O,,35473.39999999991,35471.934,31222.369,31237.399999999907,31239.033,35488.598,,,
Judgement,html.Screen,1_3_2_1,2022-02-17T11:13:49.138Z,,,,,,,,,,,,,,,,,,,,,,,,,,,,true,1,,332.50199999986216,,response,,,,,,,,,1,,1,click #choice-1,,,,,S,I,O,,35823.19999999995,35821.09999999986,35471.934,35473.5,35488.598,35838.563,,,
Trial,flow.Sequence,1_3_2,2022-02-17T11:13:49.138Z,,,,,,,,,,,,,,,,,,,,,,,,,,,,,,,4582.066999999861,,completion,,,,,,,,,1,,,,,,,,S,I,O,,35823.5,35821.09999999986,31222.369,31237.300000000047,31239.033,35838.563,,,
Sounds,html.Screen,1_3_3_0,2022-02-17T11:13:53.388Z,,,,,,,,,,,,,,,,,,,,,,,,,,,,,,,4249.557000000001,,timeout,,,,,,,,,2,,,,,,,,I,S,O,,40072.80000000005,40071.455,35821.896,35823.69999999995,35838.563,40088.12,,,
Judgement,html.Screen,1_3_3_1,2022-02-17T11:13:53.750Z,,,,,,,,,,,,,,,,,,,,,,,,,,,,true,2,,344.9799999998577,,response,,,,,,,,,2,,2,click #choice-2,,,,,I,S,O,,40435.09999999986,40433.09999999986,40071.455,40073,40088.12,40454.739,,,
Trial,flow.Sequence,1_3_3,2022-02-17T11:13:53.750Z,,,,,,,,,,,,,,,,,,,,,,,,,,,,,,,4594.536999999858,,completion,,,,,,,,,2,,,,,,,,I,S,O,,40435.30000000005,40433.09999999986,35821.896,35823.59999999986,35838.563,40454.739,,,
Sounds,html.Screen,1_3_4_0,2022-02-17T11:13:58.006Z,,,,,,,,,,,,,,,,,,,,,,,,,,,,,,,4249.5740000000005,,timeout,,,,,,,,,3,,,,,,,,O,I,S,,44690.69999999995,44687.649,40438.092,40435.39999999991,40454.739,44704.313,,,
Judgement,html.Screen,1_3_4_1,2022-02-17T11:13:58.335Z,,,,,,,,,,,,,,,,,,,,,,,,,,,,true,3,,313.7869999998584,,response,,,,,,,,,3,,3,click #choice-3,,,,,O,I,S,,45019.89999999991,45018.09999999986,44687.649,44691,44704.313,45037.599,,,
Trial,flow.Sequence,1_3_4,2022-02-17T11:13:58.335Z,,,,,,,,,,,,,,,,,,,,,,,,,,,,,,,4563.360999999859,,completion,,,,,,,,,3,,,,,,,,O,I,S,,45020.19999999995,45018.09999999986,40438.092,40435.30000000005,40454.739,45037.599,,,
Sounds,html.Screen,1_3_5_0,2022-02-17T11:14:02.587Z,,,,,,,,,,,,,,,,,,,,,,,,,,,,,,,4249.578999999998,,timeout,,,,,,,,,3,,,,,,,,I,O,S,,49272,49270.506,45020.935,45020.39999999991,45037.599,49287.178,,,
Judgement,html.Screen,1_3_5_1,2022-02-17T11:14:02.954Z,,,,,,,,,,,,,,,,,,,,,,,,,,,,true,3,,350.6220000000467,,response,,,,,,,,,3,,3,click #choice-3,,,,,I,O,S,,49639.69999999995,49637.80000000005,49270.506,49272.09999999986,49287.178,49670.458,,,
Trial,flow.Sequence,1_3_5,2022-02-17T11:14:02.955Z,,,,,,,,,,,,,,,,,,,,,,,,,,,,,,,4600.201000000045,,completion,,,,,,,,,3,,,,,,,,I,O,S,,49640,49637.80000000005,45020.935,45020.30000000005,45037.599,49670.458,,,
Task,flow.Loop,1_3,2022-02-17T11:14:02.961Z,,,,,,,,,,,,,,,,,,,,,,,,,,,,,,,27847.790000000048,,completion,,,1,,,,,,,,,,,,,,,,,,49646.39999999991,49637.80000000005,21773.346,21786,21790.01,49670.458,,,
Trap,html.Screen,1_4,2022-02-17T11:14:02.963Z,,,,,,,,,,,,,,,,,,,,,,,,,,,,,,,NaN,,skipped,,,,,,,,,,,,,,,,,,,,,49648.19999999995,49637.80000000005,,49648,,49670.458,,,
Thanks,html.Screen,1_5,2022-02-17T11:14:04.215Z,,,,,,,,,,,,,,,,,,,,,,,,,,,,,,,1227.7419999999547,,response,,,,,,,,,,,continue,click button,,,,,,,,,50900.09999999986,50898.19999999995,49653.792,49648.30000000005,49670.458,53203.429,,,
Headphone screening,flow.Sequence,1,2022-02-17T11:14:04.215Z,,,,,,,,,,,,,,,,,,,,,,,,,,,,,,,33307.76199999996,,completion,,,,,,,,,,,,,,,,,,,,,50900.30000000005,50898.19999999995,17573.774,17581.599999999977,17590.438,53203.429,,,
Instructions,html.Page,2_0,2022-02-17T11:14:07.610Z,,,,,,,,,,,,,,,,,,,,,,,,,,,,,,,1091.5710000000036,,form submission,,,,,,,,,,,,,,,,,,,,,54295.39999999991,54295,53186.765,53177.80000000005,53203.429,54319.981,,,
Holding screen,html.Screen,2_1_0_0,2022-02-17T11:14:17.624Z,,,,,,,,,,,,,,,,,,,,,,,,,,,,,,,9998.902000000002,,timeout,,,,,,,,,,,,,,,,,,,,,64309.09999999986,64302.219,54303.317,54295.69999999995,54319.981,64318.883,,,
screen,html.Screen,2_1_0_1_0,2022-02-17T11:14:18.607Z,,,,,,,,,,,,,,,,,53,,,,,,,,,,,,,,968.1169999999984,,response,,,,99,,,,,,,Space,keypress(Space),,,,,,,,When -- ----- -- ------ - ------- --- ----------<br>------------- ------ ------ ---- ---- ------- ----- -- ----<br>-------- ------- -- ---------- --- - --- ----- ----- ----<br>---- --- --- ----- --- ---- ---- ------- ----- ---- -------<br>--- --- -- ----- -- --- ---- -- --- ---- -- ------ ------<br>--- ----- -- ----,65291.89999999991,65287,64302.219,64309.39999999991,64318.883,65302.131,,0,When
screen,html.Screen,2_1_0_1_1,2022-02-17T11:14:18.888Z,,,,,,,,,,,,,,,,,53,,,,,,,,,,,,,,268.8689999999988,,response,,,,99,,,,,,,Space,keypress(Space),,,,,,,,---- it ----- -- ------ - ------- --- ----------<br>------------- ------ ------ ---- ---- ------- ----- -- ----<br>-------- ------- -- ---------- --- - --- ----- ----- ----<br>---- --- --- ----- --- ---- ---- ------- ----- ---- -------<br>--- --- -- ----- -- --- ---- -- --- ---- -- ------ ------<br>--- ----- -- ----,65572.80000000005,65571,65285.467,65292.09999999986,65302.131,65585.46,,1,it
screen,html.Screen,2_1_0_1_2,2022-02-17T11:14:19.068Z,,,,,,,,,,,,,,,,,53,,,,,,,,,,,,,,165.43999999990046,,response,,,,99,,,,,,,Space,keypress(Space),,,,,,,,---- -- comes -- ------ - ------- --- ----------<br>------------- ------ ------ ---- ---- ------- ----- -- ----<br>-------- ------- -- ---------- --- - --- ----- ----- ----<br>---- --- --- ----- --- ---- ---- ------- ----- ---- -------<br>--- --- -- ----- -- --- ---- -- --- ---- -- ------ ------<br>--- ----- -- ----,65753.09999999986,65750.8999999999,65568.796,65573,65585.46,65768.793,,2,comes
screen,html.Screen,2_1_0_1_3,2022-02-17T11:14:19.234Z,,,,,,,,,,,,,,,,,53,,,,,,,,,,,,,,148.9069999999483,,response,,,,99,,,,,,,Space,keypress(Space),,,,,,,,---- -- ----- to ------ - ------- --- ----------<br>------------- ------ ------ ---- ---- ------- ----- -- ----<br>-------- ------- -- ---------- --- - --- ----- ----- ----<br>---- --- --- ----- --- ---- ---- ------- ----- ---- -------<br>--- --- -- ----- -- --- ---- -- --- ---- -- ------ ------<br>--- ----- -- ----,65919.3999999999,65917.69999999995,65752.129,65753.30000000005,65768.793,65935.434,,3,to
screen,html.Screen,2_1_0_1_4,2022-02-17T11:14:19.428Z,,,,,,,,,,,,,,,,,53,,,,,,,,,,,,,,176.16599999986647,,response,,,,99,,,,,,,Space,keypress(Space),,,,,,,,---- -- ----- -- having - ------- --- ----------<br>------------- ------ ------ ---- ---- ------- ----- -- ----<br>-------- ------- -- ---------- --- - --- ----- ----- ----<br>---- --- --- ----- --- ---- ---- ------- ----- ---- -------<br>--- --- -- ----- -- --- ---- -- --- ---- -- ------ ------<br>--- ----- -- ----,66113.3999999999,66111.59999999986,65918.77,65919.59999999986,65935.434,66118.747,,4,having
screen,html.Screen,2_1_0_1_5,2022-02-17T11:14:19.635Z,,,,,,,,,,,,,,,,,53,,,,,,,,,,,,,,199.05300000004354,,response,,,,99,,,,,,,Space,keypress(Space),,,,,,,,---- -- ----- -- ------ a ------- --- ----------<br>------------- ------ ------ ---- ---- ------- ----- -- ----<br>-------- ------- -- ---------- --- - --- ----- ----- ----<br>---- --- --- ----- --- ---- ---- ------- ----- ---- -------<br>--- --- -- ----- -- --- ---- -- --- ---- -- ------ ------<br>--- ----- -- ----,66320,66317.80000000005,66102.083,66113.59999999986,66118.747,66335.388,,5,a
screen,html.Screen,2_1_0_1_6,2022-02-17T11:14:19.792Z,,,,,,,,,,,,,,,,,53,,,,,,,,,,,,,,139.31199999994715,,response,,,,99,,,,,,,Space,keypress(Space),,,,,,,,---- -- ----- -- ------ - lasting --- ----------<br>------------- ------ ------ ---- ---- ------- ----- -- ----<br>-------- ------- -- ---------- --- - --- ----- ----- ----<br>---- --- --- ----- --- ---- ---- ------- ----- ---- -------<br>--- --- -- ----- -- --- ---- -- --- ---- -- ------ ------<br>--- ----- -- ----,66476.69999999995,66474.69999999995,66318.724,66320.19999999995,66335.388,66485.377,,6,lasting
screen,html.Screen,2_1_0_1_7,2022-02-17T11:14:19.966Z,,,,,,,,,,,,,,,,,53,,,,,,,,,,,,,,164.42300000005343,,response,,,,99,,,,,,,Space,keypress(Space),,,,,,,,---- -- ----- -- ------ - ------- and ----------<br>------------- ------ ------ ---- ---- ------- ----- -- ----<br>-------- ------- -- ---------- --- - --- ----- ----- ----<br>---- --- --- ----- --- ---- ---- ------- ----- ---- -------<br>--- --- -- ----- -- --- ---- -- --- ---- -- ------ ------<br>--- ----- -- ----,66651.3999999999,66649.80000000005,66468.713,66476.8999999999,66485.377,66668.688,,7,and
screen,html.Screen,2_1_0_1_8,2022-02-17T11:14:20.192Z,,,,,,,,,,,,,,,,,53,,,,,,,,,,,,,,207.21199999991222,,response,,,,99,,,,,,,Space,keypress(Space),,,,,,,,---- -- ----- -- ------ - ------- --- fulfilling<br>------------- ------ ------ ---- ---- ------- ----- -- ----<br>-------- ------- -- ---------- --- - --- ----- ----- ----<br>---- --- --- ----- --- ---- ---- ------- ----- ---- -------<br>--- --- -- ----- -- --- ---- -- --- ---- -- ------ ------<br>--- ----- -- ----,66877.59999999986,66875.8999999999,66652.024,66651.59999999986,66668.688,66885.342,,8,fulfilling
screen,html.Screen,2_1_0_1_9,2022-02-17T11:14:20.391Z,,,,,,,,,,,,,,,,,53,,,,,,,,,,,,,,188.6579999999958,,response,,,,99,,,,,,,Space,keypress(Space),,,,,,,,"---- -- ----- -- ------ - ------- --- ----------<br>relationship, ------ ------ ---- ---- ------- ----- -- ----<br>-------- ------- -- ---------- --- - --- ----- ----- ----<br>---- --- --- ----- --- ---- ---- ------- ----- ---- -------<br>--- --- -- ----- -- --- ---- -- --- ---- -- ------ ------<br>--- ----- -- ----",67075.8999999999,67074,66868.678,66877.69999999995,66885.342,67085.317,,9,"relationship,"
screen,html.Screen,2_1_0_1_10,2022-02-17T11:14:20.557Z,,,,,,,,,,,,,,,,,53,,,,,,,,,,,,,,155.18300000000454,,response,,,,99,,,,,,,Space,keypress(Space),,,,,,,,---- -- ----- -- ------ - ------- --- ----------<br>------------- common ------ ---- ---- ------- ----- -- ----<br>-------- ------- -- ---------- --- - --- ----- ----- ----<br>---- --- --- ----- --- ---- ---- ------- ----- ---- -------<br>--- --- -- ----- -- --- ---- -- --- ---- -- ------ ------<br>--- ----- -- ----,67242.09999999986,67240.5,67068.653,67076.09999999986,67085.317,67251.96,,10,common
screen,html.Screen,2_1_0_1_11,2022-02-17T11:14:20.721Z,,,,,,,,,,,,,,,,,53,,,,,,,,,,,,,,151.43999999990046,,response,,,,99,,,,,,,Space,keypress(Space),,,,,,,,---- -- ----- -- ------ - ------- --- ----------<br>------------- ------ wisdom ---- ---- ------- ----- -- ----<br>-------- ------- -- ---------- --- - --- ----- ----- ----<br>---- --- --- ----- --- ---- ---- ------- ----- ---- -------<br>--- --- -- ----- -- --- ---- -- --- ---- -- ------ ------<br>--- ----- -- ----,67405.8999999999,67403.3999999999,67235.296,67242.30000000005,67251.96,67418.609,,11,wisdom
screen,html.Screen,2_1_0_1_12,2022-02-17T11:14:20.896Z,,,,,,,,,,,,,,,,,53,,,,,,,,,,,,,,161.39100000000326,,response,,,,99,,,,,,,Space,keypress(Space),,,,,,,,---- -- ----- -- ------ - ------- --- ----------<br>------------- ------ ------ says ---- ------- ----- -- ----<br>-------- ------- -- ---------- --- - --- ----- ----- ----<br>---- --- --- ----- --- ---- ---- ------- ----- ---- -------<br>--- --- -- ----- -- --- ---- -- --- ---- -- ------ ------<br>--- ----- -- ----,67581.59999999986,67580,67401.945,67406,67418.609,67585.268,,12,says
screen,html.Screen,2_1_0_1_13,2022-02-17T11:14:21.089Z,,,,,,,,,,,,,,,,,53,,,,,,,,,,,,,,187.43199999995704,,response,,,,99,,,,,,,Space,keypress(Space),,,,,,,,---- -- ----- -- ------ - ------- --- ----------<br>------------- ------ ------ ---- that ------- ----- -- ----<br>-------- ------- -- ---------- --- - --- ----- ----- ----<br>---- --- --- ----- --- ---- ---- ------- ----- ---- -------<br>--- --- -- ----- -- --- ---- -- --- ---- -- ------ ------<br>--- ----- -- ----,67774.19999999995,67772.69999999995,67568.604,67581.80000000005,67585.268,67785.239,,13,that
screen,html.Screen,2_1_0_1_14,2022-02-17T11:14:21.255Z,,,,,,,,,,,,,,,,,53,,,,,,,,,,,,,,153.06100000004517,,response,,,,99,,,,,,,Space,keypress(Space),,,,,,,,---- -- ----- -- ------ - ------- --- ----------<br>------------- ------ ------ ---- ---- feeling ----- -- ----<br>-------- ------- -- ---------- --- - --- ----- ----- ----<br>---- --- --- ----- --- ---- ---- ------- ----- ---- -------<br>--- --- -- ----- -- --- ---- -- --- ---- -- ------ ------<br>--- ----- -- ----,67940,67938.30000000005,67768.575,67774.3999999999,67785.239,67951.903,,14,feeling
screen,html.Screen,2_1_0_1_15,2022-02-17T11:14:21.441Z,,,,,,,,,,,,,,,,,53,,,,,,,,,,,,,,172.39700000004086,,response,,,,99,,,,,,,Space,keypress(Space),,,,,,,,---- -- ----- -- ------ - ------- --- ----------<br>------------- ------ ------ ---- ---- ------- close -- ----<br>-------- ------- -- ---------- --- - --- ----- ----- ----<br>---- --- --- ----- --- ---- ---- ------- ----- ---- -------<br>--- --- -- ----- -- --- ---- -- --- ---- -- ------ ------<br>--- ----- -- ----,68125.8999999999,68124.30000000005,67935.239,67940.09999999986,67951.903,68135.21,,15,close
screen,html.Screen,2_1_0_1_16,2022-02-17T11:14:21.605Z,,,,,,,,,,,,,,,,,53,,,,,,,,,,,,,,152.8899999998539,,response,,,,99,,,,,,,Space,keypress(Space),,,,,,,,---- -- ----- -- ------ - ------- --- ----------<br>------------- ------ ------ ---- ---- ------- ----- to ----<br>-------- ------- -- ---------- --- - --- ----- ----- ----<br>---- --- --- ----- --- ---- ---- ------- ----- ---- -------<br>--- --- -- ----- -- --- ---- -- --- ---- -- ------ ------<br>--- ----- -- ----,68290,68288.09999999986,68118.546,68126,68135.21,68301.861,,16,to
screen,html.Screen,2_1_0_1_17,2022-02-17T11:14:21.759Z,,,,,,,,,,,,,,,,,53,,,,,,,,,,,,,,139.93900000004214,,response,,,,99,,,,,,,Space,keypress(Space),,,,,,,,---- -- ----- -- ------ - ------- --- ----------<br>------------- ------ ------ ---- ---- ------- ----- -- your<br>-------- ------- -- ---------- --- - --- ----- ----- ----<br>---- --- --- ----- --- ---- ---- ------- ----- ---- -------<br>--- --- -- ----- -- --- ---- -- --- ---- -- ------ ------<br>--- ----- -- ----,68444,68441.80000000005,68285.197,68290.30000000005,68301.861,68451.84,,17,your
screen,html.Screen,2_1_0_1_18,2022-02-17T11:14:21.951Z,,,,,,,,,,,,,,,,,53,,,,,,,,,,,,,,182.05999999991036,,response,,,,99,,,,,,,Space,keypress(Space),,,,,,,,---- -- ----- -- ------ - ------- --- ----------<br>------------- ------ ------ ---- ---- ------- ----- -- ----<br>romantic ------- -- ---------- --- - --- ----- ----- ----<br>---- --- --- ----- --- ---- ---- ------- ----- ---- -------<br>--- --- -- ----- -- --- ---- -- --- ---- -- ------ ------<br>--- ----- -- ----,68635.8999999999,68633.8999999999,68435.176,68444.09999999986,68451.84,68651.812,,18,romantic
screen,html.Screen,2_1_0_1_19,2022-02-17T11:14:22.101Z,,,,,,,,,,,,,,,,,53,,,,,,,,,,,,,,132.78799999985495,,response,,,,99,,,,,,,Space,keypress(Space),,,,,,,,---- -- ----- -- ------ - ------- --- ----------<br>------------- ------ ------ ---- ---- ------- ----- -- ----<br>-------- partner -- ---------- --- - --- ----- ----- ----<br>---- --- --- ----- --- ---- ---- ------- ----- ---- -------<br>--- --- -- ----- -- --- ---- -- --- ---- -- ------ ------<br>--- ----- -- ----,68786.5,68784.59999999986,68635.148,68636,68651.812,68801.817,,19,partner
screen,html.Screen,2_1_0_1_20,2022-02-17T11:14:22.284Z,,,,,,,,,,,,,,,,,53,,,,,,,,,,,,,,164.78299999986484,,response,,,,99,,,,,,,Space,keypress(Space),,,,,,,,---- -- ----- -- ------ - ------- --- ----------<br>------------- ------ ------ ---- ---- ------- ----- -- ----<br>-------- ------- is ---------- --- - --- ----- ----- ----<br>---- --- --- ----- --- ---- ---- ------- ----- ---- -------<br>--- --- -- ----- -- --- ---- -- --- ---- -- ------ ------<br>--- ----- -- ----,68968.80000000005,68966.59999999986,68785.153,68786.59999999986,68801.817,68985.12,,20,is
screen,html.Screen,2_1_0_1_21,2022-02-17T11:14:22.468Z,,,,,,,,,,,,,,,,,53,,,,,,,,,,,,,,166.97999999986496,,response,,,,99,,,,,,,Space,keypress(Space),,,,,,,,---- -- ----- -- ------ - ------- --- ----------<br>------------- ------ ------ ---- ---- ------- ----- -- ----<br>-------- ------- -- paramount. --- - --- ----- ----- ----<br>---- --- --- ----- --- ---- ---- ------- ----- ---- -------<br>--- --- -- ----- -- --- ---- -- --- ---- -- ------ ------<br>--- ----- -- ----,69153.59999999986,69152.09999999986,68968.456,68969,68985.12,69168.44,,21,paramount.
screen,html.Screen,2_1_0_1_22,2022-02-17T11:14:22.616Z,,,,,,,,,,,,,,,,,53,,,,,,,,,,,,,,130.95999999990454,,response,,,,99,,,,,,,Space,keypress(Space),,,,,,,,---- -- ----- -- ------ - ------- --- ----------<br>------------- ------ ------ ---- ---- ------- ----- -- ----<br>-------- ------- -- ---------- But - --- ----- ----- ----<br>---- --- --- ----- --- ---- ---- ------- ----- ---- -------<br>--- --- -- ----- -- --- ---- -- --- ---- -- ------ ------<br>--- ----- -- ----,69301.5,69299.3999999999,69151.776,69154,69168.44,69318.413,,22,But
screen,html.Screen,2_1_0_1_23,2022-02-17T11:14:22.764Z,,,,,,,,,,,,,,,,,53,,,,,,,,,,,,,,128.78699999995297,,response,,,,99,,,,,,,Space,keypress(Space),,,,,,,,---- -- ----- -- ------ - ------- --- ----------<br>------------- ------ ------ ---- ---- ------- ----- -- ----<br>-------- ------- -- ---------- --- a --- ----- ----- ----<br>---- --- --- ----- --- ---- ---- ------- ----- ---- -------<br>--- --- -- ----- -- --- ---- -- --- ---- -- ------ ------<br>--- ----- -- ----,69449,69447.19999999995,69301.749,69301.59999999986,69318.413,69451.748,,23,a
screen,html.Screen,2_1_0_1_24,2022-02-17T11:14:22.922Z,,,,,,,,,,,,,,,,,53,,,,,,,,,,,,,,152.75199999999313,,response,,,,99,,,,,,,Space,keypress(Space),,,,,,,,---- -- ----- -- ------ - ------- --- ----------<br>------------- ------ ------ ---- ---- ------- ----- -- ----<br>-------- ------- -- ---------- --- - new ----- ----- ----<br>---- --- --- ----- --- ---- ---- ------- ----- ---- -------<br>--- --- -- ----- -- --- ---- -- --- ---- -- ------ ------<br>--- ----- -- ----,69606.80000000005,69604.5,69435.084,69449.19999999995,69451.748,69618.392,,24,new
screen,html.Screen,2_1_0_1_25,2022-02-17T11:14:23.126Z,,,,,,,,,,,,,,,,,53,,,,,,,,,,,,,,190.80799999994633,,response,,,,99,,,,,,,Space,keypress(Space),,,,,,,,---- -- ----- -- ------ - ------- --- ----------<br>------------- ------ ------ ---- ---- ------- ----- -- ----<br>-------- ------- -- ---------- --- - --- study ----- ----<br>---- --- --- ----- --- ---- ---- ------- ----- ---- -------<br>--- --- -- ----- -- --- ---- -- --- ---- -- ------ ------<br>--- ----- -- ----,69811.19999999995,69809.19999999995,69601.728,69606.8999999999,69618.392,69818.361,,25,study
screen,html.Screen,2_1_0_1_26,2022-02-17T11:14:23.280Z,,,,,,,,,,,,,,,,,53,,,,,,,,,,,,,,144.93900000004214,,response,,,,99,,,,,,,Space,keypress(Space),,,,,,,,---- -- ----- -- ------ - ------- --- ----------<br>------------- ------ ------ ---- ---- ------- ----- -- ----<br>-------- ------- -- ---------- --- - --- ----- finds ----<br>---- --- --- ----- --- ---- ---- ------- ----- ---- -------<br>--- --- -- ----- -- --- ---- -- --- ---- -- ------ ------<br>--- ----- -- ----,69965.19999999995,69963.30000000005,69801.697,69811.3999999999,69818.361,69968.344,,26,finds
screen,html.Screen,2_1_0_1_27,2022-02-17T11:14:23.427Z,,,,,,,,,,,,,,,,,53,,,,,,,,,,,,,,142.65600000000268,,response,,,,99,,,,,,,Space,keypress(Space),,,,,,,,---- -- ----- -- ------ - ------- --- ----------<br>------------- ------ ------ ---- ---- ------- ----- -- ----<br>-------- ------- -- ---------- --- - --- ----- ----- that<br>---- --- --- ----- --- ---- ---- ------- ----- ---- -------<br>--- --- -- ----- -- --- ---- -- --- ---- -- ------ ------<br>--- ----- -- ----,70112.59999999986,70111,69951.68,69965.30000000005,69968.344,70118.339,,27,that
screen,html.Screen,2_1_0_1_28,2022-02-17T11:14:23.585Z,,,,,,,,,,,,,,,,,53,,,,,,,,,,,,,,149.96100000003935,,response,,,,99,,,,,,,Space,keypress(Space),,,,,,,,---- -- ----- -- ------ - ------- --- ----------<br>------------- ------ ------ ---- ---- ------- ----- -- ----<br>-------- ------- -- ---------- --- - --- ----- ----- ----<br>it's --- --- ----- --- ---- ---- ------- ----- ---- -------<br>--- --- -- ----- -- --- ---- -- --- ---- -- ------ ------<br>--- ----- -- ----,70270,70268.30000000005,70101.675,70112.80000000005,70118.339,70284.987,,28,it's
screen,html.Screen,2_1_0_1_29,2022-02-17T11:14:23.794Z,,,,,,,,,,,,,,,,,53,,,,,,,,,,,,,,192.6129999998666,,response,,,,99,,,,,,,Space,keypress(Space),,,,,,,,---- -- ----- -- ------ - ------- --- ----------<br>------------- ------ ------ ---- ---- ------- ----- -- ----<br>-------- ------- -- ---------- --- - --- ----- ----- ----<br>---- not --- ----- --- ---- ---- ------- ----- ---- -------<br>--- --- -- ----- -- --- ---- -- --- ---- -- ------ ------<br>--- ----- -- ----,70479.30000000005,70477.59999999986,70268.323,70270.19999999995,70284.987,70484.96,,29,not
screen,html.Screen,2_1_0_1_30,2022-02-17T11:14:23.920Z,,,,,,,,,,,,,,,,,53,,,,,,,,,,,,,,117.93999999990046,,response,,,,99,,,,,,,Space,keypress(Space),,,,,,,,---- -- ----- -- ------ - ------- --- ----------<br>------------- ------ ------ ---- ---- ------- ----- -- ----<br>-------- ------- -- ---------- --- - --- ----- ----- ----<br>---- --- how ----- --- ---- ---- ------- ----- ---- -------<br>--- --- -- ----- -- --- ---- -- --- ---- -- ------ ------<br>--- ----- -- ----,70604.80000000005,70602.8999999999,70468.296,70479.3999999999,70484.96,70618.288,,30,how
screen,html.Screen,2_1_0_1_31,2022-02-17T11:14:24.108Z,,,,,,,,,,,,,,,,,53,,,,,,,,,,,,,,173.91199999995297,,response,,,,99,,,,,,,Space,keypress(Space),,,,,,,,---- -- ----- -- ------ - ------- --- ----------<br>------------- ------ ------ ---- ---- ------- ----- -- ----<br>-------- ------- -- ---------- --- - --- ----- ----- ----<br>---- --- --- close --- ---- ---- ------- ----- ---- -------<br>--- --- -- ----- -- --- ---- -- --- ---- -- ------ ------<br>--- ----- -- ----,70793.69999999995,70792.19999999995,70601.624,70605,70618.288,70801.602,,31,close
screen,html.Screen,2_1_0_1_32,2022-02-17T11:14:24.273Z,,,,,,,,,,,,,,,,,53,,,,,,,,,,,,,,154.1980000000476,,response,,,,99,,,,,,,Space,keypress(Space),,,,,,,,---- -- ----- -- ------ - ------- --- ----------<br>------------- ------ ------ ---- ---- ------- ----- -- ----<br>-------- ------- -- ---------- --- - --- ----- ----- ----<br>---- --- --- ----- you ---- ---- ------- ----- ---- -------<br>--- --- -- ----- -- --- ---- -- --- ---- -- ------ ------<br>--- ----- -- ----,70957.8999999999,70955.80000000005,70784.938,70793.8999999999,70801.602,70968.25,,32,you
screen,html.Screen,2_1_0_1_33,2022-02-17T11:14:24.445Z,,,,,,,,,,,,,,,,,53,,,,,,,,,,,,,,159.8499999998603,,response,,,,99,,,,,,,Space,keypress(Space),,,,,,,,---- -- ----- -- ------ - ------- --- ----------<br>------------- ------ ------ ---- ---- ------- ----- -- ----<br>-------- ------- -- ---------- --- - --- ----- ----- ----<br>---- --- --- ----- --- feel ---- ------- ----- ---- -------<br>--- --- -- ----- -- --- ---- -- --- ---- -- ------ ------<br>--- ----- -- ----,71129.80000000005,71128.09999999986,70951.586,70958,70968.25,71134.901,,33,feel
screen,html.Screen,2_1_0_1_34,2022-02-17T11:14:24.618Z,,,,,,,,,,,,,,,,,53,,,,,,,,,,,,,,166.49899999990885,,response,,,,99,,,,,,,Space,keypress(Space),,,,,,,,---- -- ----- -- ------ - ------- --- ----------<br>------------- ------ ------ ---- ---- ------- ----- -- ----<br>-------- ------- -- ---------- --- - --- ----- ----- ----<br>---- --- --- ----- --- ---- that ------- ----- ---- -------<br>--- --- -- ----- -- --- ---- -- --- ---- -- ------ ------<br>--- ----- -- ----,71303.19999999995,71301.3999999999,71118.237,71129.8999999999,71134.901,71318.214,,34,that
screen,html.Screen,2_1_0_1_35,2022-02-17T11:14:24.801Z,,,,,,,,,,,,,,,,,53,,,,,,,,,,,,,,165.98599999994622,,response,,,,99,,,,,,,Space,keypress(Space),,,,,,,,---- -- ----- -- ------ - ------- --- ----------<br>------------- ------ ------ ---- ---- ------- ----- -- ----<br>-------- ------- -- ---------- --- - --- ----- ----- ----<br>---- --- --- ----- --- ---- ---- matters ----- ---- -------<br>--- --- -- ----- -- --- ---- -- --- ---- -- ------ ------<br>--- ----- -- ----,71486.3999999999,71484.19999999995,71301.55,71303.30000000005,71318.214,71501.528,,35,matters
screen,html.Screen,2_1_0_1_36,2022-02-17T11:14:24.967Z,,,,,,,,,,,,,,,,,53,,,,,,,,,,,,,,148.87199999990116,,response,,,,99,,,,,,,Space,keypress(Space),,,,,,,,"---- -- ----- -- ------ - ------- --- ----------<br>------------- ------ ------ ---- ---- ------- ----- -- ----<br>-------- ------- -- ---------- --- - --- ----- ----- ----<br>---- --- --- ----- --- ---- ---- ------- most, ---- -------<br>--- --- -- ----- -- --- ---- -- --- ---- -- ------ ------<br>--- ----- -- ----",71652.19999999995,71650.3999999999,71484.864,71486.59999999986,71501.528,71668.177,,36,"most,"
screen,html.Screen,2_1_0_1_37,2022-02-17T11:14:25.146Z,,,,,,,,,,,,,,,,,53,,,,,,,,,,,,,,161.5229999999574,,response,,,,99,,,,,,,Space,keypress(Space),,,,,,,,---- -- ----- -- ------ - ------- --- ----------<br>------------- ------ ------ ---- ---- ------- ----- -- ----<br>-------- ------- -- ---------- --- - --- ----- ----- ----<br>---- --- --- ----- --- ---- ---- ------- ----- it's -------<br>--- --- -- ----- -- --- ---- -- --- ---- -- ------ ------<br>--- ----- -- ----,71831.59999999986,71829.69999999995,71651.513,71652.3999999999,71668.177,71834.826,,37,it's
screen,html.Screen,2_1_0_1_38,2022-02-17T11:14:25.326Z,,,,,,,,,,,,,,,,,53,,,,,,,,,,,,,,174.67399999999907,,response,,,,99,,,,,,,Space,keypress(Space),,,,,,,,---- -- ----- -- ------ - ------- --- ----------<br>------------- ------ ------ ---- ---- ------- ----- -- ----<br>-------- ------- -- ---------- --- - --- ----- ----- ----<br>---- --- --- ----- --- ---- ---- ------- ----- ---- whether<br>--- --- -- ----- -- --- ---- -- --- ---- -- ------ ------<br>--- ----- -- ----,72011,72009.5,71818.162,71831.8999999999,71834.826,72018.15,,38,whether
screen,html.Screen,2_1_0_1_39,2022-02-17T11:14:25.514Z,,,,,,,,,,,,,,,,,53,,,,,,,,,,,,,,179.04999999995925,,response,,,,99,,,,,,,Space,keypress(Space),,,,,,,,---- -- ----- -- ------ - ------- --- ----------<br>------------- ------ ------ ---- ---- ------- ----- -- ----<br>-------- ------- -- ---------- --- - --- ----- ----- ----<br>---- --- --- ----- --- ---- ---- ------- ----- ---- -------<br>you --- -- ----- -- --- ---- -- --- ---- -- ------ ------<br>--- ----- -- ----,72199.09999999986,72197.19999999995,72001.486,72011.19999999995,72018.15,72201.455,,39,you
screen,html.Screen,2_1_0_1_40,2022-02-17T11:14:25.699Z,,,,,,,,,,,,,,,,,53,,,,,,,,,,,,,,180.54499999999825,,response,,,,99,,,,,,,Space,keypress(Space),,,,,,,,---- -- ----- -- ------ - ------- --- ----------<br>------------- ------ ------ ---- ---- ------- ----- -- ----<br>-------- ------- -- ---------- --- - --- ----- ----- ----<br>---- --- --- ----- --- ---- ---- ------- ----- ---- -------<br>--- are -- ----- -- --- ---- -- --- ---- -- ------ ------<br>--- ----- -- ----,72383.8999999999,72382,72184.791,72199.19999999995,72201.455,72384.763,,40,are
screen,html.Screen,2_1_0_1_41,2022-02-17T11:14:25.869Z,,,,,,,,,,,,,,,,,53,,,,,,,,,,,,,,167.43699999994715,,response,,,,99,,,,,,,Space,keypress(Space),,,,,,,,---- -- ----- -- ------ - ------- --- ----------<br>------------- ------ ------ ---- ---- ------- ----- -- ----<br>-------- ------- -- ---------- --- - --- ----- ----- ----<br>---- --- --- ----- --- ---- ---- ------- ----- ---- -------<br>--- --- as ----- -- --- ---- -- --- ---- -- ------ ------<br>--- ----- -- ----,72553.8999999999,72552.19999999995,72368.099,72384,72384.763,72568.086,,41,as
screen,html.Screen,2_1_0_1_42,2022-02-17T11:14:26.055Z,,,,,,,,,,,,,,,,,53,,,,,,,,,,,,,,169.9140000000043,,response,,,,99,,,,,,,Space,keypress(Space),,,,,,,,---- -- ----- -- ------ - ------- --- ----------<br>------------- ------ ------ ---- ---- ------- ----- -- ----<br>-------- ------- -- ---------- --- - --- ----- ----- ----<br>---- --- --- ----- --- ---- ---- ------- ----- ---- -------<br>--- --- -- close -- --- ---- -- --- ---- -- ------ ------<br>--- ----- -- ----,72739.80000000005,72738,72551.422,72554,72568.086,72751.397,,42,close
screen,html.Screen,2_1_0_1_43,2022-02-17T11:14:26.224Z,,,,,,,,,,,,,,,,,53,,,,,,,,,,,,,,156.1030000000028,,response,,,,99,,,,,,,Space,keypress(Space),,,,,,,,---- -- ----- -- ------ - ------- --- ----------<br>------------- ------ ------ ---- ---- ------- ----- -- ----<br>-------- ------- -- ---------- --- - --- ----- ----- ----<br>---- --- --- ----- --- ---- ---- ------- ----- ---- -------<br>--- --- -- ----- as --- ---- -- --- ---- -- ------ ------<br>--- ----- -- ----,72909.19999999995,72907.5,72734.733,72740,72751.397,72918.039,,43,as
screen,html.Screen,2_1_0_1_44,2022-02-17T11:14:26.399Z,,,,,,,,,,,,,,,,,53,,,,,,,,,,,,,,165.060999999856,,response,,,,99,,,,,,,Space,keypress(Space),,,,,,,,---- -- ----- -- ------ - ------- --- ----------<br>------------- ------ ------ ---- ---- ------- ----- -- ----<br>-------- ------- -- ---------- --- - --- ----- ----- ----<br>---- --- --- ----- --- ---- ---- ------- ----- ---- -------<br>--- --- -- ----- -- you ---- -- --- ---- -- ------ ------<br>--- ----- -- ----,73084.59999999986,73083.09999999986,72901.375,72909.30000000005,72918.039,73101.369,,44,you
screen,html.Screen,2_1_0_1_45,2022-02-17T11:14:26.586Z,,,,,,,,,,,,,,,,,53,,,,,,,,,,,,,,167.73099999985425,,response,,,,99,,,,,,,Space,keypress(Space),,,,,,,,---- -- ----- -- ------ - ------- --- ----------<br>------------- ------ ------ ---- ---- ------- ----- -- ----<br>-------- ------- -- ---------- --- - --- ----- ----- ----<br>---- --- --- ----- --- ---- ---- ------- ----- ---- -------<br>--- --- -- ----- -- --- want -- --- ---- -- ------ ------<br>--- ----- -- ----,73270.69999999995,73269.09999999986,73084.705,73084.80000000005,73101.369,73284.682,,45,want
screen,html.Screen,2_1_0_1_46,2022-02-17T11:14:26.801Z,,,,,,,,,,,,,,,,,53,,,,,,,,,,,,,,199.4179999998596,,response,,,,99,,,,,,,Space,keypress(Space),,,,,,,,---- -- ----- -- ------ - ------- --- ----------<br>------------- ------ ------ ---- ---- ------- ----- -- ----<br>-------- ------- -- ---------- --- - --- ----- ----- ----<br>---- --- --- ----- --- ---- ---- ------- ----- ---- -------<br>--- --- -- ----- -- --- ---- to --- ---- -- ------ ------<br>--- ----- -- ----,73486.5,73484.09999999986,73268.018,73270.8999999999,73284.682,73501.307,,46,to
screen,html.Screen,2_1_0_1_47,2022-02-17T11:14:26.983Z,,,,,,,,,,,,,,,,,53,,,,,,,,,,,,,,164.6929999999993,,response,,,,99,,,,,,,Space,keypress(Space),,,,,,,,"---- -- ----- -- ------ - ------- --- ----------<br>------------- ------ ------ ---- ---- ------- ----- -- ----<br>-------- ------- -- ---------- --- - --- ----- ----- ----<br>---- --- --- ----- --- ---- ---- ------- ----- ---- -------<br>--- --- -- ----- -- --- ---- -- be, ---- -- ------ ------<br>--- ----- -- ----",73668,73666,73484.643,73486.69999999995,73501.307,73684.642,,47,"be,"
screen,html.Screen,2_1_0_1_48,2022-02-17T11:14:27.165Z,,,,,,,,,,,,,,,,,53,,,,,,,,,,,,,,163.75799999989977,,response,,,,99,,,,,,,Space,keypress(Space),,,,,,,,---- -- ----- -- ------ - ------- --- ----------<br>------------- ------ ------ ---- ---- ------- ----- -- ----<br>-------- ------- -- ---------- --- - --- ----- ----- ----<br>---- --- --- ----- --- ---- ---- ------- ----- ---- -------<br>--- --- -- ----- -- --- ---- -- --- even -- ------ ------<br>--- ----- -- ----,73850.3999999999,73848.3999999999,73667.978,73668.19999999995,73684.642,73867.954,,48,even
screen,html.Screen,2_1_0_1_49,2022-02-17T11:14:27.348Z,,,,,,,,,,,,,,,,,53,,,,,,,,,,,,,,163.44599999990896,,response,,,,99,,,,,,,Space,keypress(Space),,,,,,,,---- -- ----- -- ------ - ------- --- ----------<br>------------- ------ ------ ---- ---- ------- ----- -- ----<br>-------- ------- -- ---------- --- - --- ----- ----- ----<br>---- --- --- ----- --- ---- ---- ------- ----- ---- -------<br>--- --- -- ----- -- --- ---- -- --- ---- if ------ ------<br>--- ----- -- ----,74033.59999999986,74031.3999999999,73851.286,73850.59999999986,73867.954,74034.609,,49,if
screen,html.Screen,2_1_0_1_50,2022-02-17T11:14:27.529Z,,,,,,,,,,,,,,,,,53,,,,,,,,,,,,,,178.0909999999567,,response,,,,99,,,,,,,Space,keypress(Space),,,,,,,,---- -- ----- -- ------ - ------- --- ----------<br>------------- ------ ------ ---- ---- ------- ----- -- ----<br>-------- ------- -- ---------- --- - --- ----- ----- ----<br>---- --- --- ----- --- ---- ---- ------- ----- ---- -------<br>--- --- -- ----- -- --- ---- -- --- ---- -- that's ------<br>--- ----- -- ----,74214.3999999999,74212.69999999995,74017.945,74033.69999999995,74034.609,74217.911,,50,that's
screen,html.Screen,2_1_0_1_51,2022-02-17T11:14:27.722Z,,,,,,,,,,,,,,,,,53,,,,,,,,,,,,,,187.18899999986752,,response,,,,99,,,,,,,Space,keypress(Space),,,,,,,,---- -- ----- -- ------ - ------- --- ----------<br>------------- ------ ------ ---- ---- ------- ----- -- ----<br>-------- ------- -- ---------- --- - --- ----- ----- ----<br>---- --- --- ----- --- ---- ---- ------- ----- ---- -------<br>--- --- -- ----- -- --- ---- -- --- ---- -- ------ really<br>--- ----- -- ----,74406.8999999999,74405.09999999986,74201.247,74214.5,74217.911,74417.897,,51,really
screen,html.Screen,2_1_0_1_52,2022-02-17T11:14:27.911Z,,,,,,,,,,,,,,,,,53,,,,,,,,,,,,,,176.50299999990966,,response,,,,99,,,,,,,Space,keypress(Space),,,,,,,,---- -- ----- -- ------ - ------- --- ----------<br>------------- ------ ------ ---- ---- ------- ----- -- ----<br>-------- ------- -- ---------- --- - --- ----- ----- ----<br>---- --- --- ----- --- ---- ---- ------- ----- ---- -------<br>--- --- -- ----- -- --- ---- -- --- ---- -- ------ ------<br>not ----- -- ----,74595.8999999999,74594.3999999999,74401.233,74407.09999999986,74417.897,74601.21,,52,not
screen,html.Screen,2_1_0_1_53,2022-02-17T11:14:28.094Z,,,,,,,,,,,,,,,,,53,,,,,,,,,,,,,,175.98999999994703,,response,,,,99,,,,,,,Space,keypress(Space),,,,,,,,---- -- ----- -- ------ - ------- --- ----------<br>------------- ------ ------ ---- ---- ------- ----- -- ----<br>-------- ------- -- ---------- --- - --- ----- ----- ----<br>---- --- --- ----- --- ---- ---- ------- ----- ---- -------<br>--- --- -- ----- -- --- ---- -- --- ---- -- ------ ------<br>--- close -- ----,74778.80000000005,74777.19999999995,74584.546,74596.09999999986,74601.21,74784.525,,53,close
screen,html.Screen,2_1_0_1_54,2022-02-17T11:14:28.275Z,,,,,,,,,,,,,,,,,53,,,,,,,,,,,,,,174.57499999986612,,response,,,,99,,,,,,,Space,keypress(Space),,,,,,,,---- -- ----- -- ------ - ------- --- ----------<br>------------- ------ ------ ---- ---- ------- ----- -- ----<br>-------- ------- -- ---------- --- - --- ----- ----- ----<br>---- --- --- ----- --- ---- ---- ------- ----- ---- -------<br>--- --- -- ----- -- --- ---- -- --- ---- -- ------ ------<br>--- ----- at ----,74960.59999999986,74959.09999999986,74767.861,74780,74784.525,74967.838,,54,at
screen,html.Screen,2_1_0_1_55,2022-02-17T11:14:28.477Z,,,,,,,,,,,,,,,,,53,,,,,,,,,,,,,,193.26199999985693,,response,,,,99,,,,,,,Space,keypress(Space),,,,,,,,---- -- ----- -- ------ - ------- --- ----------<br>------------- ------ ------ ---- ---- ------- ----- -- ----<br>-------- ------- -- ---------- --- - --- ----- ----- ----<br>---- --- --- ----- --- ---- ---- ------- ----- ---- -------<br>--- --- -- ----- -- --- ---- -- --- ---- -- ------ ------<br>--- ----- -- all.,75162.69999999995,75161.09999999986,74951.174,74960.80000000005,74967.838,75167.807,,55,all.
Item 99,flow.Loop,2_1_0_1,2022-02-17T11:14:28.478Z,,,,,,,,,,,,,,,,,,,,,,,,,,,,,,,10842.216999999859,,completion,,,,,C,,,,,,,,,,,silence,,,,,75163,75161.09999999986,64302.219,64309.30000000005,64318.883,75167.807,,,
Question 1,html.Screen,2_1_0_2,2022-02-17T11:14:31.672Z,,,,,,,,,,,,,,,,,,,,,,,,,,,,true,FALSE,,3187.3929999999527,,response,,,,99,C,,,,,,FALSE,click #choice-2,,,,silence,,,,,78356.80000000005,78355.19999999995,75151.143,75163.19999999995,75167.807,78384.155,,,
Question 2,html.Screen,2_1_0_3,2022-02-17T11:14:34.883Z,,,,,,,,,,,,,,,,,,,,,,,,,,,,true,TRUE,,3182.0449999999546,,response,,,,99,C,,,,,,TRUE,click #choice-1,,,,silence,,,,,81568.09999999986,81566.19999999995,78367.491,78357,78384.155,81583.822,,,
Item 99,flow.Sequence,2_1_0,2022-02-17T11:14:34.883Z,,,,,,,,,,,,,,,,,,,,,,,,,,,,,,,27246.218999999954,,completion,,,,,,,,,,,,,,,,,,,,,81568.30000000005,81566.19999999995,54303.317,54295.69999999995,54319.981,81583.822,,,
Holding screen,html.Screen,2_1_1_0,2022-02-17T11:14:44.882Z,,,,,,,,,,,,,,,,,,,,,,,,,,,,,,,9998.904999999999,,timeout,,,,,,,,,,,,,,,,,,,,,91566.8999999999,91566.063,81567.158,81568.5,81583.822,91582.727,,,
screen,html.Screen,2_1_1_1_0,2022-02-17T11:14:45.259Z,,,,,,,,,,,,,,,,,54,,,,,,,,,,,,,,359.37299999986135,,response,,,,100,,,,,,,Space,keypress(Space),,,,,,,,At --- ---- --- ------ ----- ------- ---- -- --- ------- --<br>------- ---------- ------ -- ----- -- ----- -- ---- ------<br>--- ----- --- --- ------ -------- ----- --- ------ ----- --<br>----- ----- ---------- --- --- ------ ------ ---- -- ------<br>------- --- ------ ----- --- ---- ------- -- ---- --- --<br>------- ------,91944.3999999999,91942.09999999986,91566.063,91567.19999999995,91582.727,91949.392,,0,At
screen,html.Screen,2_1_1_1_1,2022-02-17T11:14:45.450Z,,,,,,,,,,,,,,,,,54,,,,,,,,,,,,,,183.80799999994633,,response,,,,100,,,,,,,Space,keypress(Space),,,,,,,,-- the ---- --- ------ ----- ------- ---- -- --- ------- --<br>------- ---------- ------ -- ----- -- ----- -- ---- ------<br>--- ----- --- --- ------ -------- ----- --- ------ ----- --<br>----- ----- ---------- --- --- ------ ------ ---- -- ------<br>------- --- ------ ----- --- ---- ------- -- ---- --- --<br>------- ------,92135,92133.19999999995,91932.728,91944.69999999995,91949.392,92149.392,,1,the
screen,html.Screen,2_1_1_1_2,2022-02-17T11:14:45.630Z,,,,,,,,,,,,,,,,,54,,,,,,,,,,,,,,163.6079999999929,,response,,,,100,,,,,,,Space,keypress(Space),,,,,,,,-- --- time --- ------ ----- ------- ---- -- --- ------- --<br>------- ---------- ------ -- ----- -- ----- -- ---- ------<br>--- ----- --- --- ------ -------- ----- --- ------ ----- --<br>----- ----- ---------- --- --- ------ ------ ---- -- ------<br>------- --- ------ ----- --- ---- ------- -- ---- --- --<br>------- ------,92314.8999999999,92313,92132.728,92135.19999999995,92149.392,92316.043,,2,time
screen,html.Screen,2_1_1_1_3,2022-02-17T11:14:45.796Z,,,,,,,,,,,,,,,,,54,,,,,,,,,,,,,,163.75700000004144,,response,,,,100,,,,,,,Space,keypress(Space),,,,,,,,-- --- ---- the ------ ----- ------- ---- -- --- ------- --<br>------- ---------- ------ -- ----- -- ----- -- ---- ------<br>--- ----- --- --- ------ -------- ----- --- ------ ----- --<br>----- ----- ---------- --- --- ------ ------ ---- -- ------<br>------- --- ------ ----- --- ---- ------- -- ---- --- --<br>------- ------,92481.69999999995,92479.80000000005,92299.379,92315,92316.043,92482.681,,3,the
screen,html.Screen,2_1_1_1_4,2022-02-17T11:14:45.941Z,,,,,,,,,,,,,,,,,54,,,,,,,,,,,,,,141.6190000000497,,response,,,,100,,,,,,,Space,keypress(Space),,,,,,,,-- --- ---- --- French ----- ------- ---- -- --- ------- --<br>------- ---------- ------ -- ----- -- ----- -- ---- ------<br>--- ----- --- --- ------ -------- ----- --- ------ ----- --<br>----- ----- ---------- --- --- ------ ------ ---- -- ------<br>------- --- ------ ----- --- ---- ------- -- ---- --- --<br>------- ------,92626.09999999986,92624.30000000005,92466.017,92481.8999999999,92482.681,92632.685,,4,French
screen,html.Screen,2_1_1_1_5,2022-02-17T11:14:46.110Z,,,,,,,,,,,,,,,,,54,,,,,,,,,,,,,,160.7149999999092,,response,,,,100,,,,,,,Space,keypress(Space),,,,,,,,-- --- ---- --- ------ crown ------- ---- -- --- ------- --<br>------- ---------- ------ -- ----- -- ----- -- ---- ------<br>--- ----- --- --- ------ -------- ----- --- ------ ----- --<br>----- ----- ---------- --- --- ------ ------ ---- -- ------<br>------- --- ------ ----- --- ---- ------- -- ---- --- --<br>------- ------,92795.19999999995,92793.3999999999,92616.021,92626.30000000005,92632.685,92799.327,,5,crown
screen,html.Screen,2_1_1_1_6,2022-02-17T11:14:46.302Z,,,,,,,,,,,,,,,,,54,,,,,,,,,,,,,,186.77299999985553,,response,,,,100,,,,,,,Space,keypress(Space),,,,,,,,-- --- ---- --- ------ ----- secured ---- -- --- ------- --<br>------- ---------- ------ -- ----- -- ----- -- ---- ------<br>--- ----- --- --- ------ -------- ----- --- ------ ----- --<br>----- ----- ---------- --- --- ------ ------ ---- -- ------<br>------- --- ------ ----- --- ---- ------- -- ---- --- --<br>------- ------,92987.59999999986,92986.09999999986,92782.663,92795.3999999999,92799.327,92999.3,,6,secured
screen,html.Screen,2_1_1_1_7,2022-02-17T11:14:46.486Z,,,,,,,,,,,,,,,,,54,,,,,,,,,,,,,,170.00000000004366,,response,,,,100,,,,,,,Space,keypress(Space),,,,,,,,-- --- ---- --- ------ ----- ------- much -- --- ------- --<br>------- ---------- ------ -- ----- -- ----- -- ---- ------<br>--- ----- --- --- ------ -------- ----- --- ------ ----- --<br>----- ----- ---------- --- --- ------ ------ ---- -- ------<br>------- --- ------ ----- --- ---- ------- -- ---- --- --<br>------- ------,93171.3999999999,93169.30000000005,92982.636,92987.8999999999,92999.3,93182.619,,7,much
screen,html.Screen,2_1_1_1_8,2022-02-17T11:14:46.658Z,,,,,,,,,,,,,,,,,54,,,,,,,,,,,,,,158.48099999985425,,response,,,,100,,,,,,,Space,keypress(Space),,,,,,,,-- --- ---- --- ------ ----- ------- ---- of --- ------- --<br>------- ---------- ------ -- ----- -- ----- -- ---- ------<br>--- ----- --- --- ------ -------- ----- --- ------ ----- --<br>----- ----- ---------- --- --- ------ ------ ---- -- ------<br>------- --- ------ ----- --- ---- ------- -- ---- --- --<br>------- ------,93343.09999999986,93341.09999999986,93165.955,93171.5,93182.619,93349.266,,8,of
screen,html.Screen,2_1_1_1_9,2022-02-17T11:14:46.831Z,,,,,,,,,,,,,,,,,54,,,,,,,,,,,,,,164.93399999995017,,response,,,,100,,,,,,,Space,keypress(Space),,,,,,,,-- --- ---- --- ------ ----- ------- ---- -- its ------- --<br>------- ---------- ------ -- ----- -- ----- -- ---- ------<br>--- ----- --- --- ------ -------- ----- --- ------ ----- --<br>----- ----- ---------- --- --- ------ ------ ---- -- ------<br>------- --- ------ ----- --- ---- ------- -- ---- --- --<br>------- ------,93515.8999999999,93514.19999999995,93332.602,93343.30000000005,93349.266,93532.57,,9,its
screen,html.Screen,2_1_1_1_10,2022-02-17T11:14:47.004Z,,,,,,,,,,,,,,,,,54,,,,,,,,,,,,,,154.92999999999302,,response,,,,100,,,,,,,Space,keypress(Space),,,,,,,,-- --- ---- --- ------ ----- ------- ---- -- --- revenue --<br>------- ---------- ------ -- ----- -- ----- -- ---- ------<br>--- ----- --- --- ------ -------- ----- --- ------ ----- --<br>----- ----- ---------- --- --- ------ ------ ---- -- ------<br>------- --- ------ ----- --- ---- ------- -- ---- --- --<br>------- ------,93688.8999999999,93687.5,93515.906,93516.09999999986,93532.57,93699.232,,10,revenue
screen,html.Screen,2_1_1_1_11,2022-02-17T11:14:47.183Z,,,,,,,,,,,,,,,,,54,,,,,,,,,,,,,,167.8679999998567,,response,,,,100,,,,,,,Space,keypress(Space),,,,,,,,-- --- ---- --- ------ ----- ------- ---- -- --- ------- by<br>------- ---------- ------ -- ----- -- ----- -- ---- ------<br>--- ----- --- --- ------ -------- ----- --- ------ ----- --<br>----- ----- ---------- --- --- ------ ------ ---- -- ------<br>------- --- ------ ----- --- ---- ------- -- ---- --- --<br>------- ------,93868.69999999995,93867.09999999986,93682.568,93689.09999999986,93699.232,93882.548,,11,by
screen,html.Screen,2_1_1_1_12,2022-02-17T11:14:47.365Z,,,,,,,,,,,,,,,,,54,,,,,,,,,,,,,,166.45200000000477,,response,,,,100,,,,,,,Space,keypress(Space),,,,,,,,-- --- ---- --- ------ ----- ------- ---- -- --- ------- --<br>issuing ---------- ------ -- ----- -- ----- -- ---- ------<br>--- ----- --- --- ------ -------- ----- --- ------ ----- --<br>----- ----- ---------- --- --- ------ ------ ---- -- ------<br>------- --- ------ ----- --- ---- ------- -- ---- --- --<br>------- ------,94050.59999999986,94049,93865.884,93868.8999999999,93882.548,94065.863,,12,issuing
screen,html.Screen,2_1_1_1_13,2022-02-17T11:14:47.554Z,,,,,,,,,,,,,,,,,54,,,,,,,,,,,,,,171.23699999986275,,response,,,,100,,,,,,,Space,keypress(Space),,,,,,,,-- --- ---- --- ------ ----- ------- ---- -- --- ------- --<br>------- government ------ -- ----- -- ----- -- ---- ------<br>--- ----- --- --- ------ -------- ----- --- ------ ----- --<br>----- ----- ---------- --- --- ------ ------ ---- -- ------<br>------- --- ------ ----- --- ---- ------- -- ---- --- --<br>------- ------,94238.8999999999,94237.09999999986,94049.199,94050.80000000005,94065.863,94249.167,,13,government
screen,html.Screen,2_1_1_1_14,2022-02-17T11:14:47.727Z,,,,,,,,,,,,,,,,,54,,,,,,,,,,,,,,161.33299999999872,,response,,,,100,,,,,,,Space,keypress(Space),,,,,,,,-- --- ---- --- ------ ----- ------- ---- -- --- ------- --<br>------- ---------- bonds. -- ----- -- ----- -- ---- ------<br>--- ----- --- --- ------ -------- ----- --- ------ ----- --<br>----- ----- ---------- --- --- ------ ------ ---- -- ------<br>------- --- ------ ----- --- ---- ------- -- ---- --- --<br>------- ------,94412.69999999995,94410.5,94232.503,94239.09999999986,94249.167,94415.816,,14,bonds.
screen,html.Screen,2_1_1_1_15,2022-02-17T11:14:47.887Z,,,,,,,,,,,,,,,,,54,,,,,,,,,,,,,,154.0839999999007,,response,,,,100,,,,,,,Space,keypress(Space),,,,,,,,-- --- ---- --- ------ ----- ------- ---- -- --- ------- --<br>------- ---------- ------ In ----- -- ----- -- ---- ------<br>--- ----- --- --- ------ -------- ----- --- ------ ----- --<br>----- ----- ---------- --- --- ------ ------ ---- -- ------<br>------- --- ------ ----- --- ---- ------- -- ---- --- --<br>------- ------,94571.80000000005,94569.8999999999,94399.152,94412.80000000005,94415.816,94582.47,,15,In
screen,html.Screen,2_1_1_1_16,2022-02-17T11:14:48.075Z,,,,,,,,,,,,,,,,,54,,,,,,,,,,,,,,176.4299999999057,,response,,,,100,,,,,,,Space,keypress(Space),,,,,,,,"-- --- ---- --- ------ ----- ------- ---- -- --- ------- --<br>------- ---------- ------ -- 1727, -- ----- -- ---- ------<br>--- ----- --- --- ------ -------- ----- --- ------ ----- --<br>----- ----- ---------- --- --- ------ ------ ---- -- ------<br>------- --- ------ ----- --- ---- ------- -- ---- --- --<br>------- ------",94760.69999999995,94758.8999999999,94565.806,94572,94582.47,94765.78,,16,"1727,"
screen,html.Screen,2_1_1_1_17,2022-02-17T11:14:48.286Z,,,,,,,,,,,,,,,,,54,,,,,,,,,,,,,,203.22000000000116,,response,,,,100,,,,,,,Space,keypress(Space),,,,,,,,-- --- ---- --- ------ ----- ------- ---- -- --- ------- --<br>------- ---------- ------ -- ----- in ----- -- ---- ------<br>--- ----- --- --- ------ -------- ----- --- ------ ----- --<br>----- ----- ---------- --- --- ------ ------ ---- -- ------<br>------- --- ------ ----- --- ---- ------- -- ---- --- --<br>------- ------,94970.80000000005,94969,94749.116,94760.80000000005,94765.78,94982.423,,17,in
screen,html.Screen,2_1_1_1_18,2022-02-17T11:14:48.491Z,,,,,,,,,,,,,,,,,54,,,,,,,,,,,,,,191.67699999986507,,response,,,,100,,,,,,,Space,keypress(Space),,,,,,,,-- --- ---- --- ------ ----- ------- ---- -- --- ------- --<br>------- ---------- ------ -- ----- -- order -- ---- ------<br>--- ----- --- --- ------ -------- ----- --- ------ ----- --<br>----- ----- ---------- --- --- ------ ------ ---- -- ------<br>------- --- ------ ----- --- ---- ------- -- ---- --- --<br>------- ------,95175.8999999999,95174.09999999986,94965.759,94971,94982.423,95182.407,,18,order
screen,html.Screen,2_1_1_1_19,2022-02-17T11:14:48.682Z,,,,,,,,,,,,,,,,,54,,,,,,,,,,,,,,183.49299999990035,,response,,,,100,,,,,,,Space,keypress(Space),,,,,,,,-- --- ---- --- ------ ----- ------- ---- -- --- ------- --<br>------- ---------- ------ -- ----- -- ----- to ---- ------<br>--- ----- --- --- ------ -------- ----- --- ------ ----- --<br>----- ----- ---------- --- --- ------ ------ ---- -- ------<br>------- --- ------ ----- --- ---- ------- -- ---- --- --<br>------- ------,95367.59999999986,95365.8999999999,95165.743,95176.09999999986,95182.407,95382.396,,19,to
screen,html.Screen,2_1_1_1_20,2022-02-17T11:14:48.868Z,,,,,,,,,,,,,,,,,54,,,,,,,,,,,,,,169.5039999999135,,response,,,,100,,,,,,,Space,keypress(Space),,,,,,,,-- --- ---- --- ------ ----- ------- ---- -- --- ------- --<br>------- ---------- ------ -- ----- -- ----- -- save ------<br>--- ----- --- --- ------ -------- ----- --- ------ ----- --<br>----- ----- ---------- --- --- ------ ------ ---- -- ------<br>------- --- ------ ----- --- ---- ------- -- ---- --- --<br>------- ------,95553.69999999995,95551.8999999999,95365.732,95367.69999999995,95382.396,95565.703,,20,save
screen,html.Screen,2_1_1_1_21,2022-02-17T11:14:49.059Z,,,,,,,,,,,,,,,,,54,,,,,,,,,,,,,,176.99699999995937,,response,,,,100,,,,,,,Space,keypress(Space),,,,,,,,"-- --- ---- --- ------ ----- ------- ---- -- --- ------- --<br>------- ---------- ------ -- ----- -- ----- -- ---- money,<br>--- ----- --- --- ------ -------- ----- --- ------ ----- --<br>----- ----- ---------- --- --- ------ ------ ---- -- ------<br>------- --- ------ ----- --- ---- ------- -- ---- --- --<br>------- ------",95744.59999999986,95742.69999999995,95549.039,95553.8999999999,95565.703,95749.013,,21,"money,"
screen,html.Screen,2_1_1_1_22,2022-02-17T11:14:49.242Z,,,,,,,,,,,,,,,,,54,,,,,,,,,,,,,,176.08699999985402,,response,,,,100,,,,,,,Space,keypress(Space),,,,,,,,-- --- ---- --- ------ ----- ------- ---- -- --- ------- --<br>------- ---------- ------ -- ----- -- ----- -- ---- ------<br>the ----- --- --- ------ -------- ----- --- ------ ----- --<br>----- ----- ---------- --- --- ------ ------ ---- -- ------<br>------- --- ------ ----- --- ---- ------- -- ---- --- --<br>------- ------,95927,95925.09999999986,95732.349,95744.69999999995,95749.013,95932.326,,22,the
screen,html.Screen,2_1_1_1_23,2022-02-17T11:14:49.432Z,,,,,,,,,,,,,,,,,54,,,,,,,,,,,,,,182.8739999999525,,response,,,,100,,,,,,,Space,keypress(Space),,,,,,,,-- --- ---- --- ------ ----- ------- ---- -- --- ------- --<br>------- ---------- ------ -- ----- -- ----- -- ---- ------<br>--- state --- --- ------ -------- ----- --- ------ ----- --<br>----- ----- ---------- --- --- ------ ------ ---- -- ------<br>------- --- ------ ----- --- ---- ------- -- ---- --- --<br>------- ------,96117,96115.19999999995,95915.662,95927.19999999995,95932.326,96132.307,,23,state
screen,html.Screen,2_1_1_1_24,2022-02-17T11:14:49.618Z,,,,,,,,,,,,,,,,,54,,,,,,,,,,,,,,169.39299999995274,,response,,,,100,,,,,,,Space,keypress(Space),,,,,,,,-- --- ---- --- ------ ----- ------- ---- -- --- ------- --<br>------- ---------- ------ -- ----- -- ----- -- ---- ------<br>--- ----- cut --- ------ -------- ----- --- ------ ----- --<br>----- ----- ---------- --- --- ------ ------ ---- -- ------<br>------- --- ------ ----- --- ---- ------- -- ---- --- --<br>------- ------,96303.3999999999,96301.69999999995,96115.643,96117.09999999986,96132.307,96315.614,,24,cut
screen,html.Screen,2_1_1_1_25,2022-02-17T11:14:49.800Z,,,,,,,,,,,,,,,,,54,,,,,,,,,,,,,,167.8859999999986,,response,,,,100,,,,,,,Space,keypress(Space),,,,,,,,-- --- ---- --- ------ ----- ------- ---- -- --- ------- --<br>------- ---------- ------ -- ----- -- ----- -- ---- ------<br>--- ----- --- the ------ -------- ----- --- ------ ----- --<br>----- ----- ---------- --- --- ------ ------ ---- -- ------<br>------- --- ------ ----- --- ---- ------- -- ---- --- --<br>------- ------,96485.3999999999,96483.5,96298.95,96303.59999999986,96315.614,96498.94,,25,the
screen,html.Screen,2_1_1_1_26,2022-02-17T11:14:49.984Z,,,,,,,,,,,,,,,,,54,,,,,,,,,,,,,,168.05999999999767,,response,,,,100,,,,,,,Space,keypress(Space),,,,,,,,-- --- ---- --- ------ ----- ------- ---- -- --- ------- --<br>------- ---------- ------ -- ----- -- ----- -- ---- ------<br>--- ----- --- --- bonds' -------- ----- --- ------ ----- --<br>----- ----- ---------- --- --- ------ ------ ---- -- ------<br>------- --- ------ ----- --- ---- ------- -- ---- --- --<br>------- ------,96668.8999999999,96667,96482.276,96485.59999999986,96498.94,96682.248,,26,bonds'
screen,html.Screen,2_1_1_1_27,2022-02-17T11:14:50.167Z,,,,,,,,,,,,,,,,,54,,,,,,,,,,,,,,168.0520000000397,,response,,,,100,,,,,,,Space,keypress(Space),,,,,,,,-- --- ---- --- ------ ----- ------- ---- -- --- ------- --<br>------- ---------- ------ -- ----- -- ----- -- ---- ------<br>--- ----- --- --- ------ interest ----- --- ------ ----- --<br>----- ----- ---------- --- --- ------ ------ ---- -- ------<br>------- --- ------ ----- --- ---- ------- -- ---- --- --<br>------- ------,96851.80000000005,96850.30000000005,96665.584,96669.09999999986,96682.248,96865.566,,27,interest
screen,html.Screen,2_1_1_1_28,2022-02-17T11:14:50.370Z,,,,,,,,,,,,,,,,,54,,,,,,,,,,,,,,187.43399999999383,,response,,,,100,,,,,,,Space,keypress(Space),,,,,,,,-- --- ---- --- ------ ----- ------- ---- -- --- ------- --<br>------- ---------- ------ -- ----- -- ----- -- ---- ------<br>--- ----- --- --- ------ -------- rate. --- ------ ----- --<br>----- ----- ---------- --- --- ------ ------ ---- -- ------<br>------- --- ------ ----- --- ---- ------- -- ---- --- --<br>------- ------,97055.30000000005,97053,96848.902,96852.09999999986,96865.566,97065.554,,28,rate.
screen,html.Screen,2_1_1_1_29,2022-02-17T11:14:50.546Z,,,,,,,,,,,,,,,,,54,,,,,,,,,,,,,,163.54599999985658,,response,,,,100,,,,,,,Space,keypress(Space),,,,,,,,-- --- ---- --- ------ ----- ------- ---- -- --- ------- --<br>------- ---------- ------ -- ----- -- ----- -- ---- ------<br>--- ----- --- --- ------ -------- ----- The ------ ----- --<br>----- ----- ---------- --- --- ------ ------ ---- -- ------<br>------- --- ------ ----- --- ---- ------- -- ---- --- --<br>------- ------,97231.09999999986,97229.09999999986,97048.89,97055.3999999999,97065.554,97232.19,,29,The
screen,html.Screen,2_1_1_1_30,2022-02-17T11:14:50.752Z,,,,,,,,,,,,,,,,,54,,,,,,,,,,,,,,202.80999999999767,,response,,,,100,,,,,,,Space,keypress(Space),,,,,,,,-- --- ---- --- ------ ----- ------- ---- -- --- ------- --<br>------- ---------- ------ -- ----- -- ----- -- ---- ------<br>--- ----- --- --- ------ -------- ----- --- market ----- --<br>----- ----- ---------- --- --- ------ ------ ---- -- ------<br>------- --- ------ ----- --- ---- ------- -- ---- --- --<br>------- ------,97437,97435,97215.526,97231.30000000005,97232.19,97448.829,,30,market
screen,html.Screen,2_1_1_1_31,2022-02-17T11:14:50.926Z,,,,,,,,,,,,,,,,,54,,,,,,,,,,,,,,160.37099999995553,,response,,,,100,,,,,,,Space,keypress(Space),,,,,,,,-- --- ---- --- ------ ----- ------- ---- -- --- ------- --<br>------- ---------- ------ -- ----- -- ----- -- ---- ------<br>--- ----- --- --- ------ -------- ----- --- ------ value --<br>----- ----- ---------- --- --- ------ ------ ---- -- ------<br>------- --- ------ ----- --- ---- ------- -- ---- --- --<br>------- ------,97611.30000000005,97609.19999999995,97432.165,97437.19999999995,97448.829,97615.484,,31,value
screen,html.Screen,2_1_1_1_32,2022-02-17T11:14:51.121Z,,,,,,,,,,,,,,,,,54,,,,,,,,,,,,,,188.91599999991013,,response,,,,100,,,,,,,Space,keypress(Space),,,,,,,,-- --- ---- --- ------ ----- ------- ---- -- --- ------- --<br>------- ---------- ------ -- ----- -- ----- -- ---- ------<br>--- ----- --- --- ------ -------- ----- --- ------ ----- of<br>----- ----- ---------- --- --- ------ ------ ---- -- ------<br>------- --- ------ ----- --- ---- ------- -- ---- --- --<br>------- ------,97806.30000000005,97804.3999999999,97598.82,97611.3999999999,97615.484,97815.473,,32,of
screen,html.Screen,2_1_1_1_33,2022-02-17T11:14:51.337Z,,,,,,,,,,,,,,,,,54,,,,,,,,,,,,,,204.52700000000186,,response,,,,100,,,,,,,Space,keypress(Space),,,,,,,,-- --- ---- --- ------ ----- ------- ---- -- --- ------- --<br>------- ---------- ------ -- ----- -- ----- -- ---- ------<br>--- ----- --- --- ------ -------- ----- --- ------ ----- --<br>these ----- ---------- --- --- ------ ------ ---- -- ------<br>------- --- ------ ----- --- ---- ------- -- ---- --- --<br>------- ------,98022.09999999986,98020,97798.809,97806.5,97815.473,98032.115,,33,these
screen,html.Screen,2_1_1_1_34,2022-02-17T11:14:51.520Z,,,,,,,,,,,,,,,,,54,,,,,,,,,,,,,,171.28499999990163,,response,,,,100,,,,,,,Space,keypress(Space),,,,,,,,-- --- ---- --- ------ ----- ------- ---- -- --- ------- --<br>------- ---------- ------ -- ----- -- ----- -- ---- ------<br>--- ----- --- --- ------ -------- ----- --- ------ ----- --<br>----- bonds ---------- --- --- ------ ------ ---- -- ------<br>------- --- ------ ----- --- ---- ------- -- ---- --- --<br>------- ------,98205.09999999986,98203.3999999999,98015.451,98022.19999999995,98032.115,98215.42,,34,bonds
screen,html.Screen,2_1_1_1_35,2022-02-17T11:14:51.705Z,,,,,,,,,,,,,,,,,54,,,,,,,,,,,,,,173.4799999999086,,response,,,,100,,,,,,,Space,keypress(Space),,,,,,,,"-- --- ---- --- ------ ----- ------- ---- -- --- ------- --<br>------- ---------- ------ -- ----- -- ----- -- ---- ------<br>--- ----- --- --- ------ -------- ----- --- ------ ----- --<br>----- ----- plummeted, --- --- ------ ------ ---- -- ------<br>------- --- ------ ----- --- ---- ------- -- ---- --- --<br>------- ------",98390.5,98388.8999999999,98198.756,98205.30000000005,98215.42,98398.751,,35,"plummeted,"
screen,html.Screen,2_1_1_1_36,2022-02-17T11:14:51.896Z,,,,,,,,,,,,,,,,,54,,,,,,,,,,,,,,180.34899999985646,,response,,,,100,,,,,,,Space,keypress(Space),,,,,,,,-- --- ---- --- ------ ----- ------- ---- -- --- ------- --<br>------- ---------- ------ -- ----- -- ----- -- ---- ------<br>--- ----- --- --- ------ -------- ----- --- ------ ----- --<br>----- ----- ---------- and --- ------ ------ ---- -- ------<br>------- --- ------ ----- --- ---- ------- -- ---- --- --<br>------- ------,98580.69999999995,98579.09999999986,98382.087,98390.59999999986,98398.751,98582.062,,36,and
screen,html.Screen,2_1_1_1_37,2022-02-17T11:14:52.089Z,,,,,,,,,,,,,,,,,54,,,,,,,,,,,,,,189.93799999999464,,response,,,,100,,,,,,,Space,keypress(Space),,,,,,,,-- --- ---- --- ------ ----- ------- ---- -- --- ------- --<br>------- ---------- ------ -- ----- -- ----- -- ---- ------<br>--- ----- --- --- ------ -------- ----- --- ------ ----- --<br>----- ----- ---------- --- the ------ ------ ---- -- ------<br>------- --- ------ ----- --- ---- ------- -- ---- --- --<br>------- ------,98773.8999999999,98772,98565.398,98581,98582.062,98782.03,,37,the
screen,html.Screen,2_1_1_1_38,2022-02-17T11:14:52.291Z,,,,,,,,,,,,,,,,,54,,,,,,,,,,,,,,192.97000000000116,,response,,,,100,,,,,,,Space,keypress(Space),,,,,,,,-- --- ---- --- ------ ----- ------- ---- -- --- ------- --<br>------- ---------- ------ -- ----- -- ----- -- ---- ------<br>--- ----- --- --- ------ -------- ----- --- ------ ----- --<br>----- ----- ---------- --- --- market ------ ---- -- ------<br>------- --- ------ ----- --- ---- ------- -- ---- --- --<br>------- ------,98976.5,98975,98765.366,98774,98782.03,98982.018,,38,market
screen,html.Screen,2_1_1_1_39,2022-02-17T11:14:52.501Z,,,,,,,,,,,,,,,,,54,,,,,,,,,,,,,,202.78200000005018,,response,,,,100,,,,,,,Space,keypress(Space),,,,,,,,-- --- ---- --- ------ ----- ------- ---- -- --- ------- --<br>------- ---------- ------ -- ----- -- ----- -- ---- ------<br>--- ----- --- --- ------ -------- ----- --- ------ ----- --<br>----- ----- ---------- --- --- ------ became ---- -- ------<br>------- --- ------ ----- --- ---- ------- -- ---- --- --<br>------- ------,99186.3999999999,99184.80000000005,98965.354,98976.59999999986,98982.018,99198.654,,39,became
screen,html.Screen,2_1_1_1_40,2022-02-17T11:14:52.678Z,,,,,,,,,,,,,,,,,54,,,,,,,,,,,,,,162.64600000005157,,response,,,,100,,,,,,,Space,keypress(Space),,,,,,,,-- --- ---- --- ------ ----- ------- ---- -- --- ------- --<br>------- ---------- ------ -- ----- -- ----- -- ---- ------<br>--- ----- --- --- ------ -------- ----- --- ------ ----- --<br>----- ----- ---------- --- --- ------ ------ wary -- ------<br>------- --- ------ ----- --- ---- ------- -- ---- --- --<br>------- ------,99363.09999999986,99361.30000000005,99181.99,99186.59999999986,99198.654,99365.311,,40,wary
screen,html.Screen,2_1_1_1_41,2022-02-17T11:14:52.896Z,,,,,,,,,,,,,,,,,54,,,,,,,,,,,,,,213.7889999998588,,response,,,,100,,,,,,,Space,keypress(Space),,,,,,,,-- --- ---- --- ------ ----- ------- ---- -- --- ------- --<br>------- ---------- ------ -- ----- -- ----- -- ---- ------<br>--- ----- --- --- ------ -------- ----- --- ------ ----- --<br>----- ----- ---------- --- --- ------ ------ ---- of ------<br>------- --- ------ ----- --- ---- ------- -- ---- --- --<br>------- ------,99581,99579.09999999986,99348.647,99363.30000000005,99365.311,99598.621,,41,of
screen,html.Screen,2_1_1_1_42,2022-02-17T11:14:53.072Z,,,,,,,,,,,,,,,,,54,,,,,,,,,,,,,,156.07899999995425,,response,,,,100,,,,,,,Space,keypress(Space),,,,,,,,-- --- ---- --- ------ ----- ------- ---- -- --- ------- --<br>------- ---------- ------ -- ----- -- ----- -- ---- ------<br>--- ----- --- --- ------ -------- ----- --- ------ ----- --<br>----- ----- ---------- --- --- ------ ------ ---- -- French<br>------- --- ------ ----- --- ---- ------- -- ---- --- --<br>------- ------,99757,99754.69999999995,99581.957,99581.09999999986,99598.621,99765.275,,42,French
screen,html.Screen,2_1_1_1_43,2022-02-17T11:14:53.264Z,,,,,,,,,,,,,,,,,54,,,,,,,,,,,,,,182.1249999999127,,response,,,,100,,,,,,,Space,keypress(Space),,,,,,,,-- --- ---- --- ------ ----- ------- ---- -- --- ------- --<br>------- ---------- ------ -- ----- -- ----- -- ---- ------<br>--- ----- --- --- ------ -------- ----- --- ------ ----- --<br>----- ----- ---------- --- --- ------ ------ ---- -- ------<br>credit. --- ------ ----- --- ---- ------- -- ---- --- --<br>------- ------,99949.69999999995,99947.3999999999,99748.611,99757.19999999995,99765.275,99965.246,,43,credit.
screen,html.Screen,2_1_1_1_44,2022-02-17T11:14:53.447Z,,,,,,,,,,,,,,,,,54,,,,,,,,,,,,,,165.05400000004738,,response,,,,100,,,,,,,Space,keypress(Space),,,,,,,,-- --- ---- --- ------ ----- ------- ---- -- --- ------- --<br>------- ---------- ------ -- ----- -- ----- -- ---- ------<br>--- ----- --- --- ------ -------- ----- --- ------ ----- --<br>----- ----- ---------- --- --- ------ ------ ---- -- ------<br>------- The ------ ----- --- ---- ------- -- ---- --- --<br>------- ------,100132.5,100130.30000000005,99948.582,99949.80000000005,99965.246,100148.568,,44,The
screen,html.Screen,2_1_1_1_45,2022-02-17T11:14:53.645Z,,,,,,,,,,,,,,,,,54,,,,,,,,,,,,,,179.63199999995413,,response,,,,100,,,,,,,Space,keypress(Space),,,,,,,,-- --- ---- --- ------ ----- ------- ---- -- --- ------- --<br>------- ---------- ------ -- ----- -- ----- -- ---- ------<br>--- ----- --- --- ------ -------- ----- --- ------ ----- --<br>----- ----- ---------- --- --- ------ ------ ---- -- ------<br>------- --- French ----- --- ---- ------- -- ---- --- --<br>------- ------,100329.8999999999,100328.19999999995,100131.904,100132.59999999986,100148.568,100331.877,,45,French
screen,html.Screen,2_1_1_1_46,2022-02-17T11:14:53.828Z,,,,,,,,,,,,,,,,,54,,,,,,,,,,,,,,179.52299999991374,,response,,,,100,,,,,,,Space,keypress(Space),,,,,,,,-- --- ---- --- ------ ----- ------- ---- -- --- ------- --<br>------- ---------- ------ -- ----- -- ----- -- ---- ------<br>--- ----- --- --- ------ -------- ----- --- ------ ----- --<br>----- ----- ---------- --- --- ------ ------ ---- -- ------<br>------- --- ------ state --- ---- ------- -- ---- --- --<br>------- ------,100513,100511.3999999999,100315.213,100330.09999999986,100331.877,100515.192,,46,state
screen,html.Screen,2_1_1_1_47,2022-02-17T11:14:54.017Z,,,,,,,,,,,,,,,,,54,,,,,,,,,,,,,,185.30800000000454,,response,,,,100,,,,,,,Space,keypress(Space),,,,,,,,-- --- ---- --- ------ ----- ------- ---- -- --- ------- --<br>------- ---------- ------ -- ----- -- ----- -- ---- ------<br>--- ----- --- --- ------ -------- ----- --- ------ ----- --<br>----- ----- ---------- --- --- ------ ------ ---- -- ------<br>------- --- ------ ----- was ---- ------- -- ---- --- --<br>------- ------,100702.19999999995,100700.5,100498.528,100513.19999999995,100515.192,100715.165,,47,was
screen,html.Screen,2_1_1_1_48,2022-02-17T11:14:54.198Z,,,,,,,,,,,,,,,,,54,,,,,,,,,,,,,,166.8350000000064,,response,,,,100,,,,,,,Space,keypress(Space),,,,,,,,-- --- ---- --- ------ ----- ------- ---- -- --- ------- --<br>------- ---------- ------ -- ----- -- ----- -- ---- ------<br>--- ----- --- --- ------ -------- ----- --- ------ ----- --<br>----- ----- ---------- --- --- ------ ------ ---- -- ------<br>------- --- ------ ----- --- left ------- -- ---- --- --<br>------- ------,100883.59999999986,100882,100698.501,100702.3999999999,100715.165,100898.481,,48,left
screen,html.Screen,2_1_1_1_49,2022-02-17T11:14:54.378Z,,,,,,,,,,,,,,,,,54,,,,,,,,,,,,,,162.8190000000468,,response,,,,100,,,,,,,Space,keypress(Space),,,,,,,,-- --- ---- --- ------ ----- ------- ---- -- --- ------- --<br>------- ---------- ------ -- ----- -- ----- -- ---- ------<br>--- ----- --- --- ------ -------- ----- --- ------ ----- --<br>----- ----- ---------- --- --- ------ ------ ---- -- ------<br>------- --- ------ ----- --- ---- without -- ---- --- --<br>------- ------,101063.09999999986,101061.30000000005,100881.817,100883.69999999995,100898.481,101065.139,,49,without
screen,html.Screen,2_1_1_1_50,2022-02-17T11:14:54.567Z,,,,,,,,,,,,,,,,,54,,,,,,,,,,,,,,184.86100000000442,,response,,,,100,,,,,,,Space,keypress(Space),,,,,,,,-- --- ---- --- ------ ----- ------- ---- -- --- ------- --<br>------- ---------- ------ -- ----- -- ----- -- ---- ------<br>--- ----- --- --- ------ -------- ----- --- ------ ----- --<br>----- ----- ---------- --- --- ------ ------ ---- -- ------<br>------- --- ------ ----- --- ---- ------- an ---- --- --<br>------- ------,101251.8999999999,101250,101048.475,101063.19999999995,101065.139,101265.114,,50,an
screen,html.Screen,2_1_1_1_51,2022-02-17T11:14:54.756Z,,,,,,,,,,,,,,,,,54,,,,,,,,,,,,,,173.8859999999986,,response,,,,100,,,,,,,Space,keypress(Space),,,,,,,,-- --- ---- --- ------ ----- ------- ---- -- --- ------- --<br>------- ---------- ------ -- ----- -- ----- -- ---- ------<br>--- ----- --- --- ------ -------- ----- --- ------ ----- --<br>----- ----- ---------- --- --- ------ ------ ---- -- ------<br>------- --- ------ ----- --- ---- ------- -- easy --- --<br>------- ------,101440.69999999995,101439,101248.45,101252.09999999986,101265.114,101448.427,,51,easy
screen,html.Screen,2_1_1_1_52,2022-02-17T11:14:54.943Z,,,,,,,,,,,,,,,,,54,,,,,,,,,,,,,,178.47299999991083,,response,,,,100,,,,,,,Space,keypress(Space),,,,,,,,-- --- ---- --- ------ ----- ------- ---- -- --- ------- --<br>------- ---------- ------ -- ----- -- ----- -- ---- ------<br>--- ----- --- --- ------ -------- ----- --- ------ ----- --<br>----- ----- ---------- --- --- ------ ------ ---- -- ------<br>------- --- ------ ----- --- ---- ------- -- ---- way --<br>------- ------,101628.69999999995,101626.8999999999,101431.763,101441,101448.427,101631.75,,52,way
screen,html.Screen,2_1_1_1_53,2022-02-17T11:14:55.127Z,,,,,,,,,,,,,,,,,54,,,,,,,,,,,,,,178.25,,response,,,,100,,,,,,,Space,keypress(Space),,,,,,,,-- --- ---- --- ------ ----- ------- ---- -- --- ------- --<br>------- ---------- ------ -- ----- -- ----- -- ---- ------<br>--- ----- --- --- ------ -------- ----- --- ------ ----- --<br>----- ----- ---------- --- --- ------ ------ ---- -- ------<br>------- --- ------ ----- --- ---- ------- -- ---- --- of<br>------- ------,101811.69999999995,101810,101615.086,101628.80000000005,101631.75,101815.054,,53,of
screen,html.Screen,2_1_1_1_54,2022-02-17T11:14:55.316Z,,,,,,,,,,,,,,,,,54,,,,,,,,,,,,,,184.04599999985658,,response,,,,100,,,,,,,Space,keypress(Space),,,,,,,,-- --- ---- --- ------ ----- ------- ---- -- --- ------- --<br>------- ---------- ------ -- ----- -- ----- -- ---- ------<br>--- ----- --- --- ------ -------- ----- --- ------ ----- --<br>----- ----- ---------- --- --- ------ ------ ---- -- ------<br>------- --- ------ ----- --- ---- ------- -- ---- --- --<br>raising ------,102001.5,101999.09999999986,101798.39,101811.8999999999,101815.054,102015.035,,54,raising
screen,html.Screen,2_1_1_1_55,2022-02-17T11:14:55.498Z,,,,,,,,,,,,,,,,,54,,,,,,,,,,,,,,165.76500000004307,,response,,,,100,,,,,,,Space,keypress(Space),,,,,,,,-- --- ---- --- ------ ----- ------- ---- -- --- ------- --<br>------- ---------- ------ -- ----- -- ----- -- ---- ------<br>--- ----- --- --- ------ -------- ----- --- ------ ----- --<br>----- ----- ---------- --- --- ------ ------ ---- -- ------<br>------- --- ------ ----- --- ---- ------- -- ---- --- --<br>------- money.,102183,102180.80000000005,101998.371,102001.59999999986,102015.035,102198.351,,55,money.
Item 100,flow.Loop,2_1_1_1,2022-02-17T11:14:55.498Z,,,,,,,,,,,,,,,,,,,,,,,,,,,,,,,10598.073000000048,,completion,,,,,C,,,,,,,,,,,silence,,,,,102183.30000000005,102180.80000000005,91566.063,91567,91582.727,102198.351,,,
Question 1,html.Screen,2_1_1_2,2022-02-17T11:14:57.450Z,,,,,,,,,,,,,,,,,,,,,,,,,,,,true,TRUE,,1934.8489999999583,,response,,,,100,C,,,,,,TRUE,click #choice-1,,,,silence,,,,,104134.8999999999,104133.19999999995,102181.687,102183.30000000005,102198.351,104148.155,,,
Question 2,html.Screen,2_1_1_3,2022-02-17T11:14:59.296Z,,,,,,,,,,,,,,,,,,,,,,,,,,,,true,FALSE,,1831.1450000000477,,response,,,,100,C,,,,,,FALSE,click #choice-2,,,,silence,,,,,105980.8999999999,105979.30000000005,104131.491,104135,104148.155,105997.968,,,
Item 100,flow.Sequence,2_1_1,2022-02-17T11:14:59.296Z,,,,,,,,,,,,,,,,,,,,,,,,,,,,,,,24395.478000000046,,completion,,,,,,,,,,,,,,,,,,,,,105981.09999999986,105979.30000000005,81567.158,81568.3999999999,81583.822,105997.968,,,
End of Practice,html.Page,2_1_2,2022-02-17T11:15:00.653Z,,,,,,,,,,,,,,,,,,,,,,,,,,,,,,,1339.9319999999134,,form submission,,,,,,,,,,,,,,,,,,,,,107338.09999999986,107337.8999999999,105981.304,105981.19999999995,105997.968,107364.486,,,
Practice,flow.Sequence,2_1,2022-02-17T11:15:00.653Z,,,,,,,,,,,,,,,,,,,,,,,,,,,,,,,53017.91899999991,,completion,,,,,,,,,,,,,,,,,,,,,107338.30000000005,107337.8999999999,54303.317,54295.59999999986,54319.981,107364.486,,,
Trap_instruction,html.Page,2_2_0,2022-02-17T11:15:01.221Z,,,,,,,,,,,,,,,,,,,,,,,,,,,,,,,541.713999999949,,form submission,,,,,,,,,,,,,,,,,,,,,107906.59999999986,107906.19999999995,107347.832,107338.5,107364.486,107914.435,,,
trap_trial,html.Screen,2_2_1,2022-02-17T11:15:03.250Z,,,,,,,,,,,,,,,,,,,,,,,,,,,,true,1,,2019.365000000049,,response,,,,,,,,,,,1,click #choice-1,,,,,,,,,109935.3999999999,109933.80000000005,107897.76,107906.80000000005,107914.435,109964.228,,,
end of trap trial,html.Page,2_2_2,2022-02-17T11:15:04.171Z,,,,,,,,,,,,,,,,,,,,,,,,,,,,,,,891.9719999999506,,form submission,,,,,,,,,,,,,,,,,,,,,110856.5,110856.19999999995,109947.558,109935.5,109964.228,110864.136,,,
Trap 1,flow.Sequence,2_2,2022-02-17T11:15:04.172Z,,,,,,,,,,,,,,,,,,,,,,,,,,,,,,,3491.713999999949,,completion,,,,,,,,,,,,,,,,,,,,,110856.69999999995,110856.19999999995,107347.832,107338.5,107364.486,110864.136,,,
Standby,html.Page,2_3_0,2022-02-17T11:15:12.162Z,,,,,,,,,,,,,,,,,,,,,,,,,,,,,,,7998.892999999996,,timeout,,,,,,,,,,,,,,,,,,,,,118847.5,118846.365,110847.459,110856.8999999999,110864.136,118863.029,,,
Holding screen,html.Screen,2_3_1_0_0,2022-02-17T11:15:19.162Z,,,,,,,,,,,,,,,,,,,,,,,,,,,,,,,6999.494000000006,,timeout,,,,,,,,,,,,,,,,,,,,,125846.8999999999,125845.859,118846.365,118847.69999999995,118863.029,125862.523,,,
screen,html.Screen,2_3_1_0_1_0,2022-02-17T11:15:19.554Z,,,,,,,,,,,,,,,,,48,,,,,,,,,,,,,,374.47699999999895,,response,,,,10,C,,,,,,Space,keypress(Space),,,,instrumental,,,,As -- --- ------ ------- --------- ----------- --------<br>--------- -------- --- ------- -- ------- ---- -- ------<br>-- --- -------- -------- ---------- ---- ---- ---- ------<br>-- --------- -- ---- -- --- -- --- ------- -- - -----<br>---------- -- -- -- ---- ----- -- ------ -- --- ------<br>-------,126239.3999999999,126237,125845.859,125847.3999999999,125862.523,126245.852,,0,As
screen,html.Screen,2_3_1_0_1_1,2022-02-17T11:15:19.747Z,,,,,,,,,,,,,,,,,48,,,,,,,,,,,,,,184.9480000000476,,response,,,,10,C,,,,,,Space,keypress(Space),,,,instrumental,,,,-- in --- ------ ------- --------- ----------- --------<br>--------- -------- --- ------- -- ------- ---- -- ------<br>-- --- -------- -------- ---------- ---- ---- ---- ------<br>-- --------- -- ---- -- --- -- --- ------- -- - -----<br>---------- -- -- -- ---- ----- -- ------ -- --- ------<br>-------,126432.19999999995,126430.80000000005,126229.188,126239.59999999986,126245.852,126445.833,,1,in
screen,html.Screen,2_3_1_0_1_2,2022-02-17T11:15:19.911Z,,,,,,,,,,,,,,,,,48,,,,,,,,,,,,,,148.36699999995471,,response,,,,10,C,,,,,,Space,keypress(Space),,,,instrumental,,,,-- -- the ------ ------- --------- ----------- --------<br>--------- -------- --- ------- -- ------- ---- -- ------<br>-- --- -------- -------- ---------- ---- ---- ---- ------<br>-- --------- -- ---- -- --- -- --- ------- -- - -----<br>---------- -- -- -- ---- ----- -- ------ -- --- ------<br>-------,126595.80000000005,126594.19999999995,126429.169,126432.30000000005,126445.833,126612.491,,2,the
screen,html.Screen,2_3_1_0_1_3,2022-02-17T11:15:20.304Z,,,,,,,,,,,,,,,,,48,,,,,,,,,,,,,,374.90899999991234,,response,,,,10,C,,,,,,Space,keypress(Space),,,,instrumental,,,,-- -- --- United ------- --------- ----------- --------<br>--------- -------- --- ------- -- ------- ---- -- ------<br>-- --- -------- -------- ---------- ---- ---- ---- ------<br>-- --------- -- ---- -- --- -- --- ------- -- - -----<br>---------- -- -- -- ---- ----- -- ------ -- --- ------<br>-------,126989.3999999999,126987.3999999999,126595.827,126595.8999999999,126612.491,126995.774,,3,United
screen,html.Screen,2_3_1_0_1_4,2022-02-17T11:15:20.484Z,,,,,,,,,,,,,,,,,48,,,,,,,,,,,,,,171.52600000004168,,response,,,,10,C,,,,,,Space,keypress(Space),,,,instrumental,,,,"-- -- --- ------ States, --------- ----------- --------<br>--------- -------- --- ------- -- ------- ---- -- ------<br>-- --- -------- -------- ---------- ---- ---- ---- ------<br>-- --------- -- ---- -- --- -- --- ------- -- - -----<br>---------- -- -- -- ---- ----- -- ------ -- --- ------<br>-------",127169,127167.30000000005,126979.11,126989.5,126995.774,127179.107,,4,"States,"
screen,html.Screen,2_3_1_0_1_5,2022-02-17T11:15:20.660Z,,,,,,,,,,,,,,,,,48,,,,,,,,,,,,,,163.9929999998567,,response,,,,10,C,,,,,,Space,keypress(Space),,,,instrumental,,,,-- -- --- ------ ------- Colombian ----------- --------<br>--------- -------- --- ------- -- ------- ---- -- ------<br>-- --- -------- -------- ---------- ---- ---- ---- ------<br>-- --------- -- ---- -- --- -- --- ------- -- - -----<br>---------- -- -- -- ---- ----- -- ------ -- --- ------<br>-------,127345,127343.09999999986,127162.443,127169.09999999986,127179.107,127362.408,,5,Colombian
screen,html.Screen,2_3_1_0_1_6,2022-02-17T11:15:21.001Z,,,,,,,,,,,,,,,,,48,,,,,,,,,,,,,,322.0920000000042,,response,,,,10,C,,,,,,Space,keypress(Space),,,,instrumental,,,,-- -- --- ------ ------- --------- legislation --------<br>--------- -------- --- ------- -- ------- ---- -- ------<br>-- --- -------- -------- ---------- ---- ---- ---- ------<br>-- --------- -- ---- -- --- -- --- ------- -- - -----<br>---------- -- -- -- ---- ----- -- ------ -- --- ------<br>-------,127686.59999999986,127684.5,127345.744,127345.09999999986,127362.408,127695.703,,6,legislation
screen,html.Screen,2_3_1_0_1_7,2022-02-17T11:15:21.233Z,,,,,,,,,,,,,,,,,48,,,,,,,,,,,,,,220.1969999999128,,response,,,,10,C,,,,,,Space,keypress(Space),,,,instrumental,,,,-- -- --- ------ ------- --------- ----------- requires<br>--------- -------- --- ------- -- ------- ---- -- ------<br>-- --- -------- -------- ---------- ---- ---- ---- ------<br>-- --------- -- ---- -- --- -- --- ------- -- - -----<br>---------- -- -- -- ---- ----- -- ------ -- --- ------<br>-------,127918.19999999995,127915.8999999999,127679.039,127686.80000000005,127695.703,127929.009,,7,requires
screen,html.Screen,2_3_1_0_1_8,2022-02-17T11:15:21.448Z,,,,,,,,,,,,,,,,,48,,,,,,,,,,,,,,203.09099999985483,,response,,,,10,C,,,,,,Space,keypress(Space),,,,instrumental,,,,-- -- --- ------ ------- --------- ----------- --------<br>travelers -------- --- ------- -- ------- ---- -- ------<br>-- --- -------- -------- ---------- ---- ---- ---- ------<br>-- --------- -- ---- -- --- -- --- ------- -- - -----<br>---------- -- -- -- ---- ----- -- ------ -- --- ------<br>-------,128133.5,128132.09999999986,127912.345,127918.3999999999,127929.009,128145.656,,8,travelers
screen,html.Screen,2_3_1_0_1_9,2022-02-17T11:15:21.729Z,,,,,,,,,,,,,,,,,48,,,,,,,,,,,,,,266.8439999999973,,response,,,,10,C,,,,,,Space,keypress(Space),,,,instrumental,,,,-- -- --- ------ ------- --------- ----------- --------<br>--------- entering --- ------- -- ------- ---- -- ------<br>-- --- -------- -------- ---------- ---- ---- ---- ------<br>-- --------- -- ---- -- --- -- --- ------- -- - -----<br>---------- -- -- -- ---- ----- -- ------ -- --- ------<br>-------,128414.09999999986,128412.5,128128.992,128133.59999999986,128145.656,128428.959,,9,entering
screen,html.Screen,2_3_1_0_1_10,2022-02-17T11:15:22.039Z,,,,,,,,,,,,,,,,,48,,,,,,,,,,,,,,293.2409999999509,,response,,,,10,C,,,,,,Space,keypress(Space),,,,instrumental,,,,-- -- --- ------ ------- --------- ----------- --------<br>--------- -------- the ------- -- ------- ---- -- ------<br>-- --- -------- -------- ---------- ---- ---- ---- ------<br>-- --------- -- ---- -- --- -- --- ------- -- - -----<br>---------- -- -- -- ---- ----- -- ------ -- --- ------<br>-------,128723.69999999995,128722.19999999995,128412.295,128414.19999999995,128428.959,128728.918,,10,the
screen,html.Screen,2_3_1_0_1_11,2022-02-17T11:15:22.241Z,,,,,,,,,,,,,,,,,48,,,,,,,,,,,,,,195.2819999999483,,response,,,,10,C,,,,,,Space,keypress(Space),,,,instrumental,,,,-- -- --- ------ ------- --------- ----------- --------<br>--------- -------- --- country -- ------- ---- -- ------<br>-- --- -------- -------- ---------- ---- ---- ---- ------<br>-- --------- -- ---- -- --- -- --- ------- -- - -----<br>---------- -- -- -- ---- ----- -- ------ -- --- ------<br>-------,128925.80000000005,128924.19999999995,128712.254,128723.8999999999,128728.918,128928.918,,11,country
screen,html.Screen,2_3_1_0_1_12,2022-02-17T11:15:22.484Z,,,,,,,,,,,,,,,,,48,,,,,,,,,,,,,,238.18199999985518,,response,,,,10,C,,,,,,Space,keypress(Space),,,,instrumental,,,,-- -- --- ------ ------- --------- ----------- --------<br>--------- -------- --- ------- to ------- ---- -- ------<br>-- --- -------- -------- ---------- ---- ---- ---- ------<br>-- --------- -- ---- -- --- -- --- ------- -- - -----<br>---------- -- -- -- ---- ----- -- ------ -- --- ------<br>-------,129168.80000000005,129167.09999999986,128912.254,128926,128928.918,129178.888,,12,to
screen,html.Screen,2_3_1_0_1_13,2022-02-17T11:15:23.761Z,,,,,,,,,,,,,,,,,48,,,,,,,,,,,,,,1266.211999999854,,response,,,,10,C,,,,,,Space,keypress(Space),,,,instrumental,,,,-- -- --- ------ ------- --------- ----------- --------<br>--------- -------- --- ------- -- declare ---- -- ------<br>-- --- -------- -------- ---------- ---- ---- ---- ------<br>-- --------- -- ---- -- --- -- --- ------- -- - -----<br>---------- -- -- -- ---- ----- -- ------ -- --- ------<br>-------,130446.59999999986,130445.09999999986,129162.224,129169,129178.888,130462.021,,13,declare
screen,html.Screen,2_3_1_0_1_14,2022-02-17T11:15:24.163Z,,,,,,,,,,,,,,,,,48,,,,,,,,,,,,,,384.97900000000664,,response,,,,10,C,,,,,,Space,keypress(Space),,,,instrumental,,,,-- -- --- ------ ------- --------- ----------- --------<br>--------- -------- --- ------- -- ------- cash -- ------<br>-- --- -------- -------- ---------- ---- ---- ---- ------<br>-- --------- -- ---- -- --- -- --- ------- -- - -----<br>---------- -- -- -- ---- ----- -- ------ -- --- ------<br>-------,130848.59999999986,130847,130445.357,130446.80000000005,130462.021,130862.03,,14,cash
screen,html.Screen,2_3_1_0_1_15,2022-02-17T11:15:24.432Z,,,,,,,,,,,,,,,,,48,,,,,,,,,,,,,,253.36999999990803,,response,,,,10,C,,,,,,Space,keypress(Space),,,,instrumental,,,,-- -- --- ------ ------- --------- ----------- --------<br>--------- -------- --- ------- -- ------- ---- in ------<br>-- --- -------- -------- ---------- ---- ---- ---- ------<br>-- --------- -- ---- -- --- -- --- ------- -- - -----<br>---------- -- -- -- ---- ----- -- ------ -- --- ------<br>-------,131117.59999999986,131115.3999999999,130845.366,130848.69999999995,130862.03,131128.684,,15,in
screen,html.Screen,2_3_1_0_1_16,2022-02-17T11:15:24.630Z,,,,,,,,,,,,,,,,,48,,,,,,,,,,,,,,184.91599999985192,,response,,,,10,C,,,,,,Space,keypress(Space),,,,instrumental,,,,-- -- --- ------ ------- --------- ----------- --------<br>--------- -------- --- ------- -- ------- ---- -- excess<br>-- --- -------- -------- ---------- ---- ---- ---- ------<br>-- --------- -- ---- -- --- -- --- ------- -- - -----<br>---------- -- -- -- ---- ----- -- ------ -- --- ------<br>-------,131315.5,131313.59999999986,131112.02,131117.69999999995,131128.684,131328.658,,16,excess
screen,html.Screen,2_3_1_0_1_17,2022-02-17T11:15:24.852Z,,,,,,,,,,,,,,,,,48,,,,,,,,,,,,,,206.4419999998645,,response,,,,10,C,,,,,,Space,keypress(Space),,,,instrumental,,,,-- -- --- ------ ------- --------- ----------- --------<br>--------- -------- --- ------- -- ------- ---- -- ------<br>of --- -------- -------- ---------- ---- ---- ---- ------<br>-- --------- -- ---- -- --- -- --- ------- -- - -----<br>---------- -- -- -- ---- ----- -- ------ -- --- ------<br>-------,131536.80000000005,131535.09999999986,131311.994,131315.69999999995,131328.658,131545.31,,17,of
screen,html.Screen,2_3_1_0_1_18,2022-02-17T11:15:25.043Z,,,,,,,,,,,,,,,,,48,,,,,,,,,,,,,,181.28999999986263,,response,,,,10,C,,,,,,Space,keypress(Space),,,,instrumental,,,,-- -- --- ------ ------- --------- ----------- --------<br>--------- -------- --- ------- -- ------- ---- -- ------<br>-- ten -------- -------- ---------- ---- ---- ---- ------<br>-- --------- -- ---- -- --- -- --- ------- -- - -----<br>---------- -- -- -- ---- ----- -- ------ -- --- ------<br>-------,131728.3999999999,131726.59999999986,131528.646,131536.8999999999,131545.31,131745.296,,18,ten
screen,html.Screen,2_3_1_0_1_19,2022-02-17T11:15:25.210Z,,,,,,,,,,,,,,,,,48,,,,,,,,,,,,,,148.10399999990477,,response,,,,10,C,,,,,,Space,keypress(Space),,,,instrumental,,,,-- -- --- ------ ------- --------- ----------- --------<br>--------- -------- --- ------- -- ------- ---- -- ------<br>-- --- thousand -------- ---------- ---- ---- ---- ------<br>-- --------- -- ---- -- --- -- --- ------- -- - -----<br>---------- -- -- -- ---- ----- -- ------ -- --- ------<br>-------,131895.19999999995,131893.3999999999,131728.632,131728.59999999986,131745.296,131911.94,,19,thousand
screen,html.Screen,2_3_1_0_1_20,2022-02-17T11:15:25.406Z,,,,,,,,,,,,,,,,,48,,,,,,,,,,,,,,177.05999999999767,,response,,,,10,C,,,,,,Space,keypress(Space),,,,instrumental,,,,-- -- --- ------ ------- --------- ----------- --------<br>--------- -------- --- ------- -- ------- ---- -- ------<br>-- --- -------- dollars. ---------- ---- ---- ---- ------<br>-- --------- -- ---- -- --- -- --- ------- -- - -----<br>---------- -- -- -- ---- ----- -- ------ -- --- ------<br>-------,132090.80000000005,132089,131895.276,131895.3999999999,131911.94,132095.249,,20,dollars.
screen,html.Screen,2_3_1_0_1_21,2022-02-17T11:15:25.595Z,,,,,,,,,,,,,,,,,48,,,,,,,,,,,,,,182.8509999998496,,response,,,,10,C,,,,,,Space,keypress(Space),,,,instrumental,,,,-- -- --- ------ ------- --------- ----------- --------<br>--------- -------- --- ------- -- ------- ---- -- ------<br>-- --- -------- -------- Concealing ---- ---- ---- ------<br>-- --------- -- ---- -- --- -- --- ------- -- - -----<br>---------- -- -- -- ---- ----- -- ------ -- --- ------<br>-------,132280.19999999995,132278.09999999986,132078.585,132091,132095.249,132295.236,,21,Concealing
screen,html.Screen,2_3_1_0_1_22,2022-02-17T11:15:25.796Z,,,,,,,,,,,,,,,,,48,,,,,,,,,,,,,,183.76399999999558,,response,,,,10,C,,,,,,Space,keypress(Space),,,,instrumental,,,,-- -- --- ------ ------- --------- ----------- --------<br>--------- -------- --- ------- -- ------- ---- -- ------<br>-- --- -------- -------- ---------- more ---- ---- ------<br>-- --------- -- ---- -- --- -- --- ------- -- - -----<br>---------- -- -- -- ---- ----- -- ------ -- --- ------<br>-------,132481,132479,132278.572,132280.3999999999,132295.236,132495.208,,22,more
screen,html.Screen,2_3_1_0_1_23,2022-02-17T11:15:25.995Z,,,,,,,,,,,,,,,,,48,,,,,,,,,,,,,,182.89199999984703,,response,,,,10,C,,,,,,Space,keypress(Space),,,,instrumental,,,,-- -- --- ------ ------- --------- ----------- --------<br>--------- -------- --- ------- -- ------- ---- -- ------<br>-- --- -------- -------- ---------- ---- than ---- ------<br>-- --------- -- ---- -- --- -- --- ------- -- - -----<br>---------- -- -- -- ---- ----- -- ------ -- --- ------<br>-------,132680.19999999995,132678.09999999986,132478.544,132481.09999999986,132495.208,132695.2,,23,than
screen,html.Screen,2_3_1_0_1_24,2022-02-17T11:15:26.210Z,,,,,,,,,,,,,,,,,48,,,,,,,,,,,,,,197.69999999989523,,response,,,,10,C,,,,,,Space,keypress(Space),,,,instrumental,,,,-- -- --- ------ ------- --------- ----------- --------<br>--------- -------- --- ------- -- ------- ---- -- ------<br>-- --- -------- -------- ---------- ---- ---- that ------<br>-- --------- -- ---- -- --- -- --- ------- -- - -----<br>---------- -- -- -- ---- ----- -- ------ -- --- ------<br>-------,132894.80000000005,132892.8999999999,132678.536,132680.3999999999,132695.2,132911.832,,24,that
screen,html.Screen,2_3_1_0_1_25,2022-02-17T11:15:26.410Z,,,,,,,,,,,,,,,,,48,,,,,,,,,,,,,,182.067999999912,,response,,,,10,C,,,,,,Space,keypress(Space),,,,instrumental,,,,-- -- --- ------ ------- --------- ----------- --------<br>--------- -------- --- ------- -- ------- ---- -- ------<br>-- --- -------- -------- ---------- ---- ---- ---- amount<br>-- --------- -- ---- -- --- -- --- ------- -- - -----<br>---------- -- -- -- ---- ----- -- ------ -- --- ------<br>-------,133095.69999999995,133093.8999999999,132895.168,132895,132911.832,133111.811,,25,amount
screen,html.Screen,2_3_1_0_1_26,2022-02-17T11:15:26.609Z,,,,,,,,,,,,,,,,,48,,,,,,,,,,,,,,180.78899999987334,,response,,,,10,C,,,,,,Space,keypress(Space),,,,instrumental,,,,-- -- --- ------ ------- --------- ----------- --------<br>--------- -------- --- ------- -- ------- ---- -- ------<br>-- --- -------- -------- ---------- ---- ---- ---- ------<br>to --------- -- ---- -- --- -- --- ------- -- - -----<br>---------- -- -- -- ---- ----- -- ------ -- --- ------<br>-------,133294.3999999999,133292.59999999986,133095.147,133095.8999999999,133111.811,133311.795,,26,to
screen,html.Screen,2_3_1_0_1_27,2022-02-17T11:15:26.815Z,,,,,,,,,,,,,,,,,48,,,,,,,,,,,,,,186.3049999998475,,response,,,,10,C,,,,,,Space,keypress(Space),,,,instrumental,,,,-- -- --- ------ ------- --------- ----------- --------<br>--------- -------- --- ------- -- ------- ---- -- ------<br>-- --- -------- -------- ---------- ---- ---- ---- ------<br>-- transport -- ---- -- --- -- --- ------- -- - -----<br>---------- -- -- -- ---- ----- -- ------ -- --- ------<br>-------,133500,133498.09999999986,133295.131,133294.5,133311.795,133511.767,,27,transport
screen,html.Screen,2_3_1_0_1_28,2022-02-17T11:15:26.974Z,,,,,,,,,,,,,,,,,48,,,,,,,,,,,,,,145.53300000005402,,response,,,,10,C,,,,,,Space,keypress(Space),,,,instrumental,,,,-- -- --- ------ ------- --------- ----------- --------<br>--------- -------- --- ------- -- ------- ---- -- ------<br>-- --- -------- -------- ---------- ---- ---- ---- ------<br>-- --------- it ---- -- --- -- --- ------- -- - -----<br>---------- -- -- -- ---- ----- -- ------ -- --- ------<br>-------,133659.09999999986,133657.30000000005,133495.103,133500.19999999995,133511.767,133661.76,,28,it
screen,html.Screen,2_3_1_0_1_29,2022-02-17T11:15:27.170Z,,,,,,,,,,,,,,,,,48,,,,,,,,,,,,,,191.2399999999907,,response,,,,10,C,,,,,,Space,keypress(Space),,,,instrumental,,,,-- -- --- ------ ------- --------- ----------- --------<br>--------- -------- --- ------- -- ------- ---- -- ------<br>-- --- -------- -------- ---------- ---- ---- ---- ------<br>-- --------- -- into -- --- -- --- ------- -- - -----<br>---------- -- -- -- ---- ----- -- ------ -- --- ------<br>-------,133855,133853,133645.096,133659.30000000005,133661.76,133861.741,,29,into
screen,html.Screen,2_3_1_0_1_30,2022-02-17T11:15:27.387Z,,,,,,,,,,,,,,,,,48,,,,,,,,,,,,,,208.55900000003749,,response,,,,10,C,,,,,,Space,keypress(Space),,,,instrumental,,,,-- -- --- ------ ------- --------- ----------- --------<br>--------- -------- --- ------- -- ------- ---- -- ------<br>-- --- -------- -------- ---------- ---- ---- ---- ------<br>-- --------- -- ---- or --- -- --- ------- -- - -----<br>---------- -- -- -- ---- ----- -- ------ -- --- ------<br>-------,134072.19999999995,134070.30000000005,133845.077,133855.09999999986,133861.741,134078.39,,30,or
screen,html.Screen,2_3_1_0_1_31,2022-02-17T11:15:27.547Z,,,,,,,,,,,,,,,,,48,,,,,,,,,,,,,,152.0099999998929,,response,,,,10,C,,,,,,Space,keypress(Space),,,,instrumental,,,,-- -- --- ------ ------- --------- ----------- --------<br>--------- -------- --- ------- -- ------- ---- -- ------<br>-- --- -------- -------- ---------- ---- ---- ---- ------<br>-- --------- -- ---- -- out -- --- ------- -- - -----<br>---------- -- -- -- ---- ----- -- ------ -- --- ------<br>-------,134232.30000000005,134230.3999999999,134061.726,134072.5,134078.39,134245.023,,31,out
screen,html.Screen,2_3_1_0_1_32,2022-02-17T11:15:27.804Z,,,,,,,,,,,,,,,,,48,,,,,,,,,,,,,,242.87699999992037,,response,,,,10,C,,,,,,Space,keypress(Space),,,,instrumental,,,,-- -- --- ------ ------- --------- ----------- --------<br>--------- -------- --- ------- -- ------- ---- -- ------<br>-- --- -------- -------- ---------- ---- ---- ---- ------<br>-- --------- -- ---- -- --- of --- ------- -- - -----<br>---------- -- -- -- ---- ----- -- ------ -- --- ------<br>-------,134489.5,134487.8999999999,134228.359,134232.3999999999,134245.023,134494.999,,32,of
screen,html.Screen,2_3_1_0_1_33,2022-02-17T11:15:28.042Z,,,,,,,,,,,,,,,,,48,,,,,,,,,,,,,,230.1009999998496,,response,,,,10,C,,,,,,Space,keypress(Space),,,,instrumental,,,,-- -- --- ------ ------- --------- ----------- --------<br>--------- -------- --- ------- -- ------- ---- -- ------<br>-- --- -------- -------- ---------- ---- ---- ---- ------<br>-- --------- -- ---- -- --- -- the ------- -- - -----<br>---------- -- -- -- ---- ----- -- ------ -- --- ------<br>-------,134727.09999999986,134725.09999999986,134478.335,134489.69999999995,134494.999,134728.315,,33,the
screen,html.Screen,2_3_1_0_1_34,2022-02-17T11:15:28.278Z,,,,,,,,,,,,,,,,,48,,,,,,,,,,,,,,232.68499999999767,,response,,,,10,C,,,,,,Space,keypress(Space),,,,instrumental,,,,-- -- --- ------ ------- --------- ----------- --------<br>--------- -------- --- ------- -- ------- ---- -- ------<br>-- --- -------- -------- ---------- ---- ---- ---- ------<br>-- --------- -- ---- -- --- -- --- country -- - -----<br>---------- -- -- -- ---- ----- -- ------ -- --- ------<br>-------,134962.80000000005,134961,134711.651,134727.19999999995,134728.315,134978.281,,34,country
screen,html.Screen,2_3_1_0_1_35,2022-02-17T11:15:28.413Z,,,,,,,,,,,,,,,,,48,,,,,,,,,,,,,,117.61899999991874,,response,,,,10,C,,,,,,Space,keypress(Space),,,,instrumental,,,,-- -- --- ------ ------- --------- ----------- --------<br>--------- -------- --- ------- -- ------- ---- -- ------<br>-- --- -------- -------- ---------- ---- ---- ---- ------<br>-- --------- -- ---- -- --- -- --- ------- is - -----<br>---------- -- -- -- ---- ----- -- ------ -- --- ------<br>-------,135097.80000000005,135095.8999999999,134961.617,134962.8999999999,134978.281,135111.61,,35,is
screen,html.Screen,2_3_1_0_1_36,2022-02-17T11:15:28.625Z,,,,,,,,,,,,,,,,,48,,,,,,,,,,,,,,196.0899999999674,,response,,,,10,C,,,,,,Space,keypress(Space),,,,instrumental,,,,-- -- --- ------ ------- --------- ----------- --------<br>--------- -------- --- ------- -- ------- ---- -- ------<br>-- --- -------- -------- ---------- ---- ---- ---- ------<br>-- --------- -- ---- -- --- -- --- ------- -- a -----<br>---------- -- -- -- ---- ----- -- ------ -- --- ------<br>-------,135309.80000000005,135307.69999999995,135094.946,135098,135111.61,135311.593,,36,a
screen,html.Screen,2_3_1_0_1_37,2022-02-17T11:15:28.829Z,,,,,,,,,,,,,,,,,48,,,,,,,,,,,,,,200.20700000005309,,response,,,,10,C,,,,,,Space,keypress(Space),,,,instrumental,,,,-- -- --- ------ ------- --------- ----------- --------<br>--------- -------- --- ------- -- ------- ---- -- ------<br>-- --- -------- -------- ---------- ---- ---- ---- ------<br>-- --------- -- ---- -- --- -- --- ------- -- - crime<br>---------- -- -- -- ---- ----- -- ------ -- --- ------<br>-------,135514.09999999986,135511.80000000005,135294.929,135309.8999999999,135311.593,135528.223,,37,crime
screen,html.Screen,2_3_1_0_1_38,2022-02-17T11:15:29.008Z,,,,,,,,,,,,,,,,,48,,,,,,,,,,,,,,162.9769999999553,,response,,,,10,C,,,,,,Space,keypress(Space),,,,instrumental,,,,-- -- --- ------ ------- --------- ----------- --------<br>--------- -------- --- ------- -- ------- ---- -- ------<br>-- --- -------- -------- ---------- ---- ---- ---- ------<br>-- --------- -- ---- -- --- -- --- ------- -- - -----<br>punishable -- -- -- ---- ----- -- ------ -- --- ------<br>-------,135693.59999999986,135691.19999999995,135511.559,135514.30000000005,135528.223,135694.884,,38,punishable
screen,html.Screen,2_3_1_0_1_39,2022-02-17T11:15:29.204Z,,,,,,,,,,,,,,,,,48,,,,,,,,,,,,,,192.21599999986938,,response,,,,10,C,,,,,,Space,keypress(Space),,,,instrumental,,,,-- -- --- ------ ------- --------- ----------- --------<br>--------- -------- --- ------- -- ------- ---- -- ------<br>-- --- -------- -------- ---------- ---- ---- ---- ------<br>-- --------- -- ---- -- --- -- --- ------- -- - -----<br>---------- by -- -- ---- ----- -- ------ -- --- ------<br>-------,135889,135887.09999999986,135678.22,135693.80000000005,135694.884,135894.87,,39,by
screen,html.Screen,2_3_1_0_1_40,2022-02-17T11:15:29.387Z,,,,,,,,,,,,,,,,,48,,,,,,,,,,,,,,175.13000000000466,,response,,,,10,C,,,,,,Space,keypress(Space),,,,instrumental,,,,-- -- --- ------ ------- --------- ----------- --------<br>--------- -------- --- ------- -- ------- ---- -- ------<br>-- --- -------- -------- ---------- ---- ---- ---- ------<br>-- --------- -- ---- -- --- -- --- ------- -- - -----<br>---------- -- up -- ---- ----- -- ------ -- --- ------<br>-------,136071.69999999995,136070,135878.206,135889.19999999995,135894.87,136078.172,,40,up
screen,html.Screen,2_3_1_0_1_41,2022-02-17T11:15:29.585Z,,,,,,,,,,,,,,,,,48,,,,,,,,,,,,,,189.42799999986892,,response,,,,10,C,,,,,,Space,keypress(Space),,,,instrumental,,,,-- -- --- ------ ------- --------- ----------- --------<br>--------- -------- --- ------- -- ------- ---- -- ------<br>-- --- -------- -------- ---------- ---- ---- ---- ------<br>-- --------- -- ---- -- --- -- --- ------- -- - -----<br>---------- -- -- to ---- ----- -- ------ -- --- ------<br>-------,136270.09999999986,136267.59999999986,136061.508,136071.8999999999,136078.172,136278.147,,41,to
screen,html.Screen,2_3_1_0_1_42,2022-02-17T11:15:29.777Z,,,,,,,,,,,,,,,,,48,,,,,,,,,,,,,,182.25299999990966,,response,,,,10,C,,,,,,Space,keypress(Space),,,,instrumental,,,,-- -- --- ------ ------- --------- ----------- --------<br>--------- -------- --- ------- -- ------- ---- -- ------<br>-- --- -------- -------- ---------- ---- ---- ---- ------<br>-- --------- -- ---- -- --- -- --- ------- -- - -----<br>---------- -- -- -- five ----- -- ------ -- --- ------<br>-------,136462.09999999986,136460.3999999999,136261.483,136270.30000000005,136278.147,136478.143,,42,five
screen,html.Screen,2_3_1_0_1_43,2022-02-17T11:15:29.978Z,,,,,,,,,,,,,,,,,48,,,,,,,,,,,,,,183.15700000003562,,response,,,,10,C,,,,,,Space,keypress(Space),,,,instrumental,,,,-- -- --- ------ ------- --------- ----------- --------<br>--------- -------- --- ------- -- ------- ---- -- ------<br>-- --- -------- -------- ---------- ---- ---- ---- ------<br>-- --------- -- ---- -- --- -- --- ------- -- - -----<br>---------- -- -- -- ---- years -- ------ -- --- ------<br>-------,136662.8999999999,136661.30000000005,136461.479,136462.30000000005,136478.143,136678.115,,43,years
screen,html.Screen,2_3_1_0_1_44,2022-02-17T11:15:30.192Z,,,,,,,,,,,,,,,,,48,,,,,,,,,,,,,,196.78499999991618,,response,,,,10,C,,,,,,Space,keypress(Space),,,,instrumental,,,,-- -- --- ------ ------- --------- ----------- --------<br>--------- -------- --- ------- -- ------- ---- -- ------<br>-- --- -------- -------- ---------- ---- ---- ---- ------<br>-- --------- -- ---- -- --- -- --- ------- -- - -----<br>---------- -- -- -- ---- ----- in ------ -- --- ------<br>-------,136877,136874.8999999999,136661.451,136663.19999999995,136678.115,136878.092,,44,in
