sender,sender_type,sender_id,timestamp,meta,,Blues,Classical,Country,Dance,Electronic,Folk,Gospel,Hip-Hop,Jazz,Latin,Musical/Film,New-age,Pop,Prolific_id,Provo_ID,R&B,Rap,Reggae,Religious,Rock,Soul,Swing,Traditional,age,artist_name,correct,correctResponse,distraction,duration,education,ended_on,familiarity,gender,headphone_check_performance,item,list,music_frequency,offensiveness,pleasantness,position_correct,preference,response,response_action,snippet_file,song_name,song_rating,sound,stimulus_1,stimulus_2,stimulus_3,text,time_commit,time_end,time_render,time_run,time_show,time_switch,url,word,word_ID
Prolific ID,html.Form,0,2022-02-17T13:03:18.041Z,"{""labjs_version"":""20.2.2"",""labjs_build"":{""flavor"":""production"",""commit"":""a25486e0c714a0ae2ce03ff94b7bb6896854dcfa""},""location"":""https://run.pavlovia.org/mvasilev/prolific2_music_d/"",""userAgent"":""Mozilla/5.0 (Windows NT 10.0; Win64; x64) AppleWebKit/537.36 (KHTML, like Gecko) Chrome/98.0.4758.102 Safari/537.36"",""platform"":""Win32"",""language"":""en-GB"",""locale"":""en-GB"",""timeZone"":""Europe/London"",""timezoneOffset"":0,""screen_width"":1280,""screen_height"":720,""scroll_width"":1280,""scroll_height"":561,""window_innerWidth"":1280,""window_innerHeight"":609,""devicePixelRatio"":1.5}",,,,,,,,,,,,,,,61a74f60a9217c6f76a4d0e4,,,,,,,,,,,,,,,18539.28600000596,,form submission,,,,,,,,,,,,,,,,,,,,,40182,40180.90000000596,21608.199,21618.30000001192,21641.614,40189.198,{},,
Introduction,html.Screen,1_0,2022-02-17T13:03:23.661Z,,,,,,,,,,,,,,,,,,,,,,,,,,,,,,,5608.502000017885,,response,,,,,,,,,,,continue,click button,,,,,,,,,45802.59999999404,45797.70000001788,40172.742,40182.80000001192,40189.198,45821.839,,,
Volume calibration,html.Screen,1_1,2022-02-17T13:03:50.779Z,,,,,,,,,,,,,,,,,,,,,,,,,,,,,,,27092.36100001788,,response,,,,,,,,,,,continue,click button,,,,,,,,,72920.30000001192,72914.20000001788,45788.652,45803,45821.839,72918.355,,,
Task instructions,html.Screen,1_2,2022-02-17T13:04:03.322Z,,,,,,,,,,,,,,,,,,,,,,,,,,,,,,,12543.645000000004,,response,,,,,,,,,,,continue,click button,,,,,,,,,85463.40000000596,85462,72902.228,72920.59999999404,72918.355,85466.73,,,
Sounds,html.Screen,1_3_0_0,2022-02-17T13:04:07.564Z,,,,,,,,,,,,,,,,,,,,,,,,,,,,,,,4249.506999999998,,timeout,,,,,,,,,3,,,,,,,,I,O,S,,89704.70000001788,89699.546,85450.413,85463.80000001192,85466.73,89716.237,,,
Judgement,html.Screen,1_3_0_1,2022-02-17T13:04:09.040Z,,,,,,,,,,,,,,,,,,,,,,,,,,,,true,3,,1463.4630000178877,,response,,,,,,,,,3,,3,click #choice-3,,,,,I,O,S,,91181.40000000596,91179.70000001788,89699.546,89705,89716.237,91182.665,,,
Trial,flow.Sequence,1_3_0,2022-02-17T13:04:09.041Z,,,,,,,,,,,,,,,,,,,,,,,,,,,,,,,5712.9700000178855,,completion,,,,,,,,,3,,,,,,,,I,O,S,,91182.09999999404,91179.70000001788,85450.413,85463.70000001788,85466.73,91182.665,,,
Sounds,html.Screen,1_3_1_0,2022-02-17T13:04:13.276Z,,,,,,,,,,,,,,,,,,,,,,,,,,,,,,,4249.484000000011,,timeout,,,,,,,,,1,,,,,,,,S,O,I,,95417.30000001192,95415.955,91166.115,91182.70000001788,91182.665,95432.149,,,
Judgement,html.Screen,1_3_1_1,2022-02-17T13:04:21.267Z,,,,,,,,,,,,,,,,,,,,,,,,,,,,true,1,,7973.950999994035,,response,,,,,,,,,1,,1,click #choice-1,,,,,S,O,I,,103407.90000000596,103406.09999999404,95415.955,95417.59999999404,95432.149,103414.432,,,
Trial,flow.Sequence,1_3_1,2022-02-17T13:04:21.268Z,,,,,,,,,,,,,,,,,,,,,,,,,,,,,,,12223.434999994046,,completion,,,,,,,,,1,,,,,,,,S,O,I,,103409.09999999404,103406.09999999404,91166.115,91182.30000001192,91182.665,103414.432,,,
Sounds,html.Screen,1_3_2_0,2022-02-17T13:04:25.508Z,,,,,,,,,,,,,,,,,,,,,,,,,,,,,,,4249.467000000004,,timeout,,,,,,,,,1,,,,,,,,S,I,O,,107649.09999999404,107647.289,103397.799,103409.40000000596,103414.432,107663.899,,,
Judgement,html.Screen,1_3_2_1,2022-02-17T13:04:26.617Z,,,,,,,,,,,,,,,,,,,,,,,,,,,,true,1,,1092.3010000178765,,response,,,,,,,,,1,,1,click #choice-1,,,,,S,I,O,,108758.09999999404,108756.20000001788,107647.289,107650.09999999404,107663.899,108763.736,,,
Trial,flow.Sequence,1_3_2,2022-02-17T13:04:26.618Z,,,,,,,,,,,,,,,,,,,,,,,,,,,,,,,5341.768000017881,,completion,,,,,,,,,1,,,,,,,,S,I,O,,108758.70000001788,108756.20000001788,103397.799,103409.30000001192,103414.432,108763.736,,,
Sounds,html.Screen,1_3_3_0,2022-02-17T13:04:30.857Z,,,,,,,,,,,,,,,,,,,,,,,,,,,,,,,4249.593999999997,,timeout,,,,,,,,,2,,,,,,,,I,S,O,,112998.5,112996.874,108747.613,108759,108763.736,113013.33,,,
Judgement,html.Screen,1_3_3_1,2022-02-17T13:04:31.607Z,,,,,,,,,,,,,,,,,,,,,,,,,,,,true,2,,732.5700000059587,,response,,,,,,,,,2,,2,click #choice-2,,,,,I,S,O,,113748,113745.90000000596,112996.874,112998.80000001192,113013.33,113763.224,,,
Trial,flow.Sequence,1_3_3,2022-02-17T13:04:31.607Z,,,,,,,,,,,,,,,,,,,,,,,,,,,,,,,4982.164000005956,,completion,,,,,,,,,2,,,,,,,,I,S,O,,113748.5,113745.90000000596,108747.613,108758.90000000596,108763.736,113763.224,,,
Sounds,html.Screen,1_3_4_0,2022-02-17T13:04:35.857Z,,,,,,,,,,,,,,,,,,,,,,,,,,,,,,,4249.395000000004,,timeout,,,,,,,,,2,,,,,,,,O,S,I,,117997.70000001788,117996.138,113746.542,113748.70000001788,113763.224,118012.619,,,
Judgement,html.Screen,1_3_4_1,2022-02-17T13:04:36.470Z,,,,,,,,,,,,,,,,,,,,,,,,,,,,true,2,,596.9809999940335,,response,,,,,,,,,2,,2,click #choice-2,,,,,O,S,I,,118611.30000001192,118609.59999999404,117996.138,117998,118012.619,118612.504,,,
Trial,flow.Sequence,1_3_4,2022-02-17T13:04:36.471Z,,,,,,,,,,,,,,,,,,,,,,,,,,,,,,,4846.375999994038,,completion,,,,,,,,,2,,,,,,,,O,S,I,,118611.59999999404,118609.59999999404,113746.542,113748.70000001788,113763.224,118612.504,,,
Sounds,html.Screen,1_3_5_0,2022-02-17T13:04:40.705Z,,,,,,,,,,,,,,,,,,,,,,,,,,,,,,,4249.596999999994,,timeout,,,,,,,,,3,,,,,,,,O,I,S,,122846.30000001192,122845.377,118596.438,118611.80000001192,118612.504,122862.101,,,
Judgement,html.Screen,1_3_5_1,2022-02-17T13:04:41.573Z,,,,,,,,,,,,,,,,,,,,,,,,,,,,true,3,,849.7990000059654,,response,,,,,,,,,3,,3,click #choice-3,,,,,O,I,S,,123714.40000000596,123711.90000000596,122845.377,122846.40000000596,122862.101,123728.435,,,
Trial,flow.Sequence,1_3_5,2022-02-17T13:04:41.574Z,,,,,,,,,,,,,,,,,,,,,,,,,,,,,,,5099.39600000596,,completion,,,,,,,,,3,,,,,,,,O,I,S,,123715,123711.90000000596,118596.438,118611.80000001192,118612.504,123728.435,,,
Task,flow.Loop,1_3,2022-02-17T13:04:41.580Z,,,,,,,,,,,,,,,,,,,,,,,,,,,,,,,38245.170000005965,,completion,,,1,,,,,,,,,,,,,,,,,,123720.70000001788,123711.90000000596,85450.413,85463.70000001788,85466.73,123728.435,,,
Trap,html.Screen,1_4,2022-02-17T13:04:41.581Z,,,,,,,,,,,,,,,,,,,,,,,,,,,,,,,NaN,,skipped,,,,,,,,,,,,,,,,,,,,,123721.59999999404,123711.90000000596,,123721.5,,123728.435,,,
Thanks,html.Screen,1_5,2022-02-17T13:04:46.459Z,,,,,,,,,,,,,,,,,,,,,,,,,,,,,,,4869.965000005963,,response,,,,,,,,,,,continue,click button,,,,,,,,,128599.90000000596,128598.40000000596,123712.054,123721.70000001788,123728.435,132677.267,,,
Headphone screening,flow.Sequence,1,2022-02-17T13:04:46.459Z,,,,,,,,,,,,,,,,,,,,,,,,,,,,,,,88409.20200000596,,completion,,,,,,,,,,,,,,,,,,,,,128600.40000000596,128598.40000000596,40172.742,40182.70000001788,40189.198,132677.267,,,
Instructions,html.Page,2_0,2022-02-17T13:05:18.339Z,,,,,,,,,,,,,,,,,,,,,,,,,,,,,,,27802.43300001789,,form submission,,,,,,,,,,,,,,,,,,,,,160480.40000000596,160479.70000001788,132660.601,132681,132677.267,160490.545,,,
Holding screen,html.Screen,2_1_0_0,2022-02-17T13:05:28.333Z,,,,,,,,,,,,,,,,,,,,,,,,,,,,,,,9998.561999999976,,timeout,,,,,,,,,,,,,,,,,,,,,170474.5,170472.548,160474.415,160481,160490.545,170489.107,,,
screen,html.Screen,2_1_0_1_0,2022-02-17T13:05:30.082Z,,,,,,,,,,,,,,,,,53,,,,,,,,,,,,,,1727.9929999940505,,response,,,,99,,,,,,,Space,keypress(Space),,,,,,,,When -- ----- -- ------ - ------- --- ----------<br>------------- ------ ------ ---- ---- ------- ----- -- ----<br>-------- ------- -- ---------- --- - --- ----- ----- ----<br>---- --- --- ----- --- ---- ---- ------- ----- ---- -------<br>--- --- -- ----- -- --- ---- -- --- ---- -- ------ ------<br>--- ----- -- ----,172223,172217.09999999404,170472.548,170475,170489.107,172239.504,,0,When
screen,html.Screen,2_1_0_1_1,2022-02-17T13:05:31.029Z,,,,,,,,,,,,,,,,,53,,,,,,,,,,,,,,929.0959999940533,,response,,,,99,,,,,,,Space,keypress(Space),,,,,,,,---- it ----- -- ------ - ------- --- ----------<br>------------- ------ ------ ---- ---- ------- ----- -- ----<br>-------- ------- -- ---------- --- - --- ----- ----- ----<br>---- --- --- ----- --- ---- ---- ------- ----- ---- -------<br>--- --- -- ----- -- --- ---- -- --- ---- -- ------ ------<br>--- ----- -- ----,173170.09999999404,173168.59999999404,172222.213,172223.30000001192,172239.504,173198.446,,1,it
screen,html.Screen,2_1_0_1_2,2022-02-17T13:05:31.836Z,,,,,,,,,,,,,,,,,53,,,,,,,,,,,,,,776.8540000119247,,response,,,,99,,,,,,,Space,keypress(Space),,,,,,,,---- -- comes -- ------ - ------- --- ----------<br>------------- ------ ------ ---- ---- ------- ----- -- ----<br>-------- ------- -- ---------- --- - --- ----- ----- ----<br>---- --- --- ----- --- ---- ---- ------- ----- ---- -------<br>--- --- -- ----- -- --- ---- -- --- ---- -- ------ ------<br>--- ----- -- ----,173976.59999999404,173975.30000001192,173155.735,173170.40000000596,173198.446,173989.249,,2,comes
screen,html.Screen,2_1_0_1_3,2022-02-17T13:05:32.612Z,,,,,,,,,,,,,,,,,53,,,,,,,,,,,,,,762.8509999940288,,response,,,,99,,,,,,,Space,keypress(Space),,,,,,,,---- -- ----- to ------ - ------- --- ----------<br>------------- ------ ------ ---- ---- ------- ----- -- ----<br>-------- ------- -- ---------- --- - --- ----- ----- ----<br>---- --- --- ----- --- ---- ---- ------- ----- ---- -------<br>--- --- -- ----- -- --- ---- -- --- ---- -- ------ ------<br>--- ----- -- ----,174753.40000000596,174752.09999999404,173972.319,173976.80000001192,173989.249,174782.241,,3,to
screen,html.Screen,2_1_0_1_4,2022-02-17T13:05:33.453Z,,,,,,,,,,,,,,,,,53,,,,,,,,,,,,,,810.6590000059514,,response,,,,99,,,,,,,Space,keypress(Space),,,,,,,,---- -- ----- -- having - ------- --- ----------<br>------------- ------ ------ ---- ---- ------- ----- -- ----<br>-------- ------- -- ---------- --- - --- ----- ----- ----<br>---- --- --- ----- --- ---- ---- ------- ----- ---- -------<br>--- --- -- ----- -- --- ---- -- --- ---- -- ------ ------<br>--- ----- -- ----,175594.20000001788,175592.90000000596,174738.649,174753.59999999404,174782.241,175605.447,,4,having
screen,html.Screen,2_1_0_1_5,2022-02-17T13:05:34.257Z,,,,,,,,,,,,,,,,,53,,,,,,,,,,,,,,791.152999994054,,response,,,,99,,,,,,,Space,keypress(Space),,,,,,,,---- -- ----- -- ------ a ------- --- ----------<br>------------- ------ ------ ---- ---- ------- ----- -- ----<br>-------- ------- -- ---------- --- - --- ----- ----- ----<br>---- --- --- ----- --- ---- ---- ------- ----- ---- -------<br>--- --- -- ----- -- --- ---- -- --- ---- -- ------ ------<br>--- ----- -- ----,176397.90000000596,176396.59999999404,175588.814,175594.5,175605.447,176405.061,,5,a
screen,html.Screen,2_1_0_1_6,2022-02-17T13:05:35.053Z,,,,,,,,,,,,,,,,,53,,,,,,,,,,,,,,787.239000011934,,response,,,,99,,,,,,,Space,keypress(Space),,,,,,,,---- -- ----- -- ------ - lasting --- ----------<br>------------- ------ ------ ---- ---- ------- ----- -- ----<br>-------- ------- -- ---------- --- - --- ----- ----- ----<br>---- --- --- ----- --- ---- ---- ------- ----- ---- -------<br>--- --- -- ----- -- --- ---- -- --- ---- -- ------ ------<br>--- ----- -- ----,177193.80000001192,177192.30000001192,176388.887,176398.20000001788,176405.061,177204.933,,6,lasting
screen,html.Screen,2_1_0_1_7,2022-02-17T13:05:35.818Z,,,,,,,,,,,,,,,,,53,,,,,,,,,,,,,,752.8670000119309,,response,,,,99,,,,,,,Space,keypress(Space),,,,,,,,---- -- ----- -- ------ - ------- and ----------<br>------------- ------ ------ ---- ---- ------- ----- -- ----<br>-------- ------- -- ---------- --- - --- ----- ----- ----<br>---- --- --- ----- --- ---- ---- ------- ----- ---- -------<br>--- --- -- ----- -- --- ---- -- --- ---- -- ------ ------<br>--- ----- -- ----,177959.09999999404,177957.80000001192,177188.713,177194,177204.933,177971.918,,7,and
screen,html.Screen,2_1_0_1_8,2022-02-17T13:05:36.578Z,,,,,,,,,,,,,,,,,53,,,,,,,,,,,,,,746.2820000178763,,response,,,,99,,,,,,,Space,keypress(Space),,,,,,,,---- -- ----- -- ------ - ------- --- fulfilling<br>------------- ------ ------ ---- ---- ------- ----- -- ----<br>-------- ------- -- ---------- --- - --- ----- ----- ----<br>---- --- --- ----- --- ---- ---- ------- ----- ---- -------<br>--- --- -- ----- -- --- ---- -- --- ---- -- ------ ------<br>--- ----- -- ----,178719.40000000596,178718.20000001788,177955.339,177959.40000000596,177971.918,178753.998,,8,fulfilling
screen,html.Screen,2_1_0_1_9,2022-02-17T13:05:37.713Z,,,,,,,,,,,,,,,,,53,,,,,,,,,,,,,,1098.5020000000077,,response,,,,99,,,,,,,Space,keypress(Space),,,,,,,,"---- -- ----- -- ------ - ------- --- ----------<br>relationship, ------ ------ ---- ---- ------- ----- -- ----<br>-------- ------- -- ---------- --- - --- ----- ----- ----<br>---- --- --- ----- --- ---- ---- ------- ----- ---- -------<br>--- --- -- ----- -- --- ---- -- --- ---- -- ------ ------<br>--- ----- -- ----",179853.59999999404,179852.5,178705.306,178719.80000001192,178753.998,179871.577,,9,"relationship,"
screen,html.Screen,2_1_0_1_10,2022-02-17T13:05:38.516Z,,,,,,,,,,,,,,,,,53,,,,,,,,,,,,,,783.2230000119307,,response,,,,99,,,,,,,Space,keypress(Space),,,,,,,,---- -- ----- -- ------ - ------- --- ----------<br>------------- common ------ ---- ---- ------- ----- -- ----<br>-------- ------- -- ---------- --- - --- ----- ----- ----<br>---- --- --- ----- --- ---- ---- ------- ----- ---- -------<br>--- --- -- ----- -- --- ---- -- --- ---- -- ------ ------<br>--- ----- -- ----,180656.70000001788,180654.80000001192,179854.664,179854,179871.577,180671.318,,10,common
screen,html.Screen,2_1_0_1_11,2022-02-17T13:05:39.403Z,,,,,,,,,,,,,,,,,53,,,,,,,,,,,,,,870.9820000119216,,response,,,,99,,,,,,,Space,keypress(Space),,,,,,,,---- -- ----- -- ------ - ------- --- ----------<br>------------- ------ wisdom ---- ---- ------- ----- -- ----<br>-------- ------- -- ---------- --- - --- ----- ----- ----<br>---- --- --- ----- --- ---- ---- ------- ----- ---- -------<br>--- --- -- ----- -- --- ---- -- --- ---- -- ------ ------<br>--- ----- -- ----,181543.59999999404,181542.30000001192,180654.916,180657,180671.318,181554.551,,11,wisdom
screen,html.Screen,2_1_0_1_12,2022-02-17T13:05:40.346Z,,,,,,,,,,,,,,,,,53,,,,,,,,,,,,,,930.6490000178746,,response,,,,99,,,,,,,Space,keypress(Space),,,,,,,,---- -- ----- -- ------ - ------- --- ----------<br>------------- ------ ------ says ---- ------- ----- -- ----<br>-------- ------- -- ---------- --- - --- ----- ----- ----<br>---- --- --- ----- --- ---- ---- ------- ----- ---- -------<br>--- --- -- ----- -- --- ---- -- --- ---- -- ------ ------<br>--- ----- -- ----,182486.5,182485.20000001788,181538.008,181543.80000001192,181554.551,182521.165,,12,says
screen,html.Screen,2_1_0_1_13,2022-02-17T13:05:41.051Z,,,,,,,,,,,,,,,,,53,,,,,,,,,,,,,,668.9349999940314,,response,,,,99,,,,,,,Space,keypress(Space),,,,,,,,---- -- ----- -- ------ - ------- --- ----------<br>------------- ------ ------ ---- that ------- ----- -- ----<br>-------- ------- -- ---------- --- - --- ----- ----- ----<br>---- --- --- ----- --- ---- ---- ------- ----- ---- -------<br>--- --- -- ----- -- --- ---- -- --- ---- -- ------ ------<br>--- ----- -- ----,183191.30000001192,183190.09999999404,182504.617,182486.80000001192,182521.165,183204.211,,13,that
screen,html.Screen,2_1_0_1_14,2022-02-17T13:05:41.829Z,,,,,,,,,,,,,,,,,53,,,,,,,,,,,,,,763.9890000178711,,response,,,,99,,,,,,,Space,keypress(Space),,,,,,,,---- -- ----- -- ------ - ------- --- ----------<br>------------- ------ ------ ---- ---- feeling ----- -- ----<br>-------- ------- -- ---------- --- - --- ----- ----- ----<br>---- --- --- ----- --- ---- ---- ------- ----- ---- -------<br>--- --- -- ----- -- --- ---- -- --- ---- -- ------ ------<br>--- ----- -- ----,183969.40000000596,183968.20000001788,183187.653,183191.59999999404,183204.211,183988.066,,14,feeling
screen,html.Screen,2_1_0_1_15,2022-02-17T13:05:42.627Z,,,,,,,,,,,,,,,,,53,,,,,,,,,,,,,,778.2340000119293,,response,,,,99,,,,,,,Space,keypress(Space),,,,,,,,---- -- ----- -- ------ - ------- --- ----------<br>------------- ------ ------ ---- ---- ------- close -- ----<br>-------- ------- -- ---------- --- - --- ----- ----- ----<br>---- --- --- ----- --- ---- ---- ------- ----- ---- -------<br>--- --- -- ----- -- --- ---- -- --- ---- -- ------ ------<br>--- ----- -- ----,184767.5,184766.30000001192,183954.271,183969.70000001788,183988.066,184770.618,,15,close
screen,html.Screen,2_1_0_1_16,2022-02-17T13:05:43.373Z,,,,,,,,,,,,,,,,,53,,,,,,,,,,,,,,741.9819999940519,,response,,,,99,,,,,,,Space,keypress(Space),,,,,,,,---- -- ----- -- ------ - ------- --- ----------<br>------------- ------ ------ ---- ---- ------- ----- to ----<br>-------- ------- -- ---------- --- - --- ----- ----- ----<br>---- --- --- ----- --- ---- ---- ------- ----- ---- -------<br>--- --- -- ----- -- --- ---- -- --- ---- -- ------ ------<br>--- ----- -- ----,185513.70000001788,185512.59999999404,184754.24,184767.80000001192,184770.618,185520.518,,16,to
screen,html.Screen,2_1_0_1_17,2022-02-17T13:05:44.218Z,,,,,,,,,,,,,,,,,53,,,,,,,,,,,,,,836.6820000178705,,response,,,,99,,,,,,,Space,keypress(Space),,,,,,,,---- -- ----- -- ------ - ------- --- ----------<br>------------- ------ ------ ---- ---- ------- ----- -- your<br>-------- ------- -- ---------- --- - --- ----- ----- ----<br>---- --- --- ----- --- ---- ---- ------- ----- ---- -------<br>--- --- -- ----- -- --- ---- -- --- ---- -- ------ ------<br>--- ----- -- ----,186358.30000001192,186357.20000001788,185504.192,185514,185520.518,186370.615,,17,your
screen,html.Screen,2_1_0_1_18,2022-02-17T13:05:44.923Z,,,,,,,,,,,,,,,,,53,,,,,,,,,,,,,,691.9849999940488,,response,,,,99,,,,,,,Space,keypress(Space),,,,,,,,---- -- ----- -- ------ - ------- --- ----------<br>------------- ------ ------ ---- ---- ------- ----- -- ----<br>romantic ------- -- ---------- --- - --- ----- ----- ----<br>---- --- --- ----- --- ---- ---- ------- ----- ---- -------<br>--- --- -- ----- -- --- ---- -- --- ---- -- ------ ------<br>--- ----- -- ----,187063.80000001192,187062.59999999404,186354.039,186358.70000001788,186370.615,187070.347,,18,romantic
screen,html.Screen,2_1_0_1_19,2022-02-17T13:05:45.589Z,,,,,,,,,,,,,,,,,53,,,,,,,,,,,,,,658.1529999999912,,response,,,,99,,,,,,,Space,keypress(Space),,,,,,,,---- -- ----- -- ------ - ------- --- ----------<br>------------- ------ ------ ---- ---- ------- ----- -- ----<br>-------- partner -- ---------- --- - --- ----- ----- ----<br>---- --- --- ----- --- ---- ---- ------- ----- ---- -------<br>--- --- -- ----- -- --- ---- -- --- ---- -- ------ ------<br>--- ----- -- ----,187729.70000001788,187728.5,187054.312,187064,187070.347,187736.93,,19,partner
screen,html.Screen,2_1_0_1_20,2022-02-17T13:05:46.239Z,,,,,,,,,,,,,,,,,53,,,,,,,,,,,,,,642.070000000007,,response,,,,99,,,,,,,Space,keypress(Space),,,,,,,,---- -- ----- -- ------ - ------- --- ----------<br>------------- ------ ------ ---- ---- ------- ----- -- ----<br>-------- ------- is ---------- --- - --- ----- ----- ----<br>---- --- --- ----- --- ---- ---- ------- ----- ---- -------<br>--- --- -- ----- -- --- ---- -- --- ---- -- ------ ------<br>--- ----- -- ----,188380.20000001788,188379,187720.583,187730,187736.93,188404.173,,20,is
screen,html.Screen,2_1_0_1_21,2022-02-17T13:05:47.178Z,,,,,,,,,,,,,,,,,53,,,,,,,,,,,,,,913.5270000178716,,response,,,,99,,,,,,,Space,keypress(Space),,,,,,,,---- -- ----- -- ------ - ------- --- ----------<br>------------- ------ ------ ---- ---- ------- ----- -- ----<br>-------- ------- -- paramount. --- - --- ----- ----- ----<br>---- --- --- ----- --- ---- ---- ------- ----- ---- -------<br>--- --- -- ----- -- --- ---- -- --- ---- -- ------ ------<br>--- ----- -- ----,189318.90000000596,189317.70000001788,188370.288,188380.5,188404.173,189336.734,,21,paramount.
screen,html.Screen,2_1_0_1_22,2022-02-17T13:05:47.941Z,,,,,,,,,,,,,,,,,53,,,,,,,,,,,,,,743.8659999940428,,response,,,,99,,,,,,,Space,keypress(Space),,,,,,,,---- -- ----- -- ------ - ------- --- ----------<br>------------- ------ ------ ---- ---- ------- ----- -- ----<br>-------- ------- -- ---------- But - --- ----- ----- ----<br>---- --- --- ----- --- ---- ---- ------- ----- ---- -------<br>--- --- -- ----- -- --- ---- -- --- ---- -- ------ ------<br>--- ----- -- ----,190082,190080.59999999404,189303.65,189319.20000001788,189336.734,190086.608,,22,But
screen,html.Screen,2_1_0_1_23,2022-02-17T13:05:48.647Z,,,,,,,,,,,,,,,,,53,,,,,,,,,,,,,,699.792000005953,,response,,,,99,,,,,,,Space,keypress(Space),,,,,,,,---- -- ----- -- ------ - ------- --- ----------<br>------------- ------ ------ ---- ---- ------- ----- -- ----<br>-------- ------- -- ---------- --- a --- ----- ----- ----<br>---- --- --- ----- --- ---- ---- ------- ----- ---- -------<br>--- --- -- ----- -- --- ---- -- --- ---- -- ------ ------<br>--- ----- -- ----,190787.59999999404,190786.40000000596,190070.01,190082.40000000596,190086.608,190803.171,,23,a
screen,html.Screen,2_1_0_1_24,2022-02-17T13:05:49.273Z,,,,,,,,,,,,,,,,,53,,,,,,,,,,,,,,609.2290000059584,,response,,,,99,,,,,,,Space,keypress(Space),,,,,,,,---- -- ----- -- ------ - ------- --- ----------<br>------------- ------ ------ ---- ---- ------- ----- -- ----<br>-------- ------- -- ---------- --- - new ----- ----- ----<br>---- --- --- ----- --- ---- ---- ------- ----- ---- -------<br>--- --- -- ----- -- --- ---- -- --- ---- -- ------ ------<br>--- ----- -- ----,191413.59999999404,191412.40000000596,190786.533,190787.90000000596,190803.171,191419.808,,24,new
screen,html.Screen,2_1_0_1_25,2022-02-17T13:05:49.869Z,,,,,,,,,,,,,,,,,53,,,,,,,,,,,,,,588.2919999940495,,response,,,,99,,,,,,,Space,keypress(Space),,,,,,,,---- -- ----- -- ------ - ------- --- ----------<br>------------- ------ ------ ---- ---- ------- ----- -- ----<br>-------- ------- -- ---------- --- - --- study ----- ----<br>---- --- --- ----- --- ---- ---- ------- ----- ---- -------<br>--- --- -- ----- -- --- ---- -- --- ---- -- ------ ------<br>--- ----- -- ----,192009.20000001788,192008.09999999404,191403.537,191413.80000001192,191419.808,192019.704,,25,study
screen,html.Screen,2_1_0_1_26,2022-02-17T13:05:50.494Z,,,,,,,,,,,,,,,,,53,,,,,,,,,,,,,,613.9960000178835,,response,,,,99,,,,,,,Space,keypress(Space),,,,,,,,---- -- ----- -- ------ - ------- --- ----------<br>------------- ------ ------ ---- ---- ------- ----- -- ----<br>-------- ------- -- ---------- --- - --- ----- finds ----<br>---- --- --- ----- --- ---- ---- ------- ----- ---- -------<br>--- --- -- ----- -- --- ---- -- --- ---- -- ------ ------<br>--- ----- -- ----,192634.90000000596,192633.70000001788,192003.365,192009.59999999404,192019.704,192653.312,,26,finds
screen,html.Screen,2_1_0_1_27,2022-02-17T13:05:51.029Z,,,,,,,,,,,,,,,,,53,,,,,,,,,,,,,,515.2879999940342,,response,,,,99,,,,,,,Space,keypress(Space),,,,,,,,---- -- ----- -- ------ - ------- --- ----------<br>------------- ------ ------ ---- ---- ------- ----- -- ----<br>-------- ------- -- ---------- --- - --- ----- ----- that<br>---- --- --- ----- --- ---- ---- ------- ----- ---- -------<br>--- --- -- ----- -- --- ---- -- --- ---- -- ------ ------<br>--- ----- -- ----,193169.80000001192,193168.59999999404,192619.921,192635.09999999404,192653.312,193186.752,,27,that
screen,html.Screen,2_1_0_1_28,2022-02-17T13:05:51.666Z,,,,,,,,,,,,,,,,,53,,,,,,,,,,,,,,618.8479999940319,,response,,,,99,,,,,,,Space,keypress(Space),,,,,,,,---- -- ----- -- ------ - ------- --- ----------<br>------------- ------ ------ ---- ---- ------- ----- -- ----<br>-------- ------- -- ---------- --- - --- ----- ----- ----<br>it's --- --- ----- --- ---- ---- ------- ----- ---- -------<br>--- --- -- ----- -- --- ---- -- --- ---- -- ------ ------<br>--- ----- -- ----,193806.70000001788,193805.59999999404,193169.903,193170.09999999404,193186.752,193819.568,,28,it's
screen,html.Screen,2_1_0_1_29,2022-02-17T13:05:52.509Z,,,,,,,,,,,,,,,,,53,,,,,,,,,,,,,,829.3320000059612,,response,,,,99,,,,,,,Space,keypress(Space),,,,,,,,---- -- ----- -- ------ - ------- --- ----------<br>------------- ------ ------ ---- ---- ------- ----- -- ----<br>-------- ------- -- ---------- --- - --- ----- ----- ----<br>---- not --- ----- --- ---- ---- ------- ----- ---- -------<br>--- --- -- ----- -- --- ---- -- --- ---- -- ------ ------<br>--- ----- -- ----,194650.09999999404,194648.90000000596,193802.979,193806.90000000596,193819.568,194652.721,,29,not
screen,html.Screen,2_1_0_1_30,2022-02-17T13:05:53.153Z,,,,,,,,,,,,,,,,,53,,,,,,,,,,,,,,640.17900000597,,response,,,,99,,,,,,,Space,keypress(Space),,,,,,,,---- -- ----- -- ------ - ------- --- ----------<br>------------- ------ ------ ---- ---- ------- ----- -- ----<br>-------- ------- -- ---------- --- - --- ----- ----- ----<br>---- --- how ----- --- ---- ---- ------- ----- ---- -------<br>--- --- -- ----- -- --- ---- -- --- ---- -- ------ ------<br>--- ----- -- ----,195294.09999999404,195292.90000000596,194636.541,194650.30000001192,194652.721,195302.652,,30,how
screen,html.Screen,2_1_0_1_31,2022-02-17T13:05:53.937Z,,,,,,,,,,,,,,,,,53,,,,,,,,,,,,,,773.7480000059586,,response,,,,99,,,,,,,Space,keypress(Space),,,,,,,,---- -- ----- -- ------ - ------- --- ----------<br>------------- ------ ------ ---- ---- ------- ----- -- ----<br>-------- ------- -- ---------- --- - --- ----- ----- ----<br>---- --- --- close --- ---- ---- ------- ----- ---- -------<br>--- --- -- ----- -- --- ---- -- --- ---- -- ------ ------<br>--- ----- -- ----,196077.59999999404,196076.40000000596,195286.205,195294.40000000596,195302.652,196085.936,,31,close
screen,html.Screen,2_1_0_1_32,2022-02-17T13:05:54.564Z,,,,,,,,,,,,,,,,,53,,,,,,,,,,,,,,618.2640000178944,,response,,,,99,,,,,,,Space,keypress(Space),,,,,,,,---- -- ----- -- ------ - ------- --- ----------<br>------------- ------ ------ ---- ---- ------- ----- -- ----<br>-------- ------- -- ---------- --- - --- ----- ----- ----<br>---- --- --- ----- you ---- ---- ------- ----- ---- -------<br>--- --- -- ----- -- --- ---- -- --- ---- -- ------ ------<br>--- ----- -- ----,196704.90000000596,196704.20000001788,196069.549,196077.90000000596,196085.936,196719.321,,32,you
screen,html.Screen,2_1_0_1_33,2022-02-17T13:05:55.271Z,,,,,,,,,,,,,,,,,53,,,,,,,,,,,,,,690.5790000059642,,response,,,,99,,,,,,,Space,keypress(Space),,,,,,,,---- -- ----- -- ------ - ------- --- ----------<br>------------- ------ ------ ---- ---- ------- ----- -- ----<br>-------- ------- -- ---------- --- - --- ----- ----- ----<br>---- --- --- ----- --- feel ---- ------- ----- ---- -------<br>--- --- -- ----- -- --- ---- -- --- ---- -- ------ ------<br>--- ----- -- ----,197411.30000001192,197409.90000000596,196702.784,196705,196719.321,197418.998,,33,feel
screen,html.Screen,2_1_0_1_34,2022-02-17T13:05:55.970Z,,,,,,,,,,,,,,,,,53,,,,,,,,,,,,,,690.4020000059681,,response,,,,99,,,,,,,Space,keypress(Space),,,,,,,,---- -- ----- -- ------ - ------- --- ----------<br>------------- ------ ------ ---- ---- ------- ----- -- ----<br>-------- ------- -- ---------- --- - --- ----- ----- ----<br>---- --- --- ----- --- ---- that ------- ----- ---- -------<br>--- --- -- ----- -- --- ---- -- --- ---- -- ------ ------<br>--- ----- -- ----,198110.80000001192,198109.40000000596,197402.458,197411.59999999404,197418.998,198118.967,,34,that
screen,html.Screen,2_1_0_1_35,2022-02-17T13:05:56.668Z,,,,,,,,,,,,,,,,,53,,,,,,,,,,,,,,688.1329999940353,,response,,,,99,,,,,,,Space,keypress(Space),,,,,,,,---- -- ----- -- ------ - ------- --- ----------<br>------------- ------ ------ ---- ---- ------- ----- -- ----<br>-------- ------- -- ---------- --- - --- ----- ----- ----<br>---- --- --- ----- --- ---- ---- matters ----- ---- -------<br>--- --- -- ----- -- --- ---- -- --- ---- -- ------ ------<br>--- ----- -- ----,198808.40000000596,198807.09999999404,198102.519,198111.09999999404,198118.967,198818.779,,35,matters
screen,html.Screen,2_1_0_1_36,2022-02-17T13:05:57.496Z,,,,,,,,,,,,,,,,,53,,,,,,,,,,,,,,817.0210000119114,,response,,,,99,,,,,,,Space,keypress(Space),,,,,,,,"---- -- ----- -- ------ - ------- --- ----------<br>------------- ------ ------ ---- ---- ------- ----- -- ----<br>-------- ------- -- ---------- --- - --- ----- ----- ----<br>---- --- --- ----- --- ---- ---- ------- most, ---- -------<br>--- --- -- ----- -- --- ---- -- --- ---- -- ------ ------<br>--- ----- -- ----",199637.09999999404,199635.80000001192,198802.664,198808.80000001192,198818.779,199652.418,,36,"most,"
screen,html.Screen,2_1_0_1_37,2022-02-17T13:05:58.182Z,,,,,,,,,,,,,,,,,53,,,,,,,,,,,,,,669.0819999999949,,response,,,,99,,,,,,,Space,keypress(Space),,,,,,,,---- -- ----- -- ------ - ------- --- ----------<br>------------- ------ ------ ---- ---- ------- ----- -- ----<br>-------- ------- -- ---------- --- - --- ----- ----- ----<br>---- --- --- ----- --- ---- ---- ------- ----- it's -------<br>--- --- -- ----- -- --- ---- -- --- ---- -- ------ ------<br>--- ----- -- ----,200322.70000001788,200321.5,199636.045,199637.30000001192,199652.418,200335.338,,37,it's
screen,html.Screen,2_1_0_1_38,2022-02-17T13:05:58.861Z,,,,,,,,,,,,,,,,,53,,,,,,,,,,,,,,664.8620000178926,,response,,,,99,,,,,,,Space,keypress(Space),,,,,,,,---- -- ----- -- ------ - ------- --- ----------<br>------------- ------ ------ ---- ---- ------- ----- -- ----<br>-------- ------- -- ---------- --- - --- ----- ----- ----<br>---- --- --- ----- --- ---- ---- ------- ----- ---- whether<br>--- --- -- ----- -- --- ---- -- --- ---- -- ------ ------<br>--- ----- -- ----,201001.59999999404,201000.20000001788,200318.65,200323,200335.338,201018.854,,38,whether
screen,html.Screen,2_1_0_1_39,2022-02-17T13:05:59.571Z,,,,,,,,,,,,,,,,,53,,,,,,,,,,,,,,691.4460000119288,,response,,,,99,,,,,,,Space,keypress(Space),,,,,,,,---- -- ----- -- ------ - ------- --- ----------<br>------------- ------ ------ ---- ---- ------- ----- -- ----<br>-------- ------- -- ---------- --- - --- ----- ----- ----<br>---- --- --- ----- --- ---- ---- ------- ----- ---- -------<br>you --- -- ----- -- --- ---- -- --- ---- -- ------ ------<br>--- ----- -- ----,201711.5,201710.30000001192,201002.369,201001.90000000596,201018.854,201718.466,,39,you
screen,html.Screen,2_1_0_1_40,2022-02-17T13:06:00.317Z,,,,,,,,,,,,,,,,,53,,,,,,,,,,,,,,738.3340000119351,,response,,,,99,,,,,,,Space,keypress(Space),,,,,,,,---- -- ----- -- ------ - ------- --- ----------<br>------------- ------ ------ ---- ---- ------- ----- -- ----<br>-------- ------- -- ---------- --- - --- ----- ----- ----<br>---- --- --- ----- --- ---- ---- ------- ----- ---- -------<br>--- are -- ----- -- --- ---- -- --- ---- -- ------ ------<br>--- ----- -- ----,202458.09999999404,202456.80000001192,201702.377,201711.59999999404,201718.466,202468.441,,40,are
screen,html.Screen,2_1_0_1_41,2022-02-17T13:06:01.034Z,,,,,,,,,,,,,,,,,53,,,,,,,,,,,,,,705.5590000000084,,response,,,,99,,,,,,,Space,keypress(Space),,,,,,,,---- -- ----- -- ------ - ------- --- ----------<br>------------- ------ ------ ---- ---- ------- ----- -- ----<br>-------- ------- -- ---------- --- - --- ----- ----- ----<br>---- --- --- ----- --- ---- ---- ------- ----- ---- -------<br>--- --- as ----- -- --- ---- -- --- ---- -- ------ ------<br>--- ----- -- ----,203175.20000001788,203174,202451.814,202458.40000000596,202468.441,203185.073,,41,as
screen,html.Screen,2_1_0_1_42,2022-02-17T13:06:01.987Z,,,,,,,,,,,,,,,,,53,,,,,,,,,,,,,,941.5269999940356,,response,,,,99,,,,,,,Space,keypress(Space),,,,,,,,---- -- ----- -- ------ - ------- --- ----------<br>------------- ------ ------ ---- ---- ------- ----- -- ----<br>-------- ------- -- ---------- --- - --- ----- ----- ----<br>---- --- --- ----- --- ---- ---- ------- ----- ---- -------<br>--- --- -- close -- --- ---- -- --- ---- -- ------ ------<br>--- ----- -- ----,204127.80000001192,204126.59999999404,203168.412,203175.5,203185.073,204134.823,,42,close
screen,html.Screen,2_1_0_1_43,2022-02-17T13:06:02.643Z,,,,,,,,,,,,,,,,,53,,,,,,,,,,,,,,647.977000011917,,response,,,,99,,,,,,,Space,keypress(Space),,,,,,,,---- -- ----- -- ------ - ------- --- ----------<br>------------- ------ ------ ---- ---- ------- ----- -- ----<br>-------- ------- -- ---------- --- - --- ----- ----- ----<br>---- --- --- ----- --- ---- ---- ------- ----- ---- -------<br>--- --- -- ----- as --- ---- -- --- ---- -- ------ ------<br>--- ----- -- ----,204784,204782.80000001192,204118.204,204128.09999999404,204134.823,204802.041,,43,as
screen,html.Screen,2_1_0_1_44,2022-02-17T13:06:03.361Z,,,,,,,,,,,,,,,,,53,,,,,,,,,,,,,,698.659000017884,,response,,,,99,,,,,,,Space,keypress(Space),,,,,,,,---- -- ----- -- ------ - ------- --- ----------<br>------------- ------ ------ ---- ---- ------- ----- -- ----<br>-------- ------- -- ---------- --- - --- ----- ----- ----<br>---- --- --- ----- --- ---- ---- ------- ----- ---- -------<br>--- --- -- ----- -- you ---- -- --- ---- -- ------ ------<br>--- ----- -- ----,205501.90000000596,205500.70000001788,204785.067,204784.30000001192,204802.041,205518.703,,44,you
screen,html.Screen,2_1_0_1_45,2022-02-17T13:06:04.050Z,,,,,,,,,,,,,,,,,53,,,,,,,,,,,,,,671.1970000059518,,response,,,,99,,,,,,,Space,keypress(Space),,,,,,,,---- -- ----- -- ------ - ------- --- ----------<br>------------- ------ ------ ---- ---- ------- ----- -- ----<br>-------- ------- -- ---------- --- - --- ----- ----- ----<br>---- --- --- ----- --- ---- ---- ------- ----- ---- -------<br>--- --- -- ----- -- --- want -- --- ---- -- ------ ------<br>--- ----- -- ----,206191.09999999404,206189.90000000596,205501.367,205502.20000001788,205518.703,206201.37,,45,want
screen,html.Screen,2_1_0_1_46,2022-02-17T13:06:04.687Z,,,,,,,,,,,,,,,,,53,,,,,,,,,,,,,,625.6300000000047,,response,,,,99,,,,,,,Space,keypress(Space),,,,,,,,---- -- ----- -- ------ - ------- --- ----------<br>------------- ------ ------ ---- ---- ------- ----- -- ----<br>-------- ------- -- ---------- --- - --- ----- ----- ----<br>---- --- --- ----- --- ---- ---- ------- ----- ---- -------<br>--- --- -- ----- -- --- ---- to --- ---- -- ------ ------<br>--- ----- -- ----,206828.20000001788,206827,206184.737,206191.30000001192,206201.37,206834.478,,46,to
screen,html.Screen,2_1_0_1_47,2022-02-17T13:06:05.420Z,,,,,,,,,,,,,,,,,53,,,,,,,,,,,,,,724.9220000059577,,response,,,,99,,,,,,,Space,keypress(Space),,,,,,,,"---- -- ----- -- ------ - ------- --- ----------<br>------------- ------ ------ ---- ---- ------- ----- -- ----<br>-------- ------- -- ---------- --- - --- ----- ----- ----<br>---- --- --- ----- --- ---- ---- ------- ----- ---- -------<br>--- --- -- ----- -- --- ---- -- be, ---- -- ------ ------<br>--- ----- -- ----",207560.59999999404,207559.40000000596,206818.133,206828.5,206834.478,207567.724,,47,"be,"
screen,html.Screen,2_1_0_1_48,2022-02-17T13:06:06.006Z,,,,,,,,,,,,,,,,,53,,,,,,,,,,,,,,577.476000017894,,response,,,,99,,,,,,,Space,keypress(Space),,,,,,,,---- -- ----- -- ------ - ------- --- ----------<br>------------- ------ ------ ---- ---- ------- ----- -- ----<br>-------- ------- -- ---------- --- - --- ----- ----- ----<br>---- --- --- ----- --- ---- ---- ------- ----- ---- -------<br>--- --- -- ----- -- --- ---- -- --- even -- ------ ------<br>--- ----- -- ----,208146.40000000596,208145.20000001788,207551.419,207560.90000000596,207567.724,208150.957,,48,even
screen,html.Screen,2_1_0_1_49,2022-02-17T13:06:06.545Z,,,,,,,,,,,,,,,,,53,,,,,,,,,,,,,,533.843000011926,,response,,,,99,,,,,,,Space,keypress(Space),,,,,,,,---- -- ----- -- ------ - ------- --- ----------<br>------------- ------ ------ ---- ---- ------- ----- -- ----<br>-------- ------- -- ---------- --- - --- ----- ----- ----<br>---- --- --- ----- --- ---- ---- ------- ----- ---- -------<br>--- --- -- ----- -- --- ---- -- --- ---- if ------ ------<br>--- ----- -- ----,208686.09999999404,208684.80000001192,208134.56,208146.70000001788,208150.957,208700.913,,49,if
screen,html.Screen,2_1_0_1_50,2022-02-17T13:06:07.152Z,,,,,,,,,,,,,,,,,53,,,,,,,,,,,,,,590.3870000119205,,response,,,,99,,,,,,,Space,keypress(Space),,,,,,,,---- -- ----- -- ------ - ------- --- ----------<br>------------- ------ ------ ---- ---- ------- ----- -- ----<br>-------- ------- -- ---------- --- - --- ----- ----- ----<br>---- --- --- ----- --- ---- ---- ------- ----- ---- -------<br>--- --- -- ----- -- --- ---- -- --- ---- -- that's ------<br>--- ----- -- ----,209292.5,209291.30000001192,208684.562,208686.40000000596,208700.913,209300.915,,50,that's
screen,html.Screen,2_1_0_1_51,2022-02-17T13:06:07.772Z,,,,,,,,,,,,,,,,,53,,,,,,,,,,,,,,610.7850000178732,,response,,,,99,,,,,,,Space,keypress(Space),,,,,,,,---- -- ----- -- ------ - ------- --- ----------<br>------------- ------ ------ ---- ---- ------- ----- -- ----<br>-------- ------- -- ---------- --- - --- ----- ----- ----<br>---- --- --- ----- --- ---- ---- ------- ----- ---- -------<br>--- --- -- ----- -- --- ---- -- --- ---- -- ------ really<br>--- ----- -- ----,209913.09999999404,209911.70000001788,209284.702,209292.70000001788,209300.915,209917.384,,51,really
screen,html.Screen,2_1_0_1_52,2022-02-17T13:06:08.353Z,,,,,,,,,,,,,,,,,53,,,,,,,,,,,,,,575.41600001193,,response,,,,99,,,,,,,Space,keypress(Space),,,,,,,,---- -- ----- -- ------ - ------- --- ----------<br>------------- ------ ------ ---- ---- ------- ----- -- ----<br>-------- ------- -- ---------- --- - --- ----- ----- ----<br>---- --- --- ----- --- ---- ---- ------- ----- ---- -------<br>--- --- -- ----- -- --- ---- -- --- ---- -- ------ ------<br>not ----- -- ----,210494,210492.80000001192,209901.237,209913.40000000596,209917.384,210500.673,,52,not
screen,html.Screen,2_1_0_1_53,2022-02-17T13:06:08.965Z,,,,,,,,,,,,,,,,,53,,,,,,,,,,,,,,603.8269999999902,,response,,,,99,,,,,,,Space,keypress(Space),,,,,,,,---- -- ----- -- ------ - ------- --- ----------<br>------------- ------ ------ ---- ---- ------- ----- -- ----<br>-------- ------- -- ---------- --- - --- ----- ----- ----<br>---- --- --- ----- --- ---- ---- ------- ----- ---- -------<br>--- --- -- ----- -- --- ---- -- --- ---- -- ------ ------<br>--- close -- ----,211105.80000001192,211104.5,210484.24,210494.30000001192,210500.673,211117.99,,53,close
screen,html.Screen,2_1_0_1_54,2022-02-17T13:06:09.549Z,,,,,,,,,,,,,,,,,53,,,,,,,,,,,,,,570.9100000059698,,response,,,,99,,,,,,,Space,keypress(Space),,,,,,,,---- -- ----- -- ------ - ------- --- ----------<br>------------- ------ ------ ---- ---- ------- ----- -- ----<br>-------- ------- -- ---------- --- - --- ----- ----- ----<br>---- --- --- ----- --- ---- ---- ------- ----- ---- -------<br>--- --- -- ----- -- --- ---- -- --- ---- -- ------ ------<br>--- ----- at ----,211690.20000001788,211688.90000000596,211101.102,211106,211117.99,211700.812,,54,at
screen,html.Screen,2_1_0_1_55,2022-02-17T13:06:10.951Z,,,,,,,,,,,,,,,,,53,,,,,,,,,,,,,,1389.888000017876,,response,,,,99,,,,,,,Space,keypress(Space),,,,,,,,---- -- ----- -- ------ - ------- --- ----------<br>------------- ------ ------ ---- ---- ------- ----- -- ----<br>-------- ------- -- ---------- --- - --- ----- ----- ----<br>---- --- --- ----- --- ---- ---- ------- ----- ---- -------<br>--- --- -- ----- -- --- ---- -- --- ---- -- ------ ------<br>--- ----- -- all.,213092,213090.70000001788,211683.852,211690.40000000596,211700.812,213100.262,,55,all.
Item 99,flow.Loop,2_1_0_1,2022-02-17T13:06:10.952Z,,,,,,,,,,,,,,,,,,,,,,,,,,,,,,,42601.59300001789,,completion,,,,,D,,,,,,,,,,,silence,,,,,213092.59999999404,213090.70000001788,170472.548,170474.90000000596,170489.107,213100.262,,,
Question 1,html.Screen,2_1_0_2,2022-02-17T13:06:15.791Z,,,,,,,,,,,,,,,,,,,,,,,,,,,,true,FALSE,,4829.837999994052,,response,,,,99,D,,,,,,FALSE,click #choice-2,,,,silence,,,,,217931.80000001192,217930.09999999404,213083.696,213092.80000001192,213100.262,217933.012,,,
Question 2,html.Screen,2_1_0_3,2022-02-17T13:06:23.465Z,,,,,,,,,,,,,,,,,,,,,,,,,,,,true,TRUE,,7670.888000005973,,response,,,,99,D,,,,,,TRUE,click #choice-1,,,,silence,,,,,225605.5,225603.90000000596,217916.571,217932.09999999404,217933.012,225615.297,,,
Item 99,flow.Sequence,2_1_0,2022-02-17T13:06:23.465Z,,,,,,,,,,,,,,,,,,,,,,,,,,,,,,,65113.35500000595,,completion,,,,,,,,,,,,,,,,,,,,,225606.09999999404,225603.90000000596,160474.415,160480.90000000596,160490.545,225615.297,,,
Holding screen,html.Screen,2_1_1_0,2022-02-17T13:06:33.459Z,,,,,,,,,,,,,,,,,,,,,,,,,,,,,,,9998.789000000019,,timeout,,,,,,,,,,,,,,,,,,,,,235599.30000001192,235598.096,225599.052,225606.40000000596,225615.297,235614.086,,,
screen,html.Screen,2_1_1_1_0,2022-02-17T13:06:34.374Z,,,,,,,,,,,,,,,,,54,,,,,,,,,,,,,,899.8140000059502,,response,,,,100,,,,,,,Space,keypress(Space),,,,,,,,At --- ---- --- ------ ----- ------- ---- -- --- ------- --<br>------- ---------- ------ -- ----- -- ----- -- ---- ------<br>--- ----- --- --- ------ -------- ----- --- ------ ----- --<br>----- ----- ---------- --- --- ------ ------ ---- -- ------<br>------- --- ------ ----- --- ---- ------- -- ---- --- --<br>------- ------,236515.09999999404,236513.90000000596,235598.096,235599.59999999404,235614.086,236530.814,,0,At
screen,html.Screen,2_1_1_1_1,2022-02-17T13:06:34.976Z,,,,,,,,,,,,,,,,,54,,,,,,,,,,,,,,584.2859999940265,,response,,,,100,,,,,,,Space,keypress(Space),,,,,,,,-- the ---- --- ------ ----- ------- ---- -- --- ------- --<br>------- ---------- ------ -- ----- -- ----- -- ---- ------<br>--- ----- --- --- ------ -------- ----- --- ------ ----- --<br>----- ----- ---------- --- --- ------ ------ ---- -- ------<br>------- --- ------ ----- --- ---- ------- -- ---- --- --<br>------- ------,237116.40000000596,237115.09999999404,236514.595,236515.5,236530.814,237130.617,,1,the
screen,html.Screen,2_1_1_1_2,2022-02-17T13:06:35.799Z,,,,,,,,,,,,,,,,,54,,,,,,,,,,,,,,807.6830000119226,,response,,,,100,,,,,,,Space,keypress(Space),,,,,,,,-- --- time --- ------ ----- ------- ---- -- --- ------- --<br>------- ---------- ------ -- ----- -- ----- -- ---- ------<br>--- ----- --- --- ------ -------- ----- --- ------ ----- --<br>----- ----- ---------- --- --- ------ ------ ---- -- ------<br>------- --- ------ ----- --- ---- ------- -- ---- --- --<br>------- ------,237939.40000000596,237938.30000001192,237114.19,237116.59999999404,237130.617,237947.141,,2,time
screen,html.Screen,2_1_1_1_3,2022-02-17T13:06:36.461Z,,,,,,,,,,,,,,,,,54,,,,,,,,,,,,,,653.7590000059572,,response,,,,100,,,,,,,Space,keypress(Space),,,,,,,,-- --- ---- the ------ ----- ------- ---- -- --- ------- --<br>------- ---------- ------ -- ----- -- ----- -- ---- ------<br>--- ----- --- --- ------ -------- ----- --- ------ ----- --<br>----- ----- ---------- --- --- ------ ------ ---- -- ------<br>------- --- ------ ----- --- ---- ------- -- ---- --- --<br>------- ------,238602.09999999404,238600.90000000596,237931.084,237939.70000001788,237947.141,238613.769,,3,the
screen,html.Screen,2_1_1_1_4,2022-02-17T13:06:37.257Z,,,,,,,,,,,,,,,,,54,,,,,,,,,,,,,,782.8309999940393,,response,,,,100,,,,,,,Space,keypress(Space),,,,,,,,-- --- ---- --- French ----- ------- ---- -- --- ------- --<br>------- ---------- ------ -- ----- -- ----- -- ---- ------<br>--- ----- --- --- ------ -------- ----- --- ------ ----- --<br>----- ----- ---------- --- --- ------ ------ ---- -- ------<br>------- --- ------ ----- --- ---- ------- -- ---- --- --<br>------- ------,239397.70000001788,239396.59999999404,238597.181,238602.30000001192,238613.769,239413.719,,4,French
screen,html.Screen,2_1_1_1_5,2022-02-17T13:06:37.887Z,,,,,,,,,,,,,,,,,54,,,,,,,,,,,,,,613.081000011909,,response,,,,100,,,,,,,Space,keypress(Space),,,,,,,,-- --- ---- --- ------ crown ------- ---- -- --- ------- --<br>------- ---------- ------ -- ----- -- ----- -- ---- ------<br>--- ----- --- --- ------ -------- ----- --- ------ ----- --<br>----- ----- ---------- --- --- ------ ------ ---- -- ------<br>------- --- ------ ----- --- ---- ------- -- ---- --- --<br>------- ------,240028,240026.80000001192,239396.959,239398,239413.719,240030.168,,5,crown
screen,html.Screen,2_1_1_1_6,2022-02-17T13:06:38.463Z,,,,,,,,,,,,,,,,,54,,,,,,,,,,,,,,572.1320000119158,,response,,,,100,,,,,,,Space,keypress(Space),,,,,,,,-- --- ---- --- ------ ----- secured ---- -- --- ------- --<br>------- ---------- ------ -- ----- -- ----- -- ---- ------<br>--- ----- --- --- ------ -------- ----- --- ------ ----- --<br>----- ----- ---------- --- --- ------ ------ ---- -- ------<br>------- --- ------ ----- --- ---- ------- -- ---- --- --<br>------- ------,240603.59999999404,240602.30000001192,240013.558,240028.20000001788,240030.168,240613.466,,6,secured
screen,html.Screen,2_1_1_1_7,2022-02-17T13:06:39.024Z,,,,,,,,,,,,,,,,,54,,,,,,,,,,,,,,549.7340000178956,,response,,,,100,,,,,,,Space,keypress(Space),,,,,,,,-- --- ---- --- ------ ----- ------- much -- --- ------- --<br>------- ---------- ------ -- ----- -- ----- -- ---- ------<br>--- ----- --- --- ------ -------- ----- --- ------ ----- --<br>----- ----- ---------- --- --- ------ ------ ---- -- ------<br>------- --- ------ ----- --- ---- ------- -- ---- --- --<br>------- ------,241164.40000000596,241163.20000001788,240597.011,240603.90000000596,240613.466,241180.373,,7,much
screen,html.Screen,2_1_1_1_8,2022-02-17T13:06:39.625Z,,,,,,,,,,,,,,,,,54,,,,,,,,,,,,,,584.4270000119286,,response,,,,100,,,,,,,Space,keypress(Space),,,,,,,,-- --- ---- --- ------ ----- ------- ---- of --- ------- --<br>------- ---------- ------ -- ----- -- ----- -- ---- ------<br>--- ----- --- --- ------ -------- ----- --- ------ ----- --<br>----- ----- ---------- --- --- ------ ------ ---- -- ------<br>------- --- ------ ----- --- ---- ------- -- ---- --- --<br>------- ------,241766.09999999404,241764.80000001192,241163.712,241164.70000001788,241180.373,241780.015,,8,of
screen,html.Screen,2_1_1_1_9,2022-02-17T13:06:40.085Z,,,,,,,,,,,,,,,,,54,,,,,,,,,,,,,,444.98499999998603,,response,,,,100,,,,,,,Space,keypress(Space),,,,,,,,-- --- ---- --- ------ ----- ------- ---- -- its ------- --<br>------- ---------- ------ -- ----- -- ----- -- ---- ------<br>--- ----- --- --- ------ -------- ----- --- ------ ----- --<br>----- ----- ---------- --- --- ------ ------ ---- -- ------<br>------- --- ------ ----- --- ---- ------- -- ---- --- --<br>------- ------,242226.20000001788,242225,241763.354,241766.20000001788,241780.015,242229.928,,9,its
screen,html.Screen,2_1_1_1_10,2022-02-17T13:06:40.588Z,,,,,,,,,,,,,,,,,54,,,,,,,,,,,,,,498.77200001786696,,response,,,,100,,,,,,,Space,keypress(Space),,,,,,,,-- --- ---- --- ------ ----- ------- ---- -- --- revenue --<br>------- ---------- ------ -- ----- -- ----- -- ---- ------<br>--- ----- --- --- ------ -------- ----- --- ------ ----- --<br>----- ----- ---------- --- --- ------ ------ ---- -- ------<br>------- --- ------ ----- --- ---- ------- -- ---- --- --<br>------- ------,242729.90000000596,242728.70000001788,242213.876,242226.5,242229.928,242746.846,,10,revenue
screen,html.Screen,2_1_1_1_11,2022-02-17T13:06:41.089Z,,,,,,,,,,,,,,,,,54,,,,,,,,,,,,,,482.85400001789094,,response,,,,100,,,,,,,Space,keypress(Space),,,,,,,,-- --- ---- --- ------ ----- ------- ---- -- --- ------- by<br>------- ---------- ------ -- ----- -- ----- -- ---- ------<br>--- ----- --- --- ------ -------- ----- --- ------ ----- --<br>----- ----- ---------- --- --- ------ ------ ---- -- ------<br>------- --- ------ ----- --- ---- ------- -- ---- --- --<br>------- ------,243230.90000000596,243229.70000001788,242730.16,242730.09999999404,242746.846,243247.023,,11,by
screen,html.Screen,2_1_1_1_12,2022-02-17T13:06:41.648Z,,,,,,,,,,,,,,,,,54,,,,,,,,,,,,,,541.576999994053,,response,,,,100,,,,,,,Space,keypress(Space),,,,,,,,-- --- ---- --- ------ ----- ------- ---- -- --- ------- --<br>issuing ---------- ------ -- ----- -- ----- -- ---- ------<br>--- ----- --- --- ------ -------- ----- --- ------ ----- --<br>----- ----- ---------- --- --- ------ ------ ---- -- ------<br>------- --- ------ ----- --- ---- ------- -- ---- --- --<br>------- ------,243789.90000000596,243788.59999999404,243230.439,243231.09999999404,243247.023,243796.369,,12,issuing
screen,html.Screen,2_1_1_1_13,2022-02-17T13:06:42.139Z,,,,,,,,,,,,,,,,,54,,,,,,,,,,,,,,482.4310000119149,,response,,,,100,,,,,,,Space,keypress(Space),,,,,,,,-- --- ---- --- ------ ----- ------- ---- -- --- ------- --<br>------- government ------ -- ----- -- ----- -- ---- ------<br>--- ----- --- --- ------ -------- ----- --- ------ ----- --<br>----- ----- ---------- --- --- ------ ------ ---- -- ------<br>------- --- ------ ----- --- ---- ------- -- ---- --- --<br>------- ------,244280,244278.80000001192,243780.208,243790.09999999404,243796.369,244296.878,,13,government
screen,html.Screen,2_1_1_1_14,2022-02-17T13:06:43.233Z,,,,,,,,,,,,,,,,,54,,,,,,,,,,,,,,1076.0220000059635,,response,,,,100,,,,,,,Space,keypress(Space),,,,,,,,-- --- ---- --- ------ ----- ------- ---- -- --- ------- --<br>------- ---------- bonds. -- ----- -- ----- -- ---- ------<br>--- ----- --- --- ------ -------- ----- --- ------ ----- --<br>----- ----- ---------- --- --- ------ ------ ---- -- ------<br>------- --- ------ ----- --- ---- ------- -- ---- --- --<br>------- ------,245374.09999999404,245372.90000000596,244280,244280.30000001192,244296.878,245379.504,,14,bonds.
screen,html.Screen,2_1_1_1_15,2022-02-17T13:06:43.903Z,,,,,,,,,,,,,,,,,54,,,,,,,,,,,,,,664.1960000178951,,response,,,,100,,,,,,,Space,keypress(Space),,,,,,,,-- --- ---- --- ------ ----- ------- ---- -- --- ------- --<br>------- ---------- ------ In ----- -- ----- -- ---- ------<br>--- ----- --- --- ------ -------- ----- --- ------ ----- --<br>----- ----- ---------- --- --- ------ ------ ---- -- ------<br>------- --- ------ ----- --- ---- ------- -- ---- --- --<br>------- ------,246044.90000000596,246043.70000001788,245363.084,245374.30000001192,245379.504,246069.227,,15,In
screen,html.Screen,2_1_1_1_16,2022-02-17T13:06:45.095Z,,,,,,,,,,,,,,,,,54,,,,,,,,,,,,,,1165.973000017868,,response,,,,100,,,,,,,Space,keypress(Space),,,,,,,,"-- --- ---- --- ------ ----- ------- ---- -- --- ------- --<br>------- ---------- ------ -- 1727, -- ----- -- ---- ------<br>--- ----- --- --- ------ -------- ----- --- ------ ----- --<br>----- ----- ---------- --- --- ------ ------ ---- -- ------<br>------- --- ------ ----- --- ---- ------- -- ---- --- --<br>------- ------",247236.30000001192,247235.20000001788,246029.766,246045.09999999404,246069.227,247246.053,,16,"1727,"
screen,html.Screen,2_1_1_1_17,2022-02-17T13:06:46.200Z,,,,,,,,,,,,,,,,,54,,,,,,,,,,,,,,1094.546999994025,,response,,,,100,,,,,,,Space,keypress(Space),,,,,,,,-- --- ---- --- ------ ----- ------- ---- -- --- ------- --<br>------- ---------- ------ -- ----- in ----- -- ---- ------<br>--- ----- --- --- ------ -------- ----- --- ------ ----- --<br>----- ----- ---------- --- --- ------ ------ ---- -- ------<br>------- --- ------ ----- --- ---- ------- -- ---- --- --<br>------- ------,248341.90000000596,248340.59999999404,247229.583,247236.59999999404,247246.053,248345.814,,17,in
screen,html.Screen,2_1_1_1_18,2022-02-17T13:06:46.771Z,,,,,,,,,,,,,,,,,54,,,,,,,,,,,,,,564.8860000178684,,response,,,,100,,,,,,,Space,keypress(Space),,,,,,,,-- --- ---- --- ------ ----- ------- ---- -- --- ------- --<br>------- ---------- ------ -- ----- -- order -- ---- ------<br>--- ----- --- --- ------ -------- ----- --- ------ ----- --<br>----- ----- ---------- --- --- ------ ------ ---- -- ------<br>------- --- ------ ----- --- ---- ------- -- ---- --- --<br>------- ------,248912.09999999404,248910.70000001788,248329.479,248342.20000001788,248345.814,248929.734,,18,order
screen,html.Screen,2_1_1_1_19,2022-02-17T13:06:47.324Z,,,,,,,,,,,,,,,,,54,,,,,,,,,,,,,,534.6660000059637,,response,,,,100,,,,,,,Space,keypress(Space),,,,,,,,-- --- ---- --- ------ ----- ------- ---- -- --- ------- --<br>------- ---------- ------ -- ----- -- ----- to ---- ------<br>--- ----- --- --- ------ -------- ----- --- ------ ----- --<br>----- ----- ---------- --- --- ------ ------ ---- -- ------<br>------- --- ------ ----- --- ---- ------- -- ---- --- --<br>------- ------,249465.70000001788,249464.40000000596,248912.391,248912.30000001192,248929.734,249479.664,,19,to
screen,html.Screen,2_1_1_1_20,2022-02-17T13:06:48.306Z,,,,,,,,,,,,,,,,,54,,,,,,,,,,,,,,966.6360000119312,,response,,,,100,,,,,,,Space,keypress(Space),,,,,,,,-- --- ---- --- ------ ----- ------- ---- -- --- ------- --<br>------- ---------- ------ -- ----- -- ----- -- save ------<br>--- ----- --- --- ------ -------- ----- --- ------ ----- --<br>----- ----- ---------- --- --- ------ ------ ---- -- ------<br>------- --- ------ ----- --- ---- ------- -- ---- --- --<br>------- ------,250447.5,250446.30000001192,249462.833,249465.90000000596,249479.664,250462.878,,20,save
screen,html.Screen,2_1_1_1_21,2022-02-17T13:06:48.977Z,,,,,,,,,,,,,,,,,54,,,,,,,,,,,,,,654.5220000059635,,response,,,,100,,,,,,,Space,keypress(Space),,,,,,,,"-- --- ---- --- ------ ----- ------- ---- -- --- ------- --<br>------- ---------- ------ -- ----- -- ----- -- ---- money,<br>--- ----- --- --- ------ -------- ----- --- ------ ----- --<br>----- ----- ---------- --- --- ------ ------ ---- -- ------<br>------- --- ------ ----- --- ---- ------- -- ---- --- --<br>------- ------",251118.59999999404,251117.40000000596,250445.761,250447.80000001192,250462.878,251128.733,,21,"money,"
screen,html.Screen,2_1_1_1_22,2022-02-17T13:06:49.679Z,,,,,,,,,,,,,,,,,54,,,,,,,,,,,,,,690.0670000119135,,response,,,,100,,,,,,,Space,keypress(Space),,,,,,,,-- --- ---- --- ------ ----- ------- ---- -- --- ------- --<br>------- ---------- ------ -- ----- -- ----- -- ---- ------<br>the ----- --- --- ------ -------- ----- --- ------ ----- --<br>----- ----- ---------- --- --- ------ ------ ---- -- ------<br>------- --- ------ ----- --- ---- ------- -- ---- --- --<br>------- ------,251819.90000000596,251818.80000001192,251112.722,251118.90000000596,251128.733,251828.744,,22,the
screen,html.Screen,2_1_1_1_23,2022-02-17T13:06:50.273Z,,,,,,,,,,,,,,,,,54,,,,,,,,,,,,,,584.0560000119149,,response,,,,100,,,,,,,Space,keypress(Space),,,,,,,,-- --- ---- --- ------ ----- ------- ---- -- --- ------- --<br>------- ---------- ------ -- ----- -- ----- -- ---- ------<br>--- state --- --- ------ -------- ----- --- ------ ----- --<br>----- ----- ---------- --- --- ------ ------ ---- -- ------<br>------- --- ------ ----- --- ---- ------- -- ---- --- --<br>------- ------,252414.09999999404,252412.80000001192,251812.322,251820.20000001788,251828.744,252428.847,,23,state
screen,html.Screen,2_1_1_1_24,2022-02-17T13:06:50.899Z,,,,,,,,,,,,,,,,,54,,,,,,,,,,,,,,610.8530000178725,,response,,,,100,,,,,,,Space,keypress(Space),,,,,,,,-- --- ---- --- ------ ----- ------- ---- -- --- ------- --<br>------- ---------- ------ -- ----- -- ----- -- ---- ------<br>--- ----- cut --- ------ -------- ----- --- ------ ----- --<br>----- ----- ---------- --- --- ------ ------ ---- -- ------<br>------- --- ------ ----- --- ---- ------- -- ---- --- --<br>------- ------,253040.90000000596,253039.70000001788,252412.223,252414.40000000596,252428.847,253045.209,,24,cut
screen,html.Screen,2_1_1_1_25,2022-02-17T13:06:51.394Z,,,,,,,,,,,,,,,,,54,,,,,,,,,,,,,,489.29099999999744,,response,,,,100,,,,,,,Space,keypress(Space),,,,,,,,-- --- ---- --- ------ ----- ------- ---- -- --- ------- --<br>------- ---------- ------ -- ----- -- ----- -- ---- ------<br>--- ----- --- the ------ -------- ----- --- ------ ----- --<br>----- ----- ---------- --- --- ------ ------ ---- -- ------<br>------- --- ------ ----- --- ---- ------- -- ---- --- --<br>------- ------,253535.80000001192,253534.5,253028.767,253041.20000001788,253045.209,253545.254,,25,the
screen,html.Screen,2_1_1_1_26,2022-02-17T13:06:51.920Z,,,,,,,,,,,,,,,,,54,,,,,,,,,,,,,,515.0460000119347,,response,,,,100,,,,,,,Space,keypress(Space),,,,,,,,-- --- ---- --- ------ ----- ------- ---- -- --- ------- --<br>------- ---------- ------ -- ----- -- ----- -- ---- ------<br>--- ----- --- --- bonds' -------- ----- --- ------ ----- --<br>----- ----- ---------- --- --- ------ ------ ---- -- ------<br>------- --- ------ ----- --- ---- ------- -- ---- --- --<br>------- ------,254061.59999999404,254060.30000001192,253528.737,253536.09999999404,253545.254,254078.977,,26,bonds'
screen,html.Screen,2_1_1_1_27,2022-02-17T13:06:52.434Z,,,,,,,,,,,,,,,,,54,,,,,,,,,,,,,,495.12299999402603,,response,,,,100,,,,,,,Space,keypress(Space),,,,,,,,-- --- ---- --- ------ ----- ------- ---- -- --- ------- --<br>------- ---------- ------ -- ----- -- ----- -- ---- ------<br>--- ----- --- --- ------ interest ----- --- ------ ----- --<br>----- ----- ---------- --- --- ------ ------ ---- -- ------<br>------- --- ------ ----- --- ---- ------- -- ---- --- --<br>------- ------,254575.30000001192,254574.09999999404,254062.236,254061.80000001192,254078.977,254578.337,,27,interest
screen,html.Screen,2_1_1_1_28,2022-02-17T13:06:53.362Z,,,,,,,,,,,,,,,,,54,,,,,,,,,,,,,,924.0630000059609,,response,,,,100,,,,,,,Space,keypress(Space),,,,,,,,-- --- ---- --- ------ ----- ------- ---- -- --- ------- --<br>------- ---------- ------ -- ----- -- ----- -- ---- ------<br>--- ----- --- --- ------ -------- rate. --- ------ ----- --<br>----- ----- ---------- --- --- ------ ------ ---- -- ------<br>------- --- ------ ----- --- ---- ------- -- ---- --- --<br>------- ------,255503.59999999404,255502.40000000596,254562.261,254575.59999999404,254578.337,255511.552,,28,rate.
screen,html.Screen,2_1_1_1_29,2022-02-17T13:06:53.947Z,,,,,,,,,,,,,,,,,54,,,,,,,,,,,,,,576.0479999940435,,response,,,,100,,,,,,,Space,keypress(Space),,,,,,,,-- --- ---- --- ------ ----- ------- ---- -- --- ------- --<br>------- ---------- ------ -- ----- -- ----- -- ---- ------<br>--- ----- --- --- ------ -------- ----- The ------ ----- --<br>----- ----- ---------- --- --- ------ ------ ---- -- ------<br>------- --- ------ ----- --- ---- ------- -- ---- --- --<br>------- ------,256088.80000001192,256087.59999999404,255495.129,255503.90000000596,255511.552,256094.789,,29,The
screen,html.Screen,2_1_1_1_30,2022-02-17T13:06:54.483Z,,,,,,,,,,,,,,,,,54,,,,,,,,,,,,,,527.9110000178916,,response,,,,100,,,,,,,Space,keypress(Space),,,,,,,,-- --- ---- --- ------ ----- ------- ---- -- --- ------- --<br>------- ---------- ------ -- ----- -- ----- -- ---- ------<br>--- ----- --- --- ------ -------- ----- --- market ----- --<br>----- ----- ---------- --- --- ------ ------ ---- -- ------<br>------- --- ------ ----- --- ---- ------- -- ---- --- --<br>------- ------,256624.09999999404,256622.70000001788,256078.422,256089.09999999404,256094.789,256628.112,,30,market
screen,html.Screen,2_1_1_1_31,2022-02-17T13:06:54.968Z,,,,,,,,,,,,,,,,,54,,,,,,,,,,,,,,480.1880000119272,,response,,,,100,,,,,,,Space,keypress(Space),,,,,,,,-- --- ---- --- ------ ----- ------- ---- -- --- ------- --<br>------- ---------- ------ -- ----- -- ----- -- ---- ------<br>--- ----- --- --- ------ -------- ----- --- ------ value --<br>----- ----- ---------- --- --- ------ ------ ---- -- ------<br>------- --- ------ ----- --- ---- ------- -- ---- --- --<br>------- ------,257109.5,257108.30000001192,256611.768,256624.30000001192,256628.112,257130.834,,31,value
screen,html.Screen,2_1_1_1_32,2022-02-17T13:06:55.478Z,,,,,,,,,,,,,,,,,54,,,,,,,,,,,,,,487.36600001787883,,response,,,,100,,,,,,,Space,keypress(Space),,,,,,,,-- --- ---- --- ------ ----- ------- ---- -- --- ------- --<br>------- ---------- ------ -- ----- -- ----- -- ---- ------<br>--- ----- --- --- ------ -------- ----- --- ------ ----- of<br>----- ----- ---------- --- --- ------ ------ ---- -- ------<br>------- --- ------ ----- --- ---- ------- -- ---- --- --<br>------- ------,257619.30000001192,257618.20000001788,257094.942,257109.80000001192,257130.834,257628.016,,32,of
screen,html.Screen,2_1_1_1_33,2022-02-17T13:06:55.977Z,,,,,,,,,,,,,,,,,54,,,,,,,,,,,,,,489.0839999940363,,response,,,,100,,,,,,,Space,keypress(Space),,,,,,,,-- --- ---- --- ------ ----- ------- ---- -- --- ------- --<br>------- ---------- ------ -- ----- -- ----- -- ---- ------<br>--- ----- --- --- ------ -------- ----- --- ------ ----- --<br>these ----- ---------- --- --- ------ ------ ---- -- ------<br>------- --- ------ ----- --- ---- ------- -- ---- --- --<br>------- ------,258118.20000001788,258117.09999999404,257611.571,257619.59999999404,257628.016,258127.994,,33,these
screen,html.Screen,2_1_1_1_34,2022-02-17T13:06:56.421Z,,,,,,,,,,,,,,,,,54,,,,,,,,,,,,,,432.70600001787534,,response,,,,100,,,,,,,Space,keypress(Space),,,,,,,,-- --- ---- --- ------ ----- ------- ---- -- --- ------- --<br>------- ---------- ------ -- ----- -- ----- -- ---- ------<br>--- ----- --- --- ------ -------- ----- --- ------ ----- --<br>----- bonds ---------- --- --- ------ ------ ---- -- ------<br>------- --- ------ ----- --- ---- ------- -- ---- --- --<br>------- ------,258561.90000000596,258560.70000001788,258111.391,258118.59999999404,258127.994,258578.008,,34,bonds
screen,html.Screen,2_1_1_1_35,2022-02-17T13:06:56.972Z,,,,,,,,,,,,,,,,,54,,,,,,,,,,,,,,534.2920000119193,,response,,,,100,,,,,,,Space,keypress(Space),,,,,,,,"-- --- ---- --- ------ ----- ------- ---- -- --- ------- --<br>------- ---------- ------ -- ----- -- ----- -- ---- ------<br>--- ----- --- --- ------ -------- ----- --- ------ ----- --<br>----- ----- plummeted, --- --- ------ ------ ---- -- ------<br>------- --- ------ ----- --- ---- ------- -- ---- --- --<br>------- ------",259113.59999999404,259112.30000001192,258561.409,258562.20000001788,258578.008,259128.433,,35,"plummeted,"
screen,html.Screen,2_1_1_1_36,2022-02-17T13:06:57.873Z,,,,,,,,,,,,,,,,,54,,,,,,,,,,,,,,884.8670000119309,,response,,,,100,,,,,,,Space,keypress(Space),,,,,,,,-- --- ---- --- ------ ----- ------- ---- -- --- ------- --<br>------- ---------- ------ -- ----- -- ----- -- ---- ------<br>--- ----- --- --- ------ -------- ----- --- ------ ----- --<br>----- ----- ---------- and --- ------ ------ ---- -- ------<br>------- --- ------ ----- --- ---- ------- -- ---- --- --<br>------- ------,260014.5,260013.30000001192,259111.088,259113.90000000596,259128.433,260027.765,,36,and
screen,html.Screen,2_1_1_1_37,2022-02-17T13:06:58.563Z,,,,,,,,,,,,,,,,,54,,,,,,,,,,,,,,675.3349999940256,,response,,,,100,,,,,,,Space,keypress(Space),,,,,,,,-- --- ---- --- ------ ----- ------- ---- -- --- ------- --<br>------- ---------- ------ -- ----- -- ----- -- ---- ------<br>--- ----- --- --- ------ -------- ----- --- ------ ----- --<br>----- ----- ---------- --- the ------ ------ ---- -- ------<br>------- --- ------ ----- --- ---- ------- -- ---- --- --<br>------- ------,260704.30000001192,260703.09999999404,260010.957,260014.80000001192,260027.765,260710.903,,37,the
screen,html.Screen,2_1_1_1_38,2022-02-17T13:06:59.027Z,,,,,,,,,,,,,,,,,54,,,,,,,,,,,,,,456.59700000000885,,response,,,,100,,,,,,,Space,keypress(Space),,,,,,,,-- --- ---- --- ------ ----- ------- ---- -- --- ------- --<br>------- ---------- ------ -- ----- -- ----- -- ---- ------<br>--- ----- --- --- ------ -------- ----- --- ------ ----- --<br>----- ----- ---------- --- --- market ------ ---- -- ------<br>------- --- ------ ----- --- ---- ------- -- ---- --- --<br>------- ------,261168.59999999404,261167.5,260694.27,260704.5,260710.903,261177.547,,38,market
screen,html.Screen,2_1_1_1_39,2022-02-17T13:06:59.476Z,,,,,,,,,,,,,,,,,54,,,,,,,,,,,,,,438.4530000000086,,response,,,,100,,,,,,,Space,keypress(Space),,,,,,,,-- --- ---- --- ------ ----- ------- ---- -- --- ------- --<br>------- ---------- ------ -- ----- -- ----- -- ---- ------<br>--- ----- --- --- ------ -------- ----- --- ------ ----- --<br>----- ----- ---------- --- --- ------ became ---- -- ------<br>------- --- ------ ----- --- ---- ------- -- ---- --- --<br>------- ------,261617.30000001192,261616,261161.14,261169,261177.547,261627.501,,39,became
screen,html.Screen,2_1_1_1_40,2022-02-17T13:07:00.019Z,,,,,,,,,,,,,,,,,54,,,,,,,,,,,,,,531.9990000000107,,response,,,,100,,,,,,,Space,keypress(Space),,,,,,,,-- --- ---- --- ------ ----- ------- ---- -- --- ------- --<br>------- ---------- ------ -- ----- -- ----- -- ---- ------<br>--- ----- --- --- ------ -------- ----- --- ------ ----- --<br>----- ----- ---------- --- --- ------ ------ wary -- ------<br>------- --- ------ ----- --- ---- ------- -- ---- --- --<br>------- ------,262160.8000000119,262159.5,261611.068,261617.5,261627.501,262194.819,,40,wary
screen,html.Screen,2_1_1_1_41,2022-02-17T13:07:00.493Z,,,,,,,,,,,,,,,,,54,,,,,,,,,,,,,,438.8810000178637,,response,,,,100,,,,,,,Space,keypress(Space),,,,,,,,-- --- ---- --- ------ ----- ------- ---- -- --- ------- --<br>------- ---------- ------ -- ----- -- ----- -- ---- ------<br>--- ----- --- --- ------ -------- ----- --- ------ ----- --<br>----- ----- ---------- --- --- ------ ------ ---- of ------<br>------- --- ------ ----- --- ---- ------- -- ---- --- --<br>------- ------,262634.90000000596,262633.7000000179,262177.349,262160.90000000596,262194.819,262644.009,,41,of
screen,html.Screen,2_1_1_1_42,2022-02-17T13:07:01.142Z,,,,,,,,,,,,,,,,,54,,,,,,,,,,,,,,637.8910000059404,,response,,,,100,,,,,,,Space,keypress(Space),,,,,,,,-- --- ---- --- ------ ----- ------- ---- -- --- ------- --<br>------- ---------- ------ -- ----- -- ----- -- ---- ------<br>--- ----- --- --- ------ -------- ----- --- ------ ----- --<br>----- ----- ---------- --- --- ------ ------ ---- -- French<br>------- --- ------ ----- --- ---- ------- -- ---- --- --<br>------- ------,263283.09999999404,263281.90000000596,262627.896,262635.2000000179,262644.009,263293.918,,42,French
screen,html.Screen,2_1_1_1_43,2022-02-17T13:07:02.437Z,,,,,,,,,,,,,,,,,54,,,,,,,,,,,,,,1282.7820000178763,,response,,,,100,,,,,,,Space,keypress(Space),,,,,,,,-- --- ---- --- ------ ----- ------- ---- -- --- ------- --<br>------- ---------- ------ -- ----- -- ----- -- ---- ------<br>--- ----- --- --- ------ -------- ----- --- ------ ----- --<br>----- ----- ---------- --- --- ------ ------ ---- -- ------<br>credit. --- ------ ----- --- ---- ------- -- ---- --- --<br>------- ------,264578.09999999404,264576.7000000179,263277.239,263283.3000000119,263293.918,264594.163,,43,credit.
screen,html.Screen,2_1_1_1_44,2022-02-17T13:07:03.058Z,,,,,,,,,,,,,,,,,54,,,,,,,,,,,,,,603.8369999999995,,response,,,,100,,,,,,,Space,keypress(Space),,,,,,,,-- --- ---- --- ------ ----- ------- ---- -- --- ------- --<br>------- ---------- ------ -- ----- -- ----- -- ---- ------<br>--- ----- --- --- ------ -------- ----- --- ------ ----- --<br>----- ----- ---------- --- --- ------ ------ ---- -- ------<br>------- The ------ ----- --- ---- ------- -- ---- --- --<br>------- ------,265199.2000000179,265198,264577.435,264578.3000000119,264594.163,265210.417,,44,The
screen,html.Screen,2_1_1_1_45,2022-02-17T13:07:03.551Z,,,,,,,,,,,,,,,,,54,,,,,,,,,,,,,,480.48300000594463,,response,,,,100,,,,,,,Space,keypress(Space),,,,,,,,-- --- ---- --- ------ ----- ------- ---- -- --- ------- --<br>------- ---------- ------ -- ----- -- ----- -- ---- ------<br>--- ----- --- --- ------ -------- ----- --- ------ ----- --<br>----- ----- ---------- --- --- ------ ------ ---- -- ------<br>------- --- French ----- --- ---- ------- -- ---- --- --<br>------- ------,265692.2000000179,265690.90000000596,265194.22,265199.5,265210.417,265722.009,,45,French
screen,html.Screen,2_1_1_1_46,2022-02-17T13:07:03.996Z,,,,,,,,,,,,,,,,,54,,,,,,,,,,,,,,413.99099999998,,response,,,,100,,,,,,,Space,keypress(Space),,,,,,,,-- --- ---- --- ------ ----- ------- ---- -- --- ------- --<br>------- ---------- ------ -- ----- -- ----- -- ---- ------<br>--- ----- --- --- ------ -------- ----- --- ------ ----- --<br>----- ----- ---------- --- --- ------ ------ ---- -- ------<br>------- --- ------ state --- ---- ------- -- ---- --- --<br>------- ------,266137.2000000179,266136,265677.42,265692.59999999404,265722.009,266143.525,,46,state
screen,html.Screen,2_1_1_1_47,2022-02-17T13:07:04.459Z,,,,,,,,,,,,,,,,,54,,,,,,,,,,,,,,455.8750000059372,,response,,,,100,,,,,,,Space,keypress(Space),,,,,,,,-- --- ---- --- ------ ----- ------- ---- -- --- ------- --<br>------- ---------- ------ -- ----- -- ----- -- ---- ------<br>--- ----- --- --- ------ -------- ----- --- ------ ----- --<br>----- ----- ---------- --- --- ------ ------ ---- -- ------<br>------- --- ------ ----- was ---- ------- -- ---- --- --<br>------- ------,266600.59999999404,266599.40000000596,266127.588,266137.5,266143.525,266610.168,,47,was
screen,html.Screen,2_1_1_1_48,2022-02-17T13:07:04.900Z,,,,,,,,,,,,,,,,,54,,,,,,,,,,,,,,430.03200001787627,,response,,,,100,,,,,,,Space,keypress(Space),,,,,,,,-- --- ---- --- ------ ----- ------- ---- -- --- ------- --<br>------- ---------- ------ -- ----- -- ----- -- ---- ------<br>--- ----- --- --- ------ -------- ----- --- ------ ----- --<br>----- ----- ---------- --- --- ------ ------ ---- -- ------<br>------- --- ------ ----- --- left ------- -- ---- --- --<br>------- ------,267041.40000000596,267040.2000000179,266593.708,266600.90000000596,266610.168,267075.635,,48,left
screen,html.Screen,2_1_1_1_49,2022-02-17T13:07:05.362Z,,,,,,,,,,,,,,,,,54,,,,,,,,,,,,,,426.6650000119116,,response,,,,100,,,,,,,Space,keypress(Space),,,,,,,,-- --- ---- --- ------ ----- ------- ---- -- --- ------- --<br>------- ---------- ------ -- ----- -- ----- -- ---- ------<br>--- ----- --- --- ------ -------- ----- --- ------ ----- --<br>----- ----- ---------- --- --- ------ ------ ---- -- ------<br>------- --- ------ ----- --- ---- without -- ---- --- --<br>------- ------,267503.5,267502.3000000119,267026.818,267041.7000000179,267075.635,267510.001,,49,without
screen,html.Screen,2_1_1_1_50,2022-02-17T13:07:05.801Z,,,,,,,,,,,,,,,,,54,,,,,,,,,,,,,,430.8990000059712,,response,,,,100,,,,,,,Space,keypress(Space),,,,,,,,-- --- ---- --- ------ ----- ------- ---- -- --- ------- --<br>------- ---------- ------ -- ----- -- ----- -- ---- ------<br>--- ----- --- --- ------ -------- ----- --- ------ ----- --<br>----- ----- ---------- --- --- ------ ------ ---- -- ------<br>------- --- ------ ----- --- ---- ------- an ---- --- --<br>------- ------,267942.09999999404,267940.90000000596,267493.359,267503.7000000179,267510.001,267960.478,,50,an
screen,html.Screen,2_1_1_1_51,2022-02-17T13:07:06.271Z,,,,,,,,,,,,,,,,,54,,,,,,,,,,,,,,450.7220000178786,,response,,,,100,,,,,,,Space,keypress(Space),,,,,,,,-- --- ---- --- ------ ----- ------- ---- -- --- ------- --<br>------- ---------- ------ -- ----- -- ----- -- ---- ------<br>--- ----- --- --- ------ -------- ----- --- ------ ----- --<br>----- ----- ---------- --- --- ------ ------ ---- -- ------<br>------- --- ------ ----- --- ---- ------- -- easy --- --<br>------- ------,268412.3000000119,268411.2000000179,267926.893,267942.3000000119,267960.478,268427.193,,51,easy
screen,html.Screen,2_1_1_1_52,2022-02-17T13:07:06.726Z,,,,,,,,,,,,,,,,,54,,,,,,,,,,,,,,438.8069999999716,,response,,,,100,,,,,,,Space,keypress(Space),,,,,,,,-- --- ---- --- ------ ----- ------- ---- -- --- ------- --<br>------- ---------- ------ -- ----- -- ----- -- ---- ------<br>--- ----- --- --- ------ -------- ----- --- ------ ----- --<br>----- ----- ---------- --- --- ------ ------ ---- -- ------<br>------- --- ------ ----- --- ---- ------- -- ---- way --<br>------- ------,268867.2000000179,268866,268409.976,268412.7000000179,268427.193,268876.706,,52,way
screen,html.Screen,2_1_1_1_53,2022-02-17T13:07:07.345Z,,,,,,,,,,,,,,,,,54,,,,,,,,,,,,,,608.893999994034,,response,,,,100,,,,,,,Space,keypress(Space),,,,,,,,-- --- ---- --- ------ ----- ------- ---- -- --- ------- --<br>------- ---------- ------ -- ----- -- ----- -- ---- ------<br>--- ----- --- --- ------ -------- ----- --- ------ ----- --<br>----- ----- ---------- --- --- ------ ------ ---- -- ------<br>------- --- ------ ----- --- ---- ------- -- ---- --- of<br>------- ------,269486.7000000179,269485.59999999404,268859.85,268867.5,268876.706,269493.066,,53,of
screen,html.Screen,2_1_1_1_54,2022-02-17T13:07:07.879Z,,,,,,,,,,,,,,,,,54,,,,,,,,,,,,,,526.2340000119293,,response,,,,100,,,,,,,Space,keypress(Space),,,,,,,,-- --- ---- --- ------ ----- ------- ---- -- --- ------- --<br>------- ---------- ------ -- ----- -- ----- -- ---- ------<br>--- ----- --- --- ------ -------- ----- --- ------ ----- --<br>----- ----- ---------- --- --- ------ ------ ---- -- ------<br>------- --- ------ ----- --- ---- ------- -- ---- --- --<br>raising ------,270020.5,270019.3000000119,269476.419,269487,269493.066,270026.348,,54,raising
screen,html.Screen,2_1_1_1_55,2022-02-17T13:07:08.847Z,,,,,,,,,,,,,,,,,54,,,,,,,,,,,,,,960.4520000119228,,response,,,,100,,,,,,,Space,keypress(Space),,,,,,,,-- --- ---- --- ------ ----- ------- ---- -- --- ------- --<br>------- ---------- ------ -- ----- -- ----- -- ---- ------<br>--- ----- --- --- ------ -------- ----- --- ------ ----- --<br>----- ----- ---------- --- --- ------ ------ ---- -- ------<br>------- --- ------ ----- --- ---- ------- -- ---- --- --<br>------- money.,270988,270986.8000000119,270009.803,270020.8000000119,270026.348,270992.864,,55,money.
Item 100,flow.Loop,2_1_1_1,2022-02-17T13:07:08.847Z,,,,,,,,,,,,,,,,,,,,,,,,,,,,,,,35372.71400001191,,completion,,,,,D,,,,,,,,,,,silence,,,,,270988.40000000596,270986.8000000119,235598.096,235599.59999999404,235614.086,270992.864,,,
Question 1,html.Screen,2_1_1_2,2022-02-17T13:07:13.198Z,,,,,,,,,,,,,,,,,,,,,,,,,,,,true,TRUE,,4344.83600001788,,response,,,,100,D,,,,,,TRUE,click #choice-1,,,,silence,,,,,275339.2000000179,275337.7000000179,270976.217,270988.59999999404,270992.864,275342.302,,,
Question 2,html.Screen,2_1_1_3,2022-02-17T13:07:16.119Z,,,,,,,,,,,,,,,,,,,,,,,,,,,,true,FALSE,,2915.7979999940144,,response,,,,100,D,,,,,,FALSE,click #choice-2,,,,silence,,,,,278260.3000000119,278258.09999999404,275326.079,275339.40000000596,275342.302,278275.78,,,
Item 100,flow.Sequence,2_1_1,2022-02-17T13:07:16.119Z,,,,,,,,,,,,,,,,,,,,,,,,,,,,,,,52642.80299999405,,completion,,,,,,,,,,,,,,,,,,,,,278260.7000000179,278258.09999999404,225599.052,225606.30000001192,225615.297,278275.78,,,
End of Practice,html.Page,2_1_2,2022-02-17T13:07:20.653Z,,,,,,,,,,,,,,,,,,,,,,,,,,,,,,,4517.819999994012,,form submission,,,,,,,,,,,,,,,,,,,,,282794.2000000179,282793.59999999404,278258.637,278260.90000000596,278275.78,282808.456,,,
Practice,flow.Sequence,2_1,2022-02-17T13:07:20.653Z,,,,,,,,,,,,,,,,,,,,,,,,,,,,,,,122303.05499999403,,completion,,,,,,,,,,,,,,,,,,,,,282794.5,282793.59999999404,160474.415,160480.80000001192,160490.545,282808.456,,,
Trap_instruction,html.Page,2_2_0,2022-02-17T13:07:29.047Z,,,,,,,,,,,,,,,,,,,,,,,,,,,,,,,8379.244000017876,,form submission,,,,,,,,,,,,,,,,,,,,,291188.2000000179,291187.7000000179,282791.514,282794.8000000119,282808.456,291190.252,,,
trap_trial,html.Screen,2_2_1,2022-02-17T13:07:32.512Z,,,,,,,,,,,,,,,,,,,,,,,,,,,,true,1,,3461.347999994061,,response,,,,,,,,,,,1,click #choice-1,,,,,,,,,294653.2000000179,294651.59999999404,291173.924,291188.40000000596,291190.252,294656.533,,,
end of trap trial,html.Page,2_2_2,2022-02-17T13:07:34.545Z,,,,,,,,,,,,,,,,,,,,,,,,,,,,,,,2029.3670000059647,,form submission,,,,,,,,,,,,,,,,,,,,,296686.5,296685.90000000596,294640.439,294653.40000000596,294656.533,296689.588,,,
Trap 1,flow.Sequence,2_2,2022-02-17T13:07:34.545Z,,,,,,,,,,,,,,,,,,,,,,,,,,,,,,,13877.444000005955,,completion,,,,,,,,,,,,,,,,,,,,,296686.90000000596,296685.90000000596,282791.514,282794.7000000179,282808.456,296689.588,,,
Standby,html.Page,2_3_0,2022-02-17T13:07:42.532Z,,,,,,,,,,,,,,,,,,,,,,,,,,,,,,,7998.956999999995,,timeout,,,,,,,,,,,,,,,,,,,,,304673.59999999404,304672.201,296673.576,296687.09999999404,296689.588,304688.545,,,
Holding screen,html.Screen,2_3_1_0_0,2022-02-17T13:07:49.531Z,,,,,,,,,,,,,,,,,,,,,,,,,,,,,,,6999.285000000033,,timeout,,,,,,,,,,,,,,,,,,,,,311672.5,311671.271,304672.201,304674,304688.545,311687.83,,,
screen,html.Screen,2_3_1_0_1_0,2022-02-17T13:07:50.869Z,,,,,,,,,,,,,,,,,15,,,,,,,,,,,,,,1321.2699999940232,,response,,,,7,D,,,,,,Space,keypress(Space),,,,silence,,,,Greg --------- ---------- - --- ------- -- --- ------------<br>----- -- -------- ------- ---- ------ - -------- ---- -----<br>--- ------- ---- -- --- -------- --- - ----- ------ ---- --<br>-------- --- -------- -------- --- -------- ---- -- ----- -<br>-------- ---- --- ---------- --------- -- ------- ------ -<br>--------- ----- -----,313010.7000000179,313009.09999999404,311671.271,311672.90000000596,311687.83,313021.201,,0,Greg
screen,html.Screen,2_3_1_0_1_1,2022-02-17T13:07:51.829Z,,,,,,,,,,,,,,,,,15,,,,,,,,,,,,,,947.4990000178805,,response,,,,7,D,,,,,,Space,keypress(Space),,,,silence,,,,"---- Anderson, ---------- - --- ------- -- --- ------------<br>----- -- -------- ------- ---- ------ - -------- ---- -----<br>--- ------- ---- -- --- -------- --- - ----- ------ ---- --<br>-------- --- -------- -------- --- -------- ---- -- ----- -<br>-------- ---- --- ---------- --------- -- ------- ------ -<br>--------- ----- -----",313970,313968.7000000179,313004.115,313011.09999999404,313021.201,313988.051,,1,"Anderson,"
screen,html.Screen,2_3_1_0_1_2,2022-02-17T13:07:52.434Z,,,,,,,,,,,,,,,,,15,,,,,,,,,,,,,,586.4490000000224,,response,,,,7,D,,,,,,Space,keypress(Space),,,,silence,,,,---- --------- considered - --- ------- -- --- ------------<br>----- -- -------- ------- ---- ------ - -------- ---- -----<br>--- ------- ---- -- --- -------- --- - ----- ------ ---- --<br>-------- --- -------- -------- --- -------- ---- -- ----- -<br>-------- ---- --- ---------- --------- -- ------- ------ -<br>--------- ----- -----,314575.7000000179,314574.5,313970.752,313970.2000000179,313988.051,314587.975,,2,considered
screen,html.Screen,2_3_1_0_1_3,2022-02-17T13:07:53.069Z,,,,,,,,,,,,,,,,,15,,,,,,,,,,,,,,620.9250000059837,,response,,,,7,D,,,,,,Space,keypress(Space),,,,silence,,,,---- --------- ---------- a --- ------- -- --- ------------<br>----- -- -------- ------- ---- ------ - -------- ---- -----<br>--- ------- ---- -- --- -------- --- - ----- ------ ---- --<br>-------- --- -------- -------- --- -------- ---- -- ----- -<br>-------- ---- --- ---------- --------- -- ------- ------ -<br>--------- ----- -----,315210.09999999404,315208.90000000596,314570.632,314575.90000000596,314587.975,315220.542,,3,a
screen,html.Screen,2_3_1_0_1_4,2022-02-17T13:07:53.614Z,,,,,,,,,,,,,,,,,15,,,,,,,,,,,,,,533.3580000059446,,response,,,,7,D,,,,,,Space,keypress(Space),,,,silence,,,,---- --------- ---------- - key ------- -- --- ------------<br>----- -- -------- ------- ---- ------ - -------- ---- -----<br>--- ------- ---- -- --- -------- --- - ----- ------ ---- --<br>-------- --- -------- -------- --- -------- ---- -- ----- -<br>-------- ---- --- ---------- --------- -- ------- ------ -<br>--------- ----- -----,315755.2000000179,315753.90000000596,315203.883,315210.40000000596,315220.542,315770.571,,4,key
screen,html.Screen,2_3_1_0_1_5,2022-02-17T13:07:54.113Z,,,,,,,,,,,,,,,,,15,,,,,,,,,,,,,,482.72900001192465,,response,,,,7,D,,,,,,Space,keypress(Space),,,,silence,,,,---- --------- ---------- - --- witness -- --- ------------<br>----- -- -------- ------- ---- ------ - -------- ---- -----<br>--- ------- ---- -- --- -------- --- - ----- ------ ---- --<br>-------- --- -------- -------- --- -------- ---- -- ----- -<br>-------- ---- --- ---------- --------- -- ------- ------ -<br>--------- ----- -----,316254.7000000179,316253.3000000119,315754.452,315755.5,315770.571,316270.563,,5,witness
screen,html.Screen,2_3_1_0_1_6,2022-02-17T13:07:54.572Z,,,,,,,,,,,,,,,,,15,,,,,,,,,,,,,,441.5369999940158,,response,,,,7,D,,,,,,Space,keypress(Space),,,,silence,,,,---- --------- ---------- - --- ------- by --- ------------<br>----- -- -------- ------- ---- ------ - -------- ---- -----<br>--- ------- ---- -- --- -------- --- - ----- ------ ---- --<br>-------- --- -------- -------- --- -------- ---- -- ----- -<br>-------- ---- --- ---------- --------- -- ------- ------ -<br>--------- ----- -----,316713.2000000179,316712.09999999404,316254.303,316254.90000000596,316270.563,316720.355,,6,by
screen,html.Screen,2_3_1_0_1_7,2022-02-17T13:07:55.016Z,,,,,,,,,,,,,,,,,15,,,,,,,,,,,,,,435.44500001193956,,response,,,,7,D,,,,,,Space,keypress(Space),,,,silence,,,,---- --------- ---------- - --- ------- -- the ------------<br>----- -- -------- ------- ---- ------ - -------- ---- -----<br>--- ------- ---- -- --- -------- --- - ----- ------ ---- --<br>-------- --- -------- -------- --- -------- ---- -- ----- -<br>-------- ---- --- ---------- --------- -- ------- ------ -<br>--------- ----- -----,317157.09999999404,317155.8000000119,316703.827,316713.5,316720.355,317170.419,,7,the
screen,html.Screen,2_3_1_0_1_8,2022-02-17T13:07:55.711Z,,,,,,,,,,,,,,,,,15,,,,,,,,,,,,,,680.281000017887,,response,,,,7,D,,,,,,Space,keypress(Space),,,,silence,,,,"---- --------- ---------- - --- ------- -- --- prosecution,<br>----- -- -------- ------- ---- ------ - -------- ---- -----<br>--- ------- ---- -- --- -------- --- - ----- ------ ---- --<br>-------- --- -------- -------- --- -------- ---- -- ----- -<br>-------- ---- --- ---------- --------- -- ------- ------ -<br>--------- ----- -----",317852,317850.7000000179,317153.89,317157.40000000596,317170.419,317875.773,,8,"prosecution,"
screen,html.Screen,2_3_1_0_1_9,2022-02-17T13:07:56.578Z,,,,,,,,,,,,,,,,,15,,,,,,,,,,,,,,842.5270000119344,,response,,,,7,D,,,,,,Space,keypress(Space),,,,silence,,,,---- --------- ---------- - --- ------- -- --- ------------<br>vowed -- -------- ------- ---- ------ - -------- ---- -----<br>--- ------- ---- -- --- -------- --- - ----- ------ ---- --<br>-------- --- -------- -------- --- -------- ---- -- ----- -<br>-------- ---- --- ---------- --------- -- ------- ------ -<br>--------- ----- -----,318719.5,318718.3000000119,317837.401,317852.3000000119,317875.773,318737.319,,9,vowed
screen,html.Screen,2_3_1_0_1_10,2022-02-17T13:07:57.302Z,,,,,,,,,,,,,,,,,15,,,,,,,,,,,,,,704.8810000178637,,response,,,,7,D,,,,,,Space,keypress(Space),,,,silence,,,,---- --------- ---------- - --- ------- -- --- ------------<br>----- he -------- ------- ---- ------ - -------- ---- -----<br>--- ------- ---- -- --- -------- --- - ----- ------ ---- --<br>-------- --- -------- -------- --- -------- ---- -- ----- -<br>-------- ---- --- ---------- --------- -- ------- ------ -<br>--------- ----- -----,319443.40000000596,319442.2000000179,318720.382,318719.8000000119,318737.319,319453.505,,10,he
screen,html.Screen,2_3_1_0_1_11,2022-02-17T13:07:57.787Z,,,,,,,,,,,,,,,,,15,,,,,,,,,,,,,,473.69500001787674,,response,,,,7,D,,,,,,Space,keypress(Space),,,,silence,,,,---- --------- ---------- - --- ------- -- --- ------------<br>----- -- wouldn't ------- ---- ------ - -------- ---- -----<br>--- ------- ---- -- --- -------- --- - ----- ------ ---- --<br>-------- --- -------- -------- --- -------- ---- -- ----- -<br>-------- ---- --- ---------- --------- -- ------- ------ -<br>--------- ----- -----,319928.40000000596,319927.2000000179,319436.753,319443.7000000179,319453.505,319936.578,,11,wouldn't
screen,html.Screen,2_3_1_0_1_12,2022-02-17T13:07:58.403Z,,,,,,,,,,,,,,,,,15,,,,,,,,,,,,,,606.1220000179019,,response,,,,7,D,,,,,,Space,keypress(Space),,,,silence,,,,---- --------- ---------- - --- ------- -- --- ------------<br>----- -- -------- testify ---- ------ - -------- ---- -----<br>--- ------- ---- -- --- -------- --- - ----- ------ ---- --<br>-------- --- -------- -------- --- -------- ---- -- ----- -<br>-------- ---- --- ---------- --------- -- ------- ------ -<br>--------- ----- -----,320543.90000000596,320542.7000000179,319919.923,319928.7000000179,319936.578,320553.28,,12,testify
screen,html.Screen,2_3_1_0_1_13,2022-02-17T13:07:58.886Z,,,,,,,,,,,,,,,,,15,,,,,,,,,,,,,,472.520000011893,,response,,,,7,D,,,,,,Space,keypress(Space),,,,silence,,,,---- --------- ---------- - --- ------- -- --- ------------<br>----- -- -------- ------- when ------ - -------- ---- -----<br>--- ------- ---- -- --- -------- --- - ----- ------ ---- --<br>-------- --- -------- -------- --- -------- ---- -- ----- -<br>-------- ---- --- ---------- --------- -- ------- ------ -<br>--------- ----- -----,321027,321025.8000000119,320536.516,320544.09999999404,320553.28,321036.485,,13,when
screen,html.Screen,2_3_1_0_1_14,2022-02-17T13:07:59.407Z,,,,,,,,,,,,,,,,,15,,,,,,,,,,,,,,510.21500001789536,,response,,,,7,D,,,,,,Space,keypress(Space),,,,silence,,,,---- --------- ---------- - --- ------- -- --- ------------<br>----- -- -------- ------- ---- served - -------- ---- -----<br>--- ------- ---- -- --- -------- --- - ----- ------ ---- --<br>-------- --- -------- -------- --- -------- ---- -- ----- -<br>-------- ---- --- ---------- --------- -- ------- ------ -<br>--------- ----- -----,321547.90000000596,321546.7000000179,321020.218,321027.3000000119,321036.485,321553.01,,14,served
screen,html.Screen,2_3_1_0_1_15,2022-02-17T13:07:59.855Z,,,,,,,,,,,,,,,,,15,,,,,,,,,,,,,,441.9899999999907,,response,,,,7,D,,,,,,Space,keypress(Space),,,,silence,,,,---- --------- ---------- - --- ------- -- --- ------------<br>----- -- -------- ------- ---- ------ a -------- ---- -----<br>--- ------- ---- -- --- -------- --- - ----- ------ ---- --<br>-------- --- -------- -------- --- -------- ---- -- ----- -<br>-------- ---- --- ---------- --------- -- ------- ------ -<br>--------- ----- -----,321996.2000000179,321995,321536.475,321548.2000000179,321553.01,322003.021,,15,a
screen,html.Screen,2_3_1_0_1_16,2022-02-17T13:08:00.472Z,,,,,,,,,,,,,,,,,15,,,,,,,,,,,,,,609.0789999940316,,response,,,,7,D,,,,,,Space,keypress(Space),,,,silence,,,,---- --------- ---------- - --- ------- -- --- ------------<br>----- -- -------- ------- ---- ------ - subpoena ---- -----<br>--- ------- ---- -- --- -------- --- - ----- ------ ---- --<br>-------- --- -------- -------- --- -------- ---- -- ----- -<br>-------- ---- --- ---------- --------- -- ------- ------ -<br>--------- ----- -----,322613.3000000119,322612.09999999404,321986.646,321996.59999999404,322003.021,322619.581,,16,subpoena
screen,html.Screen,2_3_1_0_1_17,2022-02-17T13:08:01.163Z,,,,,,,,,,,,,,,,,15,,,,,,,,,,,,,,682.9189999999944,,response,,,,7,D,,,,,,Space,keypress(Space),,,,silence,,,,---- --------- ---------- - --- ------- -- --- ------------<br>----- -- -------- ------- ---- ------ - -------- last -----<br>--- ------- ---- -- --- -------- --- - ----- ------ ---- --<br>-------- --- -------- -------- --- -------- ---- -- ----- -<br>-------- ---- --- ---------- --------- -- ------- ------ -<br>--------- ----- -----,323303.90000000596,323302.5,322603.274,322613.59999999404,322619.581,323319.794,,17,last
screen,html.Screen,2_3_1_0_1_18,2022-02-17T13:08:02.665Z,,,,,,,,,,,,,,,,,15,,,,,,,,,,,,,,1485.0060000119265,,response,,,,7,D,,,,,,Space,keypress(Space),,,,silence,,,,---- --------- ---------- - --- ------- -- --- ------------<br>----- -- -------- ------- ---- ------ - -------- ---- week.<br>--- ------- ---- -- --- -------- --- - ----- ------ ---- --<br>-------- --- -------- -------- --- -------- ---- -- ----- -<br>-------- ---- --- ---------- --------- -- ------- ------ -<br>--------- ----- -----,324806.09999999404,324804.8000000119,323303.364,323304.2000000179,323319.794,324820.008,,18,week.
screen,html.Screen,2_3_1_0_1_19,2022-02-17T13:08:03.223Z,,,,,,,,,,,,,,,,,15,,,,,,,,,,,,,,542.9920000000275,,response,,,,7,D,,,,,,Space,keypress(Space),,,,silence,,,,---- --------- ---------- - --- ------- -- --- ------------<br>----- -- -------- ------- ---- ------ - -------- ---- -----<br>His ------- ---- -- --- -------- --- - ----- ------ ---- --<br>-------- --- -------- -------- --- -------- ---- -- ----- -<br>-------- ---- --- ---------- --------- -- ------- ------ -<br>--------- ----- -----,325364.2000000179,325363,324802.837,324806.3000000119,324820.008,325369.263,,19,His
screen,html.Screen,2_3_1_0_1_20,2022-02-17T13:08:03.816Z,,,,,,,,,,,,,,,,,15,,,,,,,,,,,,,,586.4370000179042,,response,,,,7,D,,,,,,Space,keypress(Space),,,,silence,,,,---- --------- ---------- - --- ------- -- --- ------------<br>----- -- -------- ------- ---- ------ - -------- ---- -----<br>--- lawyers ---- -- --- -------- --- - ----- ------ ---- --<br>-------- --- -------- -------- --- -------- ---- -- ----- -<br>-------- ---- --- ---------- --------- -- ------- ------ -<br>--------- ----- -----,325957,325955.7000000179,325353.048,325364.5,325369.263,325969.83,,20,lawyers
screen,html.Screen,2_3_1_0_1_21,2022-02-17T13:08:04.355Z,,,,,,,,,,,,,,,,,15,,,,,,,,,,,,,,525.3700000178651,,response,,,,7,D,,,,,,Space,keypress(Space),,,,silence,,,,---- --------- ---------- - --- ------- -- --- ------------<br>----- -- -------- ------- ---- ------ - -------- ---- -----<br>--- ------- said -- --- -------- --- - ----- ------ ---- --<br>-------- --- -------- -------- --- -------- ---- -- ----- -<br>-------- ---- --- ---------- --------- -- ------- ------ -<br>--------- ----- -----,326496.40000000596,326495.2000000179,325953.037,325957.3000000119,325969.83,326502.446,,21,said
screen,html.Screen,2_3_1_0_1_22,2022-02-17T13:08:05.648Z,,,,,,,,,,,,,,,,,15,,,,,,,,,,,,,,1286.0540000000037,,response,,,,7,D,,,,,,Space,keypress(Space),,,,silence,,,,---- --------- ---------- - --- ------- -- --- ------------<br>----- -- -------- ------- ---- ------ - -------- ---- -----<br>--- ------- ---- he --- -------- --- - ----- ------ ---- --<br>-------- --- -------- -------- --- -------- ---- -- ----- -<br>-------- ---- --- ---------- --------- -- ------- ------ -<br>--------- ----- -----,327789.7000000179,327788.5,326486.034,326496.7000000179,326502.446,327802.519,,22,he
screen,html.Screen,2_3_1_0_1_23,2022-02-17T13:08:06.152Z,,,,,,,,,,,,,,,,,15,,,,,,,,,,,,,,489.38100000598934,,response,,,,7,D,,,,,,Space,keypress(Space),,,,silence,,,,---- --------- ---------- - --- ------- -- --- ------------<br>----- -- -------- ------- ---- ------ - -------- ---- -----<br>--- ------- ---- -- was -------- --- - ----- ------ ---- --<br>-------- --- -------- -------- --- -------- ---- -- ----- -<br>-------- ---- --- ---------- --------- -- ------- ------ -<br>--------- ----- -----,328293.09999999404,328291.90000000596,327785.551,327790,327802.519,328302.252,,23,was
screen,html.Screen,2_3_1_0_1_24,2022-02-17T13:08:07.256Z,,,,,,,,,,,,,,,,,15,,,,,,,,,,,,,,1094.0480000119423,,response,,,,7,D,,,,,,Space,keypress(Space),,,,silence,,,,---- --------- ---------- - --- ------- -- --- ------------<br>----- -- -------- ------- ---- ------ - -------- ---- -----<br>--- ------- ---- -- --- prepared --- - ----- ------ ---- --<br>-------- --- -------- -------- --- -------- ---- -- ----- -<br>-------- ---- --- ---------- --------- -- ------- ------ -<br>--------- ----- -----,329397.5,329396.3000000119,328286.171,328293.3000000119,328302.252,329402.043,,24,prepared
screen,html.Screen,2_3_1_0_1_25,2022-02-17T13:08:07.726Z,,,,,,,,,,,,,,,,,15,,,,,,,,,,,,,,464.15700001787627,,response,,,,7,D,,,,,,Space,keypress(Space),,,,silence,,,,---- --------- ---------- - --- ------- -- --- ------------<br>----- -- -------- ------- ---- ------ - -------- ---- -----<br>--- ------- ---- -- --- -------- for - ----- ------ ---- --<br>-------- --- -------- -------- --- -------- ---- -- ----- -<br>-------- ---- --- ---------- --------- -- ------- ------ -<br>--------- ----- -----,329867.5,329866.2000000179,329385.696,329397.8000000119,329402.043,329886,,25,for
screen,html.Screen,2_3_1_0_1_26,2022-02-17T13:08:08.331Z,,,,,,,,,,,,,,,,,15,,,,,,,,,,,,,,584.9000000059605,,response,,,,7,D,,,,,,Space,keypress(Space),,,,silence,,,,---- --------- ---------- - --- ------- -- --- ------------<br>----- -- -------- ------- ---- ------ - -------- ---- -----<br>--- ------- ---- -- --- -------- --- a ----- ------ ---- --<br>-------- --- -------- -------- --- -------- ---- -- ----- -<br>-------- ---- --- ---------- --------- -- ------- ------ -<br>--------- ----- -----,330472,330470.90000000596,329852.517,329867.7000000179,329886,330485.927,,26,a
screen,html.Screen,2_3_1_0_1_27,2022-02-17T13:08:08.830Z,,,,,,,,,,,,,,,,,15,,,,,,,,,,,,,,483.8730000118958,,response,,,,7,D,,,,,,Space,keypress(Space),,,,silence,,,,---- --------- ---------- - --- ------- -- --- ------------<br>----- -- -------- ------- ---- ------ - -------- ---- -----<br>--- ------- ---- -- --- -------- --- - third ------ ---- --<br>-------- --- -------- -------- --- -------- ---- -- ----- -<br>-------- ---- --- ---------- --------- -- ------- ------ -<br>--------- ----- -----,330971,330969.8000000119,330468.946,330472.3000000119,330485.927,330985.204,,27,third
screen,html.Screen,2_3_1_0_1_28,2022-02-17T13:08:09.338Z,,,,,,,,,,,,,,,,,15,,,,,,,,,,,,,,492.69600000593346,,response,,,,7,D,,,,,,Space,keypress(Space),,,,silence,,,,---- --------- ---------- - --- ------- -- --- ------------<br>----- -- -------- ------- ---- ------ - -------- ---- -----<br>--- ------- ---- -- --- -------- --- - ----- prison ---- --<br>-------- --- -------- -------- --- -------- ---- -- ----- -<br>-------- ---- --- ---------- --------- -- ------- ------ -<br>--------- ----- -----,331479.09999999404,331477.90000000596,330968.708,330971.2000000179,330985.204,331485.106,,28,prison
screen,html.Screen,2_3_1_0_1_29,2022-02-17T13:08:09.880Z,,,,,,,,,,,,,,,,,15,,,,,,,,,,,,,,535.2940000059316,,response,,,,7,D,,,,,,Space,keypress(Space),,,,silence,,,,---- --------- ---------- - --- ------- -- --- ------------<br>----- -- -------- ------- ---- ------ - -------- ---- -----<br>--- ------- ---- -- --- -------- --- - ----- ------ stay --<br>-------- --- -------- -------- --- -------- ---- -- ----- -<br>-------- ---- --- ---------- --------- -- ------- ------ -<br>--------- ----- -----,332021.59999999404,332020.40000000596,331468.99,331479.40000000596,331485.106,332035.16,,29,stay
screen,html.Screen,2_3_1_0_1_30,2022-02-17T13:08:10.368Z,,,,,,,,,,,,,,,,,15,,,,,,,,,,,,,,472.64000001194654,,response,,,,7,D,,,,,,Space,keypress(Space),,,,silence,,,,---- --------- ---------- - --- ------- -- --- ------------<br>----- -- -------- ------- ---- ------ - -------- ---- -----<br>--- ------- ---- -- --- -------- --- - ----- ------ ---- to<br>-------- --- -------- -------- --- -------- ---- -- ----- -<br>-------- ---- --- ---------- --------- -- ------- ------ -<br>--------- ----- -----,332508.90000000596,332507.8000000119,332018.451,332021.90000000596,332035.16,332518.465,,30,to
screen,html.Screen,2_3_1_0_1_31,2022-02-17T13:08:10.832Z,,,,,,,,,,,,,,,,,15,,,,,,,,,,,,,,453.5349999999744,,response,,,,7,D,,,,,,Space,keypress(Space),,,,silence,,,,---- --------- ---------- - --- ------- -- --- ------------<br>----- -- -------- ------- ---- ------ - -------- ---- -----<br>--- ------- ---- -- --- -------- --- - ----- ------ ---- --<br>maintain --- -------- -------- --- -------- ---- -- ----- -<br>-------- ---- --- ---------- --------- -- ------- ------ -<br>--------- ----- -----,332973.2000000179,332972,332502.14,332509.3000000119,332518.465,332985.634,,31,maintain
screen,html.Screen,2_3_1_0_1_32,2022-02-17T13:08:11.301Z,,,,,,,,,,,,,,,,,15,,,,,,,,,,,,,,455.36599999998,,response,,,,7,D,,,,,,Space,keypress(Space),,,,silence,,,,---- --------- ---------- - --- ------- -- --- ------------<br>----- -- -------- ------- ---- ------ - -------- ---- -----<br>--- ------- ---- -- --- -------- --- - ----- ------ ---- --<br>-------- his -------- -------- --- -------- ---- -- ----- -<br>-------- ---- --- ---------- --------- -- ------- ------ -<br>--------- ----- -----,333442.09999999404,333441,332968.765,332973.5,332985.634,333451.666,,32,his
screen,html.Screen,2_3_1_0_1_33,2022-02-17T13:08:11.796Z,,,,,,,,,,,,,,,,,15,,,,,,,,,,,,,,484.2340000059339,,response,,,,7,D,,,,,,Space,keypress(Space),,,,silence,,,,---- --------- ---------- - --- ------- -- --- ------------<br>----- -- -------- ------- ---- ------ - -------- ---- -----<br>--- ------- ---- -- --- -------- --- - ----- ------ ---- --<br>-------- --- silence. -------- --- -------- ---- -- ----- -<br>-------- ---- --- ---------- --------- -- ------- ------ -<br>--------- ----- -----,333937.09999999404,333935.90000000596,333435.175,333442.40000000596,333451.666,333952.141,,33,silence.
screen,html.Screen,2_3_1_0_1_34,2022-02-17T13:08:12.466Z,,,,,,,,,,,,,,,,,15,,,,,,,,,,,,,,654.2590000059572,,response,,,,7,D,,,,,,Space,keypress(Space),,,,silence,,,,---- --------- ---------- - --- ------- -- --- ------------<br>----- -- -------- ------- ---- ------ - -------- ---- -----<br>--- ------- ---- -- --- -------- --- - ----- ------ ---- --<br>-------- --- -------- Anderson --- -------- ---- -- ----- -<br>-------- ---- --- ---------- --------- -- ------- ------ -<br>--------- ----- -----,334607.59999999404,334606.40000000596,333935.109,333937.3000000119,333952.141,334618.078,,34,Anderson
screen,html.Screen,2_3_1_0_1_35,2022-02-17T13:08:13.027Z,,,,,,,,,,,,,,,,,15,,,,,,,,,,,,,,549.1220000179019,,response,,,,7,D,,,,,,Space,keypress(Space),,,,silence,,,,---- --------- ---------- - --- ------- -- --- ------------<br>----- -- -------- ------- ---- ------ - -------- ---- -----<br>--- ------- ---- -- --- -------- --- - ----- ------ ---- --<br>-------- --- -------- -------- was -------- ---- -- ----- -<br>-------- ---- --- ---------- --------- -- ------- ------ -<br>--------- ----- -----,335168.40000000596,335167.2000000179,334601.95,334607.90000000596,334618.078,335185.221,,35,was
screen,html.Screen,2_3_1_0_1_36,2022-02-17T13:08:13.552Z,,,,,,,,,,,,,,,,,15,,,,,,,,,,,,,,507.1790000059409,,response,,,,7,D,,,,,,Space,keypress(Space),,,,silence,,,,---- --------- ---------- - --- ------- -- --- ------------<br>----- -- -------- ------- ---- ------ - -------- ---- -----<br>--- ------- ---- -- --- -------- --- - ----- ------ ---- --<br>-------- --- -------- -------- --- released ---- -- ----- -<br>-------- ---- --- ---------- --------- -- ------- ------ -<br>--------- ----- -----,335693.5,335692.40000000596,335168.568,335168.7000000179,335185.221,335701.279,,36,released
screen,html.Screen,2_3_1_0_1_37,2022-02-17T13:08:14.036Z,,,,,,,,,,,,,,,,,15,,,,,,,,,,,,,,474.8209999940591,,response,,,,7,D,,,,,,Space,keypress(Space),,,,silence,,,,---- --------- ---------- - --- ------- -- --- ------------<br>----- -- -------- ------- ---- ------ - -------- ---- -----<br>--- ------- ---- -- --- -------- --- - ----- ------ ---- --<br>-------- --- -------- -------- --- -------- July -- ----- -<br>-------- ---- --- ---------- --------- -- ------- ------ -<br>--------- ----- -----,336177.40000000596,336176.09999999404,335685.19,335693.8000000119,335701.279,336184.532,,37,July
screen,html.Screen,2_3_1_0_1_38,2022-02-17T13:08:14.545Z,,,,,,,,,,,,,,,,,15,,,,,,,,,,,,,,500.36800000595395,,response,,,,7,D,,,,,,Space,keypress(Space),,,,silence,,,,---- --------- ---------- - --- ------- -- --- ------------<br>----- -- -------- ------- ---- ------ - -------- ---- -----<br>--- ------- ---- -- --- -------- --- - ----- ------ ---- --<br>-------- --- -------- -------- --- -------- ---- 20 ----- -<br>-------- ---- --- ---------- --------- -- ------- ------ -<br>--------- ----- -----,336686.3000000119,336684.90000000596,336168.178,336177.59999999404,336184.532,336701.521,,38,20
screen,html.Screen,2_3_1_0_1_39,2022-02-17T13:08:15.672Z,,,,,,,,,,,,,,,,,15,,,,,,,,,,,,,,1110.3790000059525,,response,,,,7,D,,,,,,Space,keypress(Space),,,,silence,,,,---- --------- ---------- - --- ------- -- --- ------------<br>----- -- -------- ------- ---- ------ - -------- ---- -----<br>--- ------- ---- -- --- -------- --- - ----- ------ ---- --<br>-------- --- -------- -------- --- -------- ---- -- after -<br>-------- ---- --- ---------- --------- -- ------- ------ -<br>--------- ----- -----,337813,337811.90000000596,336684.793,336686.59999999404,336701.521,337817.682,,39,after
screen,html.Screen,2_3_1_0_1_40,2022-02-17T13:08:16.392Z,,,,,,,,,,,,,,,,,15,,,,,,,,,,,,,,714.6180000119493,,response,,,,7,D,,,,,,Space,keypress(Space),,,,silence,,,,---- --------- ---------- - --- ------- -- --- ------------<br>----- -- -------- ------- ---- ------ - -------- ---- -----<br>--- ------- ---- -- --- -------- --- - ----- ------ ---- --<br>-------- --- -------- -------- --- -------- ---- -- ----- a<br>-------- ---- --- ---------- --------- -- ------- ------ -<br>--------- ----- -----,338533.7000000179,338532.3000000119,337801.442,337813.2000000179,337817.682,338551.567,,40,a
