sender,sender_type,sender_id,timestamp,meta,,Blues,Classical,Country,Dance,Electronic,Folk,Gospel,Hip-Hop,Jazz,Latin,Musical/Film,New-age,Pop,Prolific_id,Provo_ID,R&B,Rap,Reggae,Religious,Rock,Soul,Swing,Traditional,age,artist_name,correct,correctResponse,distraction,duration,education,ended_on,familiarity,gender,headphone_check_performance,item,list,music_frequency,offensiveness,pleasantness,position_correct,preference,response,response_action,snippet_file,song_name,song_rating,sound,stimulus_1,stimulus_2,stimulus_3,text,time_commit,time_end,time_render,time_run,time_show,time_switch,url,word,word_ID
Prolific ID,html.Form,0,2022-02-03T13:13:49.340Z,"{""labjs_version"":""20.2.2"",""labjs_build"":{""flavor"":""production"",""commit"":""a25486e0c714a0ae2ce03ff94b7bb6896854dcfa""},""location"":""https://run.pavlovia.org/mvasilev/prolific2_music_f/"",""userAgent"":""Mozilla/5.0 (Macintosh; Intel Mac OS X 10_14_6) AppleWebKit/537.36 (KHTML, like Gecko) Chrome/97.0.4692.99 Safari/537.36"",""platform"":""MacIntel"",""language"":""en-GB"",""locale"":""en-GB"",""timeZone"":""Europe/London"",""timezoneOffset"":0,""screen_width"":1440,""screen_height"":900,""scroll_width"":1440,""scroll_height"":702,""window_innerWidth"":1440,""window_innerHeight"":750,""devicePixelRatio"":1}",,,,,,,,,,,,,,,5f1ca52f499c5d564f65be5a,,,,,,,,,,,,,,,5960.331000004471,,form submission,,,,,,,,,,,,,,,,,,,,,14547.80000000447,14546.80000000447,8536.468,8551.80000000447,8586.469,14553.696,{},,
Introduction,html.Screen,1_0,2022-02-03T13:13:55.973Z,,,,,,,,,,,,,,,,,,,,,,,,,,,,,,,6622.804,,response,,,,,,,,,,,continue,click button,,,,,,,,,21180.70000000298,21176.5,14537.029,14548.10000000149,14553.696,21187.162,,,
Volume calibration,html.Screen,1_1,2022-02-03T13:14:52.614Z,,,,,,,,,,,,,,,,,,,,,,,,,,,,,,,56626.03800000298,,response,,,,,,,,,,,continue,click button,,,,,,,,,77819.60000000149,77813.20000000298,21170.495,21180.89999999851,21187.162,77824.788,,,
Task instructions,html.Screen,1_2,2022-02-03T13:14:58.800Z,,,,,,,,,,,,,,,,,,,,,,,,,,,,,,,6178.81200000149,,response,,,,,,,,,,,continue,click button,,,,,,,,,84006,84003.60000000149,77808.121,77819.80000000447,77824.788,84008.245,,,
Sounds,html.Screen,1_3_0_0,2022-02-03T13:15:03.040Z,,,,,,,,,,,,,,,,,,,,,,,,,,,,,,,4250.732000000004,,timeout,,,,,,,,,2,,,,,,,,O,S,I,,88246.10000000149,88242.31,83991.578,84006.20000000298,84008.245,88258.977,,,
Judgement,html.Screen,1_3_0_1,2022-02-03T13:15:04.487Z,,,,,,,,,,,,,,,,,,,,,,,,,,,,true,2,,1432.023000000001,,response,,,,,,,,,2,,2,click #choice-2,,,,,O,S,I,,89693.20000000298,89691,88242.31,88246.20000000298,88258.977,89709.006,,,
Trial,flow.Sequence,1_3_0,2022-02-03T13:15:04.488Z,,,,,,,,,,,,,,,,,,,,,,,,,,,,,,,5682.755000000005,,completion,,,,,,,,,2,,,,,,,,O,S,I,,89693.60000000149,89691,83991.578,84006.10000000149,84008.245,89709.006,,,
Sounds,html.Screen,1_3_1_0,2022-02-03T13:15:08.738Z,,,,,,,,,,,,,,,,,,,,,,,,,,,,,,,4250.085000000006,,timeout,,,,,,,,,3,,,,,,,,O,I,S,,93943.30000000447,93942.424,89692.339,89693.80000000447,89709.006,93959.091,,,
Judgement,html.Screen,1_3_1_1,2022-02-03T13:15:09.465Z,,,,,,,,,,,,,,,,,,,,,,,,,,,,true,3,,709.70900000447,,response,,,,,,,,,3,,3,click #choice-3,,,,,O,I,S,,94671.10000000149,94668.80000000447,93942.424,93943.39999999851,93959.091,94675.772,,,
Trial,flow.Sequence,1_3_1,2022-02-03T13:15:09.466Z,,,,,,,,,,,,,,,,,,,,,,,,,,,,,,,4959.794000004476,,completion,,,,,,,,,3,,,,,,,,O,I,S,,94671.30000000447,94668.80000000447,89692.339,89693.60000000149,89709.006,94675.772,,,
Sounds,html.Screen,1_3_2_0,2022-02-03T13:15:13.707Z,,,,,,,,,,,,,,,,,,,,,,,,,,,,,,,4250.476999999999,,timeout,,,,,,,,,1,,,,,,,,S,O,I,,98912.60000000149,98909.582,94659.105,94671.5,94675.772,98926.249,,,
Judgement,html.Screen,1_3_2_1,2022-02-03T13:15:14.364Z,,,,,,,,,,,,,,,,,,,,,,,,,,,,true,1,,640.7510000000038,,response,,,,,,,,,1,,1,click #choice-1,,,,,S,O,I,,99569.20000000298,99567,98909.582,98912.80000000447,98926.249,99576.262,,,
Trial,flow.Sequence,1_3_2,2022-02-03T13:15:14.364Z,,,,,,,,,,,,,,,,,,,,,,,,,,,,,,,4891.228000000003,,completion,,,,,,,,,1,,,,,,,,S,O,I,,99569.39999999851,99567,94659.105,94671.39999999851,94675.772,99576.262,,,
Sounds,html.Screen,1_3_3_0,2022-02-03T13:15:18.606Z,,,,,,,,,,,,,,,,,,,,,,,,,,,,,,,4250.084999999992,,timeout,,,,,,,,,2,,,,,,,,I,S,O,,103811.5,103809.68,99559.595,99569.60000000149,99576.262,103826.347,,,
Judgement,html.Screen,1_3_3_1,2022-02-03T13:15:19.102Z,,,,,,,,,,,,,,,,,,,,,,,,,,,,true,2,,479.1530000000057,,response,,,,,,,,,2,,2,click #choice-2,,,,,I,S,O,,104307.5,104305.5,103809.68,103811.5,103826.347,104309.69,,,
Trial,flow.Sequence,1_3_3,2022-02-03T13:15:19.102Z,,,,,,,,,,,,,,,,,,,,,,,,,,,,,,,4729.237999999998,,completion,,,,,,,,,2,,,,,,,,I,S,O,,104307.60000000149,104305.5,99559.595,99569.5,99576.262,104309.69,,,
Sounds,html.Screen,1_3_4_0,2022-02-03T13:15:23.339Z,,,,,,,,,,,,,,,,,,,,,,,,,,,,,,,4250.084999999992,,timeout,,,,,,,,,1,,,,,,,,S,I,O,,108544.30000000447,108543.108,104293.023,104307.70000000298,104309.69,108559.775,,,
Judgement,html.Screen,1_3_4_1,2022-02-03T13:15:23.873Z,,,,,,,,,,,,,,,,,,,,,,,,,,,,true,1,,516.425000002986,,response,,,,,,,,,1,,1,click #choice-1,,,,,S,I,O,,109078.20000000298,109076.20000000298,108543.108,108544.39999999851,108559.775,109093.119,,,
Trial,flow.Sequence,1_3_4,2022-02-03T13:15:23.873Z,,,,,,,,,,,,,,,,,,,,,,,,,,,,,,,4766.510000002978,,completion,,,,,,,,,1,,,,,,,,S,I,O,,109078.30000000447,109076.20000000298,104293.023,104307.70000000298,104309.69,109093.119,,,
Sounds,html.Screen,1_3_5_0,2022-02-03T13:15:28.123Z,,,,,,,,,,,,,,,,,,,,,,,,,,,,,,,4250.784999999989,,timeout,,,,,,,,,3,,,,,,,,I,O,S,,113328.20000000298,113327.237,109076.452,109078.5,109093.119,113343.904,,,
Judgement,html.Screen,1_3_5_1,2022-02-03T13:15:28.708Z,,,,,,,,,,,,,,,,,,,,,,,,,,,,true,3,,566.4959999985149,,response,,,,,,,,,3,,3,click #choice-3,,,,,I,O,S,,113912.60000000149,113910.39999999851,113327.237,113328.30000000447,113343.904,113927.249,,,
Trial,flow.Sequence,1_3_5,2022-02-03T13:15:28.708Z,,,,,,,,,,,,,,,,,,,,,,,,,,,,,,,4817.280999998504,,completion,,,,,,,,,3,,,,,,,,I,O,S,,113912.70000000298,113910.39999999851,109076.452,109078.5,109093.119,113927.249,,,
Task,flow.Loop,1_3,2022-02-03T13:15:28.711Z,,,,,,,,,,,,,,,,,,,,,,,,,,,,,,,29902.154999998515,,completion,,,1,,,,,,,,,,,,,,,,,,113916.10000000149,113910.39999999851,83991.578,84006.10000000149,84008.245,113927.249,,,
Trap,html.Screen,1_4,2022-02-03T13:15:28.712Z,,,,,,,,,,,,,,,,,,,,,,,,,,,,,,,NaN,,skipped,,,,,,,,,,,,,,,,,,,,,113917.39999999851,113910.39999999851,,113917,,113927.249,,,
Thanks,html.Screen,1_5,2022-02-03T13:15:31.199Z,,,,,,,,,,,,,,,,,,,,,,,,,,,,,,,2474.551000004474,,response,,,,,,,,,,,continue,click button,,,,,,,,,116403.89999999851,116401.80000000447,113910.582,113917.39999999851,113927.249,118894.015,,,
Headphone screening,flow.Sequence,1,2022-02-03T13:15:31.199Z,,,,,,,,,,,,,,,,,,,,,,,,,,,,,,,101848.10400000447,,completion,,,,,,,,,,,,,,,,,,,,,116404.10000000149,116401.80000000447,14537.029,14548,14553.696,118894.015,,,
Instructions,html.Page,2_0,2022-02-03T13:15:44.683Z,,,,,,,,,,,,,,,,,,,,,,,,,,,,,,,10993.485,,form submission,,,,,,,,,,,,,,,,,,,,,129887.89999999851,129887.5,118877.348,118899.20000000298,118894.015,129894.757,,,
Holding screen,html.Screen,2_1_0_0,2022-02-03T13:15:54.677Z,,,,,,,,,,,,,,,,,,,,,,,,,,,,,,,10017.436000000002,,timeout,,,,,,,,,,,,,,,,,,,,,139881.6000000015,139878.859,129878.09,129888.10000000149,129894.757,139912.193,,,
screen,html.Screen,2_1_0_1_0,2022-02-03T13:15:55.980Z,,,,,,,,,,,,,,,,,53,,,,,,,,,,,,,,1265.507000002981,,response,,,,99,,,,,,,Space,keypress(Space),,,,,,,,When -- ----- -- ------ - ------- --- ----------<br>------------- ------ ------ ---- ---- ------- ----- -- ----<br>-------- ------- -- ---------- --- - --- ----- ----- ----<br>---- --- --- ----- --- ---- ---- ------- ----- ---- -------<br>--- --- -- ----- -- --- ---- -- --- ---- -- ------ ------<br>--- ----- -- ----,141184.20000000298,141177.70000000298,139878.859,139882.5,139912.193,141195.552,,0,When
screen,html.Screen,2_1_0_1_1,2022-02-03T13:15:56.674Z,,,,,,,,,,,,,,,,,53,,,,,,,,,,,,,,680.0480000014941,,response,,,,99,,,,,,,Space,keypress(Space),,,,,,,,---- it ----- -- ------ - ------- --- ----------<br>------------- ------ ------ ---- ---- ------- ----- -- ----<br>-------- ------- -- ---------- --- - --- ----- ----- ----<br>---- --- --- ----- --- ---- ---- ------- ----- ---- -------<br>--- --- -- ----- -- --- ---- -- --- ---- -- ------ ------<br>--- ----- -- ----,141878,141875.6000000015,141178.885,141184.30000000447,141195.552,141879.344,,1,it
screen,html.Screen,2_1_0_1_2,2022-02-03T13:15:57.319Z,,,,,,,,,,,,,,,,,53,,,,,,,,,,,,,,639.555999998498,,response,,,,99,,,,,,,Space,keypress(Space),,,,,,,,---- -- comes -- ------ - ------- --- ----------<br>------------- ------ ------ ---- ---- ------- ----- -- ----<br>-------- ------- -- ---------- --- - --- ----- ----- ----<br>---- --- --- ----- --- ---- ---- ------- ----- ---- -------<br>--- --- -- ----- -- --- ---- -- --- ---- -- ------ ------<br>--- ----- -- ----,142523.30000000447,142518.8999999985,141862.677,141878.1000000015,141879.344,142529.357,,2,comes
screen,html.Screen,2_1_0_1_3,2022-02-03T13:15:57.906Z,,,,,,,,,,,,,,,,,53,,,,,,,,,,,,,,575.2430000015011,,response,,,,99,,,,,,,Space,keypress(Space),,,,,,,,---- -- ----- to ------ - ------- --- ----------<br>------------- ------ ------ ---- ---- ------- ----- -- ----<br>-------- ------- -- ---------- --- - --- ----- ----- ----<br>---- --- --- ----- --- ---- ---- ------- ----- ---- -------<br>--- --- -- ----- -- --- ---- -- --- ---- -- ------ ------<br>--- ----- -- ----,143110.20000000298,143104.6000000015,142512.69,142523.30000000447,142529.357,143129.369,,3,to
screen,html.Screen,2_1_0_1_4,2022-02-03T13:15:58.657Z,,,,,,,,,,,,,,,,,53,,,,,,,,,,,,,,728.2310000014841,,response,,,,99,,,,,,,Space,keypress(Space),,,,,,,,---- -- ----- -- having - ------- --- ----------<br>------------- ------ ------ ---- ---- ------- ----- -- ----<br>-------- ------- -- ---------- --- - --- ----- ----- ----<br>---- --- --- ----- --- ---- ---- ------- ----- ---- -------<br>--- --- -- ----- -- --- ---- -- --- ---- -- ------ ------<br>--- ----- -- ----,143860.80000000447,143857.6000000015,143112.702,143110.30000000447,143129.369,143862.717,,4,having
screen,html.Screen,2_1_0_1_5,2022-02-03T13:15:59.408Z,,,,,,,,,,,,,,,,,53,,,,,,,,,,,,,,746.6829999985057,,response,,,,99,,,,,,,Space,keypress(Space),,,,,,,,---- -- ----- -- ------ a ------- --- ----------<br>------------- ------ ------ ---- ---- ------- ----- -- ----<br>-------- ------- -- ---------- --- - --- ----- ----- ----<br>---- --- --- ----- --- ---- ---- ------- ----- ---- -------<br>--- --- -- ----- -- --- ---- -- --- ---- -- ------ ------<br>--- ----- -- ----,144612.1000000015,144609.3999999985,143846.05,143860.8999999985,143862.717,144629.399,,5,a
screen,html.Screen,2_1_0_1_6,2022-02-03T13:16:00.128Z,,,,,,,,,,,,,,,,,53,,,,,,,,,,,,,,697.2010000014852,,response,,,,99,,,,,,,Space,keypress(Space),,,,,,,,---- -- ----- -- ------ - lasting --- ----------<br>------------- ------ ------ ---- ---- ------- ----- -- ----<br>-------- ------- -- ---------- --- - --- ----- ----- ----<br>---- --- --- ----- --- ---- ---- ------- ----- ---- -------<br>--- --- -- ----- -- --- ---- -- --- ---- -- ------ ------<br>--- ----- -- ----,145332.30000000447,145326.6000000015,144612.732,144612.20000000298,144629.399,145346.08,,6,lasting
screen,html.Screen,2_1_0_1_7,2022-02-03T13:16:00.741Z,,,,,,,,,,,,,,,,,53,,,,,,,,,,,,,,594.5200000015029,,response,,,,99,,,,,,,Space,keypress(Space),,,,,,,,---- -- ----- -- ------ - ------- and ----------<br>------------- ------ ------ ---- ---- ------- ----- -- ----<br>-------- ------- -- ---------- --- - --- ----- ----- ----<br>---- --- --- ----- --- ---- ---- ------- ----- ---- -------<br>--- --- -- ----- -- --- ---- -- --- ---- -- ------ ------<br>--- ----- -- ----,145944.70000000298,145940.6000000015,145329.413,145332.5,145346.08,145946.092,,7,and
screen,html.Screen,2_1_0_1_8,2022-02-03T13:16:01.519Z,,,,,,,,,,,,,,,,,53,,,,,,,,,,,,,,772.5080000014859,,response,,,,99,,,,,,,Space,keypress(Space),,,,,,,,---- -- ----- -- ------ - ------- --- fulfilling<br>------------- ------ ------ ---- ---- ------- ----- -- ----<br>-------- ------- -- ---------- --- - --- ----- ----- ----<br>---- --- --- ----- --- ---- ---- ------- ----- ---- -------<br>--- --- -- ----- -- --- ---- -- --- ---- -- ------ ------<br>--- ----- -- ----,146723.30000000447,146718.6000000015,145929.425,145944.80000000447,145946.092,146729.441,,8,fulfilling
screen,html.Screen,2_1_0_1_9,2022-02-03T13:16:02.922Z,,,,,,,,,,,,,,,,,53,,,,,,,,,,,,,,1392.7590000029886,,response,,,,99,,,,,,,Space,keypress(Space),,,,,,,,"---- -- ----- -- ------ - ------- --- ----------<br>relationship, ------ ------ ---- ---- ------- ----- -- ----<br>-------- ------- -- ---------- --- - --- ----- ----- ----<br>---- --- --- ----- --- ---- ---- ------- ----- ---- -------<br>--- --- -- ----- -- --- ---- -- --- ---- -- ------ ------<br>--- ----- -- ----",148126.3999999985,148122.20000000298,146712.774,146723.3999999985,146729.441,148129.469,,9,"relationship,"
screen,html.Screen,2_1_0_1_10,2022-02-03T13:16:03.572Z,,,,,,,,,,,,,,,,,53,,,,,,,,,,,,,,641.930999998498,,response,,,,99,,,,,,,Space,keypress(Space),,,,,,,,---- -- ----- -- ------ - ------- --- ----------<br>------------- common ------ ---- ---- ------- ----- -- ----<br>-------- ------- -- ---------- --- - --- ----- ----- ----<br>---- --- --- ----- --- ---- ---- ------- ----- ---- -------<br>--- --- -- ----- -- --- ---- -- --- ---- -- ------ ------<br>--- ----- -- ----,148775.6000000015,148771.3999999985,148112.802,148126.5,148129.469,148779.482,,10,common
screen,html.Screen,2_1_0_1_11,2022-02-03T13:16:04.212Z,,,,,,,,,,,,,,,,,53,,,,,,,,,,,,,,633.7180000029912,,response,,,,99,,,,,,,Space,keypress(Space),,,,,,,,---- -- ----- -- ------ - ------- --- ----------<br>------------- ------ wisdom ---- ---- ------- ----- -- ----<br>-------- ------- -- ---------- --- - --- ----- ----- ----<br>---- --- --- ----- --- ---- ---- ------- ----- ---- -------<br>--- --- -- ----- -- --- ---- -- --- ---- -- ------ ------<br>--- ----- -- ----,149416.1000000015,149413.20000000298,148762.815,148775.80000000447,148779.482,149429.495,,11,wisdom
screen,html.Screen,2_1_0_1_12,2022-02-03T13:16:04.936Z,,,,,,,,,,,,,,,,,53,,,,,,,,,,,,,,706.805000004475,,response,,,,99,,,,,,,Space,keypress(Space),,,,,,,,---- -- ----- -- ------ - ------- --- ----------<br>------------- ------ ------ says ---- ------- ----- -- ----<br>-------- ------- -- ---------- --- - --- ----- ----- ----<br>---- --- --- ----- --- ---- ---- ------- ----- ---- -------<br>--- --- -- ----- -- --- ---- -- --- ---- -- ------ ------<br>--- ----- -- ----,150139.6000000015,150136.30000000447,149412.828,149416.20000000298,149429.495,150146.176,,12,says
screen,html.Screen,2_1_0_1_13,2022-02-03T13:16:05.546Z,,,,,,,,,,,,,,,,,53,,,,,,,,,,,,,,598.1240000044636,,response,,,,99,,,,,,,Space,keypress(Space),,,,,,,,---- -- ----- -- ------ - ------- --- ----------<br>------------- ------ ------ ---- that ------- ----- -- ----<br>-------- ------- -- ---------- --- - --- ----- ----- ----<br>---- --- --- ----- --- ---- ---- ------- ----- ---- -------<br>--- --- -- ----- -- --- ---- -- --- ---- -- ------ ------<br>--- ----- -- ----,150749.5,150744.30000000447,150129.509,150139.70000000298,150146.176,150762.855,,13,that
screen,html.Screen,2_1_0_1_14,2022-02-03T13:16:06.242Z,,,,,,,,,,,,,,,,,53,,,,,,,,,,,,,,677.3450000029698,,response,,,,99,,,,,,,Space,keypress(Space),,,,,,,,---- -- ----- -- ------ - ------- --- ----------<br>------------- ------ ------ ---- ---- feeling ----- -- ----<br>-------- ------- -- ---------- --- - --- ----- ----- ----<br>---- --- --- ----- --- ---- ---- ------- ----- ---- -------<br>--- --- -- ----- -- --- ---- -- --- ---- -- ------ ------<br>--- ----- -- ----,151445.70000000298,151440.20000000298,150746.188,150749.80000000447,150762.855,151463.467,,14,feeling
screen,html.Screen,2_1_0_1_15,2022-02-03T13:16:06.863Z,,,,,,,,,,,,,,,,,53,,,,,,,,,,,,,,597.733000002976,,response,,,,99,,,,,,,Space,keypress(Space),,,,,,,,---- -- ----- -- ------ - ------- --- ----------<br>------------- ------ ------ ---- ---- ------- close -- ----<br>-------- ------- -- ---------- --- - --- ----- ----- ----<br>---- --- --- ----- --- ---- ---- ------- ----- ---- -------<br>--- --- -- ----- -- --- ---- -- --- ---- -- ------ ------<br>--- ----- -- ----,152066.6000000015,152061.20000000298,151446.8,151446,151463.467,152080.146,,15,close
screen,html.Screen,2_1_0_1_16,2022-02-03T13:16:07.444Z,,,,,,,,,,,,,,,,,53,,,,,,,,,,,,,,562.9540000014822,,response,,,,99,,,,,,,Space,keypress(Space),,,,,,,,---- -- ----- -- ------ - ------- --- ----------<br>------------- ------ ------ ---- ---- ------- ----- to ----<br>-------- ------- -- ---------- --- - --- ----- ----- ----<br>---- --- --- ----- --- ---- ---- ------- ----- ---- -------<br>--- --- -- ----- -- --- ---- -- --- ---- -- ------ ------<br>--- ----- -- ----,152647.80000000447,152643.1000000015,152063.479,152066.80000000447,152080.146,152663.491,,16,to
screen,html.Screen,2_1_0_1_17,2022-02-03T13:16:08.356Z,,,,,,,,,,,,,,,,,53,,,,,,,,,,,,,,891.5089999999909,,response,,,,99,,,,,,,Space,keypress(Space),,,,,,,,---- -- ----- -- ------ - ------- --- ----------<br>------------- ------ ------ ---- ---- ------- ----- -- your<br>-------- ------- -- ---------- --- - --- ----- ----- ----<br>---- --- --- ----- --- ---- ---- ------- ----- ---- -------<br>--- --- -- ----- -- --- ---- -- --- ---- -- ------ ------<br>--- ----- -- ----,153560.30000000447,153555,152646.824,152647.8999999985,152663.491,153580.176,,17,your
screen,html.Screen,2_1_0_1_18,2022-02-03T13:16:09.141Z,,,,,,,,,,,,,,,,,53,,,,,,,,,,,,,,760.8239999999932,,response,,,,99,,,,,,,Space,keypress(Space),,,,,,,,---- -- ----- -- ------ - ------- --- ----------<br>------------- ------ ------ ---- ---- ------- ----- -- ----<br>romantic ------- -- ---------- --- - --- ----- ----- ----<br>---- --- --- ----- --- ---- ---- ------- ----- ---- -------<br>--- --- -- ----- -- --- ---- -- --- ---- -- ------ ------<br>--- ----- -- ----,154345.1000000015,154341,153563.509,153560.3999999985,153580.176,154346.858,,18,romantic
screen,html.Screen,2_1_0_1_19,2022-02-03T13:16:09.866Z,,,,,,,,,,,,,,,,,53,,,,,,,,,,,,,,718.0419999985024,,response,,,,99,,,,,,,Space,keypress(Space),,,,,,,,---- -- ----- -- ------ - ------- --- ----------<br>------------- ------ ------ ---- ---- ------- ----- -- ----<br>-------- partner -- ---------- --- - --- ----- ----- ----<br>---- --- --- ----- --- ---- ---- ------- ----- ---- -------<br>--- --- -- ----- -- --- ---- -- --- ---- -- ------ ------<br>--- ----- -- ----,155069.30000000447,155064.8999999985,154330.191,154345.3999999985,154346.858,155080.206,,19,partner
screen,html.Screen,2_1_0_1_20,2022-02-03T13:16:10.472Z,,,,,,,,,,,,,,,,,53,,,,,,,,,,,,,,592.5940000044648,,response,,,,99,,,,,,,Space,keypress(Space),,,,,,,,---- -- ----- -- ------ - ------- --- ----------<br>------------- ------ ------ ---- ---- ------- ----- -- ----<br>-------- ------- is ---------- --- - --- ----- ----- ----<br>---- --- --- ----- --- ---- ---- ------- ----- ---- -------<br>--- --- -- ----- -- --- ---- -- --- ---- -- ------ ------<br>--- ----- -- ----,155675.5,155672.80000000447,155063.539,155069.3999999985,155080.206,155680.218,,20,is
screen,html.Screen,2_1_0_1_21,2022-02-03T13:16:11.955Z,,,,,,,,,,,,,,,,,53,,,,,,,,,,,,,,1473.5820000044769,,response,,,,99,,,,,,,Space,keypress(Space),,,,,,,,---- -- ----- -- ------ - ------- --- ----------<br>------------- ------ ------ ---- ---- ------- ----- -- ----<br>-------- ------- -- paramount. --- - --- ----- ----- ----<br>---- --- --- ----- --- ---- ---- ------- ----- ---- -------<br>--- --- -- ----- -- --- ---- -- --- ---- -- ------ ------<br>--- ----- -- ----,157158.8999999985,157153.80000000447,155663.551,155675.6000000015,155680.218,157163.581,,21,paramount.
screen,html.Screen,2_1_0_1_22,2022-02-03T13:16:12.489Z,,,,,,,,,,,,,,,,,53,,,,,,,,,,,,,,525.1190000029746,,response,,,,99,,,,,,,Space,keypress(Space),,,,,,,,---- -- ----- -- ------ - ------- --- ----------<br>------------- ------ ------ ---- ---- ------- ----- -- ----<br>-------- ------- -- ---------- But - --- ----- ----- ----<br>---- --- --- ----- --- ---- ---- ------- ----- ---- -------<br>--- --- -- ----- -- --- ---- -- --- ---- -- ------ ------<br>--- ----- -- ----,157692.8999999985,157688.70000000298,157146.914,157159,157163.581,157696.925,,22,But
screen,html.Screen,2_1_0_1_23,2022-02-03T13:16:13.020Z,,,,,,,,,,,,,,,,,53,,,,,,,,,,,,,,522.875000004482,,response,,,,99,,,,,,,Space,keypress(Space),,,,,,,,---- -- ----- -- ------ - ------- --- ----------<br>------------- ------ ------ ---- ---- ------- ----- -- ----<br>-------- ------- -- ---------- --- a --- ----- ----- ----<br>---- --- --- ----- --- ---- ---- ------- ----- ---- -------<br>--- --- -- ----- -- --- ---- -- --- ---- -- ------ ------<br>--- ----- -- ----,158223.5,158219.80000000447,157680.258,157693.1000000015,157696.925,158230.269,,23,a
screen,html.Screen,2_1_0_1_24,2022-02-03T13:16:13.620Z,,,,,,,,,,,,,,,,,53,,,,,,,,,,,,,,589.43100000298,,response,,,,99,,,,,,,Space,keypress(Space),,,,,,,,---- -- ----- -- ------ - ------- --- ----------<br>------------- ------ ------ ---- ---- ------- ----- -- ----<br>-------- ------- -- ---------- --- - new ----- ----- ----<br>---- --- --- ----- --- ---- ---- ------- ----- ---- -------<br>--- --- -- ----- -- --- ---- -- --- ---- -- ------ ------<br>--- ----- -- ----,158823.80000000447,158819.70000000298,158213.602,158223.6000000015,158230.269,158830.281,,24,new
screen,html.Screen,2_1_0_1_25,2022-02-03T13:16:14.282Z,,,,,,,,,,,,,,,,,53,,,,,,,,,,,,,,650.319000001502,,response,,,,99,,,,,,,Space,keypress(Space),,,,,,,,---- -- ----- -- ------ - ------- --- ----------<br>------------- ------ ------ ---- ---- ------- ----- -- ----<br>-------- ------- -- ---------- --- - --- study ----- ----<br>---- --- --- ----- --- ---- ---- ------- ----- ---- -------<br>--- --- -- ----- -- --- ---- -- --- ---- -- ------ ------<br>--- ----- -- ----,159485.3999999985,159480.6000000015,158813.614,158823.8999999985,158830.281,159496.961,,25,study
screen,html.Screen,2_1_0_1_26,2022-02-03T13:16:14.884Z,,,,,,,,,,,,,,,,,53,,,,,,,,,,,,,,586.6390000014799,,response,,,,99,,,,,,,Space,keypress(Space),,,,,,,,---- -- ----- -- ------ - ------- --- ----------<br>------------- ------ ------ ---- ---- ------- ----- -- ----<br>-------- ------- -- ---------- --- - --- ----- finds ----<br>---- --- --- ----- --- ---- ---- ------- ----- ---- -------<br>--- --- -- ----- -- --- ---- -- --- ---- -- ------ ------<br>--- ----- -- ----,160087.70000000298,160083.6000000015,159480.294,159485.6000000015,159496.961,160096.973,,26,finds
screen,html.Screen,2_1_0_1_27,2022-02-03T13:16:15.532Z,,,,,,,,,,,,,,,,,53,,,,,,,,,,,,,,635.4269999985117,,response,,,,99,,,,,,,Space,keypress(Space),,,,,,,,---- -- ----- -- ------ - ------- --- ----------<br>------------- ------ ------ ---- ---- ------- ----- -- ----<br>-------- ------- -- ---------- --- - --- ----- ----- that<br>---- --- --- ----- --- ---- ---- ------- ----- ---- -------<br>--- --- -- ----- -- --- ---- -- --- ---- -- ------ ------<br>--- ----- -- ----,160735.80000000447,160732.3999999985,160080.306,160087.8999999985,160096.973,160746.986,,27,that
screen,html.Screen,2_1_0_1_28,2022-02-03T13:16:16.164Z,,,,,,,,,,,,,,,,,53,,,,,,,,,,,,,,618.3140000044659,,response,,,,99,,,,,,,Space,keypress(Space),,,,,,,,---- -- ----- -- ------ - ------- --- ----------<br>------------- ------ ------ ---- ---- ------- ----- -- ----<br>-------- ------- -- ---------- --- - --- ----- ----- ----<br>it's --- --- ----- --- ---- ---- ------- ----- ---- -------<br>--- --- -- ----- -- --- ---- -- --- ---- -- ------ ------<br>--- ----- -- ----,161367.80000000447,161365.30000000447,160730.319,160735.8999999985,160746.986,161380.332,,28,it's
screen,html.Screen,2_1_0_1_29,2022-02-03T13:16:16.832Z,,,,,,,,,,,,,,,,,53,,,,,,,,,,,,,,650.9680000044755,,response,,,,99,,,,,,,Space,keypress(Space),,,,,,,,---- -- ----- -- ------ - ------- --- ----------<br>------------- ------ ------ ---- ---- ------- ----- -- ----<br>-------- ------- -- ---------- --- - --- ----- ----- ----<br>---- not --- ----- --- ---- ---- ------- ----- ---- -------<br>--- --- -- ----- -- --- ---- -- --- ---- -- ------ ------<br>--- ----- -- ----,162035.5,162031.30000000447,161363.665,161367.8999999985,161380.332,162047.434,,29,not
screen,html.Screen,2_1_0_1_30,2022-02-03T13:16:17.502Z,,,,,,,,,,,,,,,,,53,,,,,,,,,,,,,,654.7660000029719,,response,,,,99,,,,,,,Space,keypress(Space),,,,,,,,---- -- ----- -- ------ - ------- --- ----------<br>------------- ------ ------ ---- ---- ------- ----- -- ----<br>-------- ------- -- ---------- --- - --- ----- ----- ----<br>---- --- how ----- --- ---- ---- ------- ----- ---- -------<br>--- --- -- ----- -- --- ---- -- --- ---- -- ------ ------<br>--- ----- -- ----,162705,162702.20000000298,162030.767,162035.5,162047.434,162714.114,,30,how
screen,html.Screen,2_1_0_1_31,2022-02-03T13:16:18.189Z,,,,,,,,,,,,,,,,,53,,,,,,,,,,,,,,676.0860000029788,,response,,,,99,,,,,,,Space,keypress(Space),,,,,,,,---- -- ----- -- ------ - ------- --- ----------<br>------------- ------ ------ ---- ---- ------- ----- -- ----<br>-------- ------- -- ---------- --- - --- ----- ----- ----<br>---- --- --- close --- ---- ---- ------- ----- ---- -------<br>--- --- -- ----- -- --- ---- -- --- ---- -- ------ ------<br>--- ----- -- ----,163392.70000000298,163390.20000000298,162697.447,162705.20000000298,162714.114,163397.461,,31,close
screen,html.Screen,2_1_0_1_32,2022-02-03T13:16:18.822Z,,,,,,,,,,,,,,,,,53,,,,,,,,,,,,,,623.9389999984996,,response,,,,99,,,,,,,Space,keypress(Space),,,,,,,,---- -- ----- -- ------ - ------- --- ----------<br>------------- ------ ------ ---- ---- ------- ----- -- ----<br>-------- ------- -- ---------- --- - --- ----- ----- ----<br>---- --- --- ----- you ---- ---- ------- ----- ---- -------<br>--- --- -- ----- -- --- ---- -- --- ---- -- ------ ------<br>--- ----- -- ----,164025.3999999985,164021.3999999985,163380.794,163392.80000000447,163397.461,164030.807,,32,you
screen,html.Screen,2_1_0_1_33,2022-02-03T13:16:19.534Z,,,,,,,,,,,,,,,,,53,,,,,,,,,,,,,,700.4930000044696,,response,,,,99,,,,,,,Space,keypress(Space),,,,,,,,---- -- ----- -- ------ - ------- --- ----------<br>------------- ------ ------ ---- ---- ------- ----- -- ----<br>-------- ------- -- ---------- --- - --- ----- ----- ----<br>---- --- --- ----- --- feel ---- ------- ----- ---- -------<br>--- --- -- ----- -- --- ---- -- --- ---- -- ------ ------<br>--- ----- -- ----,164738,164731.30000000447,164014.14,164025.6000000015,164030.807,164747.488,,33,feel
screen,html.Screen,2_1_0_1_34,2022-02-03T13:16:20.183Z,,,,,,,,,,,,,,,,,53,,,,,,,,,,,,,,634.8120000044582,,response,,,,99,,,,,,,Space,keypress(Space),,,,,,,,---- -- ----- -- ------ - ------- --- ----------<br>------------- ------ ------ ---- ---- ------- ----- -- ----<br>-------- ------- -- ---------- --- - --- ----- ----- ----<br>---- --- --- ----- --- ---- that ------- ----- ---- -------<br>--- --- -- ----- -- --- ---- -- --- ---- -- ------ ------<br>--- ----- -- ----,165386.5,165382.30000000447,164730.821,164738.1000000015,164747.488,165397.501,,34,that
screen,html.Screen,2_1_0_1_35,2022-02-03T13:16:21.411Z,,,,,,,,,,,,,,,,,53,,,,,,,,,,,,,,1213.4990000000107,,response,,,,99,,,,,,,Space,keypress(Space),,,,,,,,---- -- ----- -- ------ - ------- --- ----------<br>------------- ------ ------ ---- ---- ------- ----- -- ----<br>-------- ------- -- ---------- --- - --- ----- ----- ----<br>---- --- --- ----- --- ---- ---- matters ----- ---- -------<br>--- --- -- ----- -- --- ---- -- --- ---- -- ------ ------<br>--- ----- -- ----,166614.8999999985,166611,165380.834,165386.6000000015,165397.501,166630.859,,35,matters
screen,html.Screen,2_1_0_1_36,2022-02-03T13:16:23.019Z,,,,,,,,,,,,,,,,,53,,,,,,,,,,,,,,1588.0409999985131,,response,,,,99,,,,,,,Space,keypress(Space),,,,,,,,"---- -- ----- -- ------ - ------- --- ----------<br>------------- ------ ------ ---- ---- ------- ----- -- ----<br>-------- ------- -- ---------- --- - --- ----- ----- ----<br>---- --- --- ----- --- ---- ---- ------- most, ---- -------<br>--- --- -- ----- -- --- ---- -- --- ---- -- ------ ------<br>--- ----- -- ----",168222.6000000015,168218.8999999985,166614.192,166615,166630.859,168230.891,,36,"most,"
screen,html.Screen,2_1_0_1_37,2022-02-03T13:16:23.794Z,,,,,,,,,,,,,,,,,53,,,,,,,,,,,,,,762.0089999985066,,response,,,,99,,,,,,,Space,keypress(Space),,,,,,,,---- -- ----- -- ------ - ------- --- ----------<br>------------- ------ ------ ---- ---- ------- ----- -- ----<br>-------- ------- -- ---------- --- - --- ----- ----- ----<br>---- --- --- ----- --- ---- ---- ------- ----- it's -------<br>--- --- -- ----- -- --- ---- -- --- ---- -- ------ ------<br>--- ----- -- ----,168997.1000000015,168992.8999999985,168214.224,168222.80000000447,168230.891,169014.24,,37,it's
screen,html.Screen,2_1_0_1_38,2022-02-03T13:16:24.642Z,,,,,,,,,,,,,,,,,53,,,,,,,,,,,,,,825.7600000000093,,response,,,,99,,,,,,,Space,keypress(Space),,,,,,,,---- -- ----- -- ------ - ------- --- ----------<br>------------- ------ ------ ---- ---- ------- ----- -- ----<br>-------- ------- -- ---------- --- - --- ----- ----- ----<br>---- --- --- ----- --- ---- ---- ------- ----- ---- whether<br>--- --- -- ----- -- --- ---- -- --- ---- -- ------ ------<br>--- ----- -- ----,169845.6000000015,169840,168997.573,168997.20000000298,169014.24,169864.257,,38,whether
screen,html.Screen,2_1_0_1_39,2022-02-03T13:16:25.286Z,,,,,,,,,,,,,,,,,53,,,,,,,,,,,,,,620.6429999984975,,response,,,,99,,,,,,,Space,keypress(Space),,,,,,,,---- -- ----- -- ------ - ------- --- ----------<br>------------- ------ ------ ---- ---- ------- ----- -- ----<br>-------- ------- -- ---------- --- - --- ----- ----- ----<br>---- --- --- ----- --- ---- ---- ------- ----- ---- -------<br>you --- -- ----- -- --- ---- -- --- ---- -- ------ ------<br>--- ----- -- ----,170489,170484.8999999985,169847.59,169845.80000000447,169864.257,170497.603,,39,you
screen,html.Screen,2_1_0_1_40,2022-02-03T13:16:25.881Z,,,,,,,,,,,,,,,,,53,,,,,,,,,,,,,,583.0970000029774,,response,,,,99,,,,,,,Space,keypress(Space),,,,,,,,---- -- ----- -- ------ - ------- --- ----------<br>------------- ------ ------ ---- ---- ------- ----- -- ----<br>-------- ------- -- ---------- --- - --- ----- ----- ----<br>---- --- --- ----- --- ---- ---- ------- ----- ---- -------<br>--- are -- ----- -- --- ---- -- --- ---- -- ------ ------<br>--- ----- -- ----,171084.80000000447,171080.70000000298,170480.936,170489.20000000298,170497.603,171097.615,,40,are
screen,html.Screen,2_1_0_1_41,2022-02-03T13:16:26.512Z,,,,,,,,,,,,,,,,,53,,,,,,,,,,,,,,614.9850000014994,,response,,,,99,,,,,,,Space,keypress(Space),,,,,,,,---- -- ----- -- ------ - ------- --- ----------<br>------------- ------ ------ ---- ---- ------- ----- -- ----<br>-------- ------- -- ---------- --- - --- ----- ----- ----<br>---- --- --- ----- --- ---- ---- ------- ----- ---- -------<br>--- --- as ----- -- --- ---- -- --- ---- -- ------ ------<br>--- ----- -- ----,171715.3999999985,171712.6000000015,171080.948,171086,171097.615,171730.961,,41,as
screen,html.Screen,2_1_0_1_42,2022-02-03T13:16:27.169Z,,,,,,,,,,,,,,,,,53,,,,,,,,,,,,,,635.73900000297,,response,,,,99,,,,,,,Space,keypress(Space),,,,,,,,---- -- ----- -- ------ - ------- --- ----------<br>------------- ------ ------ ---- ---- ------- ----- -- ----<br>-------- ------- -- ---------- --- - --- ----- ----- ----<br>---- --- --- ----- --- ---- ---- ------- ----- ---- -------<br>--- --- -- close -- --- ---- -- --- ---- -- ------ ------<br>--- ----- -- ----,172372.1000000015,172366.70000000298,171714.294,171715.5,171730.961,172381.56,,42,close
screen,html.Screen,2_1_0_1_43,2022-02-03T13:16:27.843Z,,,,,,,,,,,,,,,,,53,,,,,,,,,,,,,,660.0400000014924,,response,,,,99,,,,,,,Space,keypress(Space),,,,,,,,---- -- ----- -- ------ - ------- --- ----------<br>------------- ------ ------ ---- ---- ------- ----- -- ----<br>-------- ------- -- ---------- --- - --- ----- ----- ----<br>---- --- --- ----- --- ---- ---- ------- ----- ---- -------<br>--- --- -- ----- as --- ---- -- --- ---- -- ------ ------<br>--- ----- -- ----,173045.70000000298,173041.6000000015,172364.893,172372.20000000298,172381.56,173048.24,,43,as
screen,html.Screen,2_1_0_1_44,2022-02-03T13:16:28.484Z,,,,,,,,,,,,,,,,,53,,,,,,,,,,,,,,633.3600000014994,,response,,,,99,,,,,,,Space,keypress(Space),,,,,,,,---- -- ----- -- ------ - ------- --- ----------<br>------------- ------ ------ ---- ---- ------- ----- -- ----<br>-------- ------- -- ---------- --- - --- ----- ----- ----<br>---- --- --- ----- --- ---- ---- ------- ----- ---- -------<br>--- --- -- ----- -- you ---- -- --- ---- -- ------ ------<br>--- ----- -- ----,173687.20000000298,173681.6000000015,173031.573,173045.80000000447,173048.24,173698.253,,44,you
screen,html.Screen,2_1_0_1_45,2022-02-03T13:16:29.183Z,,,,,,,,,,,,,,,,,53,,,,,,,,,,,,,,683.4470000029833,,response,,,,99,,,,,,,Space,keypress(Space),,,,,,,,---- -- ----- -- ------ - ------- --- ----------<br>------------- ------ ------ ---- ---- ------- ----- -- ----<br>-------- ------- -- ---------- --- - --- ----- ----- ----<br>---- --- --- ----- --- ---- ---- ------- ----- ---- -------<br>--- --- -- ----- -- --- want -- --- ---- -- ------ ------<br>--- ----- -- ----,174385.8999999985,174381.70000000298,173681.586,173687.3999999985,173698.253,174398.267,,45,want
screen,html.Screen,2_1_0_1_46,2022-02-03T13:16:29.832Z,,,,,,,,,,,,,,,,,53,,,,,,,,,,,,,,632.3330000014976,,response,,,,99,,,,,,,Space,keypress(Space),,,,,,,,---- -- ----- -- ------ - ------- --- ----------<br>------------- ------ ------ ---- ---- ------- ----- -- ----<br>-------- ------- -- ---------- --- - --- ----- ----- ----<br>---- --- --- ----- --- ---- ---- ------- ----- ---- -------<br>--- --- -- ----- -- --- ---- to --- ---- -- ------ ------<br>--- ----- -- ----,175035.5,175030.6000000015,174381.6,174386.1000000015,174398.267,175048.28,,46,to
screen,html.Screen,2_1_0_1_47,2022-02-03T13:16:30.650Z,,,,,,,,,,,,,,,,,53,,,,,,,,,,,,,,800.3200000014913,,response,,,,99,,,,,,,Space,keypress(Space),,,,,,,,"---- -- ----- -- ------ - ------- --- ----------<br>------------- ------ ------ ---- ---- ------- ----- -- ----<br>-------- ------- -- ---------- --- - --- ----- ----- ----<br>---- --- --- ----- --- ---- ---- ------- ----- ---- -------<br>--- --- -- ----- -- --- ---- -- be, ---- -- ------ ------<br>--- ----- -- ----",175852.80000000447,175848.6000000015,175031.613,175035.80000000447,175048.28,175864.963,,47,"be,"
screen,html.Screen,2_1_0_1_48,2022-02-03T13:16:31.318Z,,,,,,,,,,,,,,,,,53,,,,,,,,,,,,,,652.4369999985211,,response,,,,99,,,,,,,Space,keypress(Space),,,,,,,,---- -- ----- -- ------ - ------- --- ----------<br>------------- ------ ------ ---- ---- ------- ----- -- ----<br>-------- ------- -- ---------- --- - --- ----- ----- ----<br>---- --- --- ----- --- ---- ---- ------- ----- ---- -------<br>--- --- -- ----- -- --- ---- -- --- even -- ------ ------<br>--- ----- -- ----,176520.8999999985,176517.3999999985,175848.296,175853,175864.963,176531.643,,48,even
screen,html.Screen,2_1_0_1_49,2022-02-03T13:16:31.959Z,,,,,,,,,,,,,,,,,53,,,,,,,,,,,,,,626.8569999999891,,response,,,,99,,,,,,,Space,keypress(Space),,,,,,,,---- -- ----- -- ------ - ------- --- ----------<br>------------- ------ ------ ---- ---- ------- ----- -- ----<br>-------- ------- -- ---------- --- - --- ----- ----- ----<br>---- --- --- ----- --- ---- ---- ------- ----- ---- -------<br>--- --- -- ----- -- --- ---- -- --- ---- if ------ ------<br>--- ----- -- ----,177162.5,177158.5,176514.976,176521.1000000015,176531.643,177164.989,,49,if
screen,html.Screen,2_1_0_1_50,2022-02-03T13:16:32.597Z,,,,,,,,,,,,,,,,,53,,,,,,,,,,,,,,632.4109999985085,,response,,,,99,,,,,,,Space,keypress(Space),,,,,,,,---- -- ----- -- ------ - ------- --- ----------<br>------------- ------ ------ ---- ---- ------- ----- -- ----<br>-------- ------- -- ---------- --- - --- ----- ----- ----<br>---- --- --- ----- --- ---- ---- ------- ----- ---- -------<br>--- --- -- ----- -- --- ---- -- --- ---- -- that's ------<br>--- ----- -- ----,177800.5,177797.3999999985,177148.322,177162.6000000015,177164.989,177815.002,,50,that's
screen,html.Screen,2_1_0_1_51,2022-02-03T13:16:33.284Z,,,,,,,,,,,,,,,,,53,,,,,,,,,,,,,,668.2980000044627,,response,,,,99,,,,,,,Space,keypress(Space),,,,,,,,---- -- ----- -- ------ - ------- --- ----------<br>------------- ------ ------ ---- ---- ------- ----- -- ----<br>-------- ------- -- ---------- --- - --- ----- ----- ----<br>---- --- --- ----- --- ---- ---- ------- ----- ---- -------<br>--- --- -- ----- -- --- ---- -- --- ---- -- ------ really<br>--- ----- -- ----,178487.5,178483.30000000447,177798.335,177800.5,177815.002,178498.349,,51,really
screen,html.Screen,2_1_0_1_52,2022-02-03T13:16:33.918Z,,,,,,,,,,,,,,,,,53,,,,,,,,,,,,,,616.9510000044829,,response,,,,99,,,,,,,Space,keypress(Space),,,,,,,,---- -- ----- -- ------ - ------- --- ----------<br>------------- ------ ------ ---- ---- ------- ----- -- ----<br>-------- ------- -- ---------- --- - --- ----- ----- ----<br>---- --- --- ----- --- ---- ---- ------- ----- ---- -------<br>--- --- -- ----- -- --- ---- -- --- ---- -- ------ ------<br>not ----- -- ----,179120.6000000015,179115.30000000447,178481.682,178487.6000000015,178498.349,179131.695,,52,not
screen,html.Screen,2_1_0_1_53,2022-02-03T13:16:34.604Z,,,,,,,,,,,,,,,,,53,,,,,,,,,,,,,,671.6050000044634,,response,,,,99,,,,,,,Space,keypress(Space),,,,,,,,---- -- ----- -- ------ - ------- --- ----------<br>------------- ------ ------ ---- ---- ------- ----- -- ----<br>-------- ------- -- ---------- --- - --- ----- ----- ----<br>---- --- --- ----- --- ---- ---- ------- ----- ---- -------<br>--- --- -- ----- -- --- ---- -- --- ---- -- ------ ------<br>--- close -- ----,179807.3999999985,179803.30000000447,179115.028,179120.8999999985,179131.695,179815.042,,53,close
screen,html.Screen,2_1_0_1_54,2022-02-03T13:16:35.297Z,,,,,,,,,,,,,,,,,53,,,,,,,,,,,,,,679.1580000029935,,response,,,,99,,,,,,,Space,keypress(Space),,,,,,,,---- -- ----- -- ------ - ------- --- ----------<br>------------- ------ ------ ---- ---- ------- ----- -- ----<br>-------- ------- -- ---------- --- - --- ----- ----- ----<br>---- --- --- ----- --- ---- ---- ------- ----- ---- -------<br>--- --- -- ----- -- --- ---- -- --- ---- -- ------ ------<br>--- ----- at ----,180499.6000000015,180494.20000000298,179798.375,179807.6000000015,179815.042,180515.056,,54,at
screen,html.Screen,2_1_0_1_55,2022-02-03T13:16:36.452Z,,,,,,,,,,,,,,,,,53,,,,,,,,,,,,,,1136.9439999999886,,response,,,,99,,,,,,,Space,keypress(Space),,,,,,,,---- -- ----- -- ------ - ------- --- ----------<br>------------- ------ ------ ---- ---- ------- ----- -- ----<br>-------- ------- -- ---------- --- - --- ----- ----- ----<br>---- --- --- ----- --- ---- ---- ------- ----- ---- -------<br>--- --- -- ----- -- --- ---- -- --- ---- -- ------ ------<br>--- ----- -- all.,181655.30000000447,181652,180498.389,180499.80000000447,180515.056,181665.079,,55,all.
Item 99,flow.Loop,2_1_0_1,2022-02-03T13:16:36.453Z,,,,,,,,,,,,,,,,,,,,,,,,,,,,,,,41739.807,,completion,,,,,F,,,,,,,,,,,silence,,,,,181655.6000000015,181652,139878.859,139882.3999999985,139912.193,181665.079,,,
Question 1,html.Screen,2_1_0_2,2022-02-03T13:16:39.681Z,,,,,,,,,,,,,,,,,,,,,,,,,,,,true,FALSE,,3215.921000000002,,response,,,,99,F,,,,,,FALSE,click #choice-2,,,,silence,,,,,184883.8999999985,184881,181648.412,181655.6000000015,181665.079,184898.917,,,
Question 2,html.Screen,2_1_0_3,2022-02-03T13:16:45.500Z,,,,,,,,,,,,,,,,,,,,,,,,,,,,true,TRUE,,5801.183000001503,,response,,,,99,F,,,,,,TRUE,click #choice-1,,,,silence,,,,,190703.1000000015,190700.1000000015,184882.25,184884.20000000298,184898.917,190715.7,,,
Item 99,flow.Sequence,2_1_0,2022-02-03T13:16:45.501Z,,,,,,,,,,,,,,,,,,,,,,,,,,,,,,,60805.34300000149,,completion,,,,,,,,,,,,,,,,,,,,,190703.3999999985,190700.1000000015,129878.09,129888,129894.757,190715.7,,,
Holding screen,html.Screen,2_1_1_0,2022-02-03T13:16:55.500Z,,,,,,,,,,,,,,,,,,,,,,,,,,,,,,,10000.73999999999,,timeout,,,,,,,,,,,,,,,,,,,,,200702.1000000015,200699.773,190699.033,190703.5,190715.7,200716.44,,,
screen,html.Screen,2_1_1_1_0,2022-02-03T13:16:56.611Z,,,,,,,,,,,,,,,,,54,,,,,,,,,,,,,,1089.860000004468,,response,,,,100,,,,,,,Space,keypress(Space),,,,,,,,At --- ---- --- ------ ----- ------- ---- -- --- ------- --<br>------- ---------- ------ -- ----- -- ----- -- ---- ------<br>--- ----- --- --- ------ -------- ----- --- ------ ----- --<br>----- ----- ---------- --- --- ------ ------ ---- -- ------<br>------- --- ------ ----- --- ---- ------- -- ---- --- --<br>------- ------,201813.6000000015,201806.30000000447,200699.773,200702.30000000447,200716.44,201816.462,,0,At
screen,html.Screen,2_1_1_1_1,2022-02-03T13:16:57.263Z,,,,,,,,,,,,,,,,,54,,,,,,,,,,,,,,644.4379999985103,,response,,,,100,,,,,,,Space,keypress(Space),,,,,,,,-- the ---- --- ------ ----- ------- ---- -- --- ------- --<br>------- ---------- ------ -- ----- -- ----- -- ---- ------<br>--- ----- --- --- ------ -------- ----- --- ------ ----- --<br>----- ----- ---------- --- --- ------ ------ ---- -- ------<br>------- --- ------ ----- --- ---- ------- -- ---- --- --<br>------- ------,202465.20000000298,202460.8999999985,201799.795,201813.80000000447,201816.462,202466.475,,1,the
screen,html.Screen,2_1_1_1_2,2022-02-03T13:16:57.962Z,,,,,,,,,,,,,,,,,54,,,,,,,,,,,,,,692.4249999985041,,response,,,,100,,,,,,,Space,keypress(Space),,,,,,,,-- --- time --- ------ ----- ------- ---- -- --- ------- --<br>------- ---------- ------ -- ----- -- ----- -- ---- ------<br>--- ----- --- --- ------ -------- ----- --- ------ ----- --<br>----- ----- ---------- --- --- ------ ------ ---- -- ------<br>------- --- ------ ----- --- ---- ------- -- ---- --- --<br>------- ------,203164.20000000298,203158.8999999985,202449.808,202465.3999999985,202466.475,203166.979,,2,time
screen,html.Screen,2_1_1_1_3,2022-02-03T13:16:58.683Z,,,,,,,,,,,,,,,,,54,,,,,,,,,,,,,,713.8210000044783,,response,,,,100,,,,,,,Space,keypress(Space),,,,,,,,-- --- ---- the ------ ----- ------- ---- -- --- ------- --<br>------- ---------- ------ -- ----- -- ----- -- ---- ------<br>--- ----- --- --- ------ -------- ----- --- ------ ----- --<br>----- ----- ---------- --- --- ------ ------ ---- -- ------<br>------- --- ------ ----- --- ---- ------- -- ---- --- --<br>------- ------,203884.8999999985,203880.80000000447,203150.312,203164.3999999985,203166.979,203900.327,,3,the
screen,html.Screen,2_1_1_1_4,2022-02-03T13:16:59.317Z,,,,,,,,,,,,,,,,,54,,,,,,,,,,,,,,613.4730000044801,,response,,,,100,,,,,,,Space,keypress(Space),,,,,,,,-- --- ---- --- French ----- ------- ---- -- --- ------- --<br>------- ---------- ------ -- ----- -- ----- -- ---- ------<br>--- ----- --- --- ------ -------- ----- --- ------ ----- --<br>----- ----- ---------- --- --- ------ ------ ---- -- ------<br>------- --- ------ ----- --- ---- ------- -- ---- --- --<br>------- ------,204519.70000000298,204513.80000000447,203883.66,203885,203900.327,204533.673,,4,French
screen,html.Screen,2_1_1_1_5,2022-02-03T13:17:00.094Z,,,,,,,,,,,,,,,,,54,,,,,,,,,,,,,,758.0270000029705,,response,,,,100,,,,,,,Space,keypress(Space),,,,,,,,-- --- ---- --- ------ crown ------- ---- -- --- ------- --<br>------- ---------- ------ -- ----- -- ----- -- ---- ------<br>--- ----- --- --- ------ -------- ----- --- ------ ----- --<br>----- ----- ---------- --- --- ------ ------ ---- -- ------<br>------- --- ------ ----- --- ---- ------- -- ---- --- --<br>------- ------,205295.80000000447,205291.70000000298,204517.006,204519.80000000447,204533.673,205300.355,,5,crown
screen,html.Screen,2_1_1_1_6,2022-02-03T13:17:00.834Z,,,,,,,,,,,,,,,,,54,,,,,,,,,,,,,,733.1449999999895,,response,,,,100,,,,,,,Space,keypress(Space),,,,,,,,-- --- ---- --- ------ ----- secured ---- -- --- ------- --<br>------- ---------- ------ -- ----- -- ----- -- ---- ------<br>--- ----- --- --- ------ -------- ----- --- ------ ----- --<br>----- ----- ---------- --- --- ------ ------ ---- -- ------<br>------- --- ------ ----- --- ---- ------- -- ---- --- --<br>------- ------,206036.30000000447,206033.5,205283.688,205295.8999999985,205300.355,206050.37,,6,secured
screen,html.Screen,2_1_1_1_7,2022-02-03T13:17:01.536Z,,,,,,,,,,,,,,,,,54,,,,,,,,,,,,,,683.2300000014948,,response,,,,100,,,,,,,Space,keypress(Space),,,,,,,,-- --- ---- --- ------ ----- ------- much -- --- ------- --<br>------- ---------- ------ -- ----- -- ----- -- ---- ------<br>--- ----- --- --- ------ -------- ----- --- ------ ----- --<br>----- ----- ---------- --- --- ------ ------ ---- -- ------<br>------- --- ------ ----- --- ---- ------- -- ---- --- --<br>------- ------,206737.8999999985,206733.6000000015,206033.703,206036.5,206050.37,206750.384,,7,much
screen,html.Screen,2_1_1_1_8,2022-02-03T13:17:02.543Z,,,,,,,,,,,,,,,,,54,,,,,,,,,,,,,,989.015999998519,,response,,,,100,,,,,,,Space,keypress(Space),,,,,,,,-- --- ---- --- ------ ----- ------- ---- of --- ------- --<br>------- ---------- ------ -- ----- -- ----- -- ---- ------<br>--- ----- --- --- ------ -------- ----- --- ------ ----- --<br>----- ----- ---------- --- --- ------ ------ ---- -- ------<br>------- --- ------ ----- --- ---- ------- -- ---- --- --<br>------- ------,207745.20000000298,207739.3999999985,206733.717,206738.1000000015,206750.384,207750.404,,8,of
screen,html.Screen,2_1_1_1_9,2022-02-03T13:17:03.186Z,,,,,,,,,,,,,,,,,54,,,,,,,,,,,,,,634.0959999999905,,response,,,,100,,,,,,,Space,keypress(Space),,,,,,,,-- --- ---- --- ------ ----- ------- ---- -- its ------- --<br>------- ---------- ------ -- ----- -- ----- -- ---- ------<br>--- ----- --- --- ------ -------- ----- --- ------ ----- --<br>----- ----- ---------- --- --- ------ ------ ---- -- ------<br>------- --- ------ ----- --- ---- ------- -- ---- --- --<br>------- ------,208388.6000000015,208384.5,207733.737,207745.3999999985,207750.404,208400.417,,9,its
screen,html.Screen,2_1_1_1_10,2022-02-03T13:17:03.832Z,,,,,,,,,,,,,,,,,54,,,,,,,,,,,,,,628.9829999985232,,response,,,,100,,,,,,,Space,keypress(Space),,,,,,,,-- --- ---- --- ------ ----- ------- ---- -- --- revenue --<br>------- ---------- ------ -- ----- -- ----- -- ---- ------<br>--- ----- --- --- ------ -------- ----- --- ------ ----- --<br>----- ----- ---------- --- --- ------ ------ ---- -- ------<br>------- --- ------ ----- --- ---- ------- -- ---- --- --<br>------- ------,209034.20000000298,209029.3999999985,208383.75,208388.70000000298,208400.417,209050.43,,10,revenue
screen,html.Screen,2_1_1_1_11,2022-02-03T13:17:04.624Z,,,,,,,,,,,,,,,,,54,,,,,,,,,,,,,,771.9699999985169,,response,,,,100,,,,,,,Space,keypress(Space),,,,,,,,-- --- ---- --- ------ ----- ------- ---- -- --- ------- by<br>------- ---------- ------ -- ----- -- ----- -- ---- ------<br>--- ----- --- --- ------ -------- ----- --- ------ ----- --<br>----- ----- ---------- --- --- ------ ------ ---- -- ------<br>------- --- ------ ----- --- ---- ------- -- ---- --- --<br>------- ------,209826.5,209822.3999999985,209033.763,209034.3999999985,209050.43,209833.779,,11,by
screen,html.Screen,2_1_1_1_12,2022-02-03T13:17:05.381Z,,,,,,,,,,,,,,,,,54,,,,,,,,,,,,,,740.6209999985003,,response,,,,100,,,,,,,Space,keypress(Space),,,,,,,,-- --- ---- --- ------ ----- ------- ---- -- --- ------- --<br>issuing ---------- ------ -- ----- -- ----- -- ---- ------<br>--- ----- --- --- ------ -------- ----- --- ------ ----- --<br>----- ----- ---------- --- --- ------ ------ ---- -- ------<br>------- --- ------ ----- --- ---- ------- -- ---- --- --<br>------- ------,210582.80000000447,210574.3999999985,209817.112,209826.6000000015,209833.779,210600.461,,12,issuing
screen,html.Screen,2_1_1_1_13,2022-02-03T13:17:06.275Z,,,,,,,,,,,,,,,,,54,,,,,,,,,,,,,,872.8390000044601,,response,,,,100,,,,,,,Space,keypress(Space),,,,,,,,-- --- ---- --- ------ ----- ------- ---- -- --- ------- --<br>------- government ------ -- ----- -- ----- -- ---- ------<br>--- ----- --- --- ------ -------- ----- --- ------ ----- --<br>----- ----- ---------- --- --- ------ ------ ---- -- ------<br>------- --- ------ ----- --- ---- ------- -- ---- --- --<br>------- ------,211477.30000000447,211473.30000000447,210583.794,210582.8999999985,210600.461,211483.812,,13,government
screen,html.Screen,2_1_1_1_14,2022-02-03T13:17:07.914Z,,,,,,,,,,,,,,,,,54,,,,,,,,,,,,,,1625.3880000029749,,response,,,,100,,,,,,,Space,keypress(Space),,,,,,,,-- --- ---- --- ------ ----- ------- ---- -- --- ------- --<br>------- ---------- bonds. -- ----- -- ----- -- ---- ------<br>--- ----- --- --- ------ -------- ----- --- ------ ----- --<br>----- ----- ---------- --- --- ------ ------ ---- -- ------<br>------- --- ------ ----- --- ---- ------- -- ---- --- --<br>------- ------,213116,213109.20000000298,211467.145,211477.5,211483.812,213117.178,,14,bonds.
screen,html.Screen,2_1_1_1_15,2022-02-03T13:17:08.602Z,,,,,,,,,,,,,,,,,54,,,,,,,,,,,,,,682.9220000014757,,response,,,,100,,,,,,,Space,keypress(Space),,,,,,,,-- --- ---- --- ------ ----- ------- ---- -- --- ------- --<br>------- ---------- ------ In ----- -- ----- -- ---- ------<br>--- ----- --- --- ------ -------- ----- --- ------ ----- --<br>----- ----- ---------- --- --- ------ ------ ---- -- ------<br>------- --- ------ ----- --- ---- ------- -- ---- --- --<br>------- ------,213804.1000000015,213800.1000000015,213100.511,213116.1000000015,213117.178,213817.192,,15,In
screen,html.Screen,2_1_1_1_16,2022-02-03T13:17:10.089Z,,,,,,,,,,,,,,,,,54,,,,,,,,,,,,,,1468.6080000044603,,response,,,,100,,,,,,,Space,keypress(Space),,,,,,,,"-- --- ---- --- ------ ----- ------- ---- -- --- ------- --<br>------- ---------- ------ -- 1727, -- ----- -- ---- ------<br>--- ----- --- --- ------ -------- ----- --- ------ ----- --<br>----- ----- ---------- --- --- ------ ------ ---- -- ------<br>------- --- ------ ----- --- ---- ------- -- ---- --- --<br>------- ------",215291.20000000298,215285.80000000447,213800.525,213804.20000000298,213817.192,215301.118,,16,"1727,"
screen,html.Screen,2_1_1_1_17,2022-02-03T13:17:10.657Z,,,,,,,,,,,,,,,,,54,,,,,,,,,,,,,,553.8820000000123,,response,,,,100,,,,,,,Space,keypress(Space),,,,,,,,-- --- ---- --- ------ ----- ------- ---- -- --- ------- --<br>------- ---------- ------ -- ----- in ----- -- ---- ------<br>--- ----- --- --- ------ -------- ----- --- ------ ----- --<br>----- ----- ---------- --- --- ------ ------ ---- -- ------<br>------- --- ------ ----- --- ---- ------- -- ---- --- --<br>------- ------,215859.1000000015,215855,215284.451,215291.70000000298,215301.118,215867.796,,17,in
screen,html.Screen,2_1_1_1_18,2022-02-03T13:17:11.235Z,,,,,,,,,,,,,,,,,54,,,,,,,,,,,,,,565.2039999999979,,response,,,,100,,,,,,,Space,keypress(Space),,,,,,,,-- --- ---- --- ------ ----- ------- ---- -- --- ------- --<br>------- ---------- ------ -- ----- -- order -- ---- ------<br>--- ----- --- --- ------ -------- ----- --- ------ ----- --<br>----- ----- ---------- --- --- ------ ------ ---- -- ------<br>------- --- ------ ----- --- ---- ------- -- ---- --- --<br>------- ------,216437,216433,215851.129,215859.20000000298,215867.796,216451.141,,18,order
screen,html.Screen,2_1_1_1_19,2022-02-03T13:17:11.791Z,,,,,,,,,,,,,,,,,54,,,,,,,,,,,,,,537.7589999985066,,response,,,,100,,,,,,,Space,keypress(Space),,,,,,,,-- --- ---- --- ------ ----- ------- ---- -- --- ------- --<br>------- ---------- ------ -- ----- -- ----- to ---- ------<br>--- ----- --- --- ------ -------- ----- --- ------ ----- --<br>----- ----- ---------- --- --- ------ ------ ---- -- ------<br>------- --- ------ ----- --- ---- ------- -- ---- --- --<br>------- ------,216992.8999999985,216988.8999999985,216434.474,216437.20000000298,216451.141,217001.152,,19,to
screen,html.Screen,2_1_1_1_20,2022-02-03T13:17:12.480Z,,,,,,,,,,,,,,,,,54,,,,,,,,,,,,,,674.5480000029784,,response,,,,100,,,,,,,Space,keypress(Space),,,,,,,,-- --- ---- --- ------ ----- ------- ---- -- --- ------- --<br>------- ---------- ------ -- ----- -- ----- -- save ------<br>--- ----- --- --- ------ -------- ----- --- ------ ----- --<br>----- ----- ---------- --- --- ------ ------ ---- -- ------<br>------- --- ------ ----- --- ---- ------- -- ---- --- --<br>------- ------,217681.5,217675.70000000298,216984.485,216993,217001.152,217701.166,,20,save
screen,html.Screen,2_1_1_1_21,2022-02-03T13:17:13.710Z,,,,,,,,,,,,,,,,,54,,,,,,,,,,,,,,1206.634000004473,,response,,,,100,,,,,,,Space,keypress(Space),,,,,,,,"-- --- ---- --- ------ ----- ------- ---- -- --- ------- --<br>------- ---------- ------ -- ----- -- ----- -- ---- money,<br>--- ----- --- --- ------ -------- ----- --- ------ ----- --<br>----- ----- ---------- --- --- ------ ------ ---- -- ------<br>------- --- ------ ----- --- ---- ------- -- ---- --- --<br>------- ------",218911.8999999985,218907.80000000447,217684.499,217681.6000000015,217701.166,218917.857,,21,"money,"
screen,html.Screen,2_1_1_1_22,2022-02-03T13:17:14.339Z,,,,,,,,,,,,,,,,,54,,,,,,,,,,,,,,618.8430000029912,,response,,,,100,,,,,,,Space,keypress(Space),,,,,,,,-- --- ---- --- ------ ----- ------- ---- -- --- ------- --<br>------- ---------- ------ -- ----- -- ----- -- ---- ------<br>the ----- --- --- ------ -------- ----- --- ------ ----- --<br>----- ----- ---------- --- --- ------ ------ ---- -- ------<br>------- --- ------ ----- --- ---- ------- -- ---- --- --<br>------- ------,219541,219536.70000000298,218901.19,218912,218917.857,219551.203,,22,the
screen,html.Screen,2_1_1_1_23,2022-02-03T13:17:15.037Z,,,,,,,,,,,,,,,,,54,,,,,,,,,,,,,,682.4970000029716,,response,,,,100,,,,,,,Space,keypress(Space),,,,,,,,-- --- ---- --- ------ ----- ------- ---- -- --- ------- --<br>------- ---------- ------ -- ----- -- ----- -- ---- ------<br>--- state --- --- ------ -------- ----- --- ------ ----- --<br>----- ----- ---------- --- --- ------ ------ ---- -- ------<br>------- --- ------ ----- --- ---- ------- -- ---- --- --<br>------- ------,220238.6000000015,220233.70000000298,219534.536,219541.1000000015,219551.203,220251.217,,23,state
screen,html.Screen,2_1_1_1_24,2022-02-03T13:17:15.733Z,,,,,,,,,,,,,,,,,54,,,,,,,,,,,,,,679.2829999999958,,response,,,,100,,,,,,,Space,keypress(Space),,,,,,,,-- --- ---- --- ------ ----- ------- ---- -- --- ------- --<br>------- ---------- ------ -- ----- -- ----- -- ---- ------<br>--- ----- cut --- ------ -------- ----- --- ------ ----- --<br>----- ----- ---------- --- --- ------ ------ ---- -- ------<br>------- --- ------ ----- --- ---- ------- -- ---- --- --<br>------- ------,220934.70000000298,220930.5,220234.55,220238.80000000447,220251.217,220951.231,,24,cut
screen,html.Screen,2_1_1_1_25,2022-02-03T13:17:16.509Z,,,,,,,,,,,,,,,,,54,,,,,,,,,,,,,,754.2690000000002,,response,,,,100,,,,,,,Space,keypress(Space),,,,,,,,-- --- ---- --- ------ ----- ------- ---- -- --- ------- --<br>------- ---------- ------ -- ----- -- ----- -- ---- ------<br>--- ----- --- the ------ -------- ----- --- ------ ----- --<br>----- ----- ---------- --- --- ------ ------ ---- -- ------<br>------- --- ------ ----- --- ---- ------- -- ---- --- --<br>------- ------,221711,221705.5,220934.564,220934.80000000447,220951.231,221717.913,,25,the
screen,html.Screen,2_1_1_1_26,2022-02-03T13:17:17.604Z,,,,,,,,,,,,,,,,,54,,,,,,,,,,,,,,1083.6870000014897,,response,,,,100,,,,,,,Space,keypress(Space),,,,,,,,-- --- ---- --- ------ ----- ------- ---- -- --- ------- --<br>------- ---------- ------ -- ----- -- ----- -- ---- ------<br>--- ----- --- --- bonds' -------- ----- --- ------ ----- --<br>----- ----- ---------- --- --- ------ ------ ---- -- ------<br>------- --- ------ ----- --- ---- ------- -- ---- --- --<br>------- ------,222805.70000000298,222801.6000000015,221701.246,221711.1000000015,221717.913,222817.935,,26,bonds'
screen,html.Screen,2_1_1_1_27,2022-02-03T13:17:18.725Z,,,,,,,,,,,,,,,,,54,,,,,,,,,,,,,,1102.4649999985122,,response,,,,100,,,,,,,Space,keypress(Space),,,,,,,,-- --- ---- --- ------ ----- ------- ---- -- --- ------- --<br>------- ---------- ------ -- ----- -- ----- -- ---- ------<br>--- ----- --- --- ------ interest ----- --- ------ ----- --<br>----- ----- ---------- --- --- ------ ------ ---- -- ------<br>------- --- ------ ----- --- ---- ------- -- ---- --- --<br>------- ------,223926.5,223920.3999999985,222801.268,222805.80000000447,222817.935,223934.624,,27,interest
screen,html.Screen,2_1_1_1_28,2022-02-03T13:17:20.225Z,,,,,,,,,,,,,,,,,54,,,,,,,,,,,,,,1486.5760000029695,,response,,,,100,,,,,,,Space,keypress(Space),,,,,,,,-- --- ---- --- ------ ----- ------- ---- -- --- ------- --<br>------- ---------- ------ -- ----- -- ----- -- ---- ------<br>--- ----- --- --- ------ -------- rate. --- ------ ----- --<br>----- ----- ---------- --- --- ------ ------ ---- -- ------<br>------- --- ------ ----- --- ---- ------- -- ---- --- --<br>------- ------,225426.3999999985,225421.20000000298,223917.957,223926.6000000015,223934.624,225434.654,,28,rate.
screen,html.Screen,2_1_1_1_29,2022-02-03T13:17:21.068Z,,,,,,,,,,,,,,,,,54,,,,,,,,,,,,,,830.6460000044608,,response,,,,100,,,,,,,Space,keypress(Space),,,,,,,,-- --- ---- --- ------ ----- ------- ---- -- --- ------- --<br>------- ---------- ------ -- ----- -- ----- -- ---- ------<br>--- ----- --- --- ------ -------- ----- The ------ ----- --<br>----- ----- ---------- --- --- ------ ------ ---- -- ------<br>------- --- ------ ----- --- ---- ------- -- ---- --- --<br>------- ------,226269.80000000447,226265.30000000447,225417.987,225426.6000000015,225434.654,226285.199,,29,The
screen,html.Screen,2_1_1_1_30,2022-02-03T13:17:21.883Z,,,,,,,,,,,,,,,,,54,,,,,,,,,,,,,,795.1010000044771,,response,,,,100,,,,,,,Space,keypress(Space),,,,,,,,-- --- ---- --- ------ ----- ------- ---- -- --- ------- --<br>------- ---------- ------ -- ----- -- ----- -- ---- ------<br>--- ----- --- --- ------ -------- ----- --- market ----- --<br>----- ----- ---------- --- --- ------ ------ ---- -- ------<br>------- --- ------ ----- --- ---- ------- -- ---- --- --<br>------- ------,227085,227080.30000000447,226268.532,226269.8999999985,226285.199,227101.882,,30,market
screen,html.Screen,2_1_1_1_31,2022-02-03T13:17:22.658Z,,,,,,,,,,,,,,,,,54,,,,,,,,,,,,,,755.1179999999877,,response,,,,100,,,,,,,Space,keypress(Space),,,,,,,,-- --- ---- --- ------ ----- ------- ---- -- --- ------- --<br>------- ---------- ------ -- ----- -- ----- -- ---- ------<br>--- ----- --- --- ------ -------- ----- --- ------ value --<br>----- ----- ---------- --- --- ------ ------ ---- -- ------<br>------- --- ------ ----- --- ---- ------- -- ---- --- --<br>------- ------,227859.20000000298,227857,227085.215,227085.1000000015,227101.882,227868.564,,31,value
screen,html.Screen,2_1_1_1_32,2022-02-03T13:17:23.363Z,,,,,,,,,,,,,,,,,54,,,,,,,,,,,,,,687.435999999987,,response,,,,100,,,,,,,Space,keypress(Space),,,,,,,,-- --- ---- --- ------ ----- ------- ---- -- --- ------- --<br>------- ---------- ------ -- ----- -- ----- -- ---- ------<br>--- ----- --- --- ------ -------- ----- --- ------ ----- of<br>----- ----- ---------- --- --- ------ ------ ---- -- ------<br>------- --- ------ ----- --- ---- ------- -- ---- --- --<br>------- ------,228564.6000000015,228556,227851.897,227859.30000000447,227868.564,228568.578,,32,of
screen,html.Screen,2_1_1_1_33,2022-02-03T13:17:24.087Z,,,,,,,,,,,,,,,,,54,,,,,,,,,,,,,,715.3219999985013,,response,,,,100,,,,,,,Space,keypress(Space),,,,,,,,-- --- ---- --- ------ ----- ------- ---- -- --- ------- --<br>------- ---------- ------ -- ----- -- ----- -- ---- ------<br>--- ----- --- --- ------ -------- ----- --- ------ ----- --<br>these ----- ---------- --- --- ------ ------ ---- -- ------<br>------- --- ------ ----- --- ---- ------- -- ---- --- --<br>------- ------,229288.5,229283.8999999985,228551.911,228564.70000000298,228568.578,229301.926,,33,these
screen,html.Screen,2_1_1_1_34,2022-02-03T13:17:24.914Z,,,,,,,,,,,,,,,,,54,,,,,,,,,,,,,,808.1740000014834,,response,,,,100,,,,,,,Space,keypress(Space),,,,,,,,-- --- ---- --- ------ ----- ------- ---- -- --- ------- --<br>------- ---------- ------ -- ----- -- ----- -- ---- ------<br>--- ----- --- --- ------ -------- ----- --- ------ ----- --<br>----- bonds ---------- --- --- ------ ------ ---- -- ------<br>------- --- ------ ----- --- ---- ------- -- ---- --- --<br>------- ------,230115,230110.1000000015,229285.259,229288.5,229301.926,230118.609,,34,bonds
screen,html.Screen,2_1_1_1_35,2022-02-03T13:17:26.680Z,,,,,,,,,,,,,,,,,54,,,,,,,,,,,,,,1758.2909999985131,,response,,,,100,,,,,,,Space,keypress(Space),,,,,,,,"-- --- ---- --- ------ ----- ------- ---- -- --- ------- --<br>------- ---------- ------ -- ----- -- ----- -- ---- ------<br>--- ----- --- --- ------ -------- ----- --- ------ ----- --<br>----- ----- plummeted, --- --- ------ ------ ---- -- ------<br>------- --- ------ ----- --- ---- ------- -- ---- --- --<br>------- ------",231881.80000000447,231876.8999999985,230101.942,230115.30000000447,230118.609,231885.311,,35,"plummeted,"
screen,html.Screen,2_1_1_1_36,2022-02-03T13:17:27.435Z,,,,,,,,,,,,,,,,,54,,,,,,,,,,,,,,746.4890000044834,,response,,,,100,,,,,,,Space,keypress(Space),,,,,,,,-- --- ---- --- ------ ----- ------- ---- -- --- ------- --<br>------- ---------- ------ -- ----- -- ----- -- ---- ------<br>--- ----- --- --- ------ -------- ----- --- ------ ----- --<br>----- ----- ---------- and --- ------ ------ ---- -- ------<br>------- --- ------ ----- --- ---- ------- -- ---- --- --<br>------- ------,232636.30000000447,232631.80000000447,231868.644,231881.8999999985,231885.311,232651.993,,36,and
screen,html.Screen,2_1_1_1_37,2022-02-03T13:17:28.249Z,,,,,,,,,,,,,,,,,54,,,,,,,,,,,,,,793.9069999985222,,response,,,,100,,,,,,,Space,keypress(Space),,,,,,,,-- --- ---- --- ------ ----- ------- ---- -- --- ------- --<br>------- ---------- ------ -- ----- -- ----- -- ---- ------<br>--- ----- --- --- ------ -------- ----- --- ------ ----- --<br>----- ----- ---------- --- the ------ ------ ---- -- ------<br>------- --- ------ ----- --- ---- ------- -- ---- --- --<br>------- ------,233450.8999999985,233445.8999999985,232635.326,232636.5,232651.993,233452.009,,37,the
screen,html.Screen,2_1_1_1_38,2022-02-03T13:17:29.068Z,,,,,,,,,,,,,,,,,54,,,,,,,,,,,,,,811.7910000044794,,response,,,,100,,,,,,,Space,keypress(Space),,,,,,,,-- --- ---- --- ------ ----- ------- ---- -- --- ------- --<br>------- ---------- ------ -- ----- -- ----- -- ---- ------<br>--- ----- --- --- ------ -------- ----- --- ------ ----- --<br>----- ----- ---------- --- --- market ------ ---- -- ------<br>------- --- ------ ----- --- ---- ------- -- ---- --- --<br>------- ------,234269.1000000015,234263.80000000447,233435.342,233451,233452.009,234285.359,,38,market
screen,html.Screen,2_1_1_1_39,2022-02-03T13:17:29.841Z,,,,,,,,,,,,,,,,,54,,,,,,,,,,,,,,754.1410000000033,,response,,,,100,,,,,,,Space,keypress(Space),,,,,,,,-- --- ---- --- ------ ----- ------- ---- -- --- ------- --<br>------- ---------- ------ -- ----- -- ----- -- ---- ------<br>--- ----- --- --- ------ -------- ----- --- ------ ----- --<br>----- ----- ---------- --- --- ------ became ---- -- ------<br>------- --- ------ ----- --- ---- ------- -- ---- --- --<br>------- ------,235042.3999999985,235039.5,234268.692,234269.30000000447,234285.359,235052.041,,39,became
screen,html.Screen,2_1_1_1_40,2022-02-03T13:17:30.618Z,,,,,,,,,,,,,,,,,54,,,,,,,,,,,,,,763.6590000029828,,response,,,,100,,,,,,,Space,keypress(Space),,,,,,,,-- --- ---- --- ------ ----- ------- ---- -- --- ------- --<br>------- ---------- ------ -- ----- -- ----- -- ---- ------<br>--- ----- --- --- ------ -------- ----- --- ------ ----- --<br>----- ----- ---------- --- --- ------ ------ wary -- ------<br>------- --- ------ ----- --- ---- ------- -- ---- --- --<br>------- ------,235819.80000000447,235815.70000000298,235035.374,235042.6000000015,235052.041,235835.945,,40,wary
screen,html.Screen,2_1_1_1_41,2022-02-03T13:17:31.275Z,,,,,,,,,,,,,,,,,54,,,,,,,,,,,,,,636.6550000014831,,response,,,,100,,,,,,,Space,keypress(Space),,,,,,,,-- --- ---- --- ------ ----- ------- ---- -- --- ------- --<br>------- ---------- ------ -- ----- -- ----- -- ---- ------<br>--- ----- --- --- ------ -------- ----- --- ------ ----- --<br>----- ----- ---------- --- --- ------ ------ ---- of ------<br>------- --- ------ ----- --- ---- ------- -- ---- --- --<br>------- ------,236476.6000000015,236472.6000000015,235819.278,235819.8999999985,235835.945,236485.958,,41,of
screen,html.Screen,2_1_1_1_42,2022-02-03T13:17:32.225Z,,,,,,,,,,,,,,,,,54,,,,,,,,,,,,,,935.742000002967,,response,,,,100,,,,,,,Space,keypress(Space),,,,,,,,-- --- ---- --- ------ ----- ------- ---- -- --- ------- --<br>------- ---------- ------ -- ----- -- ----- -- ---- ------<br>--- ----- --- --- ------ -------- ----- --- ------ ----- --<br>----- ----- ---------- --- --- ------ ------ ---- -- French<br>------- --- ------ ----- --- ---- ------- -- ---- --- --<br>------- ------,237426.6000000015,237421.70000000298,236469.291,236476.70000000298,236485.958,237435.977,,42,French
screen,html.Screen,2_1_1_1_43,2022-02-03T13:17:34.074Z,,,,,,,,,,,,,,,,,54,,,,,,,,,,,,,,1834.4229999984964,,response,,,,100,,,,,,,Space,keypress(Space),,,,,,,,-- --- ---- --- ------ ----- ------- ---- -- --- ------- --<br>------- ---------- ------ -- ----- -- ----- -- ---- ------<br>--- ----- --- --- ------ -------- ----- --- ------ ----- --<br>----- ----- ---------- --- --- ------ ------ ---- -- ------<br>credit. --- ------ ----- --- ---- ------- -- ---- --- --<br>------- ------,239275.1000000015,239270.3999999985,237419.31,237426.80000000447,237435.977,239286.014,,43,credit.
screen,html.Screen,2_1_1_1_44,2022-02-03T13:17:34.772Z,,,,,,,,,,,,,,,,,54,,,,,,,,,,,,,,683.2860000044748,,response,,,,100,,,,,,,Space,keypress(Space),,,,,,,,-- --- ---- --- ------ ----- ------- ---- -- --- ------- --<br>------- ---------- ------ -- ----- -- ----- -- ---- ------<br>--- ----- --- --- ------ -------- ----- --- ------ ----- --<br>----- ----- ---------- --- --- ------ ------ ---- -- ------<br>------- The ------ ----- --- ---- ------- -- ---- --- --<br>------- ------,239973.3999999985,239969.30000000447,239269.347,239275.20000000298,239286.014,239986.028,,44,The
screen,html.Screen,2_1_1_1_45,2022-02-03T13:17:35.423Z,,,,,,,,,,,,,,,,,54,,,,,,,,,,,,,,633.2720000044792,,response,,,,100,,,,,,,Space,keypress(Space),,,,,,,,-- --- ---- --- ------ ----- ------- ---- -- --- ------- --<br>------- ---------- ------ -- ----- -- ----- -- ---- ------<br>--- ----- --- --- ------ -------- ----- --- ------ ----- --<br>----- ----- ---------- --- --- ------ ------ ---- -- ------<br>------- --- French ----- --- ---- ------- -- ---- --- --<br>------- ------,240624.1000000015,240619.30000000447,239969.361,239973.6000000015,239986.028,240636.041,,45,French
screen,html.Screen,2_1_1_1_46,2022-02-03T13:17:36.141Z,,,,,,,,,,,,,,,,,54,,,,,,,,,,,,,,699.0590000014927,,response,,,,100,,,,,,,Space,keypress(Space),,,,,,,,-- --- ---- --- ------ ----- ------- ---- -- --- ------- --<br>------- ---------- ------ -- ----- -- ----- -- ---- ------<br>--- ----- --- --- ------ -------- ----- --- ------ ----- --<br>----- ----- ---------- --- --- ------ ------ ---- -- ------<br>------- --- ------ state --- ---- ------- -- ---- --- --<br>------- ------,241342.30000000447,241335.1000000015,240619.374,240624.20000000298,240636.041,241352.722,,46,state
screen,html.Screen,2_1_1_1_47,2022-02-03T13:17:36.811Z,,,,,,,,,,,,,,,,,54,,,,,,,,,,,,,,654.4780000029714,,response,,,,100,,,,,,,Space,keypress(Space),,,,,,,,-- --- ---- --- ------ ----- ------- ---- -- --- ------- --<br>------- ---------- ------ -- ----- -- ----- -- ---- ------<br>--- ----- --- --- ------ -------- ----- --- ------ ----- --<br>----- ----- ---------- --- --- ------ ------ ---- -- ------<br>------- --- ------ ----- was ---- ------- -- ---- --- --<br>------- ------,242012.3999999985,242007.20000000298,241336.055,241342.3999999985,241352.722,242019.402,,47,was
screen,html.Screen,2_1_1_1_48,2022-02-03T13:17:37.534Z,,,,,,,,,,,,,,,,,54,,,,,,,,,,,,,,711.6980000014883,,response,,,,100,,,,,,,Space,keypress(Space),,,,,,,,-- --- ---- --- ------ ----- ------- ---- -- --- ------- --<br>------- ---------- ------ -- ----- -- ----- -- ---- ------<br>--- ----- --- --- ------ -------- ----- --- ------ ----- --<br>----- ----- ---------- --- --- ------ ------ ---- -- ------<br>------- --- ------ ----- --- left ------- -- ---- --- --<br>------- ------,242735,242731.1000000015,242002.735,242012.6000000015,242019.402,242736.083,,48,left
screen,html.Screen,2_1_1_1_49,2022-02-03T13:17:38.326Z,,,,,,,,,,,,,,,,,54,,,,,,,,,,,,,,786.0170000014768,,response,,,,100,,,,,,,Space,keypress(Space),,,,,,,,-- --- ---- --- ------ ----- ------- ---- -- --- ------- --<br>------- ---------- ------ -- ----- -- ----- -- ---- ------<br>--- ----- --- --- ------ -------- ----- --- ------ ----- --<br>----- ----- ---------- --- --- ------ ------ ---- -- ------<br>------- --- ------ ----- --- ---- without -- ---- --- --<br>------- ------,243527.5,243522.1000000015,242719.416,242735.20000000298,242736.083,243536.099,,49,without
screen,html.Screen,2_1_1_1_50,2022-02-03T13:17:39.065Z,,,,,,,,,,,,,,,,,54,,,,,,,,,,,,,,726.0010000015027,,response,,,,100,,,,,,,Space,keypress(Space),,,,,,,,-- --- ---- --- ------ ----- ------- ---- -- --- ------- --<br>------- ---------- ------ -- ----- -- ----- -- ---- ------<br>--- ----- --- --- ------ -------- ----- --- ------ ----- --<br>----- ----- ---------- --- --- ------ ------ ---- -- ------<br>------- --- ------ ----- --- ---- ------- an ---- --- --<br>------- ------,244266.1000000015,244262.1000000015,243519.432,243527.70000000298,243536.099,244269.447,,50,an
screen,html.Screen,2_1_1_1_51,2022-02-03T13:17:39.783Z,,,,,,,,,,,,,,,,,54,,,,,,,,,,,,,,707.6530000015046,,response,,,,100,,,,,,,Space,keypress(Space),,,,,,,,-- --- ---- --- ------ ----- ------- ---- -- --- ------- --<br>------- ---------- ------ -- ----- -- ----- -- ---- ------<br>--- ----- --- --- ------ -------- ----- --- ------ ----- --<br>----- ----- ---------- --- --- ------ ------ ---- -- ------<br>------- --- ------ ----- --- ---- ------- -- easy --- --<br>------- ------,244983.80000000447,244977.1000000015,244252.78,244266.20000000298,244269.447,244986.128,,51,easy
screen,html.Screen,2_1_1_1_52,2022-02-03T13:17:40.513Z,,,,,,,,,,,,,,,,,54,,,,,,,,,,,,,,723.7719999985129,,response,,,,100,,,,,,,Space,keypress(Space),,,,,,,,-- --- ---- --- ------ ----- ------- ---- -- --- ------- --<br>------- ---------- ------ -- ----- -- ----- -- ---- ------<br>--- ----- --- --- ------ -------- ----- --- ------ ----- --<br>----- ----- ---------- --- --- ------ ------ ---- -- ------<br>------- --- ------ ----- --- ---- ------- -- ---- way --<br>------- ------,245714.20000000298,245709.8999999985,244969.461,244983.8999999985,244986.128,245719.476,,52,way
screen,html.Screen,2_1_1_1_53,2022-02-03T13:17:41.285Z,,,,,,,,,,,,,,,,,54,,,,,,,,,,,,,,761.4239999985148,,response,,,,100,,,,,,,Space,keypress(Space),,,,,,,,-- --- ---- --- ------ ----- ------- ---- -- --- ------- --<br>------- ---------- ------ -- ----- -- ----- -- ---- ------<br>--- ----- --- --- ------ -------- ----- --- ------ ----- --<br>----- ----- ---------- --- --- ------ ------ ---- -- ------<br>------- --- ------ ----- --- ---- ------- -- ---- --- of<br>------- ------,246486.30000000447,246480.8999999985,245702.809,245714.5,245719.476,246503.364,,53,of
screen,html.Screen,2_1_1_1_54,2022-02-03T13:17:42.097Z,,,,,,,,,,,,,,,,,54,,,,,,,,,,,,,,790.5359999985085,,response,,,,100,,,,,,,Space,keypress(Space),,,,,,,,-- --- ---- --- ------ ----- ------- ---- -- --- ------- --<br>------- ---------- ------ -- ----- -- ----- -- ---- ------<br>--- ----- --- --- ------ -------- ----- --- ------ ----- --<br>----- ----- ---------- --- --- ------ ------ ---- -- ------<br>------- --- ------ ----- --- ---- ------- -- ---- --- --<br>raising ------,247297.80000000447,247293.8999999985,246486.697,246486.3999999985,246503.364,247303.38,,54,raising
screen,html.Screen,2_1_1_1_55,2022-02-03T13:17:43.273Z,,,,,,,,,,,,,,,,,54,,,,,,,,,,,,,,1165.4200000044657,,response,,,,100,,,,,,,Space,keypress(Space),,,,,,,,-- --- ---- --- ------ ----- ------- ---- -- --- ------- --<br>------- ---------- ------ -- ----- -- ----- -- ---- ------<br>--- ----- --- --- ------ -------- ----- --- ------ ----- --<br>----- ----- ---------- --- --- ------ ------ ---- -- ------<br>------- --- ------ ----- --- ---- ------- -- ---- --- --<br>------- money.,248473.70000000298,248468.80000000447,247286.713,247298,247303.38,248486.737,,55,money.
Item 100,flow.Loop,2_1_1_1,2022-02-03T13:17:43.273Z,,,,,,,,,,,,,,,,,,,,,,,,,,,,,,,47752.36000000447,,completion,,,,,F,,,,,,,,,,,silence,,,,,248474.20000000298,248468.80000000447,200699.773,200702.30000000447,200716.44,248486.737,,,
Question 1,html.Screen,2_1_1_2,2022-02-03T13:17:45.649Z,,,,,,,,,,,,,,,,,,,,,,,,,,,,true,TRUE,,2360.0630000044766,,response,,,,100,F,,,,,,TRUE,click #choice-1,,,,silence,,,,,250849.5,250846.80000000447,248470.07,248474.30000000447,248486.737,250853.451,,,
Question 2,html.Screen,2_1_1_3,2022-02-03T13:17:47.627Z,,,,,,,,,,,,,,,,,,,,,,,,,,,,true,FALSE,,1971.448999998509,,response,,,,100,F,,,,,,FALSE,click #choice-2,,,,silence,,,,,252827.3999999985,252824.8999999985,250836.784,250849.6000000015,250853.451,252836.824,,,
Item 100,flow.Sequence,2_1_1,2022-02-03T13:17:47.627Z,,,,,,,,,,,,,,,,,,,,,,,,,,,,,,,62109.1999999985,,completion,,,,,,,,,,,,,,,,,,,,,252827.6000000015,252824.8999999985,190699.033,190703.5,190715.7,252836.824,,,
End of Practice,html.Page,2_1_2,2022-02-03T13:17:52.029Z,,,,,,,,,,,,,,,,,,,,,,,,,,,,,,,4392.276000001497,,form submission,,,,,,,,,,,,,,,,,,,,,257229.5,257229.1000000015,252820.157,252827.70000000298,252836.824,257236.912,,,
Practice,flow.Sequence,2_1,2022-02-03T13:17:52.029Z,,,,,,,,,,,,,,,,,,,,,,,,,,,,,,,127334.34300000149,,completion,,,,,,,,,,,,,,,,,,,,,257229.70000000298,257229.1000000015,129878.09,129888,129894.757,257236.912,,,
Trap_instruction,html.Page,2_2_0,2022-02-03T13:17:56.208Z,,,,,,,,,,,,,,,,,,,,,,,,,,,,,,,4171.288000002969,,form submission,,,,,,,,,,,,,,,,,,,,,261408.5,261408.20000000298,257220.245,257229.8999999985,257236.912,261437.584,,,
trap_trial,html.Screen,2_2_1,2022-02-03T13:17:59.166Z,,,,,,,,,,,,,,,,,,,,,,,,,,,,true,1,,2926.4159999999974,,response,,,,,,,,,,,1,click #choice-1,,,,,,,,,264366.8999999985,264364,261404.25,261408.70000000298,261437.584,264370.976,,,
end of trap trial,html.Page,2_2_2,2022-02-03T13:18:01.349Z,,,,,,,,,,,,,,,,,,,,,,,,,,,,,,,2178.4239999984857,,form submission,,,,,,,,,,,,,,,,,,,,,266549.700000003,266549.3999999985,264354.309,264367,264370.976,266554.353,,,
Trap 1,flow.Sequence,2_2,2022-02-03T13:18:01.350Z,,,,,,,,,,,,,,,,,,,,,,,,,,,,,,,9312.487999998499,,completion,,,,,,,,,,,,,,,,,,,,,266549.8999999985,266549.3999999985,257220.245,257229.80000000447,257236.912,266554.353,,,
Standby,html.Page,2_3_0,2022-02-03T13:18:09.340Z,,,,,,,,,,,,,,,,,,,,,,,,,,,,,,,8000.159999999974,,timeout,,,,,,,,,,,,,,,,,,,,,274539.80000000447,274537.846,266537.686,266550.1000000015,266554.353,274554.513,,,
Holding screen,html.Screen,2_3_1_0_0,2022-02-03T13:18:16.341Z,,,,,,,,,,,,,,,,,,,,,,,,,,,,,,,7000.974000000046,,timeout,,,,,,,,,,,,,,,,,,,,,281541,281538.82,274537.846,274540,274554.513,281555.487,,,
screen,html.Screen,2_3_1_0_1_0,2022-02-03T13:18:17.431Z,,,,,,,,,,,,,,,,,48,,,,,,,,,,,,,,1070.2130000029574,,response,,,,10,F,,,,,,Space,keypress(Space),,,,instrumental,,,,As -- --- ------ ------- --------- ----------- --------<br>--------- -------- --- ------- -- ------- ---- -- ------<br>-- --- -------- -------- ---------- ---- ---- ---- ------<br>-- --------- -- ---- -- --- -- --- ------- -- - -----<br>---------- -- -- -- ---- ----- -- ------ -- --- ------<br>-------,282630.700000003,282625.700000003,281538.82,281541.30000000447,281555.487,282638.842,,0,As
screen,html.Screen,2_3_1_0_1_1,2022-02-03T13:18:18.002Z,,,,,,,,,,,,,,,,,48,,,,,,,,,,,,,,560.5579999985057,,response,,,,10,F,,,,,,Space,keypress(Space),,,,instrumental,,,,-- in --- ------ ------- --------- ----------- --------<br>--------- -------- --- ------- -- ------- ---- -- ------<br>-- --- -------- -------- ---------- ---- ---- ---- ------<br>-- --------- -- ---- -- --- -- --- ------- -- - -----<br>---------- -- -- -- ---- ----- -- ------ -- --- ------<br>-------,283202.3999999985,283199.3999999985,282622.175,282630.8999999985,282638.842,283205.52,,1,in
screen,html.Screen,2_3_1_0_1_2,2022-02-03T13:18:18.631Z,,,,,,,,,,,,,,,,,48,,,,,,,,,,,,,,622.8799999984913,,response,,,,10,F,,,,,,Space,keypress(Space),,,,instrumental,,,,-- -- the ------ ------- --------- ----------- --------<br>--------- -------- --- ------- -- ------- ---- -- ------<br>-- --- -------- -------- ---------- ---- ---- ---- ------<br>-- --------- -- ---- -- --- -- --- ------- -- - -----<br>---------- -- -- -- ---- ----- -- ------ -- --- ------<br>-------,283831.3999999985,283828.3999999985,283188.853,283202.5,283205.52,283838.866,,2,the
screen,html.Screen,2_3_1_0_1_3,2022-02-03T13:18:19.218Z,,,,,,,,,,,,,,,,,48,,,,,,,,,,,,,,576.4340000044904,,response,,,,10,F,,,,,,Space,keypress(Space),,,,instrumental,,,,-- -- --- United ------- --------- ----------- --------<br>--------- -------- --- ------- -- ------- ---- -- ------<br>-- --- -------- -------- ---------- ---- ---- ---- ------<br>-- --------- -- ---- -- --- -- --- ------- -- - -----<br>---------- -- -- -- ---- ----- -- ------ -- --- ------<br>-------,284418.1000000015,284415.30000000447,283822.199,283831.3999999985,283838.866,284422.211,,3,United
screen,html.Screen,2_3_1_0_1_4,2022-02-03T13:18:19.851Z,,,,,,,,,,,,,,,,,48,,,,,,,,,,,,,,625.98900000297,,response,,,,10,F,,,,,,Space,keypress(Space),,,,instrumental,,,,"-- -- --- ------ States, --------- ----------- --------<br>--------- -------- --- ------- -- ------- ---- -- ------<br>-- --- -------- -------- ---------- ---- ---- ---- ------<br>-- --------- -- ---- -- --- -- --- ------- -- - -----<br>---------- -- -- -- ---- ----- -- ------ -- --- ------<br>-------",285051,285048.200000003,284405.544,284418.700000003,284422.211,285055.557,,4,"States,"
screen,html.Screen,2_3_1_0_1_5,2022-02-03T13:18:20.602Z,,,,,,,,,,,,,,,,,48,,,,,,,,,,,,,,743.4430000000284,,response,,,,10,F,,,,,,Space,keypress(Space),,,,instrumental,,,,-- -- --- ------ ------- Colombian ----------- --------<br>--------- -------- --- ------- -- ------- ---- -- ------<br>-- --- -------- -------- ---------- ---- ---- ---- ------<br>-- --------- -- ---- -- --- -- --- ------- -- - -----<br>---------- -- -- -- ---- ----- -- ------ -- --- ------<br>-------,285801.5,285799,285038.89,285051,285055.557,285805.572,,5,Colombian
screen,html.Screen,2_3_1_0_1_6,2022-02-03T13:18:21.368Z,,,,,,,,,,,,,,,,,48,,,,,,,,,,,,,,758.6280000029947,,response,,,,10,F,,,,,,Space,keypress(Space),,,,instrumental,,,,-- -- --- ------ ------- --------- legislation --------<br>--------- -------- --- ------- -- ------- ---- -- ------<br>-- --- -------- -------- ---------- ---- ---- ---- ------<br>-- --------- -- ---- -- --- -- --- ------- -- - -----<br>---------- -- -- -- ---- ----- -- ------ -- --- ------<br>-------,286567.700000003,286564.200000003,285788.905,285801.6000000015,285805.572,286572.684,,6,legislation
screen,html.Screen,2_3_1_0_1_7,2022-02-03T13:18:22.176Z,,,,,,,,,,,,,,,,,48,,,,,,,,,,,,,,800.3159999999916,,response,,,,10,F,,,,,,Space,keypress(Space),,,,instrumental,,,,-- -- --- ------ ------- --------- ----------- requires<br>--------- -------- --- ------- -- ------- ---- -- ------<br>-- --- -------- -------- ---------- ---- ---- ---- ------<br>-- --------- -- ---- -- --- -- --- ------- -- - -----<br>---------- -- -- -- ---- ----- -- ------ -- --- ------<br>-------,287375.700000003,287373,286556.017,286567.80000000447,286572.684,287389.367,,7,requires
screen,html.Screen,2_3_1_0_1_8,2022-02-03T13:18:22.844Z,,,,,,,,,,,,,,,,,48,,,,,,,,,,,,,,650.7330000014626,,response,,,,10,F,,,,,,Space,keypress(Space),,,,instrumental,,,,-- -- --- ------ ------- --------- ----------- --------<br>travelers -------- --- ------- -- ------- ---- -- ------<br>-- --- -------- -------- ---------- ---- ---- ---- ------<br>-- --------- -- ---- -- --- -- --- ------- -- - -----<br>---------- -- -- -- ---- ----- -- ------ -- --- ------<br>-------,288043.80000000447,288040.1000000015,287372.7,287375.80000000447,287389.367,288056.047,,8,travelers
screen,html.Screen,2_3_1_0_1_9,2022-02-03T13:18:23.451Z,,,,,,,,,,,,,,,,,48,,,,,,,,,,,,,,592.0530000014696,,response,,,,10,F,,,,,,Space,keypress(Space),,,,instrumental,,,,-- -- --- ------ ------- --------- ----------- --------<br>--------- entering --- ------- -- ------- ---- -- ------<br>-- --- -------- -------- ---------- ---- ---- ---- ------<br>-- --------- -- ---- -- --- -- --- ------- -- - -----<br>---------- -- -- -- ---- ----- -- ------ -- --- ------<br>-------,288650.80000000447,288648.1000000015,288039.38,288043.80000000447,288056.047,288656.059,,9,entering
screen,html.Screen,2_3_1_0_1_10,2022-02-03T13:18:24.098Z,,,,,,,,,,,,,,,,,48,,,,,,,,,,,,,,638.9409999999916,,response,,,,10,F,,,,,,Space,keypress(Space),,,,instrumental,,,,-- -- --- ------ ------- --------- ----------- --------<br>--------- -------- the ------- -- ------- ---- -- ------<br>-- --- -------- -------- ---------- ---- ---- ---- ------<br>-- --------- -- ---- -- --- -- --- ------- -- - -----<br>---------- -- -- -- ---- ----- -- ------ -- --- ------<br>-------,289298.200000003,289295,288639.392,288650.8999999985,288656.059,289306.072,,10,the
screen,html.Screen,2_3_1_0_1_11,2022-02-03T13:18:24.770Z,,,,,,,,,,,,,,,,,48,,,,,,,,,,,,,,660.9280000000144,,response,,,,10,F,,,,,,Space,keypress(Space),,,,instrumental,,,,-- -- --- ------ ------- --------- ----------- --------<br>--------- -------- --- country -- ------- ---- -- ------<br>-- --- -------- -------- ---------- ---- ---- ---- ------<br>-- --------- -- ---- -- --- -- --- ------- -- - -----<br>---------- -- -- -- ---- ----- -- ------ -- --- ------<br>-------,289970,289967,289289.405,289298.30000000447,289306.072,289972.752,,11,country
screen,html.Screen,2_3_1_0_1_12,2022-02-03T13:18:25.369Z,,,,,,,,,,,,,,,,,48,,,,,,,,,,,,,,592.1479999985313,,response,,,,10,F,,,,,,Space,keypress(Space),,,,instrumental,,,,-- -- --- ------ ------- --------- ----------- --------<br>--------- -------- --- ------- to ------- ---- -- ------<br>-- --- -------- -------- ---------- ---- ---- ---- ------<br>-- --------- -- ---- -- --- -- --- ------- -- - -----<br>---------- -- -- -- ---- ----- -- ------ -- --- ------<br>-------,290568.200000003,290564.8999999985,289956.085,289970.1000000015,289972.752,290572.764,,12,to
screen,html.Screen,2_3_1_0_1_13,2022-02-03T13:18:26.039Z,,,,,,,,,,,,,,,,,48,,,,,,,,,,,,,,663.1359999984852,,response,,,,10,F,,,,,,Space,keypress(Space),,,,instrumental,,,,-- -- --- ------ ------- --------- ----------- --------<br>--------- -------- --- ------- -- declare ---- -- ------<br>-- --- -------- -------- ---------- ---- ---- ---- ------<br>-- --------- -- ---- -- --- -- --- ------- -- - -----<br>---------- -- -- -- ---- ----- -- ------ -- --- ------<br>-------,291238.700000003,291235.8999999985,290556.097,290568.30000000447,290572.764,291239.444,,13,declare
screen,html.Screen,2_3_1_0_1_14,2022-02-03T13:18:26.697Z,,,,,,,,,,,,,,,,,48,,,,,,,,,,,,,,653.2560000029625,,response,,,,10,F,,,,,,Space,keypress(Space),,,,instrumental,,,,-- -- --- ------ ------- --------- ----------- --------<br>--------- -------- --- ------- -- ------- cash -- ------<br>-- --- -------- -------- ---------- ---- ---- ---- ------<br>-- --------- -- ---- -- --- -- --- ------- -- - -----<br>---------- -- -- -- ---- ----- -- ------ -- --- ------<br>-------,291896.5,291892.700000003,291222.777,291238.80000000447,291239.444,291906.124,,14,cash
screen,html.Screen,2_3_1_0_1_15,2022-02-03T13:18:27.290Z,,,,,,,,,,,,,,,,,48,,,,,,,,,,,,,,580.6760000044596,,response,,,,10,F,,,,,,Space,keypress(Space),,,,instrumental,,,,-- -- --- ------ ------- --------- ----------- --------<br>--------- -------- --- ------- -- ------- ---- in ------<br>-- --- -------- -------- ---------- ---- ---- ---- ------<br>-- --------- -- ---- -- --- -- --- ------- -- - -----<br>---------- -- -- -- ---- ----- -- ------ -- --- ------<br>-------,292490.200000003,292486.80000000447,291889.457,291896.6000000015,291906.124,292506.136,,15,in
screen,html.Screen,2_3_1_0_1_16,2022-02-03T13:18:27.928Z,,,,,,,,,,,,,,,,,48,,,,,,,,,,,,,,617.5640000029816,,response,,,,10,F,,,,,,Space,keypress(Space),,,,instrumental,,,,-- -- --- ------ ------- --------- ----------- --------<br>--------- -------- --- ------- -- ------- ---- -- excess<br>-- --- -------- -------- ---------- ---- ---- ---- ------<br>-- --------- -- ---- -- --- -- --- ------- -- - -----<br>---------- -- -- -- ---- ----- -- ------ -- --- ------<br>-------,293127.30000000447,293123.700000003,292489.469,292490.200000003,292506.136,293139.482,,16,excess
screen,html.Screen,2_3_1_0_1_17,2022-02-03T13:18:28.711Z,,,,,,,,,,,,,,,,,48,,,,,,,,,,,,,,768.118000001472,,response,,,,10,F,,,,,,Space,keypress(Space),,,,instrumental,,,,-- -- --- ------ ------- --------- ----------- --------<br>--------- -------- --- ------- -- ------- ---- -- ------<br>of --- -------- -------- ---------- ---- ---- ---- ------<br>-- --------- -- ---- -- --- -- --- ------- -- - -----<br>---------- -- -- -- ---- ----- -- ------ -- --- ------<br>-------,293910.700000003,293907.6000000015,293122.815,293127.3999999985,293139.482,293922.831,,17,of
screen,html.Screen,2_3_1_0_1_18,2022-02-03T13:18:29.483Z,,,,,,,,,,,,,,,,,48,,,,,,,,,,,,,,754.6689999999944,,response,,,,10,F,,,,,,Space,keypress(Space),,,,instrumental,,,,-- -- --- ------ ------- --------- ----------- --------<br>--------- -------- --- ------- -- ------- ---- -- ------<br>-- ten -------- -------- ---------- ---- ---- ---- ------<br>-- --------- -- ---- -- --- -- --- ------- -- - -----<br>---------- -- -- -- ---- ----- -- ------ -- --- ------<br>-------,294682.5,294677.5,293906.164,293910.700000003,293922.831,294689.513,,18,ten
screen,html.Screen,2_3_1_0_1_19,2022-02-03T13:18:30.193Z,,,,,,,,,,,,,,,,,48,,,,,,,,,,,,,,700.0870000015129,,response,,,,10,F,,,,,,Space,keypress(Space),,,,instrumental,,,,-- -- --- ------ ------- --------- ----------- --------<br>--------- -------- --- ------- -- ------- ---- -- ------<br>-- --- thousand -------- ---------- ---- ---- ---- ------<br>-- --------- -- ---- -- --- -- --- ------- -- - -----<br>---------- -- -- -- ---- ----- -- ------ -- --- ------<br>-------,295392.6000000015,295389.6000000015,294672.846,294682.700000003,294689.513,295406.194,,19,thousand
screen,html.Screen,2_3_1_0_1_20,2022-02-03T13:18:31.760Z,,,,,,,,,,,,,,,,,48,,,,,,,,,,,,,,1549.1060000044527,,response,,,,10,F,,,,,,Space,keypress(Space),,,,instrumental,,,,-- -- --- ------ ------- --------- ----------- --------<br>--------- -------- --- ------- -- ------- ---- -- ------<br>-- --- -------- dollars. ---------- ---- ---- ---- ------<br>-- --------- -- ---- -- --- -- --- ------- -- - -----<br>---------- -- -- -- ---- ----- -- ------ -- --- ------<br>-------,296959.80000000447,296955.30000000447,295389.527,295392.6000000015,295406.194,296972.892,,20,dollars.
screen,html.Screen,2_3_1_0_1_21,2022-02-03T13:18:32.460Z,,,,,,,,,,,,,,,,,48,,,,,,,,,,,,,,683.6080000000075,,response,,,,10,F,,,,,,Space,keypress(Space),,,,instrumental,,,,-- -- --- ------ ------- --------- ----------- --------<br>--------- -------- --- ------- -- ------- ---- -- ------<br>-- --- -------- -------- Concealing ---- ---- ---- ------<br>-- --------- -- ---- -- --- -- --- ------- -- - -----<br>---------- -- -- -- ---- ----- -- ------ -- --- ------<br>-------,297659.3999999985,297656.5,296956.225,296960,296972.892,297673.411,,21,Concealing
screen,html.Screen,2_3_1_0_1_22,2022-02-03T13:18:33.101Z,,,,,,,,,,,,,,,,,48,,,,,,,,,,,,,,623.7890000029583,,response,,,,10,F,,,,,,Space,keypress(Space),,,,instrumental,,,,-- -- --- ------ ------- --------- ----------- --------<br>--------- -------- --- ------- -- ------- ---- -- ------<br>-- --- -------- -------- ---------- more ---- ---- ------<br>-- --------- -- ---- -- --- -- --- ------- -- - -----<br>---------- -- -- -- ---- ----- -- ------ -- --- ------<br>-------,298300.6000000015,298297.200000003,297656.744,297659.5,297673.411,298306.757,,22,more
screen,html.Screen,2_3_1_0_1_23,2022-02-03T13:18:33.681Z,,,,,,,,,,,,,,,,,48,,,,,,,,,,,,,,570.6429999985266,,response,,,,10,F,,,,,,Space,keypress(Space),,,,instrumental,,,,-- -- --- ------ ------- --------- ----------- --------<br>--------- -------- --- ------- -- ------- ---- -- ------<br>-- --- -------- -------- ---------- ---- than ---- ------<br>-- --------- -- ---- -- --- -- --- ------- -- - -----<br>---------- -- -- -- ---- ----- -- ------ -- --- ------<br>-------,298880.5,298877.3999999985,298290.09,298300.700000003,298306.757,298890.102,,23,than
screen,html.Screen,2_3_1_0_1_24,2022-02-03T13:18:34.376Z,,,,,,,,,,,,,,,,,48,,,,,,,,,,,,,,682.0980000029667,,response,,,,10,F,,,,,,Space,keypress(Space),,,,instrumental,,,,-- -- --- ------ ------- --------- ----------- --------<br>--------- -------- --- ------- -- ------- ---- -- ------<br>-- --- -------- -------- ---------- ---- ---- that ------<br>-- --------- -- ---- -- --- -- --- ------- -- - -----<br>---------- -- -- -- ---- ----- -- ------ -- --- ------<br>-------,299575.30000000447,299572.200000003,298873.435,298880.6000000015,298890.102,299590.116,,24,that
screen,html.Screen,2_3_1_0_1_25,2022-02-03T13:18:35.169Z,,,,,,,,,,,,,,,,,48,,,,,,,,,,,,,,775.9840000015101,,response,,,,10,F,,,,,,Space,keypress(Space),,,,instrumental,,,,-- -- --- ------ ------- --------- ----------- --------<br>--------- -------- --- ------- -- ------- ---- -- ------<br>-- --- -------- -------- ---------- ---- ---- ---- amount<br>-- --------- -- ---- -- --- -- --- ------- -- - -----<br>---------- -- -- -- ---- ----- -- ------ -- --- ------<br>-------,300368.80000000447,300366.1000000015,299573.449,299575.3999999985,299590.116,300373.465,,25,amount
screen,html.Screen,2_3_1_0_1_26,2022-02-03T13:18:35.853Z,,,,,,,,,,,,,,,,,48,,,,,,,,,,,,,,676.5349999999744,,response,,,,10,F,,,,,,Space,keypress(Space),,,,instrumental,,,,-- -- --- ------ ------- --------- ----------- --------<br>--------- -------- --- ------- -- ------- ---- -- ------<br>-- --- -------- -------- ---------- ---- ---- ---- ------<br>to --------- -- ---- -- --- -- --- ------- -- - -----<br>---------- -- -- -- ---- ----- -- ------ -- --- ------<br>-------,301052.5,301050,300356.798,300368.80000000447,300373.465,301056.812,,26,to
screen,html.Screen,2_3_1_0_1_27,2022-02-03T13:18:36.473Z,,,,,,,,,,,,,,,,,48,,,,,,,,,,,,,,613.0879999985336,,response,,,,10,F,,,,,,Space,keypress(Space),,,,instrumental,,,,-- -- --- ------ ------- --------- ----------- --------<br>--------- -------- --- ------- -- ------- ---- -- ------<br>-- --- -------- -------- ---------- ---- ---- ---- ------<br>-- transport -- ---- -- --- -- --- ------- -- - -----<br>---------- -- -- -- ---- ----- -- ------ -- --- ------<br>-------,301672.80000000447,301669.8999999985,301040.145,301052.5,301056.812,301690.158,,27,transport
screen,html.Screen,2_3_1_0_1_28,2022-02-03T13:18:37.062Z,,,,,,,,,,,,,,,,,48,,,,,,,,,,,,,,568.8420000000042,,response,,,,10,F,,,,,,Space,keypress(Space),,,,instrumental,,,,-- -- --- ------ ------- --------- ----------- --------<br>--------- -------- --- ------- -- ------- ---- -- ------<br>-- --- -------- -------- ---------- ---- ---- ---- ------<br>-- --------- it ---- -- --- -- --- ------- -- - -----<br>---------- -- -- -- ---- ----- -- ------ -- --- ------<br>-------,302261.80000000447,302259,301673.491,301672.8999999985,301690.158,302273.503,,28,it
screen,html.Screen,2_3_1_0_1_29,2022-02-03T13:18:37.699Z,,,,,,,,,,,,,,,,,48,,,,,,,,,,,,,,621.597000001464,,response,,,,10,F,,,,,,Space,keypress(Space),,,,instrumental,,,,-- -- --- ------ ------- --------- ----------- --------<br>--------- -------- --- ------- -- ------- ---- -- ------<br>-- --- -------- -------- ---------- ---- ---- ---- ------<br>-- --------- -- into -- --- -- --- ------- -- - -----<br>---------- -- -- -- ---- ----- -- ------ -- --- ------<br>-------,302898.30000000447,302895.1000000015,302256.836,302261.8999999985,302273.503,302906.849,,29,into
screen,html.Screen,2_3_1_0_1_30,2022-02-03T13:18:38.276Z,,,,,,,,,,,,,,,,,48,,,,,,,,,,,,,,565.2510000015027,,response,,,,10,F,,,,,,Space,keypress(Space),,,,instrumental,,,,-- -- --- ------ ------- --------- ----------- --------<br>--------- -------- --- ------- -- ------- ---- -- ------<br>-- --- -------- -------- ---------- ---- ---- ---- ------<br>-- --------- -- ---- or --- -- --- ------- -- - -----<br>---------- -- -- -- ---- ----- -- ------ -- --- ------<br>-------,303475.5,303472.1000000015,302890.182,302898.3999999985,302906.849,303490.194,,30,or
screen,html.Screen,2_3_1_0_1_31,2022-02-03T13:18:38.820Z,,,,,,,,,,,,,,,,,48,,,,,,,,,,,,,,525.9060000014724,,response,,,,10,F,,,,,,Space,keypress(Space),,,,instrumental,,,,-- -- --- ------ ------- --------- ----------- --------<br>--------- -------- --- ------- -- ------- ---- -- ------<br>-- --- -------- -------- ---------- ---- ---- ---- ------<br>-- --------- -- ---- -- out -- --- ------- -- - -----<br>---------- -- -- -- ---- ----- -- ------ -- --- ------<br>-------,304019.3999999985,304016.1000000015,303473.527,303475.700000003,303490.194,304023.538,,31,out
screen,html.Screen,2_3_1_0_1_32,2022-02-03T13:18:39.393Z,,,,,,,,,,,,,,,,,48,,,,,,,,,,,,,,565.3619999985094,,response,,,,10,F,,,,,,Space,keypress(Space),,,,instrumental,,,,-- -- --- ------ ------- --------- ----------- --------<br>--------- -------- --- ------- -- ------- ---- -- ------<br>-- --- -------- -------- ---------- ---- ---- ---- ------<br>-- --------- -- ---- -- --- of --- ------- -- - -----<br>---------- -- -- -- ---- ----- -- ------ -- --- ------<br>-------,304591.80000000447,304588.8999999985,304006.871,304019.6000000015,304023.538,304606.883,,32,of
screen,html.Screen,2_3_1_0_1_33,2022-02-03T13:18:39.890Z,,,,,,,,,,,,,,,,,48,,,,,,,,,,,,,,480.1170000000275,,response,,,,10,F,,,,,,Space,keypress(Space),,,,instrumental,,,,-- -- --- ------ ------- --------- ----------- --------<br>--------- -------- --- ------- -- ------- ---- -- ------<br>-- --- -------- -------- ---------- ---- ---- ---- ------<br>-- --------- -- ---- -- --- -- the ------- -- - -----<br>---------- -- -- -- ---- ----- -- ------ -- --- ------<br>-------,305089.700000003,305087,304590.216,304591.8999999985,304606.883,305106.893,,33,the
screen,html.Screen,2_3_1_0_1_34,2022-02-03T13:18:40.443Z,,,,,,,,,,,,,,,,,48,,,,,,,,,,,,,,531.8070000029984,,response,,,,10,F,,,,,,Space,keypress(Space),,,,instrumental,,,,-- -- --- ------ ------- --------- ----------- --------<br>--------- -------- --- ------- -- ------- ---- -- ------<br>-- --- -------- -------- ---------- ---- ---- ---- ------<br>-- --------- -- ---- -- --- -- --- country -- - -----<br>---------- -- -- -- ---- ----- -- ------ -- --- ------<br>-------,305642.1000000015,305638.700000003,305090.226,305089.80000000447,305106.893,305656.904,,34,country
screen,html.Screen,2_3_1_0_1_35,2022-02-03T13:18:40.986Z,,,,,,,,,,,,,,,,,48,,,,,,,,,,,,,,524.9959999985294,,response,,,,10,F,,,,,,Space,keypress(Space),,,,instrumental,,,,-- -- --- ------ ------- --------- ----------- --------<br>--------- -------- --- ------- -- ------- ---- -- ------<br>-- --- -------- -------- ---------- ---- ---- ---- ------<br>-- --------- -- ---- -- --- -- --- ------- is - -----<br>---------- -- -- -- ---- ----- -- ------ -- --- ------<br>-------,306185.700000003,306181.8999999985,305640.237,305642.200000003,305656.904,306190.248,,35,is
screen,html.Screen,2_3_1_0_1_36,2022-02-03T13:18:41.513Z,,,,,,,,,,,,,,,,,48,,,,,,,,,,,,,,518.6519999984885,,response,,,,10,F,,,,,,Space,keypress(Space),,,,instrumental,,,,-- -- --- ------ ------- --------- ----------- --------<br>--------- -------- --- ------- -- ------- ---- -- ------<br>-- --- -------- -------- ---------- ---- ---- ---- ------<br>-- --------- -- ---- -- --- -- --- ------- -- a -----<br>---------- -- -- -- ---- ----- -- ------ -- --- ------<br>-------,306712.1000000015,306708.8999999985,306173.581,306185.700000003,306190.248,306724.093,,36,a
screen,html.Screen,2_3_1_0_1_37,2022-02-03T13:18:42.483Z,,,,,,,,,,,,,,,,,48,,,,,,,,,,,,,,953.6070000029868,,response,,,,10,F,,,,,,Space,keypress(Space),,,,instrumental,,,,-- -- --- ------ ------- --------- ----------- --------<br>--------- -------- --- ------- -- ------- ---- -- ------<br>-- --- -------- -------- ---------- ---- ---- ---- ------<br>-- --------- -- ---- -- --- -- --- ------- -- - crime<br>---------- -- -- -- ---- ----- -- ------ -- --- ------<br>-------,307681.8999999985,307677.700000003,306707.426,306712.30000000447,306724.093,307690.779,,37,crime
screen,html.Screen,2_3_1_0_1_38,2022-02-03T13:18:43.303Z,,,,,,,,,,,,,,,,,48,,,,,,,,,,,,,,807.9210000029998,,response,,,,10,F,,,,,,Space,keypress(Space),,,,instrumental,,,,-- -- --- ------ ------- --------- ----------- --------<br>--------- -------- --- ------- -- ------- ---- -- ------<br>-- --- -------- -------- ---------- ---- ---- ---- ------<br>-- --------- -- ---- -- --- -- --- ------- -- - -----<br>punishable -- -- -- ---- ----- -- ------ -- --- ------<br>-------,308501.80000000447,308498.700000003,307674.112,307682,307690.779,308507.462,,38,punishable
screen,html.Screen,2_3_1_0_1_39,2022-02-03T13:18:43.904Z,,,,,,,,,,,,,,,,,48,,,,,,,,,,,,,,592.2380000029807,,response,,,,10,F,,,,,,Space,keypress(Space),,,,instrumental,,,,-- -- --- ------ ------- --------- ----------- --------<br>--------- -------- --- ------- -- ------- ---- -- ------<br>-- --- -------- -------- ---------- ---- ---- ---- ------<br>-- --------- -- ---- -- --- -- --- ------- -- - -----<br>---------- by -- -- ---- ----- -- ------ -- --- ------<br>-------,309103,309099.700000003,308490.795,308501.8999999985,308507.462,309107.474,,39,by
screen,html.Screen,2_3_1_0_1_40,2022-02-03T13:18:44.534Z,,,,,,,,,,,,,,,,,48,,,,,,,,,,,,,,621.9259999985225,,response,,,,10,F,,,,,,Space,keypress(Space),,,,instrumental,,,,-- -- --- ------ ------- --------- ----------- --------<br>--------- -------- --- ------- -- ------- ---- -- ------<br>-- --- -------- -------- ---------- ---- ---- ---- ------<br>-- --------- -- ---- -- --- -- --- ------- -- - -----<br>---------- -- up -- ---- ----- -- ------ -- --- ------<br>-------,309733.30000000447,309729.3999999985,309090.807,309103.200000003,309107.474,309740.82,,40,up
screen,html.Screen,2_3_1_0_1_41,2022-02-03T13:18:45.127Z,,,,,,,,,,,,,,,,,48,,,,,,,,,,,,,,582.5799999985029,,response,,,,10,F,,,,,,Space,keypress(Space),,,,instrumental,,,,-- -- --- ------ ------- --------- ----------- --------<br>--------- -------- --- ------- -- ------- ---- -- ------<br>-- --- -------- -------- ---------- ---- ---- ---- ------<br>-- --------- -- ---- -- --- -- --- ------- -- - -----<br>---------- -- -- to ---- ----- -- ------ -- --- ------<br>-------,310326.3999999985,310323.3999999985,309724.153,309733.30000000447,309740.82,310340.832,,41,to
screen,html.Screen,2_3_1_0_1_42,2022-02-03T13:18:46.013Z,,,,,,,,,,,,,,,,,48,,,,,,,,,,,,,,868.7680000014952,,response,,,,10,F,,,,,,Space,keypress(Space),,,,instrumental,,,,-- -- --- ------ ------- --------- ----------- --------<br>--------- -------- --- ------- -- ------- ---- -- ------<br>-- --- -------- -------- ---------- ---- ---- ---- ------<br>-- --------- -- ---- -- --- -- --- ------- -- - -----<br>---------- -- -- -- five ----- -- ------ -- --- ------<br>-------,311212.3999999985,311209.6000000015,310324.165,310326.5,310340.832,311224.183,,42,five
screen,html.Screen,2_3_1_0_1_43,2022-02-03T13:18:46.674Z,,,,,,,,,,,,,,,,,48,,,,,,,,,,,,,,645.2169999984908,,response,,,,10,F,,,,,,Space,keypress(Space),,,,instrumental,,,,-- -- --- ------ ------- --------- ----------- --------<br>--------- -------- --- ------- -- ------- ---- -- ------<br>-- --- -------- -------- ---------- ---- ---- ---- ------<br>-- --------- -- ---- -- --- -- --- ------- -- - -----<br>---------- -- -- -- ---- years -- ------ -- --- ------<br>-------,311872.80000000447,311869.3999999985,311207.516,311212.5,311224.183,311874.196,,43,years
