sender,sender_type,sender_id,timestamp,meta,,Blues,Classical,Country,Dance,Electronic,Folk,Gospel,Hip-Hop,Jazz,Latin,Musical/Film,New-age,Pop,Prolific_id,Provo_ID,R&B,Rap,Reggae,Religious,Rock,Soul,Swing,Traditional,age,artist_name,correct,correctResponse,distraction,duration,education,ended_on,familiarity,gender,headphone_check_performance,item,list,music_frequency,offensiveness,pleasantness,position_correct,preference,response,response_action,snippet_file,song_name,song_rating,sound,stimulus_1,stimulus_2,stimulus_3,text,time_commit,time_end,time_render,time_run,time_show,time_switch,url,word,word_ID
Prolific ID,html.Form,0,2022-02-04T13:16:35.005Z,"{""labjs_version"":""20.2.2"",""labjs_build"":{""flavor"":""production"",""commit"":""a25486e0c714a0ae2ce03ff94b7bb6896854dcfa""},""location"":""https://run.pavlovia.org/mvasilev/prolific2_music_d/"",""userAgent"":""Mozilla/5.0 (Windows NT 10.0; Win64; x64) AppleWebKit/537.36 (KHTML, like Gecko) Chrome/97.0.4692.99 Safari/537.36"",""platform"":""Win32"",""language"":""en-GB"",""locale"":""en-GB"",""timeZone"":""Europe/London"",""timezoneOffset"":0,""screen_width"":1366,""screen_height"":768,""scroll_width"":1366,""scroll_height"":577,""window_innerWidth"":1366,""window_innerHeight"":625,""devicePixelRatio"":1}",,,,,,,,,,,,,,,5d1e0b068777b50001f52b0e,,,,,,,,,,,,,,,4648.974999988073,,form submission,,,,,,,,,,,,,,,,,,,,,130142.09999996424,130135.69999998808,125353.302,125368.09999996424,125486.725,130188.982,{},,
Introduction,html.Screen,1_0,2022-02-04T13:16:40.590Z,,,,,,,,,,,,,,,,,,,,,,,,,,,,,,,5532.017999999996,,response,,,,,,,,,,,continue,click button,,,,,,,,,135727.69999998808,135721,130122.28,130143.30000001192,130188.982,135775.118,,,
Volume calibration,html.Screen,1_1,2022-02-04T13:17:02.667Z,,,,,,,,,,,,,,,,,,,,,,,,,,,,,,,22018.682000011933,,response,,,,,,,,,,,continue,click button,,,,,,,,,157804.39999997616,157793.80000001192,135708.33,135728.09999996424,135775.118,157819.088,,,
Task instructions,html.Screen,1_2,2022-02-04T13:17:14.243Z,,,,,,,,,,,,,,,,,,,,,,,,,,,,,,,11559.11199998809,,response,,,,,,,,,,,continue,click button,,,,,,,,,169380,169378.19999998808,157785.73,157805,157819.088,169391.543,,,
Sounds,html.Screen,1_3_0_0,2022-02-04T13:17:18.495Z,,,,,,,,,,,,,,,,,,,,,,,,,,,,,,,4251.881999999983,,timeout,,,,,,,,,2,,,,,,,,I,S,O,,173632.80000001192,173626.756,169374.688,169380.89999997616,169391.543,173643.425,,,
Judgement,html.Screen,1_3_0_1,2022-02-04T13:17:20.172Z,,,,,,,,,,,,,,,,,,,,,,,,,,,,true,2,,1662.7749999880907,,response,,,,,,,,,2,,2,click #choice-2,,,,,I,S,O,,175309.19999998808,175306.19999998808,173626.756,173633.09999996424,173643.425,175311.034,,,
Trial,flow.Sequence,1_3_0,2022-02-04T13:17:20.173Z,,,,,,,,,,,,,,,,,,,,,,,,,,,,,,,5914.656999988074,,completion,,,,,,,,,2,,,,,,,,I,S,O,,175310.19999998808,175306.19999998808,169374.688,169380.80000001192,169391.543,175311.034,,,
Sounds,html.Screen,1_3_1_0,2022-02-04T13:17:24.410Z,,,,,,,,,,,,,,,,,,,,,,,,,,,,,,,4251.941999999981,,timeout,,,,,,,,,3,,,,,,,,I,O,S,,179547.59999996424,179546.315,175294.261,175313.09999996424,175311.034,179562.976,,,
Judgement,html.Screen,1_3_1_1,2022-02-04T13:17:25.645Z,,,,,,,,,,,,,,,,,,,,,,,,,,,,true,3,,1215.623999964242,,response,,,,,,,,,3,,3,click #choice-3,,,,,I,O,S,,180782.5,180778.59999996424,179546.315,179548.09999996424,179562.976,180796.878,,,
Trial,flow.Sequence,1_3_1,2022-02-04T13:17:25.646Z,,,,,,,,,,,,,,,,,,,,,,,,,,,,,,,5467.565999964223,,completion,,,,,,,,,3,,,,,,,,I,O,S,,180783.30000001192,180778.59999996424,175294.261,175310.5,175311.034,180796.878,,,
Sounds,html.Screen,1_3_2_0,2022-02-04T13:17:29.899Z,,,,,,,,,,,,,,,,,,,,,,,,,,,,,,,4254.141999999993,,timeout,,,,,,,,,2,,,,,,,,O,S,I,,185035.39999997616,185032.307,180780.45,180784.30000001192,180796.878,185051.02,,,
Judgement,html.Screen,1_3_2_1,2022-02-04T13:17:30.573Z,,,,,,,,,,,,,,,,,,,,,,,,,,,,true,2,,655.6799999880895,,response,,,,,,,,,2,,2,click #choice-2,,,,,O,S,I,,185709.5,185706.69999998808,185032.307,185036.19999998808,185051.02,185715.966,,,
Trial,flow.Sequence,1_3_2,2022-02-04T13:17:30.573Z,,,,,,,,,,,,,,,,,,,,,,,,,,,,,,,4909.821999988082,,completion,,,,,,,,,2,,,,,,,,O,S,I,,185710.09999996424,185706.69999998808,180780.45,180784.09999996424,180796.878,185715.966,,,
Sounds,html.Screen,1_3_3_0,2022-02-04T13:17:34.817Z,,,,,,,,,,,,,,,,,,,,,,,,,,,,,,,4253.292000000016,,timeout,,,,,,,,,1,,,,,,,,S,O,I,,189953.80000001192,189951.351,185699.304,185710.39999997616,185715.966,189969.258,,,
Judgement,html.Screen,1_3_3_1,2022-02-04T13:17:35.621Z,,,,,,,,,,,,,,,,,,,,,,,,,,,,true,1,,785.6419999761565,,response,,,,,,,,,1,,1,click #choice-1,,,,,S,O,I,,190757.59999996424,190754.89999997616,189951.351,189954.39999997616,189969.258,190768.692,,,
Trial,flow.Sequence,1_3_3,2022-02-04T13:17:35.621Z,,,,,,,,,,,,,,,,,,,,,,,,,,,,,,,5038.933999976172,,completion,,,,,,,,,1,,,,,,,,S,O,I,,190757.89999997616,190754.89999997616,185699.304,185710.30000001192,185715.966,190768.692,,,
Sounds,html.Screen,1_3_4_0,2022-02-04T13:17:39.868Z,,,,,,,,,,,,,,,,,,,,,,,,,,,,,,,4251.866999999998,,timeout,,,,,,,,,3,,,,,,,,O,I,S,,195005.19999998808,195003.804,190751.745,190758.5,190768.692,195020.559,,,
Judgement,html.Screen,1_3_4_1,2022-02-04T13:17:40.782Z,,,,,,,,,,,,,,,,,,,,,,,,,,,,true,3,,894.7410000119125,,response,,,,,,,,,3,,3,click #choice-3,,,,,O,I,S,,195919.19999998808,195915.30000001192,195003.804,195005.39999997616,195020.559,195920.941,,,
Trial,flow.Sequence,1_3_4,2022-02-04T13:17:40.784Z,,,,,,,,,,,,,,,,,,,,,,,,,,,,,,,5146.608000011911,,completion,,,,,,,,,3,,,,,,,,O,I,S,,195920.30000001192,195915.30000001192,190751.745,190758.30000001192,190768.692,195920.941,,,
Sounds,html.Screen,1_3_5_0,2022-02-04T13:17:45.022Z,,,,,,,,,,,,,,,,,,,,,,,,,,,,,,,4252.760000000009,,timeout,,,,,,,,,1,,,,,,,,S,I,O,,200158.80000001192,200156.32,195904.277,195922.39999997616,195920.941,200173.701,,,
Judgement,html.Screen,1_3_5_1,2022-02-04T13:17:45.623Z,,,,,,,,,,,,,,,,,,,,,,,,,,,,true,1,,581.4989999880781,,response,,,,,,,,,1,,1,click #choice-1,,,,,S,I,O,,200759.89999997616,200755.19999998808,200156.32,200159.09999996424,200173.701,200789.974,,,
Trial,flow.Sequence,1_3_5,2022-02-04T13:17:45.624Z,,,,,,,,,,,,,,,,,,,,,,,,,,,,,,,4834.258999988087,,completion,,,,,,,,,1,,,,,,,,S,I,O,,200760.80000001192,200755.19999998808,195904.277,195920.80000001192,195920.941,200789.974,,,
Task,flow.Loop,1_3,2022-02-04T13:17:45.636Z,,,,,,,,,,,,,,,,,,,,,,,,,,,,,,,31363.656999988074,,completion,,,1,,,,,,,,,,,,,,,,,,200773,200755.19999998808,169374.688,169380.39999997616,169391.543,200789.974,,,
Trap,html.Screen,1_4,2022-02-04T13:17:45.640Z,,,,,,,,,,,,,,,,,,,,,,,,,,,,,,,NaN,,skipped,,,,,,,,,,,,,,,,,,,,,200776.89999997616,200755.19999998808,,200776.5,,200789.974,,,
Thanks,html.Screen,1_5,2022-02-04T13:17:49.437Z,,,,,,,,,,,,,,,,,,,,,,,,,,,,,,,3781.2259999880916,,response,,,,,,,,,,,continue,click button,,,,,,,,,204573.89999997616,204571.19999998808,200739.946,200777.19999998808,200789.974,209894.456,,,
Headphone screening,flow.Sequence,1,2022-02-04T13:17:49.438Z,,,,,,,,,,,,,,,,,,,,,,,,,,,,,,,74382.21799998808,,completion,,,,,,,,,,,,,,,,,,,,,204574.5,204571.19999998808,130122.28,130143.30000001192,130188.982,209894.456,,,
Instructions,html.Page,2_0,2022-02-04T13:18:16.539Z,,,,,,,,,,,,,,,,,,,,,,,,,,,,,,,21780.443999976153,,form submission,,,,,,,,,,,,,,,,,,,,,231675.80000001192,231674.89999997616,209844.409,209891.19999998808,209894.456,231704.994,,,
Holding screen,html.Screen,2_1_0_0,2022-02-04T13:18:26.558Z,,,,,,,,,,,,,,,,,,,,,,,,,,,,,,,10054.872000000003,,timeout,,,,,,,,,,,,,,,,,,,,,241694.39999997616,241693.176,231654.952,231676.19999998808,231704.994,241759.866,,,
screen,html.Screen,2_1_0_1_0,2022-02-04T13:18:28.204Z,,,,,,,,,,,,,,,,,53,,,,,,,,,,,,,,1574.4340000119118,,response,,,,99,,,,,,,Space,keypress(Space),,,,,,,,When -- ----- -- ------ - ------- --- ----------<br>------------- ------ ------ ---- ---- ------- ----- -- ----<br>-------- ------- -- ---------- --- - --- ----- ----- ----<br>---- --- --- ----- --- ---- ---- ------- ----- ---- -------<br>--- --- -- ----- -- --- ---- -- --- ---- -- ------ ------<br>--- ----- -- ----,243340.5,243334.30000001192,241693.176,241695.39999997616,241759.866,243343.974,,0,When
screen,html.Screen,2_1_0_1_1,2022-02-04T13:18:28.639Z,,,,,,,,,,,,,,,,,53,,,,,,,,,,,,,,428.72599998809164,,response,,,,99,,,,,,,Space,keypress(Space),,,,,,,,---- it ----- -- ------ - ------- --- ----------<br>------------- ------ ------ ---- ---- ------- ----- -- ----<br>-------- ------- -- ---------- --- - --- ----- ----- ----<br>---- --- --- ----- --- ---- ---- ------- ----- ---- -------<br>--- --- -- ----- -- --- ---- -- --- ---- -- ------ ------<br>--- ----- -- ----,243775.39999997616,243772.69999998808,243327.312,243340.80000001192,243343.974,243777.515,,1,it
screen,html.Screen,2_1_0_1_2,2022-02-04T13:18:29.094Z,,,,,,,,,,,,,,,,,53,,,,,,,,,,,,,,451.48499999998603,,response,,,,99,,,,,,,Space,keypress(Space),,,,,,,,---- -- comes -- ------ - ------- --- ----------<br>------------- ------ ------ ---- ---- ------- ----- -- ----<br>-------- ------- -- ---------- --- - --- ----- ----- ----<br>---- --- --- ----- --- ---- ---- ------- ----- ---- -------<br>--- --- -- ----- -- --- ---- -- --- ---- -- ------ ------<br>--- ----- -- ----,244231,244229,243760.836,243775.69999998808,243777.515,244244.518,,2,comes
screen,html.Screen,2_1_0_1_3,2022-02-04T13:18:29.454Z,,,,,,,,,,,,,,,,,53,,,,,,,,,,,,,,344.28200001191,,response,,,,99,,,,,,,Space,keypress(Space),,,,,,,,---- -- ----- to ------ - ------- --- ----------<br>------------- ------ ------ ---- ---- ------- ----- -- ----<br>-------- ------- -- ---------- --- - --- ----- ----- ----<br>---- --- --- ----- --- ---- ---- ------- ----- ---- -------<br>--- --- -- ----- -- --- ---- -- --- ---- -- ------ ------<br>--- ----- -- ----,244590.30000001192,244588.80000001192,244227.754,244231.19999998808,244244.518,244594.577,,3,to
screen,html.Screen,2_1_0_1_4,2022-02-04T13:18:29.879Z,,,,,,,,,,,,,,,,,53,,,,,,,,,,,,,,418.8229999761679,,response,,,,99,,,,,,,Space,keypress(Space),,,,,,,,---- -- ----- -- having - ------- --- ----------<br>------------- ------ ------ ---- ---- ------- ----- -- ----<br>-------- ------- -- ---------- --- - --- ----- ----- ----<br>---- --- --- ----- --- ---- ---- ------- ----- ---- -------<br>--- --- -- ----- -- --- ---- -- --- ---- -- ------ ------<br>--- ----- -- ----,245016.19999998808,245013.39999997616,244577.893,244590.59999996424,244594.577,245028.109,,4,having
screen,html.Screen,2_1_0_1_5,2022-02-04T13:18:30.246Z,,,,,,,,,,,,,,,,,53,,,,,,,,,,,,,,353.09099998808233,,response,,,,99,,,,,,,Space,keypress(Space),,,,,,,,---- -- ----- -- ------ a ------- --- ----------<br>------------- ------ ------ ---- ---- ------- ----- -- ----<br>-------- ------- -- ---------- --- - --- ----- ----- ----<br>---- --- --- ----- --- ---- ---- ------- ----- ---- -------<br>--- --- -- ----- -- --- ---- -- --- ---- -- ------ ------<br>--- ----- -- ----,245383.39999997616,245381.19999998808,245011.791,245016.5,245028.109,245395.323,,5,a
screen,html.Screen,2_1_0_1_6,2022-02-04T13:18:30.831Z,,,,,,,,,,,,,,,,,53,,,,,,,,,,,,,,569.977000011917,,response,,,,99,,,,,,,Space,keypress(Space),,,,,,,,---- -- ----- -- ------ - lasting --- ----------<br>------------- ------ ------ ---- ---- ------- ----- -- ----<br>-------- ------- -- ---------- --- - --- ----- ----- ----<br>---- --- --- ----- --- ---- ---- ------- ----- ---- -------<br>--- --- -- ----- -- --- ---- -- --- ---- -- ------ ------<br>--- ----- -- ----,245968.19999998808,245965.30000001192,245378.327,245383.80000001192,245395.323,245978.586,,6,lasting
screen,html.Screen,2_1_0_1_7,2022-02-04T13:18:31.198Z,,,,,,,,,,,,,,,,,53,,,,,,,,,,,,,,354.2140000119107,,response,,,,99,,,,,,,Space,keypress(Space),,,,,,,,---- -- ----- -- ------ - ------- and ----------<br>------------- ------ ------ ---- ---- ------- ----- -- ----<br>-------- ------- -- ---------- --- - --- ----- ----- ----<br>---- --- --- ----- --- ---- ---- ------- ----- ---- -------<br>--- --- -- ----- -- --- ---- -- --- ---- -- ------ ------<br>--- ----- -- ----,246334.80000001192,246332.80000001192,245961.964,245969.19999998808,245978.586,246345.433,,7,and
screen,html.Screen,2_1_0_1_8,2022-02-04T13:18:31.729Z,,,,,,,,,,,,,,,,,53,,,,,,,,,,,,,,515.8670000119309,,response,,,,99,,,,,,,Space,keypress(Space),,,,,,,,---- -- ----- -- ------ - ------- --- fulfilling<br>------------- ------ ------ ---- ---- ------- ----- -- ----<br>-------- ------- -- ---------- --- - --- ----- ----- ----<br>---- --- --- ----- --- ---- ---- ------- ----- ---- -------<br>--- --- -- ----- -- --- ---- -- --- ---- -- ------ ------<br>--- ----- -- ----,246865.89999997616,246861.30000001192,246328.76,246335.30000001192,246345.433,246879.01,,8,fulfilling
screen,html.Screen,2_1_0_1_9,2022-02-04T13:18:32.471Z,,,,,,,,,,,,,,,,,53,,,,,,,,,,,,,,726.1899999880698,,response,,,,99,,,,,,,Space,keypress(Space),,,,,,,,"---- -- ----- -- ------ - ------- --- ----------<br>relationship, ------ ------ ---- ---- ------- ----- -- ----<br>-------- ------- -- ---------- --- - --- ----- ----- ----<br>---- --- --- ----- --- ---- ---- ------- ----- ---- -------<br>--- --- -- ----- -- --- ---- -- --- ---- -- ------ ------<br>--- ----- -- ----",247608,247605.19999998808,246862.358,246867,246879.01,247612.722,,9,"relationship,"
screen,html.Screen,2_1_0_1_10,2022-02-04T13:18:32.990Z,,,,,,,,,,,,,,,,,53,,,,,,,,,,,,,,512.7779999999912,,response,,,,99,,,,,,,Space,keypress(Space),,,,,,,,---- -- ----- -- ------ - ------- --- ----------<br>------------- common ------ ---- ---- ------- ----- -- ----<br>-------- ------- -- ---------- --- - --- ----- ----- ----<br>---- --- --- ----- --- ---- ---- ------- ----- ---- -------<br>--- --- -- ----- -- --- ---- -- --- ---- -- ------ ------<br>--- ----- -- ----,248127,248125.5,247596.054,247608.5,247612.722,248129.628,,10,common
screen,html.Screen,2_1_0_1_11,2022-02-04T13:18:33.391Z,,,,,,,,,,,,,,,,,53,,,,,,,,,,,,,,395.67200001192396,,response,,,,99,,,,,,,Space,keypress(Space),,,,,,,,---- -- ----- -- ------ - ------- --- ----------<br>------------- ------ wisdom ---- ---- ------- ----- -- ----<br>-------- ------- -- ---------- --- - --- ----- ----- ----<br>---- --- --- ----- --- ---- ---- ------- ----- ---- -------<br>--- --- -- ----- -- --- ---- -- --- ---- -- ------ ------<br>--- ----- -- ----,248528.19999998808,248525.30000001192,248112.96,248127.19999998808,248129.628,248546.553,,11,wisdom
screen,html.Screen,2_1_0_1_12,2022-02-04T13:18:33.846Z,,,,,,,,,,,,,,,,,53,,,,,,,,,,,,,,434.3469999761437,,response,,,,99,,,,,,,Space,keypress(Space),,,,,,,,---- -- ----- -- ------ - ------- --- ----------<br>------------- ------ ------ says ---- ------- ----- -- ----<br>-------- ------- -- ---------- --- - --- ----- ----- ----<br>---- --- --- ----- --- ---- ---- ------- ----- ---- -------<br>--- --- -- ----- -- --- ---- -- --- ---- -- ------ ------<br>--- ----- -- ----,248983.5,248980.89999997616,248529.841,248529.09999996424,248546.553,248996.718,,12,says
screen,html.Screen,2_1_0_1_13,2022-02-04T13:18:34.263Z,,,,,,,,,,,,,,,,,53,,,,,,,,,,,,,,400.7820000000065,,response,,,,99,,,,,,,Space,keypress(Space),,,,,,,,---- -- ----- -- ------ - ------- --- ----------<br>------------- ------ ------ ---- that ------- ----- -- ----<br>-------- ------- -- ---------- --- - --- ----- ----- ----<br>---- --- --- ----- --- ---- ---- ------- ----- ---- -------<br>--- --- -- ----- -- --- ---- -- --- ---- -- ------ ------<br>--- ----- -- ----,249400.30000001192,249397.5,248980.045,248983.80000001192,248996.718,249413.601,,13,that
screen,html.Screen,2_1_0_1_14,2022-02-04T13:18:34.686Z,,,,,,,,,,,,,,,,,53,,,,,,,,,,,,,,407.29899997616303,,response,,,,99,,,,,,,Space,keypress(Space),,,,,,,,---- -- ----- -- ------ - ------- --- ----------<br>------------- ------ ------ ---- ---- feeling ----- -- ----<br>-------- ------- -- ---------- --- - --- ----- ----- ----<br>---- --- --- ----- --- ---- ---- ------- ----- ---- -------<br>--- --- -- ----- -- --- ---- -- --- ---- -- ------ ------<br>--- ----- -- ----,249822.89999997616,249820.89999997616,249396.926,249401.30000001192,249413.601,249830.462,,14,feeling
screen,html.Screen,2_1_0_1_15,2022-02-04T13:18:35.119Z,,,,,,,,,,,,,,,,,53,,,,,,,,,,,,,,423.03800000000047,,response,,,,99,,,,,,,Space,keypress(Space),,,,,,,,---- -- ----- -- ------ - ------- --- ----------<br>------------- ------ ------ ---- ---- ------- close -- ----<br>-------- ------- -- ---------- --- - --- ----- ----- ----<br>---- --- --- ----- --- ---- ---- ------- ----- ---- -------<br>--- --- -- ----- -- --- ---- -- --- ---- -- ------ ------<br>--- ----- -- ----,250256.59999996424,250253.5,249813.781,249823.09999996424,249830.462,250264.016,,15,close
screen,html.Screen,2_1_0_1_16,2022-02-04T13:18:35.501Z,,,,,,,,,,,,,,,,,53,,,,,,,,,,,,,,372.8839999761549,,response,,,,99,,,,,,,Space,keypress(Space),,,,,,,,---- -- ----- -- ------ - ------- --- ----------<br>------------- ------ ------ ---- ---- ------- ----- to ----<br>-------- ------- -- ---------- --- - --- ----- ----- ----<br>---- --- --- ----- --- ---- ---- ------- ----- ---- -------<br>--- --- -- ----- -- --- ---- -- --- ---- -- ------ ------<br>--- ----- -- ----,250638.59999996424,250636.89999997616,250247.472,250257.19999998808,250264.016,250647.541,,16,to
screen,html.Screen,2_1_0_1_17,2022-02-04T13:18:35.877Z,,,,,,,,,,,,,,,,,53,,,,,,,,,,,,,,358.5589999642398,,response,,,,99,,,,,,,Space,keypress(Space),,,,,,,,---- -- ----- -- ------ - ------- --- ----------<br>------------- ------ ------ ---- ---- ------- ----- -- your<br>-------- ------- -- ---------- --- - --- ----- ----- ----<br>---- --- --- ----- --- ---- ---- ------- ----- ---- -------<br>--- --- -- ----- -- --- ---- -- --- ---- -- ------ ------<br>--- ----- -- ----,251013.80000001192,251006.09999996424,250630.851,250639.19999998808,250647.541,251031.061,,17,your
screen,html.Screen,2_1_0_1_18,2022-02-04T13:18:36.254Z,,,,,,,,,,,,,,,,,53,,,,,,,,,,,,,,357.93900000001304,,response,,,,99,,,,,,,Space,keypress(Space),,,,,,,,---- -- ----- -- ------ - ------- --- ----------<br>------------- ------ ------ ---- ---- ------- ----- -- ----<br>romantic ------- -- ---------- --- - --- ----- ----- ----<br>---- --- --- ----- --- ---- ---- ------- ----- ---- -------<br>--- --- -- ----- -- --- ---- -- --- ---- -- ------ ------<br>--- ----- -- ----,251390.89999997616,251389,251014.425,251015.30000001192,251031.061,251397.931,,18,romantic
screen,html.Screen,2_1_0_1_19,2022-02-04T13:18:36.646Z,,,,,,,,,,,,,,,,,53,,,,,,,,,,,,,,383.0689999999886,,response,,,,99,,,,,,,Space,keypress(Space),,,,,,,,---- -- ----- -- ------ - ------- --- ----------<br>------------- ------ ------ ---- ---- ------- ----- -- ----<br>-------- partner -- ---------- --- - --- ----- ----- ----<br>---- --- --- ----- --- ---- ---- ------- ----- ---- -------<br>--- --- -- ----- -- --- ---- -- --- ---- -- ------ ------<br>--- ----- -- ----,251783,251781,251381.308,251391.5,251397.931,251798.102,,19,partner
screen,html.Screen,2_1_0_1_20,2022-02-04T13:18:37.014Z,,,,,,,,,,,,,,,,,53,,,,,,,,,,,,,,351.1980000119074,,response,,,,99,,,,,,,Space,keypress(Space),,,,,,,,---- -- ----- -- ------ - ------- --- ----------<br>------------- ------ ------ ---- ---- ------- ----- -- ----<br>-------- ------- is ---------- --- - --- ----- ----- ----<br>---- --- --- ----- --- ---- ---- ------- ----- ---- -------<br>--- --- -- ----- -- --- ---- -- --- ---- -- ------ ------<br>--- ----- -- ----,252151.69999998808,252149.30000001192,251781.407,251783.30000001192,251798.102,252164.964,,20,is
screen,html.Screen,2_1_0_1_21,2022-02-04T13:18:37.439Z,,,,,,,,,,,,,,,,,53,,,,,,,,,,,,,,408.73599998807185,,response,,,,99,,,,,,,Space,keypress(Space),,,,,,,,---- -- ----- -- ------ - ------- --- ----------<br>------------- ------ ------ ---- ---- ------- ----- -- ----<br>-------- ------- -- paramount. --- - --- ----- ----- ----<br>---- --- --- ----- --- ---- ---- ------- ----- ---- -------<br>--- --- -- ----- -- --- ---- -- --- ---- -- ------ ------<br>--- ----- -- ----,252576,252573.69999998808,252148.251,252152,252164.964,252581.861,,21,paramount.
screen,html.Screen,2_1_0_1_22,2022-02-04T13:18:38.030Z,,,,,,,,,,,,,,,,,53,,,,,,,,,,,,,,583.2389999642328,,response,,,,99,,,,,,,Space,keypress(Space),,,,,,,,---- -- ----- -- ------ - ------- --- ----------<br>------------- ------ ------ ---- ---- ------- ----- -- ----<br>-------- ------- -- ---------- But - --- ----- ----- ----<br>---- --- --- ----- --- ---- ---- ------- ----- ---- -------<br>--- --- -- ----- -- --- ---- -- --- ---- -- ------ ------<br>--- ----- -- ----,253167.39999997616,253165.09999996424,252565.143,252576.30000001192,252581.861,253182.109,,22,But
screen,html.Screen,2_1_0_1_23,2022-02-04T13:18:38.463Z,,,,,,,,,,,,,,,,,53,,,,,,,,,,,,,,415.59099998808233,,response,,,,99,,,,,,,Space,keypress(Space),,,,,,,,---- -- ----- -- ------ - ------- --- ----------<br>------------- ------ ------ ---- ---- ------- ----- -- ----<br>-------- ------- -- ---------- --- a --- ----- ----- ----<br>---- --- --- ----- --- ---- ---- ------- ----- ---- -------<br>--- --- -- ----- -- --- ---- -- --- ---- -- ------ ------<br>--- ----- -- ----,253600.30000001192,253597.69999998808,253165.407,253167.59999996424,253182.109,253615.779,,23,a
screen,html.Screen,2_1_0_1_24,2022-02-04T13:18:38.961Z,,,,,,,,,,,,,,,,,53,,,,,,,,,,,,,,477.6209999761486,,response,,,,99,,,,,,,Space,keypress(Space),,,,,,,,---- -- ----- -- ------ - ------- --- ----------<br>------------- ------ ------ ---- ---- ------- ----- -- ----<br>-------- ------- -- ---------- --- - new ----- ----- ----<br>---- --- --- ----- --- ---- ---- ------- ----- ---- -------<br>--- --- -- ----- -- --- ---- -- --- ---- -- ------ ------<br>--- ----- -- ----,254098,254093.39999997616,253598.954,253600.69999998808,253615.779,254115.919,,24,new
screen,html.Screen,2_1_0_1_25,2022-02-04T13:18:39.568Z,,,,,,,,,,,,,,,,,53,,,,,,,,,,,,,,585.4809999761637,,response,,,,99,,,,,,,Space,keypress(Space),,,,,,,,---- -- ----- -- ------ - ------- --- ----------<br>------------- ------ ------ ---- ---- ------- ----- -- ----<br>-------- ------- -- ---------- --- - --- study ----- ----<br>---- --- --- ----- --- ---- ---- ------- ----- ---- -------<br>--- --- -- ----- -- --- ---- -- --- ---- -- ------ ------<br>--- ----- -- ----,254705,254701.39999997616,254099.222,254098.80000001192,254115.919,254716.175,,25,study
screen,html.Screen,2_1_0_1_26,2022-02-04T13:18:40.030Z,,,,,,,,,,,,,,,,,53,,,,,,,,,,,,,,449.0249999880907,,response,,,,99,,,,,,,Space,keypress(Space),,,,,,,,---- -- ----- -- ------ - ------- --- ----------<br>------------- ------ ------ ---- ---- ------- ----- -- ----<br>-------- ------- -- ---------- --- - --- ----- finds ----<br>---- --- --- ----- --- ---- ---- ------- ----- ---- -------<br>--- --- -- ----- -- --- ---- -- --- ---- -- ------ ------<br>--- ----- -- ----,255167.5,255165.19999998808,254699.492,254705.30000001192,254716.175,255183.079,,26,finds
screen,html.Screen,2_1_0_1_27,2022-02-04T13:18:40.393Z,,,,,,,,,,,,,,,,,53,,,,,,,,,,,,,,342.82099997616024,,response,,,,99,,,,,,,Space,keypress(Space),,,,,,,,---- -- ----- -- ------ - ------- --- ----------<br>------------- ------ ------ ---- ---- ------- ----- -- ----<br>-------- ------- -- ---------- --- - --- ----- ----- that<br>---- --- --- ----- --- ---- ---- ------- ----- ---- -------<br>--- --- -- ----- -- --- ---- -- --- ---- -- ------ ------<br>--- ----- -- ----,255529.89999997616,255525.89999997616,255166.384,255167.69999998808,255183.079,255533.253,,27,that
screen,html.Screen,2_1_0_1_28,2022-02-04T13:18:40.903Z,,,,,,,,,,,,,,,,,53,,,,,,,,,,,,,,503.9469999880821,,response,,,,99,,,,,,,Space,keypress(Space),,,,,,,,---- -- ----- -- ------ - ------- --- ----------<br>------------- ------ ------ ---- ---- ------- ----- -- ----<br>-------- ------- -- ---------- --- - --- ----- ----- ----<br>it's --- --- ----- --- ---- ---- ------- ----- ---- -------<br>--- --- -- ----- -- --- ---- -- --- ---- -- ------ ------<br>--- ----- -- ----,256039.69999998808,256037.19999998808,255516.589,255530.5,255533.253,256050.665,,28,it's
screen,html.Screen,2_1_0_1_29,2022-02-04T13:18:41.312Z,,,,,,,,,,,,,,,,,53,,,,,,,,,,,,,,395.1350000119128,,response,,,,99,,,,,,,Space,keypress(Space),,,,,,,,---- -- ----- -- ------ - ------- --- ----------<br>------------- ------ ------ ---- ---- ------- ----- -- ----<br>-------- ------- -- ---------- --- - --- ----- ----- ----<br>---- not --- ----- --- ---- ---- ------- ----- ---- -------<br>--- --- -- ----- -- --- ---- -- --- ---- -- ------ ------<br>--- ----- -- ----,256448.80000001192,256445.80000001192,256033.464,256040.19999998808,256050.665,256467.095,,29,not
screen,html.Screen,2_1_0_1_30,2022-02-04T13:18:41.686Z,,,,,,,,,,,,,,,,,53,,,,,,,,,,,,,,354.1049999880779,,response,,,,99,,,,,,,Space,keypress(Space),,,,,,,,---- -- ----- -- ------ - ------- --- ----------<br>------------- ------ ------ ---- ---- ------- ----- -- ----<br>-------- ------- -- ---------- --- - --- ----- ----- ----<br>---- --- how ----- --- ---- ---- ------- ----- ---- -------<br>--- --- -- ----- -- --- ---- -- --- ---- -- ------ ------<br>--- ----- -- ----,256823,256821.19999998808,256450.351,256449.39999997616,256467.095,256834.511,,30,how
screen,html.Screen,2_1_0_1_31,2022-02-04T13:18:42.086Z,,,,,,,,,,,,,,,,,53,,,,,,,,,,,,,,386.68899998808047,,response,,,,99,,,,,,,Space,keypress(Space),,,,,,,,---- -- ----- -- ------ - ------- --- ----------<br>------------- ------ ------ ---- ---- ------- ----- -- ----<br>-------- ------- -- ---------- --- - --- ----- ----- ----<br>---- --- --- close --- ---- ---- ------- ----- ---- -------<br>--- --- -- ----- -- --- ---- -- --- ---- -- ------ ------<br>--- ----- -- ----,257223.30000001192,257221.19999998808,256817.186,256823.39999997616,256834.511,257234.357,,31,close
screen,html.Screen,2_1_0_1_32,2022-02-04T13:18:42.446Z,,,,,,,,,,,,,,,,,53,,,,,,,,,,,,,,346.84299998809,,response,,,,99,,,,,,,Space,keypress(Space),,,,,,,,---- -- ----- -- ------ - ------- --- ----------<br>------------- ------ ------ ---- ---- ------- ----- -- ----<br>-------- ------- -- ---------- --- - --- ----- ----- ----<br>---- --- --- ----- you ---- ---- ------- ----- ---- -------<br>--- --- -- ----- -- --- ---- -- --- ---- -- ------ ------<br>--- ----- -- ----,257583.39999997616,257581.19999998808,257217.373,257223.80000001192,257234.357,257584.414,,32,you
screen,html.Screen,2_1_0_1_33,2022-02-04T13:18:42.871Z,,,,,,,,,,,,,,,,,53,,,,,,,,,,,,,,420.8860000119312,,response,,,,99,,,,,,,Space,keypress(Space),,,,,,,,---- -- ----- -- ------ - ------- --- ----------<br>------------- ------ ------ ---- ---- ------- ----- -- ----<br>-------- ------- -- ---------- --- - --- ----- ----- ----<br>---- --- --- ----- --- feel ---- ------- ----- ---- -------<br>--- --- -- ----- -- --- ---- -- --- ---- -- ------ ------<br>--- ----- -- ----,258008,258005.30000001192,257584.227,257583.69999998808,257584.414,258017.776,,33,feel
screen,html.Screen,2_1_0_1_34,2022-02-04T13:18:43.288Z,,,,,,,,,,,,,,,,,53,,,,,,,,,,,,,,403.82399996422464,,response,,,,99,,,,,,,Space,keypress(Space),,,,,,,,---- -- ----- -- ------ - ------- --- ----------<br>------------- ------ ------ ---- ---- ------- ----- -- ----<br>-------- ------- -- ---------- --- - --- ----- ----- ----<br>---- --- --- ----- --- ---- that ------- ----- ---- -------<br>--- --- -- ----- -- --- ---- -- --- ---- -- ------ ------<br>--- ----- -- ----,258425,258421.59999996424,258001.105,258008.30000001192,258017.776,258434.662,,34,that
screen,html.Screen,2_1_0_1_35,2022-02-04T13:18:43.744Z,,,,,,,,,,,,,,,,,53,,,,,,,,,,,,,,443.0379999880679,,response,,,,99,,,,,,,Space,keypress(Space),,,,,,,,---- -- ----- -- ------ - ------- --- ----------<br>------------- ------ ------ ---- ---- ------- ----- -- ----<br>-------- ------- -- ---------- --- - --- ----- ----- ----<br>---- --- --- ----- --- ---- ---- matters ----- ---- -------<br>--- --- -- ----- -- --- ---- -- --- ---- -- ------ ------<br>--- ----- -- ----,258880.89999997616,258877.69999998808,258418.081,258426,258434.662,258884.948,,35,matters
screen,html.Screen,2_1_0_1_36,2022-02-04T13:18:44.184Z,,,,,,,,,,,,,,,,,53,,,,,,,,,,,,,,432.4519999761542,,response,,,,99,,,,,,,Space,keypress(Space),,,,,,,,"---- -- ----- -- ------ - ------- --- ----------<br>------------- ------ ------ ---- ---- ------- ----- -- ----<br>-------- ------- -- ---------- --- - --- ----- ----- ----<br>---- --- --- ----- --- ---- ---- ------- most, ---- -------<br>--- --- -- ----- -- --- ---- -- --- ---- -- ------ ------<br>--- ----- -- ----",259321,259317.39999997616,258868.208,258881.59999996424,258884.948,259335.095,,36,"most,"
screen,html.Screen,2_1_0_1_37,2022-02-04T13:18:44.919Z,,,,,,,,,,,,,,,,,53,,,,,,,,,,,,,,718.4049999999988,,response,,,,99,,,,,,,Space,keypress(Space),,,,,,,,---- -- ----- -- ------ - ------- --- ----------<br>------------- ------ ------ ---- ---- ------- ----- -- ----<br>-------- ------- -- ---------- --- - --- ----- ----- ----<br>---- --- --- ----- --- ---- ---- ------- ----- it's -------<br>--- --- -- ----- -- --- ---- -- --- ---- -- ------ ------<br>--- ----- -- ----,260055.89999997616,260053.5,259318.403,259321.80000001192,259335.095,260068.941,,37,it's
screen,html.Screen,2_1_0_1_38,2022-02-04T13:18:45.303Z,,,,,,,,,,,,,,,,,53,,,,,,,,,,,,,,368.3590000119293,,response,,,,99,,,,,,,Space,keypress(Space),,,,,,,,---- -- ----- -- ------ - ------- --- ----------<br>------------- ------ ------ ---- ---- ------- ----- -- ----<br>-------- ------- -- ---------- --- - --- ----- ----- ----<br>---- --- --- ----- --- ---- ---- ------- ----- ---- whether<br>--- --- -- ----- -- --- ---- -- --- ---- -- ------ ------<br>--- ----- -- ----,260440,260437.30000001192,260052.082,260056.19999998808,260068.941,260452.412,,38,whether
screen,html.Screen,2_1_0_1_39,2022-02-04T13:18:45.663Z,,,,,,,,,,,,,,,,,53,,,,,,,,,,,,,,345.0879999999888,,response,,,,99,,,,,,,Space,keypress(Space),,,,,,,,---- -- ----- -- ------ - ------- --- ----------<br>------------- ------ ------ ---- ---- ------- ----- -- ----<br>-------- ------- -- ---------- --- - --- ----- ----- ----<br>---- --- --- ----- --- ---- ---- ------- ----- ---- -------<br>you --- -- ----- -- --- ---- -- --- ---- -- ------ ------<br>--- ----- -- ----,260800.19999998808,260797.5,260435.607,260440.30000001192,260452.412,260802.445,,39,you
screen,html.Screen,2_1_0_1_40,2022-02-04T13:18:46.006Z,,,,,,,,,,,,,,,,,53,,,,,,,,,,,,,,338.85500001191394,,response,,,,99,,,,,,,Space,keypress(Space),,,,,,,,---- -- ----- -- ------ - ------- --- ----------<br>------------- ------ ------ ---- ---- ------- ----- -- ----<br>-------- ------- -- ---------- --- - --- ----- ----- ----<br>---- --- --- ----- --- ---- ---- ------- ----- ---- -------<br>--- are -- ----- -- --- ---- -- --- ---- -- ------ ------<br>--- ----- -- ----,261143.59999996424,261141.30000001192,260785.768,260800.5,260802.445,261152.749,,40,are
screen,html.Screen,2_1_0_1_41,2022-02-04T13:18:46.401Z,,,,,,,,,,,,,,,,,53,,,,,,,,,,,,,,381.15099997614743,,response,,,,99,,,,,,,Space,keypress(Space),,,,,,,,---- -- ----- -- ------ - ------- --- ----------<br>------------- ------ ------ ---- ---- ------- ----- -- ----<br>-------- ------- -- ---------- --- - --- ----- ----- ----<br>---- --- --- ----- --- ---- ---- ------- ----- ---- -------<br>--- --- as ----- -- --- ---- -- --- ---- -- ------ ------<br>--- ----- -- ----,261537.80000001192,261533.89999997616,261135.943,261143.89999997616,261152.749,261553.542,,41,as
screen,html.Screen,2_1_0_1_42,2022-02-04T13:18:46.767Z,,,,,,,,,,,,,,,,,53,,,,,,,,,,,,,,347.8579999761714,,response,,,,99,,,,,,,Space,keypress(Space),,,,,,,,---- -- ----- -- ------ - ------- --- ----------<br>------------- ------ ------ ---- ---- ------- ----- -- ----<br>-------- ------- -- ---------- --- - --- ----- ----- ----<br>---- --- --- ----- --- ---- ---- ------- ----- ---- -------<br>--- --- -- close -- --- ---- -- --- ---- -- ------ ------<br>--- ----- -- ----,261904,261901.39999997616,261536.161,261539.30000001192,261553.542,261919.672,,42,close
screen,html.Screen,2_1_0_1_43,2022-02-04T13:18:47.168Z,,,,,,,,,,,,,,,,,53,,,,,,,,,,,,,,382.12800001192954,,response,,,,99,,,,,,,Space,keypress(Space),,,,,,,,---- -- ----- -- ------ - ------- --- ----------<br>------------- ------ ------ ---- ---- ------- ----- -- ----<br>-------- ------- -- ---------- --- - --- ----- ----- ----<br>---- --- --- ----- --- ---- ---- ------- ----- ---- -------<br>--- --- -- ----- as --- ---- -- --- ---- -- ------ ------<br>--- ----- -- ----,262305.59999996424,262301.8000000119,261903.011,261904.5,261919.672,262319.993,,43,as
screen,html.Screen,2_1_0_1_44,2022-02-04T13:18:47.575Z,,,,,,,,,,,,,,,,,53,,,,,,,,,,,,,,389.30700001190417,,response,,,,99,,,,,,,Space,keypress(Space),,,,,,,,---- -- ----- -- ------ - ------- --- ----------<br>------------- ------ ------ ---- ---- ------- ----- -- ----<br>-------- ------- -- ---------- --- - --- ----- ----- ----<br>---- --- --- ----- --- ---- ---- ------- ----- ---- -------<br>--- --- -- ----- -- you ---- -- --- ---- -- ------ ------<br>--- ----- -- ----,262712.3000000119,262709.3000000119,262303.196,262306.1999999881,262319.993,262720.052,,44,you
screen,html.Screen,2_1_0_1_45,2022-02-04T13:18:47.975Z,,,,,,,,,,,,,,,,,53,,,,,,,,,,,,,,389.44799999997485,,response,,,,99,,,,,,,Space,keypress(Space),,,,,,,,---- -- ----- -- ------ - ------- --- ----------<br>------------- ------ ------ ---- ---- ------- ----- -- ----<br>-------- ------- -- ---------- --- - --- ----- ----- ----<br>---- --- --- ----- --- ---- ---- ------- ----- ---- -------<br>--- --- -- ----- -- --- want -- --- ---- -- ------ ------<br>--- ----- -- ----,263111.89999997616,263109.5,262703.372,262712.5,262720.052,263120.251,,45,want
screen,html.Screen,2_1_0_1_46,2022-02-04T13:18:48.359Z,,,,,,,,,,,,,,,,,53,,,,,,,,,,,,,,373.2490000000107,,response,,,,99,,,,,,,Space,keypress(Space),,,,,,,,---- -- ----- -- ------ - ------- --- ----------<br>------------- ------ ------ ---- ---- ------- ----- -- ----<br>-------- ------- -- ---------- --- - --- ----- ----- ----<br>---- --- --- ----- --- ---- ---- ------- ----- ---- -------<br>--- --- -- ----- -- --- ---- to --- ---- -- ------ ------<br>--- ----- -- ----,263496.39999997616,263493.5,263103.564,263112.39999997616,263120.251,263503.768,,46,to
screen,html.Screen,2_1_0_1_47,2022-02-04T13:18:48.784Z,,,,,,,,,,,,,,,,,53,,,,,,,,,,,,,,414.43199998809723,,response,,,,99,,,,,,,Space,keypress(Space),,,,,,,,"---- -- ----- -- ------ - ------- --- ----------<br>------------- ------ ------ ---- ---- ------- ----- -- ----<br>-------- ------- -- ---------- --- - --- ----- ----- ----<br>---- --- --- ----- --- ---- ---- ------- ----- ---- -------<br>--- --- -- ----- -- --- ---- -- be, ---- -- ------ ------<br>--- ----- -- ----",263920.8000000119,263918.1999999881,263487.209,263496.6999999881,263503.768,263937.349,,47,"be,"
screen,html.Screen,2_1_0_1_48,2022-02-04T13:18:49.446Z,,,,,,,,,,,,,,,,,53,,,,,,,,,,,,,,644.0509999761707,,response,,,,99,,,,,,,Space,keypress(Space),,,,,,,,---- -- ----- -- ------ - ------- --- ----------<br>------------- ------ ------ ---- ---- ------- ----- -- ----<br>-------- ------- -- ---------- --- - --- ----- ----- ----<br>---- --- --- ----- --- ---- ---- ------- ----- ---- -------<br>--- --- -- ----- -- --- ---- -- --- even -- ------ ------<br>--- ----- -- ----,264583.39999997616,264581.39999997616,263920.639,263921.1999999881,263937.349,264587.658,,48,even
screen,html.Screen,2_1_0_1_49,2022-02-04T13:18:49.839Z,,,,,,,,,,,,,,,,,53,,,,,,,,,,,,,,386.04199998808326,,response,,,,99,,,,,,,Space,keypress(Space),,,,,,,,---- -- ----- -- ------ - ------- --- ----------<br>------------- ------ ------ ---- ---- ------- ----- -- ----<br>-------- ------- -- ---------- --- - --- ----- ----- ----<br>---- --- --- ----- --- ---- ---- ------- ----- ---- -------<br>--- --- -- ----- -- --- ---- -- --- ---- if ------ ------<br>--- ----- -- ----,264976.3000000119,264973.6999999881,264570.959,264583.5,264587.658,264988.112,,49,if
screen,html.Screen,2_1_0_1_50,2022-02-04T13:18:50.287Z,,,,,,,,,,,,,,,,,53,,,,,,,,,,,,,,433.2879999761353,,response,,,,99,,,,,,,Space,keypress(Space),,,,,,,,---- -- ----- -- ------ - ------- --- ----------<br>------------- ------ ------ ---- ---- ------- ----- -- ----<br>-------- ------- -- ---------- --- - --- ----- ----- ----<br>---- --- --- ----- --- ---- ---- ------- ----- ---- -------<br>--- --- -- ----- -- --- ---- -- --- ---- -- that's ------<br>--- ----- -- ----,265424.09999996424,265421.39999997616,264971.139,264976.5,264988.112,265438.051,,50,that's
screen,html.Screen,2_1_0_1_51,2022-02-04T13:18:50.719Z,,,,,,,,,,,,,,,,,53,,,,,,,,,,,,,,415.44900000002235,,response,,,,99,,,,,,,Space,keypress(Space),,,,,,,,---- -- ----- -- ------ - ------- --- ----------<br>------------- ------ ------ ---- ---- ------- ----- -- ----<br>-------- ------- -- ---------- --- - --- ----- ----- ----<br>---- --- --- ----- --- ---- ---- ------- ----- ---- -------<br>--- --- -- ----- -- --- ---- -- --- ---- -- ------ really<br>--- ----- -- ----,265856.5,265853.5,265421.375,265424.3000000119,265438.051,265871.61,,51,really
screen,html.Screen,2_1_0_1_52,2022-02-04T13:18:51.079Z,,,,,,,,,,,,,,,,,53,,,,,,,,,,,,,,341.89000000001397,,response,,,,99,,,,,,,Space,keypress(Space),,,,,,,,---- -- ----- -- ------ - ------- --- ----------<br>------------- ------ ------ ---- ---- ------- ----- -- ----<br>-------- ------- -- ---------- --- - --- ----- ----- ----<br>---- --- --- ----- --- ---- ---- ------- ----- ---- -------<br>--- --- -- ----- -- --- ---- -- --- ---- -- ------ ------<br>not ----- -- ----,266215.8000000119,266213.5,265854.914,265856.8000000119,265871.61,266221.753,,52,not
screen,html.Screen,2_1_0_1_53,2022-02-04T13:18:51.489Z,,,,,,,,,,,,,,,,,53,,,,,,,,,,,,,,400.64699997613207,,response,,,,99,,,,,,,Space,keypress(Space),,,,,,,,---- -- ----- -- ------ - ------- --- ----------<br>------------- ------ ------ ---- ---- ------- ----- -- ----<br>-------- ------- -- ---------- --- - --- ----- ----- ----<br>---- --- --- ----- --- ---- ---- ------- ----- ---- -------<br>--- --- -- ----- -- --- ---- -- --- ---- -- ------ ------<br>--- close -- ----,266626.5,266622.39999997616,266205.169,266216.09999996424,266221.753,266638.631,,53,close
screen,html.Screen,2_1_0_1_54,2022-02-04T13:18:51.912Z,,,,,,,,,,,,,,,,,53,,,,,,,,,,,,,,407.2689999761642,,response,,,,99,,,,,,,Space,keypress(Space),,,,,,,,---- -- ----- -- ------ - ------- --- ----------<br>------------- ------ ------ ---- ---- ------- ----- -- ----<br>-------- ------- -- ---------- --- - --- ----- ----- ----<br>---- --- --- ----- --- ---- ---- ------- ----- ---- -------<br>--- --- -- ----- -- --- ---- -- --- ---- -- ------ ------<br>--- ----- at ----,267049.59999996424,267045.89999997616,266621.967,266626.89999997616,266638.631,267055.538,,54,at
screen,html.Screen,2_1_0_1_55,2022-02-04T13:18:52.558Z,,,,,,,,,,,,,,,,,53,,,,,,,,,,,,,,638.0619999642367,,response,,,,99,,,,,,,Space,keypress(Space),,,,,,,,---- -- ----- -- ------ - ------- --- ----------<br>------------- ------ ------ ---- ---- ------- ----- -- ----<br>-------- ------- -- ---------- --- - --- ----- ----- ----<br>---- --- --- ----- --- ---- ---- ------- ----- ---- -------<br>--- --- -- ----- -- --- ---- -- --- ---- -- ------ ------<br>--- ----- -- all.,267695.09999996424,267693.59999996424,267038.899,267050,267055.538,267739.158,,55,all.
Item 99,flow.Loop,2_1_0_1,2022-02-04T13:18:52.559Z,,,,,,,,,,,,,,,,,,,,,,,,,,,,,,,25933.733999964228,,completion,,,,,D,,,,,,,,,,,silence,,,,,267696,267693.59999996424,241693.176,241695.09999996424,241759.866,267739.158,,,
Question 1,html.Screen,2_1_0_2,2022-02-04T13:18:56.560Z,,,,,,,,,,,,,,,,,,,,,,,,,,,,true,FALSE,,3954.842000000004,,response,,,,99,D,,,,,,FALSE,click #choice-2,,,,silence,,,,,271697.09999996424,271694,267689.129,267696.3000000119,267739.158,271724.432,,,
Question 2,html.Screen,2_1_0_3,2022-02-04T13:19:01.344Z,,,,,,,,,,,,,,,,,,,,,,,,,,,,true,TRUE,,4753.467999976187,,response,,,,99,D,,,,,,TRUE,click #choice-1,,,,silence,,,,,276480.89999997616,276477.89999997616,271691.084,271698.09999996424,271724.432,276510.098,,,
Item 99,flow.Sequence,2_1_0,2022-02-04T13:19:01.345Z,,,,,,,,,,,,,,,,,,,,,,,,,,,,,,,44772.90599997615,,completion,,,,,,,,,,,,,,,,,,,,,276482.59999996424,276477.89999997616,231654.952,231676.09999996424,231704.994,276510.098,,,
Holding screen,html.Screen,2_1_1_0,2022-02-04T13:19:11.363Z,,,,,,,,,,,,,,,,,,,,,,,,,,,,,,,10004.856000000029,,timeout,,,,,,,,,,,,,,,,,,,,,286500.59999996424,286498.269,276476.825,276483.6999999881,276510.098,286514.954,,,
screen,html.Screen,2_1_1_1_0,2022-02-04T13:19:12.113Z,,,,,,,,,,,,,,,,,54,,,,,,,,,,,,,,732.6459999642102,,response,,,,100,,,,,,,Space,keypress(Space),,,,,,,,At --- ---- --- ------ ----- ------- ---- -- --- ------- --<br>------- ---------- ------ -- ----- -- ----- -- ---- ------<br>--- ----- --- --- ------ -------- ----- --- ------ ----- --<br>----- ----- ---------- --- --- ------ ------ ---- -- ------<br>------- --- ------ ----- --- ---- ------- -- ---- --- --<br>------- ------,287250.5,287247.59999996424,286498.269,286501.5,286514.954,287265.307,,0,At
screen,html.Screen,2_1_1_1_1,2022-02-04T13:19:12.535Z,,,,,,,,,,,,,,,,,54,,,,,,,,,,,,,,405.1930000000284,,response,,,,100,,,,,,,Space,keypress(Space),,,,,,,,-- the ---- --- ------ ----- ------- ---- -- --- ------- --<br>------- ---------- ------ -- ----- -- ----- -- ---- ------<br>--- ----- --- --- ------ -------- ----- --- ------ ----- --<br>----- ----- ---------- --- --- ------ ------ ---- -- ------<br>------- --- ------ ----- --- ---- ------- -- ---- --- --<br>------- ------,287671.89999997616,287670.5,287248.653,287251.1999999881,287265.307,287682.482,,1,the
screen,html.Screen,2_1_1_1_2,2022-02-04T13:19:12.926Z,,,,,,,,,,,,,,,,,54,,,,,,,,,,,,,,379.61799996421905,,response,,,,100,,,,,,,Space,keypress(Space),,,,,,,,-- --- time --- ------ ----- ------- ---- -- --- ------- --<br>------- ---------- ------ -- ----- -- ----- -- ---- ------<br>--- ----- --- --- ------ -------- ----- --- ------ ----- --<br>----- ----- ---------- --- --- ------ ------ ---- -- ------<br>------- --- ------ ----- --- ---- ------- -- ---- --- --<br>------- ------,288063.59999996424,288062.09999996424,287665.503,287672.3000000119,287682.482,288065.698,,2,time
screen,html.Screen,2_1_1_1_3,2022-02-04T13:19:13.376Z,,,,,,,,,,,,,,,,,54,,,,,,,,,,,,,,444.80200000002515,,response,,,,100,,,,,,,Space,keypress(Space),,,,,,,,-- --- ---- the ------ ----- ------- ---- -- --- ------- --<br>------- ---------- ------ -- ----- -- ----- -- ---- ------<br>--- ----- --- --- ------ -------- ----- --- ------ ----- --<br>----- ----- ---------- --- --- ------ ------ ---- -- ------<br>------- --- ------ ----- --- ---- ------- -- ---- --- --<br>------- ------,288512.8000000119,288510.5,288049.033,288063.8000000119,288065.698,288515.942,,3,the
screen,html.Screen,2_1_1_1_4,2022-02-04T13:19:13.833Z,,,,,,,,,,,,,,,,,54,,,,,,,,,,,,,,451.5580000000191,,response,,,,100,,,,,,,Space,keypress(Space),,,,,,,,-- --- ---- --- French ----- ------- ---- -- --- ------- --<br>------- ---------- ------ -- ----- -- ----- -- ---- ------<br>--- ----- --- --- ------ -------- ----- --- ------ ----- --<br>----- ----- ---------- --- --- ------ ------ ---- -- ------<br>------- --- ------ ----- --- ---- ------- -- ---- --- --<br>------- ------,288970.1999999881,288967.5,288499.329,288513.1999999881,288515.942,288983.118,,4,French
screen,html.Screen,2_1_1_1_5,2022-02-04T13:19:14.239Z,,,,,,,,,,,,,,,,,54,,,,,,,,,,,,,,391.38199999998324,,response,,,,100,,,,,,,Space,keypress(Space),,,,,,,,-- --- ---- --- ------ crown ------- ---- -- --- ------- --<br>------- ---------- ------ -- ----- -- ----- -- ---- ------<br>--- ----- --- --- ------ -------- ----- --- ------ ----- --<br>----- ----- ---------- --- --- ------ ------ ---- -- ------<br>------- --- ------ ----- --- ---- ------- -- ---- --- --<br>------- ------,289376.3000000119,289374.5,288967.165,288970.8000000119,288983.118,289383.027,,5,crown
screen,html.Screen,2_1_1_1_6,2022-02-04T13:19:14.728Z,,,,,,,,,,,,,,,,,54,,,,,,,,,,,,,,481.07299996423535,,response,,,,100,,,,,,,Space,keypress(Space),,,,,,,,-- --- ---- --- ------ ----- secured ---- -- --- ------- --<br>------- ---------- ------ -- ----- -- ----- -- ---- ------<br>--- ----- --- --- ------ -------- ----- --- ------ ----- --<br>----- ----- ---------- --- --- ------ ------ ---- -- ------<br>------- --- ------ ----- --- ---- ------- -- ---- --- --<br>------- ------,289865.59999996424,289864.09999996424,289366.336,289376.59999996424,289383.027,289883.27,,6,secured
screen,html.Screen,2_1_1_1_7,2022-02-04T13:19:15.103Z,,,,,,,,,,,,,,,,,54,,,,,,,,,,,,,,355.0300000119023,,response,,,,100,,,,,,,Space,keypress(Space),,,,,,,,-- --- ---- --- ------ ----- ------- much -- --- ------- --<br>------- ---------- ------ -- ----- -- ----- -- ---- ------<br>--- ----- --- --- ------ -------- ----- --- ------ ----- --<br>----- ----- ---------- --- --- ------ ------ ---- -- ------<br>------- --- ------ ----- --- ---- ------- -- ---- --- --<br>------- ------,290240,290238.3000000119,289866.578,289866.09999996424,289883.27,290250.312,,7,much
screen,html.Screen,2_1_1_1_8,2022-02-04T13:19:15.536Z,,,,,,,,,,,,,,,,,54,,,,,,,,,,,,,,420.5879999761819,,response,,,,100,,,,,,,Space,keypress(Space),,,,,,,,-- --- ---- --- ------ ----- ------- ---- of --- ------- --<br>------- ---------- ------ -- ----- -- ----- -- ---- ------<br>--- ----- --- --- ------ -------- ----- --- ------ ----- --<br>----- ----- ---------- --- --- ------ ------ ---- -- ------<br>------- --- ------ ----- --- ---- ------- -- ---- --- --<br>------- ------,290673.39999997616,290670.89999997616,290233.412,290240.6999999881,290250.312,290683.654,,8,of
screen,html.Screen,2_1_1_1_9,2022-02-04T13:19:15.927Z,,,,,,,,,,,,,,,,,54,,,,,,,,,,,,,,378.6460000119405,,response,,,,100,,,,,,,Space,keypress(Space),,,,,,,,-- --- ---- --- ------ ----- ------- ---- -- its ------- --<br>------- ---------- ------ -- ----- -- ----- -- ---- ------<br>--- ----- --- --- ------ -------- ----- --- ------ ----- --<br>----- ----- ---------- --- --- ------ ------ ---- -- ------<br>------- --- ------ ----- --- ---- ------- -- ---- --- --<br>------- ------,291063.89999997616,291062.3000000119,290667.107,290673.89999997616,290683.654,291067.155,,9,its
screen,html.Screen,2_1_1_1_10,2022-02-04T13:19:16.271Z,,,,,,,,,,,,,,,,,54,,,,,,,,,,,,,,339.2449999761302,,response,,,,100,,,,,,,Space,keypress(Space),,,,,,,,-- --- ---- --- ------ ----- ------- ---- -- --- revenue --<br>------- ---------- ------ -- ----- -- ----- -- ---- ------<br>--- ----- --- --- ------ -------- ----- --- ------ ----- --<br>----- ----- ---------- --- --- ------ ------ ---- -- ------<br>------- --- ------ ----- --- ---- ------- -- ---- --- --<br>------- ------,291408,291406.39999997616,291050.476,291064.09999996424,291067.155,291417.73,,10,revenue
screen,html.Screen,2_1_1_1_11,2022-02-04T13:19:16.672Z,,,,,,,,,,,,,,,,,54,,,,,,,,,,,,,,388.9699999880977,,response,,,,100,,,,,,,Space,keypress(Space),,,,,,,,-- --- ---- --- ------ ----- ------- ---- -- --- ------- by<br>------- ---------- ------ -- ----- -- ----- -- ---- ------<br>--- ----- --- --- ------ -------- ----- --- ------ ----- --<br>----- ----- ---------- --- --- ------ ------ ---- -- ------<br>------- --- ------ ----- --- ---- ------- -- ---- --- --<br>------- ------,291809.3000000119,291806.6999999881,291400.663,291408.3000000119,291417.73,291817.547,,11,by
screen,html.Screen,2_1_1_1_12,2022-02-04T13:19:17.207Z,,,,,,,,,,,,,,,,,54,,,,,,,,,,,,,,524.7530000119004,,response,,,,100,,,,,,,Space,keypress(Space),,,,,,,,-- --- ---- --- ------ ----- ------- ---- -- --- ------- --<br>issuing ---------- ------ -- ----- -- ----- -- ---- ------<br>--- ----- --- --- ------ -------- ----- --- ------ ----- --<br>----- ----- ---------- --- --- ------ ------ ---- -- ------<br>------- --- ------ ----- --- ---- ------- -- ---- --- --<br>------- ------,292344.5,292342.3000000119,291800.853,291809.89999997616,291817.547,292351.109,,12,issuing
screen,html.Screen,2_1_1_1_13,2022-02-04T13:19:17.729Z,,,,,,,,,,,,,,,,,54,,,,,,,,,,,,,,512.7909999761614,,response,,,,100,,,,,,,Space,keypress(Space),,,,,,,,-- --- ---- --- ------ ----- ------- ---- -- --- ------- --<br>------- government ------ -- ----- -- ----- -- ---- ------<br>--- ----- --- --- ------ -------- ----- --- ------ ----- --<br>----- ----- ---------- --- --- ------ ------ ---- -- ------<br>------- --- ------ ----- --- ---- ------- -- ---- --- --<br>------- ------,292866.5,292863.89999997616,292334.44,292344.8000000119,292351.109,292884.764,,13,government
screen,html.Screen,2_1_1_1_14,2022-02-04T13:19:18.551Z,,,,,,,,,,,,,,,,,54,,,,,,,,,,,,,,801.6359999761335,,response,,,,100,,,,,,,Space,keypress(Space),,,,,,,,-- --- ---- --- ------ ----- ------- ---- -- --- ------- --<br>------- ---------- bonds. -- ----- -- ----- -- ---- ------<br>--- ----- --- --- ------ -------- ----- --- ------ ----- --<br>----- ----- ---------- --- --- ------ ------ ---- -- ------<br>------- --- ------ ----- --- ---- ------- -- ---- --- --<br>------- ------,293688.39999997616,293686.39999997616,292868.043,292867,292884.764,293701.787,,14,bonds.
screen,html.Screen,2_1_1_1_15,2022-02-04T13:19:19.328Z,,,,,,,,,,,,,,,,,54,,,,,,,,,,,,,,761.0130000119098,,response,,,,100,,,,,,,Space,keypress(Space),,,,,,,,-- --- ---- --- ------ ----- ------- ---- -- --- ------- --<br>------- ---------- ------ In ----- -- ----- -- ---- ------<br>--- ----- --- --- ------ -------- ----- --- ------ ----- --<br>----- ----- ---------- --- --- ------ ------ ---- -- ------<br>------- --- ------ ----- --- ---- ------- -- ---- --- --<br>------- ------,294465.6999999881,294462.8000000119,293685.088,293688.59999996424,293701.787,294468.826,,15,In
screen,html.Screen,2_1_1_1_16,2022-02-04T13:19:20.473Z,,,,,,,,,,,,,,,,,54,,,,,,,,,,,,,,1137.97400001192,,response,,,,100,,,,,,,Space,keypress(Space),,,,,,,,"-- --- ---- --- ------ ----- ------- ---- -- --- ------- --<br>------- ---------- ------ -- 1727, -- ----- -- ---- ------<br>--- ----- --- --- ------ -------- ----- --- ------ ----- --<br>----- ----- ---------- --- --- ------ ------ ---- -- ------<br>------- --- ------ ----- --- ---- ------- -- ---- --- --<br>------- ------",295610.3000000119,295606.8000000119,294452.168,294466.1999999881,294468.826,295619.39,,16,"1727,"
screen,html.Screen,2_1_1_1_17,2022-02-04T13:19:20.863Z,,,,,,,,,,,,,,,,,54,,,,,,,,,,,,,,379.10999999998603,,response,,,,100,,,,,,,Space,keypress(Space),,,,,,,,-- --- ---- --- ------ ----- ------- ---- -- --- ------- --<br>------- ---------- ------ -- ----- in ----- -- ---- ------<br>--- ----- --- --- ------ -------- ----- --- ------ ----- --<br>----- ----- ---------- --- --- ------ ------ ---- -- ------<br>------- --- ------ ----- --- ---- ------- -- ---- --- --<br>------- ------,296000.6999999881,295998.5,295602.798,295611,295619.39,296002.997,,17,in
screen,html.Screen,2_1_1_1_18,2022-02-04T13:19:21.273Z,,,,,,,,,,,,,,,,,54,,,,,,,,,,,,,,403.9029999761842,,response,,,,100,,,,,,,Space,keypress(Space),,,,,,,,-- --- ---- --- ------ ----- ------- ---- -- --- ------- --<br>------- ---------- ------ -- ----- -- order -- ---- ------<br>--- ----- --- --- ------ -------- ----- --- ------ ----- --<br>----- ----- ---------- --- --- ------ ------ ---- -- ------<br>------- --- ------ ----- --- ---- ------- -- ---- --- --<br>------- ------,296410.1999999881,296406.89999997616,295986.284,296001.3000000119,296002.997,296419.778,,18,order
screen,html.Screen,2_1_1_1_19,2022-02-04T13:19:21.960Z,,,,,,,,,,,,,,,,,54,,,,,,,,,,,,,,675.3219999642461,,response,,,,100,,,,,,,Space,keypress(Space),,,,,,,,-- --- ---- --- ------ ----- ------- ---- -- --- ------- --<br>------- ---------- ------ -- ----- -- ----- to ---- ------<br>--- ----- --- --- ------ -------- ----- --- ------ ----- --<br>----- ----- ---------- --- --- ------ ------ ---- -- ------<br>------- --- ------ ----- --- ---- ------- -- ---- --- --<br>------- ------,297097.5,297095.09999996424,296403.076,296410.89999997616,296419.778,297103.435,,19,to
screen,html.Screen,2_1_1_1_20,2022-02-04T13:19:22.394Z,,,,,,,,,,,,,,,,,54,,,,,,,,,,,,,,424.5650000000023,,response,,,,100,,,,,,,Space,keypress(Space),,,,,,,,-- --- ---- --- ------ ----- ------- ---- -- --- ------- --<br>------- ---------- ------ -- ----- -- ----- -- save ------<br>--- ----- --- --- ------ -------- ----- --- ------ ----- --<br>----- ----- ---------- --- --- ------ ------ ---- -- ------<br>------- --- ------ ----- --- ---- ------- -- ---- --- --<br>------- ------,297531.59999996424,297528,297086.766,297098.09999996424,297103.435,297536.977,,20,save
screen,html.Screen,2_1_1_1_21,2022-02-04T13:19:22.809Z,,,,,,,,,,,,,,,,,54,,,,,,,,,,,,,,405.8230000119074,,response,,,,100,,,,,,,Space,keypress(Space),,,,,,,,"-- --- ---- --- ------ ----- ------- ---- -- --- ------- --<br>------- ---------- ------ -- ----- -- ----- -- ---- money,<br>--- ----- --- --- ------ -------- ----- --- ------ ----- --<br>----- ----- ---------- --- --- ------ ------ ---- -- ------<br>------- --- ------ ----- --- ---- ------- -- ---- --- --<br>------- ------",297946.6999999881,297942.8000000119,297520.313,297532.09999996424,297536.977,297953.864,,21,"money,"
screen,html.Screen,2_1_1_1_22,2022-02-04T13:19:23.226Z,,,,,,,,,,,,,,,,,54,,,,,,,,,,,,,,405.2359999642358,,response,,,,100,,,,,,,Space,keypress(Space),,,,,,,,-- --- ---- --- ------ ----- ------- ---- -- --- ------- --<br>------- ---------- ------ -- ----- -- ----- -- ---- ------<br>the ----- --- --- ------ -------- ----- --- ------ ----- --<br>----- ----- ---------- --- --- ------ ------ ---- -- ------<br>------- --- ------ ----- --- ---- ------- -- ---- --- --<br>------- ------,298362.89999997616,298359.09999996424,297937.175,297947.39999997616,297953.864,298370.761,,22,the
screen,html.Screen,2_1_1_1_23,2022-02-04T13:19:23.906Z,,,,,,,,,,,,,,,,,54,,,,,,,,,,,,,,668.5390000119223,,response,,,,100,,,,,,,Space,keypress(Space),,,,,,,,-- --- ---- --- ------ ----- ------- ---- -- --- ------- --<br>------- ---------- ------ -- ----- -- ----- -- ---- ------<br>--- state --- --- ------ -------- ----- --- ------ ----- --<br>----- ----- ---------- --- --- ------ ------ ---- -- ------<br>------- --- ------ ----- --- ---- ------- -- ---- --- --<br>------- ------,299043.5,299039.3000000119,298354.042,298363.1999999881,298370.761,299054.388,,23,state
screen,html.Screen,2_1_1_1_24,2022-02-04T13:19:24.583Z,,,,,,,,,,,,,,,,,54,,,,,,,,,,,,,,664.21199996426,,response,,,,100,,,,,,,Space,keypress(Space),,,,,,,,-- --- ---- --- ------ ----- ------- ---- -- --- ------- --<br>------- ---------- ------ -- ----- -- ----- -- ---- ------<br>--- ----- cut --- ------ -------- ----- --- ------ ----- --<br>----- ----- ---------- --- --- ------ ------ ---- -- ------<br>------- --- ------ ----- --- ---- ------- -- ---- --- --<br>------- ------,299720.39999997616,299718.59999996424,299037.715,299043.89999997616,299054.388,299738.064,,24,cut
screen,html.Screen,2_1_1_1_25,2022-02-04T13:19:24.984Z,,,,,,,,,,,,,,,,,54,,,,,,,,,,,,,,380.5359999642242,,response,,,,100,,,,,,,Space,keypress(Space),,,,,,,,-- --- ---- --- ------ ----- ------- ---- -- --- ------- --<br>------- ---------- ------ -- ----- -- ----- -- ---- ------<br>--- ----- --- the ------ -------- ----- --- ------ ----- --<br>----- ----- ---------- --- --- ------ ------ ---- -- ------<br>------- --- ------ ----- --- ---- ------- -- ---- --- --<br>------- ------,300121.39999997616,300118.59999996424,299721.464,299720.89999997616,299738.064,300138.25,,25,the
screen,html.Screen,2_1_1_1_26,2022-02-04T13:19:25.352Z,,,,,,,,,,,,,,,,,54,,,,,,,,,,,,,,348.44999998807907,,response,,,,100,,,,,,,Space,keypress(Space),,,,,,,,-- --- ---- --- ------ ----- ------- ---- -- --- ------- --<br>------- ---------- ------ -- ----- -- ----- -- ---- ------<br>--- ----- --- --- bonds' -------- ----- --- ------ ----- --<br>----- ----- ---------- --- --- ------ ------ ---- -- ------<br>------- --- ------ ----- --- ---- ------- -- ---- --- --<br>------- ------,300489.1999999881,300486.6999999881,300121.555,300122.09999996424,300138.25,300505.095,,26,bonds'
screen,html.Screen,2_1_1_1_27,2022-02-04T13:19:25.767Z,,,,,,,,,,,,,,,,,54,,,,,,,,,,,,,,397.50499996426515,,response,,,,100,,,,,,,Space,keypress(Space),,,,,,,,-- --- ---- --- ------ ----- ------- ---- -- --- ------- --<br>------- ---------- ------ -- ----- -- ----- -- ---- ------<br>--- ----- --- --- ------ interest ----- --- ------ ----- --<br>----- ----- ---------- --- --- ------ ------ ---- -- ------<br>------- --- ------ ----- --- ---- ------- -- ---- --- --<br>------- ------,300904.6999999881,300902.59999996424,300488.409,300489.59999996424,300505.095,300921.974,,27,interest
screen,html.Screen,2_1_1_1_28,2022-02-04T13:19:26.193Z,,,,,,,,,,,,,,,,,54,,,,,,,,,,,,,,405.22599998809164,,response,,,,100,,,,,,,Space,keypress(Space),,,,,,,,-- --- ---- --- ------ ----- ------- ---- -- --- ------- --<br>------- ---------- ------ -- ----- -- ----- -- ---- ------<br>--- ----- --- --- ------ -------- rate. --- ------ ----- --<br>----- ----- ---------- --- --- ------ ------ ---- -- ------<br>------- --- ------ ----- --- ---- ------- -- ---- --- --<br>------- ------,301330.5,301327.1999999881,300905.281,300905.09999996424,300921.974,301338.833,,28,rate.
screen,html.Screen,2_1_1_1_29,2022-02-04T13:19:26.784Z,,,,,,,,,,,,,,,,,54,,,,,,,,,,,,,,579.766999964253,,response,,,,100,,,,,,,Space,keypress(Space),,,,,,,,-- --- ---- --- ------ ----- ------- ---- -- --- ------- --<br>------- ---------- ------ -- ----- -- ----- -- ---- ------<br>--- ----- --- --- ------ -------- ----- The ------ ----- --<br>----- ----- ---------- --- --- ------ ------ ---- -- ------<br>------- --- ------ ----- --- ---- ------- -- ---- --- --<br>------- ------,301921.3000000119,301918.59999996424,301322.17,301331.39999997616,301338.833,301939.177,,29,The
screen,html.Screen,2_1_1_1_30,2022-02-04T13:19:27.153Z,,,,,,,,,,,,,,,,,54,,,,,,,,,,,,,,347.92299996421207,,response,,,,100,,,,,,,Space,keypress(Space),,,,,,,,-- --- ---- --- ------ ----- ------- ---- -- --- ------- --<br>------- ---------- ------ -- ----- -- ----- -- ---- ------<br>--- ----- --- --- ------ -------- ----- --- market ----- --<br>----- ----- ---------- --- --- ------ ------ ---- -- ------<br>------- --- ------ ----- --- ---- ------- -- ---- --- --<br>------- ------,302290.09999996424,302287.09999996424,301922.523,301921.6999999881,301939.177,302305.967,,30,market
screen,html.Screen,2_1_1_1_31,2022-02-04T13:19:27.536Z,,,,,,,,,,,,,,,,,54,,,,,,,,,,,,,,364.7329999880749,,response,,,,100,,,,,,,Space,keypress(Space),,,,,,,,-- --- ---- --- ------ ----- ------- ---- -- --- ------- --<br>------- ---------- ------ -- ----- -- ----- -- ---- ------<br>--- ----- --- --- ------ -------- ----- --- ------ value --<br>----- ----- ---------- --- --- ------ ------ ---- -- ------<br>------- --- ------ ----- --- ---- ------- -- ---- --- --<br>------- ------,302672.89999997616,302670.6999999881,302289.406,302290.6999999881,302305.967,302689.495,,31,value
screen,html.Screen,2_1_1_1_32,2022-02-04T13:19:27.896Z,,,,,,,,,,,,,,,,,54,,,,,,,,,,,,,,341.3050000119256,,response,,,,100,,,,,,,Space,keypress(Space),,,,,,,,-- --- ---- --- ------ ----- ------- ---- -- --- ------- --<br>------- ---------- ------ -- ----- -- ----- -- ---- ------<br>--- ----- --- --- ------ -------- ----- --- ------ ----- of<br>----- ----- ---------- --- --- ------ ------ ---- -- ------<br>------- --- ------ ----- --- ---- ------- -- ---- --- --<br>------- ------,303033.09999996424,303030.8000000119,302672.938,302673.39999997616,302689.495,303039.95,,32,of
screen,html.Screen,2_1_1_1_33,2022-02-04T13:19:28.312Z,,,,,,,,,,,,,,,,,54,,,,,,,,,,,,,,406.8500000119093,,response,,,,100,,,,,,,Space,keypress(Space),,,,,,,,-- --- ---- --- ------ ----- ------- ---- -- --- ------- --<br>------- ---------- ------ -- ----- -- ----- -- ---- ------<br>--- ----- --- --- ------ -------- ----- --- ------ ----- --<br>these ----- ---------- --- --- ------ ------ ---- -- ------<br>------- --- ------ ----- --- ---- ------- -- ---- --- --<br>------- ------,303449.6999999881,303446.8000000119,303022.961,303033.3000000119,303039.95,303456.524,,33,these
screen,html.Screen,2_1_1_1_34,2022-02-04T13:19:28.713Z,,,,,,,,,,,,,,,,,54,,,,,,,,,,,,,,390.37599997618236,,response,,,,100,,,,,,,Space,keypress(Space),,,,,,,,-- --- ---- --- ------ ----- ------- ---- -- --- ------- --<br>------- ---------- ------ -- ----- -- ----- -- ---- ------<br>--- ----- --- --- ------ -------- ----- --- ------ ----- --<br>----- bonds ---------- --- --- ------ ------ ---- -- ------<br>------- --- ------ ----- --- ---- ------- -- ---- --- --<br>------- ------,303849.89999997616,303846.89999997616,303439.848,303449.89999997616,303456.524,303856.707,,34,bonds
screen,html.Screen,2_1_1_1_35,2022-02-04T13:19:29.104Z,,,,,,,,,,,,,,,,,54,,,,,,,,,,,,,,381.9929999880842,,response,,,,100,,,,,,,Space,keypress(Space),,,,,,,,"-- --- ---- --- ------ ----- ------- ---- -- --- ------- --<br>------- ---------- ------ -- ----- -- ----- -- ---- ------<br>--- ----- --- --- ------ -------- ----- --- ------ ----- --<br>----- ----- plummeted, --- --- ------ ------ ---- -- ------<br>------- --- ------ ----- --- ---- ------- -- ---- --- --<br>------- ------",304241,304238.6999999881,303840.03,303850.6999999881,303856.707,304257.004,,35,"plummeted,"
screen,html.Screen,2_1_1_1_36,2022-02-04T13:19:29.584Z,,,,,,,,,,,,,,,,,54,,,,,,,,,,,,,,461.8959999761428,,response,,,,100,,,,,,,Space,keypress(Space),,,,,,,,-- --- ---- --- ------ ----- ------- ---- -- --- ------- --<br>------- ---------- ------ -- ----- -- ----- -- ---- ------<br>--- ----- --- --- ------ -------- ----- --- ------ ----- --<br>----- ----- ---------- and --- ------ ------ ---- -- ------<br>------- --- ------ ----- --- ---- ------- -- ---- --- --<br>------- ------,304721.59999996424,304718.89999997616,304240.27,304241.3000000119,304257.004,304723.787,,36,and
screen,html.Screen,2_1_1_1_37,2022-02-04T13:19:29.961Z,,,,,,,,,,,,,,,,,54,,,,,,,,,,,,,,371.31299996422604,,response,,,,100,,,,,,,Space,keypress(Space),,,,,,,,-- --- ---- --- ------ ----- ------- ---- -- --- ------- --<br>------- ---------- ------ -- ----- -- ----- -- ---- ------<br>--- ----- --- --- ------ -------- ----- --- ------ ----- --<br>----- ----- ---------- --- the ------ ------ ---- -- ------<br>------- --- ------ ----- --- ---- ------- -- ---- --- --<br>------- ------,305098.39999997616,305095.09999996424,304707.116,304721.8000000119,304723.787,305107.314,,37,the
screen,html.Screen,2_1_1_1_38,2022-02-04T13:19:30.424Z,,,,,,,,,,,,,,,,,54,,,,,,,,,,,,,,451.88599998806603,,response,,,,100,,,,,,,Space,keypress(Space),,,,,,,,-- --- ---- --- ------ ----- ------- ---- -- --- ------- --<br>------- ---------- ------ -- ----- -- ----- -- ---- ------<br>--- ----- --- --- ------ -------- ----- --- ------ ----- --<br>----- ----- ---------- --- --- market ------ ---- -- ------<br>------- --- ------ ----- --- ---- ------- -- ---- --- --<br>------- ------,305561.5,305559.1999999881,305090.681,305098.8000000119,305107.314,305574.242,,38,market
screen,html.Screen,2_1_1_1_39,2022-02-04T13:19:30.793Z,,,,,,,,,,,,,,,,,54,,,,,,,,,,,,,,352.85799996420974,,response,,,,100,,,,,,,Space,keypress(Space),,,,,,,,-- --- ---- --- ------ ----- ------- ---- -- --- ------- --<br>------- ---------- ------ -- ----- -- ----- -- ---- ------<br>--- ----- --- --- ------ -------- ----- --- ------ ----- --<br>----- ----- ---------- --- --- ------ became ---- -- ------<br>------- --- ------ ----- --- ---- ------- -- ---- --- --<br>------- ------,305930.09999996424,305927.09999996424,305557.546,305561.8000000119,305574.242,305941.299,,39,became
screen,html.Screen,2_1_1_1_40,2022-02-04T13:19:31.192Z,,,,,,,,,,,,,,,,,54,,,,,,,,,,,,,,385.50100001192186,,response,,,,100,,,,,,,Space,keypress(Space),,,,,,,,-- --- ---- --- ------ ----- ------- ---- -- --- ------- --<br>------- ---------- ------ -- ----- -- ----- -- ---- ------<br>--- ----- --- --- ------ -------- ----- --- ------ ----- --<br>----- ----- ---------- --- --- ------ ------ wary -- ------<br>------- --- ------ ----- --- ---- ------- -- ---- --- --<br>------- ------,306329,306326.8000000119,305924.396,305930.89999997616,305941.299,306341.227,,40,wary
screen,html.Screen,2_1_1_1_41,2022-02-04T13:19:31.561Z,,,,,,,,,,,,,,,,,54,,,,,,,,,,,,,,353.8729999642237,,response,,,,100,,,,,,,Space,keypress(Space),,,,,,,,-- --- ---- --- ------ ----- ------- ---- -- --- ------- --<br>------- ---------- ------ -- ----- -- ----- -- ---- ------<br>--- ----- --- --- ------ -------- ----- --- ------ ----- --<br>----- ----- ---------- --- --- ------ ------ ---- of ------<br>------- --- ------ ----- --- ---- ------- -- ---- --- --<br>------- ------,306698.39999997616,306695.09999996424,306324.571,306329.5,306341.227,306708.11,,41,of
screen,html.Screen,2_1_1_1_42,2022-02-04T13:19:31.944Z,,,,,,,,,,,,,,,,,54,,,,,,,,,,,,,,370.6900000119349,,response,,,,100,,,,,,,Space,keypress(Space),,,,,,,,-- --- ---- --- ------ ----- ------- ---- -- --- ------- --<br>------- ---------- ------ -- ----- -- ----- -- ---- ------<br>--- ----- --- --- ------ -------- ----- --- ------ ----- --<br>----- ----- ---------- --- --- ------ ------ ---- -- French<br>------- --- ------ ----- --- ---- ------- -- ---- --- --<br>------- ------,307081.1999999881,307078.8000000119,306691.437,306699,306708.11,307091.6,,42,French
screen,html.Screen,2_1_1_1_43,2022-02-04T13:19:32.593Z,,,,,,,,,,,,,,,,,54,,,,,,,,,,,,,,636.0999999881024,,response,,,,100,,,,,,,Space,keypress(Space),,,,,,,,-- --- ---- --- ------ ----- ------- ---- -- --- ------- --<br>------- ---------- ------ -- ----- -- ----- -- ---- ------<br>--- ----- --- --- ------ -------- ----- --- ------ ----- --<br>----- ----- ---------- --- --- ------ ------ ---- -- ------<br>credit. --- ------ ----- --- ---- ------- -- ---- --- --<br>------- ------,307729.8000000119,307727.6999999881,307074.944,307081.5,307091.6,307742.039,,43,credit.
screen,html.Screen,2_1_1_1_44,2022-02-04T13:19:33.026Z,,,,,,,,,,,,,,,,,54,,,,,,,,,,,,,,417.46100000001024,,response,,,,100,,,,,,,Space,keypress(Space),,,,,,,,-- --- ---- --- ------ ----- ------- ---- -- --- ------- --<br>------- ---------- ------ -- ----- -- ----- -- ---- ------<br>--- ----- --- --- ------ -------- ----- --- ------ ----- --<br>----- ----- ---------- --- --- ------ ------ ---- -- ------<br>------- The ------ ----- --- ---- ------- -- ---- --- --<br>------- ------,308163.5,308159.5,307725.269,307730.09999996424,307742.039,308175.49,,44,The
screen,html.Screen,2_1_1_1_45,2022-02-04T13:19:33.418Z,,,,,,,,,,,,,,,,,54,,,,,,,,,,,,,,376.0100000000093,,response,,,,100,,,,,,,Space,keypress(Space),,,,,,,,-- --- ---- --- ------ ----- ------- ---- -- --- ------- --<br>------- ---------- ------ -- ----- -- ----- -- ---- ------<br>--- ----- --- --- ------ -------- ----- --- ------ ----- --<br>----- ----- ---------- --- --- ------ ------ ---- -- ------<br>------- --- French ----- --- ---- ------- -- ---- --- --<br>------- ------,308555.5,308551.5,308158.85,308163.89999997616,308175.49,308559.002,,45,French
screen,html.Screen,2_1_1_1_46,2022-02-04T13:19:33.849Z,,,,,,,,,,,,,,,,,54,,,,,,,,,,,,,,424.1979999881005,,response,,,,100,,,,,,,Space,keypress(Space),,,,,,,,-- --- ---- --- ------ ----- ------- ---- -- --- ------- --<br>------- ---------- ------ -- ----- -- ----- -- ---- ------<br>--- ----- --- --- ------ -------- ----- --- ------ ----- --<br>----- ----- ---------- --- --- ------ ------ ---- -- ------<br>------- --- ------ state --- ---- ------- -- ---- --- --<br>------- ------,308985.89999997616,308983.1999999881,308542.334,308555.8000000119,308559.002,308992.546,,46,state
screen,html.Screen,2_1_1_1_47,2022-02-04T13:19:34.264Z,,,,,,,,,,,,,,,,,54,,,,,,,,,,,,,,406.35399997618515,,response,,,,100,,,,,,,Space,keypress(Space),,,,,,,,-- --- ---- --- ------ ----- ------- ---- -- --- ------- --<br>------- ---------- ------ -- ----- -- ----- -- ---- ------<br>--- ----- --- --- ------ -------- ----- --- ------ ----- --<br>----- ----- ---------- --- --- ------ ------ ---- -- ------<br>------- --- ------ ----- was ---- ------- -- ---- --- --<br>------- ------,309401.1999999881,309398.89999997616,308975.883,308986.3000000119,308992.546,309409.398,,47,was
screen,html.Screen,2_1_1_1_48,2022-02-04T13:19:34.794Z,,,,,,,,,,,,,,,,,54,,,,,,,,,,,,,,517.8019999880926,,response,,,,100,,,,,,,Space,keypress(Space),,,,,,,,-- --- ---- --- ------ ----- ------- ---- -- --- ------- --<br>------- ---------- ------ -- ----- -- ----- -- ---- ------<br>--- ----- --- --- ------ -------- ----- --- ------ ----- --<br>----- ----- ---------- --- --- ------ ------ ---- -- ------<br>------- --- ------ ----- --- left ------- -- ---- --- --<br>------- ------,309931,309927.1999999881,309392.723,309401.5,309409.398,309943.011,,48,left
screen,html.Screen,2_1_1_1_49,2022-02-04T13:19:35.218Z,,,,,,,,,,,,,,,,,54,,,,,,,,,,,,,,408.38899997615954,,response,,,,100,,,,,,,Space,keypress(Space),,,,,,,,-- --- ---- --- ------ ----- ------- ---- -- --- ------- --<br>------- ---------- ------ -- ----- -- ----- -- ---- ------<br>--- ----- --- --- ------ -------- ----- --- ------ ----- --<br>----- ----- ---------- --- --- ------ ------ ---- -- ------<br>------- --- ------ ----- --- ---- without -- ---- --- --<br>------- ------,310354.89999997616,310351.39999997616,309926.749,309932.1999999881,309943.011,310359.895,,49,without
screen,html.Screen,2_1_1_1_50,2022-02-04T13:19:35.592Z,,,,,,,,,,,,,,,,,54,,,,,,,,,,,,,,367.1049999999814,,response,,,,100,,,,,,,Space,keypress(Space),,,,,,,,-- --- ---- --- ------ ----- ------- ---- -- --- ------- --<br>------- ---------- ------ -- ----- -- ----- -- ---- ------<br>--- ----- --- --- ------ -------- ----- --- ------ ----- --<br>----- ----- ---------- --- --- ------ ------ ---- -- ------<br>------- --- ------ ----- --- ---- ------- an ---- --- --<br>------- ------,310728.8000000119,310727,310343.365,310355.39999997616,310359.895,310743.399,,50,an
screen,html.Screen,2_1_1_1_51,2022-02-04T13:19:36.019Z,,,,,,,,,,,,,,,,,54,,,,,,,,,,,,,,408.3009999881033,,response,,,,100,,,,,,,Space,keypress(Space),,,,,,,,-- --- ---- --- ------ ----- ------- ---- -- --- ------- --<br>------- ---------- ------ -- ----- -- ----- -- ---- ------<br>--- ----- --- --- ------ -------- ----- --- ------ ----- --<br>----- ----- ---------- --- --- ------ ------ ---- -- ------<br>------- --- ------ ----- --- ---- ------- -- easy --- --<br>------- ------,311155.89999997616,311151.6999999881,310726.711,310729.09999996424,310743.399,311160.443,,51,easy
screen,html.Screen,2_1_1_1_52,2022-02-04T13:19:36.409Z,,,,,,,,,,,,,,,,,54,,,,,,,,,,,,,,382.6569999642088,,response,,,,100,,,,,,,Space,keypress(Space),,,,,,,,-- --- ---- --- ------ ----- ------- ---- -- --- ------- --<br>------- ---------- ------ -- ----- -- ----- -- ---- ------<br>--- ----- --- --- ------ -------- ----- --- ------ ----- --<br>----- ----- ---------- --- --- ------ ------ ---- -- ------<br>------- --- ------ ----- --- ---- ------- -- ---- way --<br>------- ------,311546.09999996424,311543.09999996424,311143.599,311156.5,311160.443,311560.473,,52,way
screen,html.Screen,2_1_1_1_53,2022-02-04T13:19:36.784Z,,,,,,,,,,,,,,,,,54,,,,,,,,,,,,,,358.6269999642391,,response,,,,100,,,,,,,Space,keypress(Space),,,,,,,,-- --- ---- --- ------ ----- ------- ---- -- --- ------- --<br>------- ---------- ------ -- ----- -- ----- -- ---- ------<br>--- ----- --- --- ------ -------- ----- --- ------ ----- --<br>----- ----- ---------- --- --- ------ ------ ---- -- ------<br>------- --- ------ ----- --- ---- ------- -- ---- --- of<br>------- ------,311921.5,311919.09999996424,311543.881,311546.3000000119,311560.473,311927.373,,53,of
screen,html.Screen,2_1_1_1_54,2022-02-04T13:19:37.208Z,,,,,,,,,,,,,,,,,54,,,,,,,,,,,,,,415.7269999642158,,response,,,,100,,,,,,,Space,keypress(Space),,,,,,,,-- --- ---- --- ------ ----- ------- ---- -- --- ------- --<br>------- ---------- ------ -- ----- -- ----- -- ---- ------<br>--- ----- --- --- ------ -------- ----- --- ------ ----- --<br>----- ----- ---------- --- --- ------ ------ ---- -- ------<br>------- --- ------ ----- --- ---- ------- -- ---- --- --<br>raising ------,312345.6999999881,312343.09999996424,311910.617,311922.09999996424,311927.373,312360.855,,54,raising
screen,html.Screen,2_1_1_1_55,2022-02-04T13:19:37.785Z,,,,,,,,,,,,,,,,,54,,,,,,,,,,,,,,558.4450000119396,,response,,,,100,,,,,,,Space,keypress(Space),,,,,,,,-- --- ---- --- ------ ----- ------- ---- -- --- ------- --<br>------- ---------- ------ -- ----- -- ----- -- ---- ------<br>--- ----- --- --- ------ -------- ----- --- ------ ----- --<br>----- ----- ---------- --- --- ------ ------ ---- -- ------<br>------- --- ------ ----- --- ---- ------- -- ---- --- --<br>------- money.,312921.8000000119,312919.3000000119,312344.167,312346,312360.855,312944.472,,55,money.
Item 100,flow.Loop,2_1_1_1,2022-02-04T13:19:37.785Z,,,,,,,,,,,,,,,,,,,,,,,,,,,,,,,26404.346000011894,,completion,,,,,D,,,,,,,,,,,silence,,,,,312922.39999997616,312919.3000000119,286498.269,286500.89999997616,286514.954,312944.472,,,
Question 1,html.Screen,2_1_1_2,2022-02-04T13:19:42.211Z,,,,,,,,,,,,,,,,,,,,,,,,,,,,true,TRUE,,4398.72799998807,,response,,,,100,D,,,,,,TRUE,click #choice-1,,,,silence,,,,,317348.5,317343.1999999881,312911.109,312922.8000000119,312944.472,317379.954,,,
Question 2,html.Screen,2_1_1_3,2022-02-04T13:19:46.352Z,,,,,,,,,,,,,,,,,,,,,,,,,,,,false,FALSE,,4107.14599996421,,response,,,,100,D,,,,,,TRUE,click #choice-1,,,,silence,,,,,321488.89999997616,321487.09999996424,317329.949,317349.1999999881,317379.954,321515.288,,,
Item 100,flow.Sequence,2_1_1,2022-02-04T13:19:46.352Z,,,,,,,,,,,,,,,,,,,,,,,,,,,,,,,44977.00199996424,,completion,,,,,,,,,,,,,,,,,,,,,321489.3000000119,321487.09999996424,276476.825,276483.5,276510.098,321515.288,,,
End of Practice,html.Page,2_1_2,2022-02-04T13:19:52.116Z,,,,,,,,,,,,,,,,,,,,,,,,,,,,,,,5735.611999976158,,form submission,,,,,,,,,,,,,,,,,,,,,327253.59999996424,327250.89999997616,321481.933,321489.5,321515.288,327268.093,,,
Practice,flow.Sequence,2_1,2022-02-04T13:19:52.117Z,,,,,,,,,,,,,,,,,,,,,,,,,,,,,,,95545.90599997615,,completion,,,,,,,,,,,,,,,,,,,,,327254.59999996424,327250.89999997616,231654.952,231676.09999996424,231704.994,327268.093,,,
Trap_instruction,html.Page,2_2_0,2022-02-04T13:19:59.867Z,,,,,,,,,,,,,,,,,,,,,,,,,,,,,,,7735.106999988086,,form submission,,,,,,,,,,,,,,,,,,,,,335004.59999996424,335003.1999999881,327234.736,327255.39999997616,327268.093,335121.929,,,
trap_trial,html.Screen,2_2_1,2022-02-04T13:20:03.249Z,,,,,,,,,,,,,,,,,,,,,,,,,,,,true,1,,3261.871000011917,,response,,,,,,,,,,,1,click #choice-1,,,,,,,,,338386.59999996424,338383.8000000119,334988.494,335004.6999999881,335121.929,338406.826,,,
end of trap trial,html.Page,2_2_2,2022-02-04T13:20:04.692Z,,,,,,,,,,,,,,,,,,,,,,,,,,,,,,,1421.97400001192,,form submission,,,,,,,,,,,,,,,,,,,,,339829.5,339828.8000000119,338373.593,338386.89999997616,338406.826,339841.332,,,
Trap 1,flow.Sequence,2_2,2022-02-04T13:20:04.693Z,,,,,,,,,,,,,,,,,,,,,,,,,,,,,,,12560.707000011927,,completion,,,,,,,,,,,,,,,,,,,,,339829.89999997616,339828.8000000119,327234.736,327255,327268.093,339841.332,,,
Standby,html.Page,2_3_0,2022-02-04T13:20:12.693Z,,,,,,,,,,,,,,,,,,,,,,,,,,,,,,,8003.607000000018,,timeout,,,,,,,,,,,,,,,,,,,,,347830,347828.105,339825.049,339830.09999996424,339841.332,347844.939,,,
Holding screen,html.Screen,2_3_1_0_0,2022-02-04T13:20:19.698Z,,,,,,,,,,,,,,,,,,,,,,,,,,,,,,,7019.892999999982,,timeout,,,,,,,,,,,,,,,,,,,,,354835.59999996424,354831.568,347828.105,347830.59999996424,347844.939,354864.832,,,
screen,html.Screen,2_3_1_0_1_0,2022-02-04T13:20:21.226Z,,,,,,,,,,,,,,,,,15,,,,,,,,,,,,,,1496.468000011926,,response,,,,7,D,,,,,,Space,keypress(Space),,,,silence,,,,Greg --------- ---------- - --- ------- -- --- ------------<br>----- -- -------- ------- ---- ------ - -------- ---- -----<br>--- ------- ---- -- --- -------- --- - ----- ------ ---- --<br>-------- --- -------- -------- --- -------- ---- -- ----- -<br>-------- ---- --- ---------- --------- -- ------- ------ -<br>--------- ----- -----,356363.3000000119,356361.3000000119,354831.568,354836.5,354864.832,356365.56,,0,Greg
screen,html.Screen,2_3_1_0_1_1,2022-02-04T13:20:21.786Z,,,,,,,,,,,,,,,,,15,,,,,,,,,,,,,,555.2400000119233,,response,,,,7,D,,,,,,Space,keypress(Space),,,,silence,,,,"---- Anderson, ---------- - --- ------- -- --- ------------<br>----- -- -------- ------- ---- ------ - -------- ---- -----<br>--- ------- ---- -- --- -------- --- - ----- ------ ---- --<br>-------- --- -------- -------- --- -------- ---- -- ----- -<br>-------- ---- --- ---------- --------- -- ------- ------ -<br>--------- ----- -----",356923.39999997616,356920.8000000119,356348.872,356363.5,356365.56,356932.512,,1,"Anderson,"
screen,html.Screen,2_3_1_0_1_2,2022-02-04T13:20:22.293Z,,,,,,,,,,,,,,,,,15,,,,,,,,,,,,,,492.9880000000121,,response,,,,7,D,,,,,,Space,keypress(Space),,,,silence,,,,---- --------- considered - --- ------- -- --- ------------<br>----- -- -------- ------- ---- ------ - -------- ---- -----<br>--- ------- ---- -- --- -------- --- - ----- ------ ---- --<br>-------- --- -------- -------- --- -------- ---- -- ----- -<br>-------- ---- --- ---------- --------- -- ------- ------ -<br>--------- ----- -----,357429.89999997616,357425.5,356915.846,356923.89999997616,356932.512,357449.397,,2,considered
screen,html.Screen,2_3_1_0_1_3,2022-02-04T13:20:22.657Z,,,,,,,,,,,,,,,,,15,,,,,,,,,,,,,,343.1030000000028,,response,,,,7,D,,,,,,Space,keypress(Space),,,,silence,,,,---- --------- ---------- a --- ------- -- --- ------------<br>----- -- -------- ------- ---- ------ - -------- ---- -----<br>--- ------- ---- -- --- -------- --- - ----- ------ ---- --<br>-------- --- -------- -------- --- -------- ---- -- ----- -<br>-------- ---- --- ---------- --------- -- ------- ------ -<br>--------- ----- -----,357794.39999997616,357792.5,357432.936,357430.89999997616,357449.397,357799.6,,3,a
screen,html.Screen,2_3_1_0_1_4,2022-02-04T13:20:23.033Z,,,,,,,,,,,,,,,,,15,,,,,,,,,,,,,,368.9999999642605,,response,,,,7,D,,,,,,Space,keypress(Space),,,,silence,,,,---- --------- ---------- - key ------- -- --- ------------<br>----- -- -------- ------- ---- ------ - -------- ---- -----<br>--- ------- ---- -- --- -------- --- - ----- ------ ---- --<br>-------- --- -------- -------- --- -------- ---- -- ----- -<br>-------- ---- --- ---------- --------- -- ------- ------ -<br>--------- ----- -----,358169.89999997616,358168.59999996424,357782.911,357794.8000000119,357799.6,358183.117,,4,key
screen,html.Screen,2_3_1_0_1_5,2022-02-04T13:20:23.450Z,,,,,,,,,,,,,,,,,15,,,,,,,,,,,,,,401.48299996420974,,response,,,,7,D,,,,,,Space,keypress(Space),,,,silence,,,,---- --------- ---------- - --- witness -- --- ------------<br>----- -- -------- ------- ---- ------ - -------- ---- -----<br>--- ------- ---- -- --- -------- --- - ----- ------ ---- --<br>-------- --- -------- -------- --- -------- ---- -- ----- -<br>-------- ---- --- ---------- --------- -- ------- ------ -<br>--------- ----- -----,358587,358584.59999996424,358166.425,358170.1999999881,358183.117,358600.089,,5,witness
screen,html.Screen,2_3_1_0_1_6,2022-02-04T13:20:23.777Z,,,,,,,,,,,,,,,,,15,,,,,,,,,,,,,,312.5109999642591,,response,,,,7,D,,,,,,Space,keypress(Space),,,,silence,,,,---- --------- ---------- - --- ------- by --- ------------<br>----- -- -------- ------- ---- ------ - -------- ---- -----<br>--- ------- ---- -- --- -------- --- - ----- ------ ---- --<br>-------- --- -------- -------- --- -------- ---- -- ----- -<br>-------- ---- --- ---------- --------- -- ------- ------ -<br>--------- ----- -----,358914.6999999881,358912.59999996424,358583.304,358587.3000000119,358600.089,358916.823,,6,by
screen,html.Screen,2_3_1_0_1_7,2022-02-04T13:20:24.123Z,,,,,,,,,,,,,,,,,15,,,,,,,,,,,,,,339.77699996426236,,response,,,,7,D,,,,,,Space,keypress(Space),,,,silence,,,,---- --------- ---------- - --- ------- -- the ------------<br>----- -- -------- ------- ---- ------ - -------- ---- -----<br>--- ------- ---- -- --- -------- --- - ----- ------ ---- --<br>-------- --- -------- -------- --- -------- ---- -- ----- -<br>-------- ---- --- ---------- --------- -- ------- ------ -<br>--------- ----- -----,359259.6999999881,359256.59999996424,358900.117,358915,358916.823,359266.955,,7,the
screen,html.Screen,2_3_1_0_1_8,2022-02-04T13:20:24.606Z,,,,,,,,,,,,,,,,,15,,,,,,,,,,,,,,470.2449999880628,,response,,,,7,D,,,,,,Space,keypress(Space),,,,silence,,,,"---- --------- ---------- - --- ------- -- --- prosecution,<br>----- -- -------- ------- ---- ------ - -------- ---- -----<br>--- ------- ---- -- --- -------- --- - ----- ------ ---- --<br>-------- --- -------- -------- --- -------- ---- -- ----- -<br>-------- ---- --- ---------- --------- -- ------- ------ -<br>--------- ----- -----",359742.6999999881,359737.1999999881,359250.31,359260,359266.955,359750.691,,8,"prosecution,"
screen,html.Screen,2_3_1_0_1_9,2022-02-04T13:20:25.075Z,,,,,,,,,,,,,,,,,15,,,,,,,,,,,,,,458.4089999642456,,response,,,,7,D,,,,,,Space,keypress(Space),,,,silence,,,,---- --------- ---------- - --- ------- -- --- ------------<br>vowed -- -------- ------- ---- ------ - -------- ---- -----<br>--- ------- ---- -- --- -------- --- - ----- ------ ---- --<br>-------- --- -------- -------- --- -------- ---- -- ----- -<br>-------- ---- --- ---------- --------- -- ------- ------ -<br>--------- ----- -----,360211.6999999881,360209.09999996424,359733.878,359743.39999997616,359750.691,360217.501,,9,vowed
screen,html.Screen,2_3_1_0_1_10,2022-02-04T13:20:25.441Z,,,,,,,,,,,,,,,,,15,,,,,,,,,,,,,,359.29900001193164,,response,,,,7,D,,,,,,Space,keypress(Space),,,,silence,,,,---- --------- ---------- - --- ------- -- --- ------------<br>----- he -------- ------- ---- ------ - -------- ---- -----<br>--- ------- ---- -- --- -------- --- - ----- ------ ---- --<br>-------- --- -------- -------- --- -------- ---- -- ----- -<br>-------- ---- --- ---------- --------- -- ------- ------ -<br>--------- ----- -----,360578.5,360576.8000000119,360200.866,360212,360217.501,360584.277,,10,he
screen,html.Screen,2_3_1_0_1_11,2022-02-04T13:20:25.793Z,,,,,,,,,,,,,,,,,15,,,,,,,,,,,,,,344.4229999880772,,response,,,,7,D,,,,,,Space,keypress(Space),,,,silence,,,,---- --------- ---------- - --- ------- -- --- ------------<br>----- -- wouldn't ------- ---- ------ - -------- ---- -----<br>--- ------- ---- -- --- -------- --- - ----- ------ ---- --<br>-------- --- -------- -------- --- -------- ---- -- ----- -<br>-------- ---- --- ---------- --------- -- ------- ------ -<br>--------- ----- -----,360930.5,360928.6999999881,360567.595,360579,360584.277,360934.447,,11,wouldn't
screen,html.Screen,2_3_1_0_1_12,2022-02-04T13:20:26.180Z,,,,,,,,,,,,,,,,,15,,,,,,,,,,,,,,378.55300000001444,,response,,,,7,D,,,,,,Space,keypress(Space),,,,silence,,,,---- --------- ---------- - --- ------- -- --- ------------<br>----- -- -------- testify ---- ------ - -------- ---- -----<br>--- ------- ---- -- --- -------- --- - ----- ------ ---- --<br>-------- --- -------- -------- --- -------- ---- -- ----- -<br>-------- ---- --- ---------- --------- -- ------- ------ -<br>--------- ----- -----,361316.89999997616,361313,360917.775,360930.8000000119,360934.447,361334.682,,12,testify
screen,html.Screen,2_3_1_0_1_13,2022-02-04T13:20:26.578Z,,,,,,,,,,,,,,,,,15,,,,,,,,,,,,,,378.11800001194933,,response,,,,7,D,,,,,,Space,keypress(Space),,,,silence,,,,---- --------- ---------- - --- ------- -- --- ------------<br>----- -- -------- ------- when ------ - -------- ---- -----<br>--- ------- ---- -- --- -------- --- - ----- ------ ---- --<br>-------- --- -------- -------- --- -------- ---- -- ----- -<br>-------- ---- --- ---------- --------- -- ------- ------ -<br>--------- ----- -----,361715.1999999881,361712.8000000119,361317.978,361317.39999997616,361334.682,361718.155,,13,when
screen,html.Screen,2_3_1_0_1_14,2022-02-04T13:20:26.922Z,,,,,,,,,,,,,,,,,15,,,,,,,,,,,,,,338.7449999761302,,response,,,,7,D,,,,,,Space,keypress(Space),,,,silence,,,,---- --------- ---------- - --- ------- -- --- ------------<br>----- -- -------- ------- ---- served - -------- ---- -----<br>--- ------- ---- -- --- -------- --- - ----- ------ ---- --<br>-------- --- -------- -------- --- -------- ---- -- ----- -<br>-------- ---- --- ---------- --------- -- ------- ------ -<br>--------- ----- -----,362059.3000000119,362056.89999997616,361701.484,361715.8000000119,361718.155,362068.323,,14,served
screen,html.Screen,2_3_1_0_1_15,2022-02-04T13:20:27.285Z,,,,,,,,,,,,,,,,,15,,,,,,,,,,,,,,349.0769999761833,,response,,,,7,D,,,,,,Space,keypress(Space),,,,silence,,,,---- --------- ---------- - --- ------- -- --- ------------<br>----- -- -------- ------- ---- ------ a -------- ---- -----<br>--- ------- ---- -- --- -------- --- - ----- ------ ---- --<br>-------- --- -------- -------- --- -------- ---- -- ----- -<br>-------- ---- --- ---------- --------- -- ------- ------ -<br>--------- ----- -----,362422.09999996424,362417.39999997616,362051.65,362059.59999996424,362068.323,362435.443,,15,a
screen,html.Screen,2_3_1_0_1_16,2022-02-04T13:20:27.707Z,,,,,,,,,,,,,,,,,15,,,,,,,,,,,,,,405.5569999999716,,response,,,,7,D,,,,,,Space,keypress(Space),,,,silence,,,,---- --------- ---------- - --- ------- -- --- ------------<br>----- -- -------- ------- ---- ------ - subpoena ---- -----<br>--- ------- ---- -- --- -------- --- - ----- ------ ---- --<br>-------- --- -------- -------- --- -------- ---- -- ----- -<br>-------- ---- --- ---------- --------- -- ------- ------ -<br>--------- ----- -----,362844.3000000119,362841,362418.521,362422.59999996424,362435.443,362852.061,,16,subpoena
screen,html.Screen,2_3_1_0_1_17,2022-02-04T13:20:28.170Z,,,,,,,,,,,,,,,,,15,,,,,,,,,,,,,,452.6389999880921,,response,,,,7,D,,,,,,Space,keypress(Space),,,,silence,,,,---- --------- ---------- - --- ------- -- --- ------------<br>----- -- -------- ------- ---- ------ - -------- last -----<br>--- ------- ---- -- --- -------- --- - ----- ------ ---- --<br>-------- --- -------- -------- --- -------- ---- -- ----- -<br>-------- ---- --- ---------- --------- -- ------- ------ -<br>--------- ----- -----,363307.1999999881,363304.6999999881,362835.376,362844.6999999881,362852.061,363318.906,,17,last
screen,html.Screen,2_3_1_0_1_18,2022-02-04T13:20:28.586Z,,,,,,,,,,,,,,,,,15,,,,,,,,,,,,,,401.9939999761409,,response,,,,7,D,,,,,,Space,keypress(Space),,,,silence,,,,---- --------- ---------- - --- ------- -- --- ------------<br>----- -- -------- ------- ---- ------ - -------- ---- week.<br>--- ------- ---- -- --- -------- --- - ----- ------ ---- --<br>-------- --- -------- -------- --- -------- ---- -- ----- -<br>-------- ---- --- ---------- --------- -- ------- ------ -<br>--------- ----- -----,363723.59999996424,363720.89999997616,363302.26,363307.39999997616,363318.906,363735.802,,18,week.
screen,html.Screen,2_3_1_0_1_19,2022-02-04T13:20:28.996Z,,,,,,,,,,,,,,,,,15,,,,,,,,,,,,,,393.29799996421207,,response,,,,7,D,,,,,,Space,keypress(Space),,,,silence,,,,---- --------- ---------- - --- ------- -- --- ------------<br>----- -- -------- ------- ---- ------ - -------- ---- -----<br>His ------- ---- -- --- -------- --- - ----- ------ ---- --<br>-------- --- -------- -------- --- -------- ---- -- ----- -<br>-------- ---- --- ---------- --------- -- ------- ------ -<br>--------- ----- -----,364133.1999999881,364129.09999996424,363719.127,363723.8000000119,363735.802,364152.765,,19,His
screen,html.Screen,2_3_1_0_1_20,2022-02-04T13:20:29.419Z,,,,,,,,,,,,,,,,,15,,,,,,,,,,,,,,400.23499999998603,,response,,,,7,D,,,,,,Space,keypress(Space),,,,silence,,,,---- --------- ---------- - --- ------- -- --- ------------<br>----- -- -------- ------- ---- ------ - -------- ---- -----<br>--- lawyers ---- -- --- -------- --- - ----- ------ ---- --<br>-------- --- -------- -------- --- -------- ---- -- ----- -<br>-------- ---- --- ---------- --------- -- ------- ------ -<br>--------- ----- -----,364555.6999999881,364553,364135.986,364134,364152.765,364569.554,,20,lawyers
screen,html.Screen,2_3_1_0_1_21,2022-02-04T13:20:29.818Z,,,,,,,,,,,,,,,,,15,,,,,,,,,,,,,,383.2460000119172,,response,,,,7,D,,,,,,Space,keypress(Space),,,,silence,,,,---- --------- ---------- - --- ------- -- --- ------------<br>----- -- -------- ------- ---- ------ - -------- ---- -----<br>--- ------- said -- --- -------- --- - ----- ------ ---- --<br>-------- --- -------- -------- --- -------- ---- -- ----- -<br>-------- ---- --- ---------- --------- -- ------- ------ -<br>--------- ----- -----,364955.1999999881,364952.8000000119,364552.879,364556.09999996424,364569.554,364969.751,,21,said
screen,html.Screen,2_3_1_0_1_22,2022-02-04T13:20:30.186Z,,,,,,,,,,,,,,,,,15,,,,,,,,,,,,,,351.4489999880898,,response,,,,7,D,,,,,,Space,keypress(Space),,,,silence,,,,---- --------- ---------- - --- ------- -- --- ------------<br>----- -- -------- ------- ---- ------ - -------- ---- -----<br>--- ------- ---- he --- -------- --- - ----- ------ ---- --<br>-------- --- -------- -------- --- -------- ---- -- ----- -<br>-------- ---- --- ---------- --------- -- ------- ------ -<br>--------- ----- -----,365323.5,365321.1999999881,364953.074,364955.59999996424,364969.751,365336.595,,22,he
screen,html.Screen,2_3_1_0_1_23,2022-02-04T13:20:30.515Z,,,,,,,,,,,,,,,,,15,,,,,,,,,,,,,,312.40500000002794,,response,,,,7,D,,,,,,Space,keypress(Space),,,,silence,,,,---- --------- ---------- - --- ------- -- --- ------------<br>----- -- -------- ------- ---- ------ - -------- ---- -----<br>--- ------- ---- -- was -------- --- - ----- ------ ---- --<br>-------- --- -------- -------- --- -------- ---- -- ----- -<br>-------- ---- --- ---------- --------- -- ------- ------ -<br>--------- ----- -----,365652.3000000119,365649,365319.906,365324,365336.595,365670.091,,23,was
screen,html.Screen,2_3_1_0_1_24,2022-02-04T13:20:30.924Z,,,,,,,,,,,,,,,,,15,,,,,,,,,,,,,,387.4089999999851,,response,,,,7,D,,,,,,Space,keypress(Space),,,,silence,,,,---- --------- ---------- - --- ------- -- --- ------------<br>----- -- -------- ------- ---- ------ - -------- ---- -----<br>--- ------- ---- -- --- prepared --- - ----- ------ ---- --<br>-------- --- -------- -------- --- -------- ---- -- ----- -<br>-------- ---- --- ---------- --------- -- ------- ------ -<br>--------- ----- -----,366060.8000000119,366057.5,365653.481,365652.6999999881,365670.091,366070.28,,24,prepared
screen,html.Screen,2_3_1_0_1_25,2022-02-04T13:20:31.291Z,,,,,,,,,,,,,,,,,15,,,,,,,,,,,,,,355.21999999997206,,response,,,,7,D,,,,,,Space,keypress(Space),,,,silence,,,,---- --------- ---------- - --- ------- -- --- ------------<br>----- -- -------- ------- ---- ------ - -------- ---- -----<br>--- ------- ---- -- --- -------- for - ----- ------ ---- --<br>-------- --- -------- -------- --- -------- ---- -- ----- -<br>-------- ---- --- ---------- --------- -- ------- ------ -<br>--------- ----- -----,366428,366425.5,366053.625,366061.1999999881,366070.28,366437.176,,25,for
screen,html.Screen,2_3_1_0_1_26,2022-02-04T13:20:31.635Z,,,,,,,,,,,,,,,,,15,,,,,,,,,,,,,,332.0239999881014,,response,,,,7,D,,,,,,Space,keypress(Space),,,,silence,,,,---- --------- ---------- - --- ------- -- --- ------------<br>----- -- -------- ------- ---- ------ - -------- ---- -----<br>--- ------- ---- -- --- -------- --- a ----- ------ ---- --<br>-------- --- -------- -------- --- -------- ---- -- ----- -<br>-------- ---- --- ---------- --------- -- ------- ------ -<br>--------- ----- -----,366772.8000000119,366769.1999999881,366420.536,366428.59999996424,366437.176,366787.539,,26,a
screen,html.Screen,2_3_1_0_1_27,2022-02-04T13:20:31.970Z,,,,,,,,,,,,,,,,,15,,,,,,,,,,,,,,317.56099996424746,,response,,,,7,D,,,,,,Space,keypress(Space),,,,silence,,,,---- --------- ---------- - --- ------- -- --- ------------<br>----- -- -------- ------- ---- ------ - -------- ---- -----<br>--- ------- ---- -- --- -------- --- - third ------ ---- --<br>-------- --- -------- -------- --- -------- ---- -- ----- -<br>-------- ---- --- ---------- --------- -- ------- ------ -<br>--------- ----- -----,367107.1999999881,367105.09999996424,366770.623,366773.3000000119,366787.539,367120.826,,27,third
screen,html.Screen,2_3_1_0_1_28,2022-02-04T13:20:32.364Z,,,,,,,,,,,,,,,,,15,,,,,,,,,,,,,,376.47400001192,,response,,,,7,D,,,,,,Space,keypress(Space),,,,silence,,,,---- --------- ---------- - --- ------- -- --- ------------<br>----- -- -------- ------- ---- ------ - -------- ---- -----<br>--- ------- ---- -- --- -------- --- - ----- prison ---- --<br>-------- --- -------- -------- --- -------- ---- -- ----- -<br>-------- ---- --- ---------- --------- -- ------- ------ -<br>--------- ----- -----,367501.59999996424,367497.3000000119,367104.111,367107.59999996424,367120.826,367504.324,,28,prison
screen,html.Screen,2_3_1_0_1_29,2022-02-04T13:20:32.754Z,,,,,,,,,,,,,,,,,15,,,,,,,,,,,,,,384.5759999761358,,response,,,,7,D,,,,,,Space,keypress(Space),,,,silence,,,,---- --------- ---------- - --- ------- -- --- ------------<br>----- -- -------- ------- ---- ------ - -------- ---- -----<br>--- ------- ---- -- --- -------- --- - ----- ------ stay --<br>-------- --- -------- -------- --- -------- ---- -- ----- -<br>-------- ---- --- ---------- --------- -- ------- ------ -<br>--------- ----- -----,367891,367888.89999997616,367487.807,367502.3000000119,367504.324,367904.576,,29,stay
screen,html.Screen,2_3_1_0_1_30,2022-02-04T13:20:33.122Z,,,,,,,,,,,,,,,,,15,,,,,,,,,,,,,,352.22400001192,,response,,,,7,D,,,,,,Space,keypress(Space),,,,silence,,,,---- --------- ---------- - --- ------- -- --- ------------<br>----- -- -------- ------- ---- ------ - -------- ---- -----<br>--- ------- ---- -- --- -------- --- - ----- ------ ---- to<br>-------- --- -------- -------- --- -------- ---- -- ----- -<br>-------- ---- --- ---------- --------- -- ------- ------ -<br>--------- ----- -----,368259.5,368256.8000000119,367887.816,367891.3000000119,367904.576,368271.443,,30,to
screen,html.Screen,2_3_1_0_1_31,2022-02-04T13:20:33.532Z,,,,,,,,,,,,,,,,,15,,,,,,,,,,,,,,393.95699997612974,,response,,,,7,D,,,,,,Space,keypress(Space),,,,silence,,,,---- --------- ---------- - --- ------- -- --- ------------<br>----- -- -------- ------- ---- ------ - -------- ---- -----<br>--- ------- ---- -- --- -------- --- - ----- ------ ---- --<br>maintain --- -------- -------- --- -------- ---- -- ----- -<br>-------- ---- --- ---------- --------- -- ------- ------ -<br>--------- ----- -----,368669,368665.39999997616,368254.667,368259.6999999881,368271.443,368671.56,,31,maintain
screen,html.Screen,2_3_1_0_1_32,2022-02-04T13:20:33.922Z,,,,,,,,,,,,,,,,,15,,,,,,,,,,,,,,385.4400000000023,,response,,,,7,D,,,,,,Space,keypress(Space),,,,silence,,,,---- --------- ---------- - --- ------- -- --- ------------<br>----- -- -------- ------- ---- ------ - -------- ---- -----<br>--- ------- ---- -- --- -------- --- - ----- ------ ---- --<br>-------- his -------- -------- --- -------- ---- -- ----- -<br>-------- ---- --- ---------- --------- -- ------- ------ -<br>--------- ----- -----,369059.39999997616,369057,368654.887,368669.89999997616,368671.56,369071.91,,32,his
screen,html.Screen,2_3_1_0_1_33,2022-02-04T13:20:34.314Z,,,,,,,,,,,,,,,,,15,,,,,,,,,,,,,,377.2899999881047,,response,,,,7,D,,,,,,Space,keypress(Space),,,,silence,,,,---- --------- ---------- - --- ------- -- --- ------------<br>----- -- -------- ------- ---- ------ - -------- ---- -----<br>--- ------- ---- -- --- -------- --- - ----- ------ ---- --<br>-------- --- silence. -------- --- -------- ---- -- ----- -<br>-------- ---- --- ---------- --------- -- ------- ------ -<br>--------- ----- -----,369451.39999997616,369449.1999999881,369055.057,369059.89999997616,369071.91,369455.247,,33,silence.
screen,html.Screen,2_3_1_0_1_34,2022-02-04T13:20:34.748Z,,,,,,,,,,,,,,,,,15,,,,,,,,,,,,,,425.6529999761842,,response,,,,7,D,,,,,,Space,keypress(Space),,,,silence,,,,---- --------- ---------- - --- ------- -- --- ------------<br>----- -- -------- ------- ---- ------ - -------- ---- -----<br>--- ------- ---- -- --- -------- --- - ----- ------ ---- --<br>-------- --- -------- Anderson --- -------- ---- -- ----- -<br>-------- ---- --- ---------- --------- -- ------- ------ -<br>--------- ----- -----,369884.8000000119,369880.89999997616,369438.571,369451.8000000119,369455.247,369888.797,,34,Anderson
screen,html.Screen,2_3_1_0_1_35,2022-02-04T13:20:35.211Z,,,,,,,,,,,,,,,,,15,,,,,,,,,,,,,,456.50300001190044,,response,,,,7,D,,,,,,Space,keypress(Space),,,,silence,,,,---- --------- ---------- - --- ------- -- --- ------------<br>----- -- -------- ------- ---- ------ - -------- ---- -----<br>--- ------- ---- -- --- -------- --- - ----- ------ ---- --<br>-------- --- -------- -------- was -------- ---- -- ----- -<br>-------- ---- --- ---------- --------- -- ------- ------ -<br>--------- ----- -----,370348.8000000119,370345.3000000119,369872.195,369885,369888.797,370355.702,,35,was
screen,html.Screen,2_3_1_0_1_36,2022-02-04T13:20:35.604Z,,,,,,,,,,,,,,,,,15,,,,,,,,,,,,,,381.7980000000098,,response,,,,7,D,,,,,,Space,keypress(Space),,,,silence,,,,---- --------- ---------- - --- ------- -- --- ------------<br>----- -- -------- ------- ---- ------ - -------- ---- -----<br>--- ------- ---- -- --- -------- --- - ----- ------ ---- --<br>-------- --- -------- -------- --- released ---- -- ----- -<br>-------- ---- --- ---------- --------- -- ------- ------ -<br>--------- ----- -----,370741.3000000119,370737.5,370339.042,370349.09999996424,370355.702,370756.589,,36,released
screen,html.Screen,2_3_1_0_1_37,2022-02-04T13:20:35.978Z,,,,,,,,,,,,,,,,,15,,,,,,,,,,,,,,356.7110000119428,,response,,,,7,D,,,,,,Space,keypress(Space),,,,silence,,,,---- --------- ---------- - --- ------- -- --- ------------<br>----- -- -------- ------- ---- ------ - -------- ---- -----<br>--- ------- ---- -- --- -------- --- - ----- ------ ---- --<br>-------- --- -------- -------- --- -------- July -- ----- -<br>-------- ---- --- ---------- --------- -- ------- ------ -<br>--------- ----- -----,371115.6999999881,371113.3000000119,370739.221,370741.6999999881,370756.589,371122.909,,37,July
screen,html.Screen,2_3_1_0_1_38,2022-02-04T13:20:36.348Z,,,,,,,,,,,,,,,,,15,,,,,,,,,,,,,,358.6909999642521,,response,,,,7,D,,,,,,Space,keypress(Space),,,,silence,,,,---- --------- ---------- - --- ------- -- --- ------------<br>----- -- -------- ------- ---- ------ - -------- ---- -----<br>--- ------- ---- -- --- -------- --- - ----- ------ ---- --<br>-------- --- -------- -------- --- -------- ---- 20 ----- -<br>-------- ---- --- ---------- --------- -- ------- ------ -<br>--------- ----- -----,371485,371481.59999996424,371106.046,371116.3000000119,371122.909,371489.592,,38,20
screen,html.Screen,2_3_1_0_1_39,2022-02-04T13:20:37.669Z,,,,,,,,,,,,,,,,,15,,,,,,,,,,,,,,1312.007999964233,,response,,,,7,D,,,,,,Space,keypress(Space),,,,silence,,,,---- --------- ---------- - --- ------- -- --- ------------<br>----- -- -------- ------- ---- ------ - -------- ---- -----<br>--- ------- ---- -- --- -------- --- - ----- ------ ---- --<br>-------- --- -------- -------- --- -------- ---- -- after -<br>-------- ---- --- ---------- --------- -- ------- ------ -<br>--------- ----- -----,372806.1999999881,372801.59999996424,371473.03,371485.5,371489.592,372823.6,,39,after
screen,html.Screen,2_3_1_0_1_40,2022-02-04T13:20:38.378Z,,,,,,,,,,,,,,,,,15,,,,,,,,,,,,,,689.4000000000233,,response,,,,7,D,,,,,,Space,keypress(Space),,,,silence,,,,---- --------- ---------- - --- ------- -- --- ------------<br>----- -- -------- ------- ---- ------ - -------- ---- -----<br>--- ------- ---- -- --- -------- --- - ----- ------ ---- --<br>-------- --- -------- -------- --- -------- ---- -- ----- a<br>-------- ---- --- ---------- --------- -- ------- ------ -<br>--------- ----- -----,373515.6999999881,373513,372807.097,372806.6999999881,372823.6,373523.918,,40,a
