sender,sender_type,sender_id,timestamp,meta,,Blues,Classical,Country,Dance,Electronic,Folk,Gospel,Hip-Hop,Jazz,Latin,Musical/Film,New-age,Pop,Prolific_id,Provo_ID,R&B,Rap,Reggae,Religious,Rock,Soul,Swing,Traditional,age,artist_name,correct,correctResponse,distraction,duration,education,ended_on,familiarity,gender,headphone_check_performance,item,list,music_frequency,offensiveness,pleasantness,position_correct,preference,response,response_action,snippet_file,song_name,song_rating,sound,stimulus_1,stimulus_2,stimulus_3,text,time_commit,time_end,time_render,time_run,time_show,time_switch,url,word,word_ID
Prolific ID,html.Form,0,2022-02-03T15:44:34.542Z,"{""labjs_version"":""20.2.2"",""labjs_build"":{""flavor"":""production"",""commit"":""a25486e0c714a0ae2ce03ff94b7bb6896854dcfa""},""location"":""https://run.pavlovia.org/mvasilev/prolific2_music_b/"",""userAgent"":""Mozilla/5.0 (Windows NT 10.0; Win64; x64) AppleWebKit/537.36 (KHTML, like Gecko) Chrome/97.0.4692.99 Safari/537.36 Edg/97.0.1072.76"",""platform"":""Win32"",""language"":""en-GB"",""locale"":""en-GB"",""timeZone"":""Europe/London"",""timezoneOffset"":0,""screen_width"":1920,""screen_height"":1080,""scroll_width"":1920,""scroll_height"":921,""window_innerWidth"":1920,""window_innerHeight"":969,""devicePixelRatio"":1}",,,,,,,,,,,,,,,60fe63e5cd8ed30e572de41b,,,,,,,,,,,,,,,9886.059999904632,,form submission,,,,,,,,,,,,,,,,,,,,,36859.199999928474,36858.59999990463,26922.59,26922.599999904633,26972.54,36889.262,{},,
Introduction,html.Screen,1_0,2022-02-03T15:44:39.523Z,,,,,,,,,,,,,,,,,,,,,,,,,,,,,,,4947.237999999998,,response,,,,,,,,,,,continue,click button,,,,,,,,,41840.5,41836.5,36839.268,36859.699999928474,36889.262,41856.223,,,
Volume calibration,html.Screen,1_1,2022-02-03T15:45:20.531Z,,,,,,,,,,,,,,,,,,,,,,,,,,,,,,,40988.277,,response,,,,,,,,,,,continue,click button,,,,,,,,,82848.29999995232,82844.5,41822.55,41840.699999928474,41856.223,82856.52,,,
Task instructions,html.Screen,1_2,2022-02-03T15:45:35.963Z,,,,,,,,,,,,,,,,,,,,,,,,,,,,,,,15421.979999999996,,response,,,,,,,,,,,continue,click button,,,,,,,,,98280.29999995232,98278.5,82839.324,82848.5,82856.52,98290.576,,,
Sounds,html.Screen,1_3_0_0,2022-02-03T15:45:40.213Z,,,,,,,,,,,,,,,,,,,,,,,,,,,,,,,4250.050000000003,,timeout,,,,,,,,,3,,,,,,,,O,I,S,,102529.89999997616,102522.648,98272.675,98280.59999990463,98290.576,102540.626,,,
Judgement,html.Screen,1_3_0_1,2022-02-03T15:45:40.998Z,,,,,,,,,,,,,,,,,,,,,,,,,,,,true,3,,773.6739999523124,,response,,,,,,,,,3,,3,click #choice-3,,,,,O,I,S,,103315.69999992847,103314.29999995232,102522.648,102530.19999992847,102540.626,103322.636,,,
Trial,flow.Sequence,1_3_0,2022-02-03T15:45:40.999Z,,,,,,,,,,,,,,,,,,,,,,,,,,,,,,,5023.723999952315,,completion,,,,,,,,,3,,,,,,,,O,I,S,,103316.09999990463,103314.29999995232,98272.675,98280.5,98290.576,103322.636,,,
Sounds,html.Screen,1_3_1_0,2022-02-03T15:45:45.240Z,,,,,,,,,,,,,,,,,,,,,,,,,,,,,,,4250.065000000002,,timeout,,,,,,,,,2,,,,,,,,O,S,I,,107557.29999995232,107556.154,103305.994,103316.29999995232,103322.636,107572.701,,,
Judgement,html.Screen,1_3_1_1,2022-02-03T15:45:46.041Z,,,,,,,,,,,,,,,,,,,,,,,,,,,,true,2,,783.8989999046316,,response,,,,,,,,,2,,2,click #choice-2,,,,,O,S,I,,108358.19999992847,108356.59999990463,107556.154,107557.59999990463,107572.701,108372.739,,,
Trial,flow.Sequence,1_3_1,2022-02-03T15:45:46.041Z,,,,,,,,,,,,,,,,,,,,,,,,,,,,,,,5033.963999904634,,completion,,,,,,,,,2,,,,,,,,O,S,I,,108358.59999990463,108356.59999990463,103305.994,103316.29999995232,103322.636,108372.739,,,
Sounds,html.Screen,1_3_2_0,2022-02-03T15:45:50.290Z,,,,,,,,,,,,,,,,,,,,,,,,,,,,,,,4249.914999999994,,timeout,,,,,,,,,1,,,,,,,,S,I,O,,112607,112605.992,108355.99,108358.79999995232,108372.739,112622.654,,,
Judgement,html.Screen,1_3_2_1,2022-02-03T15:45:51.653Z,,,,,,,,,,,,,,,,,,,,,,,,,,,,true,1,,1345.846000000005,,response,,,,,,,,,1,,1,click #choice-1,,,,,S,I,O,,113969.89999997616,113968.5,112605.992,112607.29999995232,112622.654,113972.663,,,
Trial,flow.Sequence,1_3_2,2022-02-03T15:45:51.653Z,,,,,,,,,,,,,,,,,,,,,,,,,,,,,,,5595.760999999999,,completion,,,,,,,,,1,,,,,,,,S,I,O,,113970.29999995232,113968.5,108355.99,108358.79999995232,108372.739,113972.663,,,
Sounds,html.Screen,1_3_3_0,2022-02-03T15:45:55.891Z,,,,,,,,,,,,,,,,,,,,,,,,,,,,,,,4255.974000000002,,timeout,,,,,,,,,3,,,,,,,,I,O,S,,118208,118206.18,113956.006,113970.5,113972.663,118228.637,,,
Judgement,html.Screen,1_3_3_1,2022-02-03T15:45:56.519Z,,,,,,,,,,,,,,,,,,,,,,,,,,,,true,3,,605.8629999999976,,response,,,,,,,,,3,,3,click #choice-3,,,,,I,O,S,,118836.09999990463,118834.5,118206.18,118208.5,118228.637,118839.348,,,
Trial,flow.Sequence,1_3_3,2022-02-03T15:45:56.519Z,,,,,,,,,,,,,,,,,,,,,,,,,,,,,,,4861.8369999999995,,completion,,,,,,,,,3,,,,,,,,I,O,S,,118836.39999997616,118834.5,113956.006,113970.39999997616,113972.663,118839.348,,,
Sounds,html.Screen,1_3_4_0,2022-02-03T15:46:00.757Z,,,,,,,,,,,,,,,,,,,,,,,,,,,,,,,4253.379000000001,,timeout,,,,,,,,,2,,,,,,,,I,S,O,,123074.59999990463,123072.899,118822.754,118836.59999990463,118839.348,123092.727,,,
Judgement,html.Screen,1_3_4_1,2022-02-03T15:46:01.182Z,,,,,,,,,,,,,,,,,,,,,,,,,,,,true,2,,406.3729999046336,,response,,,,,,,,,2,,2,click #choice-2,,,,,I,S,O,,123500.39999997616,123499.09999990463,123072.899,123075,123092.727,123522.718,,,
Trial,flow.Sequence,1_3_4,2022-02-03T15:46:01.183Z,,,,,,,,,,,,,,,,,,,,,,,,,,,,,,,4659.751999904634,,completion,,,,,,,,,2,,,,,,,,I,S,O,,123500.79999995232,123499.09999990463,118822.754,118836.5,118839.348,123522.718,,,
Sounds,html.Screen,1_3_5_0,2022-02-03T15:46:05.440Z,,,,,,,,,,,,,,,,,,,,,,,,,,,,,,,4260.635000000009,,timeout,,,,,,,,,1,,,,,,,,S,O,I,,127757.89999997616,127756.197,123506.552,123501,123522.718,127783.353,,,
Judgement,html.Screen,1_3_5_1,2022-02-03T15:46:06.200Z,,,,,,,,,,,,,,,,,,,,,,,,,,,,true,1,,733.1469999999972,,response,,,,,,,,,1,,1,click #choice-1,,,,,S,O,I,,128518.19999992847,128516.5,127756.197,127758.29999995232,127783.353,128522.765,,,
Trial,flow.Sequence,1_3_5,2022-02-03T15:46:06.200Z,,,,,,,,,,,,,,,,,,,,,,,,,,,,,,,4993.7820000000065,,completion,,,,,,,,,1,,,,,,,,S,O,I,,128518.39999997616,128516.5,123506.552,123501,123522.718,128522.765,,,
Task,flow.Loop,1_3,2022-02-03T15:46:06.206Z,,,,,,,,,,,,,,,,,,,,,,,,,,,,,,,30225.924,,completion,,,1,,,,,,,,,,,,,,,,,,128524.09999990463,128516.5,98272.675,98280.5,98290.576,128522.765,,,
Trap,html.Screen,1_4,2022-02-03T15:46:06.209Z,,,,,,,,,,,,,,,,,,,,,,,,,,,,,,,NaN,,skipped,,,,,,,,,,,,,,,,,,,,,128526.89999997616,128516.5,,128526.79999995232,,128522.765,,,
Thanks,html.Screen,1_5,2022-02-03T15:46:11.832Z,,,,,,,,,,,,,,,,,,,,,,,,,,,,,,,5625.834999904633,,response,,,,,,,,,,,continue,click button,,,,,,,,,134150.19999992847,134148.59999990463,128506.07,128527,128522.765,142906.109,,,
Headphone screening,flow.Sequence,1,2022-02-03T15:46:11.832Z,,,,,,,,,,,,,,,,,,,,,,,,,,,,,,,97259.33799990463,,completion,,,,,,,,,,,,,,,,,,,,,134150.5,134148.59999990463,36839.268,36859.59999990463,36889.262,142906.109,,,
Instructions,html.Page,2_0,2022-02-03T15:46:36.059Z,,,,,,,,,,,,,,,,,,,,,,,,,,,,,,,15470.391000000003,,form submission,,,,,,,,,,,,,,,,,,,,,158377,158376.5,142823.103,142903.29999995232,142906.109,158389.669,,,
Holding screen,html.Screen,2_1_0_0,2022-02-03T15:46:46.057Z,,,,,,,,,,,,,,,,,,,,,,,,,,,,,,,10033.154999999999,,timeout,,,,,,,,,,,,,,,,,,,,,168374.5,168372.948,158372.732,158377.19999992847,158389.669,168422.824,,,
screen,html.Screen,2_1_0_1_0,2022-02-03T15:46:47.198Z,,,,,,,,,,,,,,,,,53,,,,,,,,,,,,,,1079.8759999284812,,response,,,,99,,,,,,,Space,keypress(Space),,,,,,,,When -- ----- -- ------ - ------- --- ----------<br>------------- ------ ------ ---- ---- ------- ----- -- ----<br>-------- ------- -- ---------- --- - --- ----- ----- ----<br>---- --- --- ----- --- ---- ---- ------- ----- ---- -------<br>--- --- -- ----- -- --- ---- -- --- ---- -- ------ ------<br>--- ----- -- ----,169515.5,169502.69999992847,168372.948,168375.09999990463,168422.824,169522.802,,0,When
screen,html.Screen,2_1_0_1_1,2022-02-03T15:46:47.958Z,,,,,,,,,,,,,,,,,53,,,,,,,,,,,,,,750.698000000004,,response,,,,99,,,,,,,Space,keypress(Space),,,,,,,,---- it ----- -- ------ - ------- --- ----------<br>------------- ------ ------ ---- ---- ------- ----- -- ----<br>-------- ------- -- ---------- --- - --- ----- ----- ----<br>---- --- --- ----- --- ---- ---- ------- ----- ---- -------<br>--- --- -- ----- -- --- ---- -- --- ---- -- ------ ------<br>--- ----- -- ----,170275.59999990463,170273.5,169506.078,169516,169522.802,170289.471,,1,it
screen,html.Screen,2_1_0_1_2,2022-02-03T15:46:48.638Z,,,,,,,,,,,,,,,,,53,,,,,,,,,,,,,,663.9289999761677,,response,,,,99,,,,,,,Space,keypress(Space),,,,,,,,---- -- comes -- ------ - ------- --- ----------<br>------------- ------ ------ ---- ---- ------- ----- -- ----<br>-------- ------- -- ---------- --- - --- ----- ----- ----<br>---- --- --- ----- --- ---- ---- ------- ----- ---- -------<br>--- --- -- ----- -- --- ---- -- --- ---- -- ------ ------<br>--- ----- -- ----,170955.5,170953.39999997616,170272.907,170276,170289.471,170972.884,,2,comes
screen,html.Screen,2_1_0_1_3,2022-02-03T15:46:49.276Z,,,,,,,,,,,,,,,,,53,,,,,,,,,,,,,,619.9159999523254,,response,,,,99,,,,,,,Space,keypress(Space),,,,,,,,---- -- ----- to ------ - ------- --- ----------<br>------------- ------ ------ ---- ---- ------- ----- -- ----<br>-------- ------- -- ---------- --- - --- ----- ----- ----<br>---- --- --- ----- --- ---- ---- ------- ----- ---- -------<br>--- --- -- ----- -- --- ---- -- --- ---- -- ------ ------<br>--- ----- -- ----,171593.79999995232,171592.79999995232,170956.283,170955.89999997616,170972.884,171606.298,,3,to
screen,html.Screen,2_1_0_1_4,2022-02-03T15:46:49.902Z,,,,,,,,,,,,,,,,,53,,,,,,,,,,,,,,611.1019999761484,,response,,,,99,,,,,,,Space,keypress(Space),,,,,,,,---- -- ----- -- having - ------- --- ----------<br>------------- ------ ------ ---- ---- ------- ----- -- ----<br>-------- ------- -- ---------- --- - --- ----- ----- ----<br>---- --- --- ----- --- ---- ---- ------- ----- ---- -------<br>--- --- -- ----- -- --- ---- -- --- ---- -- ------ ------<br>--- ----- -- ----,172219.39999997616,172217.39999997616,171589.588,171593.89999997616,171606.298,172222.825,,4,having
screen,html.Screen,2_1_0_1_5,2022-02-03T15:46:50.510Z,,,,,,,,,,,,,,,,,53,,,,,,,,,,,,,,602.4749999523046,,response,,,,99,,,,,,,Space,keypress(Space),,,,,,,,---- -- ----- -- ------ a ------- --- ----------<br>------------- ------ ------ ---- ---- ------- ----- -- ----<br>-------- ------- -- ---------- --- - --- ----- ----- ----<br>---- --- --- ----- --- ---- ---- ------- ----- ---- -------<br>--- --- -- ----- -- --- ---- -- --- ---- -- ------ ------<br>--- ----- -- ----,172827,172825.29999995232,172206.106,172219.69999992847,172222.825,172839.499,,5,a
screen,html.Screen,2_1_0_1_6,2022-02-03T15:46:51.150Z,,,,,,,,,,,,,,,,,53,,,,,,,,,,,,,,625.7009999284637,,response,,,,99,,,,,,,Space,keypress(Space),,,,,,,,---- -- ----- -- ------ - lasting --- ----------<br>------------- ------ ------ ---- ---- ------- ----- -- ----<br>-------- ------- -- ---------- --- - --- ----- ----- ----<br>---- --- --- ----- --- ---- ---- ------- ----- ---- -------<br>--- --- -- ----- -- --- ---- -- --- ---- -- ------ ------<br>--- ----- -- ----,173467.09999990463,173465.19999992847,172823.116,172827.39999997616,172839.499,173472.827,,6,lasting
screen,html.Screen,2_1_0_1_7,2022-02-03T15:46:51.830Z,,,,,,,,,,,,,,,,,53,,,,,,,,,,,,,,672.5729999761679,,response,,,,99,,,,,,,Space,keypress(Space),,,,,,,,---- -- ----- -- ------ - ------- and ----------<br>------------- ------ ------ ---- ---- ------- ----- -- ----<br>-------- ------- -- ---------- --- - --- ----- ----- ----<br>---- --- --- ----- --- ---- ---- ------- ----- ---- -------<br>--- --- -- ----- -- --- ---- -- --- ---- -- ------ ------<br>--- ----- -- ----,174147.39999997616,174145.39999997616,173456.448,173467.5,173472.827,174156.154,,7,and
screen,html.Screen,2_1_0_1_8,2022-02-03T15:46:52.510Z,,,,,,,,,,,,,,,,,53,,,,,,,,,,,,,,669.1459999523067,,response,,,,99,,,,,,,Space,keypress(Space),,,,,,,,---- -- ----- -- ------ - ------- --- fulfilling<br>------------- ------ ------ ---- ---- ------- ----- -- ----<br>-------- ------- -- ---------- --- - --- ----- ----- ----<br>---- --- --- ----- --- ---- ---- ------- ----- ---- -------<br>--- --- -- ----- -- --- ---- -- --- ---- -- ------ ------<br>--- ----- -- ----,174827.39999997616,174825.29999995232,174139.435,174147.69999992847,174156.154,174839.489,,8,fulfilling
screen,html.Screen,2_1_0_1_9,2022-02-03T15:46:53.198Z,,,,,,,,,,,,,,,,,53,,,,,,,,,,,,,,673.8109999523149,,response,,,,99,,,,,,,Space,keypress(Space),,,,,,,,"---- -- ----- -- ------ - ------- --- ----------<br>relationship, ------ ------ ---- ---- ------- ----- -- ----<br>-------- ------- -- ---------- --- - --- ----- ----- ----<br>---- --- --- ----- --- ---- ---- ------- ----- ---- -------<br>--- --- -- ----- -- --- ---- -- --- ---- -- ------ ------<br>--- ----- -- ----",175515.59999990463,175513.29999995232,174822.923,174827.69999992847,174839.489,175522.822,,9,"relationship,"
screen,html.Screen,2_1_0_1_10,2022-02-03T15:46:53.822Z,,,,,,,,,,,,,,,,,53,,,,,,,,,,,,,,614.4779999523307,,response,,,,99,,,,,,,Space,keypress(Space),,,,,,,,---- -- ----- -- ------ - ------- --- ----------<br>------------- common ------ ---- ---- ------- ----- -- ----<br>-------- ------- -- ---------- --- - --- ----- ----- ----<br>---- --- --- ----- --- ---- ---- ------- ----- ---- -------<br>--- --- -- ----- -- --- ---- -- --- ---- -- ------ ------<br>--- ----- -- ----,176139.89999997616,176137.29999995232,175506.287,175516,175522.822,176156.192,,10,common
screen,html.Screen,2_1_0_1_11,2022-02-03T15:46:54.422Z,,,,,,,,,,,,,,,,,53,,,,,,,,,,,,,,580.9079999046226,,response,,,,99,,,,,,,Space,keypress(Space),,,,,,,,---- -- ----- -- ------ - ------- --- ----------<br>------------- ------ wisdom ---- ---- ------- ----- -- ----<br>-------- ------- -- ---------- --- - --- ----- ----- ----<br>---- --- --- ----- --- ---- ---- ------- ----- ---- -------<br>--- --- -- ----- -- --- ---- -- --- ---- -- ------ ------<br>--- ----- -- ----,176739.19999992847,176737.09999990463,176139.483,176140.29999995232,176156.192,176756.139,,11,wisdom
screen,html.Screen,2_1_0_1_12,2022-02-03T15:46:55.046Z,,,,,,,,,,,,,,,,,53,,,,,,,,,,,,,,605.2609999761626,,response,,,,99,,,,,,,Space,keypress(Space),,,,,,,,---- -- ----- -- ------ - ------- --- ----------<br>------------- ------ ------ says ---- ------- ----- -- ----<br>-------- ------- -- ---------- --- - --- ----- ----- ----<br>---- --- --- ----- --- ---- ---- ------- ----- ---- -------<br>--- --- -- ----- -- --- ---- -- --- ---- -- ------ ------<br>--- ----- -- ----,177363.39999997616,177361.39999997616,176739.628,176739.59999990463,176756.139,177372.87,,12,says
screen,html.Screen,2_1_0_1_13,2022-02-03T15:46:55.630Z,,,,,,,,,,,,,,,,,53,,,,,,,,,,,,,,572.5299999761628,,response,,,,99,,,,,,,Space,keypress(Space),,,,,,,,---- -- ----- -- ------ - ------- --- ----------<br>------------- ------ ------ ---- that ------- ----- -- ----<br>-------- ------- -- ---------- --- - --- ----- ----- ----<br>---- --- --- ----- --- ---- ---- ------- ----- ---- -------<br>--- --- -- ----- -- --- ---- -- --- ---- -- ------ ------<br>--- ----- -- ----,177947.29999995232,177945.39999997616,177356.194,177363.79999995232,177372.87,177956.995,,13,that
screen,html.Screen,2_1_0_1_14,2022-02-03T15:46:56.237Z,,,,,,,,,,,,,,,,,53,,,,,,,,,,,,,,596.2049999284791,,response,,,,99,,,,,,,Space,keypress(Space),,,,,,,,---- -- ----- -- ------ - ------- --- ----------<br>------------- ------ ------ ---- ---- feeling ----- -- ----<br>-------- ------- -- ---------- --- - --- ----- ----- ----<br>---- --- --- ----- --- ---- ---- ------- ----- ---- -------<br>--- --- -- ----- -- --- ---- -- --- ---- -- ------ ------<br>--- ----- -- ----,178554.89999997616,178553.19999992847,177939.787,177947.69999992847,177956.995,178572.974,,14,feeling
screen,html.Screen,2_1_0_1_15,2022-02-03T15:46:56.862Z,,,,,,,,,,,,,,,,,53,,,,,,,,,,,,,,604.4259999761707,,response,,,,99,,,,,,,Space,keypress(Space),,,,,,,,---- -- ----- -- ------ - ------- --- ----------<br>------------- ------ ------ ---- ---- ------- close -- ----<br>-------- ------- -- ---------- --- - --- ----- ----- ----<br>---- --- --- ----- --- ---- ---- ------- ----- ---- -------<br>--- --- -- ----- -- --- ---- -- --- ---- -- ------ ------<br>--- ----- -- ----,179179.5,179177.39999997616,178556.451,178555.5,178572.974,179189.515,,15,close
screen,html.Screen,2_1_0_1_16,2022-02-03T15:46:57.403Z,,,,,,,,,,,,,,,,,53,,,,,,,,,,,,,,528.7849999523023,,response,,,,99,,,,,,,Space,keypress(Space),,,,,,,,---- -- ----- -- ------ - ------- --- ----------<br>------------- ------ ------ ---- ---- ------- ----- to ----<br>-------- ------- -- ---------- --- - --- ----- ----- ----<br>---- --- --- ----- --- ---- ---- ------- ----- ---- -------<br>--- --- -- ----- -- --- ---- -- --- ---- -- ------ ------<br>--- ----- -- ----,179720.5,179718.29999995232,179172.926,179182.39999997616,179189.515,179741.895,,16,to
screen,html.Screen,2_1_0_1_17,2022-02-03T15:46:58.038Z,,,,,,,,,,,,,,,,,53,,,,,,,,,,,,,,611.5049999761686,,response,,,,99,,,,,,,Space,keypress(Space),,,,,,,,---- -- ----- -- ------ - ------- --- ----------<br>------------- ------ ------ ---- ---- ------- ----- -- your<br>-------- ------- -- ---------- --- - --- ----- ----- ----<br>---- --- --- ----- --- ---- ---- ------- ----- ---- -------<br>--- --- -- ----- -- --- ---- -- --- ---- -- ------ ------<br>--- ----- -- ----,180355.19999992847,180353.39999997616,179706.224,179720.89999997616,179741.895,180372.966,,17,your
screen,html.Screen,2_1_0_1_18,2022-02-03T15:46:58.622Z,,,,,,,,,,,,,,,,,53,,,,,,,,,,,,,,564.4339999761723,,response,,,,99,,,,,,,Space,keypress(Space),,,,,,,,---- -- ----- -- ------ - ------- --- ----------<br>------------- ------ ------ ---- ---- ------- ----- -- ----<br>romantic ------- -- ---------- --- - --- ----- ----- ----<br>---- --- --- ----- --- ---- ---- ------- ----- ---- -------<br>--- --- -- ----- -- --- ---- -- --- ---- -- ------ ------<br>--- ----- -- ----,180939.59999990463,180937.39999997616,180356.199,180355.59999990463,180372.966,180956.132,,18,romantic
screen,html.Screen,2_1_0_1_19,2022-02-03T15:46:59.110Z,,,,,,,,,,,,,,,,,53,,,,,,,,,,,,,,469.2679999761458,,response,,,,99,,,,,,,Space,keypress(Space),,,,,,,,---- -- ----- -- ------ - ------- --- ----------<br>------------- ------ ------ ---- ---- ------- ----- -- ----<br>-------- partner -- ---------- --- - --- ----- ----- ----<br>---- --- --- ----- --- ---- ---- ------- ----- ---- -------<br>--- --- -- ----- -- --- ---- -- --- ---- -- ------ ------<br>--- ----- -- ----,181427.29999995232,181425.39999997616,180940.406,180940,180956.132,181439.537,,19,partner
screen,html.Screen,2_1_0_1_20,2022-02-03T15:46:59.686Z,,,,,,,,,,,,,,,,,53,,,,,,,,,,,,,,561.862999976147,,response,,,,99,,,,,,,Space,keypress(Space),,,,,,,,---- -- ----- -- ------ - ------- --- ----------<br>------------- ------ ------ ---- ---- ------- ----- -- ----<br>-------- ------- is ---------- --- - --- ----- ----- ----<br>---- --- --- ----- --- ---- ---- ------- ----- ---- -------<br>--- --- -- ----- -- --- ---- -- --- ---- -- ------ ------<br>--- ----- -- ----,182003.29999995232,182001.39999997616,181422.965,181428.09999990463,181439.537,182006.165,,20,is
screen,html.Screen,2_1_0_1_21,2022-02-03T15:47:00.294Z,,,,,,,,,,,,,,,,,53,,,,,,,,,,,,,,603.1349999523081,,response,,,,99,,,,,,,Space,keypress(Space),,,,,,,,---- -- ----- -- ------ - ------- --- ----------<br>------------- ------ ------ ---- ---- ------- ----- -- ----<br>-------- ------- -- paramount. --- - --- ----- ----- ----<br>---- --- --- ----- --- ---- ---- ------- ----- ---- -------<br>--- --- -- ----- -- --- ---- -- --- ---- -- ------ ------<br>--- ----- -- ----,182611.29999995232,182609.29999995232,181989.662,182003.69999992847,182006.165,182622.857,,21,paramount.
screen,html.Screen,2_1_0_1_22,2022-02-03T15:47:01.045Z,,,,,,,,,,,,,,,,,53,,,,,,,,,,,,,,738.3429999284854,,response,,,,99,,,,,,,Space,keypress(Space),,,,,,,,---- -- ----- -- ------ - ------- --- ----------<br>------------- ------ ------ ---- ---- ------- ----- -- ----<br>-------- ------- -- ---------- But - --- ----- ----- ----<br>---- --- --- ----- --- ---- ---- ------- ----- ---- -------<br>--- --- -- ----- -- --- ---- -- --- ---- -- ------ ------<br>--- ----- -- ----,183362.89999997616,183361.19999992847,182606.468,182611.69999992847,182622.857,183373.044,,22,But
screen,html.Screen,2_1_0_1_23,2022-02-03T15:47:01.558Z,,,,,,,,,,,,,,,,,53,,,,,,,,,,,,,,500.15599992848,,response,,,,99,,,,,,,Space,keypress(Space),,,,,,,,---- -- ----- -- ------ - ------- --- ----------<br>------------- ------ ------ ---- ---- ------- ----- -- ----<br>-------- ------- -- ---------- --- a --- ----- ----- ----<br>---- --- --- ----- --- ---- ---- ------- ----- ---- -------<br>--- --- -- ----- -- --- ---- -- --- ---- -- ------ ------<br>--- ----- -- ----,183875.29999995232,183873.19999992847,183356.297,183363.29999995232,183373.044,183889.835,,23,a
screen,html.Screen,2_1_0_1_24,2022-02-03T15:47:01.878Z,,,,,,,,,,,,,,,,,53,,,,,,,,,,,,,,303.5649999761663,,response,,,,99,,,,,,,Space,keypress(Space),,,,,,,,---- -- ----- -- ------ - ------- --- ----------<br>------------- ------ ------ ---- ---- ------- ----- -- ----<br>-------- ------- -- ---------- --- - new ----- ----- ----<br>---- --- --- ----- --- ---- ---- ------- ----- ---- -------<br>--- --- -- ----- -- --- ---- -- --- ---- -- ------ ------<br>--- ----- -- ----,184195.5,184193.39999997616,183873.088,183875.79999995232,183889.835,184206.19,,24,new
screen,html.Screen,2_1_0_1_25,2022-02-03T15:47:02.486Z,,,,,,,,,,,,,,,,,53,,,,,,,,,,,,,,595.0099999284721,,response,,,,99,,,,,,,Space,keypress(Space),,,,,,,,---- -- ----- -- ------ - ------- --- ----------<br>------------- ------ ------ ---- ---- ------- ----- -- ----<br>-------- ------- -- ---------- --- - --- study ----- ----<br>---- --- --- ----- --- ---- ---- ------- ----- ---- -------<br>--- --- -- ----- -- --- ---- -- --- ---- -- ------ ------<br>--- ----- -- ----,184803.19999992847,184801.19999992847,184189.663,184195.79999995232,184206.19,184806.152,,25,study
screen,html.Screen,2_1_0_1_26,2022-02-03T15:47:03.062Z,,,,,,,,,,,,,,,,,53,,,,,,,,,,,,,,571.1479999523144,,response,,,,99,,,,,,,Space,keypress(Space),,,,,,,,---- -- ----- -- ------ - ------- --- ----------<br>------------- ------ ------ ---- ---- ------- ----- -- ----<br>-------- ------- -- ---------- --- - --- ----- finds ----<br>---- --- --- ----- --- ---- ---- ------- ----- ---- -------<br>--- --- -- ----- -- --- ---- -- --- ---- -- ------ ------<br>--- ----- -- ----,185379.29999995232,185377.29999995232,184789.648,184803.59999990463,184806.152,185389.523,,26,finds
screen,html.Screen,2_1_0_1_27,2022-02-03T15:47:03.518Z,,,,,,,,,,,,,,,,,53,,,,,,,,,,,,,,443.5769999046461,,response,,,,99,,,,,,,Space,keypress(Space),,,,,,,,---- -- ----- -- ------ - ------- --- ----------<br>------------- ------ ------ ---- ---- ------- ----- -- ----<br>-------- ------- -- ---------- --- - --- ----- ----- that<br>---- --- --- ----- --- ---- ---- ------- ----- ---- -------<br>--- --- -- ----- -- --- ---- -- --- ---- -- ------ ------<br>--- ----- -- ----,185835.19999992847,185833.09999990463,185372.972,185379.69999992847,185389.523,185839.524,,27,that
screen,html.Screen,2_1_0_1_28,2022-02-03T15:47:04.030Z,,,,,,,,,,,,,,,,,53,,,,,,,,,,,,,,505.87599997615325,,response,,,,99,,,,,,,Space,keypress(Space),,,,,,,,---- -- ----- -- ------ - ------- --- ----------<br>------------- ------ ------ ---- ---- ------- ----- -- ----<br>-------- ------- -- ---------- --- - --- ----- ----- ----<br>it's --- --- ----- --- ---- ---- ------- ----- ---- -------<br>--- --- -- ----- -- --- ---- -- --- ---- -- ------ ------<br>--- ----- -- ----,186347.39999997616,186345.39999997616,185822.874,185835.59999990463,185839.524,186356.164,,28,it's
screen,html.Screen,2_1_0_1_29,2022-02-03T15:47:04.390Z,,,,,,,,,,,,,,,,,53,,,,,,,,,,,,,,349.13599995232653,,response,,,,99,,,,,,,Space,keypress(Space),,,,,,,,---- -- ----- -- ------ - ------- --- ----------<br>------------- ------ ------ ---- ---- ------- ----- -- ----<br>-------- ------- -- ---------- --- - --- ----- ----- ----<br>---- not --- ----- --- ---- ---- ------- ----- ---- -------<br>--- --- -- ----- -- --- ---- -- --- ---- -- ------ ------<br>--- ----- -- ----,186707.39999997616,186705.29999995232,186339.764,186347.79999995232,186356.164,186722.927,,29,not
screen,html.Screen,2_1_0_1_30,2022-02-03T15:47:04.942Z,,,,,,,,,,,,,,,,,53,,,,,,,,,,,,,,534.3729999523202,,response,,,,99,,,,,,,Space,keypress(Space),,,,,,,,---- -- ----- -- ------ - ------- --- ----------<br>------------- ------ ------ ---- ---- ------- ----- -- ----<br>-------- ------- -- ---------- --- - --- ----- ----- ----<br>---- --- how ----- --- ---- ---- ------- ----- ---- -------<br>--- --- -- ----- -- --- ---- -- --- ---- -- ------ ------<br>--- ----- -- ----,187259.29999995232,187257.29999995232,186706.469,186707.69999992847,186722.927,187272.951,,30,how
screen,html.Screen,2_1_0_1_31,2022-02-03T15:47:05.414Z,,,,,,,,,,,,,,,,,53,,,,,,,,,,,,,,456.2489999284735,,response,,,,99,,,,,,,Space,keypress(Space),,,,,,,,---- -- ----- -- ------ - ------- --- ----------<br>------------- ------ ------ ---- ---- ------- ----- -- ----<br>-------- ------- -- ---------- --- - --- ----- ----- ----<br>---- --- --- close --- ---- ---- ------- ----- ---- -------<br>--- --- -- ----- -- --- ---- -- --- ---- -- ------ ------<br>--- ----- -- ----,187731.19999992847,187729.19999992847,187256.318,187259.69999992847,187272.951,187739.51,,31,close
screen,html.Screen,2_1_0_1_32,2022-02-03T15:47:05.894Z,,,,,,,,,,,,,,,,,53,,,,,,,,,,,,,,469.88999997614883,,response,,,,99,,,,,,,Space,keypress(Space),,,,,,,,---- -- ----- -- ------ - ------- --- ----------<br>------------- ------ ------ ---- ---- ------- ----- -- ----<br>-------- ------- -- ---------- --- - --- ----- ----- ----<br>---- --- --- ----- you ---- ---- ------- ----- ---- -------<br>--- --- -- ----- -- --- ---- -- --- ---- -- ------ ------<br>--- ----- -- ----,188211.39999997616,188209.39999997616,187722.915,187731.59999990463,187739.51,188222.862,,32,you
screen,html.Screen,2_1_0_1_33,2022-02-03T15:47:06.334Z,,,,,,,,,,,,,,,,,53,,,,,,,,,,,,,,426.53799997616443,,response,,,,99,,,,,,,Space,keypress(Space),,,,,,,,---- -- ----- -- ------ - ------- --- ----------<br>------------- ------ ------ ---- ---- ------- ----- -- ----<br>-------- ------- -- ---------- --- - --- ----- ----- ----<br>---- --- --- ----- --- feel ---- ------- ----- ---- -------<br>--- --- -- ----- -- --- ---- -- --- ---- -- ------ ------<br>--- ----- -- ----,188651.59999990463,188649.39999997616,188206.162,188211.69999992847,188222.862,188656.198,,33,feel
screen,html.Screen,2_1_0_1_34,2022-02-03T15:47:06.686Z,,,,,,,,,,,,,,,,,53,,,,,,,,,,,,,,345.1019999523123,,response,,,,99,,,,,,,Space,keypress(Space),,,,,,,,---- -- ----- -- ------ - ------- --- ----------<br>------------- ------ ------ ---- ---- ------- ----- -- ----<br>-------- ------- -- ---------- --- - --- ----- ----- ----<br>---- --- --- ----- --- ---- that ------- ----- ---- -------<br>--- --- -- ----- -- --- ---- -- --- ---- -- ------ ------<br>--- ----- -- ----,189003.29999995232,189001.29999995232,188639.666,188652,188656.198,189006.189,,34,that
screen,html.Screen,2_1_0_1_35,2022-02-03T15:47:07.214Z,,,,,,,,,,,,,,,,,53,,,,,,,,,,,,,,523.2109999761451,,response,,,,99,,,,,,,Space,keypress(Space),,,,,,,,---- -- ----- -- ------ - ------- --- ----------<br>------------- ------ ------ ---- ---- ------- ----- -- ----<br>-------- ------- -- ---------- --- - --- ----- ----- ----<br>---- --- --- ----- --- ---- ---- matters ----- ---- -------<br>--- --- -- ----- -- --- ---- -- --- ---- -- ------ ------<br>--- ----- -- ----,189531.5,189529.39999997616,188989.662,189003.79999995232,189006.189,189539.518,,35,matters
screen,html.Screen,2_1_0_1_36,2022-02-03T15:47:07.852Z,,,,,,,,,,,,,,,,,53,,,,,,,,,,,,,,626.9819999999891,,response,,,,99,,,,,,,Space,keypress(Space),,,,,,,,"---- -- ----- -- ------ - ------- --- ----------<br>------------- ------ ------ ---- ---- ------- ----- -- ----<br>-------- ------- -- ---------- --- - --- ----- ----- ----<br>---- --- --- ----- --- ---- ---- ------- most, ---- -------<br>--- --- -- ----- -- --- ---- -- --- ---- -- ------ ------<br>--- ----- -- ----",190169.19999992847,190166.5,189522.865,189532.09999990463,189539.518,190172.877,,36,"most,"
screen,html.Screen,2_1_0_1_37,2022-02-03T15:47:08.278Z,,,,,,,,,,,,,,,,,53,,,,,,,,,,,,,,420.2229999046249,,response,,,,99,,,,,,,Space,keypress(Space),,,,,,,,---- -- ----- -- ------ - ------- --- ----------<br>------------- ------ ------ ---- ---- ------- ----- -- ----<br>-------- ------- -- ---------- --- - --- ----- ----- ----<br>---- --- --- ----- --- ---- ---- ------- ----- it's -------<br>--- --- -- ----- -- --- ---- -- --- ---- -- ------ ------<br>--- ----- -- ----,190595.29999995232,190593.09999990463,190156.149,190169.5,190172.877,190606.171,,37,it's
screen,html.Screen,2_1_0_1_38,2022-02-03T15:47:08.830Z,,,,,,,,,,,,,,,,,53,,,,,,,,,,,,,,539.1289999523142,,response,,,,99,,,,,,,Space,keypress(Space),,,,,,,,---- -- ----- -- ------ - ------- --- ----------<br>------------- ------ ------ ---- ---- ------- ----- -- ----<br>-------- ------- -- ---------- --- - --- ----- ----- ----<br>---- --- --- ----- --- ---- ---- ------- ----- ---- whether<br>--- --- -- ----- -- --- ---- -- --- ---- -- ------ ------<br>--- ----- -- ----,191147.39999997616,191145.29999995232,190589.548,190595.69999992847,190606.171,191156.188,,38,whether
screen,html.Screen,2_1_0_1_39,2022-02-03T15:47:09.214Z,,,,,,,,,,,,,,,,,53,,,,,,,,,,,,,,373.2119999761635,,response,,,,99,,,,,,,Space,keypress(Space),,,,,,,,---- -- ----- -- ------ - ------- --- ----------<br>------------- ------ ------ ---- ---- ------- ----- -- ----<br>-------- ------- -- ---------- --- - --- ----- ----- ----<br>---- --- --- ----- --- ---- ---- ------- ----- ---- -------<br>you --- -- ----- -- --- ---- -- --- ---- -- ------ ------<br>--- ----- -- ----,191531.19999992847,191529.39999997616,191139.493,191147.79999995232,191156.188,191539.651,,39,you
screen,html.Screen,2_1_0_1_40,2022-02-03T15:47:09.590Z,,,,,,,,,,,,,,,,,53,,,,,,,,,,,,,,365.74899997614557,,response,,,,99,,,,,,,Space,keypress(Space),,,,,,,,---- -- ----- -- ------ - ------- --- ----------<br>------------- ------ ------ ---- ---- ------- ----- -- ----<br>-------- ------- -- ---------- --- - --- ----- ----- ----<br>---- --- --- ----- --- ---- ---- ------- ----- ---- -------<br>--- are -- ----- -- --- ---- -- --- ---- -- ------ ------<br>--- ----- -- ----,191907.5,191905.39999997616,191522.998,191531.59999990463,191539.651,191922.931,,40,are
screen,html.Screen,2_1_0_1_41,2022-02-03T15:47:10.022Z,,,,,,,,,,,,,,,,,53,,,,,,,,,,,,,,414.268999928463,,response,,,,99,,,,,,,Space,keypress(Space),,,,,,,,---- -- ----- -- ------ - ------- --- ----------<br>------------- ------ ------ ---- ---- ------- ----- -- ----<br>-------- ------- -- ---------- --- - --- ----- ----- ----<br>---- --- --- ----- --- ---- ---- ------- ----- ---- -------<br>--- --- as ----- -- --- ---- -- --- ---- -- ------ ------<br>--- ----- -- ----,192339,192337.19999992847,191906.299,191907.89999997616,191922.931,192356.339,,41,as
screen,html.Screen,2_1_0_1_42,2022-02-03T15:47:10.510Z,,,,,,,,,,,,,,,,,53,,,,,,,,,,,,,,468.96099995230907,,response,,,,99,,,,,,,Space,keypress(Space),,,,,,,,---- -- ----- -- ------ - ------- --- ----------<br>------------- ------ ------ ---- ---- ------- ----- -- ----<br>-------- ------- -- ---------- --- - --- ----- ----- ----<br>---- --- --- ----- --- ---- ---- ------- ----- ---- -------<br>--- --- -- close -- --- ---- -- --- ---- -- ------ ------<br>--- ----- -- ----,192827.29999995232,192825.29999995232,192339.784,192339.39999997616,192356.339,192839.572,,42,close
screen,html.Screen,2_1_0_1_43,2022-02-03T15:47:11.142Z,,,,,,,,,,,,,,,,,53,,,,,,,,,,,,,,617.8279999761726,,response,,,,99,,,,,,,Space,keypress(Space),,,,,,,,---- -- ----- -- ------ - ------- --- ----------<br>------------- ------ ------ ---- ---- ------- ----- -- ----<br>-------- ------- -- ---------- --- - --- ----- ----- ----<br>---- --- --- ----- --- ---- ---- ------- ----- ---- -------<br>--- --- -- ----- as --- ---- -- --- ---- -- ------ ------<br>--- ----- -- ----,193459.39999997616,193457.39999997616,192822.89,192827.59999990463,192839.572,193472.95,,43,as
screen,html.Screen,2_1_0_1_44,2022-02-03T15:47:11.542Z,,,,,,,,,,,,,,,,,53,,,,,,,,,,,,,,384.34999995230464,,response,,,,99,,,,,,,Space,keypress(Space),,,,,,,,---- -- ----- -- ------ - ------- --- ----------<br>------------- ------ ------ ---- ---- ------- ----- -- ----<br>-------- ------- -- ---------- --- - --- ----- ----- ----<br>---- --- --- ----- --- ---- ---- ------- ----- ---- -------<br>--- --- -- ----- -- you ---- -- --- ---- -- ------ ------<br>--- ----- -- ----,193859.39999997616,193857.29999995232,193456.324,193459.79999995232,193472.95,193872.872,,44,you
screen,html.Screen,2_1_0_1_45,2022-02-03T15:47:11.997Z,,,,,,,,,,,,,,,,,53,,,,,,,,,,,,,,439.8279999284714,,response,,,,99,,,,,,,Space,keypress(Space),,,,,,,,---- -- ----- -- ------ - ------- --- ----------<br>------------- ------ ------ ---- ---- ------- ----- -- ----<br>-------- ------- -- ---------- --- - --- ----- ----- ----<br>---- --- --- ----- --- ---- ---- ------- ----- ---- -------<br>--- --- -- ----- -- --- want -- --- ---- -- ------ ------<br>--- ----- -- ----,194314.19999992847,194312.69999992847,193856.242,193859.79999995232,193872.872,194322.976,,45,want
screen,html.Screen,2_1_0_1_46,2022-02-03T15:47:12.518Z,,,,,,,,,,,,,,,,,53,,,,,,,,,,,,,,510.42399997616303,,response,,,,99,,,,,,,Space,keypress(Space),,,,,,,,---- -- ----- -- ------ - ------- --- ----------<br>------------- ------ ------ ---- ---- ------- ----- -- ----<br>-------- ------- -- ---------- --- - --- ----- ----- ----<br>---- --- --- ----- --- ---- ---- ------- ----- ---- -------<br>--- --- -- ----- -- --- ---- to --- ---- -- ------ ------<br>--- ----- -- ----,194835.19999992847,194833.39999997616,194306.211,194314.39999997616,194322.976,194839.539,,46,to
screen,html.Screen,2_1_0_1_47,2022-02-03T15:47:13.030Z,,,,,,,,,,,,,,,,,53,,,,,,,,,,,,,,505.76099995232653,,response,,,,99,,,,,,,Space,keypress(Space),,,,,,,,"---- -- ----- -- ------ - ------- --- ----------<br>------------- ------ ------ ---- ---- ------- ----- -- ----<br>-------- ------- -- ---------- --- - --- ----- ----- ----<br>---- --- --- ----- --- ---- ---- ------- ----- ---- -------<br>--- --- -- ----- -- --- ---- -- be, ---- -- ------ ------<br>--- ----- -- ----",195347.09999990463,195345.29999995232,194822.988,194835.5,194839.539,195356.272,,47,"be,"
screen,html.Screen,2_1_0_1_48,2022-02-03T15:47:13.670Z,,,,,,,,,,,,,,,,,53,,,,,,,,,,,,,,629.0279999523191,,response,,,,99,,,,,,,Space,keypress(Space),,,,,,,,---- -- ----- -- ------ - ------- --- ----------<br>------------- ------ ------ ---- ---- ------- ----- -- ----<br>-------- ------- -- ---------- --- - --- ----- ----- ----<br>---- --- --- ----- --- ---- ---- ------- ----- ---- -------<br>--- --- -- ----- -- --- ---- -- --- even -- ------ ------<br>--- ----- -- ----,195987.59999990463,195985.29999995232,195339.728,195347.39999997616,195356.272,196022.849,,48,even
screen,html.Screen,2_1_0_1_49,2022-02-03T15:47:13.926Z,,,,,,,,,,,,,,,,,53,,,,,,,,,,,,,,218.350999928487,,response,,,,99,,,,,,,Space,keypress(Space),,,,,,,,---- -- ----- -- ------ - ------- --- ----------<br>------------- ------ ------ ---- ---- ------- ----- -- ----<br>-------- ------- -- ---------- --- - --- ----- ----- ----<br>---- --- --- ----- --- ---- ---- ------- ----- ---- -------<br>--- --- -- ----- -- --- ---- -- --- ---- if ------ ------<br>--- ----- -- ----,196243,196241.19999992847,196013.067,195987.89999997616,196022.849,196256.318,,49,if
screen,html.Screen,2_1_0_1_50,2022-02-03T15:47:14.294Z,,,,,,,,,,,,,,,,,53,,,,,,,,,,,,,,352.78199990463327,,response,,,,99,,,,,,,Space,keypress(Space),,,,,,,,---- -- ----- -- ------ - ------- --- ----------<br>------------- ------ ------ ---- ---- ------- ----- -- ----<br>-------- ------- -- ---------- --- - --- ----- ----- ----<br>---- --- --- ----- --- ---- ---- ------- ----- ---- -------<br>--- --- -- ----- -- --- ---- -- --- ---- -- that's ------<br>--- ----- -- ----,196611.19999992847,196609.09999990463,196239.552,196243.29999995232,196256.318,196622.841,,50,that's
screen,html.Screen,2_1_0_1_51,2022-02-03T15:47:14.862Z,,,,,,,,,,,,,,,,,53,,,,,,,,,,,,,,554.5589999761723,,response,,,,99,,,,,,,Space,keypress(Space),,,,,,,,---- -- ----- -- ------ - ------- --- ----------<br>------------- ------ ------ ---- ---- ------- ----- -- ----<br>-------- ------- -- ---------- --- - --- ----- ----- ----<br>---- --- --- ----- --- ---- ---- ------- ----- ---- -------<br>--- --- -- ----- -- --- ---- -- --- ---- -- ------ really<br>--- ----- -- ----,197179.19999992847,197177.39999997616,196606.342,196611.5,196622.841,197189.515,,51,really
screen,html.Screen,2_1_0_1_52,2022-02-03T15:47:15.222Z,,,,,,,,,,,,,,,,,53,,,,,,,,,,,,,,347.7849999523023,,response,,,,99,,,,,,,Space,keypress(Space),,,,,,,,---- -- ----- -- ------ - ------- --- ----------<br>------------- ------ ------ ---- ---- ------- ----- -- ----<br>-------- ------- -- ---------- --- - --- ----- ----- ----<br>---- --- --- ----- --- ---- ---- ------- ----- ---- -------<br>--- --- -- ----- -- --- ---- -- --- ---- -- ------ ------<br>not ----- -- ----,197539.69999992847,197537.29999995232,197172.999,197181.59999990463,197189.515,197556.267,,52,not
screen,html.Screen,2_1_0_1_53,2022-02-03T15:47:15.654Z,,,,,,,,,,,,,,,,,53,,,,,,,,,,,,,,413.1329999761656,,response,,,,99,,,,,,,Space,keypress(Space),,,,,,,,---- -- ----- -- ------ - ------- --- ----------<br>------------- ------ ------ ---- ---- ------- ----- -- ----<br>-------- ------- -- ---------- --- - --- ----- ----- ----<br>---- --- --- ----- --- ---- ---- ------- ----- ---- -------<br>--- --- -- ----- -- --- ---- -- --- ---- -- ------ ------<br>--- close -- ----,197971.39999997616,197969.39999997616,197539.522,197540.39999997616,197556.267,198006.331,,53,close
screen,html.Screen,2_1_0_1_54,2022-02-03T15:47:16.142Z,,,,,,,,,,,,,,,,,53,,,,,,,,,,,,,,451.1689999999944,,response,,,,99,,,,,,,Space,keypress(Space),,,,,,,,---- -- ----- -- ------ - ------- --- ----------<br>------------- ------ ------ ---- ---- ------- ----- -- ----<br>-------- ------- -- ---------- --- - --- ----- ----- ----<br>---- --- --- ----- --- ---- ---- ------- ----- ---- -------<br>--- --- -- ----- -- --- ---- -- --- ---- -- ------ ------<br>--- ----- at ----,198459.5,198457.5,197991.886,197971.69999992847,198006.331,198473.032,,54,at
screen,html.Screen,2_1_0_1_55,2022-02-03T15:47:16.758Z,,,,,,,,,,,,,,,,,53,,,,,,,,,,,,,,600.2679999523098,,response,,,,99,,,,,,,Space,keypress(Space),,,,,,,,---- -- ----- -- ------ - ------- --- ----------<br>------------- ------ ------ ---- ---- ------- ----- -- ----<br>-------- ------- -- ---------- --- - --- ----- ----- ----<br>---- --- --- ----- --- ---- ---- ------- ----- ---- -------<br>--- --- -- ----- -- --- ---- -- --- ---- -- ------ ------<br>--- ----- -- all.,199075.09999990463,199073.29999995232,198456.213,198459.89999997616,198473.032,199089.56,,55,all.
Item 99,flow.Loop,2_1_0_1,2022-02-03T15:47:16.758Z,,,,,,,,,,,,,,,,,,,,,,,,,,,,,,,30650.475999952323,,completion,,,,,B,,,,,,,,,,,silence,,,,,199075.89999997616,199073.29999995232,168372.948,168374.89999997616,168422.824,199089.56,,,
Question 1,html.Screen,2_1_0_2,2022-02-03T15:47:26.366Z,,,,,,,,,,,,,,,,,,,,,,,,,,,,true,FALSE,,9592.83999997616,,response,,,,99,B,,,,,,FALSE,click #choice-2,,,,silence,,,,,208683.79999995232,208682.39999997616,199073.156,199076.29999995232,199089.56,208689.502,,,
Question 2,html.Screen,2_1_0_3,2022-02-03T15:47:36.752Z,,,,,,,,,,,,,,,,,,,,,,,,,,,,true,TRUE,,10377.097999904625,,response,,,,99,B,,,,,,TRUE,click #choice-1,,,,silence,,,,,219069.09999990463,219066.59999990463,208672.823,208683.79999995232,208689.502,219072.845,,,
Item 99,flow.Sequence,2_1_0,2022-02-03T15:47:36.752Z,,,,,,,,,,,,,,,,,,,,,,,,,,,,,,,60676.93099990464,,completion,,,,,,,,,,,,,,,,,,,,,219069.39999997616,219066.59999990463,158372.732,158377.09999990463,158389.669,219072.845,,,
Holding screen,html.Screen,2_1_1_0,2022-02-03T15:47:46.741Z,,,,,,,,,,,,,,,,,,,,,,,,,,,,,,,10000.132000000012,,timeout,,,,,,,,,,,,,,,,,,,,,229057.79999995232,229056.374,219056.22,219069.5,219072.845,229072.977,,,
screen,html.Screen,2_1_1_1_0,2022-02-03T15:47:47.661Z,,,,,,,,,,,,,,,,,54,,,,,,,,,,,,,,901.7229999284609,,response,,,,100,,,,,,,Space,keypress(Space),,,,,,,,At --- ---- --- ------ ----- ------- ---- -- --- ------- --<br>------- ---------- ------ -- ----- -- ----- -- ---- ------<br>--- ----- --- --- ------ -------- ----- --- ------ ----- --<br>----- ----- ---------- --- --- ------ ------ ---- -- ------<br>------- --- ------ ----- --- ---- ------- -- ---- --- --<br>------- ------,229977.89999997616,229974.69999992847,229056.374,229058.29999995232,229072.977,229989.593,,0,At
screen,html.Screen,2_1_1_1_1,2022-02-03T15:47:48.125Z,,,,,,,,,,,,,,,,,54,,,,,,,,,,,,,,451.10699992848095,,response,,,,100,,,,,,,Space,keypress(Space),,,,,,,,-- the ---- --- ------ ----- ------- ---- -- --- ------- --<br>------- ---------- ------ -- ----- -- ----- -- ---- ------<br>--- ----- --- --- ------ -------- ----- --- ------ ----- --<br>----- ----- ---------- --- --- ------ ------ ---- -- ------<br>------- --- ------ ----- --- ---- ------- -- ---- --- --<br>------- ------,230442.09999990463,230440.69999992847,229973.197,229978.19999992847,229989.593,230456.253,,1,the
screen,html.Screen,2_1_1_1_2,2022-02-03T15:47:48.590Z,,,,,,,,,,,,,,,,,54,,,,,,,,,,,,,,449.247000000003,,response,,,,100,,,,,,,Space,keypress(Space),,,,,,,,-- --- time --- ------ ----- ------- ---- -- --- ------- --<br>------- ---------- ------ -- ----- -- ----- -- ---- ------<br>--- ----- --- --- ------ -------- ----- --- ------ ----- --<br>----- ----- ---------- --- --- ------ ------ ---- -- ------<br>------- --- ------ ----- --- ---- ------- -- ---- --- --<br>------- ------,230907.29999995232,230905.5,230439.632,230442.39999997616,230456.253,230923.093,,2,time
screen,html.Screen,2_1_1_1_3,2022-02-03T15:47:49.117Z,,,,,,,,,,,,,,,,,54,,,,,,,,,,,,,,510.0069999046391,,response,,,,100,,,,,,,Space,keypress(Space),,,,,,,,-- --- ---- the ------ ----- ------- ---- -- --- ------- --<br>------- ---------- ------ -- ----- -- ----- -- ---- ------<br>--- ----- --- --- ------ -------- ----- --- ------ ----- --<br>----- ----- ---------- --- --- ------ ------ ---- -- ------<br>------- --- ------ ----- --- ---- ------- -- ---- --- --<br>------- ------,231434.39999997616,231433.09999990463,230906.334,230907.69999992847,230923.093,231439.548,,3,the
screen,html.Screen,2_1_1_1_4,2022-02-03T15:47:49.526Z,,,,,,,,,,,,,,,,,54,,,,,,,,,,,,,,401.65199992846465,,response,,,,100,,,,,,,Space,keypress(Space),,,,,,,,-- --- ---- --- French ----- ------- ---- -- --- ------- --<br>------- ---------- ------ -- ----- -- ----- -- ---- ------<br>--- ----- --- --- ------ -------- ----- --- ------ ----- --<br>----- ----- ---------- --- --- ------ ------ ---- -- ------<br>------- --- ------ ----- --- ---- ------- -- ---- --- --<br>------- ------,231843.39999997616,231841.19999992847,231422.972,231434.59999990463,231439.548,231856.281,,4,French
screen,html.Screen,2_1_1_1_5,2022-02-03T15:47:49.934Z,,,,,,,,,,,,,,,,,54,,,,,,,,,,,,,,393.11899997617,,response,,,,100,,,,,,,Space,keypress(Space),,,,,,,,-- --- ---- --- ------ crown ------- ---- -- --- ------- --<br>------- ---------- ------ -- ----- -- ----- -- ---- ------<br>--- ----- --- --- ------ -------- ----- --- ------ ----- --<br>----- ----- ---------- --- --- ------ ------ ---- -- ------<br>------- --- ------ ----- --- ---- ------- -- ---- --- --<br>------- ------,232251.29999995232,232249.39999997616,231839.715,231843.79999995232,231856.281,232256.265,,5,crown
screen,html.Screen,2_1_1_1_6,2022-02-03T15:47:50.486Z,,,,,,,,,,,,,,,,,54,,,,,,,,,,,,,,545.1349999761442,,response,,,,100,,,,,,,Space,keypress(Space),,,,,,,,-- --- ---- --- ------ ----- secured ---- -- --- ------- --<br>------- ---------- ------ -- ----- -- ----- -- ---- ------<br>--- ----- --- --- ------ -------- ----- --- ------ ----- --<br>----- ----- ---------- --- --- ------ ------ ---- -- ------<br>------- --- ------ ----- --- ---- ------- -- ---- --- --<br>------- ------,232803.29999995232,232801.39999997616,232239.731,232251.69999992847,232256.265,232806.229,,6,secured
screen,html.Screen,2_1_1_1_7,2022-02-03T15:47:50.998Z,,,,,,,,,,,,,,,,,54,,,,,,,,,,,,,,507.0709999523242,,response,,,,100,,,,,,,Space,keypress(Space),,,,,,,,-- --- ---- --- ------ ----- ------- much -- --- ------- --<br>------- ---------- ------ -- ----- -- ----- -- ---- ------<br>--- ----- --- --- ------ -------- ----- --- ------ ----- --<br>----- ----- ---------- --- --- ------ ------ ---- -- ------<br>------- --- ------ ----- --- ---- ------- -- ---- --- --<br>------- ------,233315.39999997616,233313.29999995232,232789.606,232803.69999992847,232806.229,233322.936,,7,much
screen,html.Screen,2_1_1_1_8,2022-02-03T15:47:51.510Z,,,,,,,,,,,,,,,,,54,,,,,,,,,,,,,,502.3639999523293,,response,,,,100,,,,,,,Space,keypress(Space),,,,,,,,-- --- ---- --- ------ ----- ------- ---- of --- ------- --<br>------- ---------- ------ -- ----- -- ----- -- ---- ------<br>--- ----- --- --- ------ -------- ----- --- ------ ----- --<br>----- ----- ---------- --- --- ------ ------ ---- -- ------<br>------- --- ------ ----- --- ---- ------- -- ---- --- --<br>------- ------,233827.39999997616,233825.29999995232,233306.371,233315.69999992847,233322.936,233839.625,,8,of
screen,html.Screen,2_1_1_1_9,2022-02-03T15:47:51.910Z,,,,,,,,,,,,,,,,,54,,,,,,,,,,,,,,385.77499997615814,,response,,,,100,,,,,,,Space,keypress(Space),,,,,,,,-- --- ---- --- ------ ----- ------- ---- -- its ------- --<br>------- ---------- ------ -- ----- -- ----- -- ---- ------<br>--- ----- --- --- ------ -------- ----- --- ------ ----- --<br>----- ----- ---------- --- --- ------ ------ ---- -- ------<br>------- --- ------ ----- --- ---- ------- -- ---- --- --<br>------- ------,234227.39999997616,234225.39999997616,233822.982,233827.69999992847,233839.625,234239.597,,9,its
screen,html.Screen,2_1_1_1_10,2022-02-03T15:47:52.398Z,,,,,,,,,,,,,,,,,54,,,,,,,,,,,,,,473.70299995230744,,response,,,,100,,,,,,,Space,keypress(Space),,,,,,,,-- --- ---- --- ------ ----- ------- ---- -- --- revenue --<br>------- ---------- ------ -- ----- -- ----- -- ---- ------<br>--- ----- --- --- ------ -------- ----- --- ------ ----- --<br>----- ----- ---------- --- --- ------ ------ ---- -- ------<br>------- --- ------ ----- --- ---- ------- -- ---- --- --<br>------- ------,234715.09999990463,234713.29999995232,234223.066,234227.79999995232,234239.597,234722.903,,10,revenue
screen,html.Screen,2_1_1_1_11,2022-02-03T15:47:53.006Z,,,,,,,,,,,,,,,,,54,,,,,,,,,,,,,,598.496999976167,,response,,,,100,,,,,,,Space,keypress(Space),,,,,,,,-- --- ---- --- ------ ----- ------- ---- -- --- ------- by<br>------- ---------- ------ -- ----- -- ----- -- ---- ------<br>--- ----- --- --- ------ -------- ----- --- ------ ----- --<br>----- ----- ---------- --- --- ------ ------ ---- -- ------<br>------- --- ------ ----- --- ---- ------- -- ---- --- --<br>------- ------,235323.59999990463,235321.39999997616,234706.28,234715.59999990463,234722.903,235339.726,,11,by
screen,html.Screen,2_1_1_1_12,2022-02-03T15:47:53.550Z,,,,,,,,,,,,,,,,,54,,,,,,,,,,,,,,525.4739999284793,,response,,,,100,,,,,,,Space,keypress(Space),,,,,,,,-- --- ---- --- ------ ----- ------- ---- -- --- ------- --<br>issuing ---------- ------ -- ----- -- ----- -- ---- ------<br>--- ----- --- --- ------ -------- ----- --- ------ ----- --<br>----- ----- ---------- --- --- ------ ------ ---- -- ------<br>------- --- ------ ----- --- ---- ------- -- ---- --- --<br>------- ------,235867.29999995232,235865.19999992847,235323.066,235324.09999990463,235339.726,235872.941,,12,issuing
screen,html.Screen,2_1_1_1_13,2022-02-03T15:47:53.990Z,,,,,,,,,,,,,,,,,54,,,,,,,,,,,,,,432.4589999761665,,response,,,,100,,,,,,,Space,keypress(Space),,,,,,,,-- --- ---- --- ------ ----- ------- ---- -- --- ------- --<br>------- government ------ -- ----- -- ----- -- ---- ------<br>--- ----- --- --- ------ -------- ----- --- ------ ----- --<br>----- ----- ---------- --- --- ------ ------ ---- -- ------<br>------- --- ------ ----- --- ---- ------- -- ---- --- --<br>------- ------,236307.5,236305.39999997616,235856.397,235867.69999992847,235872.941,236322.895,,13,government
screen,html.Screen,2_1_1_1_14,2022-02-03T15:47:54.446Z,,,,,,,,,,,,,,,,,54,,,,,,,,,,,,,,438.6050000000105,,response,,,,100,,,,,,,Space,keypress(Space),,,,,,,,-- --- ---- --- ------ ----- ------- ---- -- --- ------- --<br>------- ---------- bonds. -- ----- -- ----- -- ---- ------<br>--- ----- --- --- ------ -------- ----- --- ------ ----- --<br>----- ----- ---------- --- --- ------ ------ ---- -- ------<br>------- --- ------ ----- --- ---- ------- -- ---- --- --<br>------- ------,236763.5,236761.5,236306.405,236307.89999997616,236322.895,236772.953,,14,bonds.
screen,html.Screen,2_1_1_1_15,2022-02-03T15:47:55.182Z,,,,,,,,,,,,,,,,,54,,,,,,,,,,,,,,724.4469999761495,,response,,,,100,,,,,,,Space,keypress(Space),,,,,,,,-- --- ---- --- ------ ----- ------- ---- -- --- ------- --<br>------- ---------- ------ In ----- -- ----- -- ---- ------<br>--- ----- --- --- ------ -------- ----- --- ------ ----- --<br>----- ----- ---------- --- --- ------ ------ ---- -- ------<br>------- --- ------ ----- --- ---- ------- -- ---- --- --<br>------- ------,237499.39999997616,237497.39999997616,236756.567,236764.09999990463,236772.953,237506.306,,15,In
screen,html.Screen,2_1_1_1_16,2022-02-03T15:47:55.502Z,,,,,,,,,,,,,,,,,54,,,,,,,,,,,,,,311.09399997614673,,response,,,,100,,,,,,,Space,keypress(Space),,,,,,,,"-- --- ---- --- ------ ----- ------- ---- -- --- ------- --<br>------- ---------- ------ -- 1727, -- ----- -- ---- ------<br>--- ----- --- --- ------ -------- ----- --- ------ ----- --<br>----- ----- ---------- --- --- ------ ------ ---- -- ------<br>------- --- ------ ----- --- ---- ------- -- ---- --- --<br>------- ------",237819.19999992847,237817.39999997616,237489.641,237499.69999992847,237506.306,237822.951,,16,"1727,"
screen,html.Screen,2_1_1_1_17,2022-02-03T15:47:56.326Z,,,,,,,,,,,,,,,,,54,,,,,,,,,,,,,,818.3489999523154,,response,,,,100,,,,,,,Space,keypress(Space),,,,,,,,-- --- ---- --- ------ ----- ------- ---- -- --- ------- --<br>------- ---------- ------ -- ----- in ----- -- ---- ------<br>--- ----- --- --- ------ -------- ----- --- ------ ----- --<br>----- ----- ---------- --- --- ------ ------ ---- -- ------<br>------- --- ------ ----- --- ---- ------- -- ---- --- --<br>------- ------,238643.29999995232,238641.29999995232,237806.616,237819.59999990463,237822.951,238656.239,,17,in
screen,html.Screen,2_1_1_1_18,2022-02-03T15:47:56.846Z,,,,,,,,,,,,,,,,,54,,,,,,,,,,,,,,505.16099997615675,,response,,,,100,,,,,,,Space,keypress(Space),,,,,,,,-- --- ---- --- ------ ----- ------- ---- -- --- ------- --<br>------- ---------- ------ -- ----- -- order -- ---- ------<br>--- ----- --- --- ------ -------- ----- --- ------ ----- --<br>----- ----- ---------- --- --- ------ ------ ---- -- ------<br>------- --- ------ ----- --- ---- ------- -- ---- --- --<br>------- ------,239163.39999997616,239161.39999997616,238639.726,238643.79999995232,238656.239,239172.92,,18,order
screen,html.Screen,2_1_1_1_19,2022-02-03T15:47:57.340Z,,,,,,,,,,,,,,,,,54,,,,,,,,,,,,,,482.2799999284616,,response,,,,100,,,,,,,Space,keypress(Space),,,,,,,,-- --- ---- --- ------ ----- ------- ---- -- --- ------- --<br>------- ---------- ------ -- ----- -- ----- to ---- ------<br>--- ----- --- --- ------ -------- ----- --- ------ ----- --<br>----- ----- ---------- --- --- ------ ------ ---- -- ------<br>------- --- ------ ----- --- ---- ------- -- ---- --- --<br>------- ------,239656.69999992847,239655.19999992847,239156.312,239163.79999995232,239172.92,239673.046,,19,to
screen,html.Screen,2_1_1_1_20,2022-02-03T15:47:57.684Z,,,,,,,,,,,,,,,,,54,,,,,,,,,,,,,,325.7539999523142,,response,,,,100,,,,,,,Space,keypress(Space),,,,,,,,-- --- ---- --- ------ ----- ------- ---- -- --- ------- --<br>------- ---------- ------ -- ----- -- ----- -- save ------<br>--- ----- --- --- ------ -------- ----- --- ------ ----- --<br>----- ----- ---------- --- --- ------ ------ ---- -- ------<br>------- --- ------ ----- --- ---- ------- -- ---- --- --<br>------- ------,240001.19999992847,239998.79999995232,239656.515,239657.09999990463,239673.046,240006.288,,20,save
screen,html.Screen,2_1_1_1_21,2022-02-03T15:47:58.158Z,,,,,,,,,,,,,,,,,54,,,,,,,,,,,,,,467.21199999999953,,response,,,,100,,,,,,,Space,keypress(Space),,,,,,,,"-- --- ---- --- ------ ----- ------- ---- -- --- ------- --<br>------- ---------- ------ -- ----- -- ----- -- ---- money,<br>--- ----- --- --- ------ -------- ----- --- ------ ----- --<br>----- ----- ---------- --- --- ------ ------ ---- -- ------<br>------- --- ------ ----- --- ---- ------- -- ---- --- --<br>------- ------",240475.39999997616,240473.5,239989.538,240001.59999990463,240006.288,240489.657,,21,"money,"
screen,html.Screen,2_1_1_1_22,2022-02-03T15:47:58.782Z,,,,,,,,,,,,,,,,,54,,,,,,,,,,,,,,607.7429999761516,,response,,,,100,,,,,,,Space,keypress(Space),,,,,,,,-- --- ---- --- ------ ----- ------- ---- -- --- ------- --<br>------- ---------- ------ -- ----- -- ----- -- ---- ------<br>the ----- --- --- ------ -------- ----- --- ------ ----- --<br>----- ----- ---------- --- --- ------ ------ ---- -- ------<br>------- --- ------ ----- --- ---- ------- -- ---- --- --<br>------- ------,241099.39999997616,241097.39999997616,240472.932,240475.89999997616,240489.657,241106.265,,22,the
screen,html.Screen,2_1_1_1_23,2022-02-03T15:47:59.190Z,,,,,,,,,,,,,,,,,54,,,,,,,,,,,,,,398.93499992846046,,response,,,,100,,,,,,,Space,keypress(Space),,,,,,,,-- --- ---- --- ------ ----- ------- ---- -- --- ------- --<br>------- ---------- ------ -- ----- -- ----- -- ---- ------<br>--- state --- --- ------ -------- ----- --- ------ ----- --<br>----- ----- ---------- --- --- ------ ------ ---- -- ------<br>------- --- ------ ----- --- ---- ------- -- ---- --- --<br>------- ------,241507.29999995232,241505.19999992847,241089.624,241099.79999995232,241106.265,241522.943,,23,state
screen,html.Screen,2_1_1_1_24,2022-02-03T15:47:59.654Z,,,,,,,,,,,,,,,,,54,,,,,,,,,,,,,,446.356999952317,,response,,,,100,,,,,,,Space,keypress(Space),,,,,,,,-- --- ---- --- ------ ----- ------- ---- -- --- ------- --<br>------- ---------- ------ -- ----- -- ----- -- ---- ------<br>--- ----- cut --- ------ -------- ----- --- ------ ----- --<br>----- ----- ---------- --- --- ------ ------ ---- -- ------<br>------- --- ------ ----- --- ---- ------- -- ---- --- --<br>------- ------,241971.29999995232,241969.29999995232,241506.529,241507.69999992847,241522.943,242006.271,,24,cut
screen,html.Screen,2_1_1_1_25,2022-02-03T15:48:00.069Z,,,,,,,,,,,,,,,,,54,,,,,,,,,,,,,,378.52899995230837,,response,,,,100,,,,,,,Space,keypress(Space),,,,,,,,-- --- ---- --- ------ ----- ------- ---- -- --- ------- --<br>------- ---------- ------ -- ----- -- ----- -- ---- ------<br>--- ----- --- the ------ -------- ----- --- ------ ----- --<br>----- ----- ---------- --- --- ------ ------ ---- -- ------<br>------- --- ------ ----- --- ---- ------- -- ---- --- --<br>------- ------,242385.69999992847,242384.79999995232,241999.057,241971.69999992847,242006.271,242389.561,,25,the
screen,html.Screen,2_1_1_1_26,2022-02-03T15:48:00.374Z,,,,,,,,,,,,,,,,,54,,,,,,,,,,,,,,299.8389999761712,,response,,,,100,,,,,,,Space,keypress(Space),,,,,,,,-- --- ---- --- ------ ----- ------- ---- -- --- ------- --<br>------- ---------- ------ -- ----- -- ----- -- ---- ------<br>--- ----- --- --- bonds' -------- ----- --- ------ ----- --<br>----- ----- ---------- --- --- ------ ------ ---- -- ------<br>------- --- ------ ----- --- ---- ------- -- ---- --- --<br>------- ------,242691.29999995232,242689.39999997616,242373.257,242385.89999997616,242389.561,242706.225,,26,bonds'
screen,html.Screen,2_1_1_1_27,2022-02-03T15:48:00.934Z,,,,,,,,,,,,,,,,,54,,,,,,,,,,,,,,543.0749999523105,,response,,,,100,,,,,,,Space,keypress(Space),,,,,,,,-- --- ---- --- ------ ----- ------- ---- -- --- ------- --<br>------- ---------- ------ -- ----- -- ----- -- ---- ------<br>--- ----- --- --- ------ interest ----- --- ------ ----- --<br>----- ----- ---------- --- --- ------ ------ ---- -- ------<br>------- --- ------ ----- --- ---- ------- -- ---- --- --<br>------- ------,243251.19999992847,243249.29999995232,242689.591,242691.69999992847,242706.225,243256.294,,27,interest
screen,html.Screen,2_1_1_1_28,2022-02-03T15:48:01.406Z,,,,,,,,,,,,,,,,,54,,,,,,,,,,,,,,465.10599997616373,,response,,,,100,,,,,,,Space,keypress(Space),,,,,,,,-- --- ---- --- ------ ----- ------- ---- -- --- ------- --<br>------- ---------- ------ -- ----- -- ----- -- ---- ------<br>--- ----- --- --- ------ -------- rate. --- ------ ----- --<br>----- ----- ---------- --- --- ------ ------ ---- -- ------<br>------- --- ------ ----- --- ---- ------- -- ---- --- --<br>------- ------,243723.39999997616,243721.39999997616,243239.857,243251.59999990463,243256.294,243739.66,,28,rate.
screen,html.Screen,2_1_1_1_29,2022-02-03T15:48:02.102Z,,,,,,,,,,,,,,,,,54,,,,,,,,,,,,,,677.5399999284709,,response,,,,100,,,,,,,Space,keypress(Space),,,,,,,,-- --- ---- --- ------ ----- ------- ---- -- --- ------- --<br>------- ---------- ------ -- ----- -- ----- -- ---- ------<br>--- ----- --- --- ------ -------- ----- The ------ ----- --<br>----- ----- ---------- --- --- ------ ------ ---- -- ------<br>------- --- ------ ----- --- ---- ------- -- ---- --- --<br>------- ------,244419.29999995232,244417.19999992847,243723.084,243723.79999995232,243739.66,244422.952,,29,The
screen,html.Screen,2_1_1_1_30,2022-02-03T15:48:02.342Z,,,,,,,,,,,,,,,,,54,,,,,,,,,,,,,,234.44799997616792,,response,,,,100,,,,,,,Space,keypress(Space),,,,,,,,-- --- ---- --- ------ ----- ------- ---- -- --- ------- --<br>------- ---------- ------ -- ----- -- ----- -- ---- ------<br>--- ----- --- --- ------ -------- ----- --- market ----- --<br>----- ----- ---------- --- --- ------ ------ ---- -- ------<br>------- --- ------ ----- --- ---- ------- -- ---- --- --<br>------- ------,244659.39999997616,244657.39999997616,244406.58,244419.69999992847,244422.952,244673.068,,30,market
screen,html.Screen,2_1_1_1_31,2022-02-03T15:48:02.790Z,,,,,,,,,,,,,,,,,54,,,,,,,,,,,,,,432.33199997615884,,response,,,,100,,,,,,,Space,keypress(Space),,,,,,,,-- --- ---- --- ------ ----- ------- ---- -- --- ------- --<br>------- ---------- ------ -- ----- -- ----- -- ---- ------<br>--- ----- --- --- ------ -------- ----- --- ------ value --<br>----- ----- ---------- --- --- ------ ------ ---- -- ------<br>------- --- ------ ----- --- ---- ------- -- ---- --- --<br>------- ------,245107.5,245105.39999997616,244656.412,244659.69999992847,244673.068,245122.956,,31,value
screen,html.Screen,2_1_1_1_32,2022-02-03T15:48:03.229Z,,,,,,,,,,,,,,,,,54,,,,,,,,,,,,,,421.8439999523107,,response,,,,100,,,,,,,Space,keypress(Space),,,,,,,,-- --- ---- --- ------ ----- ------- ---- -- --- ------- --<br>------- ---------- ------ -- ----- -- ----- -- ---- ------<br>--- ----- --- --- ------ -------- ----- --- ------ ----- of<br>----- ----- ---------- --- --- ------ ------ ---- -- ------<br>------- --- ------ ----- --- ---- ------- -- ---- --- --<br>------- ------,245545.89999997616,245544.79999995232,245106.32,245107.79999995232,245122.956,245556.321,,32,of
screen,html.Screen,2_1_1_1_33,2022-02-03T15:48:03.516Z,,,,,,,,,,,,,,,,,54,,,,,,,,,,,,,,276.37899992847815,,response,,,,100,,,,,,,Space,keypress(Space),,,,,,,,-- --- ---- --- ------ ----- ------- ---- -- --- ------- --<br>------- ---------- ------ -- ----- -- ----- -- ---- ------<br>--- ----- --- --- ------ -------- ----- --- ------ ----- --<br>these ----- ---------- --- --- ------ ------ ---- -- ------<br>------- --- ------ ----- --- ---- ------- -- ---- --- --<br>------- ------,245833.59999990463,245832.69999992847,245539.665,245546.19999992847,245556.321,245839.516,,33,these
screen,html.Screen,2_1_1_1_34,2022-02-03T15:48:03.884Z,,,,,,,,,,,,,,,,,54,,,,,,,,,,,,,,361.0839999046293,,response,,,,100,,,,,,,Space,keypress(Space),,,,,,,,-- --- ---- --- ------ ----- ------- ---- -- --- ------- --<br>------- ---------- ------ -- ----- -- ----- -- ---- ------<br>--- ----- --- --- ------ -------- ----- --- ------ ----- --<br>----- bonds ---------- --- --- ------ ------ ---- -- ------<br>------- --- ------ ----- --- ---- ------- -- ---- --- --<br>------- ------,246201.5,246200.59999990463,245822.926,245833.69999992847,245839.516,246206.257,,34,bonds
screen,html.Screen,2_1_1_1_35,2022-02-03T15:48:04.412Z,,,,,,,,,,,,,,,,,54,,,,,,,,,,,,,,522.3429999046202,,response,,,,100,,,,,,,Space,keypress(Space),,,,,,,,"-- --- ---- --- ------ ----- ------- ---- -- --- ------- --<br>------- ---------- ------ -- ----- -- ----- -- ---- ------<br>--- ----- --- --- ------ -------- ----- --- ------ ----- --<br>----- ----- plummeted, --- --- ------ ------ ---- -- ------<br>------- --- ------ ----- --- ---- ------- -- ---- --- --<br>------- ------",246729.5,246728.59999990463,246189.594,246201.59999990463,246206.257,246739.514,,35,"plummeted,"
screen,html.Screen,2_1_1_1_36,2022-02-03T15:48:04.974Z,,,,,,,,,,,,,,,,,54,,,,,,,,,,,,,,549.7859999523207,,response,,,,100,,,,,,,Space,keypress(Space),,,,,,,,-- --- ---- --- ------ ----- ------- ---- -- --- ------- --<br>------- ---------- ------ -- ----- -- ----- -- ---- ------<br>--- ----- --- --- ------ -------- ----- --- ------ ----- --<br>----- ----- ---------- and --- ------ ------ ---- -- ------<br>------- --- ------ ----- --- ---- ------- -- ---- --- --<br>------- ------,247291.5,247289.29999995232,246722.896,246729.59999990463,246739.514,247306.24,,36,and
screen,html.Screen,2_1_1_1_37,2022-02-03T15:48:05.198Z,,,,,,,,,,,,,,,,,54,,,,,,,,,,,,,,207.15999997616746,,response,,,,100,,,,,,,Space,keypress(Space),,,,,,,,-- --- ---- --- ------ ----- ------- ---- -- --- ------- --<br>------- ---------- ------ -- ----- -- ----- -- ---- ------<br>--- ----- --- --- ------ -------- ----- --- ------ ----- --<br>----- ----- ---------- --- the ------ ------ ---- -- ------<br>------- --- ------ ----- --- ---- ------- -- ---- --- --<br>------- ------,247515.29999995232,247513.39999997616,247289.532,247292,247306.24,247523.093,,37,the
screen,html.Screen,2_1_1_1_38,2022-02-03T15:48:05.573Z,,,,,,,,,,,,,,,,,54,,,,,,,,,,,,,,365.5069999046391,,response,,,,100,,,,,,,Space,keypress(Space),,,,,,,,-- --- ---- --- ------ ----- ------- ---- -- --- ------- --<br>------- ---------- ------ -- ----- -- ----- -- ---- ------<br>--- ----- --- --- ------ -------- ----- --- ------ ----- --<br>----- ----- ---------- --- --- market ------ ---- -- ------<br>------- --- ------ ----- --- ---- ------- -- ---- --- --<br>------- ------,247889.69999992847,247888.59999990463,247506.472,247515.59999990463,247523.093,247906.228,,38,market
screen,html.Screen,2_1_1_1_39,2022-02-03T15:48:05.966Z,,,,,,,,,,,,,,,,,54,,,,,,,,,,,,,,374.97199992847163,,response,,,,100,,,,,,,Space,keypress(Space),,,,,,,,-- --- ---- --- ------ ----- ------- ---- -- --- ------- --<br>------- ---------- ------ -- ----- -- ----- -- ---- ------<br>--- ----- --- --- ------ -------- ----- --- ------ ----- --<br>----- ----- ---------- --- --- ------ became ---- -- ------<br>------- --- ------ ----- --- ---- ------- -- ---- --- --<br>------- ------,248283.29999995232,248281.19999992847,247889.645,247889.79999995232,247906.228,248289.612,,39,became
screen,html.Screen,2_1_1_1_40,2022-02-03T15:48:06.342Z,,,,,,,,,,,,,,,,,54,,,,,,,,,,,,,,367.68799995232257,,response,,,,100,,,,,,,Space,keypress(Space),,,,,,,,-- --- ---- --- ------ ----- ------- ---- -- --- ------- --<br>------- ---------- ------ -- ----- -- ----- -- ---- ------<br>--- ----- --- --- ------ -------- ----- --- ------ ----- --<br>----- ----- ---------- --- --- ------ ------ wary -- ------<br>------- --- ------ ----- --- ---- ------- -- ---- --- --<br>------- ------,248659.39999997616,248657.29999995232,248272.883,248283.59999990463,248289.612,248672.93,,40,wary
screen,html.Screen,2_1_1_1_41,2022-02-03T15:48:06.750Z,,,,,,,,,,,,,,,,,54,,,,,,,,,,,,,,392.4699999761651,,response,,,,100,,,,,,,Space,keypress(Space),,,,,,,,-- --- ---- --- ------ ----- ------- ---- -- --- ------- --<br>------- ---------- ------ -- ----- -- ----- -- ---- ------<br>--- ----- --- --- ------ -------- ----- --- ------ ----- --<br>----- ----- ---------- --- --- ------ ------ ---- of ------<br>------- --- ------ ----- --- ---- ------- -- ---- --- --<br>------- ------,249067.19999992847,249065.39999997616,248656.397,248659.79999995232,248672.93,249072.972,,41,of
screen,html.Screen,2_1_1_1_42,2022-02-03T15:48:07.206Z,,,,,,,,,,,,,,,,,54,,,,,,,,,,,,,,448.4279999761493,,response,,,,100,,,,,,,Space,keypress(Space),,,,,,,,-- --- ---- --- ------ ----- ------- ---- -- --- ------- --<br>------- ---------- ------ -- ----- -- ----- -- ---- ------<br>--- ----- --- --- ------ -------- ----- --- ------ ----- --<br>----- ----- ---------- --- --- ------ ------ ---- -- French<br>------- --- ------ ----- --- ---- ------- -- ---- --- --<br>------- ------,249523.5,249521.39999997616,249056.377,249067.5,249072.972,249539.584,,42,French
screen,html.Screen,2_1_1_1_43,2022-02-03T15:48:07.574Z,,,,,,,,,,,,,,,,,54,,,,,,,,,,,,,,349.8159999761556,,response,,,,100,,,,,,,Space,keypress(Space),,,,,,,,-- --- ---- --- ------ ----- ------- ---- -- --- ------- --<br>------- ---------- ------ -- ----- -- ----- -- ---- ------<br>--- ----- --- --- ------ -------- ----- --- ------ ----- --<br>----- ----- ---------- --- --- ------ ------ ---- -- ------<br>credit. --- ------ ----- --- ---- ------- -- ---- --- --<br>------- ------,249891.19999992847,249889.39999997616,249523.092,249523.89999997616,249539.584,249906.385,,43,credit.
screen,html.Screen,2_1_1_1_44,2022-02-03T15:48:08.212Z,,,,,,,,,,,,,,,,,54,,,,,,,,,,,,,,620.7149999046233,,response,,,,100,,,,,,,Space,keypress(Space),,,,,,,,-- --- ---- --- ------ ----- ------- ---- -- --- ------- --<br>------- ---------- ------ -- ----- -- ----- -- ---- ------<br>--- ----- --- --- ------ -------- ----- --- ------ ----- --<br>----- ----- ---------- --- --- ------ ------ ---- -- ------<br>------- The ------ ----- --- ---- ------- -- ---- --- --<br>------- ------,250529.29999995232,250527.09999990463,249889.738,249891.59999990463,249906.385,250539.604,,44,The
screen,html.Screen,2_1_1_1_45,2022-02-03T15:48:08.462Z,,,,,,,,,,,,,,,,,54,,,,,,,,,,,,,,237.6959999523242,,response,,,,100,,,,,,,Space,keypress(Space),,,,,,,,-- --- ---- --- ------ ----- ------- ---- -- --- ------- --<br>------- ---------- ------ -- ----- -- ----- -- ---- ------<br>--- ----- --- --- ------ -------- ----- --- ------ ----- --<br>----- ----- ---------- --- --- ------ ------ ---- -- ------<br>------- --- French ----- --- ---- ------- -- ---- --- --<br>------- ------,250779.29999995232,250777.29999995232,250523.155,250529.69999992847,250539.604,250789.818,,45,French
screen,html.Screen,2_1_1_1_46,2022-02-03T15:48:08.942Z,,,,,,,,,,,,,,,,,54,,,,,,,,,,,,,,467.28199990463327,,response,,,,100,,,,,,,Space,keypress(Space),,,,,,,,-- --- ---- --- ------ ----- ------- ---- -- --- ------- --<br>------- ---------- ------ -- ----- -- ----- -- ---- ------<br>--- ----- --- --- ------ -------- ----- --- ------ ----- --<br>----- ----- ---------- --- --- ------ ------ ---- -- ------<br>------- --- ------ state --- ---- ------- -- ---- --- --<br>------- ------,251259.19999992847,251257.09999990463,250772.993,250779.69999992847,250789.818,251273.093,,46,state
screen,html.Screen,2_1_1_1_47,2022-02-03T15:48:09.357Z,,,,,,,,,,,,,,,,,54,,,,,,,,,,,,,,399.9070000000065,,response,,,,100,,,,,,,Space,keypress(Space),,,,,,,,-- --- ---- --- ------ ----- ------- ---- -- --- ------- --<br>------- ---------- ------ -- ----- -- ----- -- ---- ------<br>--- ----- --- --- ------ -------- ----- --- ------ ----- --<br>----- ----- ---------- --- --- ------ ------ ---- -- ------<br>------- --- ------ ----- was ---- ------- -- ---- --- --<br>------- ------,251674.09999990463,251673,251256.309,251259.69999992847,251273.093,251689.739,,47,was
screen,html.Screen,2_1_1_1_48,2022-02-03T15:48:09.710Z,,,,,,,,,,,,,,,,,54,,,,,,,,,,,,,,335.66099997615675,,response,,,,100,,,,,,,Space,keypress(Space),,,,,,,,-- --- ---- --- ------ ----- ------- ---- -- --- ------- --<br>------- ---------- ------ -- ----- -- ----- -- ---- ------<br>--- ----- --- --- ------ -------- ----- --- ------ ----- --<br>----- ----- ---------- --- --- ------ ------ ---- -- ------<br>------- --- ------ ----- --- left ------- -- ---- --- --<br>------- ------,252027.39999997616,252025.39999997616,251673.01,251674.29999995232,251689.739,252039.711,,48,left
screen,html.Screen,2_1_1_1_49,2022-02-03T15:48:10.046Z,,,,,,,,,,,,,,,,,54,,,,,,,,,,,,,,321.6889999761479,,response,,,,100,,,,,,,Space,keypress(Space),,,,,,,,-- --- ---- --- ------ ----- ------- ---- -- --- ------- --<br>------- ---------- ------ -- ----- -- ----- -- ---- ------<br>--- ----- --- --- ------ -------- ----- --- ------ ----- --<br>----- ----- ---------- --- --- ------ ------ ---- -- ------<br>------- --- ------ ----- --- ---- without -- ---- --- --<br>------- ------,252363.39999997616,252361.39999997616,252022.927,252027.79999995232,252039.711,252372.987,,49,without
screen,html.Screen,2_1_1_1_50,2022-02-03T15:48:10.398Z,,,,,,,,,,,,,,,,,54,,,,,,,,,,,,,,340.5130000000063,,response,,,,100,,,,,,,Space,keypress(Space),,,,,,,,-- --- ---- --- ------ ----- ------- ---- -- --- ------- --<br>------- ---------- ------ -- ----- -- ----- -- ---- ------<br>--- ----- --- --- ------ -------- ----- --- ------ ----- --<br>----- ----- ---------- --- --- ------ ------ ---- -- ------<br>------- --- ------ ----- --- ---- ------- an ---- --- --<br>------- ------,252715.5,252713.5,252356.355,252363.79999995232,252372.987,252722.986,,50,an
screen,html.Screen,2_1_1_1_51,2022-02-03T15:48:10.821Z,,,,,,,,,,,,,,,,,54,,,,,,,,,,,,,,413.81399995231186,,response,,,,100,,,,,,,Space,keypress(Space),,,,,,,,-- --- ---- --- ------ ----- ------- ---- -- --- ------- --<br>------- ---------- ------ -- ----- -- ----- -- ---- ------<br>--- ----- --- --- ------ -------- ----- --- ------ ----- --<br>----- ----- ---------- --- --- ------ ------ ---- -- ------<br>------- --- ------ ----- --- ---- ------- -- easy --- --<br>------- ------,253138,253136.79999995232,252706.437,252715.79999995232,252722.986,253170.394,,51,easy
screen,html.Screen,2_1_1_1_52,2022-02-03T15:48:11.229Z,,,,,,,,,,,,,,,,,54,,,,,,,,,,,,,,374.60599999999977,,response,,,,100,,,,,,,Space,keypress(Space),,,,,,,,-- --- ---- --- ------ ----- ------- ---- -- --- ------- --<br>------- ---------- ------ -- ----- -- ----- -- ---- ------<br>--- ----- --- --- ------ -------- ----- --- ------ ----- --<br>----- ----- ---------- --- --- ------ ------ ---- -- ------<br>------- --- ------ ----- --- ---- ------- -- ---- way --<br>------- ------,253546.5,253545,253123.018,253138.19999992847,253170.394,253556.231,,52,way
screen,html.Screen,2_1_1_1_53,2022-02-03T15:48:11.702Z,,,,,,,,,,,,,,,,,54,,,,,,,,,,,,,,460.8689999046328,,response,,,,100,,,,,,,Space,keypress(Space),,,,,,,,-- --- ---- --- ------ ----- ------- ---- -- --- ------- --<br>------- ---------- ------ -- ----- -- ----- -- ---- ------<br>--- ----- --- --- ------ -------- ----- --- ------ ----- --<br>----- ----- ---------- --- --- ------ ------ ---- -- ------<br>------- --- ------ ----- --- ---- ------- -- ---- --- of<br>------- ------,254019.29999995232,254017.09999990463,253539.629,253546.69999992847,253556.231,254022.945,,53,of
screen,html.Screen,2_1_1_1_54,2022-02-03T15:48:12.111Z,,,,,,,,,,,,,,,,,54,,,,,,,,,,,,,,402.45499997615116,,response,,,,100,,,,,,,Space,keypress(Space),,,,,,,,-- --- ---- --- ------ ----- ------- ---- -- --- ------- --<br>------- ---------- ------ -- ----- -- ----- -- ---- ------<br>--- ----- --- --- ------ -------- ----- --- ------ ----- --<br>----- ----- ---------- --- --- ------ ------ ---- -- ------<br>------- --- ------ ----- --- ---- ------- -- ---- --- --<br>raising ------,254428.39999997616,254425.39999997616,254006.349,254019.69999992847,254022.945,254439.61,,54,raising
screen,html.Screen,2_1_1_1_55,2022-02-03T15:48:12.654Z,,,,,,,,,,,,,,,,,54,,,,,,,,,,,,,,529.0899999284884,,response,,,,100,,,,,,,Space,keypress(Space),,,,,,,,-- --- ---- --- ------ ----- ------- ---- -- --- ------- --<br>------- ---------- ------ -- ----- -- ----- -- ---- ------<br>--- ----- --- --- ------ -------- ----- --- ------ ----- --<br>----- ----- ---------- --- --- ------ ------ ---- -- ------<br>------- --- ------ ----- --- ---- ------- -- ---- --- --<br>------- money.,254970.69999992847,254968.69999992847,254423.093,254428.69999992847,254439.61,254972.896,,55,money.
Item 100,flow.Loop,2_1_1_1,2022-02-03T15:48:12.654Z,,,,,,,,,,,,,,,,,,,,,,,,,,,,,,,25895.72299992846,,completion,,,,,B,,,,,,,,,,,silence,,,,,254971.09999990463,254968.69999992847,229056.374,229058.19999992847,229072.977,254972.896,,,
Question 1,html.Screen,2_1_1_2,2022-02-03T15:48:17.297Z,,,,,,,,,,,,,,,,,,,,,,,,,,,,true,TRUE,,4640.00399997615,,response,,,,100,B,,,,,,TRUE,click #choice-1,,,,silence,,,,,259614.5,259612.89999997616,254956.25,254971.29999995232,254972.896,259623.543,,,
Question 2,html.Screen,2_1_1_3,2022-02-03T15:48:21.745Z,,,,,,,,,,,,,,,,,,,,,,,,,,,,true,FALSE,,4437.156999928469,,response,,,,100,B,,,,,,FALSE,click #choice-2,,,,silence,,,,,264062.1999999285,264060.6999999285,259606.249,259614.59999990463,259623.543,264073.58,,,
Item 100,flow.Sequence,2_1_1,2022-02-03T15:48:21.745Z,,,,,,,,,,,,,,,,,,,,,,,,,,,,,,,44987.85499992847,,completion,,,,,,,,,,,,,,,,,,,,,264062.39999997616,264060.6999999285,219056.22,219069.5,219072.845,264073.58,,,
End of Practice,html.Page,2_1_2,2022-02-03T15:48:26.312Z,,,,,,,,,,,,,,,,,,,,,,,,,,,,,,,4554.7199999523,,form submission,,,,,,,,,,,,,,,,,,,,,268628.59999990463,268628.2999999523,264056.271,264062.59999990463,264073.58,268639.598,,,
Practice,flow.Sequence,2_1,2022-02-03T15:48:26.312Z,,,,,,,,,,,,,,,,,,,,,,,,,,,,,,,110238.63099995232,,completion,,,,,,,,,,,,,,,,,,,,,268628.89999997616,268628.2999999523,158372.732,158377.09999990463,158389.669,268639.598,,,
Trap_instruction,html.Page,2_2_0,2022-02-03T15:48:31.216Z,,,,,,,,,,,,,,,,,,,,,,,,,,,,,,,4893.101999928476,,form submission,,,,,,,,,,,,,,,,,,,,,273533.09999990463,273532.6999999285,268623.081,268629.09999990463,268639.598,273572.954,,,
trap_trial,html.Screen,2_2_1,2022-02-03T15:48:35.808Z,,,,,,,,,,,,,,,,,,,,,,,,,,,,true,1,,4549.545999999973,,response,,,,,,,,,,,1,click #choice-1,,,,,,,,,278124.6999999285,278122.5,273523.008,273533.2999999523,273572.954,278139.612,,,
end of trap trial,html.Page,2_2_2,2022-02-03T15:48:38.636Z,,,,,,,,,,,,,,,,,,,,,,,,,,,,,,,2812.9879999046098,,form submission,,,,,,,,,,,,,,,,,,,,,280953,280952.59999990463,278122.978,278124.89999997616,278139.612,280956.425,,,
Trap 1,flow.Sequence,2_2,2022-02-03T15:48:38.636Z,,,,,,,,,,,,,,,,,,,,,,,,,,,,,,,12313.001999904634,,completion,,,,,,,,,,,,,,,,,,,,,280953.2999999523,280952.59999990463,268623.081,268629,268639.598,280956.425,,,
Standby,html.Page,2_3_0,2022-02-03T15:48:46.624Z,,,,,,,,,,,,,,,,,,,,,,,,,,,,,,,7999.940000000002,,timeout,,,,,,,,,,,,,,,,,,,,,288941.2999999523,288939.722,280939.604,280953.59999990463,280956.425,288956.365,,,
Holding screen,html.Screen,2_3_1_0_0,2022-02-03T15:48:53.624Z,,,,,,,,,,,,,,,,,,,,,,,,,,,,,,,7000.008000000031,,timeout,,,,,,,,,,,,,,,,,,,,,295941.5,295939.829,288939.722,288941.89999997616,288956.365,295956.373,,,
screen,html.Screen,2_3_1_0_1_0,2022-02-03T15:48:56.068Z,,,,,,,,,,,,,,,,,11,,,,,,,,,,,,,,2426.326999928453,,response,,,,4,B,,,,,,Space,keypress(Space),,,,lyrical,,,,Known -- ---- --- -- --- -------- ------------ ---------- --<br>- ------- ------ --------- -- ------------ -- --- ---- -----<br>------ ---- ---- ------ ------ ------- --- ----- ---------<br>---- --- -------- -------- --- --- -- ------- --- --- -----<br>-- --- ------ ------- --- --- -------- ---- --------- --<br>---------- -- -------- ----------------,298386.09999990463,298382.6999999285,295939.829,295942.09999990463,295956.373,298389.726,,0,Known
screen,html.Screen,2_3_1_0_1_1,2022-02-03T15:48:59.167Z,,,,,,,,,,,,,,,,,11,,,,,,,,,,,,,,3091.8739999046084,,response,,,,4,B,,,,,,Space,keypress(Space),,,,lyrical,,,,----- as ---- --- -- --- -------- ------------ ---------- --<br>- ------- ------ --------- -- ------------ -- --- ---- -----<br>------ ---- ---- ------ ------ ------- --- ----- ---------<br>---- --- -------- -------- --- --- -- ------- --- --- -----<br>-- --- ------ ------- --- --- -------- ---- --------- --<br>---------- -- -------- ----------------,301484.2999999523,301481.59999990463,298373.174,298386.39999997616,298389.726,301489.732,,1,as
screen,html.Screen,2_3_1_0_1_2,2022-02-03T15:48:59.670Z,,,,,,,,,,,,,,,,,11,,,,,,,,,,,,,,495.66799997614,,response,,,,4,B,,,,,,Space,keypress(Space),,,,lyrical,,,,----- -- Rapa --- -- --- -------- ------------ ---------- --<br>- ------- ------ --------- -- ------------ -- --- ---- -----<br>------ ---- ---- ------ ------ ------- --- ----- ---------<br>---- --- -------- -------- --- --- -- ------- --- --- -----<br>-- --- ------ ------- --- --- -------- ---- --------- --<br>---------- -- -------- ----------------,301987.39999997616,301985.39999997616,301473.095,301484.5,301489.732,302021.613,,2,Rapa
screen,html.Screen,2_3_1_0_1_3,2022-02-03T15:49:00.076Z,,,,,,,,,,,,,,,,,11,,,,,,,,,,,,,,371.0869999284623,,response,,,,4,B,,,,,,Space,keypress(Space),,,,lyrical,,,,----- -- ---- Nui -- --- -------- ------------ ---------- --<br>- ------- ------ --------- -- ------------ -- --- ---- -----<br>------ ---- ---- ------ ------ ------- --- ----- ---------<br>---- --- -------- -------- --- --- -- ------- --- --- -----<br>-- --- ------ ------- --- --- -------- ---- --------- --<br>---------- -- -------- ----------------,302393.7999999523,302392.6999999285,301973.167,301987.6999999285,302021.613,302406.361,,3,Nui
screen,html.Screen,2_3_1_0_1_4,2022-02-03T15:49:00.622Z,,,,,,,,,,,,,,,,,11,,,,,,,,,,,,,,531.2389999046572,,response,,,,4,B,,,,,,Space,keypress(Space),,,,lyrical,,,,----- -- ---- --- to --- -------- ------------ ---------- --<br>- ------- ------ --------- -- ------------ -- --- ---- -----<br>------ ---- ---- ------ ------ ------- --- ----- ---------<br>---- --- -------- -------- --- --- -- ------- --- --- -----<br>-- --- ------ ------- --- --- -------- ---- --------- --<br>---------- -- -------- ----------------,302939.89999997616,302937.59999990463,302389.878,302393.89999997616,302406.361,302956.518,,4,to
screen,html.Screen,2_3_1_0_1_5,2022-02-03T15:49:01.142Z,,,,,,,,,,,,,,,,,11,,,,,,,,,,,,,,501.08199990465073,,response,,,,4,B,,,,,,Space,keypress(Space),,,,lyrical,,,,----- -- ---- --- -- the -------- ------------ ---------- --<br>- ------- ------ --------- -- ------------ -- --- ---- -----<br>------ ---- ---- ------ ------ ------- --- ----- ---------<br>---- --- -------- -------- --- --- -- ------- --- --- -----<br>-- --- ------ ------- --- --- -------- ---- --------- --<br>---------- -- -------- ----------------,303460,303457.59999990463,302939.67,302940.2999999523,302956.518,303473,,5,the
screen,html.Screen,2_3_1_0_1_6,2022-02-03T15:49:01.742Z,,,,,,,,,,,,,,,,,11,,,,,,,,,,,,,,584.5,,response,,,,4,B,,,,,,Space,keypress(Space),,,,lyrical,,,,----- -- ---- --- -- --- island's ------------ ---------- --<br>- ------- ------ --------- -- ------------ -- --- ---- -----<br>------ ---- ---- ------ ------ ------- --- ----- ---------<br>---- --- -------- -------- --- --- -- ------- --- --- -----<br>-- --- ------ ------- --- --- -------- ---- --------- --<br>---------- -- -------- ----------------,304059.7999999523,304057.5,303456.401,303460.39999997616,303473,304073.119,,6,island's
screen,html.Screen,2_3_1_0_1_7,2022-02-03T15:49:02.790Z,,,,,,,,,,,,,,,,,11,,,,,,,,,,,,,,1032.1809999523102,,response,,,,4,B,,,,,,Space,keypress(Space),,,,lyrical,,,,"----- -- ---- --- -- --- -------- inhabitants, ---------- --<br>- ------- ------ --------- -- ------------ -- --- ---- -----<br>------ ---- ---- ------ ------ ------- --- ----- ---------<br>---- --- -------- -------- --- --- -- ------- --- --- -----<br>-- --- ------ ------- --- --- -------- ---- --------- --<br>---------- -- -------- ----------------",305107.5,305105.2999999523,304056.422,304060.1999999285,304073.119,305123.236,,7,"inhabitants,"
screen,html.Screen,2_3_1_0_1_8,2022-02-03T15:49:04.382Z,,,,,,,,,,,,,,,,,11,,,,,,,,,,,,,,1574.2640000000247,,response,,,,4,B,,,,,,Space,keypress(Space),,,,lyrical,,,,----- -- ---- --- -- --- -------- ------------ Rongorongo --<br>- ------- ------ --------- -- ------------ -- --- ---- -----<br>------ ---- ---- ------ ------ ------- --- ----- ---------<br>---- --- -------- -------- --- --- -- ------- --- --- -----<br>-- --- ------ ------- --- --- -------- ---- --------- --<br>---------- -- -------- ----------------,306700,306697.5,305106.684,305107.7999999523,305123.236,306706.429,,8,Rongorongo
screen,html.Screen,2_3_1_0_1_9,2022-02-03T15:49:05.054Z,,,,,,,,,,,,,,,,,11,,,,,,,,,,,,,,663.1709999046288,,response,,,,4,B,,,,,,Space,keypress(Space),,,,lyrical,,,,----- -- ---- --- -- --- -------- ------------ ---------- is<br>- ------- ------ --------- -- ------------ -- --- ---- -----<br>------ ---- ---- ------ ------ ------- --- ----- ---------<br>---- --- -------- -------- --- --- -- ------- --- --- -----<br>-- --- ------ ------- --- --- -------- ---- --------- --<br>---------- -- -------- ----------------,307371.59999990463,307369.59999990463,306689.83,306700.2999999523,306706.429,307397.884,,9,is
screen,html.Screen,2_3_1_0_1_10,2022-02-03T15:49:05.574Z,,,,,,,,,,,,,,,,,11,,,,,,,,,,,,,,491.5159999761381,,response,,,,4,B,,,,,,Space,keypress(Space),,,,lyrical,,,,----- -- ---- --- -- --- -------- ------------ ---------- --<br>a ------- ------ --------- -- ------------ -- --- ---- -----<br>------ ---- ---- ------ ------ ------- --- ----- ---------<br>---- --- -------- -------- --- --- -- ------- --- --- -----<br>-- --- ------ ------- --- --- -------- ---- --------- --<br>---------- -- -------- ----------------,307891.1999999285,307889.39999997616,307356.602,307372,307397.884,307906.567,,10,a
screen,html.Screen,2_3_1_0_1_11,2022-02-03T15:49:06.332Z,,,,,,,,,,,,,,,,,11,,,,,,,,,,,,,,739.9330000000191,,response,,,,4,B,,,,,,Space,keypress(Space),,,,lyrical,,,,----- -- ---- --- -- --- -------- ------------ ---------- --<br>- writing ------ --------- -- ------------ -- --- ---- -----<br>------ ---- ---- ------ ------ ------- --- ----- ---------<br>---- --- -------- -------- --- --- -- ------- --- --- -----<br>-- --- ------ ------- --- --- -------- ---- --------- --<br>---------- -- -------- ----------------,308649.89999997616,308646.5,307889.852,307891.59999990463,307906.567,308656.386,,11,writing
screen,html.Screen,2_3_1_0_1_12,2022-02-03T15:49:06.870Z,,,,,,,,,,,,,,,,,11,,,,,,,,,,,,,,528.9139999523177,,response,,,,4,B,,,,,,Space,keypress(Space),,,,lyrical,,,,----- -- ---- --- -- --- -------- ------------ ---------- --<br>- ------- system --------- -- ------------ -- --- ---- -----<br>------ ---- ---- ------ ------ ------- --- ----- ---------<br>---- --- -------- -------- --- --- -- ------- --- --- -----<br>-- --- ------ ------- --- --- -------- ---- --------- --<br>---------- -- -------- ----------------,309187.2999999523,309185.2999999523,308639.92,308650.2999999523,308656.386,309189.722,,12,system
screen,html.Screen,2_3_1_0_1_13,2022-02-03T15:49:07.566Z,,,,,,,,,,,,,,,,,11,,,,,,,,,,,,,,691.6779999761493,,response,,,,4,B,,,,,,Space,keypress(Space),,,,lyrical,,,,----- -- ---- --- -- --- -------- ------------ ---------- --<br>- ------- ------ comprised -- ------------ -- --- ---- -----<br>------ ---- ---- ------ ------ ------- --- ----- ---------<br>---- --- -------- -------- --- --- -- ------- --- --- -----<br>-- --- ------ ------- --- --- -------- ---- --------- --<br>---------- -- -------- ----------------,309883.2999999523,309881.39999997616,309173.007,309187.59999990463,309189.722,309889.755,,13,comprised
screen,html.Screen,2_3_1_0_1_14,2022-02-03T15:49:08.134Z,,,,,,,,,,,,,,,,,11,,,,,,,,,,,,,,559.7449999999953,,response,,,,4,B,,,,,,Space,keypress(Space),,,,lyrical,,,,----- -- ---- --- -- --- -------- ------------ ---------- --<br>- ------- ------ --------- of ------------ -- --- ---- -----<br>------ ---- ---- ------ ------ ------- --- ----- ---------<br>---- --- -------- -------- --- --- -- ------- --- --- -----<br>-- --- ------ ------- --- --- -------- ---- --------- --<br>---------- -- -------- ----------------,310451.5,310449.5,309873.187,309883.6999999285,309889.755,310456.404,,14,of
screen,html.Screen,2_3_1_0_1_15,2022-02-03T15:49:09.070Z,,,,,,,,,,,,,,,,,11,,,,,,,,,,,,,,928.9959999761777,,response,,,,4,B,,,,,,Space,keypress(Space),,,,lyrical,,,,----- -- ---- --- -- --- -------- ------------ ---------- --<br>- ------- ------ --------- -- pictographs. -- --- ---- -----<br>------ ---- ---- ------ ------ ------- --- ----- ---------<br>---- --- -------- -------- --- --- -- ------- --- --- -----<br>-- --- ------ ------- --- --- -------- ---- --------- --<br>---------- -- -------- ----------------,311387.5,311385.39999997616,310439.754,310451.7999999523,310456.404,311426.76,,15,pictographs.
screen,html.Screen,2_3_1_0_1_16,2022-02-03T15:49:10.454Z,,,,,,,,,,,,,,,,,11,,,,,,,,,,,,,,1342.939999928465,,response,,,,4,B,,,,,,Space,keypress(Space),,,,lyrical,,,,----- -- ---- --- -- --- -------- ------------ ---------- --<br>- ------- ------ --------- -- ------------ It --- ---- -----<br>------ ---- ---- ------ ------ ------- --- ----- ---------<br>---- --- -------- -------- --- --- -- ------- --- --- -----<br>-- --- ------ ------- --- --- -------- ---- --------- --<br>---------- -- -------- ----------------,312771.89999997616,312769.6999999285,311373.175,311387.7999999523,311426.76,312806.563,,16,It
screen,html.Screen,2_3_1_0_1_17,2022-02-03T15:49:11.045Z,,,,,,,,,,,,,,,,,11,,,,,,,,,,,,,,554.6369999284507,,response,,,,4,B,,,,,,Space,keypress(Space),,,,lyrical,,,,----- -- ---- --- -- --- -------- ------------ ---------- --<br>- ------- ------ --------- -- ------------ -- has ---- -----<br>------ ---- ---- ------ ------ ------- --- ----- ---------<br>---- --- -------- -------- --- --- -- ------- --- --- -----<br>-- --- ------ ------- --- --- -------- ---- --------- --<br>---------- -- -------- ----------------,313363.1999999285,313361.1999999285,312789.843,312772.2999999523,312806.563,313373.044,,17,has
screen,html.Screen,2_3_1_0_1_18,2022-02-03T15:49:11.382Z,,,,,,,,,,,,,,,,,11,,,,,,,,,,,,,,324.4560000000056,,response,,,,4,B,,,,,,Space,keypress(Space),,,,lyrical,,,,----- -- ---- --- -- --- -------- ------------ ---------- --<br>- ------- ------ --------- -- ------------ -- --- been -----<br>------ ---- ---- ------ ------ ------- --- ----- ---------<br>---- --- -------- -------- --- --- -- ------- --- --- -----<br>-- --- ------ ------- --- --- -------- ---- --------- --<br>---------- -- -------- ----------------,313699.89999997616,313697.5,313356.493,313363.5,313373.044,313706.384,,18,been
screen,html.Screen,2_3_1_0_1_19,2022-02-03T15:49:11.766Z,,,,,,,,,,,,,,,,,11,,,,,,,,,,,,,,374.8159999284544,,response,,,,4,B,,,,,,Space,keypress(Space),,,,lyrical,,,,----- -- ---- --- -- --- -------- ------------ ---------- --<br>- ------- ------ --------- -- ------------ -- --- ---- found<br>------ ---- ---- ------ ------ ------- --- ----- ---------<br>---- --- -------- -------- --- --- -- ------- --- --- -----<br>-- --- ------ ------- --- --- -------- ---- --------- --<br>---------- -- -------- ----------------,314083.1999999285,314081.1999999285,313689.958,313700.2999999523,313706.384,314089.717,,19,found
screen,html.Screen,2_3_1_0_1_20,2022-02-03T15:49:12.182Z,,,,,,,,,,,,,,,,,11,,,,,,,,,,,,,,407.68299997615395,,response,,,,4,B,,,,,,Space,keypress(Space),,,,lyrical,,,,----- -- ---- --- -- --- -------- ------------ ---------- --<br>- ------- ------ --------- -- ------------ -- --- ---- -----<br>carved ---- ---- ------ ------ ------- --- ----- ---------<br>---- --- -------- -------- --- --- -- ------- --- --- -----<br>-- --- ------ ------- --- --- -------- ---- --------- --<br>---------- -- -------- ----------------,314499.7999999523,314497.39999997616,314073.072,314083.59999990463,314089.717,314506.435,,20,carved
screen,html.Screen,2_3_1_0_1_21,2022-02-03T15:49:12.804Z,,,,,,,,,,,,,,,,,11,,,,,,,,,,,,,,614.6649999046349,,response,,,,4,B,,,,,,Space,keypress(Space),,,,lyrical,,,,----- -- ---- --- -- --- -------- ------------ ---------- --<br>- ------- ------ --------- -- ------------ -- --- ---- -----<br>------ into ---- ------ ------ ------- --- ----- ---------<br>---- --- -------- -------- --- --- -- ------- --- --- -----<br>-- --- ------ ------- --- --- -------- ---- --------- --<br>---------- -- -------- ----------------,315122.1999999285,315121.09999990463,314489.905,314500.09999990463,314506.435,315139.838,,21,into
screen,html.Screen,2_3_1_0_1_22,2022-02-03T15:49:13.214Z,,,,,,,,,,,,,,,,,11,,,,,,,,,,,,,,389.6620000000112,,response,,,,4,B,,,,,,Space,keypress(Space),,,,lyrical,,,,----- -- ---- --- -- --- -------- ------------ ---------- --<br>- ------- ------ --------- -- ------------ -- --- ---- -----<br>------ ---- many ------ ------ ------- --- ----- ---------<br>---- --- -------- -------- --- --- -- ------- --- --- -----<br>-- --- ------ ------- --- --- -------- ---- --------- --<br>---------- -- -------- ----------------,315531.39999997616,315529.5,315106.716,315122.39999997616,315139.838,315539.726,,22,many
screen,html.Screen,2_3_1_0_1_23,2022-02-03T15:49:13.838Z,,,,,,,,,,,,,,,,,11,,,,,,,,,,,,,,613.6739999761339,,response,,,,4,B,,,,,,Space,keypress(Space),,,,lyrical,,,,----- -- ---- --- -- --- -------- ------------ ---------- --<br>- ------- ------ --------- -- ------------ -- --- ---- -----<br>------ ---- ---- oblong ------ ------- --- ----- ---------<br>---- --- -------- -------- --- --- -- ------- --- --- -----<br>-- --- ------ ------- --- --- -------- ---- --------- --<br>---------- -- -------- ----------------,316155.2999999523,316153.39999997616,315523.36,315531.7999999523,315539.726,316173.222,,23,oblong
screen,html.Screen,2_3_1_0_1_24,2022-02-03T15:49:14.534Z,,,,,,,,,,,,,,,,,11,,,,,,,,,,,,,,676.2779999999912,,response,,,,4,B,,,,,,Space,keypress(Space),,,,lyrical,,,,----- -- ---- --- -- --- -------- ------------ ---------- --<br>- ------- ------ --------- -- ------------ -- --- ---- -----<br>------ ---- ---- ------ wooden ------- --- ----- ---------<br>---- --- -------- -------- --- --- -- ------- --- --- -----<br>-- --- ------ ------- --- --- -------- ---- --------- --<br>---------- -- -------- ----------------,316851.39999997616,316849.5,316156.523,316155.7999999523,316173.222,316856.42,,24,wooden
screen,html.Screen,2_3_1_0_1_25,2022-02-03T15:49:14.966Z,,,,,,,,,,,,,,,,,11,,,,,,,,,,,,,,424.97999997617444,,response,,,,4,B,,,,,,Space,keypress(Space),,,,lyrical,,,,----- -- ---- --- -- --- -------- ------------ ---------- --<br>- ------- ------ --------- -- ------------ -- --- ---- -----<br>------ ---- ---- ------ ------ tablets --- ----- ---------<br>---- --- -------- -------- --- --- -- ------- --- --- -----<br>-- --- ------ ------- --- --- -------- ---- --------- --<br>---------- -- -------- ----------------,317283.2999999523,317281.39999997616,316839.819,316851.6999999285,316856.42,317289.725,,25,tablets
screen,html.Screen,2_3_1_0_1_26,2022-02-03T15:49:15.566Z,,,,,,,,,,,,,,,,,11,,,,,,,,,,,,,,591.5749999523396,,response,,,,4,B,,,,,,Space,keypress(Space),,,,lyrical,,,,----- -- ---- --- -- --- -------- ------------ ---------- --<br>- ------- ------ --------- -- ------------ -- --- ---- -----<br>------ ---- ---- ------ ------ ------- and ----- ---------<br>---- --- -------- -------- --- --- -- ------- --- --- -----<br>-- --- ------ ------- --- --- -------- ---- --------- --<br>---------- -- -------- ----------------,317883.39999997616,317881.2999999523,317273.203,317283.59999990463,317289.725,317889.721,,26,and
screen,html.Screen,2_3_1_0_1_27,2022-02-03T15:49:15.910Z,,,,,,,,,,,,,,,,,11,,,,,,,,,,,,,,335.5789999522967,,response,,,,4,B,,,,,,Space,keypress(Space),,,,lyrical,,,,----- -- ---- --- -- --- -------- ------------ ---------- --<br>- ------- ------ --------- -- ------------ -- --- ---- -----<br>------ ---- ---- ------ ------ ------- --- other ---------<br>---- --- -------- -------- --- --- -- ------- --- --- -----<br>-- --- ------ ------- --- --- -------- ---- --------- --<br>---------- -- -------- ----------------,318227.2999999523,318225.2999999523,317873.154,317883.6999999285,317889.721,318239.745,,27,other
screen,html.Screen,2_3_1_0_1_28,2022-02-03T15:49:16.460Z,,,,,,,,,,,,,,,,,11,,,,,,,,,,,,,,534.8549999046372,,response,,,,4,B,,,,,,Space,keypress(Space),,,,lyrical,,,,----- -- ---- --- -- --- -------- ------------ ---------- --<br>- ------- ------ --------- -- ------------ -- --- ---- -----<br>------ ---- ---- ------ ------ ------- --- ----- artifacts<br>---- --- -------- -------- --- --- -- ------- --- --- -----<br>-- --- ------ ------- --- --- -------- ---- --------- --<br>---------- -- -------- ----------------,318777.6999999285,318774.59999990463,318223.211,318227.59999990463,318239.745,318789.71,,28,artifacts
screen,html.Screen,2_3_1_0_1_29,2022-02-03T15:49:17.053Z,,,,,,,,,,,,,,,,,11,,,,,,,,,,,,,,579.4899999284535,,response,,,,4,B,,,,,,Space,keypress(Space),,,,lyrical,,,,----- -- ---- --- -- --- -------- ------------ ---------- --<br>- ------- ------ --------- -- ------------ -- --- ---- -----<br>------ ---- ---- ------ ------ ------- --- ----- ---------<br>from --- -------- -------- --- --- -- ------- --- --- -----<br>-- --- ------ ------- --- --- -------- ---- --------- --<br>---------- -- -------- ----------------,319371.1999999285,319369.1999999285,318773.207,318778,318789.71,319396.594,,29,from
screen,html.Screen,2_3_1_0_1_30,2022-02-03T15:49:17.342Z,,,,,,,,,,,,,,,,,11,,,,,,,,,,,,,,260.90600000001723,,response,,,,4,B,,,,,,Space,keypress(Space),,,,lyrical,,,,----- -- ---- --- -- --- -------- ------------ ---------- --<br>- ------- ------ --------- -- ------------ -- --- ---- -----<br>------ ---- ---- ------ ------ ------- --- ----- ---------<br>---- the -------- -------- --- --- -- ------- --- --- -----<br>-- --- ------ ------- --- --- -------- ---- --------- --<br>---------- -- -------- ----------------,319659.7999999523,319657.5,319356.386,319371.5,319396.594,319673.015,,30,the
screen,html.Screen,2_3_1_0_1_31,2022-02-03T15:49:17.782Z,,,,,,,,,,,,,,,,,11,,,,,,,,,,,,,,424.48499999998603,,response,,,,4,B,,,,,,Space,keypress(Space),,,,lyrical,,,,----- -- ---- --- -- --- -------- ------------ ---------- --<br>- ------- ------ --------- -- ------------ -- --- ---- -----<br>------ ---- ---- ------ ------ ------- --- ----- ---------<br>---- --- island's -------- --- --- -- ------- --- --- -----<br>-- --- ------ ------- --- --- -------- ---- --------- --<br>---------- -- -------- ----------------,320100.09999990463,320097.5,319656.554,319660.09999990463,319673.015,320106.426,,31,island's
screen,html.Screen,2_3_1_0_1_32,2022-02-03T15:49:18.230Z,,,,,,,,,,,,,,,,,11,,,,,,,,,,,,,,438.6739999046549,,response,,,,4,B,,,,,,Space,keypress(Space),,,,lyrical,,,,----- -- ---- --- -- --- -------- ------------ ---------- --<br>- ------- ------ --------- -- ------------ -- --- ---- -----<br>------ ---- ---- ------ ------ ------- --- ----- ---------<br>---- --- -------- history. --- --- -- ------- --- --- -----<br>-- --- ------ ------- --- --- -------- ---- --------- --<br>---------- -- -------- ----------------,320547.2999999523,320545.09999990463,320089.925,320100.59999990463,320106.426,320557.051,,32,history.
screen,html.Screen,2_3_1_0_1_33,2022-02-03T15:49:18.679Z,,,,,,,,,,,,,,,,,11,,,,,,,,,,,,,,436.3489999761805,,response,,,,4,B,,,,,,Space,keypress(Space),,,,lyrical,,,,----- -- ---- --- -- --- -------- ------------ ---------- --<br>- ------- ------ --------- -- ------------ -- --- ---- -----<br>------ ---- ---- ------ ------ ------- --- ----- ---------<br>---- --- -------- -------- The --- -- ------- --- --- -----<br>-- --- ------ ------- --- --- -------- ---- --------- --<br>---------- -- -------- ----------------,320997,320993.39999997616,320539.966,320547.6999999285,320557.051,321006.39,,33,The
screen,html.Screen,2_3_1_0_1_34,2022-02-03T15:49:18.998Z,,,,,,,,,,,,,,,,,11,,,,,,,,,,,,,,307.0099999761442,,response,,,,4,B,,,,,,Space,keypress(Space),,,,lyrical,,,,----- -- ---- --- -- --- -------- ------------ ---------- --<br>- ------- ------ --------- -- ------------ -- --- ---- -----<br>------ ---- ---- ------ ------ ------- --- ----- ---------<br>---- --- -------- -------- --- art -- ------- --- --- -----<br>-- --- ------ ------- --- --- -------- ---- --------- --<br>---------- -- -------- ----------------,321315.2999999523,321313.39999997616,320989.873,320997.39999997616,321006.39,321323.16,,34,art
screen,html.Screen,2_3_1_0_1_35,2022-02-03T15:49:19.270Z,,,,,,,,,,,,,,,,,11,,,,,,,,,,,,,,262.23999997618375,,response,,,,4,B,,,,,,Space,keypress(Space),,,,lyrical,,,,----- -- ---- --- -- --- -------- ------------ ---------- --<br>- ------- ------ --------- -- ------------ -- --- ---- -----<br>------ ---- ---- ------ ------ ------- --- ----- ---------<br>---- --- -------- -------- --- --- of ------- --- --- -----<br>-- --- ------ ------- --- --- -------- ---- --------- --<br>---------- -- -------- ----------------,321587.59999990463,321585.39999997616,321306.55,321315.6999999285,321323.16,321621.611,,35,of
screen,html.Screen,2_3_1_0_1_36,2022-02-03T15:49:19.541Z,,,,,,,,,,,,,,,,,11,,,,,,,,,,,,,,235.5889999284991,,response,,,,4,B,,,,,,Space,keypress(Space),,,,lyrical,,,,----- -- ---- --- -- --- -------- ------------ ---------- --<br>- ------- ------ --------- -- ------------ -- --- ---- -----<br>------ ---- ---- ------ ------ ------- --- ----- ---------<br>---- --- -------- -------- --- --- -- writing --- --- -----<br>-- --- ------ ------- --- --- -------- ---- --------- --<br>---------- -- -------- ----------------,321859,321857.1999999285,321573.223,321588,321621.611,321873.068,,36,writing
screen,html.Screen,2_3_1_0_1_37,2022-02-03T15:49:20.118Z,,,,,,,,,,,,,,,,,11,,,,,,,,,,,,,,560.2319999522879,,response,,,,4,B,,,,,,Space,keypress(Space),,,,lyrical,,,,----- -- ---- --- -- --- -------- ------------ ---------- --<br>- ------- ------ --------- -- ------------ -- --- ---- -----<br>------ ---- ---- ------ ------ ------- --- ----- ---------<br>---- --- -------- -------- --- --- -- ------- was --- -----<br>-- --- ------ ------- --- --- -------- ---- --------- --<br>---------- -- -------- ----------------,322435.39999997616,322433.2999999523,321856.568,321859.09999990463,321873.068,322439.758,,37,was
screen,html.Screen,2_3_1_0_1_38,2022-02-03T15:49:20.613Z,,,,,,,,,,,,,,,,,11,,,,,,,,,,,,,,489.7420000000275,,response,,,,4,B,,,,,,Space,keypress(Space),,,,lyrical,,,,----- -- ---- --- -- --- -------- ------------ ---------- --<br>- ------- ------ --------- -- ------------ -- --- ---- -----<br>------ ---- ---- ------ ------ ------- --- ----- ---------<br>---- --- -------- -------- --- --- -- ------- --- not -----<br>-- --- ------ ------- --- --- -------- ---- --------- --<br>---------- -- -------- ----------------,322931.1999999285,322929.5,322423.08,322435.6999999285,322439.758,322939.719,,38,not
