sender,sender_type,sender_id,timestamp,meta,,Blues,Classical,Country,Dance,Electronic,Folk,Gospel,Hip-Hop,Jazz,Latin,Musical/Film,New-age,Pop,Prolific_id,Provo_ID,R&B,Rap,Reggae,Religious,Rock,Soul,Swing,Traditional,age,artist_name,correct,correctResponse,distraction,duration,education,ended_on,familiarity,gender,headphone_check_performance,item,list,music_frequency,offensiveness,pleasantness,position_correct,preference,response,response_action,snippet_file,song_name,song_rating,sound,stimulus_1,stimulus_2,stimulus_3,text,time_commit,time_end,time_render,time_run,time_show,time_switch,url,word,word_ID
Prolific ID,html.Form,0,2022-02-16T09:02:52.602Z,"{""labjs_version"":""20.2.2"",""labjs_build"":{""flavor"":""production"",""commit"":""a25486e0c714a0ae2ce03ff94b7bb6896854dcfa""},""location"":""https://run.pavlovia.org/mvasilev/prolific2_music_c/"",""userAgent"":""Mozilla/5.0 (Windows NT 10.0; Win64; x64) AppleWebKit/537.36 (KHTML, like Gecko) Chrome/97.0.4692.99 Safari/537.36"",""platform"":""Win32"",""language"":""en-GB"",""locale"":""en-US"",""timeZone"":""Europe/London"",""timezoneOffset"":0,""screen_width"":1366,""screen_height"":768,""scroll_width"":1366,""scroll_height"":608,""window_innerWidth"":1366,""window_innerHeight"":656,""devicePixelRatio"":1}",,,,,,,,,,,,,,,6056ee916e49a4c2d2474c7b,,,,,,,,,,,,,,,4274.440999988079,,form submission,,,,,,,,,,,,,,,,,,,,,14491.799999982119,14491.199999988079,10166.929,10180.59999999404,10216.759,14534.691,{},,
Introduction,html.Screen,1_0,2022-02-16T09:05:23.718Z,,,,,,,,,,,,,,,,,,,,,,,,,,,,,,,151070.809,,response,,,,,,,,,,,continue,click button,,,,,,,,,165607.89999997616,165605.5,14484.663,14492.299999982119,14534.691,165628.103,,,
Volume calibration,html.Screen,1_1,2022-02-16T09:05:42.915Z,,,,,,,,,,,,,,,,,,,,,,,,,,,,,,,19173.996999994037,,response,,,,,,,,,,,continue,click button,,,,,,,,,184804.89999997616,184802.09999999404,165594.78,165608.09999999404,165628.103,184816.922,,,
Task instructions,html.Screen,1_2,2022-02-16T09:05:54.611Z,,,,,,,,,,,,,,,,,,,,,,,,,,,,,,,11682.977999976167,,response,,,,,,,,,,,continue,click button,,,,,,,,,196500.69999998808,196499.89999997616,184800.243,184804.89999997616,184816.922,196503.537,,,
Sounds,html.Screen,1_3_0_0,2022-02-16T09:05:58.854Z,,,,,,,,,,,,,,,,,,,,,,,,,,,,,,,4251.22099999999,,timeout,,,,,,,,,1,,,,,,,,S,I,O,,200744.19999998808,200738.144,196486.97,196500.89999997616,196503.537,200754.758,,,
Judgement,html.Screen,1_3_0_1,2022-02-16T09:06:00.297Z,,,,,,,,,,,,,,,,,,,,,,,,,,,,true,1,,1431.841999994038,,response,,,,,,,,,1,,1,click #choice-1,,,,,S,I,O,,202187.5,202186.59999999404,200738.144,200744.39999997616,200754.758,202188.486,,,
Trial,flow.Sequence,1_3_0,2022-02-16T09:06:00.298Z,,,,,,,,,,,,,,,,,,,,,,,,,,,,,,,5683.062999994028,,completion,,,,,,,,,1,,,,,,,,S,I,O,,202187.79999998212,202186.59999999404,196486.97,196500.79999998212,196503.537,202188.486,,,
Sounds,html.Screen,1_3_1_0,2022-02-16T09:06:04.534Z,,,,,,,,,,,,,,,,,,,,,,,,,,,,,,,4251.203999999998,,timeout,,,,,,,,,3,,,,,,,,I,O,S,,206423.89999997616,206423.112,202171.909,202188,202188.486,206439.69,,,
Judgement,html.Screen,1_3_1_1,2022-02-16T09:06:05.377Z,,,,,,,,,,,,,,,,,,,,,,,,,,,,true,3,,826.7099999761558,,response,,,,,,,,,3,,3,click #choice-3,,,,,I,O,S,,207267.29999998212,207266.39999997616,206423.112,206424,206439.69,207273.291,,,
Trial,flow.Sequence,1_3_1,2022-02-16T09:06:05.377Z,,,,,,,,,,,,,,,,,,,,,,,,,,,,,,,5077.913999976154,,completion,,,,,,,,,3,,,,,,,,I,O,S,,207267.5,207266.39999997616,202171.909,202187.89999997616,202188.486,207273.291,,,
Sounds,html.Screen,1_3_2_0,2022-02-16T09:06:09.619Z,,,,,,,,,,,,,,,,,,,,,,,,,,,,,,,4251.252999999997,,timeout,,,,,,,,,1,,,,,,,,S,O,I,,211508.69999998808,211507.842,207256.694,207267.59999999404,207273.291,211524.544,,,
Judgement,html.Screen,1_3_2_1,2022-02-16T09:06:10.226Z,,,,,,,,,,,,,,,,,,,,,,,,,,,,true,1,,590.2559999821242,,response,,,,,,,,,1,,1,click #choice-1,,,,,S,O,I,,212115.69999998808,212114.79999998212,211507.842,211509,211524.544,212124.629,,,
Trial,flow.Sequence,1_3_2,2022-02-16T09:06:10.226Z,,,,,,,,,,,,,,,,,,,,,,,,,,,,,,,4841.508999982121,,completion,,,,,,,,,1,,,,,,,,S,O,I,,212115.89999997616,212114.79999998212,207256.694,207267.59999999404,207273.291,212124.629,,,
Sounds,html.Screen,1_3_3_0,2022-02-16T09:06:14.470Z,,,,,,,,,,,,,,,,,,,,,,,,,,,,,,,4251.219000000012,,timeout,,,,,,,,,3,,,,,,,,O,I,S,,216360.09999999404,216359.229,212108.078,212116.09999999404,212124.629,216375.848,,,
Judgement,html.Screen,1_3_3_1,2022-02-16T09:06:15.024Z,,,,,,,,,,,,,,,,,,,,,,,,,,,,true,3,,537.05199997616,,response,,,,,,,,,3,,3,click #choice-3,,,,,O,I,S,,216913.89999997616,216912.89999997616,216359.229,216360.19999998808,216375.848,216926.041,,,
Trial,flow.Sequence,1_3_3,2022-02-16T09:06:15.024Z,,,,,,,,,,,,,,,,,,,,,,,,,,,,,,,4788.270999976172,,completion,,,,,,,,,3,,,,,,,,O,I,S,,216914.09999999404,216912.89999997616,212108.078,212116,212124.629,216926.041,,,
Sounds,html.Screen,1_3_4_0,2022-02-16T09:06:19.271Z,,,,,,,,,,,,,,,,,,,,,,,,,,,,,,,4251.260999999999,,timeout,,,,,,,,,2,,,,,,,,O,S,I,,221161.5,221160.624,216909.452,216914.29999998212,216926.041,221177.302,,,
Judgement,html.Screen,1_3_4_1,2022-02-16T09:06:19.841Z,,,,,,,,,,,,,,,,,,,,,,,,,,,,true,2,,552.9979999821226,,response,,,,,,,,,2,,2,click #choice-2,,,,,O,S,I,,221731.09999999404,221730.29999998212,221160.624,221161.5,221177.302,221744.12,,,
Trial,flow.Sequence,1_3_4,2022-02-16T09:06:19.841Z,,,,,,,,,,,,,,,,,,,,,,,,,,,,,,,4804.258999982121,,completion,,,,,,,,,2,,,,,,,,O,S,I,,221731.19999998808,221730.29999998212,216909.452,216914.29999998212,216926.041,221744.12,,,
Sounds,html.Screen,1_3_5_0,2022-02-16T09:06:24.090Z,,,,,,,,,,,,,,,,,,,,,,,,,,,,,,,4251.19200000001,,timeout,,,,,,,,,2,,,,,,,,I,S,O,,225979.29999998212,225978.655,221727.472,221731.29999998212,221744.12,225995.312,,,
Judgement,html.Screen,1_3_5_1,2022-02-16T09:06:24.541Z,,,,,,,,,,,,,,,,,,,,,,,,,,,,true,2,,433.7879999940342,,response,,,,,,,,,2,,2,click #choice-2,,,,,I,S,O,,226430.09999999404,226429.09999999404,225978.655,225979.5,225995.312,226445.417,,,
Trial,flow.Sequence,1_3_5,2022-02-16T09:06:24.541Z,,,,,,,,,,,,,,,,,,,,,,,,,,,,,,,4684.979999994044,,completion,,,,,,,,,2,,,,,,,,I,S,O,,226430.29999998212,226429.09999999404,221727.472,221731.29999998212,221744.12,226445.417,,,
Task,flow.Loop,1_3,2022-02-16T09:06:24.545Z,,,,,,,,,,,,,,,,,,,,,,,,,,,,,,,29925.56299999403,,completion,,,1,,,,,,,,,,,,,,,,,,226434.19999998808,226429.09999999404,196486.97,196500.79999998212,196503.537,226445.417,,,
Trap,html.Screen,1_4,2022-02-16T09:06:24.546Z,,,,,,,,,,,,,,,,,,,,,,,,,,,,,,,NaN,,skipped,,,,,,,,,,,,,,,,,,,,,226435.19999998808,226429.09999999404,,226435.09999999404,,226445.417,,,
Thanks,html.Screen,1_5,2022-02-16T09:06:28.616Z,,,,,,,,,,,,,,,,,,,,,,,,,,,,,,,4059.5830000000133,,response,,,,,,,,,,,continue,click button,,,,,,,,,230505.89999997616,230505,226428.809,226435.19999998808,226445.417,235765.196,,,
Headphone screening,flow.Sequence,1,2022-02-16T09:06:28.617Z,,,,,,,,,,,,,,,,,,,,,,,,,,,,,,,215970.309,,completion,,,,,,,,,,,,,,,,,,,,,230506,230505,14484.663,14492.199999988079,14534.691,235765.196,,,
Instructions,html.Page,2_0,2022-02-16T09:06:49.376Z,,,,,,,,,,,,,,,,,,,,,,,,,,,,,,,15499.403999994043,,form submission,,,,,,,,,,,,,,,,,,,,,251265.09999999404,251264.59999999404,235698.155,235716.79999998212,235765.196,251269.164,,,
Holding screen,html.Screen,2_1_0_0,2022-02-16T09:06:59.366Z,,,,,,,,,,,,,,,,,,,,,,,,,,,,,,,10019.506000000023,,timeout,,,,,,,,,,,,,,,,,,,,,261256,261255.401,251252.535,251265.19999998808,251269.164,261288.67,,,
screen,html.Screen,2_1_0_1_0,2022-02-16T09:07:00.487Z,,,,,,,,,,,,,,,,,53,,,,,,,,,,,,,,1084.6299999821058,,response,,,,99,,,,,,,Space,keypress(Space),,,,,,,,When -- ----- -- ------ - ------- --- ----------<br>------------- ------ ------ ---- ---- ------- ----- -- ----<br>-------- ------- -- ---------- --- - --- ----- ----- ----<br>---- --- --- ----- --- ---- ---- ------- ----- ---- -------<br>--- --- -- ----- -- --- ---- -- --- ---- -- ------ ------<br>--- ----- -- ----,262376.39999997616,262373.2999999821,261255.401,261256.19999998808,261288.67,262389.051,,0,When
screen,html.Screen,2_1_0_1_1,2022-02-16T09:07:01.054Z,,,,,,,,,,,,,,,,,53,,,,,,,,,,,,,,553.3489999761805,,response,,,,99,,,,,,,Space,keypress(Space),,,,,,,,---- it ----- -- ------ - ------- --- ----------<br>------------- ------ ------ ---- ---- ------- ----- -- ----<br>-------- ------- -- ---------- --- - --- ----- ----- ----<br>---- --- --- ----- --- ---- ---- ------- ----- ---- -------<br>--- --- -- ----- -- --- ---- -- --- ---- -- ------ ------<br>--- ----- -- ----,262943.1999999881,262942.39999997616,262372.572,262376.7999999821,262389.051,262955.904,,1,it
screen,html.Screen,2_1_0_1_2,2022-02-16T09:07:01.671Z,,,,,,,,,,,,,,,,,53,,,,,,,,,,,,,,604.3959999821382,,response,,,,99,,,,,,,Space,keypress(Space),,,,,,,,---- -- comes -- ------ - ------- --- ----------<br>------------- ------ ------ ---- ---- ------- ----- -- ----<br>-------- ------- -- ---------- --- - --- ----- ----- ----<br>---- --- --- ----- --- ---- ---- ------- ----- ---- -------<br>--- --- -- ----- -- --- ---- -- --- ---- -- ------ ------<br>--- ----- -- ----,263561,263560.2999999821,262939.247,262943.2999999821,262955.904,263572.702,,2,comes
screen,html.Screen,2_1_0_1_3,2022-02-16T09:07:02.080Z,,,,,,,,,,,,,,,,,53,,,,,,,,,,,,,,395.6979999761679,,response,,,,99,,,,,,,Space,keypress(Space),,,,,,,,---- -- ----- to ------ - ------- --- ----------<br>------------- ------ ------ ---- ---- ------- ----- -- ----<br>-------- ------- -- ---------- --- - --- ----- ----- ----<br>---- --- --- ----- --- ---- ---- ------- ----- ---- -------<br>--- --- -- ----- -- --- ---- -- --- ---- -- ------ ------<br>--- ----- -- ----,263969.09999999404,263968.39999997616,263556.105,263561.09999999404,263572.702,263972.77,,3,to
screen,html.Screen,2_1_0_1_4,2022-02-16T09:07:02.576Z,,,,,,,,,,,,,,,,,53,,,,,,,,,,,,,,492.3299999940209,,response,,,,99,,,,,,,Space,keypress(Space),,,,,,,,---- -- ----- -- having - ------- --- ----------<br>------------- ------ ------ ---- ---- ------- ----- -- ----<br>-------- ------- -- ---------- --- - --- ----- ----- ----<br>---- --- --- ----- --- ---- ---- ------- ----- ---- -------<br>--- --- -- ----- -- --- ---- -- --- ---- -- ------ ------<br>--- ----- -- ----,264465.7999999821,264465.09999999404,263956.205,263969.2999999821,263972.77,264472.943,,4,having
screen,html.Screen,2_1_0_1_5,2022-02-16T09:07:03.049Z,,,,,,,,,,,,,,,,,53,,,,,,,,,,,,,,464.5569999999716,,response,,,,99,,,,,,,Space,keypress(Space),,,,,,,,---- -- ----- -- ------ a ------- --- ----------<br>------------- ------ ------ ---- ---- ------- ----- -- ----<br>-------- ------- -- ---------- --- - --- ----- ----- ----<br>---- --- --- ----- --- ---- ---- ------- ----- ---- -------<br>--- --- -- ----- -- --- ---- -- --- ---- -- ------ ------<br>--- ----- -- ----,264938.2999999821,264937.5,264456.389,264466,264472.943,264957.42,,5,a
screen,html.Screen,2_1_0_1_6,2022-02-16T09:07:03.667Z,,,,,,,,,,,,,,,,,53,,,,,,,,,,,,,,597.7799999880954,,response,,,,99,,,,,,,Space,keypress(Space),,,,,,,,---- -- ----- -- ------ - lasting --- ----------<br>------------- ------ ------ ---- ---- ------- ----- -- ----<br>-------- ------- -- ---------- --- - --- ----- ----- ----<br>---- --- --- ----- --- ---- ---- ------- ----- ---- -------<br>--- --- -- ----- -- --- ---- -- --- ---- -- ------ ------<br>--- ----- -- ----,265556.09999999404,265555.1999999881,264923.169,264938.39999997616,264957.42,265573.295,,6,lasting
screen,html.Screen,2_1_0_1_7,2022-02-16T09:07:04.067Z,,,,,,,,,,,,,,,,,53,,,,,,,,,,,,,,382.0049999821349,,response,,,,99,,,,,,,Space,keypress(Space),,,,,,,,---- -- ----- -- ------ - ------- and ----------<br>------------- ------ ------ ---- ---- ------- ----- -- ----<br>-------- ------- -- ---------- --- - --- ----- ----- ----<br>---- --- --- ----- --- ---- ---- ------- ----- ---- -------<br>--- --- -- ----- -- --- ---- -- --- ---- -- ------ ------<br>--- ----- -- ----,265956.1999999881,265955.2999999821,265556.654,265556.2999999821,265573.295,265990.07,,7,and
screen,html.Screen,2_1_0_1_8,2022-02-16T09:07:04.596Z,,,,,,,,,,,,,,,,,53,,,,,,,,,,,,,,494.1299999880721,,response,,,,99,,,,,,,Space,keypress(Space),,,,,,,,---- -- ----- -- ------ - ------- --- fulfilling<br>------------- ------ ------ ---- ---- ------- ----- -- ----<br>-------- ------- -- ---------- --- - --- ----- ----- ----<br>---- --- --- ----- --- ---- ---- ------- ----- ---- -------<br>--- --- -- ----- -- --- ---- -- --- ---- -- ------ ------<br>--- ----- -- ----,266485.09999999404,266484.1999999881,265973.39,265956.2999999821,265990.07,266490.222,,8,fulfilling
screen,html.Screen,2_1_0_1_9,2022-02-16T09:07:05.028Z,,,,,,,,,,,,,,,,,53,,,,,,,,,,,,,,426.27799999999115,,response,,,,99,,,,,,,Space,keypress(Space),,,,,,,,"---- -- ----- -- ------ - ------- --- ----------<br>relationship, ------ ------ ---- ---- ------- ----- -- ----<br>-------- ------- -- ---------- --- - --- ----- ----- ----<br>---- --- --- ----- --- ---- ---- ------- ----- ---- -------<br>--- --- -- ----- -- --- ---- -- --- ---- -- ------ ------<br>--- ----- -- ----",266917.39999997616,266916.5,266473.636,266485.2999999821,266490.222,266923.679,,9,"relationship,"
screen,html.Screen,2_1_0_1_10,2022-02-16T09:07:05.460Z,,,,,,,,,,,,,,,,,53,,,,,,,,,,,,,,425.1209999821149,,response,,,,99,,,,,,,Space,keypress(Space),,,,,,,,---- -- ----- -- ------ - ------- --- ----------<br>------------- common ------ ---- ---- ------- ----- -- ----<br>-------- ------- -- ---------- --- - --- ----- ----- ----<br>---- --- --- ----- --- ---- ---- ------- ----- ---- -------<br>--- --- -- ----- -- --- ---- -- --- ---- -- ------ ------<br>--- ----- -- ----,267349.6999999881,267348.7999999821,266907.082,266917.5,266923.679,267357.18,,10,common
screen,html.Screen,2_1_0_1_11,2022-02-16T09:07:05.965Z,,,,,,,,,,,,,,,,,53,,,,,,,,,,,,,,496.4199999940465,,response,,,,99,,,,,,,Space,keypress(Space),,,,,,,,---- -- ----- -- ------ - ------- --- ----------<br>------------- ------ wisdom ---- ---- ------- ----- -- ----<br>-------- ------- -- ---------- --- - --- ----- ----- ----<br>---- --- --- ----- --- ---- ---- ------- ----- ---- -------<br>--- --- -- ----- -- --- ---- -- --- ---- -- ------ ------<br>--- ----- -- ----,267854.5,267853.59999999404,267340.516,267349.89999997616,267357.18,267857.209,,11,wisdom
screen,html.Screen,2_1_0_1_12,2022-02-16T09:07:06.405Z,,,,,,,,,,,,,,,,,53,,,,,,,,,,,,,,436.6909999761847,,response,,,,99,,,,,,,Space,keypress(Space),,,,,,,,---- -- ----- -- ------ - ------- --- ----------<br>------------- ------ ------ says ---- ------- ----- -- ----<br>-------- ------- -- ---------- --- - --- ----- ----- ----<br>---- --- --- ----- --- ---- ---- ------- ----- ---- -------<br>--- --- -- ----- -- --- ---- -- --- ---- -- ------ ------<br>--- ----- -- ----,268294.89999997616,268293.89999997616,267840.673,267854.6999999881,267857.209,268307.363,,12,says
screen,html.Screen,2_1_0_1_13,2022-02-16T09:07:06.814Z,,,,,,,,,,,,,,,,,53,,,,,,,,,,,,,,395.03699997614603,,response,,,,99,,,,,,,Space,keypress(Space),,,,,,,,---- -- ----- -- ------ - ------- --- ----------<br>------------- ------ ------ ---- that ------- ----- -- ----<br>-------- ------- -- ---------- --- - --- ----- ----- ----<br>---- --- --- ----- --- ---- ---- ------- ----- ---- -------<br>--- --- -- ----- -- --- ---- -- --- ---- -- ------ ------<br>--- ----- -- ----,268703.1999999881,268702.39999997616,268290.8,268294.89999997616,268307.363,268707.497,,13,that
screen,html.Screen,2_1_0_1_14,2022-02-16T09:07:07.278Z,,,,,,,,,,,,,,,,,53,,,,,,,,,,,,,,459.5030000000261,,response,,,,99,,,,,,,Space,keypress(Space),,,,,,,,---- -- ----- -- ------ - ------- --- ----------<br>------------- ------ ------ ---- ---- feeling ----- -- ----<br>-------- ------- -- ---------- --- - --- ----- ----- ----<br>---- --- --- ----- --- ---- ---- ------- ----- ---- -------<br>--- --- -- ----- -- --- ---- -- --- ---- -- ------ ------<br>--- ----- -- ----,269167.6999999881,269167,268690.895,268703.2999999821,268707.497,269174.316,,14,feeling
screen,html.Screen,2_1_0_1_15,2022-02-16T09:07:07.735Z,,,,,,,,,,,,,,,,,53,,,,,,,,,,,,,,449.0839999761665,,response,,,,99,,,,,,,Space,keypress(Space),,,,,,,,---- -- ----- -- ------ - ------- --- ----------<br>------------- ------ ------ ---- ---- ------- close -- ----<br>-------- ------- -- ---------- --- - --- ----- ----- ----<br>---- --- --- ----- --- ---- ---- ------- ----- ---- -------<br>--- --- -- ----- -- --- ---- -- --- ---- -- ------ ------<br>--- ----- -- ----,269624.1999999881,269623.39999997616,269157.739,269167.89999997616,269174.316,269641.082,,15,close
screen,html.Screen,2_1_0_1_16,2022-02-16T09:07:08.127Z,,,,,,,,,,,,,,,,,53,,,,,,,,,,,,,,374.51799999404466,,response,,,,99,,,,,,,Space,keypress(Space),,,,,,,,---- -- ----- -- ------ - ------- --- ----------<br>------------- ------ ------ ---- ---- ------- ----- to ----<br>-------- ------- -- ---------- --- - --- ----- ----- ----<br>---- --- --- ----- --- ---- ---- ------- ----- ---- -------<br>--- --- -- ----- -- --- ---- -- --- ---- -- ------ ------<br>--- ----- -- ----,270016.39999997616,270015.59999999404,269624.485,269624.39999997616,269641.082,270024.539,,16,to
screen,html.Screen,2_1_0_1_17,2022-02-16T09:07:08.608Z,,,,,,,,,,,,,,,,,53,,,,,,,,,,,,,,471.76099998212885,,response,,,,99,,,,,,,Space,keypress(Space),,,,,,,,---- -- ----- -- ------ - ------- --- ----------<br>------------- ------ ------ ---- ---- ------- ----- -- your<br>-------- ------- -- ---------- --- - --- ----- ----- ----<br>---- --- --- ----- --- ---- ---- ------- ----- ---- -------<br>--- --- -- ----- -- --- ---- -- --- ---- -- ------ ------<br>--- ----- -- ----,270497,270496.2999999821,270007.945,270016.59999999404,270024.539,270507.962,,17,your
screen,html.Screen,2_1_0_1_18,2022-02-16T09:07:09.008Z,,,,,,,,,,,,,,,,,53,,,,,,,,,,,,,,388.4379999761586,,response,,,,99,,,,,,,Space,keypress(Space),,,,,,,,---- -- ----- -- ------ - ------- --- ----------<br>------------- ------ ------ ---- ---- ------- ----- -- ----<br>romantic ------- -- ---------- --- - --- ----- ----- ----<br>---- --- --- ----- --- ---- ---- ------- ----- ---- -------<br>--- --- -- ----- -- --- ---- -- --- ---- -- ------ ------<br>--- ----- -- ----,270897.2999999821,270896.39999997616,270491.413,270497.09999999404,270507.962,270908.114,,18,romantic
screen,html.Screen,2_1_0_1_19,2022-02-16T09:07:09.408Z,,,,,,,,,,,,,,,,,53,,,,,,,,,,,,,,388.5859999880777,,response,,,,99,,,,,,,Space,keypress(Space),,,,,,,,---- -- ----- -- ------ - ------- --- ----------<br>------------- ------ ------ ---- ---- ------- ----- -- ----<br>-------- partner -- ---------- --- - --- ----- ----- ----<br>---- --- --- ----- --- ---- ---- ------- ----- ---- -------<br>--- --- -- ----- -- --- ---- -- --- ---- -- ------ ------<br>--- ----- -- ----,271297.5,271296.6999999881,270891.527,270897.5,270908.114,271308.287,,19,partner
screen,html.Screen,2_1_0_1_20,2022-02-16T09:07:09.776Z,,,,,,,,,,,,,,,,,53,,,,,,,,,,,,,,356.61299997614697,,response,,,,99,,,,,,,Space,keypress(Space),,,,,,,,---- -- ----- -- ------ - ------- --- ----------<br>------------- ------ ------ ---- ---- ------- ----- -- ----<br>-------- ------- is ---------- --- - --- ----- ----- ----<br>---- --- --- ----- --- ---- ---- ------- ----- ---- -------<br>--- --- -- ----- -- --- ---- -- --- ---- -- ------ ------<br>--- ----- -- ----,271665.6999999881,271664.89999997616,271291.638,271297.6999999881,271308.287,271674.96,,20,is
screen,html.Screen,2_1_0_1_21,2022-02-16T09:07:10.820Z,,,,,,,,,,,,,,,,,53,,,,,,,,,,,,,,1033.9399999761372,,response,,,,99,,,,,,,Space,keypress(Space),,,,,,,,---- -- ----- -- ------ - ------- --- ----------<br>------------- ------ ------ ---- ---- ------- ----- -- ----<br>-------- ------- -- paramount. --- - --- ----- ----- ----<br>---- --- --- ----- --- ---- ---- ------- ----- ---- -------<br>--- --- -- ----- -- --- ---- -- --- ---- -- ------ ------<br>--- ----- -- ----,272709.7999999821,272708.89999997616,271658.408,271665.89999997616,271674.96,272725.287,,21,paramount.
screen,html.Screen,2_1_0_1_22,2022-02-16T09:07:11.220Z,,,,,,,,,,,,,,,,,53,,,,,,,,,,,,,,383.4129999880679,,response,,,,99,,,,,,,Space,keypress(Space),,,,,,,,---- -- ----- -- ------ - ------- --- ----------<br>------------- ------ ------ ---- ---- ------- ----- -- ----<br>-------- ------- -- ---------- But - --- ----- ----- ----<br>---- --- --- ----- --- ---- ---- ------- ----- ---- -------<br>--- --- -- ----- -- --- ---- -- --- ---- -- ------ ------<br>--- ----- -- ----,273109.5,273108.6999999881,272708.815,272710,272725.287,273125.436,,22,But
screen,html.Screen,2_1_0_1_23,2022-02-16T09:07:11.628Z,,,,,,,,,,,,,,,,,53,,,,,,,,,,,,,,391.1639999940526,,response,,,,99,,,,,,,Space,keypress(Space),,,,,,,,---- -- ----- -- ------ - ------- --- ----------<br>------------- ------ ------ ---- ---- ------- ----- -- ----<br>-------- ------- -- ---------- --- a --- ----- ----- ----<br>---- --- --- ----- --- ---- ---- ------- ----- ---- -------<br>--- --- -- ----- -- --- ---- -- --- ---- -- ------ ------<br>--- ----- -- ----,273517.5,273516.59999999404,273108.829,273109.59999999404,273125.436,273525.477,,23,a
screen,html.Screen,2_1_0_1_24,2022-02-16T09:07:12.117Z,,,,,,,,,,,,,,,,,53,,,,,,,,,,,,,,480.0229999999865,,response,,,,99,,,,,,,Space,keypress(Space),,,,,,,,---- -- ----- -- ------ - ------- --- ----------<br>------------- ------ ------ ---- ---- ------- ----- -- ----<br>-------- ------- -- ---------- --- - new ----- ----- ----<br>---- --- --- ----- --- ---- ---- ------- ----- ---- -------<br>--- --- -- ----- -- --- ---- -- --- ---- -- ------ ------<br>--- ----- -- ----,274006.5,274005.5,273508.965,273517.6999999881,273525.477,274008.951,,24,new
screen,html.Screen,2_1_0_1_25,2022-02-16T09:07:12.453Z,,,,,,,,,,,,,,,,,53,,,,,,,,,,,,,,332.3489999821177,,response,,,,99,,,,,,,Space,keypress(Space),,,,,,,,---- -- ----- -- ------ - ------- --- ----------<br>------------- ------ ------ ---- ---- ------- ----- -- ----<br>-------- ------- -- ---------- --- - --- study ----- ----<br>---- --- --- ----- --- ---- ---- ------- ----- ---- -------<br>--- --- -- ----- -- --- ---- -- --- ---- -- ------ ------<br>--- ----- -- ----,274342.1999999881,274341.2999999821,273992.376,274006.59999999404,274008.951,274359.086,,25,study
screen,html.Screen,2_1_0_1_26,2022-02-16T09:07:12.813Z,,,,,,,,,,,,,,,,,53,,,,,,,,,,,,,,342.3139999761479,,response,,,,99,,,,,,,Space,keypress(Space),,,,,,,,---- -- ----- -- ------ - ------- --- ----------<br>------------- ------ ------ ---- ---- ------- ----- -- ----<br>-------- ------- -- ---------- --- - --- ----- finds ----<br>---- --- --- ----- --- ---- ---- ------- ----- ---- -------<br>--- --- -- ----- -- --- ---- -- --- ---- -- ------ ------<br>--- ----- -- ----,274702.1999999881,274701.39999997616,274342.529,274342.39999997616,274359.086,274709.21,,26,finds
screen,html.Screen,2_1_0_1_27,2022-02-16T09:07:13.141Z,,,,,,,,,,,,,,,,,53,,,,,,,,,,,,,,319.8899999940186,,response,,,,99,,,,,,,Space,keypress(Space),,,,,,,,---- -- ----- -- ------ - ------- --- ----------<br>------------- ------ ------ ---- ---- ------- ----- -- ----<br>-------- ------- -- ---------- --- - --- ----- ----- that<br>---- --- --- ----- --- ---- ---- ------- ----- ---- -------<br>--- --- -- ----- -- --- ---- -- --- ---- -- ------ ------<br>--- ----- -- ----,275030.7999999821,275029.09999999404,274692.608,274702.2999999821,274709.21,275042.645,,27,that
screen,html.Screen,2_1_0_1_28,2022-02-16T09:07:13.532Z,,,,,,,,,,,,,,,,,53,,,,,,,,,,,,,,378.3549999999814,,response,,,,99,,,,,,,Space,keypress(Space),,,,,,,,---- -- ----- -- ------ - ------- --- ----------<br>------------- ------ ------ ---- ---- ------- ----- -- ----<br>-------- ------- -- ---------- --- - --- ----- ----- ----<br>it's --- --- ----- --- ---- ---- ------- ----- ---- -------<br>--- --- -- ----- -- --- ---- -- --- ---- -- ------ ------<br>--- ----- -- ----,275421.7999999821,275421,275026.02,275031,275042.645,275426.118,,28,it's
screen,html.Screen,2_1_0_1_29,2022-02-16T09:07:13.965Z,,,,,,,,,,,,,,,,,53,,,,,,,,,,,,,,427.38199999998324,,response,,,,99,,,,,,,Space,keypress(Space),,,,,,,,---- -- ----- -- ------ - ------- --- ----------<br>------------- ------ ------ ---- ---- ------- ----- -- ----<br>-------- ------- -- ---------- --- - --- ----- ----- ----<br>---- not --- ----- --- ---- ---- ------- ----- ---- -------<br>--- --- -- ----- -- --- ---- -- --- ---- -- ------ ------<br>--- ----- -- ----,275854.2999999821,275853.5,275409.488,275421.89999997616,275426.118,275859.544,,29,not
screen,html.Screen,2_1_0_1_30,2022-02-16T09:07:14.309Z,,,,,,,,,,,,,,,,,53,,,,,,,,,,,,,,337.85599997616373,,response,,,,99,,,,,,,Space,keypress(Space),,,,,,,,---- -- ----- -- ------ - ------- --- ----------<br>------------- ------ ------ ---- ---- ------- ----- -- ----<br>-------- ------- -- ---------- --- - --- ----- ----- ----<br>---- --- how ----- --- ---- ---- ------- ----- ---- -------<br>--- --- -- ----- -- --- ---- -- --- ---- -- ------ ------<br>--- ----- -- ----,276198.2999999821,276197.39999997616,275842.899,275854.5,275859.544,276209.627,,30,how
screen,html.Screen,2_1_0_1_31,2022-02-16T09:07:14.661Z,,,,,,,,,,,,,,,,,53,,,,,,,,,,,,,,339.77299997617956,,response,,,,99,,,,,,,Space,keypress(Space),,,,,,,,---- -- ----- -- ------ - ------- --- ----------<br>------------- ------ ------ ---- ---- ------- ----- -- ----<br>-------- ------- -- ---------- --- - --- ----- ----- ----<br>---- --- --- close --- ---- ---- ------- ----- ---- -------<br>--- --- -- ----- -- --- ---- -- --- ---- -- ------ ------<br>--- ----- -- ----,276550.1999999881,276549.39999997616,276193.004,276198.39999997616,276209.627,276559.749,,31,close
screen,html.Screen,2_1_0_1_32,2022-02-16T09:07:14.980Z,,,,,,,,,,,,,,,,,53,,,,,,,,,,,,,,309.3509999940288,,response,,,,99,,,,,,,Space,keypress(Space),,,,,,,,---- -- ----- -- ------ - ------- --- ----------<br>------------- ------ ------ ---- ---- ------- ----- -- ----<br>-------- ------- -- ---------- --- - --- ----- ----- ----<br>---- --- --- ----- you ---- ---- ------- ----- ---- -------<br>--- --- -- ----- -- --- ---- -- --- ---- -- ------ ------<br>--- ----- -- ----,276869.89999997616,276869.09999999404,276543.121,276550.2999999821,276559.749,276876.516,,32,you
screen,html.Screen,2_1_0_1_33,2022-02-16T09:07:15.316Z,,,,,,,,,,,,,,,,,53,,,,,,,,,,,,,,328.3839999761549,,response,,,,99,,,,,,,Space,keypress(Space),,,,,,,,---- -- ----- -- ------ - ------- --- ----------<br>------------- ------ ------ ---- ---- ------- ----- -- ----<br>-------- ------- -- ---------- --- - --- ----- ----- ----<br>---- --- --- ----- --- feel ---- ------- ----- ---- -------<br>--- --- -- ----- -- --- ---- -- --- ---- -- ------ ------<br>--- ----- -- ----,277205.6999999881,277204.89999997616,276859.889,276870,276876.516,277209.952,,33,feel
screen,html.Screen,2_1_0_1_34,2022-02-16T09:07:15.652Z,,,,,,,,,,,,,,,,,53,,,,,,,,,,,,,,330.6479999940493,,response,,,,99,,,,,,,Space,keypress(Space),,,,,,,,---- -- ----- -- ------ - ------- --- ----------<br>------------- ------ ------ ---- ---- ------- ----- -- ----<br>-------- ------- -- ---------- --- - --- ----- ----- ----<br>---- --- --- ----- --- ---- that ------- ----- ---- -------<br>--- --- -- ----- -- --- ---- -- --- ---- -- ------ ------<br>--- ----- -- ----,277541.59999999404,277540.59999999404,277193.33,277205.89999997616,277209.952,277543.311,,34,that
screen,html.Screen,2_1_0_1_35,2022-02-16T09:07:16.052Z,,,,,,,,,,,,,,,,,53,,,,,,,,,,,,,,397.5889999761712,,response,,,,99,,,,,,,Space,keypress(Space),,,,,,,,---- -- ----- -- ------ - ------- --- ----------<br>------------- ------ ------ ---- ---- ------- ----- -- ----<br>-------- ------- -- ---------- --- - --- ----- ----- ----<br>---- --- --- ----- --- ---- ---- matters ----- ---- -------<br>--- --- -- ----- -- --- ---- -- --- ---- -- ------ ------<br>--- ----- -- ----,277941.6999999881,277940.89999997616,277526.749,277541.59999999404,277543.311,277943.416,,35,matters
screen,html.Screen,2_1_0_1_36,2022-02-16T09:07:16.420Z,,,,,,,,,,,,,,,,,53,,,,,,,,,,,,,,365.4839999761316,,response,,,,99,,,,,,,Space,keypress(Space),,,,,,,,"---- -- ----- -- ------ - ------- --- ----------<br>------------- ------ ------ ---- ---- ------- ----- -- ----<br>-------- ------- -- ---------- --- - --- ----- ----- ----<br>---- --- --- ----- --- ---- ---- ------- most, ---- -------<br>--- --- -- ----- -- --- ---- -- --- ---- -- ------ ------<br>--- ----- -- ----",278309.6999999881,278308.89999997616,277926.875,277941.7999999821,277943.416,278326.854,,36,"most,"
screen,html.Screen,2_1_0_1_37,2022-02-16T09:07:16.788Z,,,,,,,,,,,,,,,,,53,,,,,,,,,,,,,,349.9459999821265,,response,,,,99,,,,,,,Space,keypress(Space),,,,,,,,---- -- ----- -- ------ - ------- --- ----------<br>------------- ------ ------ ---- ---- ------- ----- -- ----<br>-------- ------- -- ---------- --- - --- ----- ----- ----<br>---- --- --- ----- --- ---- ---- ------- ----- it's -------<br>--- --- -- ----- -- --- ---- -- --- ---- -- ------ ------<br>--- ----- -- ----,278677.7999999821,278676.7999999821,278310.264,278309.89999997616,278326.854,278693.663,,37,it's
screen,html.Screen,2_1_0_1_38,2022-02-16T09:07:17.205Z,,,,,,,,,,,,,,,,,53,,,,,,,,,,,,,,399.5369999880786,,response,,,,99,,,,,,,Space,keypress(Space),,,,,,,,---- -- ----- -- ------ - ------- --- ----------<br>------------- ------ ------ ---- ---- ------- ----- -- ----<br>-------- ------- -- ---------- --- - --- ----- ----- ----<br>---- --- --- ----- --- ---- ---- ------- ----- ---- whether<br>--- --- -- ----- -- --- ---- -- --- ---- -- ------ ------<br>--- ----- -- ----,279094,279093.1999999881,278677.018,278677.89999997616,278693.663,279110.488,,38,whether
screen,html.Screen,2_1_0_1_39,2022-02-16T09:07:17.597Z,,,,,,,,,,,,,,,,,53,,,,,,,,,,,,,,374.8119999821065,,response,,,,99,,,,,,,Space,keypress(Space),,,,,,,,---- -- ----- -- ------ - ------- --- ----------<br>------------- ------ ------ ---- ---- ------- ----- -- ----<br>-------- ------- -- ---------- --- - --- ----- ----- ----<br>---- --- --- ----- --- ---- ---- ------- ----- ---- -------<br>you --- -- ----- -- --- ---- -- --- ---- -- ------ ------<br>--- ----- -- ----,279486.1999999881,279485.2999999821,279093.873,279094.1999999881,279110.488,279493.925,,39,you
screen,html.Screen,2_1_0_1_40,2022-02-16T09:07:18.005Z,,,,,,,,,,,,,,,,,53,,,,,,,,,,,,,,399.57500000001164,,response,,,,99,,,,,,,Space,keypress(Space),,,,,,,,---- -- ----- -- ------ - ------- --- ----------<br>------------- ------ ------ ---- ---- ------- ----- -- ----<br>-------- ------- -- ---------- --- - --- ----- ----- ----<br>---- --- --- ----- --- ---- ---- ------- ----- ---- -------<br>--- are -- ----- -- --- ---- -- --- ---- -- ------ ------<br>--- ----- -- ----,279894.39999997616,279893.5,279477.32,279486.2999999821,279493.925,279910.727,,40,are
screen,html.Screen,2_1_0_1_41,2022-02-16T09:07:18.413Z,,,,,,,,,,,,,,,,,53,,,,,,,,,,,,,,391.17299997614464,,response,,,,99,,,,,,,Space,keypress(Space),,,,,,,,---- -- ----- -- ------ - ------- --- ----------<br>------------- ------ ------ ---- ---- ------- ----- -- ----<br>-------- ------- -- ---------- --- - --- ----- ----- ----<br>---- --- --- ----- --- ---- ---- ------- ----- ---- -------<br>--- --- as ----- -- --- ---- -- --- ---- -- ------ ------<br>--- ----- -- ----,280302.7999999821,280301.89999997616,279894.116,279894.5,279910.727,280310.811,,41,as
screen,html.Screen,2_1_0_1_42,2022-02-16T09:07:20.728Z,,,,,,,,,,,,,,,,,53,,,,,,,,,,,,,,2306.088999976171,,response,,,,99,,,,,,,Space,keypress(Space),,,,,,,,---- -- ----- -- ------ - ------- --- ----------<br>------------- ------ ------ ---- ---- ------- ----- -- ----<br>-------- ------- -- ---------- --- - --- ----- ----- ----<br>---- --- --- ----- --- ---- ---- ------- ----- ---- -------<br>--- --- -- close -- --- ---- -- --- ---- -- ------ ------<br>--- ----- -- ----,282617.6999999881,282616.89999997616,280294.211,280302.89999997616,280310.811,282628.091,,42,close
screen,html.Screen,2_1_0_1_43,2022-02-16T09:07:21.113Z,,,,,,,,,,,,,,,,,53,,,,,,,,,,,,,,373.4089999999851,,response,,,,99,,,,,,,Space,keypress(Space),,,,,,,,---- -- ----- -- ------ - ------- --- ----------<br>------------- ------ ------ ---- ---- ------- ----- -- ----<br>-------- ------- -- ---------- --- - --- ----- ----- ----<br>---- --- --- ----- --- ---- ---- ------- ----- ---- -------<br>--- --- -- ----- as --- ---- -- --- ---- -- ------ ------<br>--- ----- -- ----,283002.2999999821,283001.5,282611.858,282617.7999999821,282628.091,283011.598,,43,as
screen,html.Screen,2_1_0_1_44,2022-02-16T09:07:21.488Z,,,,,,,,,,,,,,,,,53,,,,,,,,,,,,,,365.20199998212047,,response,,,,99,,,,,,,Space,keypress(Space),,,,,,,,---- -- ----- -- ------ - ------- --- ----------<br>------------- ------ ------ ---- ---- ------- ----- -- ----<br>-------- ------- -- ---------- --- - --- ----- ----- ----<br>---- --- --- ----- --- ---- ---- ------- ----- ---- -------<br>--- --- -- ----- -- you ---- -- --- ---- -- ------ ------<br>--- ----- -- ----,283377.59999999404,283376.7999999821,282994.999,283002.39999997616,283011.598,283395.522,,44,you
screen,html.Screen,2_1_0_1_45,2022-02-16T09:07:21.865Z,,,,,,,,,,,,,,,,,53,,,,,,,,,,,,,,357.67799998808187,,response,,,,99,,,,,,,Space,keypress(Space),,,,,,,,---- -- ----- -- ------ - ------- --- ----------<br>------------- ------ ------ ---- ---- ------- ----- -- ----<br>-------- ------- -- ---------- --- - --- ----- ----- ----<br>---- --- --- ----- --- ---- ---- ------- ----- ---- -------<br>--- --- -- ----- -- --- want -- --- ---- -- ------ ------<br>--- ----- -- ----,283754.1999999881,283753.1999999881,283361.767,283377.7999999821,283395.522,283761.81,,45,want
screen,html.Screen,2_1_0_1_46,2022-02-16T09:07:22.241Z,,,,,,,,,,,,,,,,,53,,,,,,,,,,,,,,367.3899999880814,,response,,,,99,,,,,,,Space,keypress(Space),,,,,,,,---- -- ----- -- ------ - ------- --- ----------<br>------------- ------ ------ ---- ---- ------- ----- -- ----<br>-------- ------- -- ---------- --- - --- ----- ----- ----<br>---- --- --- ----- --- ---- ---- ------- ----- ---- -------<br>--- --- -- ----- -- --- ---- to --- ---- -- ------ ------<br>--- ----- -- ----,284130.1999999881,284129.1999999881,283745.204,283754.1999999881,283761.81,284145.26,,46,to
screen,html.Screen,2_1_0_1_47,2022-02-16T09:07:22.553Z,,,,,,,,,,,,,,,,,53,,,,,,,,,,,,,,295.7399999999907,,response,,,,99,,,,,,,Space,keypress(Space),,,,,,,,"---- -- ----- -- ------ - ------- --- ----------<br>------------- ------ ------ ---- ---- ------- ----- -- ----<br>-------- ------- -- ---------- --- - --- ----- ----- ----<br>---- --- --- ----- --- ---- ---- ------- ----- ---- -------<br>--- --- -- ----- -- --- ---- -- be, ---- -- ------ ------<br>--- ----- -- ----",284442.2999999821,284441,284128.613,284130.39999997616,284145.26,284445.256,,47,"be,"
screen,html.Screen,2_1_0_1_48,2022-02-16T09:07:22.936Z,,,,,,,,,,,,,,,,,53,,,,,,,,,,,,,,379.74400000000605,,response,,,,99,,,,,,,Space,keypress(Space),,,,,,,,---- -- ----- -- ------ - ------- --- ----------<br>------------- ------ ------ ---- ---- ------- ----- -- ----<br>-------- ------- -- ---------- --- - --- ----- ----- ----<br>---- --- --- ----- --- ---- ---- ------- ----- ---- -------<br>--- --- -- ----- -- --- ---- -- --- even -- ------ ------<br>--- ----- -- ----,284825.7999999821,284825,284428.696,284442.5,284445.256,284828.714,,48,even
screen,html.Screen,2_1_0_1_49,2022-02-16T09:07:23.272Z,,,,,,,,,,,,,,,,,53,,,,,,,,,,,,,,332.18599997618,,response,,,,99,,,,,,,Space,keypress(Space),,,,,,,,---- -- ----- -- ------ - ------- --- ----------<br>------------- ------ ------ ---- ---- ------- ----- -- ----<br>-------- ------- -- ---------- --- - --- ----- ----- ----<br>---- --- --- ----- --- ---- ---- ------- ----- ---- -------<br>--- --- -- ----- -- --- ---- -- --- ---- if ------ ------<br>--- ----- -- ----,285161.7999999821,285160.89999997616,284812.153,284825.89999997616,284828.714,285195.546,,49,if
screen,html.Screen,2_1_0_1_50,2022-02-16T09:07:23.657Z,,,,,,,,,,,,,,,,,53,,,,,,,,,,,,,,349.55399999406654,,response,,,,99,,,,,,,Space,keypress(Space),,,,,,,,---- -- ----- -- ------ - ------- --- ----------<br>------------- ------ ------ ---- ---- ------- ----- -- ----<br>-------- ------- -- ---------- --- - --- ----- ----- ----<br>---- --- --- ----- --- ---- ---- ------- ----- ---- -------<br>--- --- -- ----- -- --- ---- -- --- ---- -- that's ------<br>--- ----- -- ----,285546,285545.09999999404,285178.893,285161.89999997616,285195.546,285562.312,,50,that's
screen,html.Screen,2_1_0_1_51,2022-02-16T09:07:24.105Z,,,,,,,,,,,,,,,,,53,,,,,,,,,,,,,,430.98799998214236,,response,,,,99,,,,,,,Space,keypress(Space),,,,,,,,---- -- ----- -- ------ - ------- --- ----------<br>------------- ------ ------ ---- ---- ------- ----- -- ----<br>-------- ------- -- ---------- --- - --- ----- ----- ----<br>---- --- --- ----- --- ---- ---- ------- ----- ---- -------<br>--- --- -- ----- -- --- ---- -- --- ---- -- ------ really<br>--- ----- -- ----,285994,285993.2999999821,285545.659,285546.09999999404,285562.312,285995.704,,51,really
screen,html.Screen,2_1_0_1_52,2022-02-16T09:07:24.465Z,,,,,,,,,,,,,,,,,53,,,,,,,,,,,,,,357.795999999973,,response,,,,99,,,,,,,Space,keypress(Space),,,,,,,,---- -- ----- -- ------ - ------- --- ----------<br>------------- ------ ------ ---- ---- ------- ----- -- ----<br>-------- ------- -- ---------- --- - --- ----- ----- ----<br>---- --- --- ----- --- ---- ---- ------- ----- ---- -------<br>--- --- -- ----- -- --- ---- -- --- ---- -- ------ ------<br>not ----- -- ----,286354.2999999821,286353.5,285979.165,285994.1999999881,285995.704,286362.558,,52,not
screen,html.Screen,2_1_0_1_53,2022-02-16T09:07:24.857Z,,,,,,,,,,,,,,,,,53,,,,,,,,,,,,,,382.9419999999809,,response,,,,99,,,,,,,Space,keypress(Space),,,,,,,,---- -- ----- -- ------ - ------- --- ----------<br>------------- ------ ------ ---- ---- ------- ----- -- ----<br>-------- ------- -- ---------- --- - --- ----- ----- ----<br>---- --- --- ----- --- ---- ---- ------- ----- ---- -------<br>--- --- -- ----- -- --- ---- -- --- ---- -- ------ ------<br>--- close -- ----,286746.2999999821,286745.5,286345.941,286354.39999997616,286362.558,286762.681,,53,close
screen,html.Screen,2_1_0_1_54,2022-02-16T09:07:25.169Z,,,,,,,,,,,,,,,,,53,,,,,,,,,,,,,,294.8190000000177,,response,,,,99,,,,,,,Space,keypress(Space),,,,,,,,---- -- ----- -- ------ - ------- --- ----------<br>------------- ------ ------ ---- ---- ------- ----- -- ----<br>-------- ------- -- ---------- --- - --- ----- ----- ----<br>---- --- --- ----- --- ---- ---- ------- ----- ---- -------<br>--- --- -- ----- -- --- ---- -- --- ---- -- ------ ------<br>--- ----- at ----,287058.2999999821,287057.5,286746.047,286746.5,286762.681,287062.66,,54,at
screen,html.Screen,2_1_0_1_55,2022-02-16T09:07:25.448Z,,,,,,,,,,,,,,,,,53,,,,,,,,,,,,,,274.1399999821442,,response,,,,99,,,,,,,Space,keypress(Space),,,,,,,,---- -- ----- -- ------ - ------- --- ----------<br>------------- ------ ------ ---- ---- ------- ----- -- ----<br>-------- ------- -- ---------- --- - --- ----- ----- ----<br>---- --- --- ----- --- ---- ---- ------- ----- ---- -------<br>--- --- -- ----- -- --- ---- -- --- ---- -- ------ ------<br>--- ----- -- all.,287337.59999999404,287336.7999999821,287046.13,287058.39999997616,287062.66,287346.1,,55,all.
Item 99,flow.Loop,2_1_0_1,2022-02-16T09:07:25.448Z,,,,,,,,,,,,,,,,,,,,,,,,,,,,,,,26048.129999982106,,completion,,,,,C,,,,,,,,,,,silence,,,,,287337.89999997616,287336.7999999821,261255.401,261256.09999999404,261288.67,287346.1,,,
Question 1,html.Screen,2_1_0_2,2022-02-16T09:07:29.454Z,,,,,,,,,,,,,,,,,,,,,,,,,,,,true,FALSE,,3995.4000000000233,,response,,,,99,C,,,,,,FALSE,click #choice-2,,,,silence,,,,,291343,291341.5,287329.572,287338.09999999404,287346.1,291347.238,,,
Question 2,html.Screen,2_1_0_3,2022-02-16T09:07:34.606Z,,,,,,,,,,,,,,,,,,,,,,,,,,,,true,TRUE,,5146.761999999988,,response,,,,99,C,,,,,,TRUE,click #choice-1,,,,silence,,,,,296495.09999999404,296494,291330.625,291343.09999999404,291347.238,296498.747,,,
Item 99,flow.Sequence,2_1_0,2022-02-16T09:07:34.606Z,,,,,,,,,,,,,,,,,,,,,,,,,,,,,,,45224.83600000001,,completion,,,,,,,,,,,,,,,,,,,,,296495.39999997616,296494,251252.535,251265.19999998808,251269.164,296498.747,,,
Holding screen,html.Screen,2_1_1_0,2022-02-16T09:07:44.596Z,,,,,,,,,,,,,,,,,,,,,,,,,,,,,,,10002.812000000034,,timeout,,,,,,,,,,,,,,,,,,,,,306485.5,306484.901,296482.059,296495.39999997616,296498.747,306501.559,,,
screen,html.Screen,2_1_1_1_0,2022-02-16T09:07:45.491Z,,,,,,,,,,,,,,,,,54,,,,,,,,,,,,,,877.9409999999916,,response,,,,100,,,,,,,Space,keypress(Space),,,,,,,,At --- ---- --- ------ ----- ------- ---- -- --- ------- --<br>------- ---------- ------ -- ----- -- ----- -- ---- ------<br>--- ----- --- --- ------ -------- ----- --- ------ ----- --<br>----- ----- ---------- --- --- ------ ------ ---- -- ------<br>------- --- ------ ----- --- ---- ------- -- ---- --- --<br>------- ------,307380,307379.5,306484.901,306485.6999999881,306501.559,307385.159,,0,At
screen,html.Screen,2_1_1_1_1,2022-02-16T09:07:45.851Z,,,,,,,,,,,,,,,,,54,,,,,,,,,,,,,,354.24099997617304,,response,,,,100,,,,,,,Space,keypress(Space),,,,,,,,-- the ---- --- ------ ----- ------- ---- -- --- ------- --<br>------- ---------- ------ -- ----- -- ----- -- ---- ------<br>--- ----- --- --- ------ -------- ----- --- ------ ----- --<br>----- ----- ---------- --- --- ------ ------ ---- -- ------<br>------- --- ------ ----- --- ---- ------- -- ---- --- --<br>------- ------,307740.09999999404,307739.39999997616,307368.599,307380.09999999404,307385.159,307751.916,,1,the
screen,html.Screen,2_1_1_1_2,2022-02-16T09:07:46.203Z,,,,,,,,,,,,,,,,,54,,,,,,,,,,,,,,339.38399998209206,,response,,,,100,,,,,,,Space,keypress(Space),,,,,,,,-- --- time --- ------ ----- ------- ---- -- --- ------- --<br>------- ---------- ------ -- ----- -- ----- -- ---- ------<br>--- ----- --- --- ------ -------- ----- --- ------ ----- --<br>----- ----- ---------- --- --- ------ ------ ---- -- ------<br>------- --- ------ ----- --- ---- ------- -- ---- --- --<br>------- ------,308092,308091.2999999821,307735.408,307740.1999999881,307751.916,308102.091,,2,time
screen,html.Screen,2_1_1_1_3,2022-02-16T09:07:46.539Z,,,,,,,,,,,,,,,,,54,,,,,,,,,,,,,,325.10899998806417,,response,,,,100,,,,,,,Space,keypress(Space),,,,,,,,-- --- ---- the ------ ----- ------- ---- -- --- ------- --<br>------- ---------- ------ -- ----- -- ----- -- ---- ------<br>--- ----- --- --- ------ -------- ----- --- ------ ----- --<br>----- ----- ---------- --- --- ------ ------ ---- -- ------<br>------- --- ------ ----- --- ---- ------- -- ---- --- --<br>------- ------,308428,308427.1999999881,308085.443,308092.1999999881,308102.091,308435.467,,3,the
screen,html.Screen,2_1_1_1_4,2022-02-16T09:07:46.979Z,,,,,,,,,,,,,,,,,54,,,,,,,,,,,,,,432.13299999403534,,response,,,,100,,,,,,,Space,keypress(Space),,,,,,,,-- --- ---- --- French ----- ------- ---- -- --- ------- --<br>------- ---------- ------ -- ----- -- ----- -- ---- ------<br>--- ----- --- --- ------ -------- ----- --- ------ ----- --<br>----- ----- ---------- --- --- ------ ------ ---- -- ------<br>------- --- ------ ----- --- ---- ------- -- ---- --- --<br>------- ------,308868.2999999821,308867.59999999404,308418.87,308428.1999999881,308435.467,308886.499,,4,French
screen,html.Screen,2_1_1_1_5,2022-02-16T09:07:47.371Z,,,,,,,,,,,,,,,,,54,,,,,,,,,,,,,,373.3009999821079,,response,,,,100,,,,,,,Space,keypress(Space),,,,,,,,-- --- ---- --- ------ crown ------- ---- -- --- ------- --<br>------- ---------- ------ -- ----- -- ----- -- ---- ------<br>--- ----- --- --- ------ -------- ----- --- ------ ----- --<br>----- ----- ---------- --- --- ------ ------ ---- -- ------<br>------- --- ------ ----- --- ---- ------- -- ---- --- --<br>------- ------,309260.59999999404,309259.7999999821,308852.344,308868.2999999821,308886.499,309269.061,,5,crown
screen,html.Screen,2_1_1_1_6,2022-02-16T09:07:47.772Z,,,,,,,,,,,,,,,,,54,,,,,,,,,,,,,,391.0389999940526,,response,,,,100,,,,,,,Space,keypress(Space),,,,,,,,-- --- ---- --- ------ ----- secured ---- -- --- ------- --<br>------- ---------- ------ -- ----- -- ----- -- ---- ------<br>--- ----- --- --- ------ -------- ----- --- ------ ----- --<br>----- ----- ---------- --- --- ------ ------ ---- -- ------<br>------- --- ------ ----- --- ---- ------- -- ---- --- --<br>------- ------,309661,309660.09999999404,309252.482,309260.6999999881,309269.061,309669.16,,6,secured
screen,html.Screen,2_1_1_1_7,2022-02-16T09:07:48.107Z,,,,,,,,,,,,,,,,,54,,,,,,,,,,,,,,326.73999997618375,,response,,,,100,,,,,,,Space,keypress(Space),,,,,,,,-- --- ---- --- ------ ----- ------- much -- --- ------- --<br>------- ---------- ------ -- ----- -- ----- -- ---- ------<br>--- ----- --- --- ------ -------- ----- --- ------ ----- --<br>----- ----- ---------- --- --- ------ ------ ---- -- ------<br>------- --- ------ ----- --- ---- ------- -- ---- --- --<br>------- ------,309996.7999999821,309995.89999997616,309652.563,309661.09999999404,309669.16,310002.614,,7,much
screen,html.Screen,2_1_1_1_8,2022-02-16T09:07:48.524Z,,,,,,,,,,,,,,,,,54,,,,,,,,,,,,,,409.48599999403814,,response,,,,100,,,,,,,Space,keypress(Space),,,,,,,,-- --- ---- --- ------ ----- ------- ---- of --- ------- --<br>------- ---------- ------ -- ----- -- ----- -- ---- ------<br>--- ----- --- --- ------ -------- ----- --- ------ ----- --<br>----- ----- ---------- --- --- ------ ------ ---- -- ------<br>------- --- ------ ----- --- ---- ------- -- ---- --- --<br>------- ------,310413,310412.09999999404,309986.001,309996.89999997616,310002.614,310419.416,,8,of
screen,html.Screen,2_1_1_1_9,2022-02-16T09:07:48.851Z,,,,,,,,,,,,,,,,,54,,,,,,,,,,,,,,320.4839999761316,,response,,,,100,,,,,,,Space,keypress(Space),,,,,,,,-- --- ---- --- ------ ----- ------- ---- -- its ------- --<br>------- ---------- ------ -- ----- -- ----- -- ---- ------<br>--- ----- --- --- ------ -------- ----- --- ------ ----- --<br>----- ----- ---------- --- --- ------ ------ ---- -- ------<br>------- --- ------ ----- --- ---- ------- -- ---- --- --<br>------- ------,310740.7999999821,310739.89999997616,310402.778,310413.09999999404,310419.416,310752.817,,9,its
screen,html.Screen,2_1_1_1_10,2022-02-16T09:07:49.179Z,,,,,,,,,,,,,,,,,54,,,,,,,,,,,,,,314.88299998809816,,response,,,,100,,,,,,,Space,keypress(Space),,,,,,,,-- --- ---- --- ------ ----- ------- ---- -- --- revenue --<br>------- ---------- ------ -- ----- -- ----- -- ---- ------<br>--- ----- --- --- ------ -------- ----- --- ------ ----- --<br>----- ----- ---------- --- --- ------ ------ ---- -- ------<br>------- --- ------ ----- --- ---- ------- -- ---- --- --<br>------- ------,311068.59999999404,311067.6999999881,310736.211,310740.89999997616,310752.817,311086.733,,10,revenue
screen,html.Screen,2_1_1_1_11,2022-02-16T09:07:49.563Z,,,,,,,,,,,,,,,,,54,,,,,,,,,,,,,,364.8669999940321,,response,,,,100,,,,,,,Space,keypress(Space),,,,,,,,-- --- ---- --- ------ ----- ------- ---- -- --- ------- by<br>------- ---------- ------ -- ----- -- ----- -- ---- ------<br>--- ----- --- --- ------ -------- ----- --- ------ ----- --<br>----- ----- ---------- --- --- ------ ------ ---- -- ------<br>------- --- ------ ----- --- ---- ------- -- ---- --- --<br>------- ------,311452.5,311451.59999999404,311052.973,311068.6999999881,311086.733,311470.242,,11,by
screen,html.Screen,2_1_1_1_12,2022-02-16T09:07:49.875Z,,,,,,,,,,,,,,,,,54,,,,,,,,,,,,,,293.35799999401206,,response,,,,100,,,,,,,Space,keypress(Space),,,,,,,,-- --- ---- --- ------ ----- ------- ---- -- --- ------- --<br>issuing ---------- ------ -- ----- -- ----- -- ---- ------<br>--- ----- --- --- ------ -------- ----- --- ------ ----- --<br>----- ----- ---------- --- --- ------ ------ ---- -- ------<br>------- --- ------ ----- --- ---- ------- -- ---- --- --<br>------- ------,311764.39999997616,311763.59999999404,311436.422,311452.5,311470.242,311769.785,,12,issuing
screen,html.Screen,2_1_1_1_13,2022-02-16T09:07:50.211Z,,,,,,,,,,,,,,,,,54,,,,,,,,,,,,,,329.61499997618375,,response,,,,100,,,,,,,Space,keypress(Space),,,,,,,,-- --- ---- --- ------ ----- ------- ---- -- --- ------- --<br>------- government ------ -- ----- -- ----- -- ---- ------<br>--- ----- --- --- ------ -------- ----- --- ------ ----- --<br>----- ----- ---------- --- --- ------ ------ ---- -- ------<br>------- --- ------ ----- --- ---- ------- -- ---- --- --<br>------- ------,312100.1999999881,312099.39999997616,311753.169,311764.59999999404,311769.785,312103.134,,13,government
screen,html.Screen,2_1_1_1_14,2022-02-16T09:07:50.554Z,,,,,,,,,,,,,,,,,54,,,,,,,,,,,,,,339.9659999940195,,response,,,,100,,,,,,,Space,keypress(Space),,,,,,,,-- --- ---- --- ------ ----- ------- ---- -- --- ------- --<br>------- ---------- bonds. -- ----- -- ----- -- ---- ------<br>--- ----- --- --- ------ -------- ----- --- ------ ----- --<br>----- ----- ---------- --- --- ------ ------ ---- -- ------<br>------- --- ------ ----- --- ---- ------- -- ---- --- --<br>------- ------,312443.89999997616,312443.09999999404,312086.602,312100.2999999821,312103.134,312453.356,,14,bonds.
screen,html.Screen,2_1_1_1_15,2022-02-16T09:07:50.947Z,,,,,,,,,,,,,,,,,54,,,,,,,,,,,,,,382.14399999997113,,response,,,,100,,,,,,,Space,keypress(Space),,,,,,,,-- --- ---- --- ------ ----- ------- ---- -- --- ------- --<br>------- ---------- ------ In ----- -- ----- -- ---- ------<br>--- ----- --- --- ------ -------- ----- --- ------ ----- --<br>----- ----- ---------- --- --- ------ ------ ---- -- ------<br>------- --- ------ ----- --- ---- ------- -- ---- --- --<br>------- ------,312836.39999997616,312835.5,312436.713,312444,312453.356,312853.431,,15,In
screen,html.Screen,2_1_1_1_16,2022-02-16T09:07:51.267Z,,,,,,,,,,,,,,,,,54,,,,,,,,,,,,,,301.8689999821363,,response,,,,100,,,,,,,Space,keypress(Space),,,,,,,,"-- --- ---- --- ------ ----- ------- ---- -- --- ------- --<br>------- ---------- ------ -- 1727, -- ----- -- ---- ------<br>--- ----- --- --- ------ -------- ----- --- ------ ----- --<br>----- ----- ---------- --- --- ------ ------ ---- -- ------<br>------- --- ------ ----- --- ---- ------- -- ---- --- --<br>------- ------",313156.09999999404,313155.2999999821,312836.765,312836.5,312853.431,313170.171,,16,"1727,"
screen,html.Screen,2_1_1_1_17,2022-02-16T09:07:51.683Z,,,,,,,,,,,,,,,,,54,,,,,,,,,,,,,,401.42899999406654,,response,,,,100,,,,,,,Space,keypress(Space),,,,,,,,-- --- ---- --- ------ ----- ------- ---- -- --- ------- --<br>------- ---------- ------ -- ----- in ----- -- ---- ------<br>--- ----- --- --- ------ -------- ----- --- ------ ----- --<br>----- ----- ---------- --- --- ------ ------ ---- -- ------<br>------- --- ------ ----- --- ---- ------- -- ---- --- --<br>------- ------,313572.59999999404,313571.59999999404,313153.551,313156.1999999881,313170.171,313586.974,,17,in
screen,html.Screen,2_1_1_1_18,2022-02-16T09:07:52.115Z,,,,,,,,,,,,,,,,,54,,,,,,,,,,,,,,417.0260000000126,,response,,,,100,,,,,,,Space,keypress(Space),,,,,,,,-- --- ---- --- ------ ----- ------- ---- -- --- ------- --<br>------- ---------- ------ -- ----- -- order -- ---- ------<br>--- ----- --- --- ------ -------- ----- --- ------ ----- --<br>----- ----- ---------- --- --- ------ ------ ---- -- ------<br>------- --- ------ ----- --- ---- ------- -- ---- --- --<br>------- ------,314004.7999999821,314004,313570.353,313572.59999999404,313586.974,314020.383,,18,order
screen,html.Screen,2_1_1_1_19,2022-02-16T09:07:52.452Z,,,,,,,,,,,,,,,,,54,,,,,,,,,,,,,,320.6170000000275,,response,,,,100,,,,,,,Space,keypress(Space),,,,,,,,-- --- ---- --- ------ ----- ------- ---- -- --- ------- --<br>------- ---------- ------ -- ----- -- ----- to ---- ------<br>--- ----- --- --- ------ -------- ----- --- ------ ----- --<br>----- ----- ---------- --- --- ------ ------ ---- -- ------<br>------- --- ------ ----- --- ---- ------- -- ---- --- --<br>------- ------,314341.7999999821,314341,314003.771,314004.89999997616,314020.383,314353.846,,19,to
screen,html.Screen,2_1_1_1_20,2022-02-16T09:07:52.779Z,,,,,,,,,,,,,,,,,54,,,,,,,,,,,,,,313.8539999880595,,response,,,,100,,,,,,,Space,keypress(Space),,,,,,,,-- --- ---- --- ------ ----- ------- ---- -- --- ------- --<br>------- ---------- ------ -- ----- -- ----- -- save ------<br>--- ----- --- --- ------ -------- ----- --- ------ ----- --<br>----- ----- ---------- --- --- ------ ------ ---- -- ------<br>------- --- ------ ----- --- ---- ------- -- ---- --- --<br>------- ------,314668.5,314667.6999999881,314337.229,314341.89999997616,314353.846,314670.534,,20,save
screen,html.Screen,2_1_1_1_21,2022-02-16T09:07:53.139Z,,,,,,,,,,,,,,,,,54,,,,,,,,,,,,,,357.36599997617304,,response,,,,100,,,,,,,Space,keypress(Space),,,,,,,,"-- --- ---- --- ------ ----- ------- ---- -- --- ------- --<br>------- ---------- ------ -- ----- -- ----- -- ---- money,<br>--- ----- --- --- ------ -------- ----- --- ------ ----- --<br>----- ----- ---------- --- --- ------ ------ ---- -- ------<br>------- --- ------ ----- --- ---- ------- -- ---- --- --<br>------- ------",315028.7999999821,315027.89999997616,314653.97,314668.6999999881,314670.534,315037.392,,21,"money,"
screen,html.Screen,2_1_1_1_22,2022-02-16T09:07:53.499Z,,,,,,,,,,,,,,,,,54,,,,,,,,,,,,,,350.40799998212606,,response,,,,100,,,,,,,Space,keypress(Space),,,,,,,,-- --- ---- --- ------ ----- ------- ---- -- --- ------- --<br>------- ---------- ------ -- ----- -- ----- -- ---- ------<br>the ----- --- --- ------ -------- ----- --- ------ ----- --<br>----- ----- ---------- --- --- ------ ------ ---- -- ------<br>------- --- ------ ----- --- ---- ------- -- ---- --- --<br>------- ------,315388.6999999881,315387.7999999821,315020.79,315028.89999997616,315037.392,315404.14,,22,the
screen,html.Screen,2_1_1_1_23,2022-02-16T09:07:53.827Z,,,,,,,,,,,,,,,,,54,,,,,,,,,,,,,,311.65999998210464,,response,,,,100,,,,,,,Space,keypress(Space),,,,,,,,-- --- ---- --- ------ ----- ------- ---- -- --- ------- --<br>------- ---------- ------ -- ----- -- ----- -- ---- ------<br>--- state --- --- ------ -------- ----- --- ------ ----- --<br>----- ----- ---------- --- --- ------ ------ ---- -- ------<br>------- --- ------ ----- --- ---- ------- -- ---- --- --<br>------- ------,315716.6999999881,315715.7999999821,315387.551,315388.7999999821,315404.14,315720.911,,23,state
screen,html.Screen,2_1_1_1_24,2022-02-16T09:07:54.179Z,,,,,,,,,,,,,,,,,54,,,,,,,,,,,,,,346.8889999820967,,response,,,,100,,,,,,,Space,keypress(Space),,,,,,,,-- --- ---- --- ------ ----- ------- ---- -- --- ------- --<br>------- ---------- ------ -- ----- -- ----- -- ---- ------<br>--- ----- cut --- ------ -------- ----- --- ------ ----- --<br>----- ----- ---------- --- --- ------ ------ ---- -- ------<br>------- --- ------ ----- --- ---- ------- -- ---- --- --<br>------- ------,316068.59999999404,316067.7999999821,315704.251,315716.6999999881,315720.911,316070.938,,24,cut
screen,html.Screen,2_1_1_1_25,2022-02-16T09:07:54.483Z,,,,,,,,,,,,,,,,,54,,,,,,,,,,,,,,300.2619999880553,,response,,,,100,,,,,,,Space,keypress(Space),,,,,,,,-- --- ---- --- ------ ----- ------- ---- -- --- ------- --<br>------- ---------- ------ -- ----- -- ----- -- ---- ------<br>--- ----- --- the ------ -------- ----- --- ------ ----- --<br>----- ----- ---------- --- --- ------ ------ ---- -- ------<br>------- --- ------ ----- --- ---- ------- -- ---- --- --<br>------- ------,316372,316371.1999999881,316054.414,316068.6999999881,316070.938,316387.77,,25,the
screen,html.Screen,2_1_1_1_26,2022-02-16T09:07:54.819Z,,,,,,,,,,,,,,,,,54,,,,,,,,,,,,,,319.42999998806044,,response,,,,100,,,,,,,Space,keypress(Space),,,,,,,,-- --- ---- --- ------ ----- ------- ---- -- --- ------- --<br>------- ---------- ------ -- ----- -- ----- -- ---- ------<br>--- ----- --- --- bonds' -------- ----- --- ------ ----- --<br>----- ----- ---------- --- --- ------ ------ ---- -- ------<br>------- --- ------ ----- --- ---- ------- -- ---- --- --<br>------- ------,316708.09999999404,316707.1999999881,316371.169,316372.09999999404,316387.77,316721.195,,26,bonds'
screen,html.Screen,2_1_1_1_27,2022-02-16T09:07:55.243Z,,,,,,,,,,,,,,,,,54,,,,,,,,,,,,,,410.40499999403255,,response,,,,100,,,,,,,Space,keypress(Space),,,,,,,,-- --- ---- --- ------ ----- ------- ---- -- --- ------- --<br>------- ---------- ------ -- ----- -- ----- -- ---- ------<br>--- ----- --- --- ------ interest ----- --- ------ ----- --<br>----- ----- ---------- --- --- ------ ------ ---- -- ------<br>------- --- ------ ----- --- ---- ------- -- ---- --- --<br>------- ------,317132.39999997616,317131.59999999404,316704.527,316708.1999999881,316721.195,317137.916,,27,interest
screen,html.Screen,2_1_1_1_28,2022-02-16T09:07:55.603Z,,,,,,,,,,,,,,,,,54,,,,,,,,,,,,,,354.08399999997346,,response,,,,100,,,,,,,Space,keypress(Space),,,,,,,,-- --- ---- --- ------ ----- ------- ---- -- --- ------- --<br>------- ---------- ------ -- ----- -- ----- -- ---- ------<br>--- ----- --- --- ------ -------- rate. --- ------ ----- --<br>----- ----- ---------- --- --- ------ ------ ---- -- ------<br>------- --- ------ ----- --- ---- ------- -- ---- --- --<br>------- ------,317492.89999997616,317492,317121.385,317132.5,317137.916,317504.711,,28,rate.
screen,html.Screen,2_1_1_1_29,2022-02-16T09:07:55.939Z,,,,,,,,,,,,,,,,,54,,,,,,,,,,,,,,323.08899998210836,,response,,,,100,,,,,,,Space,keypress(Space),,,,,,,,-- --- ---- --- ------ ----- ------- ---- -- --- ------- --<br>------- ---------- ------ -- ----- -- ----- -- ---- ------<br>--- ----- --- --- ------ -------- ----- The ------ ----- --<br>----- ----- ---------- --- --- ------ ------ ---- -- ------<br>------- --- ------ ----- --- ---- ------- -- ---- --- --<br>------- ------,317828.6999999881,317827.7999999821,317488.06,317493.09999999404,317504.711,317838.19,,29,The
screen,html.Screen,2_1_1_1_30,2022-02-16T09:07:56.347Z,,,,,,,,,,,,,,,,,54,,,,,,,,,,,,,,397.8099999999977,,response,,,,100,,,,,,,Space,keypress(Space),,,,,,,,-- --- ---- --- ------ ----- ------- ---- -- --- ------- --<br>------- ---------- ------ -- ----- -- ----- -- ---- ------<br>--- ----- --- --- ------ -------- ----- --- market ----- --<br>----- ----- ---------- --- --- ------ ------ ---- -- ------<br>------- --- ------ ----- --- ---- ------- -- ---- --- --<br>------- ------,318236.89999997616,318236,317821.512,317828.6999999881,317838.19,318256.07,,30,market
screen,html.Screen,2_1_1_1_31,2022-02-16T09:07:56.748Z,,,,,,,,,,,,,,,,,54,,,,,,,,,,,,,,380.32999997615116,,response,,,,100,,,,,,,Space,keypress(Space),,,,,,,,-- --- ---- --- ------ ----- ------- ---- -- --- ------- --<br>------- ---------- ------ -- ----- -- ----- -- ---- ------<br>--- ----- --- --- ------ -------- ----- --- ------ value --<br>----- ----- ---------- --- --- ------ ------ ---- -- ------<br>------- --- ------ ----- --- ---- ------- -- ---- --- --<br>------- ------,318637.1999999881,318636.39999997616,318221.682,318237.09999999404,318256.07,318655.839,,31,value
screen,html.Screen,2_1_1_1_32,2022-02-16T09:07:57.116Z,,,,,,,,,,,,,,,,,54,,,,,,,,,,,,,,348.4609999821405,,response,,,,100,,,,,,,Space,keypress(Space),,,,,,,,-- --- ---- --- ------ ----- ------- ---- -- --- ------- --<br>------- ---------- ------ -- ----- -- ----- -- ---- ------<br>--- ----- --- --- ------ -------- ----- --- ------ ----- of<br>----- ----- ---------- --- --- ------ ------ ---- -- ------<br>------- --- ------ ----- --- ---- ------- -- ---- --- --<br>------- ------,319005.1999999881,319004.2999999821,318621.794,318637.2999999821,318655.839,319021.851,,32,of
screen,html.Screen,2_1_1_1_33,2022-02-16T09:07:57.411Z,,,,,,,,,,,,,,,,,54,,,,,,,,,,,,,,278.2489999940153,,response,,,,100,,,,,,,Space,keypress(Space),,,,,,,,-- --- ---- --- ------ ----- ------- ---- -- --- ------- --<br>------- ---------- ------ -- ----- -- ----- -- ---- ------<br>--- ----- --- --- ------ -------- ----- --- ------ ----- --<br>these ----- ---------- --- --- ------ ------ ---- -- ------<br>------- --- ------ ----- --- ---- ------- -- ---- --- --<br>------- ------,319300.89999997616,319300.09999999404,319005.249,319005.2999999821,319021.851,319305.231,,33,these
screen,html.Screen,2_1_1_1_34,2022-02-16T09:07:57.739Z,,,,,,,,,,,,,,,,,54,,,,,,,,,,,,,,322.56899998208974,,response,,,,100,,,,,,,Space,keypress(Space),,,,,,,,-- --- ---- --- ------ ----- ------- ---- -- --- ------- --<br>------- ---------- ------ -- ----- -- ----- -- ---- ------<br>--- ----- --- --- ------ -------- ----- --- ------ ----- --<br>----- bonds ---------- --- --- ------ ------ ---- -- ------<br>------- --- ------ ----- --- ---- ------- -- ---- --- --<br>------- ------,319628.59999999404,319627.7999999821,319288.624,319301,319305.231,319638.686,,34,bonds
screen,html.Screen,2_1_1_1_35,2022-02-16T09:07:58.075Z,,,,,,,,,,,,,,,,,54,,,,,,,,,,,,,,325.0139999880921,,response,,,,100,,,,,,,Space,keypress(Space),,,,,,,,"-- --- ---- --- ------ ----- ------- ---- -- --- ------- --<br>------- ---------- ------ -- ----- -- ----- -- ---- ------<br>--- ----- --- --- ------ -------- ----- --- ------ ----- --<br>----- ----- plummeted, --- --- ------ ------ ---- -- ------<br>------- --- ------ ----- --- ---- ------- -- ---- --- --<br>------- ------",319964.59999999404,319963.6999999881,319622.132,319628.6999999881,319638.686,319972.137,,35,"plummeted,"
screen,html.Screen,2_1_1_1_36,2022-02-16T09:07:58.435Z,,,,,,,,,,,,,,,,,54,,,,,,,,,,,,,,351.76299997617025,,response,,,,100,,,,,,,Space,keypress(Space),,,,,,,,-- --- ---- --- ------ ----- ------- ---- -- --- ------- --<br>------- ---------- ------ -- ----- -- ----- -- ---- ------<br>--- ----- --- --- ------ -------- ----- --- ------ ----- --<br>----- ----- ---------- and --- ------ ------ ---- -- ------<br>------- --- ------ ----- --- ---- ------- -- ---- --- --<br>------- ------,320324.6999999881,320323.89999997616,319955.497,319964.6999999881,319972.137,320338.891,,36,and
screen,html.Screen,2_1_1_1_37,2022-02-16T09:07:58.836Z,,,,,,,,,,,,,,,,,54,,,,,,,,,,,,,,385.10899999999674,,response,,,,100,,,,,,,Space,keypress(Space),,,,,,,,-- --- ---- --- ------ ----- ------- ---- -- --- ------- --<br>------- ---------- ------ -- ----- -- ----- -- ---- ------<br>--- ----- --- --- ------ -------- ----- --- ------ ----- --<br>----- ----- ---------- --- the ------ ------ ---- -- ------<br>------- --- ------ ----- --- ---- ------- -- ---- --- --<br>------- ------,320725,320724,320322.283,320324.7999999821,320338.891,320739.017,,37,the
screen,html.Screen,2_1_1_1_38,2022-02-16T09:07:59.220Z,,,,,,,,,,,,,,,,,54,,,,,,,,,,,,,,369.1829999880865,,response,,,,100,,,,,,,Space,keypress(Space),,,,,,,,-- --- ---- --- ------ ----- ------- ---- -- --- ------- --<br>------- ---------- ------ -- ----- -- ----- -- ---- ------<br>--- ----- --- --- ------ -------- ----- --- ------ ----- --<br>----- ----- ---------- --- --- market ------ ---- -- ------<br>------- --- ------ ----- --- ---- ------- -- ---- --- --<br>------- ------,321109.09999999404,321108.1999999881,320722.341,320725.09999999404,320739.017,321122.442,,38,market
screen,html.Screen,2_1_1_1_39,2022-02-16T09:07:59.604Z,,,,,,,,,,,,,,,,,54,,,,,,,,,,,,,,369.75799998809816,,response,,,,100,,,,,,,Space,keypress(Space),,,,,,,,-- --- ---- --- ------ ----- ------- ---- -- --- ------- --<br>------- ---------- ------ -- ----- -- ----- -- ---- ------<br>--- ----- --- --- ------ -------- ----- --- ------ ----- --<br>----- ----- ---------- --- --- ------ became ---- -- ------<br>------- --- ------ ----- --- ---- ------- -- ---- --- --<br>------- ------,321493.1999999881,321492.1999999881,321105.839,321109.1999999881,321122.442,321505.887,,39,became
screen,html.Screen,2_1_1_1_40,2022-02-16T09:07:59.932Z,,,,,,,,,,,,,,,,,54,,,,,,,,,,,,,,314.3129999880912,,response,,,,100,,,,,,,Space,keypress(Space),,,,,,,,-- --- ---- --- ------ ----- ------- ---- -- --- ------- --<br>------- ---------- ------ -- ----- -- ----- -- ---- ------<br>--- ----- --- --- ------ -------- ----- --- ------ ----- --<br>----- ----- ---------- --- --- ------ ------ wary -- ------<br>------- --- ------ ----- --- ---- ------- -- ---- --- --<br>------- ------,321821,321820.1999999881,321489.228,321493.2999999821,321505.887,321822.595,,40,wary
screen,html.Screen,2_1_1_1_41,2022-02-16T09:08:00.268Z,,,,,,,,,,,,,,,,,54,,,,,,,,,,,,,,333.40500000002794,,response,,,,100,,,,,,,Space,keypress(Space),,,,,,,,-- --- ---- --- ------ ----- ------- ---- -- --- ------- --<br>------- ---------- ------ -- ----- -- ----- -- ---- ------<br>--- ----- --- --- ------ -------- ----- --- ------ ----- --<br>----- ----- ---------- --- --- ------ ------ ---- of ------<br>------- --- ------ ----- --- ---- ------- -- ---- --- --<br>------- ------,322157,322156,321806.025,321821.1999999881,321822.595,322172.728,,41,of
screen,html.Screen,2_1_1_1_42,2022-02-16T09:08:00.693Z,,,,,,,,,,,,,,,,,54,,,,,,,,,,,,,,407.67199997615535,,response,,,,100,,,,,,,Space,keypress(Space),,,,,,,,-- --- ---- --- ------ ----- ------- ---- -- --- ------- --<br>------- ---------- ------ -- ----- -- ----- -- ---- ------<br>--- ----- --- --- ------ -------- ----- --- ------ ----- --<br>----- ----- ---------- --- --- ------ ------ ---- -- French<br>------- --- ------ ----- --- ---- ------- -- ---- --- --<br>------- ------,322582.1999999881,322580.39999997616,322156.141,322157.09999999404,322172.728,322589.565,,42,French
screen,html.Screen,2_1_1_1_43,2022-02-16T09:08:01.036Z,,,,,,,,,,,,,,,,,54,,,,,,,,,,,,,,334.7349999821163,,response,,,,100,,,,,,,Space,keypress(Space),,,,,,,,-- --- ---- --- ------ ----- ------- ---- -- --- ------- --<br>------- ---------- ------ -- ----- -- ----- -- ---- ------<br>--- ----- --- --- ------ -------- ----- --- ------ ----- --<br>----- ----- ---------- --- --- ------ ------ ---- -- ------<br>credit. --- ------ ----- --- ---- ------- -- ---- --- --<br>------- ------,322925.2999999821,322924.2999999821,322572.93,322582.2999999821,322589.565,322939.585,,43,credit.
screen,html.Screen,2_1_1_1_44,2022-02-16T09:08:01.452Z,,,,,,,,,,,,,,,,,54,,,,,,,,,,,,,,401.21499998209765,,response,,,,100,,,,,,,Space,keypress(Space),,,,,,,,-- --- ---- --- ------ ----- ------- ---- -- --- ------- --<br>------- ---------- ------ -- ----- -- ----- -- ---- ------<br>--- ----- --- --- ------ -------- ----- --- ------ ----- --<br>----- ----- ---------- --- --- ------ ------ ---- -- ------<br>------- The ------ ----- --- ---- ------- -- ---- --- --<br>------- ------,323341.59999999404,323340.7999999821,322923.005,322925.39999997616,322939.585,323356.36,,44,The
screen,html.Screen,2_1_1_1_45,2022-02-16T09:08:01.861Z,,,,,,,,,,,,,,,,,54,,,,,,,,,,,,,,392.7399999940535,,response,,,,100,,,,,,,Space,keypress(Space),,,,,,,,-- --- ---- --- ------ ----- ------- ---- -- --- ------- --<br>------- ---------- ------ -- ----- -- ----- -- ---- ------<br>--- ----- --- --- ------ -------- ----- --- ------ ----- --<br>----- ----- ---------- --- --- ------ ------ ---- -- ------<br>------- --- French ----- --- ---- ------- -- ---- --- --<br>------- ------,323750,323749.09999999404,323339.75,323341.6999999881,323356.36,323756.524,,45,French
screen,html.Screen,2_1_1_1_46,2022-02-16T09:08:02.196Z,,,,,,,,,,,,,,,,,54,,,,,,,,,,,,,,328.37599997618236,,response,,,,100,,,,,,,Space,keypress(Space),,,,,,,,-- --- ---- --- ------ ----- ------- ---- -- --- ------- --<br>------- ---------- ------ -- ----- -- ----- -- ---- ------<br>--- ----- --- --- ------ -------- ----- --- ------ ----- --<br>----- ----- ---------- --- --- ------ ------ ---- -- ------<br>------- --- ------ state --- ---- ------- -- ---- --- --<br>------- ------,324085.6999999881,324084.89999997616,323739.956,323750.09999999404,323756.524,324089.977,,46,state
screen,html.Screen,2_1_1_1_47,2022-02-16T09:08:02.621Z,,,,,,,,,,,,,,,,,54,,,,,,,,,,,,,,419.42299997614464,,response,,,,100,,,,,,,Space,keypress(Space),,,,,,,,-- --- ---- --- ------ ----- ------- ---- -- --- ------- --<br>------- ---------- ------ -- ----- -- ----- -- ---- ------<br>--- ----- --- --- ------ -------- ----- --- ------ ----- --<br>----- ----- ---------- --- --- ------ ------ ---- -- ------<br>------- --- ------ ----- was ---- ------- -- ---- --- --<br>------- ------,324510.1999999881,324509.39999997616,324073.295,324085.7999999821,324089.977,324523.4,,47,was
screen,html.Screen,2_1_1_1_48,2022-02-16T09:08:03.013Z,,,,,,,,,,,,,,,,,54,,,,,,,,,,,,,,378.0999999999767,,response,,,,100,,,,,,,Space,keypress(Space),,,,,,,,-- --- ---- --- ------ ----- ------- ---- -- --- ------- --<br>------- ---------- ------ -- ----- -- ----- -- ---- ------<br>--- ----- --- --- ------ -------- ----- --- ------ ----- --<br>----- ----- ---------- --- --- ------ ------ ---- -- ------<br>------- --- ------ ----- --- left ------- -- ---- --- --<br>------- ------,324902.39999997616,324901.5,324506.81,324510.2999999821,324523.4,324906.842,,48,left
screen,html.Screen,2_1_1_1_49,2022-02-16T09:08:03.381Z,,,,,,,,,,,,,,,,,54,,,,,,,,,,,,,,362.75799999403534,,response,,,,100,,,,,,,Space,keypress(Space),,,,,,,,-- --- ---- --- ------ ----- ------- ---- -- --- ------- --<br>------- ---------- ------ -- ----- -- ----- -- ---- ------<br>--- ----- --- --- ------ -------- ----- --- ------ ----- --<br>----- ----- ---------- --- --- ------ ------ ---- -- ------<br>------- --- ------ ----- --- ---- without -- ---- --- --<br>------- ------,325270.5,325269.59999999404,324890.244,324902.39999997616,324906.842,325273.604,,49,without
screen,html.Screen,2_1_1_1_50,2022-02-16T09:08:03.709Z,,,,,,,,,,,,,,,,,54,,,,,,,,,,,,,,323.6959999821265,,response,,,,100,,,,,,,Space,keypress(Space),,,,,,,,-- --- ---- --- ------ ----- ------- ---- -- --- ------- --<br>------- ---------- ------ -- ----- -- ----- -- ---- ------<br>--- ----- --- --- ------ -------- ----- --- ------ ----- --<br>----- ----- ---------- --- --- ------ ------ ---- -- ------<br>------- --- ------ ----- --- ---- ------- an ---- --- --<br>------- ------,325598.1999999881,325597.2999999821,325257.021,325270.5,325273.604,325607.064,,50,an
screen,html.Screen,2_1_1_1_51,2022-02-16T09:08:04.125Z,,,,,,,,,,,,,,,,,54,,,,,,,,,,,,,,406.5359999940265,,response,,,,100,,,,,,,Space,keypress(Space),,,,,,,,-- --- ---- --- ------ ----- ------- ---- -- --- ------- --<br>------- ---------- ------ -- ----- -- ----- -- ---- ------<br>--- ----- --- --- ------ -------- ----- --- ------ ----- --<br>----- ----- ---------- --- --- ------ ------ ---- -- ------<br>------- --- ------ ----- --- ---- ------- -- easy --- --<br>------- ------,326014.39999997616,326013.59999999404,325590.462,325598.39999997616,325607.064,326023.814,,51,easy
screen,html.Screen,2_1_1_1_52,2022-02-16T09:08:04.525Z,,,,,,,,,,,,,,,,,54,,,,,,,,,,,,,,389.88599998806603,,response,,,,100,,,,,,,Space,keypress(Space),,,,,,,,-- --- ---- --- ------ ----- ------- ---- -- --- ------- --<br>------- ---------- ------ -- ----- -- ----- -- ---- ------<br>--- ----- --- --- ------ -------- ----- --- ------ ----- --<br>----- ----- ---------- --- --- ------ ------ ---- -- ------<br>------- --- ------ ----- --- ---- ------- -- ---- way --<br>------- ------,326414.59999999404,326413.6999999881,326007.204,326014.5,326023.814,326423.99,,52,way
screen,html.Screen,2_1_1_1_53,2022-02-16T09:08:04.893Z,,,,,,,,,,,,,,,,,54,,,,,,,,,,,,,,357.8099999821279,,response,,,,100,,,,,,,Space,keypress(Space),,,,,,,,-- --- ---- --- ------ ----- ------- ---- -- --- ------- --<br>------- ---------- ------ -- ----- -- ----- -- ---- ------<br>--- ----- --- --- ------ -------- ----- --- ------ ----- --<br>----- ----- ---------- --- --- ------ ------ ---- -- ------<br>------- --- ------ ----- --- ---- ------- -- ---- --- of<br>------- ------,326782.59999999404,326781.7999999821,326407.354,326414.6999999881,326423.99,326790.679,,53,of
screen,html.Screen,2_1_1_1_54,2022-02-16T09:08:05.325Z,,,,,,,,,,,,,,,,,54,,,,,,,,,,,,,,423.3209999999963,,response,,,,100,,,,,,,Space,keypress(Space),,,,,,,,-- --- ---- --- ------ ----- ------- ---- -- --- ------- --<br>------- ---------- ------ -- ----- -- ----- -- ---- ------<br>--- ----- --- --- ------ -------- ----- --- ------ ----- --<br>----- ----- ---------- --- --- ------ ------ ---- -- ------<br>------- --- ------ ----- --- ---- ------- -- ---- --- --<br>raising ------,327214.6999999881,327214,326774.039,326782.7999999821,326790.679,327224.13,,54,raising
screen,html.Screen,2_1_1_1_55,2022-02-16T09:08:05.670Z,,,,,,,,,,,,,,,,,54,,,,,,,,,,,,,,334.4699999940349,,response,,,,100,,,,,,,Space,keypress(Space),,,,,,,,-- --- ---- --- ------ ----- ------- ---- -- --- ------- --<br>------- ---------- ------ -- ----- -- ----- -- ---- ------<br>--- ----- --- --- ------ -------- ----- --- ------ ----- --<br>----- ----- ---------- --- --- ------ ------ ---- -- ------<br>------- --- ------ ----- --- ---- ------- -- ---- --- --<br>------- money.,327559.39999997616,327558.59999999404,327207.617,327214.89999997616,327224.13,327574.291,,55,money.
Item 100,flow.Loop,2_1_1_1,2022-02-16T09:08:05.670Z,,,,,,,,,,,,,,,,,,,,,,,,,,,,,,,21057.04099999403,,completion,,,,,C,,,,,,,,,,,silence,,,,,327559.5,327558.59999999404,306484.901,306485.6999999881,306501.559,327574.291,,,
Question 1,html.Screen,2_1_1_2,2022-02-16T09:08:08.371Z,,,,,,,,,,,,,,,,,,,,,,,,,,,,true,TRUE,,2685.008999982092,,response,,,,100,C,,,,,,TRUE,click #choice-1,,,,silence,,,,,330260.39999997616,330259.2999999821,327557.609,327559.59999999404,327574.291,330275.067,,,
Question 2,html.Screen,2_1_1_3,2022-02-16T09:08:10.548Z,,,,,,,,,,,,,,,,,,,,,,,,,,,,true,FALSE,,2161.132999988098,,response,,,,100,C,,,,,,FALSE,click #choice-2,,,,silence,,,,,332437.2999999821,332436.1999999881,330258.424,330260.59999999404,330275.067,332442.346,,,
Item 100,flow.Sequence,2_1_1,2022-02-16T09:08:10.548Z,,,,,,,,,,,,,,,,,,,,,,,,,,,,,,,35937.452999988105,,completion,,,,,,,,,,,,,,,,,,,,,332437.2999999821,332436.1999999881,296482.059,296495.39999997616,296498.747,332442.346,,,
End of Practice,html.Page,2_1_2,2022-02-16T09:08:13.938Z,,,,,,,,,,,,,,,,,,,,,,,,,,,,,,,3384.3539999880595,,form submission,,,,,,,,,,,,,,,,,,,,,335827.1999999881,335826.6999999881,332425.717,332437.39999997616,332442.346,335844.35,,,
Practice,flow.Sequence,2_1,2022-02-16T09:08:13.938Z,,,,,,,,,,,,,,,,,,,,,,,,,,,,,,,84557.53599998809,,completion,,,,,,,,,,,,,,,,,,,,,335827.39999997616,335826.6999999881,251252.535,251265.19999998808,251269.164,335844.35,,,
Trap_instruction,html.Page,2_2_0,2022-02-16T09:08:19.401Z,,,,,,,,,,,,,,,,,,,,,,,,,,,,,,,5445.949999982142,,form submission,,,,,,,,,,,,,,,,,,,,,341290.59999999404,341290.2999999821,335810.008,335827.5,335844.35,341311.533,,,
trap_trial,html.Screen,2_2_1,2022-02-16T09:08:22.193Z,,,,,,,,,,,,,,,,,,,,,,,,,,,,true,1,,2769.766999982123,,response,,,,,,,,,,,1,click #choice-1,,,,,,,,,344082.2999999821,344081.2999999821,341278.28,341290.59999999404,341311.533,344095.696,,,
end of trap trial,html.Page,2_2_2,2022-02-16T09:08:24.109Z,,,,,,,,,,,,,,,,,,,,,,,,,,,,,,,1902.8040000000037,,form submission,,,,,,,,,,,,,,,,,,,,,345998.6999999881,345998.5,344079.077,344082.5,344095.696,346012.929,,,
Trap 1,flow.Sequence,2_2,2022-02-16T09:08:24.109Z,,,,,,,,,,,,,,,,,,,,,,,,,,,,,,,10154.150000000023,,completion,,,,,,,,,,,,,,,,,,,,,345998.89999997616,345998.5,335810.008,335827.39999997616,335844.35,346012.929,,,
Standby,html.Page,2_3_0,2022-02-16T09:08:32.109Z,,,,,,,,,,,,,,,,,,,,,,,,,,,,,,,8002.261999999988,,timeout,,,,,,,,,,,,,,,,,,,,,353999.09999999404,353998.508,345996.203,345999,346012.929,354015.191,,,
Holding screen,html.Screen,2_3_1_0_0,2022-02-16T09:08:39.111Z,,,,,,,,,,,,,,,,,,,,,,,,,,,,,,,7001.97100000002,,timeout,,,,,,,,,,,,,,,,,,,,,361001,361000.485,353998.508,353999.39999997616,354015.191,361017.162,,,
screen,html.Screen,2_3_1_0_1_0,2022-02-16T09:08:39.808Z,,,,,,,,,,,,,,,,,15,,,,,,,,,,,,,,680.0379999880679,,response,,,,7,C,,,,,,Space,keypress(Space),,,,instrumental,,,,Greg --------- ---------- - --- ------- -- --- ------------<br>----- -- -------- ------- ---- ------ - -------- ---- -----<br>--- ------- ---- -- --- -------- --- - ----- ------ ---- --<br>-------- --- -------- -------- --- -------- ---- -- ----- -<br>-------- ---- --- ---------- --------- -- ------- ------ -<br>--------- ----- -----,361698.1999999881,361697.1999999881,361000.485,361001.09999999404,361017.162,361700.676,,0,Greg
screen,html.Screen,2_3_1_0_1_1,2022-02-16T09:08:40.184Z,,,,,,,,,,,,,,,,,15,,,,,,,,,,,,,,371.9239999940619,,response,,,,7,C,,,,,,Space,keypress(Space),,,,instrumental,,,,"---- Anderson, ---------- - --- ------- -- --- ------------<br>----- -- -------- ------- ---- ------ - -------- ---- -----<br>--- ------- ---- -- --- -------- --- - ----- ------ ---- --<br>-------- --- -------- -------- --- -------- ---- -- ----- -<br>-------- ---- --- ---------- --------- -- ------- ------ -<br>--------- ----- -----",362073.2999999821,362072.59999999404,361684.159,361698.2999999821,361700.676,362084.165,,1,"Anderson,"
screen,html.Screen,2_3_1_0_1_2,2022-02-16T09:08:40.528Z,,,,,,,,,,,,,,,,,15,,,,,,,,,,,,,,332.4349999940605,,response,,,,7,C,,,,,,Space,keypress(Space),,,,instrumental,,,,---- --------- considered - --- ------- -- --- ------------<br>----- -- -------- ------- ---- ------ - -------- ---- -----<br>--- ------- ---- -- --- -------- --- - ----- ------ ---- --<br>-------- --- -------- -------- --- -------- ---- -- ----- -<br>-------- ---- --- ---------- --------- -- ------- ------ -<br>--------- ----- -----,362417.39999997616,362416.59999999404,362067.575,362073.5,362084.165,362434.285,,2,considered
screen,html.Screen,2_3_1_0_1_3,2022-02-16T09:08:40.904Z,,,,,,,,,,,,,,,,,15,,,,,,,,,,,,,,358.5149999821442,,response,,,,7,C,,,,,,Space,keypress(Space),,,,instrumental,,,,---- --------- ---------- a --- ------- -- --- ------------<br>----- -- -------- ------- ---- ------ - -------- ---- -----<br>--- ------- ---- -- --- -------- --- - ----- ------ ---- --<br>-------- --- -------- -------- --- -------- ---- -- ----- -<br>-------- ---- --- ---------- --------- -- ------- ------ -<br>--------- ----- -----,362793.59999999404,362792.7999999821,362417.634,362417.5,362434.285,362801.051,,3,a
screen,html.Screen,2_3_1_0_1_4,2022-02-16T09:08:41.199Z,,,,,,,,,,,,,,,,,15,,,,,,,,,,,,,,287.3489999761805,,response,,,,7,C,,,,,,Space,keypress(Space),,,,instrumental,,,,---- --------- ---------- - key ------- -- --- ------------<br>----- -- -------- ------- ---- ------ - -------- ---- -----<br>--- ------- ---- -- --- -------- --- - ----- ------ ---- --<br>-------- --- -------- -------- --- -------- ---- -- ----- -<br>-------- ---- --- ---------- --------- -- ------- ------ -<br>--------- ----- -----,363089.09999999404,363088.39999997616,362784.416,362793.6999999881,362801.051,363101.118,,4,key
screen,html.Screen,2_3_1_0_1_5,2022-02-16T09:08:41.519Z,,,,,,,,,,,,,,,,,15,,,,,,,,,,,,,,306.88199999998324,,response,,,,7,C,,,,,,Space,keypress(Space),,,,instrumental,,,,---- --------- ---------- - --- witness -- --- ------------<br>----- -- -------- ------- ---- ------ - -------- ---- -----<br>--- ------- ---- -- --- -------- --- - ----- ------ ---- --<br>-------- --- -------- -------- --- -------- ---- -- ----- -<br>-------- ---- --- ---------- --------- -- ------- ------ -<br>--------- ----- -----,363408.6999999881,363408,363084.501,363089.1999999881,363101.118,363417.893,,5,witness
screen,html.Screen,2_3_1_0_1_6,2022-02-16T09:08:41.879Z,,,,,,,,,,,,,,,,,15,,,,,,,,,,,,,,350.10700000001816,,response,,,,7,C,,,,,,Space,keypress(Space),,,,instrumental,,,,---- --------- ---------- - --- ------- by --- ------------<br>----- -- -------- ------- ---- ------ - -------- ---- -----<br>--- ------- ---- -- --- -------- --- - ----- ------ ---- --<br>-------- --- -------- -------- --- -------- ---- -- ----- -<br>-------- ---- --- ---------- --------- -- ------- ------ -<br>--------- ----- -----,363768.6999999881,363768,363401.263,363408.7999999821,363417.893,363784.631,,6,by
screen,html.Screen,2_3_1_0_1_7,2022-02-16T09:08:42.215Z,,,,,,,,,,,,,,,,,15,,,,,,,,,,,,,,319.36900000000605,,response,,,,7,C,,,,,,Space,keypress(Space),,,,instrumental,,,,---- --------- ---------- - --- ------- -- the ------------<br>----- -- -------- ------- ---- ------ - -------- ---- -----<br>--- ------- ---- -- --- -------- --- - ----- ------ ---- --<br>-------- --- -------- -------- --- -------- ---- -- ----- -<br>-------- ---- --- ---------- --------- -- ------- ------ -<br>--------- ----- -----,364104.6999999881,364104,363768.032,363768.89999997616,363784.631,364118.093,,7,the
screen,html.Screen,2_3_1_0_1_8,2022-02-16T09:08:42.615Z,,,,,,,,,,,,,,,,,15,,,,,,,,,,,,,,386.30699997616466,,response,,,,7,C,,,,,,Space,keypress(Space),,,,instrumental,,,,"---- --------- ---------- - --- ------- -- --- prosecution,<br>----- -- -------- ------- ---- ------ - -------- ---- -----<br>--- ------- ---- -- --- -------- --- - ----- ------ ---- --<br>-------- --- -------- -------- --- -------- ---- -- ----- -<br>-------- ---- --- ---------- --------- -- ------- ------ -<br>--------- ----- -----",364505.1999999881,364504.39999997616,364101.468,364104.7999999821,364118.093,364518.172,,8,"prosecution,"
screen,html.Screen,2_3_1_0_1_9,2022-02-16T09:08:43.538Z,,,,,,,,,,,,,,,,,15,,,,,,,,,,,,,,909.2279999761377,,response,,,,7,C,,,,,,Space,keypress(Space),,,,instrumental,,,,---- --------- ---------- - --- ------- -- --- ------------<br>vowed -- -------- ------- ---- ------ - -------- ---- -----<br>--- ------- ---- -- --- -------- --- - ----- ------ ---- --<br>-------- --- -------- -------- --- -------- ---- -- ----- -<br>-------- ---- --- ---------- --------- -- ------- ------ -<br>--------- ----- -----,365428.1999999881,365427.39999997616,364501.621,364505.1999999881,364518.172,365435.136,,9,vowed
screen,html.Screen,2_3_1_0_1_10,2022-02-16T09:08:43.963Z,,,,,,,,,,,,,,,,,15,,,,,,,,,,,,,,416.8640000000014,,response,,,,7,C,,,,,,Space,keypress(Space),,,,instrumental,,,,---- --------- ---------- - --- ------- -- --- ------------<br>----- he -------- ------- ---- ------ - -------- ---- -----<br>--- ------- ---- -- --- -------- --- - ----- ------ ---- --<br>-------- --- -------- -------- --- -------- ---- -- ----- -<br>-------- ---- --- ---------- --------- -- ------- ------ -<br>--------- ----- -----,365852.7999999821,365852,365418.584,365428.2999999821,365435.136,365868.608,,10,he
screen,html.Screen,2_3_1_0_1_11,2022-02-16T09:08:44.323Z,,,,,,,,,,,,,,,,,15,,,,,,,,,,,,,,343.39199999999255,,response,,,,7,C,,,,,,Space,keypress(Space),,,,instrumental,,,,---- --------- ---------- - --- ------- -- --- ------------<br>----- -- wouldn't ------- ---- ------ - -------- ---- -----<br>--- ------- ---- -- --- -------- --- - ----- ------ ---- --<br>-------- --- -------- -------- --- -------- ---- -- ----- -<br>-------- ---- --- ---------- --------- -- ------- ------ -<br>--------- ----- -----,366212.7999999821,366212,365851.965,365852.89999997616,365868.608,366218.656,,11,wouldn't
screen,html.Screen,2_3_1_0_1_12,2022-02-16T09:08:44.683Z,,,,,,,,,,,,,,,,,15,,,,,,,,,,,,,,353.2439999761409,,response,,,,7,C,,,,,,Space,keypress(Space),,,,instrumental,,,,---- --------- ---------- - --- ------- -- --- ------------<br>----- -- -------- testify ---- ------ - -------- ---- -----<br>--- ------- ---- -- --- -------- --- - ----- ------ ---- --<br>-------- --- -------- -------- --- -------- ---- -- ----- -<br>-------- ---- --- ---------- --------- -- ------- ------ -<br>--------- ----- -----,366572.7999999821,366571.89999997616,366202.053,366212.89999997616,366218.656,366585.465,,12,testify
screen,html.Screen,2_3_1_0_1_13,2022-02-16T09:08:45.059Z,,,,,,,,,,,,,,,,,15,,,,,,,,,,,,,,362.43499997613253,,response,,,,7,C,,,,,,Space,keypress(Space),,,,instrumental,,,,---- --------- ---------- - --- ------- -- --- ------------<br>----- -- -------- ------- when ------ - -------- ---- -----<br>--- ------- ---- -- --- -------- --- - ----- ------ ---- --<br>-------- --- -------- -------- --- -------- ---- -- ----- -<br>-------- ---- --- ---------- --------- -- ------- ------ -<br>--------- ----- -----,366948.6999999881,366947.89999997616,366568.826,366572.89999997616,366585.465,366952.215,,13,when
screen,html.Screen,2_3_1_0_1_14,2022-02-16T09:08:45.443Z,,,,,,,,,,,,,,,,,15,,,,,,,,,,,,,,380.084999982093,,response,,,,7,C,,,,,,Space,keypress(Space),,,,instrumental,,,,---- --------- ---------- - --- ------- -- --- ------------<br>----- -- -------- ------- ---- served - -------- ---- -----<br>--- ------- ---- -- --- -------- --- - ----- ------ ---- --<br>-------- --- -------- -------- --- -------- ---- -- ----- -<br>-------- ---- --- ---------- --------- -- ------- ------ -<br>--------- ----- -----,367333.1999999881,367332.2999999821,366935.599,366948.7999999821,366952.215,367335.6,,14,served
screen,html.Screen,2_3_1_0_1_15,2022-02-16T09:08:45.779Z,,,,,,,,,,,,,,,,,15,,,,,,,,,,,,,,332.2999999761814,,response,,,,7,C,,,,,,Space,keypress(Space),,,,instrumental,,,,---- --------- ---------- - --- ------- -- --- ------------<br>----- -- -------- ------- ---- ------ a -------- ---- -----<br>--- ------- ---- -- --- -------- --- - ----- ------ ---- --<br>-------- --- -------- -------- --- -------- ---- -- ----- -<br>-------- ---- --- ---------- --------- -- ------- ------ -<br>--------- ----- -----,367668.5,367667.89999997616,367319.067,367333.2999999821,367335.6,367705.75,,15,a
screen,html.Screen,2_3_1_0_1_16,2022-02-16T09:08:46.099Z,,,,,,,,,,,,,,,,,15,,,,,,,,,,,,,,282.0499999821186,,response,,,,7,C,,,,,,Space,keypress(Space),,,,instrumental,,,,---- --------- ---------- - --- ------- -- --- ------------<br>----- -- -------- ------- ---- ------ - subpoena ---- -----<br>--- ------- ---- -- --- -------- --- - ----- ------ ---- --<br>-------- --- -------- -------- --- -------- ---- -- ----- -<br>-------- ---- --- ---------- --------- -- ------- ------ -<br>--------- ----- -----,367988.6999999881,367987.7999999821,367652.473,367668.59999999404,367705.75,368002.504,,16,subpoena
screen,html.Screen,2_3_1_0_1_17,2022-02-16T09:08:47.448Z,,,,,,,,,,,,,,,,,15,,,,,,,,,,,,,,1334.6959999880637,,response,,,,7,C,,,,,,Space,keypress(Space),,,,instrumental,,,,---- --------- ---------- - --- ------- -- --- ------------<br>----- -- -------- ------- ---- ------ - -------- last -----<br>--- ------- ---- -- --- -------- --- - ----- ------ ---- --<br>-------- --- -------- -------- --- -------- ---- -- ----- -<br>-------- ---- --- ---------- --------- -- ------- ------ -<br>--------- ----- -----,369338.09999999404,369337.1999999881,367985.852,367988.7999999821,368002.504,369352.904,,17,last
screen,html.Screen,2_3_1_0_1_18,2022-02-16T09:08:47.792Z,,,,,,,,,,,,,,,,,15,,,,,,,,,,,,,,328.4959999761777,,response,,,,7,C,,,,,,Space,keypress(Space),,,,instrumental,,,,---- --------- ---------- - --- ------- -- --- ------------<br>----- -- -------- ------- ---- ------ - -------- ---- week.<br>--- ------- ---- -- --- -------- --- - ----- ------ ---- --<br>-------- --- -------- -------- --- -------- ---- -- ----- -<br>-------- ---- --- ---------- --------- -- ------- ------ -<br>--------- ----- -----,369682.1999999881,369681.39999997616,369336.436,369338.1999999881,369352.904,369686.439,,18,week.
screen,html.Screen,2_3_1_0_1_19,2022-02-16T09:08:48.233Z,,,,,,,,,,,,,,,,,15,,,,,,,,,,,,,,435.4609999761451,,response,,,,7,C,,,,,,Space,keypress(Space),,,,instrumental,,,,---- --------- ---------- - --- ------- -- --- ------------<br>----- -- -------- ------- ---- ------ - -------- ---- -----<br>His ------- ---- -- --- -------- --- - ----- ------ ---- --<br>-------- --- -------- -------- --- -------- ---- -- ----- -<br>-------- ---- --- ---------- --------- -- ------- ------ -<br>--------- ----- -----,370122.59999999404,370121.89999997616,369669.68,369682.1999999881,369686.439,370136.489,,19,His
screen,html.Screen,2_3_1_0_1_20,2022-02-16T09:08:48.665Z,,,,,,,,,,,,,,,,,15,,,,,,,,,,,,,,417.8109999821172,,response,,,,7,C,,,,,,Space,keypress(Space),,,,instrumental,,,,---- --------- ---------- - --- ------- -- --- ------------<br>----- -- -------- ------- ---- ------ - -------- ---- -----<br>--- lawyers ---- -- --- -------- --- - ----- ------ ---- --<br>-------- --- -------- -------- --- -------- ---- -- ----- -<br>-------- ---- --- ---------- --------- -- ------- ------ -<br>--------- ----- -----,370555.09999999404,370554.2999999821,370119.9,370122.7999999821,370136.489,370569.927,,20,lawyers
screen,html.Screen,2_3_1_0_1_21,2022-02-16T09:08:49.009Z,,,,,,,,,,,,,,,,,15,,,,,,,,,,,,,,328.2729999880539,,response,,,,7,C,,,,,,Space,keypress(Space),,,,instrumental,,,,---- --------- ---------- - --- ------- -- --- ------------<br>----- -- -------- ------- ---- ------ - -------- ---- -----<br>--- ------- said -- --- -------- --- - ----- ------ ---- --<br>-------- --- -------- -------- --- -------- ---- -- ----- -<br>-------- ---- --- ---------- --------- -- ------- ------ -<br>--------- ----- -----,370899,370898.1999999881,370553.325,370555.1999999881,370569.927,370903.348,,21,said
screen,html.Screen,2_3_1_0_1_22,2022-02-16T09:08:49.353Z,,,,,,,,,,,,,,,,,15,,,,,,,,,,,,,,338.7519999940414,,response,,,,7,C,,,,,,Space,keypress(Space),,,,instrumental,,,,---- --------- ---------- - --- ------- -- --- ------------<br>----- -- -------- ------- ---- ------ - -------- ---- -----<br>--- ------- ---- he --- -------- --- - ----- ------ ---- --<br>-------- --- -------- -------- --- -------- ---- -- ----- -<br>-------- ---- --- ---------- --------- -- ------- ------ -<br>--------- ----- -----,371242.89999997616,371242.09999999404,370886.742,370899.09999999404,370903.348,371253.451,,22,he
screen,html.Screen,2_3_1_0_1_23,2022-02-16T09:08:49.753Z,,,,,,,,,,,,,,,,,15,,,,,,,,,,,,,,388.9489999761572,,response,,,,7,C,,,,,,Space,keypress(Space),,,,instrumental,,,,---- --------- ---------- - --- ------- -- --- ------------<br>----- -- -------- ------- ---- ------ - -------- ---- -----<br>--- ------- ---- -- was -------- --- - ----- ------ ---- --<br>-------- --- -------- -------- --- -------- ---- -- ----- -<br>-------- ---- --- ---------- --------- -- ------- ------ -<br>--------- ----- -----,371643.09999999404,371642.39999997616,371236.799,371243,371253.451,371653.531,,23,was
screen,html.Screen,2_3_1_0_1_24,2022-02-16T09:08:50.251Z,,,,,,,,,,,,,,,,,15,,,,,,,,,,,,,,485.96899999998277,,response,,,,7,C,,,,,,Space,keypress(Space),,,,instrumental,,,,---- --------- ---------- - --- ------- -- --- ------------<br>----- -- -------- ------- ---- ------ - -------- ---- -----<br>--- ------- ---- -- --- prepared --- - ----- ------ ---- --<br>-------- --- -------- -------- --- -------- ---- -- ----- -<br>-------- ---- --- ---------- --------- -- ------- ------ -<br>--------- ----- -----,372140.2999999821,372139.5,371636.946,371643.1999999881,371653.531,372153.708,,24,prepared
screen,html.Screen,2_3_1_0_1_25,2022-02-16T09:08:50.771Z,,,,,,,,,,,,,,,,,15,,,,,,,,,,,,,,505.9919999880949,,response,,,,7,C,,,,,,Space,keypress(Space),,,,instrumental,,,,---- --------- ---------- - --- ------- -- --- ------------<br>----- -- -------- ------- ---- ------ - -------- ---- -----<br>--- ------- ---- -- --- -------- for - ----- ------ ---- --<br>-------- --- -------- -------- --- -------- ---- -- ----- -<br>-------- ---- --- ---------- --------- -- ------- ------ -<br>--------- ----- -----,372660.59999999404,372659.6999999881,372137.109,372140.5,372153.708,372670.474,,25,for
screen,html.Screen,2_3_1_0_1_26,2022-02-16T09:08:51.260Z,,,,,,,,,,,,,,,,,15,,,,,,,,,,,,,,478.1259999940521,,response,,,,7,C,,,,,,Space,keypress(Space),,,,instrumental,,,,---- --------- ---------- - --- ------- -- --- ------------<br>----- -- -------- ------- ---- ------ - -------- ---- -----<br>--- ------- ---- -- --- -------- --- a ----- ------ ---- --<br>-------- --- -------- -------- --- -------- ---- -- ----- -<br>-------- ---- --- ---------- --------- -- ------- ------ -<br>--------- ----- -----,373149.39999997616,373148.59999999404,372653.928,372660.6999999881,372670.474,373153.999,,26,a
screen,html.Screen,2_3_1_0_1_27,2022-02-16T09:08:51.748Z,,,,,,,,,,,,,,,,,15,,,,,,,,,,,,,,483.20099998806836,,response,,,,7,C,,,,,,Space,keypress(Space),,,,instrumental,,,,---- --------- ---------- - --- ------- -- --- ------------<br>----- -- -------- ------- ---- ------ - -------- ---- -----<br>--- ------- ---- -- --- -------- --- - third ------ ---- --<br>-------- --- -------- -------- --- -------- ---- -- ----- -<br>-------- ---- --- ---------- --------- -- ------- ------ -<br>--------- ----- -----,373638,373637.1999999881,373137.396,373149.5,373153.999,373654.146,,27,third
screen,html.Screen,2_3_1_0_1_28,2022-02-16T09:08:52.140Z,,,,,,,,,,,,,,,,,15,,,,,,,,,,,,,,375.2539999761502,,response,,,,7,C,,,,,,Space,keypress(Space),,,,instrumental,,,,---- --------- ---------- - --- ------- -- --- ------------<br>----- -- -------- ------- ---- ------ - -------- ---- -----<br>--- ------- ---- -- --- -------- --- - ----- prison ---- --<br>-------- --- -------- -------- --- -------- ---- -- ----- -<br>-------- ---- --- ---------- --------- -- ------- ------ -<br>--------- ----- -----,374030.1999999881,374029.39999997616,373637.503,373638.09999999404,373654.146,374037.576,,28,prison
screen,html.Screen,2_3_1_0_1_29,2022-02-16T09:08:52.549Z,,,,,,,,,,,,,,,,,15,,,,,,,,,,,,,,400.0239999940386,,response,,,,7,C,,,,,,Space,keypress(Space),,,,instrumental,,,,---- --------- ---------- - --- ------- -- --- ------------<br>----- -- -------- ------- ---- ------ - -------- ---- -----<br>--- ------- ---- -- --- -------- --- - ----- ------ stay --<br>-------- --- -------- -------- --- -------- ---- -- ----- -<br>-------- ---- --- ---------- --------- -- ------- ------ -<br>--------- ----- -----,374438.39999997616,374437.59999999404,374020.955,374030.2999999821,374037.576,374454.336,,29,stay
screen,html.Screen,2_3_1_0_1_30,2022-02-16T09:08:53.029Z,,,,,,,,,,,,,,,,,15,,,,,,,,,,,,,,464.0639999761479,,response,,,,7,C,,,,,,Space,keypress(Space),,,,instrumental,,,,---- --------- ---------- - --- ------- -- --- ------------<br>----- -- -------- ------- ---- ------ - -------- ---- -----<br>--- ------- ---- -- --- -------- --- - ----- ------ ---- to<br>-------- --- -------- -------- --- -------- ---- -- ----- -<br>-------- ---- --- ---------- --------- -- ------- ------ -<br>--------- ----- -----,374919.1999999881,374918.39999997616,374437.789,374438.5,374454.336,374921.101,,30,to
screen,html.Screen,2_3_1_0_1_31,2022-02-16T09:08:53.542Z,,,,,,,,,,,,,,,,,15,,,,,,,,,,,,,,510.09899998805486,,response,,,,7,C,,,,,,Space,keypress(Space),,,,instrumental,,,,---- --------- ---------- - --- ------- -- --- ------------<br>----- -- -------- ------- ---- ------ - -------- ---- -----<br>--- ------- ---- -- --- -------- --- - ----- ------ ---- --<br>maintain --- -------- -------- --- -------- ---- -- ----- -<br>-------- ---- --- ---------- --------- -- ------- ------ -<br>--------- ----- -----,375432,375431.1999999881,374904.519,374919.39999997616,374921.101,375437.97,,31,maintain
screen,html.Screen,2_3_1_0_1_32,2022-02-16T09:08:54.048Z,,,,,,,,,,,,,,,,,15,,,,,,,,,,,,,,498.6299999940675,,response,,,,7,C,,,,,,Space,keypress(Space),,,,instrumental,,,,---- --------- ---------- - --- ------- -- --- ------------<br>----- -- -------- ------- ---- ------ - -------- ---- -----<br>--- ------- ---- -- --- -------- --- - ----- ------ ---- --<br>-------- his -------- -------- --- -------- ---- -- ----- -<br>-------- ---- --- ---------- --------- -- ------- ------ -<br>--------- ----- -----,375937.5,375936.59999999404,375421.401,375432.09999999404,375437.97,375954.869,,32,his
screen,html.Screen,2_3_1_0_1_33,2022-02-16T09:08:54.576Z,,,,,,,,,,,,,,,,,15,,,,,,,,,,,,,,509.830999988073,,response,,,,7,C,,,,,,Space,keypress(Space),,,,instrumental,,,,---- --------- ---------- - --- ------- -- --- ------------<br>----- -- -------- ------- ---- ------ - -------- ---- -----<br>--- ------- ---- -- --- -------- --- - ----- ------ ---- --<br>-------- --- silence. -------- --- -------- ---- -- ----- -<br>-------- ---- --- ---------- --------- -- ------- ------ -<br>--------- ----- -----,376465.6999999881,376464.6999999881,375921.535,375937.6999999881,375954.869,376471.609,,33,silence.
screen,html.Screen,2_3_1_0_1_34,2022-02-16T09:08:55.105Z,,,,,,,,,,,,,,,,,15,,,,,,,,,,,,,,521.9909999940428,,response,,,,7,C,,,,,,Space,keypress(Space),,,,instrumental,,,,---- --------- ---------- - --- ------- -- --- ------------<br>----- -- -------- ------- ---- ------ - -------- ---- -----<br>--- ------- ---- -- --- -------- --- - ----- ------ ---- --<br>-------- --- -------- Anderson --- -------- ---- -- ----- -<br>-------- ---- --- ---------- --------- -- ------- ------ -<br>--------- ----- -----,376994.5,376993.59999999404,376455.033,376465.89999997616,376471.609,377005.08,,34,Anderson
screen,html.Screen,2_3_1_0_1_35,2022-02-16T09:08:55.457Z,,,,,,,,,,,,,,,,,15,,,,,,,,,,,,,,340.51999999402324,,response,,,,7,C,,,,,,Space,keypress(Space),,,,instrumental,,,,---- --------- ---------- - --- ------- -- --- ------------<br>----- -- -------- ------- ---- ------ - -------- ---- -----<br>--- ------- ---- -- --- -------- --- - ----- ------ ---- --<br>-------- --- -------- -------- was -------- ---- -- ----- -<br>-------- ---- --- ---------- --------- -- ------- ------ -<br>--------- ----- -----,377346.39999997616,377345.59999999404,376988.503,376994.59999999404,377005.08,377355.224,,35,was
screen,html.Screen,2_3_1_0_1_36,2022-02-16T09:08:55.784Z,,,,,,,,,,,,,,,,,15,,,,,,,,,,,,,,317.97599998809164,,response,,,,7,C,,,,,,Space,keypress(Space),,,,instrumental,,,,---- --------- ---------- - --- ------- -- --- ------------<br>----- -- -------- ------- ---- ------ - -------- ---- -----<br>--- ------- ---- -- --- -------- --- - ----- ------ ---- --<br>-------- --- -------- -------- --- released ---- -- ----- -<br>-------- ---- --- ---------- --------- -- ------- ------ -<br>--------- ----- -----,377673.89999997616,377673.1999999881,377338.572,377346.59999999404,377355.224,377688.65,,36,released
screen,html.Screen,2_3_1_0_1_37,2022-02-16T09:08:56.104Z,,,,,,,,,,,,,,,,,15,,,,,,,,,,,,,,304.6499999820953,,response,,,,7,C,,,,,,Space,keypress(Space),,,,instrumental,,,,---- --------- ---------- - --- ------- -- --- ------------<br>----- -- -------- ------- ---- ------ - -------- ---- -----<br>--- ------- ---- -- --- -------- --- - ----- ------ ---- --<br>-------- --- -------- -------- --- -------- July -- ----- -<br>-------- ---- --- ---------- --------- -- ------- ------ -<br>--------- ----- -----,377994.09999999404,377993.2999999821,377671.983,377674,377688.65,378005.394,,37,July
screen,html.Screen,2_3_1_0_1_38,2022-02-16T09:08:56.528Z,,,,,,,,,,,,,,,,,15,,,,,,,,,,,,,,412.10600000002887,,response,,,,7,C,,,,,,Space,keypress(Space),,,,instrumental,,,,---- --------- ---------- - --- ------- -- --- ------------<br>----- -- -------- ------- ---- ------ - -------- ---- -----<br>--- ------- ---- -- --- -------- --- - ----- ------ ---- --<br>-------- --- -------- -------- --- -------- ---- 20 ----- -<br>-------- ---- --- ---------- --------- -- ------- ------ -<br>--------- ----- -----,378418.1999999881,378417.5,377988.754,377994.1999999881,378005.394,378422.167,,38,20
screen,html.Screen,2_3_1_0_1_39,2022-02-16T09:08:56.881Z,,,,,,,,,,,,,,,,,15,,,,,,,,,,,,,,347.33299999998417,,response,,,,7,C,,,,,,Space,keypress(Space),,,,instrumental,,,,---- --------- ---------- - --- ------- -- --- ------------<br>----- -- -------- ------- ---- ------ - -------- ---- -----<br>--- ------- ---- -- --- -------- --- - ----- ------ ---- --<br>-------- --- -------- -------- --- -------- ---- -- after -<br>-------- ---- --- ---------- --------- -- ------- ------ -<br>--------- ----- -----,378770.39999997616,378769.5,378405.553,378418.2999999821,378422.167,378772.203,,39,after
screen,html.Screen,2_3_1_0_1_40,2022-02-16T09:08:57.353Z,,,,,,,,,,,,,,,,,15,,,,,,,,,,,,,,469.7970000000205,,response,,,,7,C,,,,,,Space,keypress(Space),,,,instrumental,,,,---- --------- ---------- - --- ------- -- --- ------------<br>----- -- -------- ------- ---- ------ - -------- ---- -----<br>--- ------- ---- -- --- -------- --- - ----- ------ ---- --<br>-------- --- -------- -------- --- -------- ---- -- ----- a<br>-------- ---- --- ---------- --------- -- ------- ------ -<br>--------- ----- -----,379242.7999999821,379242,378755.67,378770.5,378772.203,379255.684,,40,a
