sender,sender_type,sender_id,timestamp,meta,,Blues,Classical,Country,Dance,Electronic,Folk,Gospel,Hip-Hop,Jazz,Latin,Musical/Film,New-age,Pop,Prolific_id,Provo_ID,R&B,Rap,Reggae,Religious,Rock,Soul,Swing,Traditional,age,artist_name,correct,correctResponse,distraction,duration,education,ended_on,familiarity,gender,headphone_check_performance,item,list,music_frequency,offensiveness,pleasantness,position_correct,preference,response,response_action,snippet_file,song_name,song_rating,sound,stimulus_1,stimulus_2,stimulus_3,text,time_commit,time_end,time_render,time_run,time_show,time_switch,url,word,word_ID
Prolific ID,html.Form,0,2022-02-15T15:52:33.218Z,"{""labjs_version"":""20.2.2"",""labjs_build"":{""flavor"":""production"",""commit"":""a25486e0c714a0ae2ce03ff94b7bb6896854dcfa""},""location"":""https://run.pavlovia.org/mvasilev/prolific2_music_a/"",""userAgent"":""Mozilla/5.0 (Windows NT 10.0; Win64; x64) AppleWebKit/537.36 (KHTML, like Gecko) Chrome/98.0.4758.82 Safari/537.36"",""platform"":""Win32"",""language"":""en-US"",""locale"":""en-US"",""timeZone"":""Europe/London"",""timezoneOffset"":0,""screen_width"":1327,""screen_height"":746,""scroll_width"":1327,""scroll_height"":588,""window_innerWidth"":1327,""window_innerHeight"":637,""devicePixelRatio"":1.0299999713897705}",,,,,,,,,,,,,,,5bd2a0799afb5b00015be460,,,,,,,,,,,,,,,4437.722999999998,,form submission,,,,,,,,,,,,,,,,,,,,,57232.5,57231,52760.087,52572.39999997616,52793.277,57309.079,{},,
Introduction,html.Screen,1_0,2022-02-15T15:52:38.287Z,,,,,,,,,,,,,,,,,,,,,,,,,,,,,,,4986.620999988081,,response,,,,,,,,,,,continue,click button,,,,,,,,,62302.59999996424,62295.69999998808,57209.099,57233.69999998808,57309.079,62374.721,,,
Volume calibration,html.Screen,1_1,2022-02-15T15:52:55.885Z,,,,,,,,,,,,,,,,,,,,,,,,,,,,,,,17518.17899997616,,response,,,,,,,,,,,continue,click button,,,,,,,,,79899.89999997616,79892.89999997616,62291.396,62303.09999996424,62374.721,79904.582,,,
Task instructions,html.Screen,1_2,2022-02-15T15:53:02.529Z,,,,,,,,,,,,,,,,,,,,,,,,,,,,,,,6637.218000011926,,response,,,,,,,,,,,continue,click button,,,,,,,,,86544,86541.80000001192,79888.196,79900.30000001192,79904.582,86553.276,,,
Sounds,html.Screen,1_3_0_0,2022-02-15T15:53:06.785Z,,,,,,,,,,,,,,,,,,,,,,,,,,,,,,,4265.809999999998,,timeout,,,,,,,,,2,,,,,,,,O,S,I,,90800.19999998808,90786.329,86536.646,86545.30000001192,86553.276,90819.086,,,
Judgement,html.Screen,1_3_0_1,2022-02-15T15:53:08.569Z,,,,,,,,,,,,,,,,,,,,,,,,,,,,true,2,,1758.7140000119252,,response,,,,,,,,,2,,2,click #choice-2,,,,,O,S,I,,92583.80000001192,92577.80000001192,90786.329,90800.59999996424,90819.086,92586.165,,,
Trial,flow.Sequence,1_3_0,2022-02-15T15:53:08.570Z,,,,,,,,,,,,,,,,,,,,,,,,,,,,,,,6024.524000011923,,completion,,,,,,,,,2,,,,,,,,O,S,I,,92584.69999998808,92577.80000001192,86536.646,86544.80000001192,86553.276,92586.165,,,
Sounds,html.Screen,1_3_1_0,2022-02-15T15:53:12.807Z,,,,,,,,,,,,,,,,,,,,,,,,,,,,,,,4248.380000000005,,timeout,,,,,,,,,1,,,,,,,,S,O,I,,96822.19999998808,96818.694,92568.901,92587.59999996424,92586.165,96834.545,,,
Judgement,html.Screen,1_3_1_1,2022-02-15T15:53:14.016Z,,,,,,,,,,,,,,,,,,,,,,,,,,,,false,1,,1193.35499997616,,response,,,,,,,,,1,,3,click #choice-3,,,,,S,O,I,,98031.19999998808,98027.89999997616,96818.694,96822.89999997616,96834.545,98034.579,,,
Trial,flow.Sequence,1_3_1,2022-02-15T15:53:14.017Z,,,,,,,,,,,,,,,,,,,,,,,,,,,,,,,5441.7349999761645,,completion,,,,,,,,,1,,,,,,,,S,O,I,,98032.59999996424,98027.89999997616,92568.901,92585,92586.165,98034.579,,,
Sounds,html.Screen,1_3_2_0,2022-02-15T15:53:18.254Z,,,,,,,,,,,,,,,,,,,,,,,,,,,,,,,4249.157999999996,,timeout,,,,,,,,,3,,,,,,,,O,I,S,,102269,102266.889,98017.735,98033.59999996424,98034.579,102283.737,,,
Judgement,html.Screen,1_3_2_1,2022-02-15T15:53:19.530Z,,,,,,,,,,,,,,,,,,,,,,,,,,,,true,3,,1258.9629999880854,,response,,,,,,,,,3,,3,click #choice-3,,,,,O,I,S,,103545.59999996424,103542.69999998808,102266.889,102269.39999997616,102283.737,103549.999,,,
Trial,flow.Sequence,1_3_2,2022-02-15T15:53:19.539Z,,,,,,,,,,,,,,,,,,,,,,,,,,,,,,,5508.120999988081,,completion,,,,,,,,,3,,,,,,,,O,I,S,,103553.89999997616,103542.69999998808,98017.735,98033.5,98034.579,103549.999,,,
Sounds,html.Screen,1_3_3_0,2022-02-15T15:53:23.769Z,,,,,,,,,,,,,,,,,,,,,,,,,,,,,,,4249.434999999998,,timeout,,,,,,,,,3,,,,,,,,I,O,S,,107784.59999996424,107782.612,103533.344,103554.30000001192,103549.999,107799.434,,,
Judgement,html.Screen,1_3_3_1,2022-02-15T15:53:24.625Z,,,,,,,,,,,,,,,,,,,,,,,,,,,,true,3,,838.1659999642434,,response,,,,,,,,,3,,3,click #choice-3,,,,,I,O,S,,108640.09999996424,108637.59999996424,107782.612,107784.89999997616,107799.434,108648.881,,,
Trial,flow.Sequence,1_3_3,2022-02-15T15:53:24.626Z,,,,,,,,,,,,,,,,,,,,,,,,,,,,,,,5087.600999964241,,completion,,,,,,,,,3,,,,,,,,I,O,S,,108640.80000001192,108637.59999996424,103533.344,103554.19999998808,103549.999,108648.881,,,
Sounds,html.Screen,1_3_4_0,2022-02-15T15:53:28.869Z,,,,,,,,,,,,,,,,,,,,,,,,,,,,,,,4250.040000000008,,timeout,,,,,,,,,1,,,,,,,,S,I,O,,112884,112881.403,108632.252,108641.09999996424,108648.881,112898.921,,,
Judgement,html.Screen,1_3_4_1,2022-02-15T15:53:29.915Z,,,,,,,,,,,,,,,,,,,,,,,,,,,,true,1,,1028.978999976156,,response,,,,,,,,,1,,1,click #choice-1,,,,,S,I,O,,113930.5,113927.89999997616,112881.403,112884.5,112898.921,113931.185,,,
Trial,flow.Sequence,1_3_4,2022-02-15T15:53:29.917Z,,,,,,,,,,,,,,,,,,,,,,,,,,,,,,,5279.018999976164,,completion,,,,,,,,,1,,,,,,,,S,I,O,,113932.5,113927.89999997616,108632.252,108641,108648.881,113931.185,,,
Sounds,html.Screen,1_3_5_0,2022-02-15T15:53:34.151Z,,,,,,,,,,,,,,,,,,,,,,,,,,,,,,,4249.172999999995,,timeout,,,,,,,,,2,,,,,,,,I,S,O,,118166,118163.966,113914.705,113933.59999996424,113931.185,118180.358,,,
Judgement,html.Screen,1_3_5_1,2022-02-15T15:53:35.344Z,,,,,,,,,,,,,,,,,,,,,,,,,,,,true,2,,1175.3419999880862,,response,,,,,,,,,2,,2,click #choice-2,,,,,I,S,O,,119359,119355.69999998808,118163.966,118166.80000001192,118180.358,119396.77,,,
Trial,flow.Sequence,1_3_5,2022-02-15T15:53:35.344Z,,,,,,,,,,,,,,,,,,,,,,,,,,,,,,,5424.514999988081,,completion,,,,,,,,,2,,,,,,,,I,S,O,,119359.59999996424,119355.69999998808,113914.705,113932.89999997616,113931.185,119396.77,,,
Task,flow.Loop,1_3,2022-02-15T15:53:35.357Z,,,,,,,,,,,,,,,,,,,,,,,,,,,,,,,32802.42399998808,,completion,,,0.8333333333333334,,,,,,,,,,,,,,,,,,119372.19999998808,119355.69999998808,86536.646,86544.30000001192,86553.276,119396.77,,,
Trap,html.Screen,1_4,2022-02-15T15:53:35.370Z,,,,,,,,,,,,,,,,,,,,,,,,,,,,,,,NaN,,skipped,,,,,,,,,,,,,,,,,,,,,119384.80000001192,119355.69999998808,,119384.30000001192,,119396.77,,,
Thanks,html.Screen,1_5,2022-02-15T15:53:38.621Z,,,,,,,,,,,,,,,,,,,,,,,,,,,,,,,3234.229999999996,,response,,,,,,,,,,,continue,click button,,,,,,,,,122636.09999996424,122631,119346.833,119385.09999996424,119396.77,127262.003,,,
Headphone screening,flow.Sequence,1,2022-02-15T15:53:38.623Z,,,,,,,,,,,,,,,,,,,,,,,,,,,,,,,65321.921,,completion,,,,,,,,,,,,,,,,,,,,,122637.59999996424,122631,57209.099,57233.5,57309.079,127262.003,,,
Instructions,html.Page,2_0,2022-02-15T15:54:00.662Z,,,,,,,,,,,,,,,,,,,,,,,,,,,,,,,17412.59699996424,,form submission,,,,,,,,,,,,,,,,,,,,,144677.09999996424,144674.59999996424,126995.311,127241.69999998808,127262.003,144708.411,,,
Holding screen,html.Screen,2_1_0_0,2022-02-15T15:54:10.693Z,,,,,,,,,,,,,,,,,,,,,,,,,,,,,,,10081.399000000005,,timeout,,,,,,,,,,,,,,,,,,,,,154708.5,154689.778,144658.57,144677.80000001192,144708.411,154789.81,,,
screen,html.Screen,2_1_0_1_0,2022-02-15T15:54:10.919Z,,,,,,,,,,,,,,,,,53,,,,,,,,,,,,,,138.78999996423954,,response,,,,99,,,,,,,Space,keypress(Space),,,,,,,,When -- ----- -- ------ - ------- --- ----------<br>------------- ------ ------ ---- ---- ------- ----- -- ----<br>-------- ------- -- ---------- --- - --- ----- ----- ----<br>---- --- --- ----- --- ---- ---- ------- ----- ---- -------<br>--- --- -- ----- -- --- ---- -- --- ---- -- ------ ------<br>--- ----- -- ----,154934.19999998808,154928.59999996424,154689.778,154708.89999997616,154789.81,154939.756,,0,When
screen,html.Screen,2_1_0_1_1,2022-02-15T15:54:14.654Z,,,,,,,,,,,,,,,,,53,,,,,,,,,,,,,,3727.544000011927,,response,,,,99,,,,,,,Space,keypress(Space),,,,,,,,---- it ----- -- ------ - ------- --- ----------<br>------------- ------ ------ ---- ---- ------- ----- -- ----<br>-------- ------- -- ---------- --- - --- ----- ----- ----<br>---- --- --- ----- --- ---- ---- ------- ----- ---- -------<br>--- --- -- ----- -- --- ---- -- --- ---- -- ------ ------<br>--- ----- -- ----,158668.89999997616,158667.30000001192,154923.052,154934.59999996424,154939.756,158672.353,,1,it
screen,html.Screen,2_1_0_1_2,2022-02-15T15:54:16.031Z,,,,,,,,,,,,,,,,,53,,,,,,,,,,,,,,1370.9470000119181,,response,,,,99,,,,,,,Space,keypress(Space),,,,,,,,---- -- comes -- ------ - ------- --- ----------<br>------------- ------ ------ ---- ---- ------- ----- -- ----<br>-------- ------- -- ---------- --- - --- ----- ----- ----<br>---- --- --- ----- --- ---- ---- ------- ----- ---- -------<br>--- --- -- ----- -- --- ---- -- --- ---- -- ------ ------<br>--- ----- -- ----,160045.59999996424,160043.30000001192,158655.959,158669.19999998808,158672.353,160055.407,,2,comes
screen,html.Screen,2_1_0_1_3,2022-02-15T15:54:17.197Z,,,,,,,,,,,,,,,,,53,,,,,,,,,,,,,,1153.3930000119144,,response,,,,99,,,,,,,Space,keypress(Space),,,,,,,,---- -- ----- to ------ - ------- --- ----------<br>------------- ------ ------ ---- ---- ------- ----- -- ----<br>-------- ------- -- ---------- --- - --- ----- ----- ----<br>---- --- --- ----- --- ---- ---- ------- ----- ---- -------<br>--- --- -- ----- -- --- ---- -- --- ---- -- ------ ------<br>--- ----- -- ----,161211.5,161208.80000001192,160039.233,160046,160055.407,161221.823,,3,to
screen,html.Screen,2_1_0_1_4,2022-02-15T15:54:18.323Z,,,,,,,,,,,,,,,,,53,,,,,,,,,,,,,,1114.477000011917,,response,,,,99,,,,,,,Space,keypress(Space),,,,,,,,---- -- ----- -- having - ------- --- ----------<br>------------- ------ ------ ---- ---- ------- ----- -- ----<br>-------- ------- -- ---------- --- - --- ----- ----- ----<br>---- --- --- ----- --- ---- ---- ------- ----- ---- -------<br>--- --- -- ----- -- --- ---- -- --- ---- -- ------ ------<br>--- ----- -- ----,162337.69999998808,162336.30000001192,161205.624,161211.80000001192,161221.823,162355.164,,4,having
screen,html.Screen,2_1_0_1_5,2022-02-15T15:54:19.046Z,,,,,,,,,,,,,,,,,53,,,,,,,,,,,,,,704.5359999880893,,response,,,,99,,,,,,,Space,keypress(Space),,,,,,,,---- -- ----- -- ------ a ------- --- ----------<br>------------- ------ ------ ---- ---- ------- ----- -- ----<br>-------- ------- -- ---------- --- - --- ----- ----- ----<br>---- --- --- ----- --- ---- ---- ------- ----- ---- -------<br>--- --- -- ----- -- --- ---- -- --- ---- -- ------ ------<br>--- ----- -- ----,163061.39999997616,163059.69999998808,162338.721,162338,162355.164,163071.454,,5,a
screen,html.Screen,2_1_0_1_6,2022-02-15T15:54:19.804Z,,,,,,,,,,,,,,,,,53,,,,,,,,,,,,,,745.7459999880812,,response,,,,99,,,,,,,Space,keypress(Space),,,,,,,,---- -- ----- -- ------ - lasting --- ----------<br>------------- ------ ------ ---- ---- ------- ----- -- ----<br>-------- ------- -- ---------- --- - --- ----- ----- ----<br>---- --- --- ----- --- ---- ---- ------- ----- ---- -------<br>--- --- -- ----- -- --- ---- -- --- ---- -- ------ ------<br>--- ----- -- ----,163819.30000001192,163817.19999998808,163054.963,163061.69999998808,163071.454,163838.025,,6,lasting
screen,html.Screen,2_1_0_1_7,2022-02-15T15:54:20.741Z,,,,,,,,,,,,,,,,,53,,,,,,,,,,,,,,916.2750000119267,,response,,,,99,,,,,,,Space,keypress(Space),,,,,,,,---- -- ----- -- ------ - ------- and ----------<br>------------- ------ ------ ---- ---- ------- ----- -- ----<br>-------- ------- -- ---------- --- - --- ----- ----- ----<br>---- --- --- ----- --- ---- ---- ------- ----- ---- -------<br>--- --- -- ----- -- --- ---- -- --- ---- -- ------ ------<br>--- ----- -- ----,164755.89999997616,164754.30000001192,163821.534,163819.59999996424,163838.025,164771.33,,7,and
screen,html.Screen,2_1_0_1_8,2022-02-15T15:54:21.761Z,,,,,,,,,,,,,,,,,53,,,,,,,,,,,,,,1002.8699999880919,,response,,,,99,,,,,,,Space,keypress(Space),,,,,,,,---- -- ----- -- ------ - ------- --- fulfilling<br>------------- ------ ------ ---- ---- ------- ----- -- ----<br>-------- ------- -- ---------- --- - --- ----- ----- ----<br>---- --- --- ----- --- ---- ---- ------- ----- ---- -------<br>--- --- -- ----- -- --- ---- -- --- ---- -- ------ ------<br>--- ----- -- ----,165776.09999996424,165774.19999998808,164754.634,164756.19999998808,164771.33,165787.595,,8,fulfilling
screen,html.Screen,2_1_0_1_9,2022-02-15T15:54:22.451Z,,,,,,,,,,,,,,,,,53,,,,,,,,,,,,,,676.304999976157,,response,,,,99,,,,,,,Space,keypress(Space),,,,,,,,"---- -- ----- -- ------ - ------- --- ----------<br>relationship, ------ ------ ---- ---- ------- ----- -- ----<br>-------- ------- -- ---------- --- - --- ----- ----- ----<br>---- --- --- ----- --- ---- ---- ------- ----- ---- -------<br>--- --- -- ----- -- --- ---- -- --- ---- -- ------ ------<br>--- ----- -- ----",166465.59999996424,166463.89999997616,165771.238,165776.39999997616,165787.595,166470.775,,9,"relationship,"
screen,html.Screen,2_1_0_1_10,2022-02-15T15:54:23.540Z,,,,,,,,,,,,,,,,,53,,,,,,,,,,,,,,1082.0250000119267,,response,,,,99,,,,,,,Space,keypress(Space),,,,,,,,---- -- ----- -- ------ - ------- --- ----------<br>------------- common ------ ---- ---- ------- ----- -- ----<br>-------- ------- -- ---------- --- - --- ----- ----- ----<br>---- --- --- ----- --- ---- ---- ------- ----- ---- -------<br>--- --- -- ----- -- --- ---- -- --- ---- -- ------ ------<br>--- ----- -- ----,167554.80000001192,167552.80000001192,166454.501,166465.89999997616,166470.775,167570.727,,10,common
screen,html.Screen,2_1_0_1_11,2022-02-15T15:54:24.298Z,,,,,,,,,,,,,,,,,53,,,,,,,,,,,,,,740.6729999761446,,response,,,,99,,,,,,,Space,keypress(Space),,,,,,,,---- -- ----- -- ------ - ------- --- ----------<br>------------- ------ wisdom ---- ---- ------- ----- -- ----<br>-------- ------- -- ---------- --- - --- ----- ----- ----<br>---- --- --- ----- --- ---- ---- ------- ----- ---- -------<br>--- --- -- ----- -- --- ---- -- --- ---- -- ------ ------<br>--- ----- -- ----,168313.30000001192,168311.39999997616,167554.362,167555.09999996424,167570.727,168320.413,,11,wisdom
screen,html.Screen,2_1_0_1_12,2022-02-15T15:54:24.997Z,,,,,,,,,,,,,,,,,53,,,,,,,,,,,,,,689.6869999642367,,response,,,,99,,,,,,,Space,keypress(Space),,,,,,,,---- -- ----- -- ------ - ------- --- ----------<br>------------- ------ ------ says ---- ------- ----- -- ----<br>-------- ------- -- ---------- --- - --- ----- ----- ----<br>---- --- --- ----- --- ---- ---- ------- ----- ---- -------<br>--- --- -- ----- -- --- ---- -- --- ---- -- ------ ------<br>--- ----- -- ----,169012,169010.09999996424,168304.002,168313.69999998808,168320.413,169020.29,,12,says
screen,html.Screen,2_1_0_1_13,2022-02-15T15:54:25.716Z,,,,,,,,,,,,,,,,,53,,,,,,,,,,,,,,707.7099999999919,,response,,,,99,,,,,,,Space,keypress(Space),,,,,,,,---- -- ----- -- ------ - ------- --- ----------<br>------------- ------ ------ ---- that ------- ----- -- ----<br>-------- ------- -- ---------- --- - --- ----- ----- ----<br>---- --- --- ----- --- ---- ---- ------- ----- ---- -------<br>--- --- -- ----- -- --- ---- -- --- ---- -- ------ ------<br>--- ----- -- ----,169731,169728,169003.989,169012.30000001192,169020.29,169736.794,,13,that
screen,html.Screen,2_1_0_1_14,2022-02-15T15:54:26.584Z,,,,,,,,,,,,,,,,,53,,,,,,,,,,,,,,859.1059999761637,,response,,,,99,,,,,,,Space,keypress(Space),,,,,,,,---- -- ----- -- ------ - ------- --- ----------<br>------------- ------ ------ ---- ---- feeling ----- -- ----<br>-------- ------- -- ---------- --- - --- ----- ----- ----<br>---- --- --- ----- --- ---- ---- ------- ----- ---- -------<br>--- --- -- ----- -- --- ---- -- --- ---- -- ------ ------<br>--- ----- -- ----,170598.80000001192,170595.89999997616,169720.516,169731.30000001192,169736.794,170603.349,,14,feeling
screen,html.Screen,2_1_0_1_15,2022-02-15T15:54:27.504Z,,,,,,,,,,,,,,,,,53,,,,,,,,,,,,,,914.1510000000126,,response,,,,99,,,,,,,Space,keypress(Space),,,,,,,,---- -- ----- -- ------ - ------- --- ----------<br>------------- ------ ------ ---- ---- ------- close -- ----<br>-------- ------- -- ---------- --- - --- ----- ----- ----<br>---- --- --- ----- --- ---- ---- ------- ----- ---- -------<br>--- --- -- ----- -- --- ---- -- --- ---- -- ------ ------<br>--- ----- -- ----,171519.09999996424,171517.5,170586.809,170599.09999996424,170603.349,171553.231,,15,close
screen,html.Screen,2_1_0_1_16,2022-02-15T15:54:28.168Z,,,,,,,,,,,,,,,,,53,,,,,,,,,,,,,,627.6689999761584,,response,,,,99,,,,,,,Space,keypress(Space),,,,,,,,---- -- ----- -- ------ - ------- --- ----------<br>------------- ------ ------ ---- ---- ------- ----- to ----<br>-------- ------- -- ---------- --- - --- ----- ----- ----<br>---- --- --- ----- --- ---- ---- ------- ----- ---- -------<br>--- --- -- ----- -- --- ---- -- --- ---- -- ------ ------<br>--- ----- -- ----,172182.39999997616,172180.89999997616,171536.648,171519.39999997616,171553.231,172186.306,,16,to
screen,html.Screen,2_1_0_1_17,2022-02-15T15:54:28.792Z,,,,,,,,,,,,,,,,,53,,,,,,,,,,,,,,619.4940000119095,,response,,,,99,,,,,,,Space,keypress(Space),,,,,,,,---- -- ----- -- ------ - ------- --- ----------<br>------------- ------ ------ ---- ---- ------- ----- -- your<br>-------- ------- -- ---------- --- - --- ----- ----- ----<br>---- --- --- ----- --- ---- ---- ------- ----- ---- -------<br>--- --- -- ----- -- --- ---- -- --- ---- -- ------ ------<br>--- ----- -- ----,172807.39999997616,172805.80000001192,172170.018,172182.80000001192,172186.306,172819.611,,17,your
screen,html.Screen,2_1_0_1_18,2022-02-15T15:54:29.345Z,,,,,,,,,,,,,,,,,53,,,,,,,,,,,,,,538.3889999999956,,response,,,,99,,,,,,,Space,keypress(Space),,,,,,,,---- -- ----- -- ------ - ------- --- ----------<br>------------- ------ ------ ---- ---- ------- ----- -- ----<br>romantic ------- -- ---------- --- - --- ----- ----- ----<br>---- --- --- ----- --- ---- ---- ------- ----- ---- -------<br>--- --- -- ----- -- --- ---- -- --- ---- -- ------ ------<br>--- ----- -- ----,173360.09999996424,173358,172802.999,172807.69999998808,172819.611,173369.448,,18,romantic
screen,html.Screen,2_1_0_1_19,2022-02-15T15:54:29.927Z,,,,,,,,,,,,,,,,,53,,,,,,,,,,,,,,570.051999999996,,response,,,,99,,,,,,,Space,keypress(Space),,,,,,,,---- -- ----- -- ------ - ------- --- ----------<br>------------- ------ ------ ---- ---- ------- ----- -- ----<br>-------- partner -- ---------- --- - --- ----- ----- ----<br>---- --- --- ----- --- ---- ---- ------- ----- ---- -------<br>--- --- -- ----- -- --- ---- -- --- ---- -- ------ ------<br>--- ----- -- ----,173941.59999996424,173939.5,173352.918,173360.39999997616,173369.448,173952.863,,19,partner
screen,html.Screen,2_1_0_1_20,2022-02-15T15:54:30.428Z,,,,,,,,,,,,,,,,,53,,,,,,,,,,,,,,488.1369999999879,,response,,,,99,,,,,,,Space,keypress(Space),,,,,,,,---- -- ----- -- ------ - ------- --- ----------<br>------------- ------ ------ ---- ---- ------- ----- -- ----<br>-------- ------- is ---------- --- - --- ----- ----- ----<br>---- --- --- ----- --- ---- ---- ------- ----- ---- -------<br>--- --- -- ----- -- --- ---- -- --- ---- -- ------ ------<br>--- ----- -- ----,174442.89999997616,174441,173936.079,173941.89999997616,173952.863,174452.535,,20,is
screen,html.Screen,2_1_0_1_21,2022-02-15T15:54:31.181Z,,,,,,,,,,,,,,,,,53,,,,,,,,,,,,,,740.9649999999965,,response,,,,99,,,,,,,Space,keypress(Space),,,,,,,,---- -- ----- -- ------ - ------- --- ----------<br>------------- ------ ------ ---- ---- ------- ----- -- ----<br>-------- ------- -- paramount. --- - --- ----- ----- ----<br>---- --- --- ----- --- ---- ---- ------- ----- ---- -------<br>--- --- -- ----- -- --- ---- -- --- ---- -- ------ ------<br>--- ----- -- ----,175196.5,175193.5,174436.198,174443.39999997616,174452.535,175202.377,,21,paramount.
screen,html.Screen,2_1_0_1_22,2022-02-15T15:54:31.909Z,,,,,,,,,,,,,,,,,53,,,,,,,,,,,,,,719.9230000119132,,response,,,,99,,,,,,,Space,keypress(Space),,,,,,,,---- -- ----- -- ------ - ------- --- ----------<br>------------- ------ ------ ---- ---- ------- ----- -- ----<br>-------- ------- -- ---------- But - --- ----- ----- ----<br>---- --- --- ----- --- ---- ---- ------- ----- ---- -------<br>--- --- -- ----- -- --- ---- -- --- ---- -- ------ ------<br>--- ----- -- ----,175924.09999996424,175922.30000001192,175186.109,175196.69999998808,175202.377,175935.553,,22,But
screen,html.Screen,2_1_0_1_23,2022-02-15T15:54:32.479Z,,,,,,,,,,,,,,,,,53,,,,,,,,,,,,,,556.2470000119065,,response,,,,99,,,,,,,Space,keypress(Space),,,,,,,,---- -- ----- -- ------ - ------- --- ----------<br>------------- ------ ------ ---- ---- ------- ----- -- ----<br>-------- ------- -- ---------- --- a --- ----- ----- ----<br>---- --- --- ----- --- ---- ---- ------- ----- ---- -------<br>--- --- -- ----- -- --- ---- -- --- ---- -- ------ ------<br>--- ----- -- ----,176493.5,176491.80000001192,175919.274,175924.39999997616,175935.553,176502.15,,23,a
screen,html.Screen,2_1_0_1_24,2022-02-15T15:54:33.015Z,,,,,,,,,,,,,,,,,53,,,,,,,,,,,,,,526.5499999880849,,response,,,,99,,,,,,,Space,keypress(Space),,,,,,,,---- -- ----- -- ------ - ------- --- ----------<br>------------- ------ ------ ---- ---- ------- ----- -- ----<br>-------- ------- -- ---------- --- - new ----- ----- ----<br>---- --- --- ----- --- ---- ---- ------- ----- ---- -------<br>--- --- -- ----- -- --- ---- -- --- ---- -- ------ ------<br>--- ----- -- ----,177030.30000001192,177028.69999998808,176485.625,176493.80000001192,176502.15,177035.374,,24,new
screen,html.Screen,2_1_0_1_25,2022-02-15T15:54:33.468Z,,,,,,,,,,,,,,,,,53,,,,,,,,,,,,,,446.32599998806836,,response,,,,99,,,,,,,Space,keypress(Space),,,,,,,,---- -- ----- -- ------ - ------- --- ----------<br>------------- ------ ------ ---- ---- ------- ----- -- ----<br>-------- ------- -- ---------- --- - --- study ----- ----<br>---- --- --- ----- --- ---- ---- ------- ----- ---- -------<br>--- --- -- ----- -- --- ---- -- --- ---- -- ------ ------<br>--- ----- -- ----,177483.39999997616,177481.69999998808,177019.014,177030.59999996424,177035.374,177510.023,,25,study
screen,html.Screen,2_1_0_1_26,2022-02-15T15:54:33.956Z,,,,,,,,,,,,,,,,,53,,,,,,,,,,,,,,458.77700001193443,,response,,,,99,,,,,,,Space,keypress(Space),,,,,,,,---- -- ----- -- ------ - ------- --- ----------<br>------------- ------ ------ ---- ---- ------- ----- -- ----<br>-------- ------- -- ---------- --- - --- ----- finds ----<br>---- --- --- ----- --- ---- ---- ------- ----- ---- -------<br>--- --- -- ----- -- --- ---- -- --- ---- -- ------ ------<br>--- ----- -- ----,177970.5,177968.80000001192,177468.859,177483.59999996424,177510.023,177985.331,,26,finds
screen,html.Screen,2_1_0_1_27,2022-02-15T15:54:34.541Z,,,,,,,,,,,,,,,,,53,,,,,,,,,,,,,,569.2689999642316,,response,,,,99,,,,,,,Space,keypress(Space),,,,,,,,---- -- ----- -- ------ - ------- --- ----------<br>------------- ------ ------ ---- ---- ------- ----- -- ----<br>-------- ------- -- ---------- --- - --- ----- ----- that<br>---- --- --- ----- --- ---- ---- ------- ----- ---- -------<br>--- --- -- ----- -- --- ---- -- --- ---- -- ------ ------<br>--- ----- -- ----,178556.19999998808,178554.59999996424,177968.821,177970.89999997616,177985.331,178568.466,,27,that
screen,html.Screen,2_1_0_1_28,2022-02-15T15:54:35.437Z,,,,,,,,,,,,,,,,,53,,,,,,,,,,,,,,881.0340000000142,,response,,,,99,,,,,,,Space,keypress(Space),,,,,,,,---- -- ----- -- ------ - ------- --- ----------<br>------------- ------ ------ ---- ---- ------- ----- -- ----<br>-------- ------- -- ---------- --- - --- ----- ----- ----<br>it's --- --- ----- --- ---- ---- ------- ----- ---- -------<br>--- --- -- ----- -- --- ---- -- --- ---- -- ------ ------<br>--- ----- -- ----,179451.69999998808,179449.5,178552.084,178556.5,178568.466,179468.284,,28,it's
screen,html.Screen,2_1_0_1_29,2022-02-15T15:54:36.297Z,,,,,,,,,,,,,,,,,53,,,,,,,,,,,,,,841.9159999880649,,response,,,,99,,,,,,,Space,keypress(Space),,,,,,,,---- -- ----- -- ------ - ------- --- ----------<br>------------- ------ ------ ---- ---- ------- ----- -- ----<br>-------- ------- -- ---------- --- - --- ----- ----- ----<br>---- not --- ----- --- ---- ---- ------- ----- ---- -------<br>--- --- -- ----- -- --- ---- -- --- ---- -- ------ ------<br>--- ----- -- ----,180311.89999997616,180310.19999998808,179451.867,179452,179468.284,180318.062,,29,not
screen,html.Screen,2_1_0_1_30,2022-02-15T15:54:36.803Z,,,,,,,,,,,,,,,,,53,,,,,,,,,,,,,,498.43799999999464,,response,,,,99,,,,,,,Space,keypress(Space),,,,,,,,---- -- ----- -- ------ - ------- --- ----------<br>------------- ------ ------ ---- ---- ------- ----- -- ----<br>-------- ------- -- ---------- --- - --- ----- ----- ----<br>---- --- how ----- --- ---- ---- ------- ----- ---- -------<br>--- --- -- ----- -- --- ---- -- --- ---- -- ------ ------<br>--- ----- -- ----,180818.19999998808,180816.5,180301.548,180312.09999996424,180318.062,180834.828,,30,how
screen,html.Screen,2_1_0_1_31,2022-02-15T15:54:37.406Z,,,,,,,,,,,,,,,,,53,,,,,,,,,,,,,,584.6719999999914,,response,,,,99,,,,,,,Space,keypress(Space),,,,,,,,---- -- ----- -- ------ - ------- --- ----------<br>------------- ------ ------ ---- ---- ------- ----- -- ----<br>-------- ------- -- ---------- --- - --- ----- ----- ----<br>---- --- --- close --- ---- ---- ------- ----- ---- -------<br>--- --- -- ----- -- --- ---- -- --- ---- -- ------ ------<br>--- ----- -- ----,181421.39999997616,181419.5,180818.204,180818.5,180834.828,181434.764,,31,close
screen,html.Screen,2_1_0_1_32,2022-02-15T15:54:37.972Z,,,,,,,,,,,,,,,,,53,,,,,,,,,,,,,,550.3359999642416,,response,,,,99,,,,,,,Space,keypress(Space),,,,,,,,---- -- ----- -- ------ - ------- --- ----------<br>------------- ------ ------ ---- ---- ------- ----- -- ----<br>-------- ------- -- ---------- --- - --- ----- ----- ----<br>---- --- --- ----- you ---- ---- ------- ----- ---- -------<br>--- --- -- ----- -- --- ---- -- --- ---- -- ------ ------<br>--- ----- -- ----,181986.59999996424,181985.09999996424,181418.185,181421.69999998808,181434.764,182001.18,,32,you
screen,html.Screen,2_1_0_1_33,2022-02-15T15:54:38.528Z,,,,,,,,,,,,,,,,,53,,,,,,,,,,,,,,540.820000000007,,response,,,,99,,,,,,,Space,keypress(Space),,,,,,,,---- -- ----- -- ------ - ------- --- ----------<br>------------- ------ ------ ---- ---- ------- ----- -- ----<br>-------- ------- -- ---------- --- - --- ----- ----- ----<br>---- --- --- ----- --- feel ---- ------- ----- ---- -------<br>--- --- -- ----- -- --- ---- -- --- ---- -- ------ ------<br>--- ----- -- ----,182543.59999996424,182542,181984.749,181987,182001.18,182551.574,,33,feel
screen,html.Screen,2_1_0_1_34,2022-02-15T15:54:39.371Z,,,,,,,,,,,,,,,,,53,,,,,,,,,,,,,,833.025999964244,,response,,,,99,,,,,,,Space,keypress(Space),,,,,,,,---- -- ----- -- ------ - ------- --- ----------<br>------------- ------ ------ ---- ---- ------- ----- -- ----<br>-------- ------- -- ---------- --- - --- ----- ----- ----<br>---- --- --- ----- --- ---- that ------- ----- ---- -------<br>--- --- -- ----- -- --- ---- -- --- ---- -- ------ ------<br>--- ----- -- ----,183386.39999997616,183384.59999996424,182534.596,182543.89999997616,182551.574,183400.944,,34,that
screen,html.Screen,2_1_0_1_35,2022-02-15T15:54:40.011Z,,,,,,,,,,,,,,,,,53,,,,,,,,,,,,,,623.6559999642486,,response,,,,99,,,,,,,Space,keypress(Space),,,,,,,,---- -- ----- -- ------ - ------- --- ----------<br>------------- ------ ------ ---- ---- ------- ----- -- ----<br>-------- ------- -- ---------- --- - --- ----- ----- ----<br>---- --- --- ----- --- ---- ---- matters ----- ---- -------<br>--- --- -- ----- -- --- ---- -- --- ---- -- ------ ------<br>--- ----- -- ----,184026.5,184024.59999996424,183384.381,183386.59999996424,183400.944,184033.969,,35,matters
screen,html.Screen,2_1_0_1_36,2022-02-15T15:54:40.802Z,,,,,,,,,,,,,,,,,53,,,,,,,,,,,,,,782.0309999999881,,response,,,,99,,,,,,,Space,keypress(Space),,,,,,,,"---- -- ----- -- ------ - ------- --- ----------<br>------------- ------ ------ ---- ---- ------- ----- -- ----<br>-------- ------- -- ---------- --- - --- ----- ----- ----<br>---- --- --- ----- --- ---- ---- ------- most, ---- -------<br>--- --- -- ----- -- --- ---- -- --- ---- -- ------ ------<br>--- ----- -- ----",184817.69999998808,184816,184017.617,184027.09999996424,184033.969,184834.09,,36,"most,"
screen,html.Screen,2_1_0_1_37,2022-02-15T15:54:41.483Z,,,,,,,,,,,,,,,,,53,,,,,,,,,,,,,,662.3099999761616,,response,,,,99,,,,,,,Space,keypress(Space),,,,,,,,---- -- ----- -- ------ - ------- --- ----------<br>------------- ------ ------ ---- ---- ------- ----- -- ----<br>-------- ------- -- ---------- --- - --- ----- ----- ----<br>---- --- --- ----- --- ---- ---- ------- ----- it's -------<br>--- --- -- ----- -- --- ---- -- --- ---- -- ------ ------<br>--- ----- -- ----,185498,185496.39999997616,184817.527,184817.89999997616,184834.09,185500.361,,37,it's
screen,html.Screen,2_1_0_1_38,2022-02-15T15:54:42.109Z,,,,,,,,,,,,,,,,,53,,,,,,,,,,,,,,621.4390000119165,,response,,,,99,,,,,,,Space,keypress(Space),,,,,,,,---- -- ----- -- ------ - ------- --- ----------<br>------------- ------ ------ ---- ---- ------- ----- -- ----<br>-------- ------- -- ---------- --- - --- ----- ----- ----<br>---- --- --- ----- --- ---- ---- ------- ----- ---- whether<br>--- --- -- ----- -- --- ---- -- --- ---- -- ------ ------<br>--- ----- -- ----,186123.69999998808,186121.80000001192,185484.058,185498.30000001192,185500.361,186133.554,,38,whether
screen,html.Screen,2_1_0_1_39,2022-02-15T15:54:42.756Z,,,,,,,,,,,,,,,,,53,,,,,,,,,,,,,,635.3459999761544,,response,,,,99,,,,,,,Space,keypress(Space),,,,,,,,---- -- ----- -- ------ - ------- --- ----------<br>------------- ------ ------ ---- ---- ------- ----- -- ----<br>-------- ------- -- ---------- --- - --- ----- ----- ----<br>---- --- --- ----- --- ---- ---- ------- ----- ---- -------<br>you --- -- ----- -- --- ---- -- --- ---- -- ------ ------<br>--- ----- -- ----,186770.69999998808,186768.89999997616,186117.331,186124,186133.554,186783.608,,39,you
screen,html.Screen,2_1_0_1_40,2022-02-15T15:54:43.636Z,,,,,,,,,,,,,,,,,53,,,,,,,,,,,,,,865.3919999999925,,response,,,,99,,,,,,,Space,keypress(Space),,,,,,,,---- -- ----- -- ------ - ------- --- ----------<br>------------- ------ ------ ---- ---- ------- ----- -- ----<br>-------- ------- -- ---------- --- - --- ----- ----- ----<br>---- --- --- ----- --- ---- ---- ------- ----- ---- -------<br>--- are -- ----- -- --- ---- -- --- ---- -- ------ ------<br>--- ----- -- ----,187651,187649,186767.106,186771,186783.608,187666.638,,40,are
screen,html.Screen,2_1_0_1_41,2022-02-15T15:54:44.716Z,,,,,,,,,,,,,,,,,53,,,,,,,,,,,,,,1063.2619999761519,,response,,,,99,,,,,,,Space,keypress(Space),,,,,,,,---- -- ----- -- ------ - ------- --- ----------<br>------------- ------ ------ ---- ---- ------- ----- -- ----<br>-------- ------- -- ---------- --- - --- ----- ----- ----<br>---- --- --- ----- --- ---- ---- ------- ----- ---- -------<br>--- --- as ----- -- --- ---- -- --- ---- -- ------ ------<br>--- ----- -- ----,188731.5,188729.89999997616,187650.133,187651.30000001192,187666.638,188754.283,,41,as
screen,html.Screen,2_1_0_1_42,2022-02-15T15:54:45.437Z,,,,,,,,,,,,,,,,,53,,,,,,,,,,,,,,695.7170000000042,,response,,,,99,,,,,,,Space,keypress(Space),,,,,,,,---- -- ----- -- ------ - ------- --- ----------<br>------------- ------ ------ ---- ---- ------- ----- -- ----<br>-------- ------- -- ---------- --- - --- ----- ----- ----<br>---- --- --- ----- --- ---- ---- ------- ----- ---- -------<br>--- --- -- close -- --- ---- -- --- ---- -- ------ ------<br>--- ----- -- ----,189452.30000001192,189450,188716.575,188731.69999998808,188754.283,189466.262,,42,close
screen,html.Screen,2_1_0_1_43,2022-02-15T15:54:46.138Z,,,,,,,,,,,,,,,,,53,,,,,,,,,,,,,,684.3379999642493,,response,,,,99,,,,,,,Space,keypress(Space),,,,,,,,---- -- ----- -- ------ - ------- --- ----------<br>------------- ------ ------ ---- ---- ------- ----- -- ----<br>-------- ------- -- ---------- --- - --- ----- ----- ----<br>---- --- --- ----- --- ---- ---- ------- ----- ---- -------<br>--- --- -- ----- as --- ---- -- --- ---- -- ------ ------<br>--- ----- -- ----,190153.19999998808,190150.59999996424,189449.859,189452.5,189466.262,190166.273,,43,as
screen,html.Screen,2_1_0_1_44,2022-02-15T15:54:46.835Z,,,,,,,,,,,,,,,,,53,,,,,,,,,,,,,,682.6269999761716,,response,,,,99,,,,,,,Space,keypress(Space),,,,,,,,---- -- ----- -- ------ - ------- --- ----------<br>------------- ------ ------ ---- ---- ------- ----- -- ----<br>-------- ------- -- ---------- --- - --- ----- ----- ----<br>---- --- --- ----- --- ---- ---- ------- ----- ---- -------<br>--- --- -- ----- -- you ---- -- --- ---- -- ------ ------<br>--- ----- -- ----,190850.5,190848.89999997616,190149.686,190153.59999996424,190166.273,190866.193,,44,you
screen,html.Screen,2_1_0_1_45,2022-02-15T15:54:47.555Z,,,,,,,,,,,,,,,,,53,,,,,,,,,,,,,,701.8070000000007,,response,,,,99,,,,,,,Space,keypress(Space),,,,,,,,---- -- ----- -- ------ - ------- --- ----------<br>------------- ------ ------ ---- ---- ------- ----- -- ----<br>-------- ------- -- ---------- --- - --- ----- ----- ----<br>---- --- --- ----- --- ---- ---- ------- ----- ---- -------<br>--- --- -- ----- -- --- want -- --- ---- -- ------ ------<br>--- ----- -- ----,191569.89999997616,191568,190849.447,190850.69999998808,190866.193,191582.699,,45,want
screen,html.Screen,2_1_0_1_46,2022-02-15T15:54:48.478Z,,,,,,,,,,,,,,,,,53,,,,,,,,,,,,,,909.0009999880858,,response,,,,99,,,,,,,Space,keypress(Space),,,,,,,,---- -- ----- -- ------ - ------- --- ----------<br>------------- ------ ------ ---- ---- ------- ----- -- ----<br>-------- ------- -- ---------- --- - --- ----- ----- ----<br>---- --- --- ----- --- ---- ---- ------- ----- ---- -------<br>--- --- -- ----- -- --- ---- to --- ---- -- ------ ------<br>--- ----- -- ----,192493.39999997616,192491.69999998808,191566.065,191570.30000001192,191582.699,192499.006,,46,to
screen,html.Screen,2_1_0_1_47,2022-02-15T15:54:49.148Z,,,,,,,,,,,,,,,,,53,,,,,,,,,,,,,,662.0939999642433,,response,,,,99,,,,,,,Space,keypress(Space),,,,,,,,"---- -- ----- -- ------ - ------- --- ----------<br>------------- ------ ------ ---- ---- ------- ----- -- ----<br>-------- ------- -- ---------- --- - --- ----- ----- ----<br>---- --- --- ----- --- ---- ---- ------- ----- ---- -------<br>--- --- -- ----- -- --- ---- -- be, ---- -- ------ ------<br>--- ----- -- ----",193162.80000001192,193161.09999996424,192482.629,192493.80000001192,192499.006,193165.534,,47,"be,"
screen,html.Screen,2_1_0_1_48,2022-02-15T15:54:49.896Z,,,,,,,,,,,,,,,,,53,,,,,,,,,,,,,,744.565999964223,,response,,,,99,,,,,,,Space,keypress(Space),,,,,,,,---- -- ----- -- ------ - ------- --- ----------<br>------------- ------ ------ ---- ---- ------- ----- -- ----<br>-------- ------- -- ---------- --- - --- ----- ----- ----<br>---- --- --- ----- --- ---- ---- ------- ----- ---- -------<br>--- --- -- ----- -- --- ---- -- --- even -- ------ ------<br>--- ----- -- ----,193911.69999998808,193910.09999996424,193149.19,193163,193165.534,193915.369,,48,even
screen,html.Screen,2_1_0_1_49,2022-02-15T15:54:50.703Z,,,,,,,,,,,,,,,,,53,,,,,,,,,,,,,,800.4310000119149,,response,,,,99,,,,,,,Space,keypress(Space),,,,,,,,---- -- ----- -- ------ - ------- --- ----------<br>------------- ------ ------ ---- ---- ------- ----- -- ----<br>-------- ------- -- ---------- --- - --- ----- ----- ----<br>---- --- --- ----- --- ---- ---- ------- ----- ---- -------<br>--- --- -- ----- -- --- ---- -- --- ---- if ------ ------<br>--- ----- -- ----,194717.80000001192,194715.80000001192,193898.904,193912,193915.369,194732.039,,49,if
screen,html.Screen,2_1_0_1_50,2022-02-15T15:54:51.469Z,,,,,,,,,,,,,,,,,53,,,,,,,,,,,,,,749.5609999642475,,response,,,,99,,,,,,,Space,keypress(Space),,,,,,,,---- -- ----- -- ------ - ------- --- ----------<br>------------- ------ ------ ---- ---- ------- ----- -- ----<br>-------- ------- -- ---------- --- - --- ----- ----- ----<br>---- --- --- ----- --- ---- ---- ------- ----- ---- -------<br>--- --- -- ----- -- --- ---- -- --- ---- -- that's ------<br>--- ----- -- ----,195484.69999998808,195481.59999996424,194715.49,194718.09999996424,194732.039,195498.592,,50,that's
screen,html.Screen,2_1_0_1_51,2022-02-15T15:54:52.254Z,,,,,,,,,,,,,,,,,53,,,,,,,,,,,,,,768.007999964233,,response,,,,99,,,,,,,Space,keypress(Space),,,,,,,,---- -- ----- -- ------ - ------- --- ----------<br>------------- ------ ------ ---- ---- ------- ----- -- ----<br>-------- ------- -- ---------- --- - --- ----- ----- ----<br>---- --- --- ----- --- ---- ---- ------- ----- ---- -------<br>--- --- -- ----- -- --- ---- -- --- ---- -- ------ really<br>--- ----- -- ----,196268.89999997616,196266.59999996424,195482.211,195484.89999997616,195498.592,196281.711,,51,really
screen,html.Screen,2_1_0_1_52,2022-02-15T15:54:53.079Z,,,,,,,,,,,,,,,,,53,,,,,,,,,,,,,,810.4889999880688,,response,,,,99,,,,,,,Space,keypress(Space),,,,,,,,---- -- ----- -- ------ - ------- --- ----------<br>------------- ------ ------ ---- ---- ------- ----- -- ----<br>-------- ------- -- ---------- --- - --- ----- ----- ----<br>---- --- --- ----- --- ---- ---- ------- ----- ---- -------<br>--- --- -- ----- -- --- ---- -- --- ---- -- ------ ------<br>not ----- -- ----,197094,197092.19999998808,196265.243,196269.30000001192,196281.711,197098.084,,52,not
screen,html.Screen,2_1_0_1_53,2022-02-15T15:54:53.846Z,,,,,,,,,,,,,,,,,53,,,,,,,,,,,,,,761.2160000119184,,response,,,,99,,,,,,,Space,keypress(Space),,,,,,,,---- -- ----- -- ------ - ------- --- ----------<br>------------- ------ ------ ---- ---- ------- ----- -- ----<br>-------- ------- -- ---------- --- - --- ----- ----- ----<br>---- --- --- ----- --- ---- ---- ------- ----- ---- -------<br>--- --- -- ----- -- --- ---- -- --- ---- -- ------ ------<br>--- close -- ----,197861.59999996424,197859.30000001192,197081.507,197094.19999998808,197098.084,197864.608,,53,close
screen,html.Screen,2_1_0_1_54,2022-02-15T15:54:54.546Z,,,,,,,,,,,,,,,,,53,,,,,,,,,,,,,,693.9919999642298,,response,,,,99,,,,,,,Space,keypress(Space),,,,,,,,---- -- ----- -- ------ - ------- --- ----------<br>------------- ------ ------ ---- ---- ------- ----- -- ----<br>-------- ------- -- ---------- --- - --- ----- ----- ----<br>---- --- --- ----- --- ---- ---- ------- ----- ---- -------<br>--- --- -- ----- -- --- ---- -- --- ---- -- ------ ------<br>--- ----- at ----,198560.69999998808,198558.59999996424,197848.289,197861.89999997616,197864.608,198564.483,,54,at
screen,html.Screen,2_1_0_1_55,2022-02-15T15:54:55.212Z,,,,,,,,,,,,,,,,,53,,,,,,,,,,,,,,660.8170000119135,,response,,,,99,,,,,,,Space,keypress(Space),,,,,,,,---- -- ----- -- ------ - ------- --- ----------<br>------------- ------ ------ ---- ---- ------- ----- -- ----<br>-------- ------- -- ---------- --- - --- ----- ----- ----<br>---- --- --- ----- --- ---- ---- ------- ----- ---- -------<br>--- --- -- ----- -- --- ---- -- --- ---- -- ------ ------<br>--- ----- -- all.,199227.39999997616,199225.30000001192,198548.183,198561,198564.483,199264.3,,55,all.
Item 99,flow.Loop,2_1_0_1,2022-02-15T15:54:55.213Z,,,,,,,,,,,,,,,,,,,,,,,,,,,,,,,44435.49000001192,,completion,,,,,A,,,,,,,,,,,silence,,,,,199228,199225.30000001192,154689.778,154708.80000001192,154789.81,199264.3,,,
Question 1,html.Screen,2_1_0_2,2022-02-15T15:54:58.912Z,,,,,,,,,,,,,,,,,,,,,,,,,,,,false,FALSE,,3660.09999997617,,response,,,,99,A,,,,,,TRUE,click #choice-1,,,,silence,,,,,202927,202924.39999997616,199214.635,199228.30000001192,199264.3,202946.942,,,
Question 2,html.Screen,2_1_0_3,2022-02-15T15:55:02.274Z,,,,,,,,,,,,,,,,,,,,,,,,,,,,true,TRUE,,3339.957999976148,,response,,,,99,A,,,,,,TRUE,click #choice-1,,,,silence,,,,,206289.09999996424,206286.89999997616,202913.603,202927.30000001192,202946.942,206312.906,,,
Item 99,flow.Sequence,2_1_0,2022-02-15T15:55:02.274Z,,,,,,,,,,,,,,,,,,,,,,,,,,,,,,,61578.488999976165,,completion,,,,,,,,,,,,,,,,,,,,,206289.59999996424,206286.89999997616,144658.57,144677.59999996424,144708.411,206312.906,,,
Holding screen,html.Screen,2_1_1_0,2022-02-15T15:55:12.286Z,,,,,,,,,,,,,,,,,,,,,,,,,,,,,,,9998.034000000014,,timeout,,,,,,,,,,,,,,,,,,,,,216301.39999997616,216294.338,206279.766,206289.89999997616,206312.906,216310.94,,,
screen,html.Screen,2_1_1_1_0,2022-02-15T15:55:13.339Z,,,,,,,,,,,,,,,,,54,,,,,,,,,,,,,,1040.4599999761558,,response,,,,100,,,,,,,Space,keypress(Space),,,,,,,,At --- ---- --- ------ ----- ------- ---- -- --- ------- --<br>------- ---------- ------ -- ----- -- ----- -- ---- ------<br>--- ----- --- --- ------ -------- ----- --- ------ ----- --<br>----- ----- ---------- --- --- ------ ------ ---- -- ------<br>------- --- ------ ----- --- ---- ------- -- ---- --- --<br>------- ------,217353.89999997616,217351.39999997616,216294.338,216301.80000001192,216310.94,217360.718,,0,At
screen,html.Screen,2_1_1_1_1,2022-02-15T15:55:13.867Z,,,,,,,,,,,,,,,,,54,,,,,,,,,,,,,,519.9819999880856,,response,,,,100,,,,,,,Space,keypress(Space),,,,,,,,-- the ---- --- ------ ----- ------- ---- -- --- ------- --<br>------- ---------- ------ -- ----- -- ----- -- ---- ------<br>--- ----- --- --- ------ -------- ----- --- ------ ----- --<br>----- ----- ---------- --- --- ------ ------ ---- -- ------<br>------- --- ------ ----- --- ---- ------- -- ---- --- --<br>------- ------,217882.59999996424,217880.69999998808,217344.214,217354.19999998808,217360.718,217893.969,,1,the
screen,html.Screen,2_1_1_1_2,2022-02-15T15:55:14.503Z,,,,,,,,,,,,,,,,,54,,,,,,,,,,,,,,621.2309999880672,,response,,,,100,,,,,,,Space,keypress(Space),,,,,,,,-- --- time --- ------ ----- ------- ---- -- --- ------- --<br>------- ---------- ------ -- ----- -- ----- -- ---- ------<br>--- ----- --- --- ------ -------- ----- --- ------ ----- --<br>----- ----- ---------- --- --- ------ ------ ---- -- ------<br>------- --- ------ ----- --- ---- ------- -- ---- --- --<br>------- ------,218518.09999996424,218515.19999998808,217877.63,217883,217893.969,218527.154,,2,time
screen,html.Screen,2_1_1_1_3,2022-02-15T15:55:15.006Z,,,,,,,,,,,,,,,,,54,,,,,,,,,,,,,,491.94599996422767,,response,,,,100,,,,,,,Space,keypress(Space),,,,,,,,-- --- ---- the ------ ----- ------- ---- -- --- ------- --<br>------- ---------- ------ -- ----- -- ----- -- ---- ------<br>--- ----- --- --- ------ -------- ----- --- ------ ----- --<br>----- ----- ---------- --- --- ------ ------ ---- -- ------<br>------- --- ------ ----- --- ---- ------- -- ---- --- --<br>------- ------,219020.80000001192,219019.09999996424,218510.835,218518.59999996424,218527.154,219027.057,,3,the
screen,html.Screen,2_1_1_1_4,2022-02-15T15:55:15.537Z,,,,,,,,,,,,,,,,,54,,,,,,,,,,,,,,523.7430000119202,,response,,,,100,,,,,,,Space,keypress(Space),,,,,,,,-- --- ---- --- French ----- ------- ---- -- --- ------- --<br>------- ---------- ------ -- ----- -- ----- -- ---- ------<br>--- ----- --- --- ------ -------- ----- --- ------ ----- --<br>----- ----- ---------- --- --- ------ ------ ---- -- ------<br>------- --- ------ ----- --- ---- ------- -- ---- --- --<br>------- ------,219552.59999996424,219550.80000001192,219010.712,219021,219027.057,219560.448,,4,French
screen,html.Screen,2_1_1_1_5,2022-02-15T15:55:16.012Z,,,,,,,,,,,,,,,,,54,,,,,,,,,,,,,,464.9519999761542,,response,,,,100,,,,,,,Space,keypress(Space),,,,,,,,-- --- ---- --- ------ crown ------- ---- -- --- ------- --<br>------- ---------- ------ -- ----- -- ----- -- ---- ------<br>--- ----- --- --- ------ -------- ----- --- ------ ----- --<br>----- ----- ---------- --- --- ------ ------ ---- -- ------<br>------- --- ------ ----- --- ---- ------- -- ---- --- --<br>------- ------,220027.39999997616,220025.39999997616,219543.917,219553.30000001192,219560.448,220043.734,,5,crown
screen,html.Screen,2_1_1_1_6,2022-02-15T15:55:16.565Z,,,,,,,,,,,,,,,,,54,,,,,,,,,,,,,,534.8659999642405,,response,,,,100,,,,,,,Space,keypress(Space),,,,,,,,-- --- ---- --- ------ ----- secured ---- -- --- ------- --<br>------- ---------- ------ -- ----- -- ----- -- ---- ------<br>--- ----- --- --- ------ -------- ----- --- ------ ----- --<br>----- ----- ---------- --- --- ------ ------ ---- -- ------<br>------- --- ------ ----- --- ---- ------- -- ---- --- --<br>------- ------,220580.30000001192,220578.59999996424,220027.147,220027.69999998808,220043.734,220593.494,,6,secured
screen,html.Screen,2_1_1_1_7,2022-02-15T15:55:17.787Z,,,,,,,,,,,,,,,,,54,,,,,,,,,,,,,,1206.005999999994,,response,,,,100,,,,,,,Space,keypress(Space),,,,,,,,-- --- ---- --- ------ ----- ------- much -- --- ------- --<br>------- ---------- ------ -- ----- -- ----- -- ---- ------<br>--- ----- --- --- ------ -------- ----- --- ------ ----- --<br>----- ----- ---------- --- --- ------ ------ ---- -- ------<br>------- --- ------ ----- --- ---- ------- -- ---- --- --<br>------- ------,221802.19999998808,221799.5,220576.956,220580.5,220593.494,221809.826,,7,much
screen,html.Screen,2_1_1_1_8,2022-02-15T15:55:18.393Z,,,,,,,,,,,,,,,,,54,,,,,,,,,,,,,,593.5739999761572,,response,,,,100,,,,,,,Space,keypress(Space),,,,,,,,-- --- ---- --- ------ ----- ------- ---- of --- ------- --<br>------- ---------- ------ -- ----- -- ----- -- ---- ------<br>--- ----- --- --- ------ -------- ----- --- ------ ----- --<br>----- ----- ---------- --- --- ------ ------ ---- -- ------<br>------- --- ------ ----- --- ---- ------- -- ---- --- --<br>------- ------,222408.59999996424,222403.39999997616,221793.588,221802.5,221809.826,222426.382,,8,of
screen,html.Screen,2_1_1_1_9,2022-02-15T15:55:18.970Z,,,,,,,,,,,,,,,,,54,,,,,,,,,,,,,,557.6179999999877,,response,,,,100,,,,,,,Space,keypress(Space),,,,,,,,-- --- ---- --- ------ ----- ------- ---- -- its ------- --<br>------- ---------- ------ -- ----- -- ----- -- ---- ------<br>--- ----- --- --- ------ -------- ----- --- ------ ----- --<br>----- ----- ---------- --- --- ------ ------ ---- -- ------<br>------- --- ------ ----- --- ---- ------- -- ---- --- --<br>------- ------,222985.5,222984,222393.427,222408.80000001192,222426.382,222992.915,,9,its
screen,html.Screen,2_1_1_1_10,2022-02-15T15:55:19.570Z,,,,,,,,,,,,,,,,,54,,,,,,,,,,,,,,590.8850000119128,,response,,,,100,,,,,,,Space,keypress(Space),,,,,,,,-- --- ---- --- ------ ----- ------- ---- -- --- revenue --<br>------- ---------- ------ -- ----- -- ----- -- ---- ------<br>--- ----- --- --- ------ -------- ----- --- ------ ----- --<br>----- ----- ---------- --- --- ------ ------ ---- -- ------<br>------- --- ------ ----- --- ---- ------- -- ---- --- --<br>------- ------,223585.30000001192,223583.80000001192,222976.374,222985.89999997616,222992.915,223592.813,,10,revenue
screen,html.Screen,2_1_1_1_11,2022-02-15T15:55:20.519Z,,,,,,,,,,,,,,,,,54,,,,,,,,,,,,,,939.8869999880844,,response,,,,100,,,,,,,Space,keypress(Space),,,,,,,,-- --- ---- --- ------ ----- ------- ---- -- --- ------- by<br>------- ---------- ------ -- ----- -- ----- -- ---- ------<br>--- ----- --- --- ------ -------- ----- --- ------ ----- --<br>----- ----- ---------- --- --- ------ ------ ---- -- ------<br>------- --- ------ ----- --- ---- ------- -- ---- --- --<br>------- ------,224534.5,224532.69999998808,223576.317,223585.59999996424,223592.813,224542.627,,11,by
screen,html.Screen,2_1_1_1_12,2022-02-15T15:55:21.088Z,,,,,,,,,,,,,,,,,54,,,,,,,,,,,,,,555.2729999761505,,response,,,,100,,,,,,,Space,keypress(Space),,,,,,,,-- --- ---- --- ------ ----- ------- ---- -- --- ------- --<br>issuing ---------- ------ -- ----- -- ----- -- ---- ------<br>--- ----- --- --- ------ -------- ----- --- ------ ----- --<br>----- ----- ---------- --- --- ------ ------ ---- -- ------<br>------- --- ------ ----- --- ---- ------- -- ---- --- --<br>------- ------,225103.39999997616,225097.89999997616,224526.356,224534.89999997616,224542.627,225109.214,,12,issuing
screen,html.Screen,2_1_1_1_13,2022-02-15T15:55:21.654Z,,,,,,,,,,,,,,,,,54,,,,,,,,,,,,,,558.9859999880719,,response,,,,100,,,,,,,Space,keypress(Space),,,,,,,,-- --- ---- --- ------ ----- ------- ---- -- --- ------- --<br>------- government ------ -- ----- -- ----- -- ---- ------<br>--- ----- --- --- ------ -------- ----- --- ------ ----- --<br>----- ----- ---------- --- --- ------ ------ ---- -- ------<br>------- --- ------ ----- --- ---- ------- -- ---- --- --<br>------- ------,225669.59999996424,225668.19999998808,225092.835,225103.69999998808,225109.214,225675.724,,13,government
screen,html.Screen,2_1_1_1_14,2022-02-15T15:55:22.348Z,,,,,,,,,,,,,,,,,54,,,,,,,,,,,,,,683.8759999642498,,response,,,,100,,,,,,,Space,keypress(Space),,,,,,,,-- --- ---- --- ------ ----- ------- ---- -- --- ------- --<br>------- ---------- bonds. -- ----- -- ----- -- ---- ------<br>--- ----- --- --- ------ -------- ----- --- ------ ----- --<br>----- ----- ---------- --- --- ------ ------ ---- -- ------<br>------- --- ------ ----- --- ---- ------- -- ---- --- --<br>------- ------,226363.5,226359.59999996424,225659.415,225669.89999997616,225675.724,226375.588,,14,bonds.
screen,html.Screen,2_1_1_1_15,2022-02-15T15:55:23.126Z,,,,,,,,,,,,,,,,,54,,,,,,,,,,,,,,763.4120000000112,,response,,,,100,,,,,,,Space,keypress(Space),,,,,,,,-- --- ---- --- ------ ----- ------- ---- -- --- ------- --<br>------- ---------- ------ In ----- -- ----- -- ---- ------<br>--- ----- --- --- ------ -------- ----- --- ------ ----- --<br>----- ----- ---------- --- --- ------ ------ ---- -- ------<br>------- --- ------ ----- --- ---- ------- -- ---- --- --<br>------- ------,227141,227139,226359.197,226363.69999998808,226375.588,227175.506,,15,In
screen,html.Screen,2_1_1_1_16,2022-02-15T15:55:23.861Z,,,,,,,,,,,,,,,,,54,,,,,,,,,,,,,,698.794000011927,,response,,,,100,,,,,,,Space,keypress(Space),,,,,,,,"-- --- ---- --- ------ ----- ------- ---- -- --- ------- --<br>------- ---------- ------ -- 1727, -- ----- -- ---- ------<br>--- ----- --- --- ------ -------- ----- --- ------ ----- --<br>----- ----- ---------- --- --- ------ ------ ---- -- ------<br>------- --- ------ ----- --- ---- ------- -- ---- --- --<br>------- ------",227876,227874.30000001192,227159.028,227141.19999998808,227175.506,227892.18,,16,"1727,"
screen,html.Screen,2_1_1_1_17,2022-02-15T15:55:25.420Z,,,,,,,,,,,,,,,,,54,,,,,,,,,,,,,,1541.620000011928,,response,,,,100,,,,,,,Space,keypress(Space),,,,,,,,-- --- ---- --- ------ ----- ------- ---- -- --- ------- --<br>------- ---------- ------ -- ----- in ----- -- ---- ------<br>--- ----- --- --- ------ -------- ----- --- ------ ----- --<br>----- ----- ---------- --- --- ------ ------ ---- -- ------<br>------- --- ------ ----- --- ---- ------- -- ---- --- --<br>------- ------,229435.69999998808,229433.80000001192,227875.451,227876.30000001192,227892.18,229441.647,,17,in
screen,html.Screen,2_1_1_1_18,2022-02-15T15:55:26.046Z,,,,,,,,,,,,,,,,,54,,,,,,,,,,,,,,617.45299996424,,response,,,,100,,,,,,,Space,keypress(Space),,,,,,,,-- --- ---- --- ------ ----- ------- ---- -- --- ------- --<br>------- ---------- ------ -- ----- -- order -- ---- ------<br>--- ----- --- --- ------ -------- ----- --- ------ ----- --<br>----- ----- ---------- --- --- ------ ------ ---- -- ------<br>------- --- ------ ----- --- ---- ------- -- ---- --- --<br>------- ------,230061,230059.09999996424,229425.467,229436,229441.647,230075.155,,18,order
screen,html.Screen,2_1_1_1_19,2022-02-15T15:55:26.592Z,,,,,,,,,,,,,,,,,54,,,,,,,,,,,,,,530.8450000000012,,response,,,,100,,,,,,,Space,keypress(Space),,,,,,,,-- --- ---- --- ------ ----- ------- ---- -- --- ------- --<br>------- ---------- ------ -- ----- -- ----- to ---- ------<br>--- ----- --- --- ------ -------- ----- --- ------ ----- --<br>----- ----- ---------- --- --- ------ ------ ---- -- ------<br>------- --- ------ ----- --- ---- ------- -- ---- --- --<br>------- ------,230607.59999996424,230606,230058.48,230061.30000001192,230075.155,230624.967,,19,to
screen,html.Screen,2_1_1_1_20,2022-02-15T15:55:27.072Z,,,,,,,,,,,,,,,,,54,,,,,,,,,,,,,,461.2329999880749,,response,,,,100,,,,,,,Space,keypress(Space),,,,,,,,-- --- ---- --- ------ ----- ------- ---- -- --- ------- --<br>------- ---------- ------ -- ----- -- ----- -- save ------<br>--- ----- --- --- ------ -------- ----- --- ------ ----- --<br>----- ----- ---------- --- --- ------ ------ ---- -- ------<br>------- --- ------ ----- --- ---- ------- -- ---- --- --<br>------- ------,231087.69999998808,231086.19999998808,230608.21,230607.89999997616,230624.967,231091.326,,20,save
screen,html.Screen,2_1_1_1_21,2022-02-15T15:55:27.581Z,,,,,,,,,,,,,,,,,54,,,,,,,,,,,,,,502.87399998807814,,response,,,,100,,,,,,,Space,keypress(Space),,,,,,,,"-- --- ---- --- ------ ----- ------- ---- -- --- ------- --<br>------- ---------- ------ -- ----- -- ----- -- ---- money,<br>--- ----- --- --- ------ -------- ----- --- ------ ----- --<br>----- ----- ---------- --- --- ------ ------ ---- -- ------<br>------- --- ------ ----- --- ---- ------- -- ---- --- --<br>------- ------",231596.39999997616,231594.19999998808,231074.993,231087.89999997616,231091.326,231607.977,,21,"money,"
screen,html.Screen,2_1_1_1_22,2022-02-15T15:55:28.296Z,,,,,,,,,,,,,,,,,54,,,,,,,,,,,,,,700.8230000119074,,response,,,,100,,,,,,,Space,keypress(Space),,,,,,,,-- --- ---- --- ------ ----- ------- ---- -- --- ------- --<br>------- ---------- ------ -- ----- -- ----- -- ---- ------<br>the ----- --- --- ------ -------- ----- --- ------ ----- --<br>----- ----- ---------- --- --- ------ ------ ---- -- ------<br>------- --- ------ ----- --- ---- ------- -- ---- --- --<br>------- ------,232310.69999998808,232308.80000001192,231591.528,231596.69999998808,231607.977,232324.543,,22,the
screen,html.Screen,2_1_1_1_23,2022-02-15T15:55:28.812Z,,,,,,,,,,,,,,,,,54,,,,,,,,,,,,,,501.0569999642321,,response,,,,100,,,,,,,Space,keypress(Space),,,,,,,,-- --- ---- --- ------ ----- ------- ---- -- --- ------- --<br>------- ---------- ------ -- ----- -- ----- -- ---- ------<br>--- state --- --- ------ -------- ----- --- ------ ----- --<br>----- ----- ---------- --- --- ------ ------ ---- -- ------<br>------- --- ------ ----- --- ---- ------- -- ---- --- --<br>------- ------,232827.09999996424,232825.59999996424,232307.981,232311.19999998808,232324.543,232841.231,,23,state
screen,html.Screen,2_1_1_1_24,2022-02-15T15:55:29.289Z,,,,,,,,,,,,,,,,,54,,,,,,,,,,,,,,460.6689999761584,,response,,,,100,,,,,,,Space,keypress(Space),,,,,,,,-- --- ---- --- ------ ----- ------- ---- -- --- ------- --<br>------- ---------- ------ -- ----- -- ----- -- ---- ------<br>--- ----- cut --- ------ -------- ----- --- ------ ----- --<br>----- ----- ---------- --- --- ------ ------ ---- -- ------<br>------- --- ------ ----- --- ---- ------- -- ---- --- --<br>------- ------,233304.09999996424,233301.89999997616,232824.481,232827.5,232841.231,233307.592,,24,cut
screen,html.Screen,2_1_1_1_25,2022-02-15T15:55:29.766Z,,,,,,,,,,,,,,,,,54,,,,,,,,,,,,,,471.80799997615395,,response,,,,100,,,,,,,Space,keypress(Space),,,,,,,,-- --- ---- --- ------ ----- ------- ---- -- --- ------- --<br>------- ---------- ------ -- ----- -- ----- -- ---- ------<br>--- ----- --- the ------ -------- ----- --- ------ ----- --<br>----- ----- ---------- --- --- ------ ------ ---- -- ------<br>------- --- ------ ----- --- ---- ------- -- ---- --- --<br>------- ------,233781.09999996424,233779.39999997616,233291.038,233304.39999997616,233307.592,233790.918,,25,the
screen,html.Screen,2_1_1_1_26,2022-02-15T15:55:30.240Z,,,,,,,,,,,,,,,,,54,,,,,,,,,,,,,,463.0819999999949,,response,,,,100,,,,,,,Space,keypress(Space),,,,,,,,-- --- ---- --- ------ ----- ------- ---- -- --- ------- --<br>------- ---------- ------ -- ----- -- ----- -- ---- ------<br>--- ----- --- --- bonds' -------- ----- --- ------ ----- --<br>----- ----- ---------- --- --- ------ ------ ---- -- ------<br>------- --- ------ ----- --- ---- ------- -- ---- --- --<br>------- ------,234255.5,234254,233774.496,233781.39999997616,233790.918,234276.977,,26,bonds'
screen,html.Screen,2_1_1_1_27,2022-02-15T15:55:30.881Z,,,,,,,,,,,,,,,,,54,,,,,,,,,,,,,,617.2229999880656,,response,,,,100,,,,,,,Space,keypress(Space),,,,,,,,-- --- ---- --- ------ ----- ------- ---- -- --- ------- --<br>------- ---------- ------ -- ----- -- ----- -- ---- ------<br>--- ----- --- --- ------ interest ----- --- ------ ----- --<br>----- ----- ---------- --- --- ------ ------ ---- -- ------<br>------- --- ------ ----- --- ---- ------- -- ---- --- --<br>------- ------,234896.19999998808,234894.19999998808,234240.765,234255.80000001192,234276.977,234907.222,,27,interest
screen,html.Screen,2_1_1_1_28,2022-02-15T15:55:31.510Z,,,,,,,,,,,,,,,,,54,,,,,,,,,,,,,,616.4779999880702,,response,,,,100,,,,,,,Space,keypress(Space),,,,,,,,-- --- ---- --- ------ ----- ------- ---- -- --- ------- --<br>------- ---------- ------ -- ----- -- ----- -- ---- ------<br>--- ----- --- --- ------ -------- rate. --- ------ ----- --<br>----- ----- ---------- --- --- ------ ------ ---- -- ------<br>------- --- ------ ----- --- ---- ------- -- ---- --- --<br>------- ------,235525.59999996424,235523.69999998808,234890.727,234896.39999997616,234907.222,235540.442,,28,rate.
screen,html.Screen,2_1_1_1_29,2022-02-15T15:55:32.070Z,,,,,,,,,,,,,,,,,54,,,,,,,,,,,,,,542.55799999999,,response,,,,100,,,,,,,Space,keypress(Space),,,,,,,,-- --- ---- --- ------ ----- ------- ---- -- --- ------- --<br>------- ---------- ------ -- ----- -- ----- -- ---- ------<br>--- ----- --- --- ------ -------- ----- The ------ ----- --<br>----- ----- ---------- --- --- ------ ------ ---- -- ------<br>------- --- ------ ----- --- ---- ------- -- ---- --- --<br>------- ------,236084.80000001192,236083,235523.876,235526,235540.442,236090.377,,29,The
screen,html.Screen,2_1_1_1_30,2022-02-15T15:55:32.527Z,,,,,,,,,,,,,,,,,54,,,,,,,,,,,,,,448.52299997615046,,response,,,,100,,,,,,,Space,keypress(Space),,,,,,,,-- --- ---- --- ------ ----- ------- ---- -- --- ------- --<br>------- ---------- ------ -- ----- -- ----- -- ---- ------<br>--- ----- --- --- ------ -------- ----- --- market ----- --<br>----- ----- ---------- --- --- ------ ------ ---- -- ------<br>------- --- ------ ----- --- ---- ------- -- ---- --- --<br>------- ------,236541.69999998808,236538.89999997616,236073.764,236085.19999998808,236090.377,236556.885,,30,market
screen,html.Screen,2_1_1_1_31,2022-02-15T15:55:33.051Z,,,,,,,,,,,,,,,,,54,,,,,,,,,,,,,,507.31499998806976,,response,,,,100,,,,,,,Space,keypress(Space),,,,,,,,-- --- ---- --- ------ ----- ------- ---- -- --- ------- --<br>------- ---------- ------ -- ----- -- ----- -- ---- ------<br>--- ----- --- --- ------ -------- ----- --- ------ value --<br>----- ----- ---------- --- --- ------ ------ ---- -- ------<br>------- --- ------ ----- --- ---- ------- -- ---- --- --<br>------- ------,237066,237064.19999998808,236540.297,236542.19999998808,236556.885,237073.503,,31,value
screen,html.Screen,2_1_1_1_32,2022-02-15T15:55:33.704Z,,,,,,,,,,,,,,,,,54,,,,,,,,,,,,,,643.997000000003,,response,,,,100,,,,,,,Space,keypress(Space),,,,,,,,-- --- ---- --- ------ ----- ------- ---- -- --- ------- --<br>------- ---------- ------ -- ----- -- ----- -- ---- ------<br>--- ----- --- --- ------ -------- ----- --- ------ ----- of<br>----- ----- ---------- --- --- ------ ------ ---- -- ------<br>------- --- ------ ----- --- ---- ------- -- ---- --- --<br>------- ------,237719.30000001192,237717.5,237056.92,237066.39999997616,237073.503,237723.375,,32,of
screen,html.Screen,2_1_1_1_33,2022-02-15T15:55:34.207Z,,,,,,,,,,,,,,,,,54,,,,,,,,,,,,,,495.92500001192093,,response,,,,100,,,,,,,Space,keypress(Space),,,,,,,,-- --- ---- --- ------ ----- ------- ---- -- --- ------- --<br>------- ---------- ------ -- ----- -- ----- -- ---- ------<br>--- ----- --- --- ------ -------- ----- --- ------ ----- --<br>these ----- ---------- --- --- ------ ------ ---- -- ------<br>------- --- ------ ----- --- ---- ------- -- ---- --- --<br>------- ------,238221.89999997616,238219.30000001192,237706.825,237719.59999996424,237723.375,238239.991,,33,these
screen,html.Screen,2_1_1_1_34,2022-02-15T15:55:34.704Z,,,,,,,,,,,,,,,,,54,,,,,,,,,,,,,,476.0089999999909,,response,,,,100,,,,,,,Space,keypress(Space),,,,,,,,-- --- ---- --- ------ ----- ------- ---- -- --- ------- --<br>------- ---------- ------ -- ----- -- ----- -- ---- ------<br>--- ----- --- --- ------ -------- ----- --- ------ ----- --<br>----- bonds ---------- --- --- ------ ------ ---- -- ------<br>------- --- ------ ----- --- ---- ------- -- ---- --- --<br>------- ------,238719.5,238716,238223.322,238222.30000001192,238239.991,238723.146,,34,bonds
screen,html.Screen,2_1_1_1_35,2022-02-15T15:55:35.233Z,,,,,,,,,,,,,,,,,54,,,,,,,,,,,,,,523.0539999880712,,response,,,,100,,,,,,,Space,keypress(Space),,,,,,,,"-- --- ---- --- ------ ----- ------- ---- -- --- ------- --<br>------- ---------- ------ -- ----- -- ----- -- ---- ------<br>--- ----- --- --- ------ -------- ----- --- ------ ----- --<br>----- ----- plummeted, --- --- ------ ------ ---- -- ------<br>------- --- ------ ----- --- ---- ------- -- ---- --- --<br>------- ------",239247.80000001192,239246.19999998808,238706.565,238719.89999997616,238723.146,239256.448,,35,"plummeted,"
screen,html.Screen,2_1_1_1_36,2022-02-15T15:55:36.166Z,,,,,,,,,,,,,,,,,54,,,,,,,,,,,,,,921.7519999880751,,response,,,,100,,,,,,,Space,keypress(Space),,,,,,,,-- --- ---- --- ------ ----- ------- ---- -- --- ------- --<br>------- ---------- ------ -- ----- -- ----- -- ---- ------<br>--- ----- --- --- ------ -------- ----- --- ------ ----- --<br>----- ----- ---------- and --- ------ ------ ---- -- ------<br>------- --- ------ ----- --- ---- ------- -- ---- --- --<br>------- ------,240181.09999996424,240178.19999998808,239239.797,239248.19999998808,239256.448,240189.715,,36,and
screen,html.Screen,2_1_1_1_37,2022-02-15T15:55:36.635Z,,,,,,,,,,,,,,,,,54,,,,,,,,,,,,,,458.48499998808256,,response,,,,100,,,,,,,Space,keypress(Space),,,,,,,,-- --- ---- --- ------ ----- ------- ---- -- --- ------- --<br>------- ---------- ------ -- ----- -- ----- -- ---- ------<br>--- ----- --- --- ------ -------- ----- --- ------ ----- --<br>----- ----- ---------- --- the ------ ------ ---- -- ------<br>------- --- ------ ----- --- ---- ------- -- ---- --- --<br>------- ------,240649.89999997616,240648.19999998808,240173.02,240181.5,240189.715,240656.119,,37,the
screen,html.Screen,2_1_1_1_38,2022-02-15T15:55:37.158Z,,,,,,,,,,,,,,,,,54,,,,,,,,,,,,,,514.880999999994,,response,,,,100,,,,,,,Space,keypress(Space),,,,,,,,-- --- ---- --- ------ ----- ------- ---- -- --- ------- --<br>------- ---------- ------ -- ----- -- ----- -- ---- ------<br>--- ----- --- --- ------ -------- ----- --- ------ ----- --<br>----- ----- ---------- --- --- market ------ ---- -- ------<br>------- --- ------ ----- --- ---- ------- -- ---- --- --<br>------- ------,241173,241171,240639.495,240650.30000001192,240656.119,241189.364,,38,market
screen,html.Screen,2_1_1_1_39,2022-02-15T15:55:37.612Z,,,,,,,,,,,,,,,,,54,,,,,,,,,,,,,,435.43600001191953,,response,,,,100,,,,,,,Space,keypress(Space),,,,,,,,-- --- ---- --- ------ ----- ------- ---- -- --- ------- --<br>------- ---------- ------ -- ----- -- ----- -- ---- ------<br>--- ----- --- --- ------ -------- ----- --- ------ ----- --<br>----- ----- ---------- --- --- ------ became ---- -- ------<br>------- --- ------ ----- --- ---- ------- -- ---- --- --<br>------- ------,241626.69999998808,241624.80000001192,241172.769,241173.30000001192,241189.364,241639.219,,39,became
screen,html.Screen,2_1_1_1_40,2022-02-15T15:55:37.961Z,,,,,,,,,,,,,,,,,54,,,,,,,,,,,,,,335.18099997614627,,response,,,,100,,,,,,,Space,keypress(Space),,,,,,,,-- --- ---- --- ------ ----- ------- ---- -- --- ------- --<br>------- ---------- ------ -- ----- -- ----- -- ---- ------<br>--- ----- --- --- ------ -------- ----- --- ------ ----- --<br>----- ----- ---------- --- --- ------ ------ wary -- ------<br>------- --- ------ ----- --- ---- ------- -- ---- --- --<br>------- ------,241976.39999997616,241974.39999997616,241622.654,241627,241639.219,241989.166,,40,wary
screen,html.Screen,2_1_1_1_41,2022-02-15T15:55:38.505Z,,,,,,,,,,,,,,,,,54,,,,,,,,,,,,,,529.5339999880816,,response,,,,100,,,,,,,Space,keypress(Space),,,,,,,,-- --- ---- --- ------ ----- ------- ---- -- --- ------- --<br>------- ---------- ------ -- ----- -- ----- -- ---- ------<br>--- ----- --- --- ------ -------- ----- --- ------ ----- --<br>----- ----- ---------- --- --- ------ ------ ---- of ------<br>------- --- ------ ----- --- ---- ------- -- ---- --- --<br>------- ------,242520.39999997616,242518.69999998808,241972.542,241976.69999998808,241989.166,242544.995,,41,of
screen,html.Screen,2_1_1_1_42,2022-02-15T15:55:38.944Z,,,,,,,,,,,,,,,,,54,,,,,,,,,,,,,,412.50500000000466,,response,,,,100,,,,,,,Space,keypress(Space),,,,,,,,-- --- ---- --- ------ ----- ------- ---- -- --- ------- --<br>------- ---------- ------ -- ----- -- ----- -- ---- ------<br>--- ----- --- --- ------ -------- ----- --- ------ ----- --<br>----- ----- ---------- --- --- ------ ------ ---- -- French<br>------- --- ------ ----- --- ---- ------- -- ---- --- --<br>------- ------,242959,242957.5,242506.013,242520.69999998808,242544.995,242972.531,,42,French
screen,html.Screen,2_1_1_1_43,2022-02-15T15:55:39.419Z,,,,,,,,,,,,,,,,,54,,,,,,,,,,,,,,460.4690000000119,,response,,,,100,,,,,,,Space,keypress(Space),,,,,,,,-- --- ---- --- ------ ----- ------- ---- -- --- ------- --<br>------- ---------- ------ -- ----- -- ----- -- ---- ------<br>--- ----- --- --- ------ -------- ----- --- ------ ----- --<br>----- ----- ---------- --- --- ------ ------ ---- -- ------<br>credit. --- ------ ----- --- ---- ------- -- ---- --- --<br>------- ------,243434.59999996424,243433,242955.996,242959.30000001192,242972.531,243438.938,,43,credit.
screen,html.Screen,2_1_1_1_44,2022-02-15T15:55:39.963Z,,,,,,,,,,,,,,,,,54,,,,,,,,,,,,,,536.9619999761635,,response,,,,100,,,,,,,Space,keypress(Space),,,,,,,,-- --- ---- --- ------ ----- ------- ---- -- --- ------- --<br>------- ---------- ------ -- ----- -- ----- -- ---- ------<br>--- ----- --- --- ------ -------- ----- --- ------ ----- --<br>----- ----- ---------- --- --- ------ ------ ---- -- ------<br>------- The ------ ----- --- ---- ------- -- ---- --- --<br>------- ------,243977.80000001192,243975.89999997616,243422.458,243434.80000001192,243438.938,243988.723,,44,The
screen,html.Screen,2_1_1_1_45,2022-02-15T15:55:40.408Z,,,,,,,,,,,,,,,,,54,,,,,,,,,,,,,,432.8769999642391,,response,,,,100,,,,,,,Space,keypress(Space),,,,,,,,-- --- ---- --- ------ ----- ------- ---- -- --- ------- --<br>------- ---------- ------ -- ----- -- ----- -- ---- ------<br>--- ----- --- --- ------ -------- ----- --- ------ ----- --<br>----- ----- ---------- --- --- ------ ------ ---- -- ------<br>------- --- French ----- --- ---- ------- -- ---- --- --<br>------- ------,244423.5,244421.59999996424,243972.507,243978.09999996424,243988.723,244439.009,,45,French
screen,html.Screen,2_1_1_1_46,2022-02-15T15:55:40.965Z,,,,,,,,,,,,,,,,,54,,,,,,,,,,,,,,539.29100001193,,response,,,,100,,,,,,,Space,keypress(Space),,,,,,,,-- --- ---- --- ------ ----- ------- ---- -- --- ------- --<br>------- ---------- ------ -- ----- -- ----- -- ---- ------<br>--- ----- --- --- ------ -------- ----- --- ------ ----- --<br>----- ----- ---------- --- --- ------ ------ ---- -- ------<br>------- --- ------ state --- ---- ------- -- ---- --- --<br>------- ------,244980.19999998808,244978.30000001192,244422.161,244423.80000001192,244439.009,244988.586,,46,state
screen,html.Screen,2_1_1_1_47,2022-02-15T15:55:41.441Z,,,,,,,,,,,,,,,,,54,,,,,,,,,,,,,,465.51399996422697,,response,,,,100,,,,,,,Space,keypress(Space),,,,,,,,-- --- ---- --- ------ ----- ------- ---- -- --- ------- --<br>------- ---------- ------ -- ----- -- ----- -- ---- ------<br>--- ----- --- --- ------ -------- ----- --- ------ ----- --<br>----- ----- ---------- --- --- ------ ------ ---- -- ------<br>------- --- ------ ----- was ---- ------- -- ---- --- --<br>------- ------,245456.80000001192,245454.09999996424,244972.12,244980.5,244988.586,245471.849,,47,was
screen,html.Screen,2_1_1_1_48,2022-02-15T15:55:41.907Z,,,,,,,,,,,,,,,,,54,,,,,,,,,,,,,,448.5509999761707,,response,,,,100,,,,,,,Space,keypress(Space),,,,,,,,-- --- ---- --- ------ ----- ------- ---- -- --- ------- --<br>------- ---------- ------ -- ----- -- ----- -- ---- ------<br>--- ----- --- --- ------ -------- ----- --- ------ ----- --<br>----- ----- ---------- --- --- ------ ------ ---- -- ------<br>------- --- ------ ----- --- left ------- -- ---- --- --<br>------- ------,245922,245920.39999997616,245455.47,245457.09999996424,245471.849,245938.611,,48,left
screen,html.Screen,2_1_1_1_49,2022-02-15T15:55:42.573Z,,,,,,,,,,,,,,,,,54,,,,,,,,,,,,,,647.1890000119165,,response,,,,100,,,,,,,Space,keypress(Space),,,,,,,,-- --- ---- --- ------ ----- ------- ---- -- --- ------- --<br>------- ---------- ------ -- ----- -- ----- -- ---- ------<br>--- ----- --- --- ------ -------- ----- --- ------ ----- --<br>----- ----- ---------- --- --- ------ ------ ---- -- ------<br>------- --- ------ ----- --- ---- without -- ---- --- --<br>------- ------,246588.09999996424,246585.80000001192,245921.883,245922.39999997616,245938.611,246605.146,,49,without
screen,html.Screen,2_1_1_1_50,2022-02-15T15:55:43.278Z,,,,,,,,,,,,,,,,,54,,,,,,,,,,,,,,685.8539999999921,,response,,,,100,,,,,,,Space,keypress(Space),,,,,,,,-- --- ---- --- ------ ----- ------- ---- -- --- ------- --<br>------- ---------- ------ -- ----- -- ----- -- ---- ------<br>--- ----- --- --- ------ -------- ----- --- ------ ----- --<br>----- ----- ---------- --- --- ------ ------ ---- -- ------<br>------- --- ------ ----- --- ---- ------- an ---- --- --<br>------- ------,247293,247291,246588.402,246588.39999997616,246605.146,247304.763,,50,an
screen,html.Screen,2_1_1_1_51,2022-02-15T15:55:43.828Z,,,,,,,,,,,,,,,,,54,,,,,,,,,,,,,,537.2369999999937,,response,,,,100,,,,,,,Space,keypress(Space),,,,,,,,-- --- ---- --- ------ ----- ------- ---- -- --- ------- --<br>------- ---------- ------ -- ----- -- ----- -- ---- ------<br>--- ----- --- --- ------ -------- ----- --- ------ ----- --<br>----- ----- ---------- --- --- ------ ------ ---- -- ------<br>------- --- ------ ----- --- ---- ------- -- easy --- --<br>------- ------,247843.69999998808,247842,247288.267,247293.30000001192,247304.763,247854.833,,51,easy
screen,html.Screen,2_1_1_1_52,2022-02-15T15:55:44.390Z,,,,,,,,,,,,,,,,,54,,,,,,,,,,,,,,548.6669999999867,,response,,,,100,,,,,,,Space,keypress(Space),,,,,,,,-- --- ---- --- ------ ----- ------- ---- -- --- ------- --<br>------- ---------- ------ -- ----- -- ----- -- ---- ------<br>--- ----- --- --- ------ -------- ----- --- ------ ----- --<br>----- ----- ---------- --- --- ------ ------ ---- -- ------<br>------- --- ------ ----- --- ---- ------- -- ---- way --<br>------- ------,248405,248403.5,247838.174,247843.89999997616,247854.833,248421.425,,52,way
screen,html.Screen,2_1_1_1_53,2022-02-15T15:55:45.015Z,,,,,,,,,,,,,,,,,54,,,,,,,,,,,,,,605.6749999642489,,response,,,,100,,,,,,,Space,keypress(Space),,,,,,,,-- --- ---- --- ------ ----- ------- ---- -- --- ------- --<br>------- ---------- ------ -- ----- -- ----- -- ---- ------<br>--- ----- --- --- ------ -------- ----- --- ------ ----- --<br>----- ----- ---------- --- --- ------ ------ ---- -- ------<br>------- --- ------ ----- --- ---- ------- -- ---- --- of<br>------- ------,249029.89999997616,249027.09999996424,248404.88,248405.39999997616,248421.425,249037.79,,53,of
screen,html.Screen,2_1_1_1_54,2022-02-15T15:55:45.614Z,,,,,,,,,,,,,,,,,54,,,,,,,,,,,,,,589.60999997615,,response,,,,100,,,,,,,Space,keypress(Space),,,,,,,,-- --- ---- --- ------ ----- ------- ---- -- --- ------- --<br>------- ---------- ------ -- ----- -- ----- -- ---- ------<br>--- ----- --- --- ------ -------- ----- --- ------ ----- --<br>----- ----- ---------- --- --- ------ ------ ---- -- ------<br>------- --- ------ ----- --- ---- ------- -- ---- --- --<br>raising ------,249629,249627.39999997616,249021.347,249030.19999998808,249037.79,249637.691,,54,raising
screen,html.Screen,2_1_1_1_55,2022-02-15T15:55:46.370Z,,,,,,,,,,,,,,,,,54,,,,,,,,,,,,,,746.0089999880875,,response,,,,100,,,,,,,Space,keypress(Space),,,,,,,,-- --- ---- --- ------ ----- ------- ---- -- --- ------- --<br>------- ---------- ------ -- ----- -- ----- -- ---- ------<br>--- ----- --- --- ------ -------- ----- --- ------ ----- --<br>----- ----- ---------- --- --- ------ ------ ---- -- ------<br>------- --- ------ ----- --- ---- ------- -- ---- --- --<br>------- money.,250385.19999998808,250383.69999998808,249621.372,249629.30000001192,249637.691,250415.887,,55,money.
Item 100,flow.Loop,2_1_1_1,2022-02-15T15:55:46.370Z,,,,,,,,,,,,,,,,,,,,,,,,,,,,,,,34072.75999998808,,completion,,,,,A,,,,,,,,,,,silence,,,,,250385.80000001192,250383.69999998808,216294.338,216301.69999998808,216310.94,250415.887,,,
Question 1,html.Screen,2_1_1_2,2022-02-15T15:55:51.249Z,,,,,,,,,,,,,,,,,,,,,,,,,,,,true,TRUE,,4846.312999988091,,response,,,,100,A,,,,,,TRUE,click #choice-1,,,,silence,,,,,255264.30000001192,255262.19999998808,250371.068,250386,250415.887,255286.595,,,
Question 2,html.Screen,2_1_1_3,2022-02-15T15:55:54.969Z,,,,,,,,,,,,,,,,,,,,,,,,,,,,true,FALSE,,3695.104999988078,,response,,,,100,A,,,,,,FALSE,click #choice-2,,,,silence,,,,,258983.80000001192,258981.69999998808,255253.257,255264.69999998808,255286.595,259002.949,,,
Item 100,flow.Sequence,2_1_1,2022-02-15T15:55:54.969Z,,,,,,,,,,,,,,,,,,,,,,,,,,,,,,,52668.79399998809,,completion,,,,,,,,,,,,,,,,,,,,,258984.30000001192,258981.69999998808,206279.766,206289.80000001192,206312.906,259002.949,,,
End of Practice,html.Page,2_1_2,2022-02-15T15:56:00.003Z,,,,,,,,,,,,,,,,,,,,,,,,,,,,,,,5014.351000011928,,form submission,,,,,,,,,,,,,,,,,,,,,264018.09999996424,264017.3000000119,258969.259,258984.5,259002.949,264034.813,,,
Practice,flow.Sequence,2_1,2022-02-15T15:56:00.006Z,,,,,,,,,,,,,,,,,,,,,,,,,,,,,,,119308.88900001193,,completion,,,,,,,,,,,,,,,,,,,,,264021.39999997616,264017.3000000119,144658.57,144677.5,144708.411,264034.813,,,
Trap_instruction,html.Page,2_2_0,2022-02-15T15:56:05.547Z,,,,,,,,,,,,,,,,,,,,,,,,,,,,,,,5527.086999976134,,form submission,,,,,,,,,,,,,,,,,,,,,269562.59999996424,269561.89999997616,264001.821,264022,264034.813,269683.721,,,
trap_trial,html.Screen,2_2_1,2022-02-15T15:56:10.654Z,,,,,,,,,,,,,,,,,,,,,,,,,,,,true,1,,4981.27899999998,,response,,,,,,,,,,,1,click #choice-1,,,,,,,,,274669.1999999881,274665,269550.48,269563.1999999881,269683.721,274732.683,,,
end of trap trial,html.Page,2_2_2,2022-02-15T15:56:13.179Z,,,,,,,,,,,,,,,,,,,,,,,,,,,,,,,2460.916999964218,,form submission,,,,,,,,,,,,,,,,,,,,,277194.59999996424,277193.59999996424,274666.248,274669.5,274732.683,277198.882,,,
Trap 1,flow.Sequence,2_2,2022-02-15T15:56:13.180Z,,,,,,,,,,,,,,,,,,,,,,,,,,,,,,,13158.786999964213,,completion,,,,,,,,,,,,,,,,,,,,,277195.1999999881,277193.59999996424,264001.821,264021.89999997616,264034.813,277198.882,,,
Standby,html.Page,2_3_0,2022-02-15T15:56:21.167Z,,,,,,,,,,,,,,,,,,,,,,,,,,,,,,,7998.429999999993,,timeout,,,,,,,,,,,,,,,,,,,,,285181.89999997616,285180.705,277182.377,277195.59999996424,277198.882,285197.312,,,
Holding screen,html.Screen,2_3_1_0_0,2022-02-15T15:56:28.165Z,,,,,,,,,,,,,,,,,,,,,,,,,,,,,,,6998.6110000000335,,timeout,,,,,,,,,,,,,,,,,,,,,292180.6999999881,292179.314,285180.705,285182.5,285197.312,292195.923,,,
screen,html.Screen,2_3_1_0_1_0,2022-02-15T15:56:29.920Z,,,,,,,,,,,,,,,,,11,,,,,,,,,,,,,,1737.1769999642274,,response,,,,4,A,,,,,,Space,keypress(Space),,,,silence,,,,Known -- ---- --- -- --- -------- ------------ ---------- --<br>- ------- ------ --------- -- ------------ -- --- ---- -----<br>------ ---- ---- ------ ------ ------- --- ----- ---------<br>---- --- -------- -------- --- --- -- ------- --- --- -----<br>-- --- ------ ------- --- --- -------- ---- --------- --<br>---------- -- -------- ----------------,293935.5,293933.09999996424,292179.314,292181.09999996424,292195.923,293945.542,,0,Known
screen,html.Screen,2_3_1_0_1_1,2022-02-15T15:56:30.394Z,,,,,,,,,,,,,,,,,11,,,,,,,,,,,,,,461.95799999998417,,response,,,,4,A,,,,,,Space,keypress(Space),,,,silence,,,,----- as ---- --- -- --- -------- ------------ ---------- --<br>- ------- ------ --------- -- ------------ -- --- ---- -----<br>------ ---- ---- ------ ------ ------- --- ----- ---------<br>---- --- -------- -------- --- --- -- ------- --- --- -----<br>-- --- ------ ------- --- --- -------- ---- --------- --<br>---------- -- -------- ----------------,294409.09999996424,294407.5,293929.031,293935.8000000119,293945.542,294412.168,,1,as
screen,html.Screen,2_3_1_0_1_2,2022-02-15T15:56:30.916Z,,,,,,,,,,,,,,,,,11,,,,,,,,,,,,,,518.1320000119158,,response,,,,4,A,,,,,,Space,keypress(Space),,,,silence,,,,----- -- Rapa --- -- --- -------- ------------ ---------- --<br>- ------- ------ --------- -- ------------ -- --- ---- -----<br>------ ---- ---- ------ ------ ------- --- ----- ---------<br>---- --- -------- -------- --- --- -- ------- --- --- -----<br>-- --- ------ ------- --- --- -------- ---- --------- --<br>---------- -- -------- ----------------,294931.8000000119,294930.3000000119,294395.656,294409.3000000119,294412.168,294945.583,,2,Rapa
screen,html.Screen,2_3_1_0_1_3,2022-02-15T15:56:31.641Z,,,,,,,,,,,,,,,,,11,,,,,,,,,,,,,,708.516999964253,,response,,,,4,A,,,,,,Space,keypress(Space),,,,silence,,,,----- -- ---- Nui -- --- -------- ------------ ---------- --<br>- ------- ------ --------- -- ------------ -- --- ---- -----<br>------ ---- ---- ------ ------ ------- --- ----- ---------<br>---- --- -------- -------- --- --- -- ------- --- --- -----<br>-- --- ------ ------- --- --- -------- ---- --------- --<br>---------- -- -------- ----------------,295656.59999996424,295654.09999996424,294928.787,294932.09999996424,294945.583,295661.89,,3,Nui
screen,html.Screen,2_3_1_0_1_4,2022-02-15T15:56:32.200Z,,,,,,,,,,,,,,,,,11,,,,,,,,,,,,,,551.609999999986,,response,,,,4,A,,,,,,Space,keypress(Space),,,,silence,,,,----- -- ---- --- to --- -------- ------------ ---------- --<br>- ------- ------ --------- -- ------------ -- --- ---- -----<br>------ ---- ---- ------ ------ ------- --- ----- ---------<br>---- --- -------- -------- --- --- -- ------- --- --- -----<br>-- --- ------ ------- --- --- -------- ---- --------- --<br>---------- -- -------- ----------------,296215,296213.5,295645.338,295656.89999997616,295661.89,296228.475,,4,to
screen,html.Screen,2_3_1_0_1_5,2022-02-15T15:56:32.757Z,,,,,,,,,,,,,,,,,11,,,,,,,,,,,,,,542.0250000000233,,response,,,,4,A,,,,,,Space,keypress(Space),,,,silence,,,,----- -- ---- --- -- the -------- ------------ ---------- --<br>- ------- ------ --------- -- ------------ -- --- ---- -----<br>------ ---- ---- ------ ------ ------- --- ----- ---------<br>---- --- -------- -------- --- --- -- ------- --- --- -----<br>-- --- ------ ------- --- --- -------- ---- --------- --<br>---------- -- -------- ----------------,296772.59999996424,296770.5,296211.874,296215.3000000119,296228.475,296778.411,,5,the
screen,html.Screen,2_3_1_0_1_6,2022-02-15T15:56:33.296Z,,,,,,,,,,,,,,,,,11,,,,,,,,,,,,,,530.6889999642153,,response,,,,4,A,,,,,,Space,keypress(Space),,,,silence,,,,----- -- ---- --- -- --- island's ------------ ---------- --<br>- ------- ------ --------- -- ------------ -- --- ---- -----<br>------ ---- ---- ------ ------ ------- --- ----- ---------<br>---- --- -------- -------- --- --- -- ------- --- --- -----<br>-- --- ------ ------- --- --- -------- ---- --------- --<br>---------- -- -------- ----------------,297311.1999999881,297309.09999996424,296761.856,296772.89999997616,296778.411,297328.6,,6,island's
screen,html.Screen,2_3_1_0_1_7,2022-02-15T15:56:33.847Z,,,,,,,,,,,,,,,,,11,,,,,,,,,,,,,,532.2999999761814,,response,,,,4,A,,,,,,Space,keypress(Space),,,,silence,,,,"----- -- ---- --- -- --- -------- inhabitants, ---------- --<br>- ------- ------ --------- -- ------------ -- --- ---- -----<br>------ ---- ---- ------ ------ ------- --- ----- ---------<br>---- --- -------- -------- --- --- -- ------- --- --- -----<br>-- --- ------ ------- --- --- -------- ---- --------- --<br>---------- -- -------- ----------------",297862.59999996424,297860.89999997616,297311.73,297311.39999997616,297328.6,297878.435,,7,"inhabitants,"
screen,html.Screen,2_3_1_0_1_8,2022-02-15T15:56:35.892Z,,,,,,,,,,,,,,,,,11,,,,,,,,,,,,,,2027.1649999642395,,response,,,,4,A,,,,,,Space,keypress(Space),,,,silence,,,,----- -- ---- --- -- --- -------- ------------ Rongorongo --<br>- ------- ------ --------- -- ------------ -- --- ---- -----<br>------ ---- ---- ------ ------ ------- --- ----- ---------<br>---- --- -------- -------- --- --- -- ------- --- --- -----<br>-- --- ------ ------- --- --- -------- ---- --------- --<br>---------- -- -------- ----------------,299907.39999997616,299905.59999996424,297861.574,297862.8000000119,297878.435,299911.062,,8,Rongorongo
screen,html.Screen,2_3_1_0_1_9,2022-02-15T15:56:36.586Z,,,,,,,,,,,,,,,,,11,,,,,,,,,,,,,,688.037999964261,,response,,,,4,A,,,,,,Space,keypress(Space),,,,silence,,,,----- -- ---- --- -- --- -------- ------------ ---------- is<br>- ------- ------ --------- -- ------------ -- --- ---- -----<br>------ ---- ---- ------ ------ ------- --- ----- ---------<br>---- --- -------- -------- --- --- -- ------- --- --- -----<br>-- --- ------ ------- --- --- -------- ---- --------- --<br>---------- -- -------- ----------------,300601.6999999881,300599.09999996424,299894.927,299907.6999999881,299911.062,300611.457,,9,is
screen,html.Screen,2_3_1_0_1_10,2022-02-15T15:56:37.083Z,,,,,,,,,,,,,,,,,11,,,,,,,,,,,,,,484.5430000000051,,response,,,,4,A,,,,,,Space,keypress(Space),,,,silence,,,,----- -- ---- --- -- --- -------- ------------ ---------- --<br>a ------- ------ --------- -- ------------ -- --- ---- -----<br>------ ---- ---- ------ ------ ------- --- ----- ---------<br>---- --- -------- -------- --- --- -- ------- --- --- -----<br>-- --- ------ ------- --- --- -------- ---- --------- --<br>---------- -- -------- ----------------,301097.89999997616,301096,300594.57,300601.89999997616,300611.457,301111.042,,10,a
screen,html.Screen,2_3_1_0_1_11,2022-02-15T15:56:37.682Z,,,,,,,,,,,,,,,,,11,,,,,,,,,,,,,,584.5579999642214,,response,,,,4,A,,,,,,Space,keypress(Space),,,,silence,,,,----- -- ---- --- -- --- -------- ------------ ---------- --<br>- writing ------ --------- -- ------------ -- --- ---- -----<br>------ ---- ---- ------ ------ ------- --- ----- ---------<br>---- --- -------- -------- --- --- -- ------- --- --- -----<br>-- --- ------ ------- --- --- -------- ---- --------- --<br>---------- -- -------- ----------------,301697.39999997616,301695.59999996424,301094.206,301098.1999999881,301111.042,301710.738,,11,writing
screen,html.Screen,2_3_1_0_1_12,2022-02-15T15:56:38.199Z,,,,,,,,,,,,,,,,,11,,,,,,,,,,,,,,500.96199998806696,,response,,,,4,A,,,,,,Space,keypress(Space),,,,silence,,,,----- -- ---- --- -- --- -------- ------------ ---------- --<br>- ------- system --------- -- ------------ -- --- ---- -----<br>------ ---- ---- ------ ------ ------- --- ----- ---------<br>---- --- -------- -------- --- --- -- ------- --- --- -----<br>-- --- ------ ------- --- --- -------- ---- --------- --<br>---------- -- -------- ----------------,302214.1999999881,302211.6999999881,301694.398,301697.6999999881,301710.738,302227.522,,12,system
screen,html.Screen,2_3_1_0_1_13,2022-02-15T15:56:38.733Z,,,,,,,,,,,,,,,,,11,,,,,,,,,,,,,,518.57799996424,,response,,,,4,A,,,,,,Space,keypress(Space),,,,silence,,,,----- -- ---- --- -- --- -------- ------------ ---------- --<br>- ------- ------ comprised -- ------------ -- --- ---- -----<br>------ ---- ---- ------ ------ ------- --- ----- ---------<br>---- --- -------- -------- --- --- -- ------- --- --- -----<br>-- --- ------ ------- --- --- -------- ---- --------- --<br>---------- -- -------- ----------------,302748.1999999881,302746.09999996424,302210.755,302214.5,302227.522,302760.571,,13,comprised
screen,html.Screen,2_3_1_0_1_14,2022-02-15T15:56:39.310Z,,,,,,,,,,,,,,,,,11,,,,,,,,,,,,,,563.0289999642409,,response,,,,4,A,,,,,,Space,keypress(Space),,,,silence,,,,----- -- ---- --- -- --- -------- ------------ ---------- --<br>- ------- ------ --------- of ------------ -- --- ---- -----<br>------ ---- ---- ------ ------ ------- --- ----- ---------<br>---- --- -------- -------- --- --- -- ------- --- --- -----<br>-- --- ------ ------- --- --- -------- ---- --------- --<br>---------- -- -------- ----------------,303325.3000000119,303323.59999996424,302744.274,302748.8000000119,302760.571,303359.627,,14,of
screen,html.Screen,2_3_1_0_1_15,2022-02-15T15:56:39.824Z,,,,,,,,,,,,,,,,,11,,,,,,,,,,,,,,477.27299997617956,,response,,,,4,A,,,,,,Space,keypress(Space),,,,silence,,,,----- -- ---- --- -- --- -------- ------------ ---------- --<br>- ------- ------ --------- -- pictographs. -- --- ---- -----<br>------ ---- ---- ------ ------ ------- --- ----- ---------<br>---- --- -------- -------- --- --- -- ------- --- --- -----<br>-- --- ------ ------- --- --- -------- ---- --------- --<br>---------- -- -------- ----------------,303839,303836.89999997616,303310.524,303325.59999996424,303359.627,303843.632,,15,pictographs.
screen,html.Screen,2_3_1_0_1_16,2022-02-15T15:56:40.602Z,,,,,,,,,,,,,,,,,11,,,,,,,,,,,,,,770.7679999761749,,response,,,,4,A,,,,,,Space,keypress(Space),,,,silence,,,,----- -- ---- --- -- --- -------- ------------ ---------- --<br>- ------- ------ --------- -- ------------ It --- ---- -----<br>------ ---- ---- ------ ------ ------- --- ----- ---------<br>---- --- -------- -------- --- --- -- ------- --- --- -----<br>-- --- ------ ------- --- --- -------- ---- --------- --<br>---------- -- -------- ----------------,304617.39999997616,304614.39999997616,303827.213,303839.3000000119,303843.632,304626.797,,16,It
screen,html.Screen,2_3_1_0_1_17,2022-02-15T15:56:41.325Z,,,,,,,,,,,,,,,,,11,,,,,,,,,,,,,,711.9029999880586,,response,,,,4,A,,,,,,Space,keypress(Space),,,,silence,,,,----- -- ---- --- -- --- -------- ------------ ---------- --<br>- ------- ------ --------- -- ------------ -- has ---- -----<br>------ ---- ---- ------ ------ ------- --- ----- ---------<br>---- --- -------- -------- --- --- -- ------- --- --- -----<br>-- --- ------ ------- --- --- -------- ---- --------- --<br>---------- -- -------- ----------------,305340.3000000119,305338.6999999881,304610.4,304617.6999999881,304626.797,305343.324,,17,has
screen,html.Screen,2_3_1_0_1_18,2022-02-15T15:56:41.903Z,,,,,,,,,,,,,,,,,11,,,,,,,,,,,,,,573.5759999761358,,response,,,,4,A,,,,,,Space,keypress(Space),,,,silence,,,,----- -- ---- --- -- --- -------- ------------ ---------- --<br>- ------- ------ --------- -- ------------ -- --- been -----<br>------ ---- ---- ------ ------ ------- --- ----- ---------<br>---- --- -------- -------- --- --- -- ------- --- --- -----<br>-- --- ------ ------- --- --- -------- ---- --------- --<br>---------- -- -------- ----------------,305918.39999997616,305916.89999997616,305326.734,305340.59999996424,305343.324,305926.509,,18,been
screen,html.Screen,2_3_1_0_1_19,2022-02-15T15:56:42.464Z,,,,,,,,,,,,,,,,,11,,,,,,,,,,,,,,551.690999988059,,response,,,,4,A,,,,,,Space,keypress(Space),,,,silence,,,,----- -- ---- --- -- --- -------- ------------ ---------- --<br>- ------- ------ --------- -- ------------ -- --- ---- found<br>------ ---- ---- ------ ------ ------- --- ----- ---------<br>---- --- -------- -------- --- --- -- ------- --- --- -----<br>-- --- ------ ------- --- --- -------- ---- --------- --<br>---------- -- -------- ----------------,306479.6999999881,306478.1999999881,305910.204,305918.6999999881,305926.509,306493.384,,19,found
screen,html.Screen,2_3_1_0_1_20,2022-02-15T15:56:42.886Z,,,,,,,,,,,,,,,,,11,,,,,,,,,,,,,,406.31599998805905,,response,,,,4,A,,,,,,Space,keypress(Space),,,,silence,,,,----- -- ---- --- -- --- -------- ------------ ---------- --<br>- ------- ------ --------- -- ------------ -- --- ---- -----<br>carved ---- ---- ------ ------ ------- --- ----- ---------<br>---- --- -------- -------- --- --- -- ------- --- --- -----<br>-- --- ------ ------- --- --- -------- ---- --------- --<br>---------- -- -------- ----------------,306901.6999999881,306899.6999999881,306476.547,306480,306493.384,306909.814,,20,carved
screen,html.Screen,2_3_1_0_1_21,2022-02-15T15:56:43.477Z,,,,,,,,,,,,,,,,,11,,,,,,,,,,,,,,580.385999988066,,response,,,,4,A,,,,,,Space,keypress(Space),,,,silence,,,,----- -- ---- --- -- --- -------- ------------ ---------- --<br>- ------- ------ --------- -- ------------ -- --- ---- -----<br>------ into ---- ------ ------ ------- --- ----- ---------<br>---- --- -------- -------- --- --- -- ------- --- --- -----<br>-- --- ------ ------- --- --- -------- ---- --------- --<br>---------- -- -------- ----------------,307491.8000000119,307490.1999999881,306893.049,306902,306909.814,307509.534,,21,into
screen,html.Screen,2_3_1_0_1_22,2022-02-15T15:56:43.932Z,,,,,,,,,,,,,,,,,11,,,,,,,,,,,,,,436.5659999642521,,response,,,,4,A,,,,,,Space,keypress(Space),,,,silence,,,,----- -- ---- --- -- --- -------- ------------ ---------- --<br>- ------- ------ --------- -- ------------ -- --- ---- -----<br>------ ---- many ------ ------ ------- --- ----- ---------<br>---- --- -------- -------- --- --- -- ------- --- --- -----<br>-- --- ------ ------- --- --- -------- ---- --------- --<br>---------- -- -------- ----------------,307947.6999999881,307946.09999996424,307476.571,307492,307509.534,307959.579,,22,many
screen,html.Screen,2_3_1_0_1_23,2022-02-15T15:56:44.483Z,,,,,,,,,,,,,,,,,11,,,,,,,,,,,,,,536.6209999880521,,response,,,,4,A,,,,,,Space,keypress(Space),,,,silence,,,,----- -- ---- --- -- --- -------- ------------ ---------- --<br>- ------- ------ --------- -- ------------ -- --- ---- -----<br>------ ---- ---- oblong ------ ------- --- ----- ---------<br>---- --- -------- -------- --- --- -- ------- --- --- -----<br>-- --- ------ ------- --- --- -------- ---- --------- --<br>---------- -- -------- ----------------,308498.39999997616,308496.1999999881,307942.849,307948,307959.579,308509.286,,23,oblong
screen,html.Screen,2_3_1_0_1_24,2022-02-15T15:56:44.976Z,,,,,,,,,,,,,,,,,11,,,,,,,,,,,,,,480.3139999642153,,response,,,,4,A,,,,,,Space,keypress(Space),,,,silence,,,,----- -- ---- --- -- --- -------- ------------ ---------- --<br>- ------- ------ --------- -- ------------ -- --- ---- -----<br>------ ---- ---- ------ wooden ------- --- ----- ---------<br>---- --- -------- -------- --- --- -- ------- --- --- -----<br>-- --- ------ ------- --- --- -------- ---- --------- --<br>---------- -- -------- ----------------,308991.39999997616,308989.59999996424,308492.993,308498.59999996424,308509.286,309009.244,,24,wooden
screen,html.Screen,2_3_1_0_1_25,2022-02-15T15:56:45.521Z,,,,,,,,,,,,,,,,,11,,,,,,,,,,,,,,524.455999988073,,response,,,,4,A,,,,,,Space,keypress(Space),,,,silence,,,,----- -- ---- --- -- --- -------- ------------ ---------- --<br>- ------- ------ --------- -- ------------ -- --- ---- -----<br>------ ---- ---- ------ ------ tablets --- ----- ---------<br>---- --- -------- -------- --- --- -- ------- --- --- -----<br>-- --- ------ ------- --- --- -------- ---- --------- --<br>---------- -- -------- ----------------,309536.09999996424,309533.6999999881,308976.036,308991.59999996424,309009.244,309542.467,,25,tablets
screen,html.Screen,2_3_1_0_1_26,2022-02-15T15:56:46.096Z,,,,,,,,,,,,,,,,,11,,,,,,,,,,,,,,566.932999976154,,response,,,,4,A,,,,,,Space,keypress(Space),,,,silence,,,,----- -- ---- --- -- --- -------- ------------ ---------- --<br>- ------- ------ --------- -- ------------ -- --- ---- -----<br>------ ---- ---- ------ ------ ------- and ----- ---------<br>---- --- -------- -------- --- --- -- ------- --- --- -----<br>-- --- ------ ------- --- --- -------- ---- --------- --<br>---------- -- -------- ----------------,310111,310109.39999997616,309526.078,309536.39999997616,309542.467,310125.939,,26,and
screen,html.Screen,2_3_1_0_1_27,2022-02-15T15:56:46.707Z,,,,,,,,,,,,,,,,,11,,,,,,,,,,,,,,594.560999999987,,response,,,,4,A,,,,,,Space,keypress(Space),,,,silence,,,,----- -- ---- --- -- --- -------- ------------ ---------- --<br>- ------- ------ --------- -- ------------ -- --- ---- -----<br>------ ---- ---- ------ ------ ------- --- other ---------<br>---- --- -------- -------- --- --- -- ------- --- --- -----<br>-- --- ------ ------- --- --- -------- ---- --------- --<br>---------- -- -------- ----------------,310722.3000000119,310720.5,310109.349,310111.39999997616,310125.939,310725.603,,27,other
screen,html.Screen,2_3_1_0_1_28,2022-02-15T15:56:47.207Z,,,,,,,,,,,,,,,,,11,,,,,,,,,,,,,,494.5969999880763,,response,,,,4,A,,,,,,Space,keypress(Space),,,,silence,,,,----- -- ---- --- -- --- -------- ------------ ---------- --<br>- ------- ------ --------- -- ------------ -- --- ---- -----<br>------ ---- ---- ------ ------ ------- --- ----- artifacts<br>---- --- -------- -------- --- --- -- ------- --- --- -----<br>-- --- ------ ------- --- --- -------- ---- --------- --<br>---------- -- -------- ----------------,311222,311220.1999999881,310709.15,310722.59999996424,310725.603,311225.575,,28,artifacts
screen,html.Screen,2_3_1_0_1_29,2022-02-15T15:56:48.056Z,,,,,,,,,,,,,,,,,11,,,,,,,,,,,,,,844.4249999999884,,response,,,,4,A,,,,,,Space,keypress(Space),,,,silence,,,,----- -- ---- --- -- --- -------- ------------ ---------- --<br>- ------- ------ --------- -- ------------ -- --- ---- -----<br>------ ---- ---- ------ ------ ------- --- ----- ---------<br>from --- -------- -------- --- --- -- ------- --- --- -----<br>-- --- ------ ------- --- --- -------- ---- --------- --<br>---------- -- -------- ----------------,312071.59999996424,312070,311209.103,311222.1999999881,311225.575,312075.356,,29,from
screen,html.Screen,2_3_1_0_1_30,2022-02-15T15:56:48.525Z,,,,,,,,,,,,,,,,,11,,,,,,,,,,,,,,463.44400001189206,,response,,,,4,A,,,,,,Space,keypress(Space),,,,silence,,,,----- -- ---- --- -- --- -------- ------------ ---------- --<br>- ------- ------ --------- -- ------------ -- --- ---- -----<br>------ ---- ---- ------ ------ ------- --- ----- ---------<br>---- the -------- -------- --- --- -- ------- --- --- -----<br>-- --- ------ ------- --- --- -------- ---- --------- --<br>---------- -- -------- ----------------,312540.59999996424,312538.8000000119,312058.768,312072,312075.356,312572.876,,30,the
screen,html.Screen,2_3_1_0_1_31,2022-02-15T15:56:49.072Z,,,,,,,,,,,,,,,,,11,,,,,,,,,,,,,,512.4240000119316,,response,,,,4,A,,,,,,Space,keypress(Space),,,,silence,,,,----- -- ---- --- -- --- -------- ------------ ---------- --<br>- ------- ------ --------- -- ------------ -- --- ---- -----<br>------ ---- ---- ------ ------ ------- --- ----- ---------<br>---- --- island's -------- --- --- -- ------- --- --- -----<br>-- --- ------ ------- --- --- -------- ---- --------- --<br>---------- -- -------- ----------------,313087.3000000119,313085.3000000119,312525.685,312540.89999997616,312572.876,313091.8,,31,island's
screen,html.Screen,2_3_1_0_1_32,2022-02-15T15:56:49.493Z,,,,,,,,,,,,,,,,,11,,,,,,,,,,,,,,415.0999999761698,,response,,,,4,A,,,,,,Space,keypress(Space),,,,silence,,,,----- -- ---- --- -- --- -------- ------------ ---------- --<br>- ------- ------ --------- -- ------------ -- --- ---- -----<br>------ ---- ---- ------ ------ ------- --- ----- ---------<br>---- --- -------- history. --- --- -- ------- --- --- -----<br>-- --- ------ ------- --- --- -------- ---- --------- --<br>---------- -- -------- ----------------,313508.3000000119,313506.89999997616,313075.385,313087.59999996424,313091.8,313525.264,,32,history.
screen,html.Screen,2_3_1_0_1_33,2022-02-15T15:56:50.469Z,,,,,,,,,,,,,,,,,11,,,,,,,,,,,,,,957.6359999761335,,response,,,,4,A,,,,,,Space,keypress(Space),,,,silence,,,,----- -- ---- --- -- --- -------- ------------ ---------- --<br>- ------- ------ --------- -- ------------ -- --- ---- -----<br>------ ---- ---- ------ ------ ------- --- ----- ---------<br>---- --- -------- -------- The --- -- ------- --- --- -----<br>-- --- ------ ------- --- --- -------- ---- --------- --<br>---------- -- -------- ----------------,314484.39999997616,314482.89999997616,313508.443,313509.1999999881,313525.264,314491.519,,33,The
screen,html.Screen,2_3_1_0_1_34,2022-02-15T15:56:51.010Z,,,,,,,,,,,,,,,,,11,,,,,,,,,,,,,,532.1809999881079,,response,,,,4,A,,,,,,Space,keypress(Space),,,,silence,,,,----- -- ---- --- -- --- -------- ------------ ---------- --<br>- ------- ------ --------- -- ------------ -- --- ---- -----<br>------ ---- ---- ------ ------ ------- --- ----- ---------<br>---- --- -------- -------- --- art -- ------- --- --- -----<br>-- --- ------ ------- --- --- -------- ---- --------- --<br>---------- -- -------- ----------------,315025.1999999881,315023.6999999881,314474.99,314484.6999999881,314491.519,315041.537,,34,art
screen,html.Screen,2_3_1_0_1_35,2022-02-15T15:56:51.470Z,,,,,,,,,,,,,,,,,11,,,,,,,,,,,,,,442.26300001190975,,response,,,,4,A,,,,,,Space,keypress(Space),,,,silence,,,,----- -- ---- --- -- --- -------- ------------ ---------- --<br>- ------- ------ --------- -- ------------ -- --- ---- -----<br>------ ---- ---- ------ ------ ------- --- ----- ---------<br>---- --- -------- -------- --- --- of ------- --- --- -----<br>-- --- ------ ------- --- --- -------- ---- --------- --<br>---------- -- -------- ----------------,315485.6999999881,315483.8000000119,315025.048,315025.5,315041.537,315491.295,,35,of
screen,html.Screen,2_3_1_0_1_36,2022-02-15T15:56:51.938Z,,,,,,,,,,,,,,,,,11,,,,,,,,,,,,,,460.8049999642535,,response,,,,4,A,,,,,,Space,keypress(Space),,,,silence,,,,----- -- ---- --- -- --- -------- ------------ ---------- --<br>- ------- ------ --------- -- ------------ -- --- ---- -----<br>------ ---- ---- ------ ------ ------- --- ----- ---------<br>---- --- -------- -------- --- --- -- writing --- --- -----<br>-- --- ------ ------- --- --- -------- ---- --------- --<br>---------- -- -------- ----------------,315953.6999999881,315952.09999996424,315474.702,315486,315491.295,315957.869,,36,writing
screen,html.Screen,2_3_1_0_1_37,2022-02-15T15:56:52.465Z,,,,,,,,,,,,,,,,,11,,,,,,,,,,,,,,521.0309999761521,,response,,,,4,A,,,,,,Space,keypress(Space),,,,silence,,,,----- -- ---- --- -- --- -------- ------------ ---------- --<br>- ------- ------ --------- -- ------------ -- --- ---- -----<br>------ ---- ---- ------ ------ ------- --- ----- ---------<br>---- --- -------- -------- --- --- -- ------- was --- -----<br>-- --- ------ ------- --- --- -------- ---- --------- --<br>---------- -- -------- ----------------,316480.39999997616,316478.89999997616,315941.544,315954,315957.869,316491.04,,37,was
screen,html.Screen,2_3_1_0_1_38,2022-02-15T15:56:52.980Z,,,,,,,,,,,,,,,,,11,,,,,,,,,,,,,,502.2600000119419,,response,,,,4,A,,,,,,Space,keypress(Space),,,,silence,,,,----- -- ---- --- -- --- -------- ------------ ---------- --<br>- ------- ------ --------- -- ------------ -- --- ---- -----<br>------ ---- ---- ------ ------ ------- --- ----- ---------<br>---- --- -------- -------- --- --- -- ------- --- not -----<br>-- --- ------ ------- --- --- -------- ---- --------- --<br>---------- -- -------- ----------------,316994.8000000119,316993.3000000119,316474.607,316480.6999999881,316491.04,317007.875,,38,not
screen,html.Screen,2_3_1_0_1_39,2022-02-15T15:56:53.507Z,,,,,,,,,,,,,,,,,11,,,,,,,,,,,,,,513.3249999880791,,response,,,,4,A,,,,,,Space,keypress(Space),,,,silence,,,,----- -- ---- --- -- --- -------- ------------ ---------- --<br>- ------- ------ --------- -- ------------ -- --- ---- -----<br>------ ---- ---- ------ ------ ------- --- ----- ---------<br>---- --- -------- -------- --- --- -- ------- --- --- known<br>-- --- ------ ------- --- --- -------- ---- --------- --<br>---------- -- -------- ----------------,317522.8000000119,317521.1999999881,316991.31,316995.1999999881,317007.875,317554.468,,39,known
