sender,sender_type,sender_id,timestamp,meta,,Blues,Classical,Country,Dance,Electronic,Folk,Gospel,Hip-Hop,Jazz,Latin,Musical/Film,New-age,Pop,Prolific_id,Provo_ID,R&B,Rap,Reggae,Religious,Rock,Soul,Swing,Traditional,age,artist_name,correct,correctResponse,distraction,duration,education,ended_on,familiarity,gender,headphone_check_performance,item,list,music_frequency,offensiveness,pleasantness,position_correct,preference,response,response_action,snippet_file,song_name,song_rating,sound,stimulus_1,stimulus_2,stimulus_3,text,time_commit,time_end,time_render,time_run,time_show,time_switch,url,word,word_ID
Prolific ID,html.Form,0,2022-02-15T13:03:18.689Z,"{""labjs_version"":""20.2.2"",""labjs_build"":{""flavor"":""production"",""commit"":""a25486e0c714a0ae2ce03ff94b7bb6896854dcfa""},""location"":""https://run.pavlovia.org/mvasilev/prolific2_music_e/"",""userAgent"":""Mozilla/5.0 (Windows NT 10.0; Win64; x64) AppleWebKit/537.36 (KHTML, like Gecko) Chrome/98.0.4758.102 Safari/537.36"",""platform"":""Win32"",""language"":""en-GB"",""locale"":""en-GB"",""timeZone"":""Europe/London"",""timezoneOffset"":0,""screen_width"":1536,""screen_height"":864,""scroll_width"":1536,""scroll_height"":706,""window_innerWidth"":1536,""window_innerHeight"":754,""devicePixelRatio"":1.25}",,,,,,,,,,,,,,,5ec2d656c999700e29f63932,,,,,,,,,,,,,,,10909.658999976158,,form submission,,,,,,,,,,,,,,,,,,,,,15914.599999964237,15913.899999976158,4987.62,4991.899999976158,5004.241,15916.373,{},,
Introduction,html.Screen,1_0,2022-02-15T13:03:28.616Z,,,,,,,,,,,,,,,,,,,,,,,,,,,,,,,9920.627,,response,,,,,,,,,,,continue,click button,,,,,,,,,25841,25837,15899.784,15915.199999988079,15916.373,25844.114,,,
Volume calibration,html.Screen,1_1,2022-02-15T13:04:18.669Z,,,,,,,,,,,,,,,,,,,,,,,,,,,,,,,50046.386,,response,,,,,,,,,,,continue,click button,,,,,,,,,75894.59999996424,75890.5,25827.423,25841.19999998808,25844.114,75899.747,,,
Task instructions,html.Screen,1_2,2022-02-15T13:04:30.651Z,,,,,,,,,,,,,,,,,,,,,,,,,,,,,,,11975.952999988076,,response,,,,,,,,,,,continue,click button,,,,,,,,,87876.69999998808,87875.69999998808,75883.088,75894.69999998808,75899.747,87879.869,,,
Sounds,html.Screen,1_3_0_0,2022-02-15T13:04:34.896Z,,,,,,,,,,,,,,,,,,,,,,,,,,,,,,,4254.829999999987,,timeout,,,,,,,,,1,,,,,,,,S,O,I,,92121.80000001192,92117.872,87863.628,87877,87879.869,92134.699,,,
Judgement,html.Screen,1_3_0_1,2022-02-15T13:04:36.323Z,,,,,,,,,,,,,,,,,,,,,,,,,,,,true,1,,1412.0009999880858,,response,,,,,,,,,1,,1,click #choice-1,,,,,S,O,I,,93548,93546.69999998808,92117.872,92122,92134.699,93552.667,,,
Trial,flow.Sequence,1_3_0,2022-02-15T13:04:36.323Z,,,,,,,,,,,,,,,,,,,,,,,,,,,,,,,5666.830999988073,,completion,,,,,,,,,1,,,,,,,,S,O,I,,93548.5,93546.69999998808,87863.628,87877,87879.869,93552.667,,,
Sounds,html.Screen,1_3_1_0,2022-02-15T13:04:40.566Z,,,,,,,,,,,,,,,,,,,,,,,,,,,,,,,4254.971000000005,,timeout,,,,,,,,,3,,,,,,,,O,I,S,,97791.80000001192,97790.832,93536.21,93548.89999997616,93552.667,97807.638,,,
Judgement,html.Screen,1_3_1_1,2022-02-15T13:04:41.557Z,,,,,,,,,,,,,,,,,,,,,,,,,,,,true,3,,973.0619999880728,,response,,,,,,,,,3,,3,click #choice-3,,,,,O,I,S,,98782,98780.69999998808,97790.832,97792,97807.638,98792.245,,,
Trial,flow.Sequence,1_3_1,2022-02-15T13:04:41.557Z,,,,,,,,,,,,,,,,,,,,,,,,,,,,,,,5228.032999988078,,completion,,,,,,,,,3,,,,,,,,O,I,S,,98782.30000001192,98780.69999998808,93536.21,93548.69999998808,93552.667,98792.245,,,
Sounds,html.Screen,1_3_2_0,2022-02-15T13:04:45.807Z,,,,,,,,,,,,,,,,,,,,,,,,,,,,,,,4254.298999999999,,timeout,,,,,,,,,2,,,,,,,,O,S,I,,103031.89999997616,103030.599,98775.467,98782.59999996424,98792.245,103046.544,,,
Judgement,html.Screen,1_3_2_1,2022-02-15T13:04:46.757Z,,,,,,,,,,,,,,,,,,,,,,,,,,,,true,2,,934.7560000119265,,response,,,,,,,,,2,,2,click #choice-2,,,,,O,S,I,,103982.5,103981.30000001192,103030.599,103032.09999996424,103046.544,103997.654,,,
Trial,flow.Sequence,1_3_2,2022-02-15T13:04:46.758Z,,,,,,,,,,,,,,,,,,,,,,,,,,,,,,,5189.055000011926,,completion,,,,,,,,,2,,,,,,,,O,S,I,,103982.80000001192,103981.30000001192,98775.467,98782.5,98792.245,103997.654,,,
Sounds,html.Screen,1_3_3_0,2022-02-15T13:04:51.012Z,,,,,,,,,,,,,,,,,,,,,,,,,,,,,,,4255,,timeout,,,,,,,,,1,,,,,,,,S,I,O,,108237.59999996424,108235.984,103981.164,103983.09999996424,103997.654,108252.654,,,
Judgement,html.Screen,1_3_3_1,2022-02-15T13:04:51.895Z,,,,,,,,,,,,,,,,,,,,,,,,,,,,true,1,,867.0459999880841,,response,,,,,,,,,1,,1,click #choice-1,,,,,S,I,O,,109120.80000001192,109119.69999998808,108235.984,108237.80000001192,108252.654,109136.825,,,
Trial,flow.Sequence,1_3_3,2022-02-15T13:04:51.896Z,,,,,,,,,,,,,,,,,,,,,,,,,,,,,,,5122.045999988084,,completion,,,,,,,,,1,,,,,,,,S,I,O,,109121.09999996424,109119.69999998808,103981.164,103983,103997.654,109136.825,,,
Sounds,html.Screen,1_3_4_0,2022-02-15T13:04:56.150Z,,,,,,,,,,,,,,,,,,,,,,,,,,,,,,,4254.824000000008,,timeout,,,,,,,,,3,,,,,,,,I,O,S,,113375.69999998808,113375.013,109119.987,109121.19999998808,109136.825,113391.649,,,
Judgement,html.Screen,1_3_4_1,2022-02-15T13:04:57.279Z,,,,,,,,,,,,,,,,,,,,,,,,,,,,true,3,,1111.151000011916,,response,,,,,,,,,3,,3,click #choice-3,,,,,I,O,S,,114504,114502.80000001192,113375.013,113375.89999997616,113391.649,114509.359,,,
Trial,flow.Sequence,1_3_4,2022-02-15T13:04:57.279Z,,,,,,,,,,,,,,,,,,,,,,,,,,,,,,,5365.975000011924,,completion,,,,,,,,,3,,,,,,,,I,O,S,,114504.19999998808,114502.80000001192,109119.987,109121.19999998808,109136.825,114509.359,,,
Sounds,html.Screen,1_3_5_0,2022-02-15T13:05:01.523Z,,,,,,,,,,,,,,,,,,,,,,,,,,,,,,,4255.312000000005,,timeout,,,,,,,,,2,,,,,,,,I,S,O,,118748.09999996424,118747.362,114492.743,114504.39999997616,114509.359,118764.671,,,
Judgement,html.Screen,1_3_5_1,2022-02-15T13:05:02.470Z,,,,,,,,,,,,,,,,,,,,,,,,,,,,true,2,,928.8289999999979,,response,,,,,,,,,2,,2,click #choice-2,,,,,I,S,O,,119694.89999997616,119693.5,118747.362,118748.19999998808,118764.671,119698.395,,,
Trial,flow.Sequence,1_3_5,2022-02-15T13:05:02.470Z,,,,,,,,,,,,,,,,,,,,,,,,,,,,,,,5184.141000000003,,completion,,,,,,,,,2,,,,,,,,I,S,O,,119695.09999996424,119693.5,114492.743,114504.30000001192,114509.359,119698.395,,,
Task,flow.Loop,1_3,2022-02-15T13:05:02.476Z,,,,,,,,,,,,,,,,,,,,,,,,,,,,,,,31813.630999999994,,completion,,,1,,,,,,,,,,,,,,,,,,119701.19999998808,119693.5,87863.628,87876.89999997616,87879.869,119698.395,,,
Trap,html.Screen,1_4,2022-02-15T13:05:02.477Z,,,,,,,,,,,,,,,,,,,,,,,,,,,,,,,NaN,,skipped,,,,,,,,,,,,,,,,,,,,,119701.80000001192,119693.5,,119701.80000001192,,119698.395,,,
Thanks,html.Screen,1_5,2022-02-15T13:05:07.936Z,,,,,,,,,,,,,,,,,,,,,,,,,,,,,,,5462.504999976154,,response,,,,,,,,,,,continue,click button,,,,,,,,,125162,125160.89999997616,119681.939,119701.89999997616,119698.395,128358.016,,,
Headphone screening,flow.Sequence,1,2022-02-15T13:05:07.937Z,,,,,,,,,,,,,,,,,,,,,,,,,,,,,,,109244.52699997617,,completion,,,,,,,,,,,,,,,,,,,,,125162.19999998808,125160.89999997616,15899.784,15915.099999964237,15916.373,128358.016,,,
Instructions,html.Page,2_0,2022-02-15T13:05:30.477Z,,,,,,,,,,,,,,,,,,,,,,,,,,,,,,,19344.483999999997,,form submission,,,,,,,,,,,,,,,,,,,,,147703,147702.5,128341.468,128351,128358.016,147713.295,,,
Holding screen,html.Screen,2_1_0_0,2022-02-15T13:05:40.466Z,,,,,,,,,,,,,,,,,,,,,,,,,,,,,,,9994.07699999999,,timeout,,,,,,,,,,,,,,,,,,,,,157691.80000001192,157691.068,147696.237,147703.19999998808,147713.295,157707.372,,,
screen,html.Screen,2_1_0_1_0,2022-02-15T13:05:42.490Z,,,,,,,,,,,,,,,,,53,,,,,,,,,,,,,,2003.928000011918,,response,,,,99,,,,,,,Space,keypress(Space),,,,,,,,When -- ----- -- ------ - ------- --- ----------<br>------------- ------ ------ ---- ---- ------- ----- -- ----<br>-------- ------- -- ---------- --- - --- ----- ----- ----<br>---- --- --- ----- --- ---- ---- ------- ----- ---- -------<br>--- --- -- ----- -- --- ---- -- --- ---- -- ------ ------<br>--- ----- -- ----,159715.30000001192,159711.30000001192,157691.068,157692.09999996424,157707.372,159726.64,,0,When
screen,html.Screen,2_1_0_1_1,2022-02-15T13:05:43.190Z,,,,,,,,,,,,,,,,,53,,,,,,,,,,,,,,687.859999999986,,response,,,,99,,,,,,,Space,keypress(Space),,,,,,,,---- it ----- -- ------ - ------- --- ----------<br>------------- ------ ------ ---- ---- ------- ----- -- ----<br>-------- ------- -- ---------- --- - --- ----- ----- ----<br>---- --- --- ----- --- ---- ---- ------- ----- ---- -------<br>--- --- -- ----- -- --- ---- -- --- ---- -- ------ ------<br>--- ----- -- ----,160415.39999997616,160414.5,159709.852,159715.5,159726.64,160427.414,,1,it
screen,html.Screen,2_1_0_1_2,2022-02-15T13:05:43.953Z,,,,,,,,,,,,,,,,,53,,,,,,,,,,,,,,749.9859999761684,,response,,,,99,,,,,,,Space,keypress(Space),,,,,,,,---- -- comes -- ------ - ------- --- ----------<br>------------- ------ ------ ---- ---- ------- ----- -- ----<br>-------- ------- -- ---------- --- - --- ----- ----- ----<br>---- --- --- ----- --- ---- ---- ------- ----- ---- -------<br>--- --- -- ----- -- --- ---- -- --- ---- -- ------ ------<br>--- ----- -- ----,161178.19999998808,161177.39999997616,160410.723,160415.59999996424,160427.414,161194.861,,2,comes
screen,html.Screen,2_1_0_1_3,2022-02-15T13:05:44.454Z,,,,,,,,,,,,,,,,,53,,,,,,,,,,,,,,483.6389999999956,,response,,,,99,,,,,,,Space,keypress(Space),,,,,,,,---- -- ----- to ------ - ------- --- ----------<br>------------- ------ ------ ---- ---- ------- ----- -- ----<br>-------- ------- -- ---------- --- - --- ----- ----- ----<br>---- --- --- ----- --- ---- ---- ------- ----- ---- -------<br>--- --- -- ----- -- --- ---- -- --- ---- -- ------ ------<br>--- ----- -- ----,161679.30000001192,161678.5,161178.261,161178.30000001192,161194.861,161695.386,,3,to
screen,html.Screen,2_1_0_1_4,2022-02-15T13:05:44.957Z,,,,,,,,,,,,,,,,,53,,,,,,,,,,,,,,486.2139999642386,,response,,,,99,,,,,,,Space,keypress(Space),,,,,,,,---- -- ----- -- having - ------- --- ----------<br>------------- ------ ------ ---- ---- ------- ----- -- ----<br>-------- ------- -- ---------- --- - --- ----- ----- ----<br>---- --- --- ----- --- ---- ---- ------- ----- ---- -------<br>--- --- -- ----- -- --- ---- -- --- ---- -- ------ ------<br>--- ----- -- ----,162182.39999997616,162181.59999996424,161678.807,161679.5,161695.386,162196.163,,4,having
screen,html.Screen,2_1_0_1_5,2022-02-15T13:05:45.338Z,,,,,,,,,,,,,,,,,53,,,,,,,,,,,,,,366.93699996423675,,response,,,,99,,,,,,,Space,keypress(Space),,,,,,,,---- -- ----- -- ------ a ------- --- ----------<br>------------- ------ ------ ---- ---- ------- ----- -- ----<br>-------- ------- -- ---------- --- - --- ----- ----- ----<br>---- --- --- ----- --- ---- ---- ------- ----- ---- -------<br>--- --- -- ----- -- --- ---- -- --- ---- -- ------ ------<br>--- ----- -- ----,162563.80000001192,162563.09999996424,162179.387,162182.59999996424,162196.163,162579.792,,5,a
screen,html.Screen,2_1_0_1_6,2022-02-15T13:05:45.866Z,,,,,,,,,,,,,,,,,53,,,,,,,,,,,,,,510.70800000001327,,response,,,,99,,,,,,,Space,keypress(Space),,,,,,,,---- -- ----- -- ------ - lasting --- ----------<br>------------- ------ ------ ---- ---- ------- ----- -- ----<br>-------- ------- -- ---------- --- - --- ----- ----- ----<br>---- --- --- ----- --- ---- ---- ------- ----- ---- -------<br>--- --- -- ----- -- --- ---- -- --- ---- -- ------ ------<br>--- ----- -- ----,163091.39999997616,163090.5,162563.16,162564.09999996424,162579.792,163096.688,,6,lasting
screen,html.Screen,2_1_0_1_7,2022-02-15T13:05:46.318Z,,,,,,,,,,,,,,,,,53,,,,,,,,,,,,,,445.91199996424257,,response,,,,99,,,,,,,Space,keypress(Space),,,,,,,,---- -- ----- -- ------ - ------- and ----------<br>------------- ------ ------ ---- ---- ------- ----- -- ----<br>-------- ------- -- ---------- --- - --- ----- ----- ----<br>---- --- --- ----- --- ---- ---- ------- ----- ---- -------<br>--- --- -- ----- -- --- ---- -- --- ---- -- ------ ------<br>--- ----- -- ----,163543.39999997616,163542.59999996424,163080.357,163091.5,163096.688,163547.186,,7,and
screen,html.Screen,2_1_0_1_8,2022-02-15T13:05:46.950Z,,,,,,,,,,,,,,,,,53,,,,,,,,,,,,,,627.9139999642503,,response,,,,99,,,,,,,Space,keypress(Space),,,,,,,,---- -- ----- -- ------ - ------- --- fulfilling<br>------------- ------ ------ ---- ---- ------- ----- -- ----<br>-------- ------- -- ---------- --- - --- ----- ----- ----<br>---- --- --- ----- --- ---- ---- ------- ----- ---- -------<br>--- --- -- ----- -- --- ---- -- --- ---- -- ------ ------<br>--- ----- -- ----,164176,164175.09999996424,163530.865,163543.59999996424,163547.186,164181.175,,8,fulfilling
screen,html.Screen,2_1_0_1_9,2022-02-15T13:05:48.120Z,,,,,,,,,,,,,,,,,53,,,,,,,,,,,,,,1163.3250000000116,,response,,,,99,,,,,,,Space,keypress(Space),,,,,,,,"---- -- ----- -- ------ - ------- --- ----------<br>relationship, ------ ------ ---- ---- ------- ----- -- ----<br>-------- ------- -- ---------- --- - --- ----- ----- ----<br>---- --- --- ----- --- ---- ---- ------- ----- ---- -------<br>--- --- -- ----- -- --- ---- -- --- ---- -- ------ ------<br>--- ----- -- ----",165345.39999997616,165344.5,164165.5,164176.19999998808,164181.175,165349.135,,9,"relationship,"
screen,html.Screen,2_1_0_1_10,2022-02-15T13:05:48.633Z,,,,,,,,,,,,,,,,,53,,,,,,,,,,,,,,508.4649999642279,,response,,,,99,,,,,,,Space,keypress(Space),,,,,,,,---- -- ----- -- ------ - ------- --- ----------<br>------------- common ------ ---- ---- ------- ----- -- ----<br>-------- ------- -- ---------- --- - --- ----- ----- ----<br>---- --- --- ----- --- ---- ---- ------- ----- ---- -------<br>--- --- -- ----- -- --- ---- -- --- ---- -- ------ ------<br>--- ----- -- ----,165858.30000001192,165857.59999996424,165332.903,165345.5,165349.135,165866.808,,10,common
screen,html.Screen,2_1_0_1_11,2022-02-15T13:05:49.066Z,,,,,,,,,,,,,,,,,53,,,,,,,,,,,,,,423.59199997616815,,response,,,,99,,,,,,,Space,keypress(Space),,,,,,,,---- -- ----- -- ------ - ------- --- ----------<br>------------- ------ wisdom ---- ---- ------- ----- -- ----<br>-------- ------- -- ---------- --- - --- ----- ----- ----<br>---- --- --- ----- --- ---- ---- ------- ----- ---- -------<br>--- --- -- ----- -- --- ---- -- --- ---- -- ------ ------<br>--- ----- -- ----,166291.19999998808,166290.39999997616,165850.148,165858.5,165866.808,166300.638,,11,wisdom
screen,html.Screen,2_1_0_1_12,2022-02-15T13:05:49.502Z,,,,,,,,,,,,,,,,,53,,,,,,,,,,,,,,426.4619999642309,,response,,,,99,,,,,,,Space,keypress(Space),,,,,,,,---- -- ----- -- ------ - ------- --- ----------<br>------------- ------ ------ says ---- ------- ----- -- ----<br>-------- ------- -- ---------- --- - --- ----- ----- ----<br>---- --- --- ----- --- ---- ---- ------- ----- ---- -------<br>--- --- -- ----- -- --- ---- -- --- ---- -- ------ ------<br>--- ----- -- ----,166728,166727.09999996424,166283.92,166291.39999997616,166300.638,166734.047,,12,says
screen,html.Screen,2_1_0_1_13,2022-02-15T13:05:49.889Z,,,,,,,,,,,,,,,,,53,,,,,,,,,,,,,,379.6529999880877,,response,,,,99,,,,,,,Space,keypress(Space),,,,,,,,---- -- ----- -- ------ - ------- --- ----------<br>------------- ------ ------ ---- that ------- ----- -- ----<br>-------- ------- -- ---------- --- - --- ----- ----- ----<br>---- --- --- ----- --- ---- ---- ------- ----- ---- -------<br>--- --- -- ----- -- --- ---- -- --- ---- -- ------ ------<br>--- ----- -- ----,167114.59999996424,167113.69999998808,166717.743,166728.09999996424,166734.047,167117.762,,13,that
screen,html.Screen,2_1_0_1_14,2022-02-15T13:05:50.280Z,,,,,,,,,,,,,,,,,53,,,,,,,,,,,,,,387.2380000000121,,response,,,,99,,,,,,,Space,keypress(Space),,,,,,,,---- -- ----- -- ------ - ------- --- ----------<br>------------- ------ ------ ---- ---- feeling ----- -- ----<br>-------- ------- -- ---------- --- - --- ----- ----- ----<br>---- --- --- ----- --- ---- ---- ------- ----- ---- -------<br>--- --- -- ----- -- --- ---- -- --- ---- -- ------ ------<br>--- ----- -- ----,167506,167505,167101.385,167114.69999998808,167117.762,167518.65,,14,feeling
screen,html.Screen,2_1_0_1_15,2022-02-15T13:05:50.636Z,,,,,,,,,,,,,,,,,53,,,,,,,,,,,,,,342.5499999880849,,response,,,,99,,,,,,,Space,keypress(Space),,,,,,,,---- -- ----- -- ------ - ------- --- ----------<br>------------- ------ ------ ---- ---- ------- close -- ----<br>-------- ------- -- ---------- --- - --- ----- ----- ----<br>---- --- --- ----- --- ---- ---- ------- ----- ---- -------<br>--- --- -- ----- -- --- ---- -- --- ---- -- ------ ------<br>--- ----- -- ----,167862,167861.19999998808,167501.704,167506.19999998808,167518.65,167868.728,,15,close
screen,html.Screen,2_1_0_1_16,2022-02-15T13:05:50.964Z,,,,,,,,,,,,,,,,,53,,,,,,,,,,,,,,319.67199997615535,,response,,,,99,,,,,,,Space,keypress(Space),,,,,,,,---- -- ----- -- ------ - ------- --- ----------<br>------------- ------ ------ ---- ---- ------- ----- to ----<br>-------- ------- -- ---------- --- - --- ----- ----- ----<br>---- --- --- ----- --- ---- ---- ------- ----- ---- -------<br>--- --- -- ----- -- --- ---- -- --- ---- -- ------ ------<br>--- ----- -- ----,168189.30000001192,168188.39999997616,167852.246,167862.09999996424,167868.728,168202.634,,16,to
screen,html.Screen,2_1_0_1_17,2022-02-15T13:05:51.335Z,,,,,,,,,,,,,,,,,53,,,,,,,,,,,,,,356.9659999642463,,response,,,,99,,,,,,,Space,keypress(Space),,,,,,,,---- -- ----- -- ------ - ------- --- ----------<br>------------- ------ ------ ---- ---- ------- ----- -- your<br>-------- ------- -- ---------- --- - --- ----- ----- ----<br>---- --- --- ----- --- ---- ---- ------- ----- ---- -------<br>--- --- -- ----- -- --- ---- -- --- ---- -- ------ ------<br>--- ----- -- ----,168560.5,168559.59999996424,168186.064,168189.39999997616,168202.634,168569.779,,17,your
screen,html.Screen,2_1_0_1_18,2022-02-15T13:05:51.832Z,,,,,,,,,,,,,,,,,53,,,,,,,,,,,,,,486.72099999999045,,response,,,,99,,,,,,,Space,keypress(Space),,,,,,,,---- -- ----- -- ------ - ------- --- ----------<br>------------- ------ ------ ---- ---- ------- ----- -- ----<br>romantic ------- -- ---------- --- - --- ----- ----- ----<br>---- --- --- ----- --- ---- ---- ------- ----- ---- -------<br>--- --- -- ----- -- --- ---- -- --- ---- -- ------ ------<br>--- ----- -- ----,169057.30000001192,169056.5,168553.107,168560.69999998808,168569.779,169070.379,,18,romantic
screen,html.Screen,2_1_0_1_19,2022-02-15T13:05:52.169Z,,,,,,,,,,,,,,,,,53,,,,,,,,,,,,,,323.5209999761719,,response,,,,99,,,,,,,Space,keypress(Space),,,,,,,,---- -- ----- -- ------ - ------- --- ----------<br>------------- ------ ------ ---- ---- ------- ----- -- ----<br>-------- partner -- ---------- --- - --- ----- ----- ----<br>---- --- --- ----- --- ---- ---- ------- ----- ---- -------<br>--- --- -- ----- -- --- ---- -- --- ---- -- ------ ------<br>--- ----- -- ----,169394.69999998808,169393.89999997616,169053.564,169057.5,169070.379,169403.979,,19,partner
screen,html.Screen,2_1_0_1_20,2022-02-15T13:05:52.514Z,,,,,,,,,,,,,,,,,53,,,,,,,,,,,,,,335.0210000000079,,response,,,,99,,,,,,,Space,keypress(Space),,,,,,,,---- -- ----- -- ------ - ------- --- ----------<br>------------- ------ ------ ---- ---- ------- ----- -- ----<br>-------- ------- is ---------- --- - --- ----- ----- ----<br>---- --- --- ----- --- ---- ---- ------- ----- ---- -------<br>--- --- -- ----- -- --- ---- -- --- ---- -- ------ ------<br>--- ----- -- ----,169739.89999997616,169739,169387.428,169394.89999997616,169403.979,169754.389,,20,is
screen,html.Screen,2_1_0_1_21,2022-02-15T13:05:54.678Z,,,,,,,,,,,,,,,,,53,,,,,,,,,,,,,,2148.1110000000044,,response,,,,99,,,,,,,Space,keypress(Space),,,,,,,,---- -- ----- -- ------ - ------- --- ----------<br>------------- ------ ------ ---- ---- ------- ----- -- ----<br>-------- ------- -- paramount. --- - --- ----- ----- ----<br>---- --- --- ----- --- ---- ---- ------- ----- ---- -------<br>--- --- -- ----- -- --- ---- -- --- ---- -- ------ ------<br>--- ----- -- ----,171903.30000001192,171902.5,169737.751,169740.09999996424,169754.389,171906.421,,21,paramount.
screen,html.Screen,2_1_0_1_22,2022-02-15T13:05:55.034Z,,,,,,,,,,,,,,,,,53,,,,,,,,,,,,,,352.47899997615605,,response,,,,99,,,,,,,Space,keypress(Space),,,,,,,,---- -- ----- -- ------ - ------- --- ----------<br>------------- ------ ------ ---- ---- ------- ----- -- ----<br>-------- ------- -- ---------- But - --- ----- ----- ----<br>---- --- --- ----- --- ---- ---- ------- ----- ---- -------<br>--- --- -- ----- -- --- ---- -- --- ---- -- ------ ------<br>--- ----- -- ----,172259.89999997616,172258.89999997616,171889.972,171903.5,171906.421,172273.906,,22,But
screen,html.Screen,2_1_0_1_23,2022-02-15T13:05:55.335Z,,,,,,,,,,,,,,,,,53,,,,,,,,,,,,,,285.8940000119328,,response,,,,99,,,,,,,Space,keypress(Space),,,,,,,,---- -- ----- -- ------ - ------- --- ----------<br>------------- ------ ------ ---- ---- ------- ----- -- ----<br>-------- ------- -- ---------- --- a --- ----- ----- ----<br>---- --- --- ----- --- ---- ---- ------- ----- ---- -------<br>--- --- -- ----- -- --- ---- -- --- ---- -- ------ ------<br>--- ----- -- ----,172560.59999996424,172559.80000001192,172257.272,172260,172273.906,172574.288,,23,a
screen,html.Screen,2_1_0_1_24,2022-02-15T13:05:55.631Z,,,,,,,,,,,,,,,,,53,,,,,,,,,,,,,,281.6119999761577,,response,,,,99,,,,,,,Space,keypress(Space),,,,,,,,---- -- ----- -- ------ - ------- --- ----------<br>------------- ------ ------ ---- ---- ------- ----- -- ----<br>-------- ------- -- ---------- --- - new ----- ----- ----<br>---- --- --- ----- --- ---- ---- ------- ----- ---- -------<br>--- --- -- ----- -- --- ---- -- --- ---- -- ------ ------<br>--- ----- -- ----,172856.80000001192,172855.89999997616,172557.588,172560.80000001192,172574.288,172874.601,,24,new
screen,html.Screen,2_1_0_1_25,2022-02-15T13:05:55.807Z,,,,,,,,,,,,,,,,,53,,,,,,,,,,,,,,157.59899998808396,,response,,,,99,,,,,,,Space,keypress(Space),,,,,,,,---- -- ----- -- ------ - ------- --- ----------<br>------------- ------ ------ ---- ---- ------- ----- -- ----<br>-------- ------- -- ---------- --- - --- study ----- ----<br>---- --- --- ----- --- ---- ---- ------- ----- ---- -------<br>--- --- -- ----- -- --- ---- -- --- ---- -- ------ ------<br>--- ----- -- ----,173033,173032.19999998808,172841.227,172856.89999997616,172874.601,173041.448,,25,study
screen,html.Screen,2_1_0_1_26,2022-02-15T13:05:56.168Z,,,,,,,,,,,,,,,,,53,,,,,,,,,,,,,,351.05199999999604,,response,,,,99,,,,,,,Space,keypress(Space),,,,,,,,---- -- ----- -- ------ - ------- --- ----------<br>------------- ------ ------ ---- ---- ------- ----- -- ----<br>-------- ------- -- ---------- --- - --- ----- finds ----<br>---- --- --- ----- --- ---- ---- ------- ----- ---- -------<br>--- --- -- ----- -- --- ---- -- --- ---- -- ------ ------<br>--- ----- -- ----,173393.39999997616,173392.5,173024.625,173033.19999998808,173041.448,173408.133,,26,finds
screen,html.Screen,2_1_0_1_27,2022-02-15T13:05:56.500Z,,,,,,,,,,,,,,,,,53,,,,,,,,,,,,,,316.4669999642356,,response,,,,99,,,,,,,Space,keypress(Space),,,,,,,,---- -- ----- -- ------ - ------- --- ----------<br>------------- ------ ------ ---- ---- ------- ----- -- ----<br>-------- ------- -- ---------- --- - --- ----- ----- that<br>---- --- --- ----- --- ---- ---- ------- ----- ---- -------<br>--- --- -- ----- -- --- ---- -- --- ---- -- ------ ------<br>--- ----- -- ----,173725.5,173724.59999996424,173391.816,173393.69999998808,173408.133,173741.906,,27,that
screen,html.Screen,2_1_0_1_28,2022-02-15T13:05:57.012Z,,,,,,,,,,,,,,,,,53,,,,,,,,,,,,,,494.5940000000119,,response,,,,99,,,,,,,Space,keypress(Space),,,,,,,,---- -- ----- -- ------ - ------- --- ----------<br>------------- ------ ------ ---- ---- ------- ----- -- ----<br>-------- ------- -- ---------- --- - --- ----- ----- ----<br>it's --- --- ----- --- ---- ---- ------- ----- ---- -------<br>--- --- -- ----- -- --- ---- -- --- ---- -- ------ ------<br>--- ----- -- ----,174237.19999998808,174236.5,173725.476,173725.59999996424,173741.906,174242.349,,28,it's
screen,html.Screen,2_1_0_1_29,2022-02-15T13:05:57.354Z,,,,,,,,,,,,,,,,,53,,,,,,,,,,,,,,336.4510000119335,,response,,,,99,,,,,,,Space,keypress(Space),,,,,,,,---- -- ----- -- ------ - ------- --- ----------<br>------------- ------ ------ ---- ---- ------- ----- -- ----<br>-------- ------- -- ---------- --- - --- ----- ----- ----<br>---- not --- ----- --- ---- ---- ------- ----- ---- -------<br>--- --- -- ----- -- --- ---- -- --- ---- -- ------ ------<br>--- ----- -- ----,174579.59999996424,174578.80000001192,174226.07,174237.39999997616,174242.349,174593.223,,29,not
screen,html.Screen,2_1_0_1_30,2022-02-15T13:05:57.626Z,,,,,,,,,,,,,,,,,53,,,,,,,,,,,,,,257.67699997616,,response,,,,99,,,,,,,Space,keypress(Space),,,,,,,,---- -- ----- -- ------ - ------- --- ----------<br>------------- ------ ------ ---- ---- ------- ----- -- ----<br>-------- ------- -- ---------- --- - --- ----- ----- ----<br>---- --- how ----- --- ---- ---- ------- ----- ---- -------<br>--- --- -- ----- -- --- ---- -- --- ---- -- ------ ------<br>--- ----- -- ----,174851.80000001192,174850.89999997616,174576.333,174579.80000001192,174593.223,174859.812,,30,how
screen,html.Screen,2_1_0_1_31,2022-02-15T13:05:57.942Z,,,,,,,,,,,,,,,,,53,,,,,,,,,,,,,,307.28799996423186,,response,,,,99,,,,,,,Space,keypress(Space),,,,,,,,---- -- ----- -- ------ - ------- --- ----------<br>------------- ------ ------ ---- ---- ------- ----- -- ----<br>-------- ------- -- ---------- --- - --- ----- ----- ----<br>---- --- --- close --- ---- ---- ------- ----- ---- -------<br>--- --- -- ----- -- --- ---- -- --- ---- -- ------ ------<br>--- ----- -- ----,175168,175167.09999996424,174843.3,174851.89999997616,174859.812,175176.942,,31,close
screen,html.Screen,2_1_0_1_32,2022-02-15T13:05:58.205Z,,,,,,,,,,,,,,,,,53,,,,,,,,,,,,,,252.25799998806906,,response,,,,99,,,,,,,Space,keypress(Space),,,,,,,,---- -- ----- -- ------ - ------- --- ----------<br>------------- ------ ------ ---- ---- ------- ----- -- ----<br>-------- ------- -- ---------- --- - --- ----- ----- ----<br>---- --- --- ----- you ---- ---- ------- ----- ---- -------<br>--- --- -- ----- -- --- ---- -- --- ---- -- ------ ------<br>--- ----- -- ----,175430.19999998808,175429.19999998808,175160.485,175168.19999998808,175176.942,175443.81,,32,you
screen,html.Screen,2_1_0_1_33,2022-02-15T13:05:58.395Z,,,,,,,,,,,,,,,,,53,,,,,,,,,,,,,,176.19000000000233,,response,,,,99,,,,,,,Space,keypress(Space),,,,,,,,---- -- ----- -- ------ - ------- --- ----------<br>------------- ------ ------ ---- ---- ------- ----- -- ----<br>-------- ------- -- ---------- --- - --- ----- ----- ----<br>---- --- --- ----- --- feel ---- ------- ----- ---- -------<br>--- --- -- ----- -- --- ---- -- --- ---- -- ------ ------<br>--- ----- -- ----,175620.80000001192,175620,175427.416,175430.39999997616,175443.81,175627.302,,33,feel
screen,html.Screen,2_1_0_1_34,2022-02-15T13:05:58.607Z,,,,,,,,,,,,,,,,,53,,,,,,,,,,,,,,204.69800000000396,,response,,,,99,,,,,,,Space,keypress(Space),,,,,,,,---- -- ----- -- ------ - ------- --- ----------<br>------------- ------ ------ ---- ---- ------- ----- -- ----<br>-------- ------- -- ---------- --- - --- ----- ----- ----<br>---- --- --- ----- --- ---- that ------- ----- ---- -------<br>--- --- -- ----- -- --- ---- -- --- ---- -- ------ ------<br>--- ----- -- ----,175832.89999997616,175832,175610.967,175620.89999997616,175627.302,175844.203,,34,that
screen,html.Screen,2_1_0_1_35,2022-02-15T13:05:58.818Z,,,,,,,,,,,,,,,,,53,,,,,,,,,,,,,,199.09700001191231,,response,,,,99,,,,,,,Space,keypress(Space),,,,,,,,---- -- ----- -- ------ - ------- --- ----------<br>------------- ------ ------ ---- ---- ------- ----- -- ----<br>-------- ------- -- ---------- --- - --- ----- ----- ----<br>---- --- --- ----- --- ---- ---- matters ----- ---- -------<br>--- --- -- ----- -- --- ---- -- --- ---- -- ------ ------<br>--- ----- -- ----,176044.09999996424,176043.30000001192,175827.929,175833,175844.203,176061.481,,35,matters
screen,html.Screen,2_1_0_1_36,2022-02-15T13:05:59.461Z,,,,,,,,,,,,,,,,,53,,,,,,,,,,,,,,624.7189999880793,,response,,,,99,,,,,,,Space,keypress(Space),,,,,,,,"---- -- ----- -- ------ - ------- --- ----------<br>------------- ------ ------ ---- ---- ------- ----- -- ----<br>-------- ------- -- ---------- --- - --- ----- ----- ----<br>---- --- --- ----- --- ---- ---- ------- most, ---- -------<br>--- --- -- ----- -- --- ---- -- --- ---- -- ------ ------<br>--- ----- -- ----",176687,176686.19999998808,176044.792,176044.30000001192,176061.481,176695.38,,36,"most,"
screen,html.Screen,2_1_0_1_37,2022-02-15T13:05:59.788Z,,,,,,,,,,,,,,,,,53,,,,,,,,,,,,,,317.3199999880744,,response,,,,99,,,,,,,Space,keypress(Space),,,,,,,,---- -- ----- -- ------ - ------- --- ----------<br>------------- ------ ------ ---- ---- ------- ----- -- ----<br>-------- ------- -- ---------- --- - --- ----- ----- ----<br>---- --- --- ----- --- ---- ---- ------- ----- it's -------<br>--- --- -- ----- -- --- ---- -- --- ---- -- ------ ------<br>--- ----- -- ----,177013.5,177012.69999998808,176678.828,176688.39999997616,176695.38,177029.184,,37,it's
screen,html.Screen,2_1_0_1_38,2022-02-15T13:06:00.138Z,,,,,,,,,,,,,,,,,53,,,,,,,,,,,,,,333.91599996422883,,response,,,,99,,,,,,,Space,keypress(Space),,,,,,,,---- -- ----- -- ------ - ------- --- ----------<br>------------- ------ ------ ---- ---- ------- ----- -- ----<br>-------- ------- -- ---------- --- - --- ----- ----- ----<br>---- --- --- ----- --- ---- ---- ------- ----- ---- whether<br>--- --- -- ----- -- --- ---- -- --- ---- -- ------ ------<br>--- ----- -- ----,177364,177363.09999996424,177012.525,177013.69999998808,177029.184,177379.271,,38,whether
screen,html.Screen,2_1_0_1_39,2022-02-15T13:06:00.490Z,,,,,,,,,,,,,,,,,53,,,,,,,,,,,,,,335.1289999761502,,response,,,,99,,,,,,,Space,keypress(Space),,,,,,,,---- -- ----- -- ------ - ------- --- ----------<br>------------- ------ ------ ---- ---- ------- ----- -- ----<br>-------- ------- -- ---------- --- - --- ----- ----- ----<br>---- --- --- ----- --- ---- ---- ------- ----- ---- -------<br>you --- -- ----- -- --- ---- -- --- ---- -- ------ ------<br>--- ----- -- ----,177715.30000001192,177714.39999997616,177362.592,177364.09999996424,177379.271,177730.057,,39,you
screen,html.Screen,2_1_0_1_40,2022-02-15T13:06:00.801Z,,,,,,,,,,,,,,,,,53,,,,,,,,,,,,,,295.84299997615744,,response,,,,99,,,,,,,Space,keypress(Space),,,,,,,,---- -- ----- -- ------ - ------- --- ----------<br>------------- ------ ------ ---- ---- ------- ----- -- ----<br>-------- ------- -- ---------- --- - --- ----- ----- ----<br>---- --- --- ----- --- ---- ---- ------- ----- ---- -------<br>--- are -- ----- -- --- ---- -- --- ---- -- ------ ------<br>--- ----- -- ----,178026.59999996424,178025.89999997616,177712.958,177715.5,177730.057,178029.88,,40,are
screen,html.Screen,2_1_0_1_41,2022-02-15T13:06:01.158Z,,,,,,,,,,,,,,,,,53,,,,,,,,,,,,,,352.8199999880744,,response,,,,99,,,,,,,Space,keypress(Space),,,,,,,,---- -- ----- -- ------ - ------- --- ----------<br>------------- ------ ------ ---- ---- ------- ----- -- ----<br>-------- ------- -- ---------- --- - --- ----- ----- ----<br>---- --- --- ----- --- ---- ---- ------- ----- ---- -------<br>--- --- as ----- -- --- ---- -- --- ---- -- ------ ------<br>--- ----- -- ----,178383.39999997616,178382.69999998808,178013.616,178026.80000001192,178029.88,178397.383,,41,as
screen,html.Screen,2_1_0_1_42,2022-02-15T13:06:01.515Z,,,,,,,,,,,,,,,,,53,,,,,,,,,,,,,,342.11699999999837,,response,,,,99,,,,,,,Space,keypress(Space),,,,,,,,---- -- ----- -- ------ - ------- --- ----------<br>------------- ------ ------ ---- ---- ------- ----- -- ----<br>-------- ------- -- ---------- --- - --- ----- ----- ----<br>---- --- --- ----- --- ---- ---- ------- ----- ---- -------<br>--- --- -- close -- --- ---- -- --- ---- -- ------ ------<br>--- ----- -- ----,178740.30000001192,178739.5,178380.543,178383.59999996424,178397.383,178747.839,,42,close
screen,html.Screen,2_1_0_1_43,2022-02-15T13:06:01.846Z,,,,,,,,,,,,,,,,,53,,,,,,,,,,,,,,322.86099998807185,,response,,,,99,,,,,,,Space,keypress(Space),,,,,,,,---- -- ----- -- ------ - ------- --- ----------<br>------------- ------ ------ ---- ---- ------- ----- -- ----<br>-------- ------- -- ---------- --- - --- ----- ----- ----<br>---- --- --- ----- --- ---- ---- ------- ----- ---- -------<br>--- --- -- ----- as --- ---- -- --- ---- -- ------ ------<br>--- ----- -- ----,179071.39999997616,179070.69999998808,178731.119,178740.39999997616,178747.839,179081.169,,43,as
screen,html.Screen,2_1_0_1_44,2022-02-15T13:06:02.117Z,,,,,,,,,,,,,,,,,53,,,,,,,,,,,,,,260.73099997616373,,response,,,,99,,,,,,,Space,keypress(Space),,,,,,,,---- -- ----- -- ------ - ------- --- ----------<br>------------- ------ ------ ---- ---- ------- ----- -- ----<br>-------- ------- -- ---------- --- - --- ----- ----- ----<br>---- --- --- ----- --- ---- ---- ------- ----- ---- -------<br>--- --- -- ----- -- you ---- -- --- ---- -- ------ ------<br>--- ----- -- ----,179342.59999996424,179341.89999997616,179064.916,179071.5,179081.169,179348.227,,44,you
screen,html.Screen,2_1_0_1_45,2022-02-15T13:06:02.448Z,,,,,,,,,,,,,,,,,53,,,,,,,,,,,,,,324.7729999999865,,response,,,,99,,,,,,,Space,keypress(Space),,,,,,,,---- -- ----- -- ------ - ------- --- ----------<br>------------- ------ ------ ---- ---- ------- ----- -- ----<br>-------- ------- -- ---------- --- - --- ----- ----- ----<br>---- --- --- ----- --- ---- ---- ------- ----- ---- -------<br>--- --- -- ----- -- --- want -- --- ---- -- ------ ------<br>--- ----- -- ----,179673.89999997616,179673,179331.757,179342.80000001192,179348.227,179681.796,,45,want
screen,html.Screen,2_1_0_1_46,2022-02-15T13:06:02.710Z,,,,,,,,,,,,,,,,,53,,,,,,,,,,,,,,252.80399996423512,,response,,,,99,,,,,,,Space,keypress(Space),,,,,,,,---- -- ----- -- ------ - ------- --- ----------<br>------------- ------ ------ ---- ---- ------- ----- -- ----<br>-------- ------- -- ---------- --- - --- ----- ----- ----<br>---- --- --- ----- --- ---- ---- ------- ----- ---- -------<br>--- --- -- ----- -- --- ---- to --- ---- -- ------ ------<br>--- ----- -- ----,179935.5,179934.59999996424,179665.076,179674.09999996424,179681.796,179949.118,,46,to
screen,html.Screen,2_1_0_1_47,2022-02-15T13:06:02.991Z,,,,,,,,,,,,,,,,,53,,,,,,,,,,,,,,266.2819999761705,,response,,,,99,,,,,,,Space,keypress(Space),,,,,,,,"---- -- ----- -- ------ - ------- --- ----------<br>------------- ------ ------ ---- ---- ------- ----- -- ----<br>-------- ------- -- ---------- --- - --- ----- ----- ----<br>---- --- --- ----- --- ---- ---- ------- ----- ---- -------<br>--- --- -- ----- -- --- ---- -- be, ---- -- ------ ------<br>--- ----- -- ----",180216.09999996424,180215.39999997616,179932.433,179935.69999998808,179949.118,180232.455,,47,"be,"
screen,html.Screen,2_1_0_1_48,2022-02-15T13:06:03.532Z,,,,,,,,,,,,,,,,,53,,,,,,,,,,,,,,524.8450000119337,,response,,,,99,,,,,,,Space,keypress(Space),,,,,,,,---- -- ----- -- ------ - ------- --- ----------<br>------------- ------ ------ ---- ---- ------- ----- -- ----<br>-------- ------- -- ---------- --- - --- ----- ----- ----<br>---- --- --- ----- --- ---- ---- ------- ----- ---- -------<br>--- --- -- ----- -- --- ---- -- --- even -- ------ ------<br>--- ----- -- ----,180758.19999998808,180757.30000001192,180215.825,180216.30000001192,180232.455,180766.396,,48,even
screen,html.Screen,2_1_0_1_49,2022-02-15T13:06:03.863Z,,,,,,,,,,,,,,,,,53,,,,,,,,,,,,,,321.5039999761502,,response,,,,99,,,,,,,Space,keypress(Space),,,,,,,,---- -- ----- -- ------ - ------- --- ----------<br>------------- ------ ------ ---- ---- ------- ----- -- ----<br>-------- ------- -- ---------- --- - --- ----- ----- ----<br>---- --- --- ----- --- ---- ---- ------- ----- ---- -------<br>--- --- -- ----- -- --- ---- -- --- ---- if ------ ------<br>--- ----- -- ----,181088.80000001192,181087.89999997616,180749.981,180758.30000001192,180766.396,181100.236,,49,if
screen,html.Screen,2_1_0_1_50,2022-02-15T13:06:04.154Z,,,,,,,,,,,,,,,,,53,,,,,,,,,,,,,,279.2639999999956,,response,,,,99,,,,,,,Space,keypress(Space),,,,,,,,---- -- ----- -- ------ - ------- --- ----------<br>------------- ------ ------ ---- ---- ------- ----- -- ----<br>-------- ------- -- ---------- --- - --- ----- ----- ----<br>---- --- --- ----- --- ---- ---- ------- ----- ---- -------<br>--- --- -- ----- -- --- ---- -- --- ---- -- that's ------<br>--- ----- -- ----,181380.30000001192,181379.5,181083.68,181089,181100.236,181383.65,,50,that's
screen,html.Screen,2_1_0_1_51,2022-02-15T13:06:04.581Z,,,,,,,,,,,,,,,,,53,,,,,,,,,,,,,,422.74999997616396,,response,,,,99,,,,,,,Space,keypress(Space),,,,,,,,---- -- ----- -- ------ - ------- --- ----------<br>------------- ------ ------ ---- ---- ------- ----- -- ----<br>-------- ------- -- ---------- --- - --- ----- ----- ----<br>---- --- --- ----- --- ---- ---- ------- ----- ---- -------<br>--- --- -- ----- -- --- ---- -- --- ---- -- ------ really<br>--- ----- -- ----,181807.30000001192,181806.39999997616,181367.221,181380.39999997616,181383.65,181817.899,,51,really
screen,html.Screen,2_1_0_1_52,2022-02-15T13:06:04.953Z,,,,,,,,,,,,,,,,,53,,,,,,,,,,,,,,360.2009999642323,,response,,,,99,,,,,,,Space,keypress(Space),,,,,,,,---- -- ----- -- ------ - ------- --- ----------<br>------------- ------ ------ ---- ---- ------- ----- -- ----<br>-------- ------- -- ---------- --- - --- ----- ----- ----<br>---- --- --- ----- --- ---- ---- ------- ----- ---- -------<br>--- --- -- ----- -- --- ---- -- --- ---- -- ------ ------<br>not ----- -- ----,182179,182178.09999996424,181801.2,181807.5,181817.899,182184.515,,52,not
screen,html.Screen,2_1_0_1_53,2022-02-15T13:06:05.315Z,,,,,,,,,,,,,,,,,53,,,,,,,,,,,,,,356.08499996422324,,response,,,,99,,,,,,,Space,keypress(Space),,,,,,,,---- -- ----- -- ------ - ------- --- ----------<br>------------- ------ ------ ---- ---- ------- ----- -- ----<br>-------- ------- -- ---------- --- - --- ----- ----- ----<br>---- --- --- ----- --- ---- ---- ------- ----- ---- -------<br>--- --- -- ----- -- --- ---- -- --- ---- -- ------ ------<br>--- close -- ----,182541.39999997616,182540.59999996424,182168.201,182179.09999996424,182184.515,182552.466,,53,close
screen,html.Screen,2_1_0_1_54,2022-02-15T13:06:05.663Z,,,,,,,,,,,,,,,,,53,,,,,,,,,,,,,,335.83400001193513,,response,,,,99,,,,,,,Space,keypress(Space),,,,,,,,---- -- ----- -- ------ - ------- --- ----------<br>------------- ------ ------ ---- ---- ------- ----- -- ----<br>-------- ------- -- ---------- --- - --- ----- ----- ----<br>---- --- --- ----- --- ---- ---- ------- ----- ---- -------<br>--- --- -- ----- -- --- ---- -- --- ---- -- ------ ------<br>--- ----- at ----,182889.30000001192,182888.30000001192,182535.342,182541.59999996424,182552.466,182901.979,,54,at
screen,html.Screen,2_1_0_1_55,2022-02-15T13:06:06.019Z,,,,,,,,,,,,,,,,,53,,,,,,,,,,,,,,342.5210000000079,,response,,,,99,,,,,,,Space,keypress(Space),,,,,,,,---- -- ----- -- ------ - ------- --- ----------<br>------------- ------ ------ ---- ---- ------- ----- -- ----<br>-------- ------- -- ---------- --- - --- ----- ----- ----<br>---- --- --- ----- --- ---- ---- ------- ----- ---- -------<br>--- --- -- ----- -- --- ---- -- --- ---- -- ------ ------<br>--- ----- -- all.,183245.39999997616,183244.5,182885.697,182889.39999997616,182901.979,183252.394,,55,all.
Item 99,flow.Loop,2_1_0_1,2022-02-15T13:06:06.020Z,,,,,,,,,,,,,,,,,,,,,,,,,,,,,,,25537.127999999997,,completion,,,,,E,,,,,,,,,,,silence,,,,,183245.69999998808,183244.5,157691.068,157692.09999996424,157707.372,183252.394,,,
Question 1,html.Screen,2_1_0_2,2022-02-15T13:06:11.821Z,,,,,,,,,,,,,,,,,,,,,,,,,,,,true,FALSE,,5793.106,,response,,,,99,E,,,,,,FALSE,click #choice-2,,,,silence,,,,,189046.69999998808,189045.5,183236.078,183245.80000001192,183252.394,189058.858,,,
Question 2,html.Screen,2_1_0_3,2022-02-15T13:06:17.560Z,,,,,,,,,,,,,,,,,,,,,,,,,,,,true,TRUE,,5725.841999988072,,response,,,,99,E,,,,,,TRUE,click #choice-1,,,,silence,,,,,194785.89999997616,194784.69999998808,189042.618,189046.89999997616,189058.858,194798.631,,,
Item 99,flow.Sequence,2_1_0,2022-02-15T13:06:17.560Z,,,,,,,,,,,,,,,,,,,,,,,,,,,,,,,47071.404999988066,,completion,,,,,,,,,,,,,,,,,,,,,194786.09999996424,194784.69999998808,147696.237,147703.19999998808,147713.295,194798.631,,,
Holding screen,html.Screen,2_1_1_0,2022-02-15T13:06:27.551Z,,,,,,,,,,,,,,,,,,,,,,,,,,,,,,,9994.356,,timeout,,,,,,,,,,,,,,,,,,,,,204777.30000001192,204776.607,194781.988,194786.30000001192,194798.631,204792.987,,,
screen,html.Screen,2_1_1_1_0,2022-02-15T13:06:29.261Z,,,,,,,,,,,,,,,,,54,,,,,,,,,,,,,,1693.7129999880854,,response,,,,100,,,,,,,Space,keypress(Space),,,,,,,,At --- ---- --- ------ ----- ------- ---- -- --- ------- --<br>------- ---------- ------ -- ----- -- ----- -- ---- ------<br>--- ----- --- --- ------ -------- ----- --- ------ ----- --<br>----- ----- ---------- --- --- ------ ------ ---- -- ------<br>------- --- ------ ----- --- ---- ------- -- ---- --- --<br>------- ------,206487.5,206486.69999998808,204776.607,204777.5,204792.987,206494.85,,0,At
screen,html.Screen,2_1_1_1_1,2022-02-15T13:06:29.712Z,,,,,,,,,,,,,,,,,54,,,,,,,,,,,,,,442.6499999999942,,response,,,,100,,,,,,,Space,keypress(Space),,,,,,,,-- the ---- --- ------ ----- ------- ---- -- --- ------- --<br>------- ---------- ------ -- ----- -- ----- -- ---- ------<br>--- ----- --- --- ------ -------- ----- --- ------ ----- --<br>----- ----- ---------- --- --- ------ ------ ---- -- ------<br>------- --- ------ ----- --- ---- ------- -- ---- --- --<br>------- ------,206938.39999997616,206937.5,206478.566,206487.69999998808,206494.85,206945.368,,1,the
screen,html.Screen,2_1_1_1_2,2022-02-15T13:06:30.159Z,,,,,,,,,,,,,,,,,54,,,,,,,,,,,,,,438.93200001193327,,response,,,,100,,,,,,,Space,keypress(Space),,,,,,,,-- --- time --- ------ ----- ------- ---- -- --- ------- --<br>------- ---------- ------ -- ----- -- ----- -- ---- ------<br>--- ----- --- --- ------ -------- ----- --- ------ ----- --<br>----- ----- ---------- --- --- ------ ------ ---- -- ------<br>------- --- ------ ----- --- ---- ------- -- ---- --- --<br>------- ------,207385.09999996424,207384.30000001192,206929.078,206938.59999996424,206945.368,207395.946,,2,time
screen,html.Screen,2_1_1_1_3,2022-02-15T13:06:30.566Z,,,,,,,,,,,,,,,,,54,,,,,,,,,,,,,,395.45399997616187,,response,,,,100,,,,,,,Space,keypress(Space),,,,,,,,-- --- ---- the ------ ----- ------- ---- -- --- ------- --<br>------- ---------- ------ -- ----- -- ----- -- ---- ------<br>--- ----- --- --- ------ -------- ----- --- ------ ----- --<br>----- ----- ---------- --- --- ------ ------ ---- -- ------<br>------- --- ------ ----- --- ---- ------- -- ---- --- --<br>------- ------,207792.30000001192,207791.39999997616,207379.466,207385.19999998808,207395.946,207796.327,,3,the
screen,html.Screen,2_1_1_1_4,2022-02-15T13:06:31.062Z,,,,,,,,,,,,,,,,,54,,,,,,,,,,,,,,491.1730000000098,,response,,,,100,,,,,,,Space,keypress(Space),,,,,,,,-- --- ---- --- French ----- ------- ---- -- --- ------- --<br>------- ---------- ------ -- ----- -- ----- -- ---- ------<br>--- ----- --- --- ------ -------- ----- --- ------ ----- --<br>----- ----- ---------- --- --- ------ ------ ---- -- ------<br>------- --- ------ ----- --- ---- ------- -- ---- --- --<br>------- ------,208288.30000001192,208287.5,207779.883,207792.5,207796.327,208297.303,,4,French
screen,html.Screen,2_1_1_1_5,2022-02-15T13:06:31.479Z,,,,,,,,,,,,,,,,,54,,,,,,,,,,,,,,406.9970000119065,,response,,,,100,,,,,,,Space,keypress(Space),,,,,,,,-- --- ---- --- ------ crown ------- ---- -- --- ------- --<br>------- ---------- ------ -- ----- -- ----- -- ---- ------<br>--- ----- --- --- ------ -------- ----- --- ------ ----- --<br>----- ----- ---------- --- --- ------ ------ ---- -- ------<br>------- --- ------ ----- --- ---- ------- -- ---- --- --<br>------- ------,208705,208704.30000001192,208280.612,208288.5,208297.303,208714.958,,5,crown
screen,html.Screen,2_1_1_1_6,2022-02-15T13:06:31.922Z,,,,,,,,,,,,,,,,,54,,,,,,,,,,,,,,431.7419999880658,,response,,,,100,,,,,,,Space,keypress(Space),,,,,,,,-- --- ---- --- ------ ----- secured ---- -- --- ------- --<br>------- ---------- ------ -- ----- -- ----- -- ---- ------<br>--- ----- --- --- ------ -------- ----- --- ------ ----- --<br>----- ----- ---------- --- --- ------ ------ ---- -- ------<br>------- --- ------ ----- --- ---- ------- -- ---- --- --<br>------- ------,209147.59999996424,209146.69999998808,208697.65,208705.30000001192,208714.958,209181.636,,6,secured
screen,html.Screen,2_1_1_1_7,2022-02-15T13:06:32.354Z,,,,,,,,,,,,,,,,,54,,,,,,,,,,,,,,397.76399997615954,,response,,,,100,,,,,,,Space,keypress(Space),,,,,,,,-- --- ---- --- ------ ----- ------- much -- --- ------- --<br>------- ---------- ------ -- ----- -- ----- -- ---- ------<br>--- ----- --- --- ------ -------- ----- --- ------ ----- --<br>----- ----- ---------- --- --- ------ ------ ---- -- ------<br>------- --- ------ ----- --- ---- ------- -- ---- --- --<br>------- ------,209580.19999998808,209579.39999997616,209164.899,209147.80000001192,209181.636,209599.304,,7,much
screen,html.Screen,2_1_1_1_8,2022-02-15T13:06:32.765Z,,,,,,,,,,,,,,,,,54,,,,,,,,,,,,,,390.6959999999963,,response,,,,100,,,,,,,Space,keypress(Space),,,,,,,,-- --- ---- --- ------ ----- ------- ---- of --- ------- --<br>------- ---------- ------ -- ----- -- ----- -- ---- ------<br>--- ----- --- --- ------ -------- ----- --- ------ ----- --<br>----- ----- ---------- --- --- ------ ------ ---- -- ------<br>------- --- ------ ----- --- ---- ------- -- ---- --- --<br>------- ------,209990.80000001192,209990,209565.376,209580.39999997616,209599.304,209999.161,,8,of
screen,html.Screen,2_1_1_1_9,2022-02-15T13:06:33.113Z,,,,,,,,,,,,,,,,,54,,,,,,,,,,,,,,338.8390000000072,,response,,,,100,,,,,,,Space,keypress(Space),,,,,,,,-- --- ---- --- ------ ----- ------- ---- -- its ------- --<br>------- ---------- ------ -- ----- -- ----- -- ---- ------<br>--- ----- --- --- ------ -------- ----- --- ------ ----- --<br>----- ----- ---------- --- --- ------ ------ ---- -- ------<br>------- --- ------ ----- --- ---- ------- -- ---- --- --<br>------- ------,210338.80000001192,210338,209982.59,209991,209999.161,210349.225,,9,its
screen,html.Screen,2_1_1_1_10,2022-02-15T13:06:34.543Z,,,,,,,,,,,,,,,,,54,,,,,,,,,,,,,,1419.1749999761523,,response,,,,100,,,,,,,Space,keypress(Space),,,,,,,,-- --- ---- --- ------ ----- ------- ---- -- --- revenue --<br>------- ---------- ------ -- ----- -- ----- -- ---- ------<br>--- ----- --- --- ------ -------- ----- --- ------ ----- --<br>----- ----- ---------- --- --- ------ ------ ---- -- ------<br>------- --- ------ ----- --- ---- ------- -- ---- --- --<br>------- ------,211769.30000001192,211768.39999997616,210332.516,210339,210349.225,211784.218,,10,revenue
screen,html.Screen,2_1_1_1_11,2022-02-15T13:06:34.895Z,,,,,,,,,,,,,,,,,54,,,,,,,,,,,,,,335.58200001192745,,response,,,,100,,,,,,,Space,keypress(Space),,,,,,,,-- --- ---- --- ------ ----- ------- ---- -- --- ------- by<br>------- ---------- ------ -- ----- -- ----- -- ---- ------<br>--- ----- --- --- ------ -------- ----- --- ------ ----- --<br>----- ----- ---------- --- --- ------ ------ ---- -- ------<br>------- --- ------ ----- --- ---- ------- -- ---- --- --<br>------- ------,212120.5,212119.80000001192,211767.791,211769.39999997616,211784.218,212134.545,,11,by
screen,html.Screen,2_1_1_1_12,2022-02-15T13:06:35.220Z,,,,,,,,,,,,,,,,,54,,,,,,,,,,,,,,310.9549999999872,,response,,,,100,,,,,,,Space,keypress(Space),,,,,,,,-- --- ---- --- ------ ----- ------- ---- -- --- ------- --<br>issuing ---------- ------ -- ----- -- ----- -- ---- ------<br>--- ----- --- --- ------ -------- ----- --- ------ ----- --<br>----- ----- ---------- --- --- ------ ------ ---- -- ------<br>------- --- ------ ----- --- ---- ------- -- ---- --- --<br>------- ------,212446.39999997616,212445.5,212118.102,212120.69999998808,212134.545,212451.485,,12,issuing
screen,html.Screen,2_1_1_1_13,2022-02-15T13:06:35.678Z,,,,,,,,,,,,,,,,,54,,,,,,,,,,,,,,451.71499998809304,,response,,,,100,,,,,,,Space,keypress(Space),,,,,,,,-- --- ---- --- ------ ----- ------- ---- -- --- ------- --<br>------- government ------ -- ----- -- ----- -- ---- ------<br>--- ----- --- --- ------ -------- ----- --- ------ ----- --<br>----- ----- ---------- --- --- ------ ------ ---- -- ------<br>------- --- ------ ----- --- ---- ------- -- ---- --- --<br>------- ------,212904,212903.19999998808,212435.193,212446.5,212451.485,212919.198,,13,government
screen,html.Screen,2_1_1_1_14,2022-02-15T13:06:39.035Z,,,,,,,,,,,,,,,,,54,,,,,,,,,,,,,,3341.501999988075,,response,,,,100,,,,,,,Space,keypress(Space),,,,,,,,-- --- ---- --- ------ ----- ------- ---- -- --- ------- --<br>------- ---------- bonds. -- ----- -- ----- -- ---- ------<br>--- ----- --- --- ------ -------- ----- --- ------ ----- --<br>----- ----- ---------- --- --- ------ ------ ---- -- ------<br>------- --- ------ ----- --- ---- ------- -- ---- --- --<br>------- ------,216261.5,216260.69999998808,212902.424,212904.19999998808,212919.198,216272.473,,14,bonds.
screen,html.Screen,2_1_1_1_15,2022-02-15T13:06:39.357Z,,,,,,,,,,,,,,,,,54,,,,,,,,,,,,,,310.1269999642391,,response,,,,100,,,,,,,Space,keypress(Space),,,,,,,,-- --- ---- --- ------ ----- ------- ---- -- --- ------- --<br>------- ---------- ------ In ----- -- ----- -- ---- ------<br>--- ----- --- --- ------ -------- ----- --- ------ ----- --<br>----- ----- ---------- --- --- ------ ------ ---- -- ------<br>------- --- ------ ----- --- ---- ------- -- ---- --- --<br>------- ------,216583.30000001192,216582.59999996424,216255.87,216261.69999998808,216272.473,216589.555,,15,In
screen,html.Screen,2_1_1_1_16,2022-02-15T13:06:39.699Z,,,,,,,,,,,,,,,,,54,,,,,,,,,,,,,,334.64499998808606,,response,,,,100,,,,,,,Space,keypress(Space),,,,,,,,"-- --- ---- --- ------ ----- ------- ---- -- --- ------- --<br>------- ---------- ------ -- 1727, -- ----- -- ---- ------<br>--- ----- --- --- ------ -------- ----- --- ------ ----- --<br>----- ----- ---------- --- --- ------ ------ ---- -- ------<br>------- --- ------ ----- --- ---- ------- -- ---- --- --<br>------- ------",216925.09999996424,216924.19999998808,216573.124,216583.5,216589.555,216940.231,,16,"1727,"
screen,html.Screen,2_1_1_1_17,2022-02-15T13:06:40.276Z,,,,,,,,,,,,,,,,,54,,,,,,,,,,,,,,560.6689999761584,,response,,,,100,,,,,,,Space,keypress(Space),,,,,,,,-- --- ---- --- ------ ----- ------- ---- -- --- ------- --<br>------- ---------- ------ -- ----- in ----- -- ---- ------<br>--- ----- --- --- ------ -------- ----- --- ------ ----- --<br>----- ----- ---------- --- --- ------ ------ ---- -- ------<br>------- --- ------ ----- --- ---- ------- -- ---- --- --<br>------- ------,217501.80000001192,217500.89999997616,216923.554,216925.30000001192,216940.231,217507.16,,17,in
screen,html.Screen,2_1_1_1_18,2022-02-15T13:06:40.662Z,,,,,,,,,,,,,,,,,54,,,,,,,,,,,,,,379.9399999642337,,response,,,,100,,,,,,,Space,keypress(Space),,,,,,,,-- --- ---- --- ------ ----- ------- ---- -- --- ------- --<br>------- ---------- ------ -- ----- -- order -- ---- ------<br>--- ----- --- --- ------ -------- ----- --- ------ ----- --<br>----- ----- ---------- --- --- ------ ------ ---- -- ------<br>------- --- ------ ----- --- ---- ------- -- ---- --- --<br>------- ------,217887.89999997616,217887.09999996424,217490.487,217502,217507.16,217890.855,,18,order
screen,html.Screen,2_1_1_1_19,2022-02-15T13:06:40.999Z,,,,,,,,,,,,,,,,,54,,,,,,,,,,,,,,333.74499996422674,,response,,,,100,,,,,,,Space,keypress(Space),,,,,,,,-- --- ---- --- ------ ----- ------- ---- -- --- ------- --<br>------- ---------- ------ -- ----- -- ----- to ---- ------<br>--- ----- --- --- ------ -------- ----- --- ------ ----- --<br>----- ----- ---------- --- --- ------ ------ ---- -- ------<br>------- --- ------ ----- --- ---- ------- -- ---- --- --<br>------- ------,218225.39999997616,218224.59999996424,217874.453,217888.09999996424,217890.855,218241.568,,19,to
screen,html.Screen,2_1_1_1_20,2022-02-15T13:06:41.336Z,,,,,,,,,,,,,,,,,54,,,,,,,,,,,,,,319.2320000119216,,response,,,,100,,,,,,,Space,keypress(Space),,,,,,,,-- --- ---- --- ------ ----- ------- ---- -- --- ------- --<br>------- ---------- ------ -- ----- -- ----- -- save ------<br>--- ----- --- --- ------ -------- ----- --- ------ ----- --<br>----- ----- ---------- --- --- ------ ------ ---- -- ------<br>------- --- ------ ----- --- ---- ------- -- ---- --- --<br>------- ------,218561.80000001192,218560.80000001192,218225.016,218225.59999996424,218241.568,218575.381,,20,save
screen,html.Screen,2_1_1_1_21,2022-02-15T13:06:41.662Z,,,,,,,,,,,,,,,,,54,,,,,,,,,,,,,,311.8189999880851,,response,,,,100,,,,,,,Space,keypress(Space),,,,,,,,"-- --- ---- --- ------ ----- ------- ---- -- --- ------- --<br>------- ---------- ------ -- ----- -- ----- -- ---- money,<br>--- ----- --- --- ------ -------- ----- --- ------ ----- --<br>----- ----- ---------- --- --- ------ ------ ---- -- ------<br>------- --- ------ ----- --- ---- ------- -- ---- --- --<br>------- ------",218888.09999996424,218887.19999998808,218558.761,218562,218575.381,218891.979,,21,"money,"
screen,html.Screen,2_1_1_1_22,2022-02-15T13:06:42.019Z,,,,,,,,,,,,,,,,,54,,,,,,,,,,,,,,351.92099997616606,,response,,,,100,,,,,,,Space,keypress(Space),,,,,,,,-- --- ---- --- ------ ----- ------- ---- -- --- ------- --<br>------- ---------- ------ -- ----- -- ----- -- ---- ------<br>the ----- --- --- ------ -------- ----- --- ------ ----- --<br>----- ----- ---------- --- --- ------ ------ ---- -- ------<br>------- --- ------ ----- --- ---- ------- -- ---- --- --<br>------- ------,219244.80000001192,219243.89999997616,218875.612,218888.30000001192,218891.979,219259.135,,22,the
screen,html.Screen,2_1_1_1_23,2022-02-15T13:06:42.440Z,,,,,,,,,,,,,,,,,54,,,,,,,,,,,,,,406.06499998806976,,response,,,,100,,,,,,,Space,keypress(Space),,,,,,,,-- --- ---- --- ------ ----- ------- ---- -- --- ------- --<br>------- ---------- ------ -- ----- -- ----- -- ---- ------<br>--- state --- --- ------ -------- ----- --- ------ ----- --<br>----- ----- ---------- --- --- ------ ------ ---- -- ------<br>------- --- ------ ----- --- ---- ------- -- ---- --- --<br>------- ------,219666.09999996424,219665.19999998808,219242.86,219245,219259.135,219676.648,,23,state
screen,html.Screen,2_1_1_1_24,2022-02-15T13:06:42.776Z,,,,,,,,,,,,,,,,,54,,,,,,,,,,,,,,324.0519999880926,,response,,,,100,,,,,,,Space,keypress(Space),,,,,,,,-- --- ---- --- ------ ----- ------- ---- -- --- ------- --<br>------- ---------- ------ -- ----- -- ----- -- ---- ------<br>--- ----- cut --- ------ -------- ----- --- ------ ----- --<br>----- ----- ---------- --- --- ------ ------ ---- -- ------<br>------- --- ------ ----- --- ---- ------- -- ---- --- --<br>------- ------,220001.59999996424,220000.69999998808,219659.5,219666.19999998808,219676.648,220010.313,,24,cut
screen,html.Screen,2_1_1_1_25,2022-02-15T13:06:43.103Z,,,,,,,,,,,,,,,,,54,,,,,,,,,,,,,,317.4870000119263,,response,,,,100,,,,,,,Space,keypress(Space),,,,,,,,-- --- ---- --- ------ ----- ------- ---- -- --- ------- --<br>------- ---------- ------ -- ----- -- ----- -- ---- ------<br>--- ----- --- the ------ -------- ----- --- ------ ----- --<br>----- ----- ---------- --- --- ------ ------ ---- -- ------<br>------- --- ------ ----- --- ---- ------- -- ---- --- --<br>------- ------,220328.69999998808,220327.80000001192,219993.602,220001.80000001192,220010.313,220343.994,,25,the
screen,html.Screen,2_1_1_1_26,2022-02-15T13:06:43.474Z,,,,,,,,,,,,,,,,,54,,,,,,,,,,,,,,355.10599996423116,,response,,,,100,,,,,,,Space,keypress(Space),,,,,,,,-- --- ---- --- ------ ----- ------- ---- -- --- ------- --<br>------- ---------- ------ -- ----- -- ----- -- ---- ------<br>--- ----- --- --- bonds' -------- ----- --- ------ ----- --<br>----- ----- ---------- --- --- ------ ------ ---- -- ------<br>------- --- ------ ----- --- ---- ------- -- ---- --- --<br>------- ------,220700,220699.09999996424,220327.3,220328.89999997616,220343.994,220711.15,,26,bonds'
screen,html.Screen,2_1_1_1_27,2022-02-15T13:06:43.880Z,,,,,,,,,,,,,,,,,54,,,,,,,,,,,,,,394.24999997616396,,response,,,,100,,,,,,,Space,keypress(Space),,,,,,,,-- --- ---- --- ------ ----- ------- ---- -- --- ------- --<br>------- ---------- ------ -- ----- -- ----- -- ---- ------<br>--- ----- --- --- ------ interest ----- --- ------ ----- --<br>----- ----- ---------- --- --- ------ ------ ---- -- ------<br>------- --- ------ ----- --- ---- ------- -- ---- --- --<br>------- ------,221106.19999998808,221105.39999997616,220694.232,220700.09999996424,220711.15,221111.195,,27,interest
screen,html.Screen,2_1_1_1_28,2022-02-15T13:06:46.180Z,,,,,,,,,,,,,,,,,54,,,,,,,,,,,,,,2294.004999988072,,response,,,,100,,,,,,,Space,keypress(Space),,,,,,,,-- --- ---- --- ------ ----- ------- ---- -- --- ------- --<br>------- ---------- ------ -- ----- -- ----- -- ---- ------<br>--- ----- --- --- ------ -------- rate. --- ------ ----- --<br>----- ----- ---------- --- --- ------ ------ ---- -- ------<br>------- --- ------ ----- --- ---- ------- -- ---- --- --<br>------- ------,223406,223405.19999998808,221094.892,221106.39999997616,221111.195,223413.861,,28,rate.
screen,html.Screen,2_1_1_1_29,2022-02-15T13:06:46.471Z,,,,,,,,,,,,,,,,,54,,,,,,,,,,,,,,281.83899998807465,,response,,,,100,,,,,,,Space,keypress(Space),,,,,,,,-- --- ---- --- ------ ----- ------- ---- -- --- ------- --<br>------- ---------- ------ -- ----- -- ----- -- ---- ------<br>--- ----- --- --- ------ -------- ----- The ------ ----- --<br>----- ----- ---------- --- --- ------ ------ ---- -- ------<br>------- --- ------ ----- --- ---- ------- -- ---- --- --<br>------- ------,223696.59999996424,223695.69999998808,223397.359,223406.19999998808,223413.861,223714.425,,29,The
screen,html.Screen,2_1_1_1_30,2022-02-15T13:06:46.793Z,,,,,,,,,,,,,,,,,54,,,,,,,,,,,,,,303.9749999761698,,response,,,,100,,,,,,,Space,keypress(Space),,,,,,,,-- --- ---- --- ------ ----- ------- ---- -- --- ------- --<br>------- ---------- ------ -- ----- -- ----- -- ---- ------<br>--- ----- --- --- ------ -------- ----- --- market ----- --<br>----- ----- ---------- --- --- ------ ------ ---- -- ------<br>------- --- ------ ----- --- ---- ------- -- ---- --- --<br>------- ------,224019.30000001192,224018.39999997616,223681.075,223696.80000001192,223714.425,224031.038,,30,market
screen,html.Screen,2_1_1_1_31,2022-02-15T13:06:47.108Z,,,,,,,,,,,,,,,,,54,,,,,,,,,,,,,,302.06199996423675,,response,,,,100,,,,,,,Space,keypress(Space),,,,,,,,-- --- ---- --- ------ ----- ------- ---- -- --- ------- --<br>------- ---------- ------ -- ----- -- ----- -- ---- ------<br>--- ----- --- --- ------ -------- ----- --- ------ value --<br>----- ----- ---------- --- --- ------ ------ ---- -- ------<br>------- --- ------ ----- --- ---- ------- -- ---- --- --<br>------- ------,224333.89999997616,224333.09999996424,224014.78,224019.5,224031.038,224348.554,,31,value
screen,html.Screen,2_1_1_1_32,2022-02-15T13:06:47.410Z,,,,,,,,,,,,,,,,,54,,,,,,,,,,,,,,287.0459999642335,,response,,,,100,,,,,,,Space,keypress(Space),,,,,,,,-- --- ---- --- ------ ----- ------- ---- -- --- ------- --<br>------- ---------- ------ -- ----- -- ----- -- ---- ------<br>--- ----- --- --- ------ -------- ----- --- ------ ----- of<br>----- ----- ---------- --- --- ------ ------ ---- -- ------<br>------- --- ------ ----- --- ---- ------- -- ---- --- --<br>------- ------,224636.39999997616,224635.59999996424,224331.752,224334.19999998808,224348.554,224648.762,,32,of
screen,html.Screen,2_1_1_1_33,2022-02-15T13:06:47.737Z,,,,,,,,,,,,,,,,,54,,,,,,,,,,,,,,313.03800001193304,,response,,,,100,,,,,,,Space,keypress(Space),,,,,,,,-- --- ---- --- ------ ----- ------- ---- -- --- ------- --<br>------- ---------- ------ -- ----- -- ----- -- ---- ------<br>--- ----- --- --- ------ -------- ----- --- ------ ----- --<br>these ----- ---------- --- --- ------ ------ ---- -- ------<br>------- --- ------ ----- --- ---- ------- -- ---- --- --<br>------- ------,224962.69999998808,224961.80000001192,224631.868,224636.5,224648.762,224965.38,,33,these
screen,html.Screen,2_1_1_1_34,2022-02-15T13:06:48.069Z,,,,,,,,,,,,,,,,,54,,,,,,,,,,,,,,328.5199999761535,,response,,,,100,,,,,,,Space,keypress(Space),,,,,,,,-- --- ---- --- ------ ----- ------- ---- -- --- ------- --<br>------- ---------- ------ -- ----- -- ----- -- ---- ------<br>--- ----- --- --- ------ -------- ----- --- ------ ----- --<br>----- bonds ---------- --- --- ------ ------ ---- -- ------<br>------- --- ------ ----- --- ---- ------- -- ---- --- --<br>------- ------,225294.69999998808,225293.89999997616,224948.813,224962.89999997616,224965.38,225299.107,,34,bonds
screen,html.Screen,2_1_1_1_35,2022-02-15T13:06:48.555Z,,,,,,,,,,,,,,,,,54,,,,,,,,,,,,,,481.49299996424816,,response,,,,100,,,,,,,Space,keypress(Space),,,,,,,,"-- --- ---- --- ------ ----- ------- ---- -- --- ------- --<br>------- ---------- ------ -- ----- -- ----- -- ---- ------<br>--- ----- --- --- ------ -------- ----- --- ------ ----- --<br>----- ----- plummeted, --- --- ------ ------ ---- -- ------<br>------- --- ------ ----- --- ---- ------- -- ---- --- --<br>------- ------",225781.5,225780.59999996424,225282.842,225294.89999997616,225299.107,225807.985,,35,"plummeted,"
screen,html.Screen,2_1_1_1_36,2022-02-15T13:06:49.012Z,,,,,,,,,,,,,,,,,54,,,,,,,,,,,,,,429.4149999761721,,response,,,,100,,,,,,,Space,keypress(Space),,,,,,,,-- --- ---- --- ------ ----- ------- ---- -- --- ------- --<br>------- ---------- ------ -- ----- -- ----- -- ---- ------<br>--- ----- --- --- ------ -------- ----- --- ------ ----- --<br>----- ----- ---------- and --- ------ ------ ---- -- ------<br>------- --- ------ ----- --- ---- ------- -- ---- --- --<br>------- ------,226238.30000001192,226237.39999997616,225766.764,225781.59999996424,225807.985,226250.467,,36,and
screen,html.Screen,2_1_1_1_37,2022-02-15T13:06:49.318Z,,,,,,,,,,,,,,,,,54,,,,,,,,,,,,,,292.5329999999958,,response,,,,100,,,,,,,Space,keypress(Space),,,,,,,,-- --- ---- --- ------ ----- ------- ---- -- --- ------- --<br>------- ---------- ------ -- ----- -- ----- -- ---- ------<br>--- ----- --- --- ------ -------- ----- --- ------ ----- --<br>----- ----- ---------- --- the ------ ------ ---- -- ------<br>------- --- ------ ----- --- ---- ------- -- ---- --- --<br>------- ------,226543.80000001192,226543,226233.897,226238.39999997616,226250.467,226550.642,,37,the
screen,html.Screen,2_1_1_1_38,2022-02-15T13:06:49.585Z,,,,,,,,,,,,,,,,,54,,,,,,,,,,,,,,259.6580000119284,,response,,,,100,,,,,,,Space,keypress(Space),,,,,,,,-- --- ---- --- ------ ----- ------- ---- -- --- ------- --<br>------- ---------- ------ -- ----- -- ----- -- ---- ------<br>--- ----- --- --- ------ -------- ----- --- ------ ----- --<br>----- ----- ---------- --- --- market ------ ---- -- ------<br>------- --- ------ ----- --- ---- ------- -- ---- --- --<br>------- ------,226811.09999996424,226810.30000001192,226534.005,226544,226550.642,226817.538,,38,market
screen,html.Screen,2_1_1_1_39,2022-02-15T13:06:49.926Z,,,,,,,,,,,,,,,,,54,,,,,,,,,,,,,,334.26200001192046,,response,,,,100,,,,,,,Space,keypress(Space),,,,,,,,-- --- ---- --- ------ ----- ------- ---- -- --- ------- --<br>------- ---------- ------ -- ----- -- ----- -- ---- ------<br>--- ----- --- --- ------ -------- ----- --- ------ ----- --<br>----- ----- ---------- --- --- ------ became ---- -- ------<br>------- --- ------ ----- --- ---- ------- -- ---- --- --<br>------- ------,227152.5,227151.80000001192,226801.184,226811.30000001192,226817.538,227168.25,,39,became
screen,html.Screen,2_1_1_1_40,2022-02-15T13:06:50.227Z,,,,,,,,,,,,,,,,,54,,,,,,,,,,,,,,284.25,,response,,,,100,,,,,,,Space,keypress(Space),,,,,,,,-- --- ---- --- ------ ----- ------- ---- -- --- ------- --<br>------- ---------- ------ -- ----- -- ----- -- ---- ------<br>--- ----- --- --- ------ -------- ----- --- ------ ----- --<br>----- ----- ---------- --- --- ------ ------ wary -- ------<br>------- --- ------ ----- --- ---- ------- -- ---- --- --<br>------- ------,227453.30000001192,227452.5,227151.581,227152.59999996424,227168.25,227468.715,,40,wary
screen,html.Screen,2_1_1_1_41,2022-02-15T13:06:51.082Z,,,,,,,,,,,,,,,,,54,,,,,,,,,,,,,,838.6849999761616,,response,,,,100,,,,,,,Space,keypress(Space),,,,,,,,-- --- ---- --- ------ ----- ------- ---- -- --- ------- --<br>------- ---------- ------ -- ----- -- ----- -- ---- ------<br>--- ----- --- --- ------ -------- ----- --- ------ ----- --<br>----- ----- ---------- --- --- ------ ------ ---- of ------<br>------- --- ------ ----- --- ---- ------- -- ---- --- --<br>------- ------,228308.30000001192,228307.39999997616,227451.815,227453.5,227468.715,228319.542,,41,of
screen,html.Screen,2_1_1_1_42,2022-02-15T13:06:51.429Z,,,,,,,,,,,,,,,,,54,,,,,,,,,,,,,,334.45800000001327,,response,,,,100,,,,,,,Space,keypress(Space),,,,,,,,-- --- ---- --- ------ ----- ------- ---- -- --- ------- --<br>------- ---------- ------ -- ----- -- ----- -- ---- ------<br>--- ----- --- --- ------ -------- ----- --- ------ ----- --<br>----- ----- ---------- --- --- ------ ------ ---- -- French<br>------- --- ------ ----- --- ---- ------- -- ---- --- --<br>------- ------,228654.89999997616,228654,228302.455,228308.5,228319.542,228669.616,,42,French
screen,html.Screen,2_1_1_1_43,2022-02-15T13:06:53.059Z,,,,,,,,,,,,,,,,,54,,,,,,,,,,,,,,1614.783999976149,,response,,,,100,,,,,,,Space,keypress(Space),,,,,,,,-- --- ---- --- ------ ----- ------- ---- -- --- ------- --<br>------- ---------- ------ -- ----- -- ----- -- ---- ------<br>--- ----- --- --- ------ -------- ----- --- ------ ----- --<br>----- ----- ---------- --- --- ------ ------ ---- -- ------<br>credit. --- ------ ----- --- ---- ------- -- ---- --- --<br>------- ------,230285.09999996424,230284.39999997616,228653.092,228655.09999996424,228669.616,230287.975,,43,credit.
screen,html.Screen,2_1_1_1_44,2022-02-15T13:06:53.322Z,,,,,,,,,,,,,,,,,54,,,,,,,,,,,,,,258.8250000119151,,response,,,,100,,,,,,,Space,keypress(Space),,,,,,,,-- --- ---- --- ------ ----- ------- ---- -- --- ------- --<br>------- ---------- ------ -- ----- -- ----- -- ---- ------<br>--- ----- --- --- ------ -------- ----- --- ------ ----- --<br>----- ----- ---------- --- --- ------ ------ ---- -- ------<br>------- The ------ ----- --- ---- ------- -- ---- --- --<br>------- ------,230547.69999998808,230546.80000001192,230271.69,230285.39999997616,230287.975,230554.925,,44,The
screen,html.Screen,2_1_1_1_45,2022-02-15T13:06:53.643Z,,,,,,,,,,,,,,,,,54,,,,,,,,,,,,,,312.9749999761698,,response,,,,100,,,,,,,Space,keypress(Space),,,,,,,,-- --- ---- --- ------ ----- ------- ---- -- --- ------- --<br>------- ---------- ------ -- ----- -- ----- -- ---- ------<br>--- ----- --- --- ------ -------- ----- --- ------ ----- --<br>----- ----- ---------- --- --- ------ ------ ---- -- ------<br>------- --- French ----- --- ---- ------- -- ---- --- --<br>------- ------,230868.80000001192,230867.89999997616,230538.671,230547.89999997616,230554.925,230871.943,,45,French
screen,html.Screen,2_1_1_1_46,2022-02-15T13:06:53.926Z,,,,,,,,,,,,,,,,,54,,,,,,,,,,,,,,278.95699997615884,,response,,,,100,,,,,,,Space,keypress(Space),,,,,,,,-- --- ---- --- ------ ----- ------- ---- -- --- ------- --<br>------- ---------- ------ -- ----- -- ----- -- ---- ------<br>--- ----- --- --- ------ -------- ----- --- ------ ----- --<br>----- ----- ---------- --- --- ------ ------ ---- -- ------<br>------- --- ------ state --- ---- ------- -- ---- --- --<br>------- ------,231151.69999998808,231150.89999997616,230855.683,230869,230871.943,231155.599,,46,state
screen,html.Screen,2_1_1_1_47,2022-02-15T13:06:54.236Z,,,,,,,,,,,,,,,,,54,,,,,,,,,,,,,,306.0009999642498,,response,,,,100,,,,,,,Space,keypress(Space),,,,,,,,-- --- ---- --- ------ ----- ------- ---- -- --- ------- --<br>------- ---------- ------ -- ----- -- ----- -- ---- ------<br>--- ----- --- --- ------ -------- ----- --- ------ ----- --<br>----- ----- ---------- --- --- ------ ------ ---- -- ------<br>------- --- ------ ----- was ---- ------- -- ---- --- --<br>------- ------,231462.5,231461.59999996424,231139.166,231152,231155.599,231472.986,,47,was
screen,html.Screen,2_1_1_1_48,2022-02-15T13:06:54.563Z,,,,,,,,,,,,,,,,,54,,,,,,,,,,,,,,315.4139999761537,,response,,,,100,,,,,,,Space,keypress(Space),,,,,,,,-- --- ---- --- ------ ----- ------- ---- -- --- ------- --<br>------- ---------- ------ -- ----- -- ----- -- ---- ------<br>--- ----- --- --- ------ -------- ----- --- ------ ----- --<br>----- ----- ---------- --- --- ------ ------ ---- -- ------<br>------- --- ------ ----- --- left ------- -- ---- --- --<br>------- ------,231789.19999998808,231788.39999997616,231456.19,231462.69999998808,231472.986,231823.444,,48,left
screen,html.Screen,2_1_1_1_49,2022-02-15T13:06:54.817Z,,,,,,,,,,,,,,,,,54,,,,,,,,,,,,,,218.95599997616955,,response,,,,100,,,,,,,Space,keypress(Space),,,,,,,,-- --- ---- --- ------ ----- ------- ---- -- --- ------- --<br>------- ---------- ------ -- ----- -- ----- -- ---- ------<br>--- ----- --- --- ------ -------- ----- --- ------ ----- --<br>----- ----- ---------- --- --- ------ ------ ---- -- ------<br>------- --- ------ ----- --- ---- without -- ---- --- --<br>------- ------,232042.89999997616,232042.39999997616,231806.656,231789.39999997616,231823.444,232056.581,,49,without
screen,html.Screen,2_1_1_1_50,2022-02-15T13:06:55.149Z,,,,,,,,,,,,,,,,,54,,,,,,,,,,,,,,318.1189999880735,,response,,,,100,,,,,,,Space,keypress(Space),,,,,,,,-- --- ---- --- ------ ----- ------- ---- -- --- ------- --<br>------- ---------- ------ -- ----- -- ----- -- ---- ------<br>--- ----- --- --- ------ -------- ----- --- ------ ----- --<br>----- ----- ---------- --- --- ------ ------ ---- -- ------<br>------- --- ------ ----- --- ---- ------- an ---- --- --<br>------- ------,232375.30000001192,232374.69999998808,232040.385,232043,232056.581,232390.279,,50,an
screen,html.Screen,2_1_1_1_51,2022-02-15T13:06:55.466Z,,,,,,,,,,,,,,,,,54,,,,,,,,,,,,,,301.32099996422767,,response,,,,100,,,,,,,Space,keypress(Space),,,,,,,,-- --- ---- --- ------ ----- ------- ---- -- --- ------- --<br>------- ---------- ------ -- ----- -- ----- -- ---- ------<br>--- ----- --- --- ------ -------- ----- --- ------ ----- --<br>----- ----- ---------- --- --- ------ ------ ---- -- ------<br>------- --- ------ ----- --- ---- ------- -- easy --- --<br>------- ------,232692.19999998808,232691.59999996424,232373.583,232375.39999997616,232390.279,232707.339,,51,easy
screen,html.Screen,2_1_1_1_52,2022-02-15T13:06:55.793Z,,,,,,,,,,,,,,,,,54,,,,,,,,,,,,,,310.5609999761509,,response,,,,100,,,,,,,Space,keypress(Space),,,,,,,,-- --- ---- --- ------ ----- ------- ---- -- --- ------- --<br>------- ---------- ------ -- ----- -- ----- -- ---- ------<br>--- ----- --- --- ------ -------- ----- --- ------ ----- --<br>----- ----- ---------- --- --- ------ ------ ---- -- ------<br>------- --- ------ ----- --- ---- ------- -- ---- way --<br>------- ------,233018.69999998808,233017.89999997616,232690.608,232692.39999997616,232707.339,233024.343,,52,way
screen,html.Screen,2_1_1_1_53,2022-02-15T13:06:56.093Z,,,,,,,,,,,,,,,,,54,,,,,,,,,,,,,,293.95700001192745,,response,,,,100,,,,,,,Space,keypress(Space),,,,,,,,-- --- ---- --- ------ ----- ------- ---- -- --- ------- --<br>------- ---------- ------ -- ----- -- ----- -- ---- ------<br>--- ----- --- --- ------ -------- ----- --- ------ ----- --<br>----- ----- ---------- --- --- ------ ------ ---- -- ------<br>------- --- ------ ----- --- ---- ------- -- ---- --- of<br>------- ------,233319.09999996424,233318.30000001192,233008.072,233018.80000001192,233024.343,233324.722,,53,of
screen,html.Screen,2_1_1_1_54,2022-02-15T13:06:56.416Z,,,,,,,,,,,,,,,,,54,,,,,,,,,,,,,,316.87799996422837,,response,,,,100,,,,,,,Space,keypress(Space),,,,,,,,-- --- ---- --- ------ ----- ------- ---- -- --- ------- --<br>------- ---------- ------ -- ----- -- ----- -- ---- ------<br>--- ----- --- --- ------ -------- ----- --- ------ ----- --<br>----- ----- ---------- --- --- ------ ------ ---- -- ------<br>------- --- ------ ----- --- ---- ------- -- ---- --- --<br>raising ------,233642.5,233641.59999996424,233308.39,233320.19999998808,233324.722,233658.739,,54,raising
screen,html.Screen,2_1_1_1_55,2022-02-15T13:06:57.009Z,,,,,,,,,,,,,,,,,54,,,,,,,,,,,,,,575.8609999642358,,response,,,,100,,,,,,,Space,keypress(Space),,,,,,,,-- --- ---- --- ------ ----- ------- ---- -- --- ------- --<br>------- ---------- ------ -- ----- -- ----- -- ---- ------<br>--- ----- --- --- ------ -------- ----- --- ------ ----- --<br>----- ----- ---------- --- --- ------ ------ ---- -- ------<br>------- --- ------ ----- --- ---- ------- -- ---- --- --<br>------- money.,234235.39999997616,234234.59999996424,233642.161,233642.69999998808,233658.739,234242.386,,55,money.
Item 100,flow.Loop,2_1_1_1,2022-02-15T13:06:57.010Z,,,,,,,,,,,,,,,,,,,,,,,,,,,,,,,29441.612999964243,,completion,,,,,E,,,,,,,,,,,silence,,,,,234235.69999998808,234234.59999996424,204776.607,204777.39999997616,204792.987,234242.386,,,
Question 1,html.Screen,2_1_1_2,2022-02-15T13:07:22.644Z,,,,,,,,,,,,,,,,,,,,,,,,,,,,true,TRUE,,25626.114,,response,,,,100,E,,,,,,TRUE,click #choice-1,,,,silence,,,,,259869.5,259868.5,234225.721,234235.80000001192,234242.386,259870.895,,,
Question 2,html.Screen,2_1_1_3,2022-02-15T13:07:25.461Z,,,,,,,,,,,,,,,,,,,,,,,,,,,,true,FALSE,,2814.5049999761686,,response,,,,100,E,,,,,,FALSE,click #choice-2,,,,silence,,,,,262686.59999996424,262685.39999997616,259854.242,259869.69999998808,259870.895,262690.671,,,
Item 100,flow.Sequence,2_1_1,2022-02-15T13:07:25.461Z,,,,,,,,,,,,,,,,,,,,,,,,,,,,,,,67886.76899997616,,completion,,,,,,,,,,,,,,,,,,,,,262686.8000000119,262685.39999997616,194781.988,194786.19999998808,194798.631,262690.671,,,
End of Practice,html.Page,2_1_2,2022-02-15T13:07:30.585Z,,,,,,,,,,,,,,,,,,,,,,,,,,,,,,,5119.528999988106,,form submission,,,,,,,,,,,,,,,,,,,,,267810.59999996424,267810.1999999881,262674.531,262686.89999997616,262690.671,267813.321,,,
Practice,flow.Sequence,2_1,2022-02-15T13:07:30.585Z,,,,,,,,,,,,,,,,,,,,,,,,,,,,,,,120096.90499998807,,completion,,,,,,,,,,,,,,,,,,,,,267810.89999997616,267810.1999999881,147696.237,147703.19999998808,147713.295,267813.321,,,
Trap_instruction,html.Page,2_2_0,2022-02-15T13:07:35.276Z,,,,,,,,,,,,,,,,,,,,,,,,,,,,,,,4687.979000011925,,form submission,,,,,,,,,,,,,,,,,,,,,272501.6999999881,272501.3000000119,267796.415,267811,267813.321,272532.039,,,
trap_trial,html.Screen,2_2_1,2022-02-15T13:07:39.266Z,,,,,,,,,,,,,,,,,,,,,,,,,,,,true,1,,3958.0609999642475,,response,,,,,,,,,,,1,click #choice-1,,,,,,,,,276491.1999999881,276490.09999996424,272485.345,272501.89999997616,272532.039,276506.241,,,
end of trap trial,html.Page,2_2_2,2022-02-15T13:07:42.344Z,,,,,,,,,,,,,,,,,,,,,,,,,,,,,,,3062.458999988099,,form submission,,,,,,,,,,,,,,,,,,,,,279569.09999996424,279568.6999999881,276489.414,276491.3000000119,276506.241,279576.203,,,
Trap 1,flow.Sequence,2_2,2022-02-15T13:07:42.344Z,,,,,,,,,,,,,,,,,,,,,,,,,,,,,,,11755.378999988083,,completion,,,,,,,,,,,,,,,,,,,,,279569.3000000119,279568.6999999881,267796.415,267810.89999997616,267813.321,279576.203,,,
Standby,html.Page,2_3_0,2022-02-15T13:07:50.328Z,,,,,,,,,,,,,,,,,,,,,,,,,,,,,,,7992.177000000025,,timeout,,,,,,,,,,,,,,,,,,,,,287553.1999999881,287551.95,279559.493,279569.5,279576.203,287568.38,,,
Holding screen,html.Screen,2_3_1_0_0,2022-02-15T13:07:57.336Z,,,,,,,,,,,,,,,,,,,,,,,,,,,,,,,7007.915999999968,,timeout,,,,,,,,,,,,,,,,,,,,,294561.3000000119,294559.412,287551.95,287553.39999997616,287568.38,294576.296,,,
screen,html.Screen,2_3_1_0_1_0,2022-02-15T13:08:04.343Z,,,,,,,,,,,,,,,,,11,,,,,,,,,,,,,,7007.808000000019,,timeout,,,,4,E,,,,,,,,,,,lyrical,,,,Known -- ---- --- -- --- -------- ------------ ---------- --<br>- ------- ------ --------- -- ------------ -- --- ---- -----<br>------ ---- ---- ------ ------ ------- --- ----- ---------<br>---- --- -------- -------- --- --- -- ------- --- --- -----<br>-- --- ------ ------- --- --- -------- ---- --------- --<br>---------- -- -------- ----------------,301568.59999996424,301567.757,294559.412,294561.39999997616,294576.296,301584.104,,0,Known
screen,html.Screen,2_3_1_0_1_1,2022-02-15T13:08:05.044Z,,,,,,,,,,,,,,,,,11,,,,,,,,,,,,,,684.8960000000079,,response,,,,4,E,,,,,,Space,keypress(Space),,,,lyrical,,,,----- as ---- --- -- --- -------- ------------ ---------- --<br>- ------- ------ --------- -- ------------ -- --- ---- -----<br>------ ---- ---- ------ ------ ------- --- ----- ---------<br>---- --- -------- -------- --- --- -- ------- --- --- -----<br>-- --- ------ ------- --- --- -------- ---- --------- --<br>---------- -- -------- ----------------,302269.89999997616,302269,301567.757,301568.89999997616,301584.104,302284.944,,1,as
screen,html.Screen,2_3_1_0_1_2,2022-02-15T13:08:05.506Z,,,,,,,,,,,,,,,,,11,,,,,,,,,,,,,,445.7559999880614,,response,,,,4,E,,,,,,Space,keypress(Space),,,,lyrical,,,,----- -- Rapa --- -- --- -------- ------------ ---------- --<br>- ------- ------ --------- -- ------------ -- --- ---- -----<br>------ ---- ---- ------ ------ ------- --- ----- ---------<br>---- --- -------- -------- --- --- -- ------- --- --- -----<br>-- --- ------ ------- --- --- -------- ---- --------- --<br>---------- -- -------- ----------------,302731.39999997616,302730.6999999881,302268.5,302270.09999996424,302284.944,302735.227,,2,Rapa
screen,html.Screen,2_3_1_0_1_3,2022-02-15T13:08:06.120Z,,,,,,,,,,,,,,,,,11,,,,,,,,,,,,,,608.8729999642237,,response,,,,4,E,,,,,,Space,keypress(Space),,,,lyrical,,,,----- -- ---- Nui -- --- -------- ------------ ---------- --<br>- ------- ------ --------- -- ------------ -- --- ---- -----<br>------ ---- ---- ------ ------ ------- --- ----- ---------<br>---- --- -------- -------- --- --- -- ------- --- --- -----<br>-- --- ------ ------- --- --- -------- ---- --------- --<br>---------- -- -------- ----------------,303345.09999996424,303344.09999996424,302718.644,302731.59999996424,302735.227,303352.566,,3,Nui
screen,html.Screen,2_3_1_0_1_4,2022-02-15T13:08:06.546Z,,,,,,,,,,,,,,,,,11,,,,,,,,,,,,,,417.5339999642456,,response,,,,4,E,,,,,,Space,keypress(Space),,,,lyrical,,,,----- -- ---- --- to --- -------- ------------ ---------- --<br>- ------- ------ --------- -- ------------ -- --- ---- -----<br>------ ---- ---- ------ ------ ------- --- ----- ---------<br>---- --- -------- -------- --- --- -- ------- --- --- -----<br>-- --- ------ ------- --- --- -------- ---- --------- --<br>---------- -- -------- ----------------,303771,303770.09999996424,303335.964,303345.1999999881,303352.566,303786.455,,4,to
screen,html.Screen,2_3_1_0_1_5,2022-02-15T13:08:06.848Z,,,,,,,,,,,,,,,,,11,,,,,,,,,,,,,,286.0449999999837,,response,,,,4,E,,,,,,Space,keypress(Space),,,,lyrical,,,,----- -- ---- --- -- the -------- ------------ ---------- --<br>- ------- ------ --------- -- ------------ -- --- ---- -----<br>------ ---- ---- ------ ------ ------- --- ----- ---------<br>---- --- -------- -------- --- --- -- ------- --- --- -----<br>-- --- ------ ------- --- --- -------- ---- --------- --<br>---------- -- -------- ----------------,304073.3000000119,304072.5,303770.059,303771.39999997616,303786.455,304086.888,,5,the
screen,html.Screen,2_3_1_0_1_6,2022-02-15T13:08:07.288Z,,,,,,,,,,,,,,,,,11,,,,,,,,,,,,,,426.1120000000228,,response,,,,4,E,,,,,,Space,keypress(Space),,,,lyrical,,,,----- -- ---- --- -- --- island's ------------ ---------- --<br>- ------- ------ --------- -- ------------ -- --- ---- -----<br>------ ---- ---- ------ ------ ------- --- ----- ---------<br>---- --- -------- -------- --- --- -- ------- --- --- -----<br>-- --- ------ ------- --- --- -------- ---- --------- --<br>---------- -- -------- ----------------,304513.6999999881,304513,304070.398,304073.39999997616,304086.888,304520.472,,6,island's
screen,html.Screen,2_3_1_0_1_7,2022-02-15T13:08:08.648Z,,,,,,,,,,,,,,,,,11,,,,,,,,,,,,,,1352.6279999642284,,response,,,,4,E,,,,,,Space,keypress(Space),,,,lyrical,,,,"----- -- ---- --- -- --- -------- inhabitants, ---------- --<br>- ------- ------ --------- -- ------------ -- --- ---- -----<br>------ ---- ---- ------ ------ ------- --- ----- ---------<br>---- --- -------- -------- --- --- -- ------- --- --- -----<br>-- --- ------ ------- --- --- -------- ---- --------- --<br>---------- -- -------- ----------------",305873.8000000119,305873.09999996424,304504.348,304513.89999997616,304520.472,305888.718,,7,"inhabitants,"
screen,html.Screen,2_3_1_0_1_8,2022-02-15T13:08:10.020Z,,,,,,,,,,,,,,,,,11,,,,,,,,,,,,,,1355.6819999761647,,response,,,,4,E,,,,,,Space,keypress(Space),,,,lyrical,,,,----- -- ---- --- -- --- -------- ------------ Rongorongo --<br>- ------- ------ --------- -- ------------ -- --- ---- -----<br>------ ---- ---- ------ ------ ------- --- ----- ---------<br>---- --- -------- -------- --- --- -- ------- --- --- -----<br>-- --- ------ ------- --- --- -------- ---- --------- --<br>---------- -- -------- ----------------,307245.1999999881,307244.39999997616,305872.517,305874,305888.718,307257.018,,8,Rongorongo
screen,html.Screen,2_3_1_0_1_9,2022-02-15T13:08:10.391Z,,,,,,,,,,,,,,,,,11,,,,,,,,,,,,,,358.7820000119391,,response,,,,4,E,,,,,,Space,keypress(Space),,,,lyrical,,,,----- -- ---- --- -- --- -------- ------------ ---------- is<br>- ------- ------ --------- -- ------------ -- --- ---- -----<br>------ ---- ---- ------ ------ ------- --- ----- ---------<br>---- --- -------- -------- --- --- -- ------- --- --- -----<br>-- --- ------ ------- --- --- -------- ---- --------- --<br>---------- -- -------- ----------------,307616.6999999881,307615.8000000119,307240.256,307245.3000000119,307257.018,307624.177,,9,is
screen,html.Screen,2_3_1_0_1_10,2022-02-15T13:08:10.718Z,,,,,,,,,,,,,,,,,11,,,,,,,,,,,,,,318.222999976133,,response,,,,4,E,,,,,,Space,keypress(Space),,,,lyrical,,,,----- -- ---- --- -- --- -------- ------------ ---------- --<br>a ------- ------ --------- -- ------------ -- --- ---- -----<br>------ ---- ---- ------ ------ ------- --- ----- ---------<br>---- --- -------- -------- --- --- -- ------- --- --- -----<br>-- --- ------ ------- --- --- -------- ---- --------- --<br>---------- -- -------- ----------------,307943,307942.39999997616,307607.268,307616.8000000119,307624.177,307958.034,,10,a
screen,html.Screen,2_3_1_0_1_11,2022-02-15T13:08:11.094Z,,,,,,,,,,,,,,,,,11,,,,,,,,,,,,,,360.36599997617304,,response,,,,4,E,,,,,,Space,keypress(Space),,,,lyrical,,,,----- -- ---- --- -- --- -------- ------------ ---------- --<br>- writing ------ --------- -- ------------ -- --- ---- -----<br>------ ---- ---- ------ ------ ------- --- ----- ---------<br>---- --- -------- -------- --- --- -- ------- --- --- -----<br>-- --- ------ ------- --- --- -------- ---- --------- --<br>---------- -- -------- ----------------,308319.1999999881,308318.39999997616,307941.076,307943.1999999881,307958.034,308324.758,,11,writing
screen,html.Screen,2_3_1_0_1_12,2022-02-15T13:08:11.416Z,,,,,,,,,,,,,,,,,11,,,,,,,,,,,,,,315.44199998810655,,response,,,,4,E,,,,,,Space,keypress(Space),,,,lyrical,,,,----- -- ---- --- -- --- -------- ------------ ---------- --<br>- ------- system --------- -- ------------ -- --- ---- -----<br>------ ---- ---- ------ ------ ------- --- ----- ---------<br>---- --- -------- -------- --- --- -- ------- --- --- -----<br>-- --- ------ ------- --- --- -------- ---- --------- --<br>---------- -- -------- ----------------,308641.5,308640.1999999881,308308.54,308319.3000000119,308324.758,308658.592,,12,system
screen,html.Screen,2_3_1_0_1_13,2022-02-15T13:08:11.717Z,,,,,,,,,,,,,,,,,11,,,,,,,,,,,,,,282.6079999880749,,response,,,,4,E,,,,,,Space,keypress(Space),,,,lyrical,,,,----- -- ---- --- -- --- -------- ------------ ---------- --<br>- ------- ------ comprised -- ------------ -- --- ---- -----<br>------ ---- ---- ------ ------ ------- --- ----- ---------<br>---- --- -------- -------- --- --- -- ------- --- --- -----<br>-- --- ------ ------- --- --- -------- ---- --------- --<br>---------- -- -------- ----------------,308942.09999996424,308941.1999999881,308641.787,308641.59999996424,308658.592,308958.785,,13,comprised
screen,html.Screen,2_3_1_0_1_14,2022-02-15T13:08:12.058Z,,,,,,,,,,,,,,,,,11,,,,,,,,,,,,,,324.01500001194654,,response,,,,4,E,,,,,,Space,keypress(Space),,,,lyrical,,,,----- -- ---- --- -- --- -------- ------------ ---------- --<br>- ------- ------ --------- of ------------ -- --- ---- -----<br>------ ---- ---- ------ ------ ------- --- ----- ---------<br>---- --- -------- -------- --- --- -- ------- --- --- -----<br>-- --- ------ ------- --- --- -------- ---- --------- --<br>---------- -- -------- ----------------,309283.59999996424,309282.8000000119,308942.374,308942.1999999881,308958.785,309292.722,,14,of
screen,html.Screen,2_3_1_0_1_15,2022-02-15T13:08:14.497Z,,,,,,,,,,,,,,,,,11,,,,,,,,,,,,,,2429.1779999761493,,response,,,,4,E,,,,,,Space,keypress(Space),,,,lyrical,,,,----- -- ---- --- -- --- -------- ------------ ---------- --<br>- ------- ------ --------- -- pictographs. -- --- ---- -----<br>------ ---- ---- ------ ------ ------- --- ----- ---------<br>---- --- -------- -------- --- --- -- ------- --- --- -----<br>-- --- ------ ------- --- --- -------- ---- --------- --<br>---------- -- -------- ----------------,311723,311721.89999997616,309276.174,309283.6999999881,309292.722,311728.471,,15,pictographs.
screen,html.Screen,2_3_1_0_1_16,2022-02-15T13:08:14.939Z,,,,,,,,,,,,,,,,,11,,,,,,,,,,,,,,435.2289999880595,,response,,,,4,E,,,,,,Space,keypress(Space),,,,lyrical,,,,----- -- ---- --- -- --- -------- ------------ ---------- --<br>- ------- ------ --------- -- ------------ It --- ---- -----<br>------ ---- ---- ------ ------ ------- --- ----- ---------<br>---- --- -------- -------- --- --- -- ------- --- --- -----<br>-- --- ------ ------- --- --- -------- ---- --------- --<br>---------- -- -------- ----------------,312164.39999997616,312163.6999999881,311712.061,311723.09999996424,311728.471,312179.059,,16,It
screen,html.Screen,2_3_1_0_1_17,2022-02-15T13:08:15.240Z,,,,,,,,,,,,,,,,,11,,,,,,,,,,,,,,285.9409999999916,,response,,,,4,E,,,,,,Space,keypress(Space),,,,lyrical,,,,----- -- ---- --- -- --- -------- ------------ ---------- --<br>- ------- ------ --------- -- ------------ -- has ---- -----<br>------ ---- ---- ------ ------ ------- --- ----- ---------<br>---- --- -------- -------- --- --- -- ------- --- --- -----<br>-- --- ------ ------- --- --- -------- ---- --------- --<br>---------- -- -------- ----------------,312465.8000000119,312465,312162.593,312164.59999996424,312179.059,312479.785,,17,has
screen,html.Screen,2_3_1_0_1_18,2022-02-15T13:08:15.502Z,,,,,,,,,,,,,,,,,11,,,,,,,,,,,,,,246.51500001194654,,response,,,,4,E,,,,,,Space,keypress(Space),,,,lyrical,,,,----- -- ---- --- -- --- -------- ------------ ---------- --<br>- ------- ------ --------- -- ------------ -- --- been -----<br>------ ---- ---- ------ ------ ------- --- ----- ---------<br>---- --- -------- -------- --- --- -- ------- --- --- -----<br>-- --- ------ ------- --- --- -------- ---- --------- --<br>---------- -- -------- ----------------,312727.09999996424,312726.3000000119,312462.639,312466,312479.785,312729.697,,18,been
screen,html.Screen,2_3_1_0_1_19,2022-02-15T13:08:15.773Z,,,,,,,,,,,,,,,,,11,,,,,,,,,,,,,,268.10300001193536,,response,,,,4,E,,,,,,Space,keypress(Space),,,,lyrical,,,,----- -- ---- --- -- --- -------- ------------ ---------- --<br>- ------- ------ --------- -- ------------ -- --- ---- found<br>------ ---- ---- ------ ------ ------- --- ----- ---------<br>---- --- -------- -------- --- --- -- ------- --- --- -----<br>-- --- ------ ------- --- --- -------- ---- --------- --<br>---------- -- -------- ----------------,312998.8000000119,312997.8000000119,312713.179,312727.1999999881,312729.697,313013.284,,19,found
screen,html.Screen,2_3_1_0_1_20,2022-02-15T13:08:16.028Z,,,,,,,,,,,,,,,,,11,,,,,,,,,,,,,,239.81599996425211,,response,,,,4,E,,,,,,Space,keypress(Space),,,,lyrical,,,,----- -- ---- --- -- --- -------- ------------ ---------- --<br>- ------- ------ --------- -- ------------ -- --- ---- -----<br>carved ---- ---- ------ ------ ------- --- ----- ---------<br>---- --- -------- -------- --- --- -- ------- --- --- -----<br>-- --- ------ ------- --- --- -------- ---- --------- --<br>---------- -- -------- ----------------,313253.8000000119,313253.09999996424,312996.884,312999,313013.284,313263.713,,20,carved
screen,html.Screen,2_3_1_0_1_21,2022-02-15T13:08:16.359Z,,,,,,,,,,,,,,,,,11,,,,,,,,,,,,,,320.3869999642484,,response,,,,4,E,,,,,,Space,keypress(Space),,,,lyrical,,,,----- -- ---- --- -- --- -------- ------------ ---------- --<br>- ------- ------ --------- -- ------------ -- --- ---- -----<br>------ into ---- ------ ------ ------- --- ----- ---------<br>---- --- -------- -------- --- --- -- ------- --- --- -----<br>-- --- ------ ------- --- --- -------- ---- --------- --<br>---------- -- -------- ----------------,313585,313584.09999996424,313247.087,313253.89999997616,313263.713,313597.458,,21,into
screen,html.Screen,2_3_1_0_1_22,2022-02-15T13:08:16.626Z,,,,,,,,,,,,,,,,,11,,,,,,,,,,,,,,253.54200000001583,,response,,,,4,E,,,,,,Space,keypress(Space),,,,lyrical,,,,----- -- ---- --- -- --- -------- ------------ ---------- --<br>- ------- ------ --------- -- ------------ -- --- ---- -----<br>------ ---- many ------ ------ ------- --- ----- ---------<br>---- --- -------- -------- --- --- -- ------- --- --- -----<br>-- --- ------ ------- --- --- -------- ---- --------- --<br>---------- -- -------- ----------------,313851.8000000119,313851,313580.686,313585.09999996424,313597.458,313864.786,,22,many
screen,html.Screen,2_3_1_0_1_23,2022-02-15T13:08:16.933Z,,,,,,,,,,,,,,,,,11,,,,,,,,,,,,,,292.9139999880572,,response,,,,4,E,,,,,,Space,keypress(Space),,,,lyrical,,,,----- -- ---- --- -- --- -------- ------------ ---------- --<br>- ------- ------ --------- -- ------------ -- --- ---- -----<br>------ ---- ---- oblong ------ ------- --- ----- ---------<br>---- --- -------- -------- --- --- -- ------- --- --- -----<br>-- --- ------ ------- --- --- -------- ---- --------- --<br>---------- -- -------- ----------------,314158.5,314157.6999999881,313847.925,313852,313864.786,314164.613,,23,oblong
screen,html.Screen,2_3_1_0_1_24,2022-02-15T13:08:17.319Z,,,,,,,,,,,,,,,,,11,,,,,,,,,,,,,,379.08699998806696,,response,,,,4,E,,,,,,Space,keypress(Space),,,,lyrical,,,,----- -- ---- --- -- --- -------- ------------ ---------- --<br>- ------- ------ --------- -- ------------ -- --- ---- -----<br>------ ---- ---- ------ wooden ------- --- ----- ---------<br>---- --- -------- -------- --- --- -- ------- --- --- -----<br>-- --- ------ ------- --- --- -------- ---- --------- --<br>---------- -- -------- ----------------,314544.59999996424,314543.6999999881,314147.838,314158.59999996424,314164.613,314548.325,,24,wooden
screen,html.Screen,2_3_1_0_1_25,2022-02-15T13:08:17.781Z,,,,,,,,,,,,,,,,,11,,,,,,,,,,,,,,457.37499998806743,,response,,,,4,E,,,,,,Space,keypress(Space),,,,lyrical,,,,----- -- ---- --- -- --- -------- ------------ ---------- --<br>- ------- ------ --------- -- ------------ -- --- ---- -----<br>------ ---- ---- ------ ------ tablets --- ----- ---------<br>---- --- -------- -------- --- --- -- ------- --- --- -----<br>-- --- ------ ------- --- --- -------- ---- --------- --<br>---------- -- -------- ----------------,315006.5,315005.6999999881,314531.917,314544.6999999881,314548.325,315015.673,,25,tablets
screen,html.Screen,2_3_1_0_1_26,2022-02-15T13:08:18.077Z,,,,,,,,,,,,,,,,,11,,,,,,,,,,,,,,285.92699996422743,,response,,,,4,E,,,,,,Space,keypress(Space),,,,lyrical,,,,----- -- ---- --- -- --- -------- ------------ ---------- --<br>- ------- ------ --------- -- ------------ -- --- ---- -----<br>------ ---- ---- ------ ------ ------- and ----- ---------<br>---- --- -------- -------- --- --- -- ------- --- --- -----<br>-- --- ------ ------- --- --- -------- ---- --------- --<br>---------- -- -------- ----------------,315302.39999997616,315301.59999996424,314999.276,315006.5,315015.673,315315.972,,26,and
screen,html.Screen,2_3_1_0_1_27,2022-02-15T13:08:18.304Z,,,,,,,,,,,,,,,,,11,,,,,,,,,,,,,,212.32800001191208,,response,,,,4,E,,,,,,Space,keypress(Space),,,,lyrical,,,,----- -- ---- --- -- --- -------- ------------ ---------- --<br>- ------- ------ --------- -- ------------ -- --- ---- -----<br>------ ---- ---- ------ ------ ------- --- other ---------<br>---- --- -------- -------- --- --- -- ------- --- --- -----<br>-- --- ------ ------- --- --- -------- ---- --------- --<br>---------- -- -------- ----------------,315529,315528.3000000119,315299.174,315302.5,315315.972,315532.743,,27,other
screen,html.Screen,2_3_1_0_1_28,2022-02-15T13:08:18.681Z,,,,,,,,,,,,,,,,,11,,,,,,,,,,,,,,373.05700001190417,,response,,,,4,E,,,,,,Space,keypress(Space),,,,lyrical,,,,----- -- ---- --- -- --- -------- ------------ ---------- --<br>- ------- ------ --------- -- ------------ -- --- ---- -----<br>------ ---- ---- ------ ------ ------- --- ----- artifacts<br>---- --- -------- -------- --- --- -- ------- --- --- -----<br>-- --- ------ ------- --- --- -------- ---- --------- --<br>---------- -- -------- ----------------,315906.59999996424,315905.8000000119,315516.517,315529.1999999881,315532.743,315916.855,,28,artifacts
screen,html.Screen,2_3_1_0_1_29,2022-02-15T13:08:18.987Z,,,,,,,,,,,,,,,,,11,,,,,,,,,,,,,,295.24499996425584,,response,,,,4,E,,,,,,Space,keypress(Space),,,,lyrical,,,,----- -- ---- --- -- --- -------- ------------ ---------- --<br>- ------- ------ --------- -- ------------ -- --- ---- -----<br>------ ---- ---- ------ ------ ------- --- ----- ---------<br>from --- -------- -------- --- --- -- ------- --- --- -----<br>-- --- ------ ------- --- --- -------- ---- --------- --<br>---------- -- -------- ----------------,316212.89999997616,316212.09999996424,315899.925,315906.89999997616,315916.855,316216.833,,29,from
screen,html.Screen,2_3_1_0_1_30,2022-02-15T13:08:19.254Z,,,,,,,,,,,,,,,,,11,,,,,,,,,,,,,,261.46700001193676,,response,,,,4,E,,,,,,Space,keypress(Space),,,,lyrical,,,,----- -- ---- --- -- --- -------- ------------ ---------- --<br>- ------- ------ --------- -- ------------ -- --- ---- -----<br>------ ---- ---- ------ ------ ------- --- ----- ---------<br>---- the -------- -------- --- --- -- ------- --- --- -----<br>-- --- ------ ------- --- --- -------- ---- --------- --<br>---------- -- -------- ----------------,316479.1999999881,316478.3000000119,316200.236,316213,316216.833,316483.787,,30,the
screen,html.Screen,2_3_1_0_1_31,2022-02-15T13:08:19.600Z,,,,,,,,,,,,,,,,,11,,,,,,,,,,,,,,340.4129999880679,,response,,,,4,E,,,,,,Space,keypress(Space),,,,lyrical,,,,----- -- ---- --- -- --- -------- ------------ ---------- --<br>- ------- ------ --------- -- ------------ -- --- ---- -----<br>------ ---- ---- ------ ------ ------- --- ----- ---------<br>---- --- island's -------- --- --- -- ------- --- --- -----<br>-- --- ------ ------- --- --- -------- ---- --------- --<br>---------- -- -------- ----------------,316825.09999996424,316824.1999999881,316467.469,316479.3000000119,316483.787,316834.177,,31,island's
screen,html.Screen,2_3_1_0_1_32,2022-02-15T13:08:21.773Z,,,,,,,,,,,,,,,,,11,,,,,,,,,,,,,,2162.922999964212,,response,,,,4,E,,,,,,Space,keypress(Space),,,,lyrical,,,,----- -- ---- --- -- --- -------- ------------ ---------- --<br>- ------- ------ --------- -- ------------ -- --- ---- -----<br>------ ---- ---- ------ ------ ------- --- ----- ---------<br>---- --- -------- history. --- --- -- ------- --- --- -----<br>-- --- ------ ------- --- --- -------- ---- --------- --<br>---------- -- -------- ----------------,318998.1999999881,318997.09999996424,316817.688,316825.1999999881,316834.177,319003.216,,32,history.
screen,html.Screen,2_3_1_0_1_33,2022-02-15T13:08:22.088Z,,,,,,,,,,,,,,,,,11,,,,,,,,,,,,,,309.7839999999851,,response,,,,4,E,,,,,,Space,keypress(Space),,,,lyrical,,,,----- -- ---- --- -- --- -------- ------------ ---------- --<br>- ------- ------ --------- -- ------------ -- --- ---- -----<br>------ ---- ---- ------ ------ ------- --- ----- ---------<br>---- --- -------- -------- The --- -- ------- --- --- -----<br>-- --- ------ ------- --- --- -------- ---- --------- --<br>---------- -- -------- ----------------,319313.8000000119,319313,318987.161,318998.3000000119,319003.216,319320.33,,33,The
screen,html.Screen,2_3_1_0_1_34,2022-02-15T13:08:22.360Z,,,,,,,,,,,,,,,,,11,,,,,,,,,,,,,,264.06999997614184,,response,,,,4,E,,,,,,Space,keypress(Space),,,,lyrical,,,,----- -- ---- --- -- --- -------- ------------ ---------- --<br>- ------- ------ --------- -- ------------ -- --- ---- -----<br>------ ---- ---- ------ ------ ------- --- ----- ---------<br>---- --- -------- -------- --- art -- ------- --- --- -----<br>-- --- ------ ------- --- --- -------- ---- --------- --<br>---------- -- -------- ----------------,319585.3000000119,319584.39999997616,319303.645,319313.89999997616,319320.33,319587.202,,34,art
screen,html.Screen,2_3_1_0_1_35,2022-02-15T13:08:22.681Z,,,,,,,,,,,,,,,,,11,,,,,,,,,,,,,,318.397999964247,,response,,,,4,E,,,,,,Space,keypress(Space),,,,lyrical,,,,----- -- ---- --- -- --- -------- ------------ ---------- --<br>- ------- ------ --------- -- ------------ -- --- ---- -----<br>------ ---- ---- ------ ------ ------- --- ----- ---------<br>---- --- -------- -------- --- --- of ------- --- --- -----<br>-- --- ------ ------- --- --- -------- ---- --------- --<br>---------- -- -------- ----------------,319906.59999996424,319905.59999996424,319570.959,319585.39999997616,319587.202,319921.35,,35,of
screen,html.Screen,2_3_1_0_1_36,2022-02-15T13:08:23.023Z,,,,,,,,,,,,,,,,,11,,,,,,,,,,,,,,326.34999998810235,,response,,,,4,E,,,,,,Space,keypress(Space),,,,lyrical,,,,----- -- ---- --- -- --- -------- ------------ ---------- --<br>- ------- ------ --------- -- ------------ -- --- ---- -----<br>------ ---- ---- ------ ------ ------- --- ----- ---------<br>---- --- -------- -------- --- --- -- writing --- --- -----<br>-- --- ------ ------- --- --- -------- ---- --------- --<br>---------- -- -------- ----------------,320248.5,320247.6999999881,319904.694,319906.6999999881,319921.35,320254.613,,36,writing
screen,html.Screen,2_3_1_0_1_37,2022-02-15T13:08:23.331Z,,,,,,,,,,,,,,,,,11,,,,,,,,,,,,,,300.1870000119088,,response,,,,4,E,,,,,,Space,keypress(Space),,,,lyrical,,,,----- -- ---- --- -- --- -------- ------------ ---------- --<br>- ------- ------ --------- -- ------------ -- --- ---- -----<br>------ ---- ---- ------ ------ ------- --- ----- ---------<br>---- --- -------- -------- --- --- -- ------- was --- -----<br>-- --- ------ ------- --- --- -------- ---- --------- --<br>---------- -- -------- ----------------,320556,320554.8000000119,320238.404,320248.59999996424,320254.613,320572.043,,37,was
screen,html.Screen,2_3_1_0_1_38,2022-02-15T13:08:23.586Z,,,,,,,,,,,,,,,,,11,,,,,,,,,,,,,,238.45699999999488,,response,,,,4,E,,,,,,Space,keypress(Space),,,,lyrical,,,,----- -- ---- --- -- --- -------- ------------ ---------- --<br>- ------- ------ --------- -- ------------ -- --- ---- -----<br>------ ---- ---- ------ ------ ------- --- ----- ---------<br>---- --- -------- -------- --- --- -- ------- --- not -----<br>-- --- ------ ------- --- --- -------- ---- --------- --<br>---------- -- -------- ----------------,320811.39999997616,320810.5,320555.352,320556.1999999881,320572.043,320822.014,,38,not
screen,html.Screen,2_3_1_0_1_39,2022-02-15T13:08:23.892Z,,,,,,,,,,,,,,,,,11,,,,,,,,,,,,,,294.88599997613346,,response,,,,4,E,,,,,,Space,keypress(Space),,,,lyrical,,,,----- -- ---- --- -- --- -------- ------------ ---------- --<br>- ------- ------ --------- -- ------------ -- --- ---- -----<br>------ ---- ---- ------ ------ ------- --- ----- ---------<br>---- --- -------- -------- --- --- -- ------- --- --- known<br>-- --- ------ ------- --- --- -------- ---- --------- --<br>---------- -- -------- ----------------,321117.8000000119,321116.89999997616,320805.602,320811.5,320822.014,321122.242,,39,known
