sender,sender_type,sender_id,timestamp,meta,,Blues,Classical,Country,Dance,Electronic,Folk,Gospel,Hip-Hop,Jazz,Latin,Musical/Film,New-age,Pop,Prolific_id,Provo_ID,R&B,Rap,Reggae,Religious,Rock,Soul,Swing,Traditional,age,artist_name,correct,correctResponse,distraction,duration,education,ended_on,familiarity,gender,headphone_check_performance,item,list,music_frequency,offensiveness,pleasantness,position_correct,preference,response,response_action,snippet_file,song_name,song_rating,sound,stimulus_1,stimulus_2,stimulus_3,text,time_commit,time_end,time_render,time_run,time_show,time_switch,url,word,word_ID
Prolific ID,html.Form,0,2022-02-17T12:57:50.843Z,"{""labjs_version"":""20.2.2"",""labjs_build"":{""flavor"":""production"",""commit"":""a25486e0c714a0ae2ce03ff94b7bb6896854dcfa""},""location"":""https://run.pavlovia.org/mvasilev/prolific2_music_d/"",""userAgent"":""Mozilla/5.0 (Macintosh; Intel Mac OS X 10_11_6) AppleWebKit/537.36 (KHTML, like Gecko) Chrome/97.0.4692.99 Safari/537.36"",""platform"":""MacIntel"",""language"":""en-US"",""locale"":""en-US"",""timeZone"":""Europe/London"",""timezoneOffset"":0,""screen_width"":1440,""screen_height"":900,""scroll_width"":1440,""scroll_height"":694,""window_innerWidth"":1440,""window_innerHeight"":742,""devicePixelRatio"":1}",,,,,,,,,,,,,,,5d0245966e208b0017301561,,,,,,,,,,,,,,,7135.979000011921,,form submission,,,,,,,,,,,,,,,,,,,,,22160.100000023842,22159.30000001192,14989.899,14991.300000011921,15023.321,22175.86,{},,
Introduction,html.Screen,1_0,2022-02-17T12:57:55.359Z,,,,,,,,,,,,,,,,,,,,,,,,,,,,,,,4495.44000001192,,response,,,,,,,,,,,continue,click button,,,,,,,,,26676.30000001192,26671.30000001192,22159.149,22160.600000023842,22175.86,26687.83,,,
Volume calibration,html.Screen,1_1,2022-02-17T12:58:09.289Z,,,,,,,,,,,,,,,,,,,,,,,,,,,,,,,13908.870000047682,,response,,,,,,,,,,,continue,click button,,,,,,,,,40605.200000047684,40596.700000047684,26671.119,26676.600000023842,26687.83,40625.273,,,
Task instructions,html.Screen,1_2,2022-02-17T12:58:14.278Z,,,,,,,,,,,,,,,,,,,,,,,,,,,,,,,4967.327000023841,,response,,,,,,,,,,,continue,click button,,,,,,,,,45594.700000047684,45592.60000002384,40608.562,40605.40000003576,40625.273,45605.151,,,
Sounds,html.Screen,1_3_0_0,2022-02-17T12:58:18.522Z,,,,,,,,,,,,,,,,,,,,,,,,,,,,,,,4244.594000000005,,timeout,,,,,,,,,2,,,,,,,,I,S,O,,49838.5,49833.034,45588.44,45595.200000047684,45605.151,49849.745,,,
Judgement,html.Screen,1_3_0_1,2022-02-17T12:58:21.126Z,,,,,,,,,,,,,,,,,,,,,,,,,,,,false,2,,2589.955000047681,,response,,,,,,,,,2,,1,click #choice-1,,,,,I,S,O,,52442,52439.700000047684,49833.034,49838.80000001192,49849.745,52456.862,,,
Trial,flow.Sequence,1_3_0,2022-02-17T12:58:21.127Z,,,,,,,,,,,,,,,,,,,,,,,,,,,,,,,6834.549000047686,,completion,,,,,,,,,2,,,,,,,,I,S,O,,52442.80000001192,52439.700000047684,45588.44,45595,45605.151,52456.862,,,
Sounds,html.Screen,1_3_1_0,2022-02-17T12:58:25.371Z,,,,,,,,,,,,,,,,,,,,,,,,,,,,,,,4244.593999999997,,timeout,,,,,,,,,2,,,,,,,,O,S,I,,56686.60000002384,56684.745,52440.151,52443.30000001192,52456.862,56701.456,,,
Judgement,html.Screen,1_3_1_1,2022-02-17T12:58:25.975Z,,,,,,,,,,,,,,,,,,,,,,,,,,,,true,2,,587.6440000238435,,response,,,,,,,,,2,,2,click #choice-2,,,,,O,S,I,,57291.60000002384,57289.10000002384,56684.745,56686.80000001192,56701.456,57303.052,,,
Trial,flow.Sequence,1_3_1,2022-02-17T12:58:25.976Z,,,,,,,,,,,,,,,,,,,,,,,,,,,,,,,4832.238000023841,,completion,,,,,,,,,2,,,,,,,,O,S,I,,57291.90000003576,57289.10000002384,52440.151,52443,52456.862,57303.052,,,
Sounds,html.Screen,1_3_2_0,2022-02-17T12:58:30.217Z,,,,,,,,,,,,,,,,,,,,,,,,,,,,,,,4244.593999999997,,timeout,,,,,,,,,1,,,,,,,,S,O,I,,61533,61530.935,57286.341,57292.200000047684,57303.052,61547.646,,,
Judgement,html.Screen,1_3_2_1,2022-02-17T12:58:30.778Z,,,,,,,,,,,,,,,,,,,,,,,,,,,,true,1,,543.8539999999994,,response,,,,,,,,,1,,1,click #choice-1,,,,,S,O,I,,62093.700000047684,62091.5,61530.935,61533.200000047684,61547.646,62116.029,,,
Trial,flow.Sequence,1_3_2,2022-02-17T12:58:30.778Z,,,,,,,,,,,,,,,,,,,,,,,,,,,,,,,4788.447999999997,,completion,,,,,,,,,1,,,,,,,,S,O,I,,62094.10000002384,62091.5,57286.341,57292.200000047684,57303.052,62116.029,,,
Sounds,html.Screen,1_3_3_0,2022-02-17T12:58:35.030Z,,,,,,,,,,,,,,,,,,,,,,,,,,,,,,,4244.594000000005,,timeout,,,,,,,,,3,,,,,,,,O,I,S,,66346.20000004768,66343.912,62099.318,62094.30000001192,62116.029,66360.623,,,
Judgement,html.Screen,1_3_3_1,2022-02-17T12:58:35.702Z,,,,,,,,,,,,,,,,,,,,,,,,,,,,true,3,,654.5770000476768,,response,,,,,,,,,3,,3,click #choice-3,,,,,O,I,S,,67017.80000001192,67015.20000004768,66343.912,66346.40000003576,66360.623,67029.063,,,
Trial,flow.Sequence,1_3_3,2022-02-17T12:58:35.702Z,,,,,,,,,,,,,,,,,,,,,,,,,,,,,,,4899.171000047681,,completion,,,,,,,,,3,,,,,,,,O,I,S,,67018.20000004768,67015.20000004768,62099.318,62094.30000001192,62116.029,67029.063,,,
Sounds,html.Screen,1_3_4_0,2022-02-17T12:58:39.943Z,,,,,,,,,,,,,,,,,,,,,,,,,,,,,,,4244.594000000012,,timeout,,,,,,,,,3,,,,,,,,I,O,S,,71259.10000002384,71256.946,67012.352,67018.60000002384,67029.063,71273.657,,,
Judgement,html.Screen,1_3_4_1,2022-02-17T12:58:40.454Z,,,,,,,,,,,,,,,,,,,,,,,,,,,,true,3,,493.94300002383534,,response,,,,,,,,,3,,3,click #choice-3,,,,,I,O,S,,71769.90000003576,71767.60000002384,71256.946,71259.20000004768,71273.657,71791.698,,,
Trial,flow.Sequence,1_3_4,2022-02-17T12:58:40.455Z,,,,,,,,,,,,,,,,,,,,,,,,,,,,,,,4738.537000023847,,completion,,,,,,,,,3,,,,,,,,I,O,S,,71770.20000004768,71767.60000002384,67012.352,67018.40000003576,67029.063,71791.698,,,
Sounds,html.Screen,1_3_5_0,2022-02-17T12:58:44.706Z,,,,,,,,,,,,,,,,,,,,,,,,,,,,,,,4244.593999999997,,timeout,,,,,,,,,1,,,,,,,,S,I,O,,76021.5,76019.581,71774.987,71770.40000003576,71791.698,76036.292,,,
Judgement,html.Screen,1_3_5_1,2022-02-17T12:58:45.147Z,,,,,,,,,,,,,,,,,,,,,,,,,,,,true,1,,424.7079999999987,,response,,,,,,,,,1,,1,click #choice-1,,,,,S,I,O,,76462.60000002384,76461,76019.581,76021.70000004768,76036.292,76487.672,,,
Trial,flow.Sequence,1_3_5,2022-02-17T12:58:45.147Z,,,,,,,,,,,,,,,,,,,,,,,,,,,,,,,4669.301999999996,,completion,,,,,,,,,1,,,,,,,,S,I,O,,76462.80000001192,76461,71774.987,71770.40000003576,71791.698,76487.672,,,
Task,flow.Loop,1_3,2022-02-17T12:58:45.154Z,,,,,,,,,,,,,,,,,,,,,,,,,,,,,,,30855.849000000002,,completion,,,0.8333333333333334,,,,,,,,,,,,,,,,,,76469.80000001192,76461,45588.44,45594.90000003576,45605.151,76487.672,,,
Trap,html.Screen,1_4,2022-02-17T12:58:45.157Z,,,,,,,,,,,,,,,,,,,,,,,,,,,,,,,NaN,,skipped,,,,,,,,,,,,,,,,,,,,,76472.20000004768,76461,,76471.90000003576,,76487.672,,,
Thanks,html.Screen,1_5,2022-02-17T13:12:21.641Z,,,,,,,,,,,,,,,,,,,,,,,,,,,,,,,816427.1280000119,,response,,,,,,,,,,,continue,click button,,,,,,,,,892930.4000000358,892914.8000000119,76470.961,76472.30000001192,76487.672,895525.244,,,
Headphone screening,flow.Sequence,1,2022-02-17T13:12:21.642Z,,,,,,,,,,,,,,,,,,,,,,,,,,,,,,,870738.9400000119,,completion,,,,,,,,,,,,,,,,,,,,,892931.9000000358,892914.8000000119,22159.149,22160.600000023842,22175.86,895525.244,,,
Instructions,html.Page,2_0,2022-02-17T13:12:34.877Z,,,,,,,,,,,,,,,,,,,,,,,,,,,,,,,10640.256000000052,,form submission,,,,,,,,,,,,,,,,,,,,,906166.2000000477,906165.5,895508.533,895529.6000000238,895525.244,906186.862,,,
Holding screen,html.Screen,2_1_0_0,2022-02-17T13:12:44.876Z,,,,,,,,,,,,,,,,,,,,,,,,,,,,,,,10010.126999999979,,timeout,,,,,,,,,,,,,,,,,,,,,916165,916163.567,906170.151,906167,906186.862,916196.989,,,
screen,html.Screen,2_1_0_1_0,2022-02-17T13:12:45.870Z,,,,,,,,,,,,,,,,,53,,,,,,,,,,,,,,946.4110000358196,,response,,,,99,,,,,,,Space,keypress(Space),,,,,,,,When -- ----- -- ------ - ------- --- ----------<br>------------- ------ ------ ---- ---- ------- ----- -- ----<br>-------- ------- -- ---------- --- - --- ----- ----- ----<br>---- --- --- ----- --- ---- ---- ------- ----- ---- -------<br>--- --- -- ----- -- --- ---- -- --- ---- -- ------ ------<br>--- ----- -- ----,917159.7000000477,917143.4000000358,916163.567,916165.4000000358,916196.989,917166.227,,0,When
screen,html.Screen,2_1_0_1_1,2022-02-17T13:12:46.386Z,,,,,,,,,,,,,,,,,53,,,,,,,,,,,,,,507.07300001196563,,response,,,,99,,,,,,,Space,keypress(Space),,,,,,,,---- it ----- -- ------ - ------- --- ----------<br>------------- ------ ------ ---- ---- ------- ----- -- ----<br>-------- ------- -- ---------- --- - --- ----- ----- ----<br>---- --- --- ----- --- ---- ---- ------- ----- ---- -------<br>--- --- -- ----- -- --- ---- -- --- ---- -- ------ ------<br>--- ----- -- ----,917675.5,917673.3000000119,917149.516,917159.9000000358,917166.227,917684.465,,1,it
screen,html.Screen,2_1_0_1_2,2022-02-17T13:12:46.877Z,,,,,,,,,,,,,,,,,53,,,,,,,,,,,,,,479.7350000477163,,response,,,,99,,,,,,,Space,keypress(Space),,,,,,,,---- -- comes -- ------ - ------- --- ----------<br>------------- ------ ------ ---- ---- ------- ----- -- ----<br>-------- ------- -- ---------- --- - --- ----- ----- ----<br>---- --- --- ----- --- ---- ---- ------- ----- ---- -------<br>--- --- -- ----- -- --- ---- -- --- ---- -- ------ ------<br>--- ----- -- ----,918166.1000000238,918164.2000000477,917667.754,917675.7000000477,917684.465,918169.084,,2,comes
screen,html.Screen,2_1_0_1_3,2022-02-17T13:12:47.382Z,,,,,,,,,,,,,,,,,53,,,,,,,,,,,,,,500.11600004765205,,response,,,,99,,,,,,,Space,keypress(Space),,,,,,,,---- -- ----- to ------ - ------- --- ----------<br>------------- ------ ------ ---- ---- ------- ----- -- ----<br>-------- ------- -- ---------- --- - --- ----- ----- ----<br>---- --- --- ----- --- ---- ---- ------- ----- ---- -------<br>--- --- -- ----- -- --- ---- -- --- ---- -- ------ ------<br>--- ----- -- ----,918671.1000000238,918669.2000000477,918152.373,918166.3000000119,918169.084,918687.125,,3,to
screen,html.Screen,2_1_0_1_4,2022-02-17T13:12:47.827Z,,,,,,,,,,,,,,,,,53,,,,,,,,,,,,,,426.875,,response,,,,99,,,,,,,Space,keypress(Space),,,,,,,,---- -- ----- -- having - ------- --- ----------<br>------------- ------ ------ ---- ---- ------- ----- -- ----<br>-------- ------- -- ---------- --- - --- ----- ----- ----<br>---- --- --- ----- --- ---- ---- ------- ----- ---- -------<br>--- --- -- ----- -- --- ---- -- --- ---- -- ------ ------<br>--- ----- -- ----,919116,919114,918670.414,918671.2000000477,918687.125,919121.611,,4,having
screen,html.Screen,2_1_0_1_5,2022-02-17T13:12:48.237Z,,,,,,,,,,,,,,,,,53,,,,,,,,,,,,,,402.48900002380833,,response,,,,99,,,,,,,Space,keypress(Space),,,,,,,,---- -- ----- -- ------ a ------- --- ----------<br>------------- ------ ------ ---- ---- ------- ----- -- ----<br>-------- ------- -- ---------- --- - --- ----- ----- ----<br>---- --- --- ----- --- ---- ---- ------- ----- ---- -------<br>--- --- -- ----- -- --- ---- -- --- ---- -- ------ ------<br>--- ----- -- ----,919525.9000000358,919524.1000000238,919104.9,919116.1000000238,919121.611,919539.386,,5,a
screen,html.Screen,2_1_0_1_6,2022-02-17T13:12:48.769Z,,,,,,,,,,,,,,,,,53,,,,,,,,,,,,,,516.714000023785,,response,,,,99,,,,,,,Space,keypress(Space),,,,,,,,---- -- ----- -- ------ - lasting --- ----------<br>------------- ------ ------ ---- ---- ------- ----- -- ----<br>-------- ------- -- ---------- --- - --- ----- ----- ----<br>---- --- --- ----- --- ---- ---- ------- ----- ---- -------<br>--- --- -- ----- -- --- ---- -- --- ---- -- ------ ------<br>--- ----- -- ----,920058,920056.1000000238,919522.675,919526.2000000477,919539.386,920074.138,,6,lasting
screen,html.Screen,2_1_0_1_7,2022-02-17T13:12:49.188Z,,,,,,,,,,,,,,,,,53,,,,,,,,,,,,,,400.96200002380647,,response,,,,99,,,,,,,Space,keypress(Space),,,,,,,,---- -- ----- -- ------ - ------- and ----------<br>------------- ------ ------ ---- ---- ------- ----- -- ----<br>-------- ------- -- ---------- --- - --- ----- ----- ----<br>---- --- --- ----- --- ---- ---- ------- ----- ---- -------<br>--- --- -- ----- -- --- ---- -- --- ---- -- ------ ------<br>--- ----- -- ----,920476.8000000119,920475.1000000238,920057.427,920058.2000000477,920074.138,920491.913,,7,and
screen,html.Screen,2_1_0_1_8,2022-02-17T13:12:49.640Z,,,,,,,,,,,,,,,,,53,,,,,,,,,,,,,,435.1870000238996,,response,,,,99,,,,,,,Space,keypress(Space),,,,,,,,---- -- ----- -- ------ - ------- --- fulfilling<br>------------- ------ ------ ---- ---- ------- ----- -- ----<br>-------- ------- -- ---------- --- - --- ----- ----- ----<br>---- --- --- ----- --- ---- ---- ------- ----- ---- -------<br>--- --- -- ----- -- --- ---- -- --- ---- -- ------ ------<br>--- ----- -- ----,920928.9000000358,920927.1000000238,920475.202,920477.2000000477,920491.913,920943.11,,8,fulfilling
screen,html.Screen,2_1_0_1_9,2022-02-17T13:12:50.142Z,,,,,,,,,,,,,,,,,53,,,,,,,,,,,,,,485.79000003577676,,response,,,,99,,,,,,,Space,keypress(Space),,,,,,,,"---- -- ----- -- ------ - ------- --- ----------<br>relationship, ------ ------ ---- ---- ------- ----- -- ----<br>-------- ------- -- ---------- --- - --- ----- ----- ----<br>---- --- --- ----- --- ---- ---- ------- ----- ---- -------<br>--- --- -- ----- -- --- ---- -- --- ---- -- ------ ------<br>--- ----- -- ----",921430.7000000477,921428.9000000358,920926.399,920929.1000000238,920943.11,921444.44,,9,"relationship,"
screen,html.Screen,2_1_0_1_10,2022-02-17T13:12:50.592Z,,,,,,,,,,,,,,,,,53,,,,,,,,,,,,,,434.46000003581867,,response,,,,99,,,,,,,Space,keypress(Space),,,,,,,,---- -- ----- -- ------ - ------- --- ----------<br>------------- common ------ ---- ---- ------- ----- -- ----<br>-------- ------- -- ---------- --- - --- ----- ----- ----<br>---- --- --- ----- --- ---- ---- ------- ----- ---- -------<br>--- --- -- ----- -- --- ---- -- --- ---- -- ------ ------<br>--- ----- -- ----,921880.9000000358,921878.9000000358,921427.729,921431,921444.44,921895.637,,10,common
screen,html.Screen,2_1_0_1_11,2022-02-17T13:12:50.979Z,,,,,,,,,,,,,,,,,53,,,,,,,,,,,,,,370.3630000000121,,response,,,,99,,,,,,,Space,keypress(Space),,,,,,,,---- -- ----- -- ------ - ------- --- ----------<br>------------- ------ wisdom ---- ---- ------- ----- -- ----<br>-------- ------- -- ---------- --- - --- ----- ----- ----<br>---- --- --- ----- --- ---- ---- ------- ----- ---- -------<br>--- --- -- ----- -- --- ---- -- --- ---- -- ------ ------<br>--- ----- -- ----,922267.9000000358,922266,921878.926,921881,921895.637,922279.99,,11,wisdom
screen,html.Screen,2_1_0_1_12,2022-02-17T13:12:51.485Z,,,,,,,,,,,,,,,,,53,,,,,,,,,,,,,,491.9100000357721,,response,,,,99,,,,,,,Space,keypress(Space),,,,,,,,---- -- ----- -- ------ - ------- --- ----------<br>------------- ------ ------ says ---- ------- ----- -- ----<br>-------- ------- -- ---------- --- - --- ----- ----- ----<br>---- --- --- ----- --- ---- ---- ------- ----- ---- -------<br>--- --- -- ----- -- --- ---- -- --- ---- -- ------ ------<br>--- ----- -- ----,922773.8000000119,922771.9000000358,922263.279,922268.1000000238,922279.99,922781.32,,12,says
screen,html.Screen,2_1_0_1_13,2022-02-17T13:12:51.931Z,,,,,,,,,,,,,,,,,53,,,,,,,,,,,,,,436.6800000000512,,response,,,,99,,,,,,,Space,keypress(Space),,,,,,,,---- -- ----- -- ------ - ------- --- ----------<br>------------- ------ ------ ---- that ------- ----- -- ----<br>-------- ------- -- ---------- --- - --- ----- ----- ----<br>---- --- --- ----- --- ---- ---- ------- ----- ---- -------<br>--- --- -- ----- -- --- ---- -- --- ---- -- ------ ------<br>--- ----- -- ----,923219.8000000119,923218,922764.609,922774,922781.32,923232.517,,13,that
screen,html.Screen,2_1_0_1_14,2022-02-17T13:12:52.395Z,,,,,,,,,,,,,,,,,53,,,,,,,,,,,,,,450.0830000238493,,response,,,,99,,,,,,,Space,keypress(Space),,,,,,,,---- -- ----- -- ------ - ------- --- ----------<br>------------- ------ ------ ---- ---- feeling ----- -- ----<br>-------- ------- -- ---------- --- - --- ----- ----- ----<br>---- --- --- ----- --- ---- ---- ------- ----- ---- -------<br>--- --- -- ----- -- --- ---- -- --- ---- -- ------ ------<br>--- ----- -- ----,923684.2000000477,923682.6000000238,923215.806,923220,923232.517,923700.425,,14,feeling
screen,html.Screen,2_1_0_1_15,2022-02-17T13:12:52.789Z,,,,,,,,,,,,,,,,,53,,,,,,,,,,,,,,375.4750000357162,,response,,,,99,,,,,,,Space,keypress(Space),,,,,,,,---- -- ----- -- ------ - ------- --- ----------<br>------------- ------ ------ ---- ---- ------- close -- ----<br>-------- ------- -- ---------- --- - --- ----- ----- ----<br>---- --- --- ----- --- ---- ---- ------- ----- ---- -------<br>--- --- -- ----- -- --- ---- -- --- ---- -- ------ ------<br>--- ----- -- ----,924077.7000000477,924075.9000000358,923683.714,923684.5,923700.425,924084.778,,15,close
screen,html.Screen,2_1_0_1_16,2022-02-17T13:12:53.144Z,,,,,,,,,,,,,,,,,53,,,,,,,,,,,,,,346.02200001187157,,response,,,,99,,,,,,,Space,keypress(Space),,,,,,,,---- -- ----- -- ------ - ------- --- ----------<br>------------- ------ ------ ---- ---- ------- ----- to ----<br>-------- ------- -- ---------- --- - --- ----- ----- ----<br>---- --- --- ----- --- ---- ---- ------- ----- ---- -------<br>--- --- -- ----- -- --- ---- -- --- ---- -- ------ ------<br>--- ----- -- ----,924432.7000000477,924430.8000000119,924068.067,924077.9000000358,924084.778,924435.709,,16,to
screen,html.Screen,2_1_0_1_17,2022-02-17T13:12:53.604Z,,,,,,,,,,,,,,,,,53,,,,,,,,,,,,,,455.09100001188926,,response,,,,99,,,,,,,Space,keypress(Space),,,,,,,,---- -- ----- -- ------ - ------- --- ----------<br>------------- ------ ------ ---- ---- ------- ----- -- your<br>-------- ------- -- ---------- --- - --- ----- ----- ----<br>---- --- --- ----- --- ---- ---- ------- ----- ---- -------<br>--- --- -- ----- -- --- ---- -- --- ---- -- ------ ------<br>--- ----- -- ----,924892.8000000119,924890.8000000119,924418.998,924432.9000000358,924435.709,924903.617,,17,your
screen,html.Screen,2_1_0_1_18,2022-02-17T13:12:54.087Z,,,,,,,,,,,,,,,,,53,,,,,,,,,,,,,,470.08300004771445,,response,,,,99,,,,,,,Space,keypress(Space),,,,,,,,---- -- ----- -- ------ - ------- --- ----------<br>------------- ------ ------ ---- ---- ------- ----- -- ----<br>romantic ------- -- ---------- --- - --- ----- ----- ----<br>---- --- --- ----- --- ---- ---- ------- ----- ---- -------<br>--- --- -- ----- -- --- ---- -- --- ---- -- ------ ------<br>--- ----- -- ----,925375.7000000477,925373.7000000477,924886.906,924892.9000000358,924903.617,925388.236,,18,romantic
screen,html.Screen,2_1_0_1_19,2022-02-17T13:12:54.541Z,,,,,,,,,,,,,,,,,53,,,,,,,,,,,,,,439.4640000476502,,response,,,,99,,,,,,,Space,keypress(Space),,,,,,,,---- -- ----- -- ------ - ------- --- ----------<br>------------- ------ ------ ---- ---- ------- ----- -- ----<br>-------- partner -- ---------- --- - --- ----- ----- ----<br>---- --- --- ----- --- ---- ---- ------- ----- ---- -------<br>--- --- -- ----- -- --- ---- -- --- ---- -- ------ ------<br>--- ----- -- ----,925829.6000000238,925827.7000000477,925371.525,925375.9000000358,925388.236,925839.433,,19,partner
screen,html.Screen,2_1_0_1_20,2022-02-17T13:12:54.954Z,,,,,,,,,,,,,,,,,53,,,,,,,,,,,,,,401.26700004772283,,response,,,,99,,,,,,,Space,keypress(Space),,,,,,,,---- -- ----- -- ------ - ------- --- ----------<br>------------- ------ ------ ---- ---- ------- ----- -- ----<br>-------- ------- is ---------- --- - --- ----- ----- ----<br>---- --- --- ----- --- ---- ---- ------- ----- ---- -------<br>--- --- -- ----- -- --- ---- -- --- ---- -- ------ ------<br>--- ----- -- ----,926242.7000000477,926240.7000000477,925822.722,925829.8000000119,925839.433,926257.208,,20,is
screen,html.Screen,2_1_0_1_21,2022-02-17T13:12:55.456Z,,,,,,,,,,,,,,,,,53,,,,,,,,,,,,,,485.3920000238577,,response,,,,99,,,,,,,Space,keypress(Space),,,,,,,,---- -- ----- -- ------ - ------- --- ----------<br>------------- ------ ------ ---- ---- ------- ----- -- ----<br>-------- ------- -- paramount. --- - --- ----- ----- ----<br>---- --- --- ----- --- ---- ---- ------- ----- ---- -------<br>--- --- -- ----- -- --- ---- -- --- ---- -- ------ ------<br>--- ----- -- ----,926744.5,926742.6000000238,926240.497,926242.8000000119,926257.208,926758.538,,21,paramount.
screen,html.Screen,2_1_0_1_22,2022-02-17T13:12:55.916Z,,,,,,,,,,,,,,,,,53,,,,,,,,,,,,,,443.16200004774146,,response,,,,99,,,,,,,Space,keypress(Space),,,,,,,,---- -- ----- -- ------ - ------- --- ----------<br>------------- ------ ------ ---- ---- ------- ----- -- ----<br>-------- ------- -- ---------- But - --- ----- ----- ----<br>---- --- --- ----- --- ---- ---- ------- ----- ---- -------<br>--- --- -- ----- -- --- ---- -- --- ---- -- ------ ------<br>--- ----- -- ----,927204.6000000238,927201.7000000477,926741.827,926744.7000000477,926758.538,927209.912,,22,But
screen,html.Screen,2_1_0_1_23,2022-02-17T13:12:56.294Z,,,,,,,,,,,,,,,,,53,,,,,,,,,,,,,,370.6880000238307,,response,,,,99,,,,,,,Space,keypress(Space),,,,,,,,---- -- ----- -- ------ - ------- --- ----------<br>------------- ------ ------ ---- ---- ------- ----- -- ----<br>-------- ------- -- ---------- --- a --- ----- ----- ----<br>---- --- --- ----- --- ---- ---- ------- ----- ---- -------<br>--- --- -- ----- -- --- ---- -- --- ---- -- ------ ------<br>--- ----- -- ----,927582.5,927580.6000000238,927193.201,927204.8000000119,927209.912,927594.265,,23,a
screen,html.Screen,2_1_0_1_24,2022-02-17T13:12:56.602Z,,,,,,,,,,,,,,,,,53,,,,,,,,,,,,,,294.43500004766975,,response,,,,99,,,,,,,Space,keypress(Space),,,,,,,,---- -- ----- -- ------ - ------- --- ----------<br>------------- ------ ------ ---- ---- ------- ----- -- ----<br>-------- ------- -- ---------- --- - new ----- ----- ----<br>---- --- --- ----- --- ---- ---- ------- ----- ---- -------<br>--- --- -- ----- -- --- ---- -- --- ---- -- ------ ------<br>--- ----- -- ----,927890.5,927888.7000000477,927577.554,927582.7000000477,927594.265,927895.063,,24,new
screen,html.Screen,2_1_0_1_25,2022-02-17T13:12:57.101Z,,,,,,,,,,,,,,,,,53,,,,,,,,,,,,,,492.5370000238763,,response,,,,99,,,,,,,Space,keypress(Space),,,,,,,,---- -- ----- -- ------ - ------- --- ----------<br>------------- ------ ------ ---- ---- ------- ----- -- ----<br>-------- ------- -- ---------- --- - --- study ----- ----<br>---- --- --- ----- --- ---- ---- ------- ----- ---- -------<br>--- --- -- ----- -- --- ---- -- --- ---- -- ------ ------<br>--- ----- -- ----,928389.5,928387.6000000238,927878.352,927890.7000000477,927895.063,928396.393,,25,study
screen,html.Screen,2_1_0_1_26,2022-02-17T13:12:57.474Z,,,,,,,,,,,,,,,,,53,,,,,,,,,,,,,,364.10699999995995,,response,,,,99,,,,,,,Space,keypress(Space),,,,,,,,---- -- ----- -- ------ - ------- --- ----------<br>------------- ------ ------ ---- ---- ------- ----- -- ----<br>-------- ------- -- ---------- --- - --- ----- finds ----<br>---- --- --- ----- --- ---- ---- ------- ----- ---- -------<br>--- --- -- ----- -- --- ---- -- --- ---- -- ------ ------<br>--- ----- -- ----,928762.5,928760.5,928379.682,928389.6000000238,928396.393,928764.035,,26,finds
screen,html.Screen,2_1_0_1_27,2022-02-17T13:12:57.952Z,,,,,,,,,,,,,,,,,53,,,,,,,,,,,,,,474.4649999999674,,response,,,,99,,,,,,,Space,keypress(Space),,,,,,,,---- -- ----- -- ------ - ------- --- ----------<br>------------- ------ ------ ---- ---- ------- ----- -- ----<br>-------- ------- -- ---------- --- - --- ----- ----- that<br>---- --- --- ----- --- ---- ---- ------- ----- ---- -------<br>--- --- -- ----- -- --- ---- -- --- ---- -- ------ ------<br>--- ----- -- ----,929240.7000000477,929238.5,928747.324,928762.9000000358,928764.035,929248.654,,27,that
screen,html.Screen,2_1_0_1_28,2022-02-17T13:12:58.368Z,,,,,,,,,,,,,,,,,53,,,,,,,,,,,,,,405.84600000001956,,response,,,,99,,,,,,,Space,keypress(Space),,,,,,,,---- -- ----- -- ------ - ------- --- ----------<br>------------- ------ ------ ---- ---- ------- ----- -- ----<br>-------- ------- -- ---------- --- - --- ----- ----- ----<br>it's --- --- ----- --- ---- ---- ------- ----- ---- -------<br>--- --- -- ----- -- --- ---- -- --- ---- -- ------ ------<br>--- ----- -- ----,929656.3000000119,929654.5,929231.943,929240.9000000358,929248.654,929666.429,,28,it's
screen,html.Screen,2_1_0_1_29,2022-02-17T13:12:58.768Z,,,,,,,,,,,,,,,,,53,,,,,,,,,,,,,,389.0709999999963,,response,,,,99,,,,,,,Space,keypress(Space),,,,,,,,---- -- ----- -- ------ - ------- --- ----------<br>------------- ------ ------ ---- ---- ------- ----- -- ----<br>-------- ------- -- ---------- --- - --- ----- ----- ----<br>---- not --- ----- --- ---- ---- ------- ----- ---- -------<br>--- --- -- ----- -- --- ---- -- --- ---- -- ------ ------<br>--- ----- -- ----,930057.3000000119,930055.5,929649.718,929656.6000000238,929666.429,930067.493,,29,not
screen,html.Screen,2_1_0_1_30,2022-02-17T13:12:59.152Z,,,,,,,,,,,,,,,,,53,,,,,,,,,,,,,,371.00699999998324,,response,,,,99,,,,,,,Space,keypress(Space),,,,,,,,---- -- ----- -- ------ - ------- --- ----------<br>------------- ------ ------ ---- ---- ------- ----- -- ----<br>-------- ------- -- ---------- --- - --- ----- ----- ----<br>---- --- how ----- --- ---- ---- ------- ----- ---- -------<br>--- --- -- ----- -- --- ---- -- --- ---- -- ------ ------<br>--- ----- -- ----,930440.2000000477,930438.5,930050.782,930057.5,930067.493,930451.846,,30,how
screen,html.Screen,2_1_0_1_31,2022-02-17T13:12:59.650Z,,,,,,,,,,,,,,,,,53,,,,,,,,,,,,,,484.55400003574323,,response,,,,99,,,,,,,Space,keypress(Space),,,,,,,,---- -- ----- -- ------ - ------- --- ----------<br>------------- ------ ------ ---- ---- ------- ----- -- ----<br>-------- ------- -- ---------- --- - --- ----- ----- ----<br>---- --- --- close --- ---- ---- ------- ----- ---- -------<br>--- --- -- ----- -- --- ---- -- --- ---- -- ------ ------<br>--- ----- -- ----,930938.5,930936.4000000358,930435.135,930440.5,930451.846,930953.176,,31,close
screen,html.Screen,2_1_0_1_32,2022-02-17T13:13:00.031Z,,,,,,,,,,,,,,,,,53,,,,,,,,,,,,,,365.1240000119433,,response,,,,99,,,,,,,Space,keypress(Space),,,,,,,,---- -- ----- -- ------ - ------- --- ----------<br>------------- ------ ------ ---- ---- ------- ----- -- ----<br>-------- ------- -- ---------- --- - --- ----- ----- ----<br>---- --- --- ----- you ---- ---- ------- ----- ---- -------<br>--- --- -- ----- -- --- ---- -- --- ---- -- ------ ------<br>--- ----- -- ----,931320.2000000477,931318.3000000119,930936.465,930938.6000000238,930953.176,931337.529,,32,you
screen,html.Screen,2_1_0_1_33,2022-02-17T13:13:00.359Z,,,,,,,,,,,,,,,,,53,,,,,,,,,,,,,,307.6710000477033,,response,,,,99,,,,,,,Space,keypress(Space),,,,,,,,---- -- ----- -- ------ - ------- --- ----------<br>------------- ------ ------ ---- ---- ------- ----- -- ----<br>-------- ------- -- ---------- --- - --- ----- ----- ----<br>---- --- --- ----- --- feel ---- ------- ----- ---- -------<br>--- --- -- ----- -- --- ---- -- --- ---- -- ------ ------<br>--- ----- -- ----,931647.2000000477,931645.2000000477,931320.818,931320.3000000119,931337.529,931655.038,,33,feel
screen,html.Screen,2_1_0_1_34,2022-02-17T13:13:00.749Z,,,,,,,,,,,,,,,,,53,,,,,,,,,,,,,,381.26200001197867,,response,,,,99,,,,,,,Space,keypress(Space),,,,,,,,---- -- ----- -- ------ - ------- --- ----------<br>------------- ------ ------ ---- ---- ------- ----- -- ----<br>-------- ------- -- ---------- --- - --- ----- ----- ----<br>---- --- --- ----- --- ---- that ------- ----- ---- -------<br>--- --- -- ----- -- --- ---- -- --- ---- -- ------ ------<br>--- ----- -- ----,932038.2000000477,932036.3000000119,931638.327,931647.5,931655.038,932039.391,,34,that
screen,html.Screen,2_1_0_1_35,2022-02-17T13:13:01.145Z,,,,,,,,,,,,,,,,,53,,,,,,,,,,,,,,392.00900003581773,,response,,,,99,,,,,,,Space,keypress(Space),,,,,,,,---- -- ----- -- ------ - ------- --- ----------<br>------------- ------ ------ ---- ---- ------- ----- -- ----<br>-------- ------- -- ---------- --- - --- ----- ----- ----<br>---- --- --- ----- --- ---- ---- matters ----- ---- -------<br>--- --- -- ----- -- --- ---- -- --- ---- -- ------ ------<br>--- ----- -- ----,932433.2000000477,932431.4000000358,932022.68,932038.3000000119,932039.391,932440.455,,35,matters
screen,html.Screen,2_1_0_1_36,2022-02-17T13:13:01.645Z,,,,,,,,,,,,,,,,,53,,,,,,,,,,,,,,490.84500001196284,,response,,,,99,,,,,,,Space,keypress(Space),,,,,,,,"---- -- ----- -- ------ - ------- --- ----------<br>------------- ------ ------ ---- ---- ------- ----- -- ----<br>-------- ------- -- ---------- --- - --- ----- ----- ----<br>---- --- --- ----- --- ---- ---- ------- most, ---- -------<br>--- --- -- ----- -- --- ---- -- --- ---- -- ------ ------<br>--- ----- -- ----",932933.4000000358,932931.3000000119,932423.744,932433.6000000238,932440.455,932941.785,,36,"most,"
screen,html.Screen,2_1_0_1_37,2022-02-17T13:13:02.073Z,,,,,,,,,,,,,,,,,53,,,,,,,,,,,,,,418.51500001188833,,response,,,,99,,,,,,,Space,keypress(Space),,,,,,,,---- -- ----- -- ------ - ------- --- ----------<br>------------- ------ ------ ---- ---- ------- ----- -- ----<br>-------- ------- -- ---------- --- - --- ----- ----- ----<br>---- --- --- ----- --- ---- ---- ------- ----- it's -------<br>--- --- -- ----- -- --- ---- -- --- ---- -- ------ ------<br>--- ----- -- ----,933362.1000000238,933360.3000000119,932925.074,932933.5,932941.785,933376.271,,37,it's
screen,html.Screen,2_1_0_1_38,2022-02-17T13:13:02.492Z,,,,,,,,,,,,,,,,,53,,,,,,,,,,,,,,402.429000047734,,response,,,,99,,,,,,,Space,keypress(Space),,,,,,,,---- -- ----- -- ------ - ------- --- ----------<br>------------- ------ ------ ---- ---- ------- ----- -- ----<br>-------- ------- -- ---------- --- - --- ----- ----- ----<br>---- --- --- ----- --- ---- ---- ------- ----- ---- whether<br>--- --- -- ----- -- --- ---- -- --- ---- -- ------ ------<br>--- ----- -- ----,933780.8000000119,933778.7000000477,933359.56,933362.2000000477,933376.271,933794.046,,38,whether
screen,html.Screen,2_1_0_1_39,2022-02-17T13:13:02.915Z,,,,,,,,,,,,,,,,,53,,,,,,,,,,,,,,408.1540000477107,,response,,,,99,,,,,,,Space,keypress(Space),,,,,,,,---- -- ----- -- ------ - ------- --- ----------<br>------------- ------ ------ ---- ---- ------- ----- -- ----<br>-------- ------- -- ---------- --- - --- ----- ----- ----<br>---- --- --- ----- --- ---- ---- ------- ----- ---- -------<br>you --- -- ----- -- --- ---- -- --- ---- -- ------ ------<br>--- ----- -- ----,934204,934202.2000000477,933777.335,933781,933794.046,934211.821,,39,you
screen,html.Screen,2_1_0_1_40,2022-02-17T13:13:03.263Z,,,,,,,,,,,,,,,,,53,,,,,,,,,,,,,,338.37900004768744,,response,,,,99,,,,,,,Space,keypress(Space),,,,,,,,---- -- ----- -- ------ - ------- --- ----------<br>------------- ------ ------ ---- ---- ------- ----- -- ----<br>-------- ------- -- ---------- --- - --- ----- ----- ----<br>---- --- --- ----- --- ---- ---- ------- ----- ---- -------<br>--- are -- ----- -- --- ---- -- --- ---- -- ------ ------<br>--- ----- -- ----,934552,934550.2000000477,934195.11,934204.2000000477,934211.821,934562.752,,40,are
screen,html.Screen,2_1_0_1_41,2022-02-17T13:13:03.682Z,,,,,,,,,,,,,,,,,53,,,,,,,,,,,,,,406.3480000238633,,response,,,,99,,,,,,,Space,keypress(Space),,,,,,,,---- -- ----- -- ------ - ------- --- ----------<br>------------- ------ ------ ---- ---- ------- ----- -- ----<br>-------- ------- -- ---------- --- - --- ----- ----- ----<br>---- --- --- ----- --- ---- ---- ------- ----- ---- -------<br>--- --- as ----- -- --- ---- -- --- ---- -- ------ ------<br>--- ----- -- ----,934971,934969.1000000238,934546.041,934552.2000000477,934562.752,934980.527,,41,as
screen,html.Screen,2_1_0_1_42,2022-02-17T13:13:03.970Z,,,,,,,,,,,,,,,,,53,,,,,,,,,,,,,,276.67300004768185,,response,,,,99,,,,,,,Space,keypress(Space),,,,,,,,---- -- ----- -- ------ - ------- --- ----------<br>------------- ------ ------ ---- ---- ------- ----- -- ----<br>-------- ------- -- ---------- --- - --- ----- ----- ----<br>---- --- --- ----- --- ---- ---- ------- ----- ---- -------<br>--- --- -- close -- --- ---- -- --- ---- -- ------ ------<br>--- ----- -- ----,935259.1000000238,935257.2000000477,934963.816,934971.2000000477,934980.527,935264.614,,42,close
screen,html.Screen,2_1_0_1_43,2022-02-17T13:13:04.325Z,,,,,,,,,,,,,,,,,53,,,,,,,,,,,,,,347.3860000000568,,response,,,,99,,,,,,,Space,keypress(Space),,,,,,,,---- -- ----- -- ------ - ------- --- ----------<br>------------- ------ ------ ---- ---- ------- ----- -- ----<br>-------- ------- -- ---------- --- - --- ----- ----- ----<br>---- --- --- ----- --- ---- ---- ------- ----- ---- -------<br>--- --- -- ----- as --- ---- -- --- ---- -- ------ ------<br>--- ----- -- ----,935613.8000000119,935612,935247.903,935259.2000000477,935264.614,935615.545,,43,as
screen,html.Screen,2_1_0_1_44,2022-02-17T13:13:04.602Z,,,,,,,,,,,,,,,,,53,,,,,,,,,,,,,,272.755000011879,,response,,,,99,,,,,,,Space,keypress(Space),,,,,,,,---- -- ----- -- ------ - ------- --- ----------<br>------------- ------ ------ ---- ---- ------- ----- -- ----<br>-------- ------- -- ---------- --- - --- ----- ----- ----<br>---- --- --- ----- --- ---- ---- ------- ----- ---- -------<br>--- --- -- ----- -- you ---- -- --- ---- -- ------ ------<br>--- ----- -- ----,935890.6000000238,935888.3000000119,935598.834,935613.9000000358,935615.545,935899.632,,44,you
screen,html.Screen,2_1_0_1_45,2022-02-17T13:13:04.925Z,,,,,,,,,,,,,,,,,53,,,,,,,,,,,,,,312.4680000238586,,response,,,,99,,,,,,,Space,keypress(Space),,,,,,,,---- -- ----- -- ------ - ------- --- ----------<br>------------- ------ ------ ---- ---- ------- ----- -- ----<br>-------- ------- -- ---------- --- - --- ----- ----- ----<br>---- --- --- ----- --- ---- ---- ------- ----- ---- -------<br>--- --- -- ----- -- --- want -- --- ---- -- ------ ------<br>--- ----- -- ----,936214,936212.1000000238,935882.921,935890.8000000119,935899.632,936217.141,,45,want
screen,html.Screen,2_1_0_1_46,2022-02-17T13:13:05.212Z,,,,,,,,,,,,,,,,,53,,,,,,,,,,,,,,281.05900004773866,,response,,,,99,,,,,,,Space,keypress(Space),,,,,,,,---- -- ----- -- ------ - ------- --- ----------<br>------------- ------ ------ ---- ---- ------- ----- -- ----<br>-------- ------- -- ---------- --- - --- ----- ----- ----<br>---- --- --- ----- --- ---- ---- ------- ----- ---- -------<br>--- --- -- ----- -- --- ---- to --- ---- -- ------ ------<br>--- ----- -- ----,936500.2000000477,936498.2000000477,936200.43,936214.1000000238,936217.141,936501.228,,46,to
screen,html.Screen,2_1_0_1_47,2022-02-17T13:13:05.470Z,,,,,,,,,,,,,,,,,53,,,,,,,,,,,,,,255.7719999999972,,response,,,,99,,,,,,,Space,keypress(Space),,,,,,,,"---- -- ----- -- ------ - ------- --- ----------<br>------------- ------ ------ ---- ---- ------- ----- -- ----<br>-------- ------- -- ---------- --- - --- ----- ----- ----<br>---- --- --- ----- --- ---- ---- ------- ----- ---- -------<br>--- --- -- ----- -- --- ---- -- be, ---- -- ------ ------<br>--- ----- -- ----",936758.9000000358,936757,936484.517,936500.3000000119,936501.228,936768.604,,47,"be,"
screen,html.Screen,2_1_0_1_48,2022-02-17T13:13:05.838Z,,,,,,,,,,,,,,,,,53,,,,,,,,,,,,,,356.5960000476334,,response,,,,99,,,,,,,Space,keypress(Space),,,,,,,,---- -- ----- -- ------ - ------- --- ----------<br>------------- ------ ------ ---- ---- ------- ----- -- ----<br>-------- ------- -- ---------- --- - --- ----- ----- ----<br>---- --- --- ----- --- ---- ---- ------- ----- ---- -------<br>--- --- -- ----- -- --- ---- -- --- even -- ------ ------<br>--- ----- -- ----,937127.1000000238,937125.2000000477,936751.893,936759,936768.604,937136.434,,48,even
screen,html.Screen,2_1_0_1_49,2022-02-17T13:13:06.070Z,,,,,,,,,,,,,,,,,53,,,,,,,,,,,,,,219.56599999999162,,response,,,,99,,,,,,,Space,keypress(Space),,,,,,,,---- -- ----- -- ------ - ------- --- ----------<br>------------- ------ ------ ---- ---- ------- ----- -- ----<br>-------- ------- -- ---------- --- - --- ----- ----- ----<br>---- --- --- ----- --- ---- ---- ------- ----- ---- -------<br>--- --- -- ----- -- --- ---- -- --- ---- if ------ ------<br>--- ----- -- ----,937358.9000000358,937356,937119.723,937127.2000000477,937136.434,937370.388,,49,if
screen,html.Screen,2_1_0_1_50,2022-02-17T13:13:06.431Z,,,,,,,,,,,,,,,,,53,,,,,,,,,,,,,,347.71200002380647,,response,,,,99,,,,,,,Space,keypress(Space),,,,,,,,---- -- ----- -- ------ - ------- --- ----------<br>------------- ------ ------ ---- ---- ------- ----- -- ----<br>-------- ------- -- ---------- --- - --- ----- ----- ----<br>---- --- --- ----- --- ---- ---- ------- ----- ---- -------<br>--- --- -- ----- -- --- ---- -- --- ---- -- that's ------<br>--- ----- -- ----,937719.9000000358,937718.1000000238,937353.677,937359,937370.388,937721.319,,50,that's
screen,html.Screen,2_1_0_1_51,2022-02-17T13:13:06.834Z,,,,,,,,,,,,,,,,,53,,,,,,,,,,,,,,399.6809999999823,,response,,,,99,,,,,,,Space,keypress(Space),,,,,,,,---- -- ----- -- ------ - ------- --- ----------<br>------------- ------ ------ ---- ---- ------- ----- -- ----<br>-------- ------- -- ---------- --- - --- ----- ----- ----<br>---- --- --- ----- --- ---- ---- ------- ----- ---- -------<br>--- --- -- ----- -- --- ---- -- --- ---- -- ------ really<br>--- ----- -- ----,938122.9000000358,938121,937704.608,937720.1000000238,937721.319,938139.094,,51,really
screen,html.Screen,2_1_0_1_52,2022-02-17T13:13:07.205Z,,,,,,,,,,,,,,,,,53,,,,,,,,,,,,,,352.905999999959,,response,,,,99,,,,,,,Space,keypress(Space),,,,,,,,---- -- ----- -- ------ - ------- --- ----------<br>------------- ------ ------ ---- ---- ------- ----- -- ----<br>-------- ------- -- ---------- --- - --- ----- ----- ----<br>---- --- --- ----- --- ---- ---- ------- ----- ---- -------<br>--- --- -- ----- -- --- ---- -- --- ---- -- ------ ------<br>not ----- -- ----,938493.8000000119,938492,938122.383,938122.9000000358,938139.094,938506.736,,52,not
screen,html.Screen,2_1_0_1_53,2022-02-17T13:13:07.573Z,,,,,,,,,,,,,,,,,53,,,,,,,,,,,,,,353.0640000118874,,response,,,,99,,,,,,,Space,keypress(Space),,,,,,,,---- -- ----- -- ------ - ------- --- ----------<br>------------- ------ ------ ---- ---- ------- ----- -- ----<br>-------- ------- -- ---------- --- - --- ----- ----- ----<br>---- --- --- ----- --- ---- ---- ------- ----- ---- -------<br>--- --- -- ----- -- --- ---- -- --- ---- -- ------ ------<br>--- close -- ----,938861.5,938859.8000000119,938490.025,938494.1000000238,938506.736,938874.378,,53,close
screen,html.Screen,2_1_0_1_54,2022-02-17T13:13:07.873Z,,,,,,,,,,,,,,,,,53,,,,,,,,,,,,,,285.5220000357367,,response,,,,99,,,,,,,Space,keypress(Space),,,,,,,,---- -- ----- -- ------ - ------- --- ----------<br>------------- ------ ------ ---- ---- ------- ----- -- ----<br>-------- ------- -- ---------- --- - --- ----- ----- ----<br>---- --- --- ----- --- ---- ---- ------- ----- ---- -------<br>--- --- -- ----- -- --- ---- -- --- ---- -- ------ ------<br>--- ----- at ----,939161.7000000477,939159.9000000358,938857.667,938861.7000000477,938874.378,939175.176,,54,at
screen,html.Screen,2_1_0_1_55,2022-02-17T13:13:08.339Z,,,,,,,,,,,,,,,,,53,,,,,,,,,,,,,,450.6240000119433,,response,,,,99,,,,,,,Space,keypress(Space),,,,,,,,---- -- ----- -- ------ - ------- --- ----------<br>------------- ------ ------ ---- ---- ------- ----- -- ----<br>-------- ------- -- ---------- --- - --- ----- ----- ----<br>---- --- --- ----- --- ---- ---- ------- ----- ---- -------<br>--- --- -- ----- -- --- ---- -- --- ---- -- ------ ------<br>--- ----- -- all.,939627.8000000119,939625.8000000119,939158.465,939161.8000000119,939175.176,939643.084,,55,all.
Item 99,flow.Loop,2_1_0_1,2022-02-17T13:13:08.340Z,,,,,,,,,,,,,,,,,,,,,,,,,,,,,,,23428.811000011978,,completion,,,,,D,,,,,,,,,,,silence,,,,,939628.2000000477,939625.8000000119,916163.567,916165.2000000477,916196.989,939643.084,,,
Question 1,html.Screen,2_1_0_2,2022-02-17T13:13:11.637Z,,,,,,,,,,,,,,,,,,,,,,,,,,,,true,FALSE,,3279.7160000118893,,response,,,,99,D,,,,,,FALSE,click #choice-2,,,,silence,,,,,942924.9000000358,942922.8000000119,939626.373,939628.4000000358,939643.084,942951.862,,,
Question 2,html.Screen,2_1_0_3,2022-02-17T13:13:21.841Z,,,,,,,,,,,,,,,,,,,,,,,,,,,,false,TRUE,,10174.638000000035,,response,,,,99,D,,,,,,FALSE,click #choice-2,,,,silence,,,,,953128.9000000358,953126.5,942935.151,942925.1000000238,942951.862,953145.759,,,
Item 99,flow.Sequence,2_1_0,2022-02-17T13:13:21.841Z,,,,,,,,,,,,,,,,,,,,,,,,,,,,,,,46939.638000000035,,completion,,,,,,,,,,,,,,,,,,,,,953129.3000000119,953126.5,906170.151,906166.8000000119,906186.862,953145.759,,,
Holding screen,html.Screen,2_1_1_0,2022-02-17T13:13:31.837Z,,,,,,,,,,,,,,,,,,,,,,,,,,,,,,,9993.351000000024,,timeout,,,,,,,,,,,,,,,,,,,,,963124.5,963122.399,953129.048,953129.5,953145.759,963139.11,,,
screen,html.Screen,2_1_1_1_0,2022-02-17T13:13:32.537Z,,,,,,,,,,,,,,,,,54,,,,,,,,,,,,,,682.890000000014,,response,,,,100,,,,,,,Space,keypress(Space),,,,,,,,At --- ---- --- ------ ----- ------- ---- -- --- ------- --<br>------- ---------- ------ -- ----- -- ----- -- ---- ------<br>--- ----- --- --- ------ -------- ----- --- ------ ----- --<br>----- ----- ---------- --- --- ------ ------ ---- -- ------<br>------- --- ------ ----- --- ---- ------- -- ---- --- --<br>------- ------,963825,963822,963122.399,963124.8000000119,963139.11,963840.972,,0,At
screen,html.Screen,2_1_1_1_1,2022-02-17T13:13:32.958Z,,,,,,,,,,,,,,,,,54,,,,,,,,,,,,,,402.52800000004936,,response,,,,100,,,,,,,Space,keypress(Space),,,,,,,,-- the ---- --- ------ ----- ------- ---- -- --- ------- --<br>------- ---------- ------ -- ----- -- ----- -- ---- ------<br>--- ----- --- --- ------ -------- ----- --- ------ ----- --<br>----- ----- ---------- --- --- ------ ------ ---- -- ------<br>------- --- ------ ----- --- ---- ------- -- ---- --- --<br>------- ------,964245.3000000119,964243.5,963824.261,963825.2000000477,963840.972,964258.747,,1,the
screen,html.Screen,2_1_1_1_2,2022-02-17T13:13:33.499Z,,,,,,,,,,,,,,,,,54,,,,,,,,,,,,,,525.7530000000261,,response,,,,100,,,,,,,Space,keypress(Space),,,,,,,,-- --- time --- ------ ----- ------- ---- -- --- ------- --<br>------- ---------- ------ -- ----- -- ----- -- ---- ------<br>--- ----- --- --- ------ -------- ----- --- ------ ----- --<br>----- ----- ---------- --- --- ------ ------ ---- -- ------<br>------- --- ------ ----- --- ---- ------- -- ---- --- --<br>------- ------,964786.4000000358,964784.5,964242.036,964245.4000000358,964258.747,964793.499,,2,time
screen,html.Screen,2_1_1_1_3,2022-02-17T13:13:33.846Z,,,,,,,,,,,,,,,,,54,,,,,,,,,,,,,,338.2010000477312,,response,,,,100,,,,,,,Space,keypress(Space),,,,,,,,-- --- ---- the ------ ----- ------- ---- -- --- ------- --<br>------- ---------- ------ -- ----- -- ----- -- ---- ------<br>--- ----- --- --- ------ -------- ----- --- ------ ----- --<br>----- ----- ---------- --- --- ------ ------ ---- -- ------<br>------- --- ------ ----- --- ---- ------- -- ---- --- --<br>------- ------,965133.5,965131.7000000477,964776.788,964786.5,964793.499,965144.43,,3,the
screen,html.Screen,2_1_1_1_4,2022-02-17T13:13:34.131Z,,,,,,,,,,,,,,,,,54,,,,,,,,,,,,,,272.17000002379064,,response,,,,100,,,,,,,Space,keypress(Space),,,,,,,,-- --- ---- --- French ----- ------- ---- -- --- ------- --<br>------- ---------- ------ -- ----- -- ----- -- ---- ------<br>--- ----- --- --- ------ -------- ----- --- ------ ----- --<br>----- ----- ---------- --- --- ------ ------ ---- -- ------<br>------- --- ------ ----- --- ---- ------- -- ---- --- --<br>------- ------,965418.6000000238,965416.6000000238,965127.719,965133.8000000119,965144.43,965428.517,,4,French
screen,html.Screen,2_1_1_1_5,2022-02-17T13:13:34.498Z,,,,,,,,,,,,,,,,,54,,,,,,,,,,,,,,354.98300000000745,,response,,,,100,,,,,,,Space,keypress(Space),,,,,,,,-- --- ---- --- ------ crown ------- ---- -- --- ------- --<br>------- ---------- ------ -- ----- -- ----- -- ---- ------<br>--- ----- --- --- ------ -------- ----- --- ------ ----- --<br>----- ----- ---------- --- --- ------ ------ ---- -- ------<br>------- --- ------ ----- --- ---- ------- -- ---- --- --<br>------- ------,965785.5,965783.5,965411.806,965418.8000000119,965428.517,965796.159,,5,crown
screen,html.Screen,2_1_1_1_6,2022-02-17T13:13:34.824Z,,,,,,,,,,,,,,,,,54,,,,,,,,,,,,,,314.0410000476986,,response,,,,100,,,,,,,Space,keypress(Space),,,,,,,,-- --- ---- --- ------ ----- secured ---- -- --- ------- --<br>------- ---------- ------ -- ----- -- ----- -- ---- ------<br>--- ----- --- --- ------ -------- ----- --- ------ ----- --<br>----- ----- ---------- --- --- ------ ------ ---- -- ------<br>------- --- ------ ----- --- ---- ------- -- ---- --- --<br>------- ------,966111.6000000238,966110.2000000477,965779.448,965785.7000000477,965796.159,966113.668,,6,secured
screen,html.Screen,2_1_1_1_7,2022-02-17T13:13:35.143Z,,,,,,,,,,,,,,,,,54,,,,,,,,,,,,,,314.8320000000531,,response,,,,100,,,,,,,Space,keypress(Space),,,,,,,,-- --- ---- --- ------ ----- ------- much -- --- ------- --<br>------- ---------- ------ -- ----- -- ----- -- ---- ------<br>--- ----- --- --- ------ -------- ----- --- ------ ----- --<br>----- ----- ---------- --- --- ------ ------ ---- -- ------<br>------- --- ------ ----- --- ---- ------- -- ---- --- --<br>------- ------,966430.4000000358,966428.5,966096.957,966111.8000000119,966113.668,966447.888,,7,much
screen,html.Screen,2_1_1_1_8,2022-02-17T13:13:35.482Z,,,,,,,,,,,,,,,,,54,,,,,,,,,,,,,,319.5120000357274,,response,,,,100,,,,,,,Space,keypress(Space),,,,,,,,-- --- ---- --- ------ ----- ------- ---- of --- ------- --<br>------- ---------- ------ -- ----- -- ----- -- ---- ------<br>--- ----- --- --- ------ -------- ----- --- ------ ----- --<br>----- ----- ---------- --- --- ------ ------ ---- -- ------<br>------- --- ------ ----- --- ---- ------- -- ---- --- --<br>------- ------,966769.3000000119,966767.4000000358,966431.177,966430.5,966447.888,966782.108,,8,of
screen,html.Screen,2_1_1_1_9,2022-02-17T13:13:35.756Z,,,,,,,,,,,,,,,,,54,,,,,,,,,,,,,,259.39199999999255,,response,,,,100,,,,,,,Space,keypress(Space),,,,,,,,-- --- ---- --- ------ ----- ------- ---- -- its ------- --<br>------- ---------- ------ -- ----- -- ----- -- ---- ------<br>--- ----- --- --- ------ -------- ----- --- ------ ----- --<br>----- ----- ---------- --- --- ------ ------ ---- -- ------<br>------- --- ------ ----- --- ---- ------- -- ---- --- --<br>------- ------,967043.3000000119,967041.5,966765.397,966769.4000000358,966782.108,967049.484,,9,its
screen,html.Screen,2_1_1_1_10,2022-02-17T13:13:36.221Z,,,,,,,,,,,,,,,,,54,,,,,,,,,,,,,,456.91600003570784,,response,,,,100,,,,,,,Space,keypress(Space),,,,,,,,-- --- ---- --- ------ ----- ------- ---- -- --- revenue --<br>------- ---------- ------ -- ----- -- ----- -- ---- ------<br>--- ----- --- --- ------ -------- ----- --- ------ ----- --<br>----- ----- ---------- --- --- ------ ------ ---- -- ------<br>------- --- ------ ----- --- ---- ------- -- ---- --- --<br>------- ------,967508.4000000358,967506.4000000358,967032.773,967043.6000000238,967049.484,967517.392,,10,revenue
screen,html.Screen,2_1_1_1_11,2022-02-17T13:13:36.741Z,,,,,,,,,,,,,,,,,54,,,,,,,,,,,,,,509.10800000000745,,response,,,,100,,,,,,,Space,keypress(Space),,,,,,,,-- --- ---- --- ------ ----- ------- ---- -- --- ------- by<br>------- ---------- ------ -- ----- -- ----- -- ---- ------<br>--- ----- --- --- ------ -------- ----- --- ------ ----- --<br>----- ----- ---------- --- --- ------ ------ ---- -- ------<br>------- --- ------ ----- --- ---- ------- -- ---- --- --<br>------- ------,968028.3000000119,968026.5,967500.681,967508.5,967517.392,968035.433,,11,by
screen,html.Screen,2_1_1_1_12,2022-02-17T13:13:37.176Z,,,,,,,,,,,,,,,,,54,,,,,,,,,,,,,,426.0670000000391,,response,,,,100,,,,,,,Space,keypress(Space),,,,,,,,-- --- ---- --- ------ ----- ------- ---- -- --- ------- --<br>issuing ---------- ------ -- ----- -- ----- -- ---- ------<br>--- ----- --- --- ------ -------- ----- --- ------ ----- --<br>----- ----- ---------- --- --- ------ ------ ---- -- ------<br>------- --- ------ ----- --- ---- ------- -- ---- --- --<br>------- ------,968463.3000000119,968461.5,968018.722,968028.5,968035.433,968470.108,,12,issuing
screen,html.Screen,2_1_1_1_13,2022-02-17T13:13:37.448Z,,,,,,,,,,,,,,,,,54,,,,,,,,,,,,,,263.39199999999255,,response,,,,100,,,,,,,Space,keypress(Space),,,,,,,,-- --- ---- --- ------ ----- ------- ---- -- --- ------- --<br>------- government ------ -- ----- -- ----- -- ---- ------<br>--- ----- --- --- ------ -------- ----- --- ------ ----- --<br>----- ----- ---------- --- --- ------ ------ ---- -- ------<br>------- --- ------ ----- --- ---- ------- -- ---- --- --<br>------- ------,968735.3000000119,968733.5,968453.397,968463.5,968470.108,968737.484,,13,government
screen,html.Screen,2_1_1_1_14,2022-02-17T13:13:37.754Z,,,,,,,,,,,,,,,,,54,,,,,,,,,,,,,,301.816000011866,,response,,,,100,,,,,,,Space,keypress(Space),,,,,,,,-- --- ---- --- ------ ----- ------- ---- -- --- ------- --<br>------- ---------- bonds. -- ----- -- ----- -- ---- ------<br>--- ----- --- --- ------ -------- ----- --- ------ ----- --<br>----- ----- ---------- --- --- ------ ------ ---- -- ------<br>------- --- ------ ----- --- ---- ------- -- ---- --- --<br>------- ------,969041.4000000358,969039.3000000119,968720.773,968735.4000000358,968737.484,969054.993,,14,bonds.
screen,html.Screen,2_1_1_1_15,2022-02-17T13:13:38.097Z,,,,,,,,,,,,,,,,,54,,,,,,,,,,,,,,327.30700001190417,,response,,,,100,,,,,,,Space,keypress(Space),,,,,,,,-- --- ---- --- ------ ----- ------- ---- -- --- ------- --<br>------- ---------- ------ In ----- -- ----- -- ---- ------<br>--- ----- --- --- ------ -------- ----- --- ------ ----- --<br>----- ----- ---------- --- --- ------ ------ ---- -- ------<br>------- --- ------ ----- --- ---- ------- -- ---- --- --<br>------- ------,969384.4000000358,969382.3000000119,969038.282,969041.5,969054.993,969389.213,,15,In
screen,html.Screen,2_1_1_1_16,2022-02-17T13:13:38.422Z,,,,,,,,,,,,,,,,,54,,,,,,,,,,,,,,318.0870000119321,,response,,,,100,,,,,,,Space,keypress(Space),,,,,,,,"-- --- ---- --- ------ ----- ------- ---- -- --- ------- --<br>------- ---------- ------ -- 1727, -- ----- -- ---- ------<br>--- ----- --- --- ------ -------- ----- --- ------ ----- --<br>----- ----- ---------- --- --- ------ ------ ---- -- ------<br>------- --- ------ ----- --- ---- ------- -- ---- --- --<br>------- ------",969709.2000000477,969707.3000000119,969372.502,969384.6000000238,969389.213,969723.433,,16,"1727,"
screen,html.Screen,2_1_1_1_17,2022-02-17T13:13:39.066Z,,,,,,,,,,,,,,,,,54,,,,,,,,,,,,,,627.86700001196,,response,,,,100,,,,,,,Space,keypress(Space),,,,,,,,-- --- ---- --- ------ ----- ------- ---- -- --- ------- --<br>------- ---------- ------ -- ----- in ----- -- ---- ------<br>--- ----- --- --- ------ -------- ----- --- ------ ----- --<br>----- ----- ---------- --- --- ------ ------ ---- -- ------<br>------- --- ------ ----- --- ---- ------- -- ---- --- --<br>------- ------,970353.1000000238,970351.3000000119,969706.722,969709.4000000358,969723.433,970358.451,,17,in
screen,html.Screen,2_1_1_1_18,2022-02-17T13:13:39.412Z,,,,,,,,,,,,,,,,,54,,,,,,,,,,,,,,338.7490000476828,,response,,,,100,,,,,,,Space,keypress(Space),,,,,,,,-- --- ---- --- ------ ----- ------- ---- -- --- ------- --<br>------- ---------- ------ -- ----- -- order -- ---- ------<br>--- ----- --- --- ------ -------- ----- --- ------ ----- --<br>----- ----- ---------- --- --- ------ ------ ---- -- ------<br>------- --- ------ ----- --- ---- ------- -- ---- --- --<br>------- ------,970699.2000000477,970697.2000000477,970341.74,970353.3000000119,970358.451,970709.382,,18,order
screen,html.Screen,2_1_1_1_19,2022-02-17T13:13:39.735Z,,,,,,,,,,,,,,,,,54,,,,,,,,,,,,,,310.9180000119377,,response,,,,100,,,,,,,Space,keypress(Space),,,,,,,,-- --- ---- --- ------ ----- ------- ---- -- --- ------- --<br>------- ---------- ------ -- ----- -- ----- to ---- ------<br>--- ----- --- --- ------ -------- ----- --- ------ ----- --<br>----- ----- ---------- --- --- ------ ------ ---- -- ------<br>------- --- ------ ----- --- ---- ------- -- ---- --- --<br>------- ------,971022.1000000238,971020.3000000119,970692.671,970699.3000000119,970709.382,971026.891,,19,to
screen,html.Screen,2_1_1_1_20,2022-02-17T13:13:40.057Z,,,,,,,,,,,,,,,,,54,,,,,,,,,,,,,,315.4090000119759,,response,,,,100,,,,,,,Space,keypress(Space),,,,,,,,-- --- ---- --- ------ ----- ------- ---- -- --- ------- --<br>------- ---------- ------ -- ----- -- ----- -- save ------<br>--- ----- --- --- ------ -------- ----- --- ------ ----- --<br>----- ----- ---------- --- --- ------ ------ ---- -- ------<br>------- --- ------ ----- --- ---- ------- -- ---- --- --<br>------- ------,971344.1000000238,971342.3000000119,971010.18,971022.3000000119,971026.891,971361.111,,20,save
screen,html.Screen,2_1_1_1_21,2022-02-17T13:13:40.280Z,,,,,,,,,,,,,,,,,54,,,,,,,,,,,,,,204.1890000118874,,response,,,,100,,,,,,,Space,keypress(Space),,,,,,,,"-- --- ---- --- ------ ----- ------- ---- -- --- ------- --<br>------- ---------- ------ -- ----- -- ----- -- ---- money,<br>--- ----- --- --- ------ -------- ----- --- ------ ----- --<br>----- ----- ---------- --- --- ------ ------ ---- -- ------<br>------- --- ------ ----- --- ---- ------- -- ---- --- --<br>------- ------",971567.1000000238,971565.3000000119,971344.4,971344.3000000119,971361.111,971578.354,,21,"money,"
screen,html.Screen,2_1_1_1_22,2022-02-17T13:13:40.791Z,,,,,,,,,,,,,,,,,54,,,,,,,,,,,,,,497.8460000476334,,response,,,,100,,,,,,,Space,keypress(Space),,,,,,,,-- --- ---- --- ------ ----- ------- ---- -- --- ------- --<br>------- ---------- ------ -- ----- -- ----- -- ---- ------<br>the ----- --- --- ------ -------- ----- --- ------ ----- --<br>----- ----- ---------- --- --- ------ ------ ---- -- ------<br>------- --- ------ ----- --- ---- ------- -- ---- --- --<br>------- ------,972078.3000000119,972076.2000000477,971561.643,971567.3000000119,971578.354,972079.684,,22,the
screen,html.Screen,2_1_1_1_23,2022-02-17T13:13:41.069Z,,,,,,,,,,,,,,,,,54,,,,,,,,,,,,,,274.51600004767533,,response,,,,100,,,,,,,Space,keypress(Space),,,,,,,,-- --- ---- --- ------ ----- ------- ---- -- --- ------- --<br>------- ---------- ------ -- ----- -- ----- -- ---- ------<br>--- state --- --- ------ -------- ----- --- ------ ----- --<br>----- ----- ---------- --- --- ------ ------ ---- -- ------<br>------- --- ------ ----- --- ---- ------- -- ---- --- --<br>------- ------,972356.1000000238,972354.2000000477,972062.973,972078.6000000238,972079.684,972363.771,,23,state
screen,html.Screen,2_1_1_1_24,2022-02-17T13:13:41.464Z,,,,,,,,,,,,,,,,,54,,,,,,,,,,,,,,385.32900002389215,,response,,,,100,,,,,,,Space,keypress(Space),,,,,,,,-- --- ---- --- ------ ----- ------- ---- -- --- ------- --<br>------- ---------- ------ -- ----- -- ----- -- ---- ------<br>--- ----- cut --- ------ -------- ----- --- ------ ----- --<br>----- ----- ---------- --- --- ------ ------ ---- -- ------<br>------- --- ------ ----- --- ---- ------- -- ---- --- --<br>------- ------,972751.1000000238,972749.1000000238,972347.06,972356.2000000477,972363.771,972764.835,,24,cut
screen,html.Screen,2_1_1_1_25,2022-02-17T13:13:41.822Z,,,,,,,,,,,,,,,,,54,,,,,,,,,,,,,,342.2650000238791,,response,,,,100,,,,,,,Space,keypress(Space),,,,,,,,-- --- ---- --- ------ ----- ------- ---- -- --- ------- --<br>------- ---------- ------ -- ----- -- ----- -- ---- ------<br>--- ----- --- the ------ -------- ----- --- ------ ----- --<br>----- ----- ---------- --- --- ------ ------ ---- -- ------<br>------- --- ------ ----- --- ---- ------- -- ---- --- --<br>------- ------,973109,973107.1000000238,972748.124,972751.3000000119,972764.835,973115.766,,25,the
screen,html.Screen,2_1_1_1_26,2022-02-17T13:13:42.139Z,,,,,,,,,,,,,,,,,54,,,,,,,,,,,,,,308.43400004773866,,response,,,,100,,,,,,,Space,keypress(Space),,,,,,,,-- --- ---- --- ------ ----- ------- ---- -- --- ------- --<br>------- ---------- ------ -- ----- -- ----- -- ---- ------<br>--- ----- --- --- bonds' -------- ----- --- ------ ----- --<br>----- ----- ---------- --- --- ------ ------ ---- -- ------<br>------- --- ------ ----- --- ---- ------- -- ---- --- --<br>------- ------,973426.1000000238,973424.2000000477,973099.055,973109.1000000238,973115.766,973433.275,,26,bonds'
screen,html.Screen,2_1_1_1_27,2022-02-17T13:13:42.488Z,,,,,,,,,,,,,,,,,54,,,,,,,,,,,,,,339.8250000238186,,response,,,,100,,,,,,,Space,keypress(Space),,,,,,,,-- --- ---- --- ------ ----- ------- ---- -- --- ------- --<br>------- ---------- ------ -- ----- -- ----- -- ---- ------<br>--- ----- --- --- ------ interest ----- --- ------ ----- --<br>----- ----- ---------- --- --- ------ ------ ---- -- ------<br>------- --- ------ ----- --- ---- ------- -- ---- --- --<br>------- ------,973774.9000000358,973773.1000000238,973416.564,973426.3000000119,973433.275,973784.206,,27,interest
screen,html.Screen,2_1_1_1_28,2022-02-17T13:13:42.785Z,,,,,,,,,,,,,,,,,54,,,,,,,,,,,,,,284.89400002383627,,response,,,,100,,,,,,,Space,keypress(Space),,,,,,,,-- --- ---- --- ------ ----- ------- ---- -- --- ------- --<br>------- ---------- ------ -- ----- -- ----- -- ---- ------<br>--- ----- --- --- ------ -------- rate. --- ------ ----- --<br>----- ----- ---------- --- --- ------ ------ ---- -- ------<br>------- --- ------ ----- --- ---- ------- -- ---- --- --<br>------- ------,974072,974069.1000000238,973767.495,973775.1000000238,973784.206,974085.004,,28,rate.
screen,html.Screen,2_1_1_1_29,2022-02-17T13:13:43.170Z,,,,,,,,,,,,,,,,,54,,,,,,,,,,,,,,369.99600000004284,,response,,,,100,,,,,,,Space,keypress(Space),,,,,,,,-- --- ---- --- ------ ----- ------- ---- -- --- ------- --<br>------- ---------- ------ -- ----- -- ----- -- ---- ------<br>--- ----- --- --- ------ -------- ----- The ------ ----- --<br>----- ----- ---------- --- --- ------ ------ ---- -- ------<br>------- --- ------ ----- --- ---- ------- -- ---- --- --<br>------- ------,974456.8000000119,974455,974068.293,974072.2000000477,974085.004,974469.357,,29,The
screen,html.Screen,2_1_1_1_30,2022-02-17T13:13:43.439Z,,,,,,,,,,,,,,,,,54,,,,,,,,,,,,,,254.64300000004005,,response,,,,100,,,,,,,Space,keypress(Space),,,,,,,,-- --- ---- --- ------ ----- ------- ---- -- --- ------- --<br>------- ---------- ------ -- ----- -- ----- -- ---- ------<br>--- ----- --- --- ------ -------- ----- --- market ----- --<br>----- ----- ---------- --- --- ------ ------ ---- -- ------<br>------- --- ------ ----- --- ---- ------- -- ---- --- --<br>------- ------,974725.9000000358,974724,974452.646,974457,974469.357,974736.733,,30,market
screen,html.Screen,2_1_1_1_31,2022-02-17T13:13:43.765Z,,,,,,,,,,,,,,,,,54,,,,,,,,,,,,,,313.26699999999255,,response,,,,100,,,,,,,Space,keypress(Space),,,,,,,,-- --- ---- --- ------ ----- ------- ---- -- --- ------- --<br>------- ---------- ------ -- ----- -- ----- -- ---- ------<br>--- ----- --- --- ------ -------- ----- --- ------ value --<br>----- ----- ---------- --- --- ------ ------ ---- -- ------<br>------- --- ------ ----- --- ---- ------- -- ---- --- --<br>------- ------,975051.9000000358,975050,974720.022,974726.1000000238,974736.733,975054.242,,31,value
screen,html.Screen,2_1_1_1_32,2022-02-17T13:13:44.142Z,,,,,,,,,,,,,,,,,54,,,,,,,,,,,,,,372.75800000003073,,response,,,,100,,,,,,,Space,keypress(Space),,,,,,,,-- --- ---- --- ------ ----- ------- ---- -- --- ------- --<br>------- ---------- ------ -- ----- -- ----- -- ---- ------<br>--- ----- --- --- ------ -------- ----- --- ------ ----- of<br>----- ----- ---------- --- --- ------ ------ ---- -- ------<br>------- --- ------ ----- --- ---- ------- -- ---- --- --<br>------- ------,975428.9000000358,975427,975037.531,975052.1000000238,975054.242,975438.595,,32,of
screen,html.Screen,2_1_1_1_33,2022-02-17T13:13:44.458Z,,,,,,,,,,,,,,,,,54,,,,,,,,,,,,,,304.3050000357907,,response,,,,100,,,,,,,Space,keypress(Space),,,,,,,,-- --- ---- --- ------ ----- ------- ---- -- --- ------- --<br>------- ---------- ------ -- ----- -- ----- -- ---- ------<br>--- ----- --- --- ------ -------- ----- --- ------ ----- --<br>these ----- ---------- --- --- ------ ------ ---- -- ------<br>------- --- ------ ----- --- ---- ------- -- ---- --- --<br>------- ------,975744.8000000119,975742.9000000358,975421.884,975429,975438.595,975756.104,,33,these
screen,html.Screen,2_1_1_1_34,2022-02-17T13:13:44.763Z,,,,,,,,,,,,,,,,,54,,,,,,,,,,,,,,291.69600001187064,,response,,,,100,,,,,,,Space,keypress(Space),,,,,,,,-- --- ---- --- ------ ----- ------- ---- -- --- ------- --<br>------- ---------- ------ -- ----- -- ----- -- ---- ------<br>--- ----- --- --- ------ -------- ----- --- ------ ----- --<br>----- bonds ---------- --- --- ------ ------ ---- -- ------<br>------- --- ------ ----- --- ---- ------- -- ---- --- --<br>------- ------,976049.9000000358,976047.8000000119,975739.393,975745,975756.104,976056.902,,34,bonds
screen,html.Screen,2_1_1_1_35,2022-02-17T13:13:45.056Z,,,,,,,,,,,,,,,,,54,,,,,,,,,,,,,,284.09799999999814,,response,,,,100,,,,,,,Space,keypress(Space),,,,,,,,"-- --- ---- --- ------ ----- ------- ---- -- --- ------- --<br>------- ---------- ------ -- ----- -- ----- -- ---- ------<br>--- ----- --- --- ------ -------- ----- --- ------ ----- --<br>----- ----- plummeted, --- --- ------ ------ ---- -- ------<br>------- --- ------ ----- --- ---- ------- -- ---- --- --<br>------- ------",976342.7000000477,976341,976040.191,976050.4000000358,976056.902,976357.7,,35,"plummeted,"
screen,html.Screen,2_1_1_1_36,2022-02-17T13:13:45.385Z,,,,,,,,,,,,,,,,,54,,,,,,,,,,,,,,312.20000003580935,,response,,,,100,,,,,,,Space,keypress(Space),,,,,,,,-- --- ---- --- ------ ----- ------- ---- -- --- ------- --<br>------- ---------- ------ -- ----- -- ----- -- ---- ------<br>--- ----- --- --- ------ -------- ----- --- ------ ----- --<br>----- ----- ---------- and --- ------ ------ ---- -- ------<br>------- --- ------ ----- --- ---- ------- -- ---- --- --<br>------- ------,976671.8000000119,976669.9000000358,976340.989,976343,976357.7,976675.209,,36,and
screen,html.Screen,2_1_1_1_37,2022-02-17T13:13:45.677Z,,,,,,,,,,,,,,,,,54,,,,,,,,,,,,,,287.6910000357311,,response,,,,100,,,,,,,Space,keypress(Space),,,,,,,,-- --- ---- --- ------ ----- ------- ---- -- --- ------- --<br>------- ---------- ------ -- ----- -- ----- -- ---- ------<br>--- ----- --- --- ------ -------- ----- --- ------ ----- --<br>----- ----- ---------- --- the ------ ------ ---- -- ------<br>------- --- ------ ----- --- ---- ------- -- ---- --- --<br>------- ------,976964.8000000119,976962.9000000358,976658.498,976671.9000000358,976675.209,976976.007,,37,the
screen,html.Screen,2_1_1_1_38,2022-02-17T13:13:45.961Z,,,,,,,,,,,,,,,,,54,,,,,,,,,,,,,,270.89300003577955,,response,,,,100,,,,,,,Space,keypress(Space),,,,,,,,-- --- ---- --- ------ ----- ------- ---- -- --- ------- --<br>------- ---------- ------ -- ----- -- ----- -- ---- ------<br>--- ----- --- --- ------ -------- ----- --- ------ ----- --<br>----- ----- ---------- --- --- market ------ ---- -- ------<br>------- --- ------ ----- --- ---- ------- -- ---- --- --<br>------- ------,977248.7000000477,977246.9000000358,976959.296,976964.9000000358,976976.007,977260.094,,38,market
screen,html.Screen,2_1_1_1_39,2022-02-17T13:13:46.265Z,,,,,,,,,,,,,,,,,54,,,,,,,,,,,,,,289.8060000357218,,response,,,,100,,,,,,,Space,keypress(Space),,,,,,,,-- --- ---- --- ------ ----- ------- ---- -- --- ------- --<br>------- ---------- ------ -- ----- -- ----- -- ---- ------<br>--- ----- --- --- ------ -------- ----- --- ------ ----- --<br>----- ----- ---------- --- --- ------ became ---- -- ------<br>------- --- ------ ----- --- ---- ------- -- ---- --- --<br>------- ------,977551.9000000358,977549.9000000358,977243.383,977248.9000000358,977260.094,977560.892,,39,became
screen,html.Screen,2_1_1_1_40,2022-02-17T13:13:46.563Z,,,,,,,,,,,,,,,,,54,,,,,,,,,,,,,,287.50800003577024,,response,,,,100,,,,,,,Space,keypress(Space),,,,,,,,-- --- ---- --- ------ ----- ------- ---- -- --- ------- --<br>------- ---------- ------ -- ----- -- ----- -- ---- ------<br>--- ----- --- --- ------ -------- ----- --- ------ ----- --<br>----- ----- ---------- --- --- ------ ------ wary -- ------<br>------- --- ------ ----- --- ---- ------- -- ---- --- --<br>------- ------,977850.6000000238,977848.4000000358,977544.181,977552,977560.892,977861.69,,40,wary
screen,html.Screen,2_1_1_1_41,2022-02-17T13:13:46.909Z,,,,,,,,,,,,,,,,,54,,,,,,,,,,,,,,332.1100000119768,,response,,,,100,,,,,,,Space,keypress(Space),,,,,,,,-- --- ---- --- ------ ----- ------- ---- -- --- ------- --<br>------- ---------- ------ -- ----- -- ----- -- ---- ------<br>--- ----- --- --- ------ -------- ----- --- ------ ----- --<br>----- ----- ---------- --- --- ------ ------ ---- of ------<br>------- --- ------ ----- --- ---- ------- -- ---- --- --<br>------- ------,978195.8000000119,978193.8000000119,977844.979,977850.7000000477,977861.69,978212.81,,41,of
screen,html.Screen,2_1_1_1_42,2022-02-17T13:13:47.193Z,,,,,,,,,,,,,,,,,54,,,,,,,,,,,,,,265.99000001186505,,response,,,,100,,,,,,,Space,keypress(Space),,,,,,,,-- --- ---- --- ------ ----- ------- ---- -- --- ------- --<br>------- ---------- ------ -- ----- -- ----- -- ---- ------<br>--- ----- --- --- ------ -------- ----- --- ------ ----- --<br>----- ----- ---------- --- --- ------ ------ ---- -- French<br>------- --- ------ ----- --- ---- ------- -- ---- --- --<br>------- ------,978480.6000000238,978478.8000000119,978196.099,978195.9000000358,978212.81,978496.897,,42,French
screen,html.Screen,2_1_1_1_43,2022-02-17T13:13:47.516Z,,,,,,,,,,,,,,,,,54,,,,,,,,,,,,,,304.70300002384465,,response,,,,100,,,,,,,Space,keypress(Space),,,,,,,,-- --- ---- --- ------ ----- ------- ---- -- --- ------- --<br>------- ---------- ------ -- ----- -- ----- -- ---- ------<br>--- ----- --- --- ------ -------- ----- --- ------ ----- --<br>----- ----- ---------- --- --- ------ ------ ---- -- ------<br>credit. --- ------ ----- --- ---- ------- -- ---- --- --<br>------- ------,978803.7000000477,978801.6000000238,978480.186,978480.8000000119,978496.897,978814.406,,43,credit.
screen,html.Screen,2_1_1_1_44,2022-02-17T13:13:47.915Z,,,,,,,,,,,,,,,,,54,,,,,,,,,,,,,,386.3940000119619,,response,,,,100,,,,,,,Space,keypress(Space),,,,,,,,-- --- ---- --- ------ ----- ------- ---- -- --- ------- --<br>------- ---------- ------ -- ----- -- ----- -- ---- ------<br>--- ----- --- --- ------ -------- ----- --- ------ ----- --<br>----- ----- ---------- --- --- ------ ------ ---- -- ------<br>------- The ------ ----- --- ---- ------- -- ---- --- --<br>------- ------,979202.7000000477,979200.8000000119,978797.695,978803.8000000119,978814.406,979215.47,,44,The
screen,html.Screen,2_1_1_1_45,2022-02-17T13:13:48.201Z,,,,,,,,,,,,,,,,,54,,,,,,,,,,,,,,271.33000001194887,,response,,,,100,,,,,,,Space,keypress(Space),,,,,,,,-- --- ---- --- ------ ----- ------- ---- -- --- ------- --<br>------- ---------- ------ -- ----- -- ----- -- ---- ------<br>--- ----- --- --- ------ -------- ----- --- ------ ----- --<br>----- ----- ---------- --- --- ------ ------ ---- -- ------<br>------- --- French ----- --- ---- ------- -- ---- --- --<br>------- ------,979488.6000000238,979486.8000000119,979198.759,979202.9000000358,979215.47,979499.557,,45,French
screen,html.Screen,2_1_1_1_46,2022-02-17T13:13:48.501Z,,,,,,,,,,,,,,,,,54,,,,,,,,,,,,,,287.1430000476539,,response,,,,100,,,,,,,Space,keypress(Space),,,,,,,,-- --- ---- --- ------ ----- ------- ---- -- --- ------- --<br>------- ---------- ------ -- ----- -- ----- -- ---- ------<br>--- ----- --- --- ------ -------- ----- --- ------ ----- --<br>----- ----- ---------- --- --- ------ ------ ---- -- ------<br>------- --- ------ state --- ---- ------- -- ---- --- --<br>------- ------,979788.5,979786.7000000477,979482.846,979488.8000000119,979499.557,979800.355,,46,state
screen,html.Screen,2_1_1_1_47,2022-02-17T13:13:48.839Z,,,,,,,,,,,,,,,,,54,,,,,,,,,,,,,,324.34500004770234,,response,,,,100,,,,,,,Space,keypress(Space),,,,,,,,-- --- ---- --- ------ ----- ------- ---- -- --- ------- --<br>------- ---------- ------ -- ----- -- ----- -- ---- ------<br>--- ----- --- --- ------ -------- ----- --- ------ ----- --<br>----- ----- ---------- --- --- ------ ------ ---- -- ------<br>------- --- ------ ----- was ---- ------- -- ---- --- --<br>------- ------,980126.4000000358,980124.7000000477,979783.644,979788.7000000477,979800.355,980134.575,,47,was
screen,html.Screen,2_1_1_1_48,2022-02-17T13:13:49.122Z,,,,,,,,,,,,,,,,,54,,,,,,,,,,,,,,273.1250000477303,,response,,,,100,,,,,,,Space,keypress(Space),,,,,,,,-- --- ---- --- ------ ----- ------- ---- -- --- ------- --<br>------- ---------- ------ -- ----- -- ----- -- ---- ------<br>--- ----- --- --- ------ -------- ----- --- ------ ----- --<br>----- ----- ---------- --- --- ------ ------ ---- -- ------<br>------- --- ------ ----- --- left ------- -- ---- --- --<br>------- ------,980409.6000000238,980407.7000000477,980117.864,980126.6000000238,980134.575,980418.662,,48,left
screen,html.Screen,2_1_1_1_49,2022-02-17T13:13:49.447Z,,,,,,,,,,,,,,,,,54,,,,,,,,,,,,,,314.03800004767254,,response,,,,100,,,,,,,Space,keypress(Space),,,,,,,,-- --- ---- --- ------ ----- ------- ---- -- --- ------- --<br>------- ---------- ------ -- ----- -- ----- -- ---- ------<br>--- ----- --- --- ------ -------- ----- --- ------ ----- --<br>----- ----- ---------- --- --- ------ ------ ---- -- ------<br>------- --- ------ ----- --- ---- without -- ---- --- --<br>------- ------,980734.5,980732.7000000477,980401.951,980409.8000000119,980418.662,980736.171,,49,without
screen,html.Screen,2_1_1_1_50,2022-02-17T13:13:49.805Z,,,,,,,,,,,,,,,,,54,,,,,,,,,,,,,,354.329000000027,,response,,,,100,,,,,,,Space,keypress(Space),,,,,,,,-- --- ---- --- ------ ----- ------- ---- -- --- ------- --<br>------- ---------- ------ -- ----- -- ----- -- ---- ------<br>--- ----- --- --- ------ -------- ----- --- ------ ----- --<br>----- ----- ---------- --- --- ------ ------ ---- -- ------<br>------- --- ------ ----- --- ---- ------- an ---- --- --<br>------- ------,981092.4000000358,981090.5,980719.46,980734.6000000238,980736.171,981103.813,,50,an
screen,html.Screen,2_1_1_1_51,2022-02-17T13:13:50.140Z,,,,,,,,,,,,,,,,,54,,,,,,,,,,,,,,321.7870000238763,,response,,,,100,,,,,,,Space,keypress(Space),,,,,,,,-- --- ---- --- ------ ----- ------- ---- -- --- ------- --<br>------- ---------- ------ -- ----- -- ----- -- ---- ------<br>--- ----- --- --- ------ -------- ----- --- ------ ----- --<br>----- ----- ---------- --- --- ------ ------ ---- -- ------<br>------- --- ------ ----- --- ---- ------- -- easy --- --<br>------- ------,981427.4000000358,981425.6000000238,981087.102,981092.5,981103.813,981438.033,,51,easy
screen,html.Screen,2_1_1_1_52,2022-02-17T13:13:50.492Z,,,,,,,,,,,,,,,,,54,,,,,,,,,,,,,,339.56700002378784,,response,,,,100,,,,,,,Space,keypress(Space),,,,,,,,-- --- ---- --- ------ ----- ------- ---- -- --- ------- --<br>------- ---------- ------ -- ----- -- ----- -- ---- ------<br>--- ----- --- --- ------ -------- ----- --- ------ ----- --<br>----- ----- ---------- --- --- ------ ------ ---- -- ------<br>------- --- ------ ----- --- ---- ------- -- ---- way --<br>------- ------,981779.4000000358,981777.6000000238,981421.322,981427.5,981438.033,981788.964,,52,way
screen,html.Screen,2_1_1_1_53,2022-02-17T13:13:50.858Z,,,,,,,,,,,,,,,,,54,,,,,,,,,,,,,,354.63600002380554,,response,,,,100,,,,,,,Space,keypress(Space),,,,,,,,-- --- ---- --- ------ ----- ------- ---- -- --- ------- --<br>------- ---------- ------ -- ----- -- ----- -- ---- ------<br>--- ----- --- --- ------ -------- ----- --- ------ ----- --<br>----- ----- ---------- --- --- ------ ------ ---- -- ------<br>------- --- ------ ----- --- ---- ------- -- ---- --- of<br>------- ------,982145.4000000358,982143.6000000238,981772.253,981779.6000000238,981788.964,982156.606,,53,of
screen,html.Screen,2_1_1_1_54,2022-02-17T13:13:51.193Z,,,,,,,,,,,,,,,,,54,,,,,,,,,,,,,,321.994000023813,,response,,,,100,,,,,,,Space,keypress(Space),,,,,,,,-- --- ---- --- ------ ----- ------- ---- -- --- ------- --<br>------- ---------- ------ -- ----- -- ----- -- ---- ------<br>--- ----- --- --- ------ -------- ----- --- ------ ----- --<br>----- ----- ---------- --- --- ------ ------ ---- -- ------<br>------- --- ------ ----- --- ---- ------- -- ---- --- --<br>raising ------,982480.5,982478.6000000238,982139.895,982145.6000000238,982156.606,982490.826,,54,raising
screen,html.Screen,2_1_1_1_55,2022-02-17T13:13:51.649Z,,,,,,,,,,,,,,,,,54,,,,,,,,,,,,,,443.57400003576186,,response,,,,100,,,,,,,Space,keypress(Space),,,,,,,,-- --- ---- --- ------ ----- ------- ---- -- --- ------- --<br>------- ---------- ------ -- ----- -- ----- -- ---- ------<br>--- ----- --- --- ------ -------- ----- --- ------ ----- --<br>----- ----- ---------- --- --- ------ ------ ---- -- ------<br>------- --- ------ ----- --- ---- ------- -- ---- --- --<br>------- money.,982936.1000000238,982934.4000000358,982474.115,982480.6000000238,982490.826,982942.023,,55,money.
Item 100,flow.Loop,2_1_1_1,2022-02-17T13:13:51.649Z,,,,,,,,,,,,,,,,,,,,,,,,,,,,,,,19795.290000035777,,completion,,,,,D,,,,,,,,,,,silence,,,,,982936.5,982934.4000000358,963122.399,963124.7000000477,963139.11,982942.023,,,
Question 1,html.Screen,2_1_1_2,2022-02-17T13:13:54.215Z,,,,,,,,,,,,,,,,,,,,,,,,,,,,true,TRUE,,2558.177000047639,,response,,,,100,D,,,,,,TRUE,click #choice-1,,,,silence,,,,,985502.2000000477,985500.2000000477,982925.312,982936.6000000238,982942.023,985515.517,,,
Question 2,html.Screen,2_1_1_3,2022-02-17T13:13:56.435Z,,,,,,,,,,,,,,,,,,,,,,,,,,,,true,FALSE,,2204.7830000119284,,response,,,,100,D,,,,,,FALSE,click #choice-2,,,,silence,,,,,987722.3000000119,987720.3000000119,985498.806,985502.4000000358,985515.517,987738.08,,,
Item 100,flow.Sequence,2_1_1,2022-02-17T13:13:56.436Z,,,,,,,,,,,,,,,,,,,,,,,,,,,,,,,34574.54100001196,,completion,,,,,,,,,,,,,,,,,,,,,987722.5,987720.3000000119,953129.048,953129.5,953145.759,987738.08,,,
End of Practice,html.Page,2_1_2,2022-02-17T13:14:01.151Z,,,,,,,,,,,,,,,,,,,,,,,,,,,,,,,4699.420000000042,,form submission,,,,,,,,,,,,,,,,,,,,,992438,992437.5,987721.369,987722.7000000477,987738.08,992450.756,,,
Practice,flow.Sequence,2_1,2022-02-17T13:14:01.152Z,,,,,,,,,,,,,,,,,,,,,,,,,,,,,,,86250.63800000004,,completion,,,,,,,,,,,,,,,,,,,,,992438.4000000358,992437.5,906170.151,906166.5,906186.862,992450.756,,,
Trap_instruction,html.Page,2_2_0,2022-02-17T13:14:06.609Z,,,,,,,,,,,,,,,,,,,,,,,,,,,,,,,5444.044000011869,,form submission,,,,,,,,,,,,,,,,,,,,,997895.2000000477,997894.8000000119,992434.045,992438.5,992450.756,997931.964,,,
trap_trial,html.Screen,2_2_1,2022-02-17T13:14:09.735Z,,,,,,,,,,,,,,,,,,,,,,,,,,,,true,1,,3087.2360000476474,,response,,,,,,,,,,,1,click #choice-1,,,,,,,,,1001021.2000000477,1001019.2000000477,997881.831,997895.5,997931.964,1001040.392,,,
end of trap trial,html.Page,2_2_2,2022-02-17T13:14:12.007Z,,,,,,,,,,,,,,,,,,,,,,,,,,,,,,,2252.4080000119284,,form submission,,,,,,,,,,,,,,,,,,,,,1003293.2000000477,1003292.8000000119,1001023.681,1001021.4000000358,1001040.392,1003313.088,,,
Trap 1,flow.Sequence,2_2,2022-02-17T13:14:12.007Z,,,,,,,,,,,,,,,,,,,,,,,,,,,,,,,10842.044000011869,,completion,,,,,,,,,,,,,,,,,,,,,1003293.6000000238,1003292.8000000119,992434.045,992438.5,992450.756,1003313.088,,,
Standby,html.Page,2_3_0,2022-02-17T13:14:20.017Z,,,,,,,,,,,,,,,,,,,,,,,,,,,,,,,8004.569000000018,,timeout,,,,,,,,,,,,,,,,,,,,,1011303,1011300.946,1003296.377,1003293.9000000358,1003313.088,1011317.657,,,
Holding screen,html.Screen,2_3_1_0_0,2022-02-17T13:14:27.019Z,,,,,,,,,,,,,,,,,,,,,,,,,,,,,,,7002.146999999997,,timeout,,,,,,,,,,,,,,,,,,,,,1018304.6000000238,1018303.093,1011300.946,1011303.3000000119,1011317.657,1018319.804,,,
screen,html.Screen,2_3_1_0_1_0,2022-02-17T13:14:28.020Z,,,,,,,,,,,,,,,,,11,,,,,,,,,,,,,,982.39600004768,,response,,,,4,D,,,,,,Space,keypress(Space),,,,silence,,,,Known -- ---- --- -- --- -------- ------------ ---------- --<br>- ------- ------ --------- -- ------------ -- --- ---- -----<br>------ ---- ---- ------ ------ ------- --- ----- ---------<br>---- --- -------- -------- --- --- -- ------- --- --- -----<br>-- --- ------ ------- --- --- -------- ---- --------- --<br>---------- -- -------- ----------------,1019306.2000000477,1019302.2000000477,1018303.093,1018304.9000000358,1018319.804,1019322.464,,0,Known
screen,html.Screen,2_3_1_0_1_1,2022-02-17T13:14:28.413Z,,,,,,,,,,,,,,,,,11,,,,,,,,,,,,,,374.2360000476474,,response,,,,4,D,,,,,,Space,keypress(Space),,,,silence,,,,----- as ---- --- -- --- -------- ------------ ---------- --<br>- ------- ------ --------- -- ------------ -- --- ---- -----<br>------ ---- ---- ------ ------ ------- --- ----- ---------<br>---- --- -------- -------- --- --- -- ------- --- --- -----<br>-- --- ------ ------- --- --- -------- ---- --------- --<br>---------- -- -------- ----------------,1019698.5,1019696.7000000477,1019305.753,1019306.4000000358,1019322.464,1019706.817,,1,as
screen,html.Screen,2_3_1_0_1_2,2022-02-17T13:14:28.719Z,,,,,,,,,,,,,,,,,11,,,,,,,,,,,,,,295.78300002380274,,response,,,,4,D,,,,,,Space,keypress(Space),,,,silence,,,,----- -- Rapa --- -- --- -------- ------------ ---------- --<br>- ------- ------ --------- -- ------------ -- --- ---- -----<br>------ ---- ---- ------ ------ ------- --- ----- ---------<br>---- --- -------- -------- --- --- -- ------- --- --- -----<br>-- --- ------ ------- --- --- -------- ---- --------- --<br>---------- -- -------- ----------------,1020004.5,1020002.6000000238,1019690.106,1019698.7000000477,1019706.817,1020007.615,,2,Rapa
screen,html.Screen,2_3_1_0_1_3,2022-02-17T13:14:29.143Z,,,,,,,,,,,,,,,,,11,,,,,,,,,,,,,,419.98500002385117,,response,,,,4,D,,,,,,Space,keypress(Space),,,,silence,,,,----- -- ---- Nui -- --- -------- ------------ ---------- --<br>- ------- ------ --------- -- ------------ -- --- ---- -----<br>------ ---- ---- ------ ------ ------- --- ----- ---------<br>---- --- -------- -------- --- --- -- ------- --- --- -----<br>-- --- ------ ------- --- --- -------- ---- --------- --<br>---------- -- -------- ----------------,1020429.4000000358,1020427.6000000238,1019990.904,1020004.7000000477,1020007.615,1020442.101,,3,Nui
screen,html.Screen,2_3_1_0_1_4,2022-02-17T13:14:29.567Z,,,,,,,,,,,,,,,,,11,,,,,,,,,,,,,,408.3989999999758,,response,,,,4,D,,,,,,Space,keypress(Space),,,,silence,,,,----- -- ---- --- to --- -------- ------------ ---------- --<br>- ------- ------ --------- -- ------------ -- --- ---- -----<br>------ ---- ---- ------ ------ ------- --- ----- ---------<br>---- --- -------- -------- --- --- -- ------- --- --- -----<br>-- --- ------ ------- --- --- -------- ---- --------- --<br>---------- -- -------- ----------------,1020852.4000000358,1020850.5,1020425.39,1020429.6000000238,1020442.101,1020859.876,,4,to
screen,html.Screen,2_3_1_0_1_5,2022-02-17T13:14:29.911Z,,,,,,,,,,,,,,,,,11,,,,,,,,,,,,,,334.42400001187343,,response,,,,4,D,,,,,,Space,keypress(Space),,,,silence,,,,----- -- ---- --- -- the -------- ------------ ---------- --<br>- ------- ------ --------- -- ------------ -- --- ---- -----<br>------ ---- ---- ------ ------ ------- --- ----- ---------<br>---- --- -------- -------- --- --- -- ------- --- --- -----<br>-- --- ------ ------- --- --- -------- ---- --------- --<br>---------- -- -------- ----------------,1021196.5,1021194.3000000119,1020843.165,1020852.6000000238,1020859.876,1021210.807,,5,the
screen,html.Screen,2_3_1_0_1_6,2022-02-17T13:14:30.287Z,,,,,,,,,,,,,,,,,11,,,,,,,,,,,,,,359.6929999999702,,response,,,,4,D,,,,,,Space,keypress(Space),,,,silence,,,,----- -- ---- --- -- --- island's ------------ ---------- --<br>- ------- ------ --------- -- ------------ -- --- ---- -----<br>------ ---- ---- ------ ------ ------- --- ----- ---------<br>---- --- -------- -------- --- --- -- ------- --- --- -----<br>-- --- ------ ------- --- --- -------- ---- --------- --<br>---------- -- -------- ----------------,1021572.5,1021570.5,1021194.096,1021196.7000000477,1021210.807,1021578.449,,6,island's
screen,html.Screen,2_3_1_0_1_7,2022-02-17T13:14:30.719Z,,,,,,,,,,,,,,,,,11,,,,,,,,,,,,,,425.05099999997765,,response,,,,4,D,,,,,,Space,keypress(Space),,,,silence,,,,"----- -- ---- --- -- --- -------- inhabitants, ---------- --<br>- ------- ------ --------- -- ------------ -- --- ---- -----<br>------ ---- ---- ------ ------ ------- --- ----- ---------<br>---- --- -------- -------- --- --- -- ------- --- --- -----<br>-- --- ------ ------- --- --- -------- ---- --------- --<br>---------- -- -------- ----------------",1022005.4000000358,1022003.5,1021561.738,1021572.6000000238,1021578.449,1022012.935,,7,"inhabitants,"
screen,html.Screen,2_3_1_0_1_8,2022-02-17T13:14:32.219Z,,,,,,,,,,,,,,,,,11,,,,,,,,,,,,,,1489.365000011865,,response,,,,4,D,,,,,,Space,keypress(Space),,,,silence,,,,----- -- ---- --- -- --- -------- ------------ Rongorongo --<br>- ------- ------ --------- -- ------------ -- --- ---- -----<br>------ ---- ---- ------ ------ ------- --- ----- ---------<br>---- --- -------- -------- --- --- -- ------- --- --- -----<br>-- --- ------ ------- --- --- -------- ---- --------- --<br>---------- -- -------- ----------------,1023504.3000000119,1023502.3000000119,1021996.224,1022005.5,1022012.935,1023517.109,,8,Rongorongo
screen,html.Screen,2_3_1_0_1_9,2022-02-17T13:14:32.636Z,,,,,,,,,,,,,,,,,11,,,,,,,,,,,,,,403.191000011866,,response,,,,4,D,,,,,,Space,keypress(Space),,,,silence,,,,----- -- ---- --- -- --- -------- ------------ ---------- is<br>- ------- ------ --------- -- ------------ -- --- ---- -----<br>------ ---- ---- ------ ------ ------- --- ----- ---------<br>---- --- -------- -------- --- --- -- ------- --- --- -----<br>-- --- ------ ------- --- --- -------- ---- --------- --<br>---------- -- -------- ----------------,1023922.2000000477,1023920.3000000119,1023500.398,1023504.5,1023517.109,1023934.884,,9,is
screen,html.Screen,2_3_1_0_1_10,2022-02-17T13:14:32.997Z,,,,,,,,,,,,,,,,,11,,,,,,,,,,,,,,346.4160000119591,,response,,,,4,D,,,,,,Space,keypress(Space),,,,silence,,,,----- -- ---- --- -- --- -------- ------------ ---------- --<br>a ------- ------ --------- -- ------------ -- --- ---- -----<br>------ ---- ---- ------ ------ ------- --- ----- ---------<br>---- --- -------- -------- --- --- -- ------- --- --- -----<br>-- --- ------ ------- --- --- -------- ---- --------- --<br>---------- -- -------- ----------------,1024283.3000000119,1024281.3000000119,1023918.173,1023922.4000000358,1023934.884,1024285.815,,10,a
screen,html.Screen,2_3_1_0_1_11,2022-02-17T13:14:33.271Z,,,,,,,,,,,,,,,,,11,,,,,,,,,,,,,,269.58500003581867,,response,,,,4,D,,,,,,Space,keypress(Space),,,,silence,,,,----- -- ---- --- -- --- -------- ------------ ---------- --<br>- writing ------ --------- -- ------------ -- --- ---- -----<br>------ ---- ---- ------ ------ ------- --- ----- ---------<br>---- --- -------- -------- --- --- -- ------- --- --- -----<br>-- --- ------ ------- --- --- -------- ---- --------- --<br>---------- -- -------- ----------------,1024557.2000000477,1024555.4000000358,1024269.104,1024283.4000000358,1024285.815,1024569.902,,11,writing
screen,html.Screen,2_3_1_0_1_12,2022-02-17T13:14:33.592Z,,,,,,,,,,,,,,,,,11,,,,,,,,,,,,,,306.39800001191907,,response,,,,4,D,,,,,,Space,keypress(Space),,,,silence,,,,----- -- ---- --- -- --- -------- ------------ ---------- --<br>- ------- system --------- -- ------------ -- --- ---- -----<br>------ ---- ---- ------ ------ ------- --- ----- ---------<br>---- --- -------- -------- --- --- -- ------- --- --- -----<br>-- --- ------ ------- --- --- -------- ---- --------- --<br>---------- -- -------- ----------------,1024878.2000000477,1024876.3000000119,1024553.191,1024557.3000000119,1024569.902,1024887.411,,12,system
screen,html.Screen,2_3_1_0_1_13,2022-02-17T13:14:33.910Z,,,,,,,,,,,,,,,,,11,,,,,,,,,,,,,,306.78900004772004,,response,,,,4,D,,,,,,Space,keypress(Space),,,,silence,,,,----- -- ---- --- -- --- -------- ------------ ---------- --<br>- ------- ------ comprised -- ------------ -- --- ---- -----<br>------ ---- ---- ------ ------ ------- --- ----- ---------<br>---- --- -------- -------- --- --- -- ------- --- --- -----<br>-- --- ------ ------- --- --- -------- ---- --------- --<br>---------- -- -------- ----------------,1025196,1025194.2000000477,1024870.7,1024878.4000000358,1024887.411,1025204.92,,13,comprised
screen,html.Screen,2_3_1_0_1_14,2022-02-17T13:14:34.205Z,,,,,,,,,,,,,,,,,11,,,,,,,,,,,,,,283.380000011879,,response,,,,4,D,,,,,,Space,keypress(Space),,,,silence,,,,----- -- ---- --- -- --- -------- ------------ ---------- --<br>- ------- ------ --------- of ------------ -- --- ---- -----<br>------ ---- ---- ------ ------ ------- --- ----- ---------<br>---- --- -------- -------- --- --- -- ------- --- --- -----<br>-- --- ------ ------- --- --- -------- ---- --------- --<br>---------- -- -------- ----------------,1025490.3000000119,1025488.3000000119,1025188.209,1025196.1000000238,1025204.92,1025505.718,,14,of
screen,html.Screen,2_3_1_0_1_15,2022-02-17T13:14:34.530Z,,,,,,,,,,,,,,,,,11,,,,,,,,,,,,,,308.2820000000065,,response,,,,4,D,,,,,,Space,keypress(Space),,,,silence,,,,----- -- ---- --- -- --- -------- ------------ ---------- --<br>- ------- ------ --------- -- pictographs. -- --- ---- -----<br>------ ---- ---- ------ ------ ------- --- ----- ---------<br>---- --- -------- -------- --- --- -- ------- --- --- -----<br>-- --- ------ ------- --- --- -------- ---- --------- --<br>---------- -- -------- ----------------,1025815.7000000477,1025814,1025489.007,1025490.5,1025505.718,1025823.227,,15,pictographs.
screen,html.Screen,2_3_1_0_1_16,2022-02-17T13:14:34.969Z,,,,,,,,,,,,,,,,,11,,,,,,,,,,,,,,429.9730000477284,,response,,,,4,D,,,,,,Space,keypress(Space),,,,silence,,,,----- -- ---- --- -- --- -------- ------------ ---------- --<br>- ------- ------ --------- -- ------------ It --- ---- -----<br>------ ---- ---- ------ ------ ------- --- ----- ---------<br>---- --- -------- -------- --- --- -- ------- --- --- -----<br>-- --- ------ ------- --- --- -------- ---- --------- --<br>---------- -- -------- ----------------,1026255.1000000238,1026253.2000000477,1025806.516,1025815.9000000358,1025823.227,1026257.713,,16,It
screen,html.Screen,2_3_1_0_1_17,2022-02-17T13:14:35.244Z,,,,,,,,,,,,,,,,,11,,,,,,,,,,,,,,270.38700002385303,,response,,,,4,D,,,,,,Space,keypress(Space),,,,silence,,,,----- -- ---- --- -- --- -------- ------------ ---------- --<br>- ------- ------ --------- -- ------------ -- has ---- -----<br>------ ---- ---- ------ ------ ------- --- ----- ---------<br>---- --- -------- -------- --- --- -- ------- --- --- -----<br>-- --- ------ ------- --- --- -------- ---- --------- --<br>---------- -- -------- ----------------,1026530,1026528.1000000238,1026241.002,1026255.3000000119,1026257.713,1026558.511,,17,has
screen,html.Screen,2_3_1_0_1_18,2022-02-17T13:14:35.525Z,,,,,,,,,,,,,,,,,11,,,,,,,,,,,,,,250.58900002378505,,response,,,,4,D,,,,,,Space,keypress(Space),,,,silence,,,,----- -- ---- --- -- --- -------- ------------ ---------- --<br>- ------- ------ --------- -- ------------ -- --- been -----<br>------ ---- ---- ------ ------ ------- --- ----- ---------<br>---- --- -------- -------- --- --- -- ------- --- --- -----<br>-- --- ------ ------- --- --- -------- ---- --------- --<br>---------- -- -------- ----------------,1026810.9000000358,1026809.1000000238,1026541.8,1026530.2000000477,1026558.511,1026825.887,,18,been
screen,html.Screen,2_3_1_0_1_19,2022-02-17T13:14:35.866Z,,,,,,,,,,,,,,,,,11,,,,,,,,,,,,,,324.3130000476958,,response,,,,4,D,,,,,,Space,keypress(Space),,,,silence,,,,----- -- ---- --- -- --- -------- ------------ ---------- --<br>- ------- ------ --------- -- ------------ -- --- ---- found<br>------ ---- ---- ------ ------ ------- --- ----- ---------<br>---- --- -------- -------- --- --- -- ------- --- --- -----<br>-- --- ------ ------- --- --- -------- ---- --------- --<br>---------- -- -------- ----------------,1027152,1027150.2000000477,1026809.176,1026811,1026825.887,1027160.107,,19,found
screen,html.Screen,2_3_1_0_1_20,2022-02-17T13:14:36.205Z,,,,,,,,,,,,,,,,,11,,,,,,,,,,,,,,328.9930000238819,,response,,,,4,D,,,,,,Space,keypress(Space),,,,silence,,,,----- -- ---- --- -- --- -------- ------------ ---------- --<br>- ------- ------ --------- -- ------------ -- --- ---- -----<br>carved ---- ---- ------ ------ ------- --- ----- ---------<br>---- --- -------- -------- --- --- -- ------- --- --- -----<br>-- --- ------ ------- --- --- -------- ---- --------- --<br>---------- -- -------- ----------------,1027491,1027489.1000000238,1027143.396,1027152.2000000477,1027160.107,1027494.327,,20,carved
screen,html.Screen,2_3_1_0_1_21,2022-02-17T13:14:36.528Z,,,,,,,,,,,,,,,,,11,,,,,,,,,,,,,,317.8730000476353,,response,,,,4,D,,,,,,Space,keypress(Space),,,,silence,,,,----- -- ---- --- -- --- -------- ------------ ---------- --<br>- ------- ------ --------- -- ------------ -- --- ---- -----<br>------ into ---- ------ ------ ------- --- ----- ---------<br>---- --- -------- -------- --- --- -- ------- --- --- -----<br>-- --- ------ ------- --- --- -------- ---- --------- --<br>---------- -- -------- ----------------,1027814,1027812.2000000477,1027477.616,1027491.1000000238,1027494.327,1027828.547,,21,into
screen,html.Screen,2_3_1_0_1_22,2022-02-17T13:14:36.757Z,,,,,,,,,,,,,,,,,11,,,,,,,,,,,,,,212.55300002382137,,response,,,,4,D,,,,,,Space,keypress(Space),,,,silence,,,,----- -- ---- --- -- --- -------- ------------ ---------- --<br>- ------- ------ --------- -- ------------ -- --- ---- -----<br>------ ---- many ------ ------ ------- --- ----- ---------<br>---- --- -------- -------- --- --- -- ------- --- --- -----<br>-- --- ------ ------- --- --- -------- ---- --------- --<br>---------- -- -------- ----------------,1028043,1028041.1000000238,1027811.836,1027814.2000000477,1027828.547,1028045.79,,22,many
screen,html.Screen,2_3_1_0_1_23,2022-02-17T13:14:37.103Z,,,,,,,,,,,,,,,,,11,,,,,,,,,,,,,,341.20999999996275,,response,,,,4,D,,,,,,Space,keypress(Space),,,,silence,,,,----- -- ---- --- -- --- -------- ------------ ---------- --<br>- ------- ------ --------- -- ------------ -- --- ---- -----<br>------ ---- ---- oblong ------ ------- --- ----- ---------<br>---- --- -------- -------- --- --- -- ------- --- --- -----<br>-- --- ------ ------- --- --- -------- ---- --------- --<br>---------- -- -------- ----------------,1028388.8000000119,1028387,1028029.079,1028043.2000000477,1028045.79,1028396.721,,23,oblong
screen,html.Screen,2_3_1_0_1_24,2022-02-17T13:14:37.442Z,,,,,,,,,,,,,,,,,11,,,,,,,,,,,,,,329.27899999998044,,response,,,,4,D,,,,,,Space,keypress(Space),,,,silence,,,,----- -- ---- --- -- --- -------- ------------ ---------- --<br>- ------- ------ --------- -- ------------ -- --- ---- -----<br>------ ---- ---- ------ wooden ------- --- ----- ---------<br>---- --- -------- -------- --- --- -- ------- --- --- -----<br>-- --- ------ ------- --- --- -------- ---- --------- --<br>---------- -- -------- ----------------,1028727.9000000358,1028726,1028380.01,1028389,1028396.721,1028730.941,,24,wooden
screen,html.Screen,2_3_1_0_1_25,2022-02-17T13:14:37.779Z,,,,,,,,,,,,,,,,,11,,,,,,,,,,,,,,332.0590000000084,,response,,,,4,D,,,,,,Space,keypress(Space),,,,silence,,,,----- -- ---- --- -- --- -------- ------------ ---------- --<br>- ------- ------ --------- -- ------------ -- --- ---- -----<br>------ ---- ---- ------ ------ tablets --- ----- ---------<br>---- --- -------- -------- --- --- -- ------- --- --- -----<br>-- --- ------ ------- --- --- -------- ---- --------- --<br>---------- -- -------- ----------------,1029065,1029063,1028714.23,1028728.1000000238,1028730.941,1029081.872,,25,tablets
screen,html.Screen,2_3_1_0_1_26,2022-02-17T13:14:38.157Z,,,,,,,,,,,,,,,,,11,,,,,,,,,,,,,,358.1280000000261,,response,,,,4,D,,,,,,Space,keypress(Space),,,,silence,,,,----- -- ---- --- -- --- -------- ------------ ---------- --<br>- ------- ------ --------- -- ------------ -- --- ---- -----<br>------ ---- ---- ------ ------ ------- and ----- ---------<br>---- --- -------- -------- --- --- -- ------- --- --- -----<br>-- --- ------ ------- --- --- -------- ---- --------- --<br>---------- -- -------- ----------------,1029442.8000000119,1029440,1029065.161,1029065.1000000238,1029081.872,1029449.514,,26,and
screen,html.Screen,2_3_1_0_1_27,2022-02-17T13:14:38.469Z,,,,,,,,,,,,,,,,,11,,,,,,,,,,,,,,303.4860000000335,,response,,,,4,D,,,,,,Space,keypress(Space),,,,silence,,,,----- -- ---- --- -- --- -------- ------------ ---------- --<br>- ------- ------ --------- -- ------------ -- --- ---- -----<br>------ ---- ---- ------ ------ ------- --- other ---------<br>---- --- -------- -------- --- --- -- ------- --- --- -----<br>-- --- ------ ------- --- --- -------- ---- --------- --<br>---------- -- -------- ----------------,1029754.8000000119,1029753,1029432.803,1029443.1000000238,1029449.514,1029767.023,,27,other
screen,html.Screen,2_3_1_0_1_28,2022-02-17T13:14:38.771Z,,,,,,,,,,,,,,,,,11,,,,,,,,,,,,,,287.9769999999553,,response,,,,4,D,,,,,,Space,keypress(Space),,,,silence,,,,----- -- ---- --- -- --- -------- ------------ ---------- --<br>- ------- ------ --------- -- ------------ -- --- ---- -----<br>------ ---- ---- ------ ------ ------- --- ----- artifacts<br>---- --- -------- -------- --- --- -- ------- --- --- -----<br>-- --- ------ ------- --- --- -------- ---- --------- --<br>---------- -- -------- ----------------,1030056.9000000358,1030055,1029750.312,1029755,1029767.023,1030067.821,,28,artifacts
screen,html.Screen,2_3_1_0_1_29,2022-02-17T13:14:39.162Z,,,,,,,,,,,,,,,,,11,,,,,,,,,,,,,,378.0790000357665,,response,,,,4,D,,,,,,Space,keypress(Space),,,,silence,,,,----- -- ---- --- -- --- -------- ------------ ---------- --<br>- ------- ------ --------- -- ------------ -- --- ---- -----<br>------ ---- ---- ------ ------ ------- --- ----- ---------<br>from --- -------- -------- --- --- -- ------- --- --- -----<br>-- --- ------ ------- --- --- -------- ---- --------- --<br>---------- -- -------- ----------------,1030447.9000000358,1030445.9000000358,1030051.11,1030057,1030067.821,1030452.174,,29,from
screen,html.Screen,2_3_1_0_1_30,2022-02-17T13:14:39.472Z,,,,,,,,,,,,,,,,,11,,,,,,,,,,,,,,303.7260000357637,,response,,,,4,D,,,,,,Space,keypress(Space),,,,silence,,,,----- -- ---- --- -- --- -------- ------------ ---------- --<br>- ------- ------ --------- -- ------------ -- --- ---- -----<br>------ ---- ---- ------ ------ ------- --- ----- ---------<br>---- the -------- -------- --- --- -- ------- --- --- -----<br>-- --- ------ ------- --- --- -------- ---- --------- --<br>---------- -- -------- ----------------,1030757.7000000477,1030755.9000000358,1030435.463,1030448.1000000238,1030452.174,1030769.683,,30,the
screen,html.Screen,2_3_1_0_1_31,2022-02-17T13:14:39.804Z,,,,,,,,,,,,,,,,,11,,,,,,,,,,,,,,318.3170000000391,,response,,,,4,D,,,,,,Space,keypress(Space),,,,silence,,,,----- -- ---- --- -- --- -------- ------------ ---------- --<br>- ------- ------ --------- -- ------------ -- --- ---- -----<br>------ ---- ---- ------ ------ ------- --- ----- ---------<br>---- --- island's -------- --- --- -- ------- --- --- -----<br>-- --- ------ ------- --- --- -------- ---- --------- --<br>---------- -- -------- ----------------,1031090.1000000238,1031088,1030752.972,1030757.8000000119,1030769.683,1031103.903,,31,island's
screen,html.Screen,2_3_1_0_1_32,2022-02-17T13:14:40.149Z,,,,,,,,,,,,,,,,,11,,,,,,,,,,,,,,328.89700001187157,,response,,,,4,D,,,,,,Space,keypress(Space),,,,silence,,,,----- -- ---- --- -- --- -------- ------------ ---------- --<br>- ------- ------ --------- -- ------------ -- --- ---- -----<br>------ ---- ---- ------ ------ ------- --- ----- ---------<br>---- --- -------- history. --- --- -- ------- --- --- -----<br>-- --- ------ ------- --- --- -------- ---- --------- --<br>---------- -- -------- ----------------,1031434.8000000119,1031432.8000000119,1031087.192,1031090.1000000238,1031103.903,1031438.123,,32,history.
screen,html.Screen,2_3_1_0_1_33,2022-02-17T13:14:40.485Z,,,,,,,,,,,,,,,,,11,,,,,,,,,,,,,,330.77700003574137,,response,,,,4,D,,,,,,Space,keypress(Space),,,,silence,,,,----- -- ---- --- -- --- -------- ------------ ---------- --<br>- ------- ------ --------- -- ------------ -- --- ---- -----<br>------ ---- ---- ------ ------ ------- --- ----- ---------<br>---- --- -------- -------- The --- -- ------- --- --- -----<br>-- --- ------ ------- --- --- -------- ---- --------- --<br>---------- -- -------- ----------------,1031770.9000000358,1031768.9000000358,1031421.412,1031434.9000000358,1031438.123,1031772.343,,33,The
screen,html.Screen,2_3_1_0_1_34,2022-02-17T13:14:40.826Z,,,,,,,,,,,,,,,,,11,,,,,,,,,,,,,,337.45700001192745,,response,,,,4,D,,,,,,Space,keypress(Space),,,,silence,,,,----- -- ---- --- -- --- -------- ------------ ---------- --<br>- ------- ------ --------- -- ------------ -- --- ---- -----<br>------ ---- ---- ------ ------ ------- --- ----- ---------<br>---- --- -------- -------- --- art -- ------- --- --- -----<br>-- --- ------ ------- --- --- -------- ---- --------- --<br>---------- -- -------- ----------------,1032111.8000000119,1032109.8000000119,1031755.632,1031771,1031772.343,1032123.274,,34,art
screen,html.Screen,2_3_1_0_1_35,2022-02-17T13:14:41.169Z,,,,,,,,,,,,,,,,,11,,,,,,,,,,,,,,329.626000035787,,response,,,,4,D,,,,,,Space,keypress(Space),,,,silence,,,,----- -- ---- --- -- --- -------- ------------ ---------- --<br>- ------- ------ --------- -- ------------ -- --- ---- -----<br>------ ---- ---- ------ ------ ------- --- ----- ---------<br>---- --- -------- -------- --- --- of ------- --- --- -----<br>-- --- ------ ------- --- --- -------- ---- --------- --<br>---------- -- -------- ----------------,1032454.7000000477,1032452.9000000358,1032106.563,1032112,1032123.274,1032457.688,,35,of
screen,html.Screen,2_3_1_0_1_36,2022-02-17T13:14:41.457Z,,,,,,,,,,,,,,,,,11,,,,,,,,,,,,,,283.0120000477182,,response,,,,4,D,,,,,,Space,keypress(Space),,,,silence,,,,----- -- ---- --- -- --- -------- ------------ ---------- --<br>- ------- ------ --------- -- ------------ -- --- ---- -----<br>------ ---- ---- ------ ------ ------- --- ----- ---------<br>---- --- -------- -------- --- --- -- writing --- --- -----<br>-- --- ------ ------- --- --- -------- ---- --------- --<br>---------- -- -------- ----------------,1032742.6000000238,1032740.7000000477,1032440.977,1032454.9000000358,1032457.688,1032758.486,,36,writing
screen,html.Screen,2_3_1_0_1_37,2022-02-17T13:14:41.800Z,,,,,,,,,,,,,,,,,11,,,,,,,,,,,,,,325.11400002380833,,response,,,,4,D,,,,,,Space,keypress(Space),,,,silence,,,,----- -- ---- --- -- --- -------- ------------ ---------- --<br>- ------- ------ --------- -- ------------ -- --- ---- -----<br>------ ---- ---- ------ ------ ------- --- ----- ---------<br>---- --- -------- -------- --- --- -- ------- was --- -----<br>-- --- ------ ------- --- --- -------- ---- --------- --<br>---------- -- -------- ----------------,1033085.4000000358,1033083.6000000238,1032741.775,1032742.8000000119,1032758.486,1033092.706,,37,was
screen,html.Screen,2_3_1_0_1_38,2022-02-17T13:14:42.116Z,,,,,,,,,,,,,,,,,11,,,,,,,,,,,,,,306.9940000476781,,response,,,,4,D,,,,,,Space,keypress(Space),,,,silence,,,,----- -- ---- --- -- --- -------- ------------ ---------- --<br>- ------- ------ --------- -- ------------ -- --- ---- -----<br>------ ---- ---- ------ ------ ------- --- ----- ---------<br>---- --- -------- -------- --- --- -- ------- --- not -----<br>-- --- ------ ------- --- --- -------- ---- --------- --<br>---------- -- -------- ----------------,1033401.6000000238,1033399.7000000477,1033075.995,1033085.6000000238,1033092.706,1033410.215,,38,not
screen,html.Screen,2_3_1_0_1_39,2022-02-17T13:14:42.537Z,,,,,,,,,,,,,,,,,11,,,,,,,,,,,,,,410.2850000000326,,response,,,,4,D,,,,,,Space,keypress(Space),,,,silence,,,,----- -- ---- --- -- --- -------- ------------ ---------- --<br>- ------- ------ --------- -- ------------ -- --- ---- -----<br>------ ---- ---- ------ ------ ------- --- ----- ---------<br>---- --- -------- -------- --- --- -- ------- --- --- known<br>-- --- ------ ------- --- --- -------- ---- --------- --<br>---------- -- -------- ----------------,1033822.5,1033820.5,1033393.504,1033401.7000000477,1033410.215,1033827.99,,39,known
