sender,sender_type,sender_id,timestamp,meta,,Blues,Classical,Country,Dance,Electronic,Folk,Gospel,Hip-Hop,Jazz,Latin,Musical/Film,New-age,Pop,Prolific_id,Provo_ID,R&B,Rap,Reggae,Religious,Rock,Soul,Swing,Traditional,age,artist_name,correct,correctResponse,distraction,duration,education,ended_on,familiarity,gender,headphone_check_performance,item,list,music_frequency,offensiveness,pleasantness,position_correct,preference,response,response_action,snippet_file,song_name,song_rating,sound,stimulus_1,stimulus_2,stimulus_3,text,time_commit,time_end,time_render,time_run,time_show,time_switch,url,word,word_ID
Prolific ID,html.Form,0,2022-02-17T13:04:07.641Z,"{""labjs_version"":""20.2.2"",""labjs_build"":{""flavor"":""production"",""commit"":""a25486e0c714a0ae2ce03ff94b7bb6896854dcfa""},""location"":""https://run.pavlovia.org/mvasilev/prolific2_music_d/"",""userAgent"":""Mozilla/5.0 (Windows NT 10.0; Win64; x64) AppleWebKit/537.36 (KHTML, like Gecko) Chrome/98.0.4758.82 Safari/537.36"",""platform"":""Win32"",""language"":""en-GB"",""locale"":""en-GB"",""timeZone"":""Europe/London"",""timezoneOffset"":0,""screen_width"":1366,""screen_height"":768,""scroll_width"":1366,""scroll_height"":609,""window_innerWidth"":1366,""window_innerHeight"":657,""devicePixelRatio"":1}",,,,,,,,,,,,,,,5c00fefa4c14cf00019cc374,,,,,,,,,,,,,,,11617.213999997017,,form submission,,,,,,,,,,,,,,,,,,,,,55423.29999999702,55421.79999999702,40724.043,40028.39999999106,43804.586,56314.579,{},,
Introduction,html.Screen,1_0,2022-02-17T13:04:15.497Z,,,,,,,,,,,,,,,,,,,,,,,,,,,,,,,6956.921000000002,,response,,,,,,,,,,,continue,click button,,,,,,,,,63279.29999999702,63271.5,55315.12,55424.5,56314.579,63693.941,,,
Volume calibration,html.Screen,1_1,2022-02-17T13:05:05.601Z,,,,,,,,,,,,,,,,,,,,,,,,,,,,,,,49674.059,,response,,,,,,,,,,,continue,click button,,,,,,,,,113383.20000000298,113368,63260.849,63280.20000000298,63693.941,113433.975,,,
Task instructions,html.Screen,1_2,2022-02-17T13:05:19.857Z,,,,,,,,,,,,,,,,,,,,,,,,,,,,,,,14202.225000002974,,response,,,,,,,,,,,continue,click button,,,,,,,,,127639,127636.20000000298,113368.529,113383.5,113433.975,127643.061,,,
Sounds,html.Screen,1_3_0_0,2022-02-17T13:05:24.128Z,,,,,,,,,,,,,,,,,,,,,,,,,,,,,,,4264.359000000011,,timeout,,,,,,,,,2,,,,,,,,I,S,O,,131909.70000000298,131874.112,127626.396,127639.59999999404,127643.061,131907.42,,,
Judgement,html.Screen,1_3_0_1,2022-02-17T13:05:25.949Z,,,,,,,,,,,,,,,,,,,,,,,,,,,,true,2,,1821.879999997007,,response,,,,,,,,,2,,2,click #choice-2,,,,,I,S,O,,133731.70000000298,133729.29999999702,131874.112,131910,131907.42,133806.428,,,
Trial,flow.Sequence,1_3_0,2022-02-17T13:05:25.950Z,,,,,,,,,,,,,,,,,,,,,,,,,,,,,,,6086.238999997018,,completion,,,,,,,,,2,,,,,,,,I,S,O,,133732.39999999106,133729.29999999702,127626.396,127639.59999999404,127643.061,133806.428,,,
Sounds,html.Screen,1_3_1_0,2022-02-17T13:05:30.256Z,,,,,,,,,,,,,,,,,,,,,,,,,,,,,,,4247.704999999987,,timeout,,,,,,,,,1,,,,,,,,S,I,O,,138038.39999999106,138037.47,133723.131,133799.09999999404,133806.428,138054.133,,,
Judgement,html.Screen,1_3_1_1,2022-02-17T13:05:31.264Z,,,,,,,,,,,,,,,,,,,,,,,,,,,,true,1,,988.3669999999984,,response,,,,,,,,,1,,1,click #choice-1,,,,,S,I,O,,139046.09999999404,139042.5,138037.47,138038.89999999106,138054.133,139070.263,,,
Trial,flow.Sequence,1_3_1,2022-02-17T13:05:31.286Z,,,,,,,,,,,,,,,,,,,,,,,,,,,,,,,5236.071999999986,,completion,,,,,,,,,1,,,,,,,,S,I,O,,139068.20000000298,139042.5,133723.131,133732.70000000298,133806.428,139070.263,,,
Sounds,html.Screen,1_3_2_0,2022-02-17T13:05:35.520Z,,,,,,,,,,,,,,,,,,,,,,,,,,,,,,,4247.744999999995,,timeout,,,,,,,,,1,,,,,,,,S,O,I,,143302.5,143301.319,139036.952,139068.89999999106,139070.263,143318.008,,,
Judgement,html.Screen,1_3_2_1,2022-02-17T13:05:36.059Z,,,,,,,,,,,,,,,,,,,,,,,,,,,,true,1,,521.1920000029786,,response,,,,,,,,,1,,1,click #choice-1,,,,,S,O,I,,143841.59999999404,143839.20000000298,143301.319,143302.89999999106,143318.008,143852.626,,,
Trial,flow.Sequence,1_3_2,2022-02-17T13:05:36.060Z,,,,,,,,,,,,,,,,,,,,,,,,,,,,,,,4768.937000002974,,completion,,,,,,,,,1,,,,,,,,S,O,I,,143842.29999999702,143839.20000000298,139036.952,139068.70000000298,139070.263,143852.626,,,
Sounds,html.Screen,1_3_3_0,2022-02-17T13:05:40.303Z,,,,,,,,,,,,,,,,,,,,,,,,,,,,,,,4246.507000000012,,timeout,,,,,,,,,3,,,,,,,,O,I,S,,148085,148082.096,143834.383,143842.70000000298,143852.626,148099.133,,,
Judgement,html.Screen,1_3_3_1,2022-02-17T13:05:41.216Z,,,,,,,,,,,,,,,,,,,,,,,,,,,,true,3,,896.3669999999984,,response,,,,,,,,,3,,3,click #choice-3,,,,,O,I,S,,148997.70000000298,148995.5,148082.096,148085.5,148099.133,148998.273,,,
Trial,flow.Sequence,1_3_3,2022-02-17T13:05:41.217Z,,,,,,,,,,,,,,,,,,,,,,,,,,,,,,,5142.874000000011,,completion,,,,,,,,,3,,,,,,,,O,I,S,,148999.59999999404,148995.5,143834.383,143842.59999999404,143852.626,148998.273,,,
Sounds,html.Screen,1_3_4_0,2022-02-17T13:05:45.449Z,,,,,,,,,,,,,,,,,,,,,,,,,,,,,,,4248.036000000022,,timeout,,,,,,,,,3,,,,,,,,I,O,S,,153230.89999999106,153229.343,148981.629,149001.39999999106,148998.273,153246.309,,,
Judgement,html.Screen,1_3_4_1,2022-02-17T13:05:45.950Z,,,,,,,,,,,,,,,,,,,,,,,,,,,,true,3,,482.0909999910509,,response,,,,,,,,,3,,3,click #choice-3,,,,,I,O,S,,153732.29999999702,153728.39999999106,153229.343,153231.20000000298,153246.309,153746.792,,,
Trial,flow.Sequence,1_3_4,2022-02-17T13:05:45.951Z,,,,,,,,,,,,,,,,,,,,,,,,,,,,,,,4730.126999991073,,completion,,,,,,,,,3,,,,,,,,I,O,S,,153732.79999999702,153728.39999999106,148981.629,149001.20000000298,148998.273,153746.792,,,
Sounds,html.Screen,1_3_5_0,2022-02-17T13:05:50.196Z,,,,,,,,,,,,,,,,,,,,,,,,,,,,,,,4246.952000000019,,timeout,,,,,,,,,2,,,,,,,,O,S,I,,157978,157976.869,153729.089,153733.20000000298,153746.792,157993.744,,,
Judgement,html.Screen,1_3_5_1,2022-02-17T13:05:51.076Z,,,,,,,,,,,,,,,,,,,,,,,,,,,,true,2,,861.9560000029742,,response,,,,,,,,,2,,2,click #choice-2,,,,,O,S,I,,158858.29999999702,158855.70000000298,157976.869,157978.20000000298,157993.744,159259.444,,,
Trial,flow.Sequence,1_3_5,2022-02-17T13:05:51.077Z,,,,,,,,,,,,,,,,,,,,,,,,,,,,,,,5108.9080000029935,,completion,,,,,,,,,2,,,,,,,,O,S,I,,158858.79999999702,158855.70000000298,153729.089,153733.09999999404,153746.792,159259.444,,,
Task,flow.Loop,1_3,2022-02-17T13:05:51.098Z,,,,,,,,,,,,,,,,,,,,,,,,,,,,,,,31212.63900000298,,completion,,,1,,,,,,,,,,,,,,,,,,158880.70000000298,158855.70000000298,127626.396,127639.39999999106,127643.061,159259.444,,,
Trap,html.Screen,1_4,2022-02-17T13:05:51.409Z,,,,,,,,,,,,,,,,,,,,,,,,,,,,,,,NaN,,skipped,,,,,,,,,,,,,,,,,,,,,159191,158855.70000000298,,159190.59999999404,,159259.444,,,
Thanks,html.Screen,1_5,2022-02-17T13:05:55.140Z,,,,,,,,,,,,,,,,,,,,,,,,,,,,,,,3660.355999997031,,response,,,,,,,,,,,continue,click button,,,,,,,,,162922.09999999404,162919.79999999702,158843.016,159191.29999999702,159259.444,210765.207,,,
Headphone screening,flow.Sequence,1,2022-02-17T13:05:55.140Z,,,,,,,,,,,,,,,,,,,,,,,,,,,,,,,106605.22099999702,,completion,,,,,,,,,,,,,,,,,,,,,162922.59999999404,162919.79999999702,55315.12,55424.29999999702,56314.579,210765.207,,,
Instructions,html.Page,2_0,2022-02-17T13:07:03.345Z,,,,,,,,,,,,,,,,,,,,,,,,,,,,,,,20361.293000000005,,form submission,,,,,,,,,,,,,,,,,,,,,231127.09999999404,231126.5,210298.817,210742.59999999404,210765.207,231154.317,,,
Holding screen,html.Screen,2_1_0_0,2022-02-17T13:07:13.351Z,,,,,,,,,,,,,,,,,,,,,,,,,,,,,,,10227.839999999997,,timeout,,,,,,,,,,,,,,,,,,,,,241133.5,241132.453,231121.002,231127.70000000298,231154.317,241382.157,,,
screen,html.Screen,2_1_0_1_0,2022-02-17T13:07:14.661Z,,,,,,,,,,,,,,,,,53,,,,,,,,,,,,,,1036.442999994033,,response,,,,99,,,,,,,Space,keypress(Space),,,,,,,,When -- ----- -- ------ - ------- --- ----------<br>------------- ------ ------ ---- ---- ------- ----- -- ----<br>-------- ------- -- ---------- --- - --- ----- ----- ----<br>---- --- --- ----- --- ---- ---- ------- ----- ---- -------<br>--- --- -- ----- -- --- ---- -- --- ---- -- ------ ------<br>--- ----- -- ----,242443.5,242418.59999999404,241132.453,241134.20000000298,241382.157,242448.257,,0,When
screen,html.Screen,2_1_0_1_1,2022-02-17T13:07:15.132Z,,,,,,,,,,,,,,,,,53,,,,,,,,,,,,,,464.8429999940272,,response,,,,99,,,,,,,Space,keypress(Space),,,,,,,,---- it ----- -- ------ - ------- --- ----------<br>------------- ------ ------ ---- ---- ------- ----- -- ----<br>-------- ------- -- ---------- --- - --- ----- ----- ----<br>---- --- --- ----- --- ---- ---- ------- ----- ---- -------<br>--- --- -- ----- -- --- ---- -- --- ---- -- ------ ------<br>--- ----- -- ----,242914.5,242913.09999999404,242431.779,242443.89999999106,242448.257,242931.327,,1,it
screen,html.Screen,2_1_0_1_2,2022-02-17T13:07:15.890Z,,,,,,,,,,,,,,,,,53,,,,,,,,,,,,,,739.4729999970295,,response,,,,99,,,,,,,Space,keypress(Space),,,,,,,,---- -- comes -- ------ - ------- --- ----------<br>------------- ------ ------ ---- ---- ------- ----- -- ----<br>-------- ------- -- ---------- --- - --- ----- ----- ----<br>---- --- --- ----- --- ---- ---- ------- ----- ---- -------<br>--- --- -- ----- -- --- ---- -- --- ---- -- ------ ------<br>--- ----- -- ----,243672.09999999404,243670.79999999702,242914.746,242914.70000000298,242931.327,243680.981,,2,comes
screen,html.Screen,2_1_0_1_3,2022-02-17T13:07:16.518Z,,,,,,,,,,,,,,,,,53,,,,,,,,,,,,,,618.2190000029805,,response,,,,99,,,,,,,Space,keypress(Space),,,,,,,,---- -- ----- to ------ - ------- --- ----------<br>------------- ------ ------ ---- ---- ------- ----- -- ----<br>-------- ------- -- ---------- --- - --- ----- ----- ----<br>---- --- --- ----- --- ---- ---- ------- ----- ---- -------<br>--- --- -- ----- -- --- ---- -- --- ---- -- ------ ------<br>--- ----- -- ----,244300.5,244299.20000000298,243664.403,243672.39999999106,243680.981,244313.944,,3,to
screen,html.Screen,2_1_0_1_4,2022-02-17T13:07:17.044Z,,,,,,,,,,,,,,,,,53,,,,,,,,,,,,,,511.8559999970312,,response,,,,99,,,,,,,Space,keypress(Space),,,,,,,,---- -- ----- -- having - ------- --- ----------<br>------------- ------ ------ ---- ---- ------- ----- -- ----<br>-------- ------- -- ---------- --- - --- ----- ----- ----<br>---- --- --- ----- --- ---- ---- ------- ----- ---- -------<br>--- --- -- ----- -- --- ---- -- --- ---- -- ------ ------<br>--- ----- -- ----,244827,244825.79999999702,244297.528,244300.89999999106,244313.944,244830.426,,4,having
screen,html.Screen,2_1_0_1_5,2022-02-17T13:07:17.467Z,,,,,,,,,,,,,,,,,53,,,,,,,,,,,,,,416.873999997013,,response,,,,99,,,,,,,Space,keypress(Space),,,,,,,,---- -- ----- -- ------ a ------- --- ----------<br>------------- ------ ------ ---- ---- ------- ----- -- ----<br>-------- ------- -- ---------- --- - --- ----- ----- ----<br>---- --- --- ----- --- ---- ---- ------- ----- ---- -------<br>--- --- -- ----- -- --- ---- -- --- ---- -- ------ ------<br>--- ----- -- ----,245249.29999999702,245247.29999999702,244813.778,244827.20000000298,244830.426,245263.435,,5,a
screen,html.Screen,2_1_0_1_6,2022-02-17T13:07:17.945Z,,,,,,,,,,,,,,,,,53,,,,,,,,,,,,,,462.76500000298256,,response,,,,99,,,,,,,Space,keypress(Space),,,,,,,,---- -- ----- -- ------ - lasting --- ----------<br>------------- ------ ------ ---- ---- ------- ----- -- ----<br>-------- ------- -- ---------- --- - --- ----- ----- ----<br>---- --- --- ----- --- ---- ---- ------- ----- ---- -------<br>--- --- -- ----- -- --- ---- -- --- ---- -- ------ ------<br>--- ----- -- ----,245727.29999999702,245726.20000000298,245247.25,245249.59999999404,245263.435,245729.853,,6,lasting
screen,html.Screen,2_1_0_1_7,2022-02-17T13:07:18.542Z,,,,,,,,,,,,,,,,,53,,,,,,,,,,,,,,593.1469999999972,,response,,,,99,,,,,,,Space,keypress(Space),,,,,,,,---- -- ----- -- ------ - ------- and ----------<br>------------- ------ ------ ---- ---- ------- ----- -- ----<br>-------- ------- -- ---------- --- - --- ----- ----- ----<br>---- --- --- ----- --- ---- ---- ------- ----- ---- -------<br>--- --- -- ----- -- --- ---- -- --- ---- -- ------ ------<br>--- ----- -- ----,246324.09999999404,246323,245713.542,245727.59999999404,245729.853,246329.515,,7,and
screen,html.Screen,2_1_0_1_8,2022-02-17T13:07:18.988Z,,,,,,,,,,,,,,,,,53,,,,,,,,,,,,,,440.18500000296626,,response,,,,99,,,,,,,Space,keypress(Space),,,,,,,,---- -- ----- -- ------ - ------- --- fulfilling<br>------------- ------ ------ ---- ---- ------- ----- -- ----<br>-------- ------- -- ---------- --- - --- ----- ----- ----<br>---- --- --- ----- --- ---- ---- ------- ----- ---- -------<br>--- --- -- ----- -- --- ---- -- --- ---- -- ------ ------<br>--- ----- -- ----,246770.79999999702,246769.70000000298,246312.953,246324.39999999106,246329.515,246779.331,,8,fulfilling
screen,html.Screen,2_1_0_1_9,2022-02-17T13:07:19.510Z,,,,,,,,,,,,,,,,,53,,,,,,,,,,,,,,511.5689999910537,,response,,,,99,,,,,,,Space,keypress(Space),,,,,,,,"---- -- ----- -- ------ - ------- --- ----------<br>relationship, ------ ------ ---- ---- ------- ----- -- ----<br>-------- ------- -- ---------- --- - --- ----- ----- ----<br>---- --- --- ----- --- ---- ---- ------- ----- ---- -------<br>--- --- -- ----- -- --- ---- -- --- ---- -- ------ ------<br>--- ----- -- ----",247292.20000000298,247290.89999999106,246762.961,246771,246779.331,247295.669,,9,"relationship,"
screen,html.Screen,2_1_0_1_10,2022-02-17T13:07:19.973Z,,,,,,,,,,,,,,,,,53,,,,,,,,,,,,,,458.8310000000056,,response,,,,99,,,,,,,Space,keypress(Space),,,,,,,,---- -- ----- -- ------ - ------- --- ----------<br>------------- common ------ ---- ---- ------- ----- -- ----<br>-------- ------- -- ---------- --- - --- ----- ----- ----<br>---- --- --- ----- --- ---- ---- ------- ----- ---- -------<br>--- --- -- ----- -- --- ---- -- --- ---- -- ------ ------<br>--- ----- -- ----,247755.59999999404,247754.5,247279.427,247292.5,247295.669,247762.079,,10,common
screen,html.Screen,2_1_0_1_11,2022-02-17T13:07:20.389Z,,,,,,,,,,,,,,,,,53,,,,,,,,,,,,,,408.72099999702186,,response,,,,99,,,,,,,Space,keypress(Space),,,,,,,,---- -- ----- -- ------ - ------- --- ----------<br>------------- ------ wisdom ---- ---- ------- ----- -- ----<br>-------- ------- -- ---------- --- - --- ----- ----- ----<br>---- --- --- ----- --- ---- ---- ------- ----- ---- -------<br>--- --- -- ----- -- --- ---- -- --- ---- -- ------ ------<br>--- ----- -- ----,248171.89999999106,248170.79999999702,247745.583,247755.89999999106,247762.079,248178.519,,11,wisdom
screen,html.Screen,2_1_0_1_12,2022-02-17T13:07:20.928Z,,,,,,,,,,,,,,,,,53,,,,,,,,,,,,,,530.9809999999998,,response,,,,99,,,,,,,Space,keypress(Space),,,,,,,,---- -- ----- -- ------ - ------- --- ----------<br>------------- ------ ------ says ---- ------- ----- -- ----<br>-------- ------- -- ---------- --- - --- ----- ----- ----<br>---- --- --- ----- --- ---- ---- ------- ----- ---- -------<br>--- --- -- ----- -- --- ---- -- --- ---- -- ------ ------<br>--- ----- -- ----,248710.59999999404,248709.5,248161.93,248172.29999999702,248178.519,248728.223,,12,says
screen,html.Screen,2_1_0_1_13,2022-02-17T13:07:21.350Z,,,,,,,,,,,,,,,,,53,,,,,,,,,,,,,,402.77700000000186,,response,,,,99,,,,,,,Space,keypress(Space),,,,,,,,---- -- ----- -- ------ - ------- --- ----------<br>------------- ------ ------ ---- that ------- ----- -- ----<br>-------- ------- -- ---------- --- - --- ----- ----- ----<br>---- --- --- ----- --- ---- ---- ------- ----- ---- -------<br>--- --- -- ----- -- --- ---- -- --- ---- -- ------ ------<br>--- ----- -- ----,249132.5,249131,248695.016,248710.89999999106,248728.223,249144.683,,13,that
screen,html.Screen,2_1_0_1_14,2022-02-17T13:07:21.758Z,,,,,,,,,,,,,,,,,53,,,,,,,,,,,,,,394.1169999970298,,response,,,,99,,,,,,,Space,keypress(Space),,,,,,,,---- -- ----- -- ------ - ------- --- ----------<br>------------- ------ ------ ---- ---- feeling ----- -- ----<br>-------- ------- -- ---------- --- - --- ----- ----- ----<br>---- --- --- ----- --- ---- ---- ------- ----- ---- -------<br>--- --- -- ----- -- --- ---- -- --- ---- -- ------ ------<br>--- ----- -- ----,249540.29999999702,249538.79999999702,249128.243,249132.89999999106,249144.683,249544.482,,14,feeling
screen,html.Screen,2_1_0_1_15,2022-02-17T13:07:22.214Z,,,,,,,,,,,,,,,,,53,,,,,,,,,,,,,,451.2180000029912,,response,,,,99,,,,,,,Space,keypress(Space),,,,,,,,---- -- ----- -- ------ - ------- --- ----------<br>------------- ------ ------ ---- ---- ------- close -- ----<br>-------- ------- -- ---------- --- - --- ----- ----- ----<br>---- --- --- ----- --- ---- ---- ------- ----- ---- -------<br>--- --- -- ----- -- --- ---- -- --- ---- -- ------ ------<br>--- ----- -- ----,249996.70000000298,249995.70000000298,249527.857,249540.5,249544.482,250010.865,,15,close
screen,html.Screen,2_1_0_1_16,2022-02-17T13:07:22.586Z,,,,,,,,,,,,,,,,,53,,,,,,,,,,,,,,356.0349999910686,,response,,,,99,,,,,,,Space,keypress(Space),,,,,,,,---- -- ----- -- ------ - ------- --- ----------<br>------------- ------ ------ ---- ---- ------- ----- to ----<br>-------- ------- -- ---------- --- - --- ----- ----- ----<br>---- --- --- ----- --- ---- ---- ------- ----- ---- -------<br>--- --- -- ----- -- --- ---- -- --- ---- -- ------ ------<br>--- ----- -- ----,250368.20000000298,250366.89999999106,249994.289,249997,250010.865,250377.339,,16,to
screen,html.Screen,2_1_0_1_17,2022-02-17T13:07:23.003Z,,,,,,,,,,,,,,,,,53,,,,,,,,,,,,,,406.7609999940323,,response,,,,99,,,,,,,Space,keypress(Space),,,,,,,,---- -- ----- -- ------ - ------- --- ----------<br>------------- ------ ------ ---- ---- ------- ----- -- your<br>-------- ------- -- ---------- --- - --- ----- ----- ----<br>---- --- --- ----- --- ---- ---- ------- ----- ---- -------<br>--- --- -- ----- -- --- ---- -- --- ---- -- ------ ------<br>--- ----- -- ----,250785.39999999106,250784.09999999404,250360.745,250368.39999999106,250377.339,250827.193,,17,your
screen,html.Screen,2_1_0_1_18,2022-02-17T13:07:23.391Z,,,,,,,,,,,,,,,,,53,,,,,,,,,,,,,,344.3070000000007,,response,,,,99,,,,,,,Space,keypress(Space),,,,,,,,---- -- ----- -- ------ - ------- --- ----------<br>------------- ------ ------ ---- ---- ------- ----- -- ----<br>romantic ------- -- ---------- --- - --- ----- ----- ----<br>---- --- --- ----- --- ---- ---- ------- ----- ---- -------<br>--- --- -- ----- -- --- ---- -- --- ---- -- ------ ------<br>--- ----- -- ----,251173.09999999404,251171.5,250810.519,250817.89999999106,250827.193,251176.996,,18,romantic
screen,html.Screen,2_1_0_1_19,2022-02-17T13:07:23.789Z,,,,,,,,,,,,,,,,,53,,,,,,,,,,,,,,393.1039999940258,,response,,,,99,,,,,,,Space,keypress(Space),,,,,,,,---- -- ----- -- ------ - ------- --- ----------<br>------------- ------ ------ ---- ---- ------- ----- -- ----<br>-------- partner -- ---------- --- - --- ----- ----- ----<br>---- --- --- ----- --- ---- ---- ------- ----- ---- -------<br>--- --- -- ----- -- --- ---- -- --- ---- -- ------ ------<br>--- ----- -- ----,251571.5,251570.09999999404,251160.318,251173.39999999106,251176.996,251576.7,,19,partner
screen,html.Screen,2_1_0_1_20,2022-02-17T13:07:24.132Z,,,,,,,,,,,,,,,,,53,,,,,,,,,,,,,,336.5999999970081,,response,,,,99,,,,,,,Space,keypress(Space),,,,,,,,---- -- ----- -- ------ - ------- --- ----------<br>------------- ------ ------ ---- ---- ------- ----- -- ----<br>-------- ------- is ---------- --- - --- ----- ----- ----<br>---- --- --- ----- --- ---- ---- ------- ----- ---- -------<br>--- --- -- ----- -- --- ---- -- --- ---- -- ------ ------<br>--- ----- -- ----,251914.59999999404,251913.29999999702,251560.176,251571.70000000298,251576.7,251926.497,,20,is
screen,html.Screen,2_1_0_1_21,2022-02-17T13:07:24.520Z,,,,,,,,,,,,,,,,,53,,,,,,,,,,,,,,374.30299999701674,,response,,,,99,,,,,,,Space,keypress(Space),,,,,,,,---- -- ----- -- ------ - ------- --- ----------<br>------------- ------ ------ ---- ---- ------- ----- -- ----<br>-------- ------- -- paramount. --- - --- ----- ----- ----<br>---- --- --- ----- --- ---- ---- ------- ----- ---- -------<br>--- --- -- ----- -- --- ---- -- --- ---- -- ------ ------<br>--- ----- -- ----,252302.09999999404,252300.79999999702,251909.906,251914.89999999106,251926.497,252326.504,,21,paramount.
screen,html.Screen,2_1_0_1_22,2022-02-17T13:07:24.954Z,,,,,,,,,,,,,,,,,53,,,,,,,,,,,,,,408.39599999107304,,response,,,,99,,,,,,,Space,keypress(Space),,,,,,,,---- -- ----- -- ------ - ------- --- ----------<br>------------- ------ ------ ---- ---- ------- ----- -- ----<br>-------- ------- -- ---------- But - --- ----- ----- ----<br>---- --- --- ----- --- ---- ---- ------- ----- ---- -------<br>--- --- -- ----- -- --- ---- -- --- ---- -- ------ ------<br>--- ----- -- ----,252736.29999999702,252734.89999999106,252293.067,252302.39999999106,252326.504,252742.739,,22,But
screen,html.Screen,2_1_0_1_23,2022-02-17T13:07:25.266Z,,,,,,,,,,,,,,,,,53,,,,,,,,,,,,,,304.36099999403814,,response,,,,99,,,,,,,Space,keypress(Space),,,,,,,,---- -- ----- -- ------ - ------- --- ----------<br>------------- ------ ------ ---- ---- ------- ----- -- ----<br>-------- ------- -- ---------- --- a --- ----- ----- ----<br>---- --- --- ----- --- ---- ---- ------- ----- ---- -------<br>--- --- -- ----- -- --- ---- -- --- ---- -- ------ ------<br>--- ----- -- ----,253048.29999999702,253047.09999999404,252726.15,252736.5,252742.739,253059.289,,23,a
screen,html.Screen,2_1_0_1_24,2022-02-17T13:07:25.610Z,,,,,,,,,,,,,,,,,53,,,,,,,,,,,,,,332.21100000001024,,response,,,,99,,,,,,,Space,keypress(Space),,,,,,,,---- -- ----- -- ------ - ------- --- ----------<br>------------- ------ ------ ---- ---- ------- ----- -- ----<br>-------- ------- -- ---------- --- - new ----- ----- ----<br>---- --- --- ----- --- ---- ---- ------- ----- ---- -------<br>--- --- -- ----- -- --- ---- -- --- ---- -- ------ ------<br>--- ----- -- ----,253392.79999999702,253391.5,253042.629,253048.59999999404,253059.289,253409.064,,24,new
screen,html.Screen,2_1_0_1_25,2022-02-17T13:07:25.971Z,,,,,,,,,,,,,,,,,53,,,,,,,,,,,,,,343.73599999700673,,response,,,,99,,,,,,,Space,keypress(Space),,,,,,,,---- -- ----- -- ------ - ------- --- ----------<br>------------- ------ ------ ---- ---- ------- ----- -- ----<br>-------- ------- -- ---------- --- - --- study ----- ----<br>---- --- --- ----- --- ---- ---- ------- ----- ---- -------<br>--- --- -- ----- -- --- ---- -- --- ---- -- ------ ------<br>--- ----- -- ----,253754.09999999404,253752.79999999702,253392.449,253393.20000000298,253409.064,253759.313,,25,study
screen,html.Screen,2_1_0_1_26,2022-02-17T13:07:26.274Z,,,,,,,,,,,,,,,,,53,,,,,,,,,,,,,,295.68700000000536,,response,,,,99,,,,,,,Space,keypress(Space),,,,,,,,---- -- ----- -- ------ - ------- --- ----------<br>------------- ------ ------ ---- ---- ------- ----- -- ----<br>-------- ------- -- ---------- --- - --- ----- finds ----<br>---- --- --- ----- --- ---- ---- ------- ----- ---- -------<br>--- --- -- ----- -- --- ---- -- --- ---- -- ------ ------<br>--- ----- -- ----,254056.29999999702,254055,253742.259,253754.29999999702,253759.313,254058.849,,26,finds
screen,html.Screen,2_1_0_1_27,2022-02-17T13:07:26.653Z,,,,,,,,,,,,,,,,,53,,,,,,,,,,,,,,375.8510000029928,,response,,,,99,,,,,,,Space,keypress(Space),,,,,,,,---- -- ----- -- ------ - ------- --- ----------<br>------------- ------ ------ ---- ---- ------- ----- -- ----<br>-------- ------- -- ---------- --- - --- ----- ----- that<br>---- --- --- ----- --- ---- ---- ------- ----- ---- -------<br>--- --- -- ----- -- --- ---- -- --- ---- -- ------ ------<br>--- ----- -- ----,254436,254434.70000000298,254042.09,254056.59999999404,254058.849,254441.957,,27,that
screen,html.Screen,2_1_0_1_28,2022-02-17T13:07:27.142Z,,,,,,,,,,,,,,,,,53,,,,,,,,,,,,,,480.9429999910644,,response,,,,99,,,,,,,Space,keypress(Space),,,,,,,,---- -- ----- -- ------ - ------- --- ----------<br>------------- ------ ------ ---- ---- ------- ----- -- ----<br>-------- ------- -- ---------- --- - --- ----- ----- ----<br>it's --- --- ----- --- ---- ---- ------- ----- ---- -------<br>--- --- -- ----- -- --- ---- -- --- ---- -- ------ ------<br>--- ----- -- ----,254924.20000000298,254922.89999999106,254425.265,254436.29999999702,254441.957,254958.236,,28,it's
screen,html.Screen,2_1_0_1_29,2022-02-17T13:07:27.554Z,,,,,,,,,,,,,,,,,53,,,,,,,,,,,,,,376.7639999999956,,response,,,,99,,,,,,,Space,keypress(Space),,,,,,,,---- -- ----- -- ------ - ------- --- ----------<br>------------- ------ ------ ---- ---- ------- ----- -- ----<br>-------- ------- -- ---------- --- - --- ----- ----- ----<br>---- not --- ----- --- ---- ---- ------- ----- ---- -------<br>--- --- -- ----- -- --- ---- -- --- ---- -- ------ ------<br>--- ----- -- ----,255336.5,255335,254941.56,254924.39999999106,254958.236,255341.336,,29,not
screen,html.Screen,2_1_0_1_30,2022-02-17T13:07:27.911Z,,,,,,,,,,,,,,,,,53,,,,,,,,,,,,,,350.56399999104906,,response,,,,99,,,,,,,Space,keypress(Space),,,,,,,,---- -- ----- -- ------ - ------- --- ----------<br>------------- ------ ------ ---- ---- ------- ----- -- ----<br>-------- ------- -- ---------- --- - --- ----- ----- ----<br>---- --- how ----- --- ---- ---- ------- ----- ---- -------<br>--- --- -- ----- -- --- ---- -- --- ---- -- ------ ------<br>--- ----- -- ----,255693.59999999404,255691.89999999106,255324.747,255336.79999999702,255341.336,255708.203,,30,how
screen,html.Screen,2_1_0_1_31,2022-02-17T13:07:28.345Z,,,,,,,,,,,,,,,,,53,,,,,,,,,,,,,,417.6969999910507,,response,,,,99,,,,,,,Space,keypress(Space),,,,,,,,---- -- ----- -- ------ - ------- --- ----------<br>------------- ------ ------ ---- ---- ------- ----- -- ----<br>-------- ------- -- ---------- --- - --- ----- ----- ----<br>---- --- --- close --- ---- ---- ------- ----- ---- -------<br>--- --- -- ----- -- --- ---- -- --- ---- -- ------ ------<br>--- ----- -- ----,256127.29999999702,256125.89999999106,255691.216,255693.89999999106,255708.203,256140.99,,31,close
screen,html.Screen,2_1_0_1_32,2022-02-17T13:07:28.730Z,,,,,,,,,,,,,,,,,53,,,,,,,,,,,,,,370.3099999970291,,response,,,,99,,,,,,,Space,keypress(Space),,,,,,,,---- -- ----- -- ------ - ------- --- ----------<br>------------- ------ ------ ---- ---- ------- ----- -- ----<br>-------- ------- -- ---------- --- - --- ----- ----- ----<br>---- --- --- ----- you ---- ---- ------- ----- ---- -------<br>--- --- -- ----- -- --- ---- -- --- ---- -- ------ ------<br>--- ----- -- ----,256512.89999999106,256511.29999999702,256124.458,256127.70000000298,256140.99,256524.084,,32,you
screen,html.Screen,2_1_0_1_33,2022-02-17T13:07:29.101Z,,,,,,,,,,,,,,,,,53,,,,,,,,,,,,,,356.515999994037,,response,,,,99,,,,,,,Space,keypress(Space),,,,,,,,---- -- ----- -- ------ - ------- --- ----------<br>------------- ------ ------ ---- ---- ------- ----- -- ----<br>-------- ------- -- ---------- --- - --- ----- ----- ----<br>---- --- --- ----- --- feel ---- ------- ----- ---- -------<br>--- --- -- ----- -- --- ---- -- --- ---- -- ------ ------<br>--- ----- -- ----,256883.79999999702,256880.59999999404,256507.457,256513.20000000298,256524.084,256890.526,,33,feel
screen,html.Screen,2_1_0_1_34,2022-02-17T13:07:29.432Z,,,,,,,,,,,,,,,,,53,,,,,,,,,,,,,,323.07399999402696,,response,,,,99,,,,,,,Space,keypress(Space),,,,,,,,---- -- ----- -- ------ - ------- --- ----------<br>------------- ------ ------ ---- ---- ------- ----- -- ----<br>-------- ------- -- ---------- --- - --- ----- ----- ----<br>---- --- --- ----- --- ---- that ------- ----- ---- -------<br>--- --- -- ----- -- --- ---- -- --- ---- -- ------ ------<br>--- ----- -- ----,257214.79999999702,257213.59999999404,256873.921,256884.09999999404,256890.526,257223.687,,34,that
screen,html.Screen,2_1_0_1_35,2022-02-17T13:07:29.762Z,,,,,,,,,,,,,,,,,53,,,,,,,,,,,,,,320.0130000029749,,response,,,,99,,,,,,,Space,keypress(Space),,,,,,,,---- -- ----- -- ------ - ------- --- ----------<br>------------- ------ ------ ---- ---- ------- ----- -- ----<br>-------- ------- -- ---------- --- - --- ----- ----- ----<br>---- --- --- ----- --- ---- ---- matters ----- ---- -------<br>--- --- -- ----- -- --- ---- -- --- ---- -- ------ ------<br>--- ----- -- ----,257544.79999999702,257543.70000000298,257207.072,257215.20000000298,257223.687,257556.858,,35,matters
screen,html.Screen,2_1_0_1_36,2022-02-17T13:07:30.128Z,,,,,,,,,,,,,,,,,53,,,,,,,,,,,,,,351.8420000029728,,response,,,,99,,,,,,,Space,keypress(Space),,,,,,,,"---- -- ----- -- ------ - ------- --- ----------<br>------------- ------ ------ ---- ---- ------- ----- -- ----<br>-------- ------- -- ---------- --- - --- ----- ----- ----<br>---- --- --- ----- --- ---- ---- ------- most, ---- -------<br>--- --- -- ----- -- --- ---- -- --- ---- -- ------ ------<br>--- ----- -- ----",257910.79999999702,257908.70000000298,257540.236,257545.20000000298,257556.858,257923.331,,36,"most,"
screen,html.Screen,2_1_0_1_37,2022-02-17T13:07:30.444Z,,,,,,,,,,,,,,,,,53,,,,,,,,,,,,,,299.86900000297464,,response,,,,99,,,,,,,Space,keypress(Space),,,,,,,,---- -- ----- -- ------ - ------- --- ----------<br>------------- ------ ------ ---- ---- ------- ----- -- ----<br>-------- ------- -- ---------- --- - --- ----- ----- ----<br>---- --- --- ----- --- ---- ---- ------- ----- it's -------<br>--- --- -- ----- -- --- ---- -- --- ---- -- ------ ------<br>--- ----- -- ----,258226.39999999106,258223.20000000298,257906.709,257911.09999999404,257923.331,258239.896,,37,it's
screen,html.Screen,2_1_0_1_38,2022-02-17T13:07:30.823Z,,,,,,,,,,,,,,,,,53,,,,,,,,,,,,,,352.5039999910514,,response,,,,99,,,,,,,Space,keypress(Space),,,,,,,,---- -- ----- -- ------ - ------- --- ----------<br>------------- ------ ------ ---- ---- ------- ----- -- ----<br>-------- ------- -- ---------- --- - --- ----- ----- ----<br>---- --- --- ----- --- ---- ---- ------- ----- ---- whether<br>--- --- -- ----- -- --- ---- -- --- ---- -- ------ ------<br>--- ----- -- ----,258605.29999999702,258592.39999999106,258223.224,258226.89999999106,258239.896,258622.956,,38,whether
screen,html.Screen,2_1_0_1_39,2022-02-17T13:07:31.161Z,,,,,,,,,,,,,,,,,53,,,,,,,,,,,,,,318.4439999910537,,response,,,,99,,,,,,,Space,keypress(Space),,,,,,,,---- -- ----- -- ------ - ------- --- ----------<br>------------- ------ ------ ---- ---- ------- ----- -- ----<br>-------- ------- -- ---------- --- - --- ----- ----- ----<br>---- --- --- ----- --- ---- ---- ------- ----- ---- -------<br>you --- -- ----- -- --- ---- -- --- ---- -- ------ ------<br>--- ----- -- ----,258943.29999999702,258941.39999999106,258606.337,258605.79999999702,258622.956,258956.109,,39,you
screen,html.Screen,2_1_0_1_40,2022-02-17T13:07:31.506Z,,,,,,,,,,,,,,,,,53,,,,,,,,,,,,,,331.5910000029835,,response,,,,99,,,,,,,Space,keypress(Space),,,,,,,,---- -- ----- -- ------ - ------- --- ----------<br>------------- ------ ------ ---- ---- ------- ----- -- ----<br>-------- ------- -- ---------- --- - --- ----- ----- ----<br>---- --- --- ----- --- ---- ---- ------- ----- ---- -------<br>--- are -- ----- -- --- ---- -- --- ---- -- ------ ------<br>--- ----- -- ----,259289.09999999404,259287.70000000298,258939.483,258943.59999999404,258956.109,259305.981,,40,are
screen,html.Screen,2_1_0_1_41,2022-02-17T13:07:31.865Z,,,,,,,,,,,,,,,,,53,,,,,,,,,,,,,,340.41899999105954,,response,,,,99,,,,,,,Space,keypress(Space),,,,,,,,---- -- ----- -- ------ - ------- --- ----------<br>------------- ------ ------ ---- ---- ------- ----- -- ----<br>-------- ------- -- ---------- --- - --- ----- ----- ----<br>---- --- --- ----- --- ---- ---- ------- ----- ---- -------<br>--- --- as ----- -- --- ---- -- --- ---- -- ------ ------<br>--- ----- -- ----,259647.59999999404,259646.39999999106,259289.301,259289.39999999106,259305.981,259655.75,,41,as
screen,html.Screen,2_1_0_1_42,2022-02-17T13:07:32.237Z,,,,,,,,,,,,,,,,,53,,,,,,,,,,,,,,362.25,,response,,,,99,,,,,,,Space,keypress(Space),,,,,,,,---- -- ----- -- ------ - ------- --- ----------<br>------------- ------ ------ ---- ---- ------- ----- -- ----<br>-------- ------- -- ---------- --- - --- ----- ----- ----<br>---- --- --- ----- --- ---- ---- ------- ----- ---- -------<br>--- --- -- close -- --- ---- -- --- ---- -- ------ ------<br>--- ----- -- ----,260019.70000000298,260018,259639.11,259647.89999999106,259655.75,260022.179,,42,close
screen,html.Screen,2_1_0_1_43,2022-02-17T13:07:32.584Z,,,,,,,,,,,,,,,,,53,,,,,,,,,,,,,,342.8209999999963,,response,,,,99,,,,,,,Space,keypress(Space),,,,,,,,---- -- ----- -- ------ - ------- --- ----------<br>------------- ------ ------ ---- ---- ------- ----- -- ----<br>-------- ------- -- ---------- --- - --- ----- ----- ----<br>---- --- --- ----- --- ---- ---- ------- ----- ---- -------<br>--- --- -- ----- as --- ---- -- --- ---- -- ------ ------<br>--- ----- -- ----,260366.29999999702,260365,260005.584,260020,260022.179,260371.985,,43,as
screen,html.Screen,2_1_0_1_44,2022-02-17T13:07:32.945Z,,,,,,,,,,,,,,,,,53,,,,,,,,,,,,,,354.1149999940535,,response,,,,99,,,,,,,Space,keypress(Space),,,,,,,,---- -- ----- -- ------ - ------- --- ----------<br>------------- ------ ------ ---- ---- ------- ----- -- ----<br>-------- ------- -- ---------- --- - --- ----- ----- ----<br>---- --- --- ----- --- ---- ---- ------- ----- ---- -------<br>--- --- -- ----- -- you ---- -- --- ---- -- ------ ------<br>--- ----- -- ----,260727.20000000298,260726.09999999404,260355.392,260366.5,260371.985,260738.49,,44,you
screen,html.Screen,2_1_0_1_45,2022-02-17T13:07:33.312Z,,,,,,,,,,,,,,,,,53,,,,,,,,,,,,,,354.8099999970291,,response,,,,99,,,,,,,Space,keypress(Space),,,,,,,,---- -- ----- -- ------ - ------- --- ----------<br>------------- ------ ------ ---- ---- ------- ----- -- ----<br>-------- ------- -- ---------- --- - --- ----- ----- ----<br>---- --- --- ----- --- ---- ---- ------- ----- ---- -------<br>--- --- -- ----- -- --- want -- --- ---- -- ------ ------<br>--- ----- -- ----,261094.79999999702,261093.29999999702,260721.886,260727.59999999404,260738.49,261104.958,,45,want
screen,html.Screen,2_1_0_1_46,2022-02-17T13:07:33.676Z,,,,,,,,,,,,,,,,,53,,,,,,,,,,,,,,351.74200000296696,,response,,,,99,,,,,,,Space,keypress(Space),,,,,,,,---- -- ----- -- ------ - ------- --- ----------<br>------------- ------ ------ ---- ---- ------- ----- -- ----<br>-------- ------- -- ---------- --- - --- ----- ----- ----<br>---- --- --- ----- --- ---- ---- ------- ----- ---- -------<br>--- --- -- ----- -- --- ---- to --- ---- -- ------ ------<br>--- ----- -- ----,261458.20000000298,261456.70000000298,261088.338,261095.09999999404,261104.958,261471.425,,46,to
screen,html.Screen,2_1_0_1_47,2022-02-17T13:07:33.978Z,,,,,,,,,,,,,,,,,53,,,,,,,,,,,,,,287.6749999940512,,response,,,,99,,,,,,,Space,keypress(Space),,,,,,,,"---- -- ----- -- ------ - ------- --- ----------<br>------------- ------ ------ ---- ---- ------- ----- -- ----<br>-------- ------- -- ---------- --- - --- ----- ----- ----<br>---- --- --- ----- --- ---- ---- ------- ----- ---- -------<br>--- --- -- ----- -- --- ---- -- be, ---- -- ------ ------<br>--- ----- -- ----",261760.59999999404,261759.09999999404,261454.822,261458.39999999106,261471.425,261771.274,,47,"be,"
screen,html.Screen,2_1_0_1_48,2022-02-17T13:07:34.359Z,,,,,,,,,,,,,,,,,53,,,,,,,,,,,,,,369.6259999910544,,response,,,,99,,,,,,,Space,keypress(Space),,,,,,,,---- -- ----- -- ------ - ------- --- ----------<br>------------- ------ ------ ---- ---- ------- ----- -- ----<br>-------- ------- -- ---------- --- - --- ----- ----- ----<br>---- --- --- ----- --- ---- ---- ------- ----- ---- -------<br>--- --- -- ----- -- --- ---- -- --- even -- ------ ------<br>--- ----- -- ----,262142.20000000298,262140.89999999106,261754.636,261760.89999999106,261771.274,262154.514,,48,even
screen,html.Screen,2_1_0_1_49,2022-02-17T13:07:34.701Z,,,,,,,,,,,,,,,,,53,,,,,,,,,,,,,,328.3859999910346,,response,,,,99,,,,,,,Space,keypress(Space),,,,,,,,---- -- ----- -- ------ - ------- --- ----------<br>------------- ------ ------ ---- ---- ------- ----- -- ----<br>-------- ------- -- ---------- --- - --- ----- ----- ----<br>---- --- --- ----- --- ---- ---- ------- ----- ---- -------<br>--- --- -- ----- -- --- ---- -- --- ---- if ------ ------<br>--- ----- -- ----,262484.09999999404,262482.89999999106,262137.784,262142.29999999702,262154.514,262487.526,,49,if
screen,html.Screen,2_1_0_1_50,2022-02-17T13:07:35.054Z,,,,,,,,,,,,,,,,,53,,,,,,,,,,,,,,346.57399999402696,,response,,,,99,,,,,,,Space,keypress(Space),,,,,,,,---- -- ----- -- ------ - ------- --- ----------<br>------------- ------ ------ ---- ---- ------- ----- -- ----<br>-------- ------- -- ---------- --- - --- ----- ----- ----<br>---- --- --- ----- --- ---- ---- ------- ----- ---- -------<br>--- --- -- ----- -- --- ---- -- --- ---- -- that's ------<br>--- ----- -- ----,262836.700000003,262834.09999999404,262470.916,262484.299999997,262487.526,262854.08,,50,that's
screen,html.Screen,2_1_0_1_51,2022-02-17T13:07:35.453Z,,,,,,,,,,,,,,,,,53,,,,,,,,,,,,,,380.21999999700347,,response,,,,99,,,,,,,Space,keypress(Space),,,,,,,,---- -- ----- -- ------ - ------- --- ----------<br>------------- ------ ------ ---- ---- ------- ----- -- ----<br>-------- ------- -- ---------- --- - --- ----- ----- ----<br>---- --- --- ----- --- ---- ---- ------- ----- ---- -------<br>--- --- -- ----- -- --- ---- -- --- ---- -- ------ really<br>--- ----- -- ----,263235.59999999404,263234.299999997,262837.403,262837,262854.08,263265.657,,51,really
screen,html.Screen,2_1_0_1_52,2022-02-17T13:07:35.878Z,,,,,,,,,,,,,,,,,53,,,,,,,,,,,,,,393.64299999701325,,response,,,,99,,,,,,,Space,keypress(Space),,,,,,,,---- -- ----- -- ------ - ------- --- ----------<br>------------- ------ ------ ---- ---- ------- ----- -- ----<br>-------- ------- -- ---------- --- - --- ----- ----- ----<br>---- --- --- ----- --- ---- ---- ------- ----- ---- -------<br>--- --- -- ----- -- --- ---- -- --- ---- -- ------ ------<br>not ----- -- ----,263660.5,263659.299999997,263220.535,263235.89999999106,263265.657,263670.332,,52,not
screen,html.Screen,2_1_0_1_53,2022-02-17T13:07:36.230Z,,,,,,,,,,,,,,,,,53,,,,,,,,,,,,,,339.5679999910644,,response,,,,99,,,,,,,Space,keypress(Space),,,,,,,,---- -- ----- -- ------ - ------- --- ----------<br>------------- ------ ------ ---- ---- ------- ----- -- ----<br>-------- ------- -- ---------- --- - --- ----- ----- ----<br>---- --- --- ----- --- ---- ---- ------- ----- ---- -------<br>--- --- -- ----- -- --- ---- -- --- ---- -- ------ ------<br>--- close -- ----,264013,264009.89999999106,263653.64,263660.799999997,263670.332,264021.312,,53,close
screen,html.Screen,2_1_0_1_54,2022-02-17T13:07:36.712Z,,,,,,,,,,,,,,,,,53,,,,,,,,,,,,,,472.18800000002375,,response,,,,99,,,,,,,Space,keypress(Space),,,,,,,,---- -- ----- -- ------ - ------- --- ----------<br>------------- ------ ------ ---- ---- ------- ----- -- ----<br>-------- ------- -- ---------- --- - --- ----- ----- ----<br>---- --- --- ----- --- ---- ---- ------- ----- ---- -------<br>--- --- -- ----- -- --- ---- -- --- ---- -- ------ ------<br>--- ----- at ----,264494.799999997,264493.5,264003.434,264013.200000003,264021.312,264503.095,,54,at
screen,html.Screen,2_1_0_1_55,2022-02-17T13:07:37.945Z,,,,,,,,,,,,,,,,,53,,,,,,,,,,,,,,1223.405000000028,,response,,,,99,,,,,,,Space,keypress(Space),,,,,,,,---- -- ----- -- ------ - ------- --- ----------<br>------------- ------ ------ ---- ---- ------- ----- -- ----<br>-------- ------- -- ---------- --- - --- ----- ----- ----<br>---- --- --- ----- --- ---- ---- ------- ----- ---- -------<br>--- --- -- ----- -- --- ---- -- --- ---- -- ------ ------<br>--- ----- -- all.,265727.799999997,265726.5,264486.536,264495.09999999404,264503.095,265752.446,,55,all.
Item 99,flow.Loop,2_1_0_1,2022-02-17T13:07:37.946Z,,,,,,,,,,,,,,,,,,,,,,,,,,,,,,,24344.342999999993,,completion,,,,,D,,,,,,,,,,,silence,,,,,265728.39999999106,265726.5,241132.453,241134,241382.157,265752.446,,,
Question 1,html.Screen,2_1_0_2,2022-02-17T13:07:41.866Z,,,,,,,,,,,,,,,,,,,,,,,,,,,,true,FALSE,,3887.8539999970235,,response,,,,99,D,,,,,,FALSE,click #choice-2,,,,silence,,,,,269648.200000003,269640.299999997,265719.355,265728.799999997,265752.446,269650.362,,,
Question 2,html.Screen,2_1_0_3,2022-02-17T13:07:46.860Z,,,,,,,,,,,,,,,,,,,,,,,,,,,,true,TRUE,,4989.937999996997,,response,,,,99,D,,,,,,TRUE,click #choice-1,,,,silence,,,,,274642.39999999106,274640.299999997,269633.717,269648.59999999404,269650.362,274647.736,,,
Item 99,flow.Sequence,2_1_0,2022-02-17T13:07:46.861Z,,,,,,,,,,,,,,,,,,,,,,,,,,,,,,,43485.98299999701,,completion,,,,,,,,,,,,,,,,,,,,,274643.200000003,274640.299999997,231121.002,231127.59999999404,231154.317,274647.736,,,
Holding screen,html.Screen,2_1_1_0,2022-02-17T13:07:56.844Z,,,,,,,,,,,,,,,,,,,,,,,,,,,,,,,9994.613000000012,,timeout,,,,,,,,,,,,,,,,,,,,,284626.39999999106,284625.673,274631.085,274643.799999997,274647.736,284642.349,,,
screen,html.Screen,2_1_1_1_0,2022-02-17T13:07:58.770Z,,,,,,,,,,,,,,,,,54,,,,,,,,,,,,,,1908.750999994052,,response,,,,100,,,,,,,Space,keypress(Space),,,,,,,,At --- ---- --- ------ ----- ------- ---- -- --- ------- --<br>------- ---------- ------ -- ----- -- ----- -- ---- ------<br>--- ----- --- --- ------ -------- ----- --- ------ ----- --<br>----- ----- ---------- --- --- ------ ------ ---- -- ------<br>------- --- ------ ----- --- ---- ------- -- ---- --- --<br>------- ------,286552.89999999106,286551.09999999404,284625.673,284626.700000003,284642.349,286557.973,,0,At
screen,html.Screen,2_1_1_1_1,2022-02-17T13:07:59.197Z,,,,,,,,,,,,,,,,,54,,,,,,,,,,,,,,420.52700000000186,,response,,,,100,,,,,,,Space,keypress(Space),,,,,,,,-- the ---- --- ------ ----- ------- ---- -- --- ------- --<br>------- ---------- ------ -- ----- -- ----- -- ---- ------<br>--- ----- --- --- ------ -------- ----- --- ------ ----- --<br>----- ----- ---------- --- --- ------ ------ ---- -- ------<br>------- --- ------ ----- --- ---- ------- -- ---- --- --<br>------- ------,286979.59999999404,286978.5,286541.754,286553.09999999404,286557.973,286991.073,,1,the
screen,html.Screen,2_1_1_1_2,2022-02-17T13:07:59.591Z,,,,,,,,,,,,,,,,,54,,,,,,,,,,,,,,381.32699999108445,,response,,,,100,,,,,,,Space,keypress(Space),,,,,,,,-- --- time --- ------ ----- ------- ---- -- --- ------- --<br>------- ---------- ------ -- ----- -- ----- -- ---- ------<br>--- ----- --- --- ------ -------- ----- --- ------ ----- --<br>----- ----- ---------- --- --- ------ ------ ---- -- ------<br>------- --- ------ ----- --- ---- ------- -- ---- --- --<br>------- ------,287373.799999997,287372.39999999106,286974.488,286979.89999999106,286991.073,287390.884,,2,time
screen,html.Screen,2_1_1_1_3,2022-02-17T13:07:59.947Z,,,,,,,,,,,,,,,,,54,,,,,,,,,,,,,,337.61599999998,,response,,,,100,,,,,,,Space,keypress(Space),,,,,,,,-- --- ---- the ------ ----- ------- ---- -- --- ------- --<br>------- ---------- ------ -- ----- -- ----- -- ---- ------<br>--- ----- --- --- ------ -------- ----- --- ------ ----- --<br>----- ----- ---------- --- --- ------ ------ ---- -- ------<br>------- --- ------ ----- --- ---- ------- -- ---- --- --<br>------- ------,287729.59999999404,287728.5,287374.426,287373.89999999106,287390.884,287740.69,,3,the
screen,html.Screen,2_1_1_1_4,2022-02-17T13:08:00.301Z,,,,,,,,,,,,,,,,,54,,,,,,,,,,,,,,341.60999999701744,,response,,,,100,,,,,,,Space,keypress(Space),,,,,,,,-- --- ---- --- French ----- ------- ---- -- --- ------- --<br>------- ---------- ------ -- ----- -- ----- -- ---- ------<br>--- ----- --- --- ------ -------- ----- --- ------ ----- --<br>----- ----- ---------- --- --- ------ ------ ---- -- ------<br>------- --- ------ ----- --- ---- ------- -- ---- --- --<br>------- ------,288083.59999999404,288082.299999997,287724.074,287729.799999997,287740.69,288090.509,,4,French
screen,html.Screen,2_1_1_1_5,2022-02-17T13:08:00.647Z,,,,,,,,,,,,,,,,,54,,,,,,,,,,,,,,337.3909999910393,,response,,,,100,,,,,,,Space,keypress(Space),,,,,,,,-- --- ---- --- ------ crown ------- ---- -- --- ------- --<br>------- ---------- ------ -- ----- -- ----- -- ---- ------<br>--- ----- --- --- ------ -------- ----- --- ------ ----- --<br>----- ----- ---------- --- --- ------ ------ ---- -- ------<br>------- --- ------ ----- --- ---- ------- -- ---- --- --<br>------- ------,288429.5,288427.89999999106,288073.903,288083.89999999106,288090.509,288440.318,,5,crown
screen,html.Screen,2_1_1_1_6,2022-02-17T13:08:01.113Z,,,,,,,,,,,,,,,,,54,,,,,,,,,,,,,,454.1819999999716,,response,,,,100,,,,,,,Space,keypress(Space),,,,,,,,-- --- ---- --- ------ ----- secured ---- -- --- ------- --<br>------- ---------- ------ -- ----- -- ----- -- ---- ------<br>--- ----- --- --- ------ -------- ----- --- ------ ----- --<br>----- ----- ---------- --- --- ------ ------ ---- -- ------<br>------- --- ------ ----- --- ---- ------- -- ---- --- --<br>------- ------,288896,288894.5,288423.697,288429.799999997,288440.318,288906.725,,6,secured
screen,html.Screen,2_1_1_1_7,2022-02-17T13:08:01.475Z,,,,,,,,,,,,,,,,,54,,,,,,,,,,,,,,349.8749999940628,,response,,,,100,,,,,,,Space,keypress(Space),,,,,,,,-- --- ---- --- ------ ----- ------- much -- --- ------- --<br>------- ---------- ------ -- ----- -- ----- -- ---- ------<br>--- ----- --- --- ------ -------- ----- --- ------ ----- --<br>----- ----- ---------- --- --- ------ ------ ---- -- ------<br>------- --- ------ ----- --- ---- ------- -- ---- --- --<br>------- ------,289258,289256.59999999404,288890.144,288896.299999997,288906.725,289273.287,,7,much
screen,html.Screen,2_1_1_1_8,2022-02-17T13:08:01.813Z,,,,,,,,,,,,,,,,,54,,,,,,,,,,,,,,321.0129999970086,,response,,,,100,,,,,,,Space,keypress(Space),,,,,,,,-- --- ---- --- ------ ----- ------- ---- of --- ------- --<br>------- ---------- ------ -- ----- -- ----- -- ---- ------<br>--- ----- --- --- ------ -------- ----- --- ------ ----- --<br>----- ----- ---------- --- --- ------ ------ ---- -- ------<br>------- --- ------ ----- --- ---- ------- -- ---- --- --<br>------- ------,289595.59999999404,289594.299999997,289256.594,289258.5,289273.287,289606.393,,8,of
screen,html.Screen,2_1_1_1_9,2022-02-17T13:08:02.063Z,,,,,,,,,,,,,,,,,54,,,,,,,,,,,,,,237.90699999703793,,response,,,,100,,,,,,,Space,keypress(Space),,,,,,,,-- --- ---- --- ------ ----- ------- ---- -- its ------- --<br>------- ---------- ------ -- ----- -- ----- -- ---- ------<br>--- ----- --- --- ------ -------- ----- --- ------ ----- --<br>----- ----- ---------- --- --- ------ ------ ---- -- ------<br>------- --- ------ ----- --- ---- ------- -- ---- --- --<br>------- ------,289845.59999999404,289844.299999997,289589.745,289595.799999997,289606.393,289856.283,,9,its
screen,html.Screen,2_1_1_1_10,2022-02-17T13:08:02.415Z,,,,,,,,,,,,,,,,,54,,,,,,,,,,,,,,339.8169999940437,,response,,,,100,,,,,,,Space,keypress(Space),,,,,,,,-- --- ---- --- ------ ----- ------- ---- -- --- revenue --<br>------- ---------- ------ -- ----- -- ----- -- ---- ------<br>--- ----- --- --- ------ -------- ----- --- ------ ----- --<br>----- ----- ---------- --- --- ------ ------ ---- -- ------<br>------- --- ------ ----- --- ---- ------- -- ---- --- --<br>------- ------,290197.200000003,290196.09999999404,289839.585,289845.799999997,289856.283,290206.336,,10,revenue
screen,html.Screen,2_1_1_1_11,2022-02-17T13:08:02.870Z,,,,,,,,,,,,,,,,,54,,,,,,,,,,,,,,445.16399999998976,,response,,,,100,,,,,,,Space,keypress(Space),,,,,,,,-- --- ---- --- ------ ----- ------- ---- -- --- ------- by<br>------- ---------- ------ -- ----- -- ----- -- ---- ------<br>--- ----- --- --- ------ -------- ----- --- ------ ----- --<br>----- ----- ---------- --- --- ------ ------ ---- -- ------<br>------- --- ------ ----- --- ---- ------- -- ---- --- --<br>------- ------,290652.59999999404,290651.5,290189.42,290197.5,290206.336,290655.787,,11,by
screen,html.Screen,2_1_1_1_12,2022-02-17T13:08:03.224Z,,,,,,,,,,,,,,,,,54,,,,,,,,,,,,,,349.1129999910481,,response,,,,100,,,,,,,Space,keypress(Space),,,,,,,,-- --- ---- --- ------ ----- ------- ---- -- --- ------- --<br>issuing ---------- ------ -- ----- -- ----- -- ---- ------<br>--- ----- --- --- ------ -------- ----- --- ------ ----- --<br>----- ----- ---------- --- --- ------ ------ ---- -- ------<br>------- --- ------ ----- --- ---- ------- -- ---- --- --<br>------- ------,291006.89999999106,291004.89999999106,290639.201,290652.89999999106,290655.787,291022.259,,12,issuing
screen,html.Screen,2_1_1_1_13,2022-02-17T13:08:03.749Z,,,,,,,,,,,,,,,,,54,,,,,,,,,,,,,,507.8409999940195,,response,,,,100,,,,,,,Space,keypress(Space),,,,,,,,-- --- ---- --- ------ ----- ------- ---- -- --- ------- --<br>------- government ------ -- ----- -- ----- -- ---- ------<br>--- ----- --- --- ------ -------- ----- --- ------ ----- --<br>----- ----- ---------- --- --- ------ ------ ---- -- ------<br>------- --- ------ ----- --- ---- ------- -- ---- --- --<br>------- ------,291531.5,291530.09999999404,291005.662,291007.39999999106,291022.259,291538.703,,13,government
screen,html.Screen,2_1_1_1_14,2022-02-17T13:08:04.121Z,,,,,,,,,,,,,,,,,54,,,,,,,,,,,,,,363.4970000030007,,response,,,,100,,,,,,,Space,keypress(Space),,,,,,,,-- --- ---- --- ------ ----- ------- ---- -- --- ------- --<br>------- ---------- bonds. -- ----- -- ----- -- ---- ------<br>--- ----- --- --- ------ -------- ----- --- ------ ----- --<br>----- ----- ---------- --- --- ------ ------ ---- -- ------<br>------- --- ------ ----- --- ---- ------- -- ---- --- --<br>------- ------,291903.39999999106,291902.200000003,291522.085,291531.799999997,291538.703,291937.103,,14,bonds.
screen,html.Screen,2_1_1_1_15,2022-02-17T13:08:04.614Z,,,,,,,,,,,,,,,,,54,,,,,,,,,,,,,,458.09700000297744,,response,,,,100,,,,,,,Space,keypress(Space),,,,,,,,-- --- ---- --- ------ ----- ------- ---- -- --- ------- --<br>------- ---------- ------ In ----- -- ----- -- ---- ------<br>--- ----- --- --- ------ -------- ----- --- ------ ----- --<br>----- ----- ---------- --- --- ------ ------ ---- -- ------<br>------- --- ------ ----- --- ---- ------- -- ---- --- --<br>------- ------,292396.700000003,292395.200000003,291888.521,291903.700000003,291937.103,292421.508,,15,In
screen,html.Screen,2_1_1_1_16,2022-02-17T13:08:05.048Z,,,,,,,,,,,,,,,,,54,,,,,,,,,,,,,,407.591999994067,,response,,,,100,,,,,,,Space,keypress(Space),,,,,,,,"-- --- ---- --- ------ ----- ------- ---- -- --- ------- --<br>------- ---------- ------ -- 1727, -- ----- -- ---- ------<br>--- ----- --- --- ------ -------- ----- --- ------ ----- --<br>----- ----- ---------- --- --- ------ ------ ---- -- ------<br>------- --- ------ ----- --- ---- ------- -- ---- --- --<br>------- ------",292830.59999999404,292829.09999999404,292388.277,292397,292421.508,292838.295,,16,"1727,"
screen,html.Screen,2_1_1_1_17,2022-02-17T13:08:05.960Z,,,,,,,,,,,,,,,,,54,,,,,,,,,,,,,,901.6049999910756,,response,,,,100,,,,,,,Space,keypress(Space),,,,,,,,-- --- ---- --- ------ ----- ------- ---- -- --- ------- --<br>------- ---------- ------ -- ----- in ----- -- ---- ------<br>--- ----- --- --- ------ -------- ----- --- ------ ----- --<br>----- ----- ---------- --- --- ------ ------ ---- -- ------<br>------- --- ------ ----- --- ---- ------- -- ---- --- --<br>------- ------,293742.39999999106,293739.89999999106,292821.363,292830.89999999106,292838.295,293754.153,,17,in
screen,html.Screen,2_1_1_1_18,2022-02-17T13:08:06.565Z,,,,,,,,,,,,,,,,,54,,,,,,,,,,,,,,592.7469999910682,,response,,,,100,,,,,,,Space,keypress(Space),,,,,,,,-- --- ---- --- ------ ----- ------- ---- -- --- ------- --<br>------- ---------- ------ -- ----- -- order -- ---- ------<br>--- ----- --- --- ------ -------- ----- --- ------ ----- --<br>----- ----- ---------- --- --- ------ ------ ---- -- ------<br>------- --- ------ ----- --- ---- ------- -- ---- --- --<br>------- ------,294348.09999999404,294346.89999999106,293737.637,293742.700000003,293754.153,294355.329,,18,order
screen,html.Screen,2_1_1_1_19,2022-02-17T13:08:06.977Z,,,,,,,,,,,,,,,,,54,,,,,,,,,,,,,,400.170999999973,,response,,,,100,,,,,,,Space,keypress(Space),,,,,,,,-- --- ---- --- ------ ----- ------- ---- -- --- ------- --<br>------- ---------- ------ -- ----- -- ----- to ---- ------<br>--- ----- --- --- ------ -------- ----- --- ------ ----- --<br>----- ----- ---------- --- --- ------ ------ ---- -- ------<br>------- --- ------ ----- --- ---- ------- -- ---- --- --<br>------- ------,294759.89999999106,294755.5,294337.257,294348.39999999106,294355.329,294770.323,,19,to
screen,html.Screen,2_1_1_1_20,2022-02-17T13:08:07.362Z,,,,,,,,,,,,,,,,,54,,,,,,,,,,,,,,372.67700000002515,,response,,,,100,,,,,,,Space,keypress(Space),,,,,,,,-- --- ---- --- ------ ----- ------- ---- -- --- ------- --<br>------- ---------- ------ -- ----- -- ----- -- save ------<br>--- ----- --- --- ------ -------- ----- --- ------ ----- --<br>----- ----- ---------- --- --- ------ ------ ---- -- ------<br>------- --- ------ ----- --- ---- ------- -- ---- --- --<br>------- ------,295144.299999997,295143,294753.668,294760.200000003,294770.323,295153.406,,20,save
screen,html.Screen,2_1_1_1_21,2022-02-17T13:08:07.759Z,,,,,,,,,,,,,,,,,54,,,,,,,,,,,,,,387.39399999700254,,response,,,,100,,,,,,,Space,keypress(Space),,,,,,,,"-- --- ---- --- ------ ----- ------- ---- -- --- ------- --<br>------- ---------- ------ -- ----- -- ----- -- ---- money,<br>--- ----- --- --- ------ -------- ----- --- ------ ----- --<br>----- ----- ---------- --- --- ------ ------ ---- -- ------<br>------- --- ------ ----- --- ---- ------- -- ---- --- --<br>------- ------",295541.89999999106,295540.799999997,295136.791,295144.59999999404,295153.406,295553.177,,21,"money,"
screen,html.Screen,2_1_1_1_22,2022-02-17T13:08:08.173Z,,,,,,,,,,,,,,,,,54,,,,,,,,,,,,,,401.4229999940144,,response,,,,100,,,,,,,Space,keypress(Space),,,,,,,,-- --- ---- --- ------ ----- ------- ---- -- --- ------- --<br>------- ---------- ------ -- ----- -- ----- -- ---- ------<br>the ----- --- --- ------ -------- ----- --- ------ ----- --<br>----- ----- ---------- --- --- ------ ------ ---- -- ------<br>------- --- ------ ----- --- ---- ------- -- ---- --- --<br>------- ------,295955.89999999106,295954.59999999404,295536.574,295542.299999997,295553.177,295969.625,,22,the
screen,html.Screen,2_1_1_1_23,2022-02-17T13:08:08.507Z,,,,,,,,,,,,,,,,,54,,,,,,,,,,,,,,318.67499999701977,,response,,,,100,,,,,,,Space,keypress(Space),,,,,,,,-- --- ---- --- ------ ----- ------- ---- -- --- ------- --<br>------- ---------- ------ -- ----- -- ----- -- ---- ------<br>--- state --- --- ------ -------- ----- --- ------ ----- --<br>----- ----- ---------- --- --- ------ ------ ---- -- ------<br>------- --- ------ ----- --- ---- ------- -- ---- --- --<br>------- ------,296290.09999999404,296288.299999997,295953.028,295956.200000003,295969.625,296302.846,,23,state
screen,html.Screen,2_1_1_1_24,2022-02-17T13:08:08.795Z,,,,,,,,,,,,,,,,,54,,,,,,,,,,,,,,272.75399999402,,response,,,,100,,,,,,,Space,keypress(Space),,,,,,,,-- --- ---- --- ------ ----- ------- ---- -- --- ------- --<br>------- ---------- ------ -- ----- -- ----- -- ---- ------<br>--- ----- cut --- ------ -------- ----- --- ------ ----- --<br>----- ----- ---------- --- --- ------ ------ ---- -- ------<br>------- --- ------ ----- --- ---- ------- -- ---- --- --<br>------- ------,296577.09999999404,296575.59999999404,296286.151,296290.5,296302.846,296585.953,,24,cut
screen,html.Screen,2_1_1_1_25,2022-02-17T13:08:09.124Z,,,,,,,,,,,,,,,,,54,,,,,,,,,,,,,,319.64699999406,,response,,,,100,,,,,,,Space,keypress(Space),,,,,,,,-- --- ---- --- ------ ----- ------- ---- -- --- ------- --<br>------- ---------- ------ -- ----- -- ----- -- ---- ------<br>--- ----- --- the ------ -------- ----- --- ------ ----- --<br>----- ----- ---------- --- --- ------ ------ ---- -- ------<br>------- --- ------ ----- --- ---- ------- -- ---- --- --<br>------- ------,296906.799999997,296905.59999999404,296569.336,296577.39999999106,296585.953,296919.119,,25,the
screen,html.Screen,2_1_1_1_26,2022-02-17T13:08:09.424Z,,,,,,,,,,,,,,,,,54,,,,,,,,,,,,,,285.38099999999395,,response,,,,100,,,,,,,Space,keypress(Space),,,,,,,,-- --- ---- --- ------ ----- ------- ---- -- --- ------- --<br>------- ---------- ------ -- ----- -- ----- -- ---- ------<br>--- ----- --- --- bonds' -------- ----- --- ------ ----- --<br>----- ----- ---------- --- --- ------ ------ ---- -- ------<br>------- --- ------ ----- --- ---- ------- -- ---- --- --<br>------- ------,297206.89999999106,297204.5,296902.465,296907.09999999404,296919.119,297219.038,,26,bonds'
screen,html.Screen,2_1_1_1_27,2022-02-17T13:08:09.881Z,,,,,,,,,,,,,,,,,54,,,,,,,,,,,,,,443.2619999970193,,response,,,,100,,,,,,,Space,keypress(Space),,,,,,,,-- --- ---- --- ------ ----- ------- ---- -- --- ------- --<br>------- ---------- ------ -- ----- -- ----- -- ---- ------<br>--- ----- --- --- ------ interest ----- --- ------ ----- --<br>----- ----- ---------- --- --- ------ ------ ---- -- ------<br>------- --- ------ ----- --- ---- ------- -- ---- --- --<br>------- ------,297664,297662.299999997,297202.334,297207.200000003,297219.038,297668.695,,27,interest
screen,html.Screen,2_1_1_1_28,2022-02-17T13:08:10.318Z,,,,,,,,,,,,,,,,,54,,,,,,,,,,,,,,431.00500000297325,,response,,,,100,,,,,,,Space,keypress(Space),,,,,,,,-- --- ---- --- ------ ----- ------- ---- -- --- ------- --<br>------- ---------- ------ -- ----- -- ----- -- ---- ------<br>--- ----- --- --- ------ -------- rate. --- ------ ----- --<br>----- ----- ---------- --- --- ------ ------ ---- -- ------<br>------- --- ------ ----- --- ---- ------- -- ---- --- --<br>------- ------,298101,298099.700000003,297652.12,297664.299999997,297668.695,298118.487,,28,rate.
screen,html.Screen,2_1_1_1_29,2022-02-17T13:08:10.712Z,,,,,,,,,,,,,,,,,54,,,,,,,,,,,,,,375.0129999999772,,response,,,,100,,,,,,,Space,keypress(Space),,,,,,,,-- --- ---- --- ------ ----- ------- ---- -- --- ------- --<br>------- ---------- ------ -- ----- -- ----- -- ---- ------<br>--- ----- --- --- ------ -------- ----- The ------ ----- --<br>----- ----- ---------- --- --- ------ ------ ---- -- ------<br>------- --- ------ ----- --- ---- ------- -- ---- --- --<br>------- ------,298494.700000003,298493.5,298101.876,298101.299999997,298118.487,298501.599,,29,The
screen,html.Screen,2_1_1_1_30,2022-02-17T13:08:11.103Z,,,,,,,,,,,,,,,,,54,,,,,,,,,,,,,,379.1010000029928,,response,,,,100,,,,,,,Space,keypress(Space),,,,,,,,-- --- ---- --- ------ ----- ------- ---- -- --- ------- --<br>------- ---------- ------ -- ----- -- ----- -- ---- ------<br>--- ----- --- --- ------ -------- ----- --- market ----- --<br>----- ----- ---------- --- --- ------ ------ ---- -- ------<br>------- --- ------ ----- --- ---- ------- -- ---- --- --<br>------- ------,298885.39999999106,298880.700000003,298484.991,298495,298501.599,298901.398,,30,market
screen,html.Screen,2_1_1_1_31,2022-02-17T13:08:11.421Z,,,,,,,,,,,,,,,,,54,,,,,,,,,,,,,,300.30200000299374,,response,,,,100,,,,,,,Space,keypress(Space),,,,,,,,-- --- ---- --- ------ ----- ------- ---- -- --- ------- --<br>------- ---------- ------ -- ----- -- ----- -- ---- ------<br>--- ----- --- --- ------ -------- ----- --- ------ value --<br>----- ----- ---------- --- --- ------ ------ ---- -- ------<br>------- --- ------ ----- --- ---- ------- -- ---- --- --<br>------- ------,299203.59999999404,299201.700000003,298884.784,298885.700000003,298901.398,299217.899,,31,value
screen,html.Screen,2_1_1_1_32,2022-02-17T13:08:11.800Z,,,,,,,,,,,,,,,,,54,,,,,,,,,,,,,,363.6010000000242,,response,,,,100,,,,,,,Space,keypress(Space),,,,,,,,-- --- ---- --- ------ ----- ------- ---- -- --- ------- --<br>------- ---------- ------ -- ----- -- ----- -- ---- ------<br>--- ----- --- --- ------ -------- ----- --- ------ ----- of<br>----- ----- ---------- --- --- ------ ------ ---- -- ------<br>------- --- ------ ----- --- ---- ------- -- ---- --- --<br>------- ------,299582.799999997,299581.5,299201.264,299203.89999999106,299217.899,299607.768,,32,of
screen,html.Screen,2_1_1_1_33,2022-02-17T13:08:12.109Z,,,,,,,,,,,,,,,,,54,,,,,,,,,,,,,,282.23200000001816,,response,,,,100,,,,,,,Space,keypress(Space),,,,,,,,-- --- ---- --- ------ ----- ------- ---- -- --- ------- --<br>------- ---------- ------ -- ----- -- ----- -- ---- ------<br>--- ----- --- --- ------ -------- ----- --- ------ ----- --<br>these ----- ---------- --- --- ------ ------ ---- -- ------<br>------- --- ------ ----- --- ---- ------- -- ---- --- --<br>------- ------,299891.299999997,299890,299567.752,299583,299607.768,299900.857,,33,these
screen,html.Screen,2_1_1_1_34,2022-02-17T13:08:12.463Z,,,,,,,,,,,,,,,,,54,,,,,,,,,,,,,,343.84300000296207,,response,,,,100,,,,,,,Space,keypress(Space),,,,,,,,-- --- ---- --- ------ ----- ------- ---- -- --- ------- --<br>------- ---------- ------ -- ----- -- ----- -- ---- ------<br>--- ----- --- --- ------ -------- ----- --- ------ ----- --<br>----- bonds ---------- --- --- ------ ------ ---- -- ------<br>------- --- ------ ----- --- ---- ------- -- ---- --- --<br>------- ------,300246.09999999404,300244.700000003,299884.222,299891.5,299900.857,300250.641,,34,bonds
screen,html.Screen,2_1_1_1_35,2022-02-17T13:08:12.827Z,,,,,,,,,,,,,,,,,54,,,,,,,,,,,,,,357.1589999970165,,response,,,,100,,,,,,,Space,keypress(Space),,,,,,,,"-- --- ---- --- ------ ----- ------- ---- -- --- ------- --<br>------- ---------- ------ -- ----- -- ----- -- ---- ------<br>--- ----- --- --- ------ -------- ----- --- ------ ----- --<br>----- ----- plummeted, --- --- ------ ------ ---- -- ------<br>------- --- ------ ----- --- ---- ------- -- ---- --- --<br>------- ------",300609.200000003,300607.799999997,300234.056,300246.39999999106,300250.641,300617.205,,35,"plummeted,"
screen,html.Screen,2_1_1_1_36,2022-02-17T13:08:13.297Z,,,,,,,,,,,,,,,,,54,,,,,,,,,,,,,,460.59499999700347,,response,,,,100,,,,,,,Space,keypress(Space),,,,,,,,-- --- ---- --- ------ ----- ------- ---- -- --- ------- --<br>------- ---------- ------ -- ----- -- ----- -- ---- ------<br>--- ----- --- --- ------ -------- ----- --- ------ ----- --<br>----- ----- ---------- and --- ------ ------ ---- -- ------<br>------- --- ------ ----- --- ---- ------- -- ---- --- --<br>------- ------,301079.200000003,301077.799999997,300600.523,300609.39999999106,300617.205,301083.567,,36,and
screen,html.Screen,2_1_1_1_37,2022-02-17T13:08:13.594Z,,,,,,,,,,,,,,,,,54,,,,,,,,,,,,,,291.5329999940586,,response,,,,100,,,,,,,Space,keypress(Space),,,,,,,,-- --- ---- --- ------ ----- ------- ---- -- --- ------- --<br>------- ---------- ------ -- ----- -- ----- -- ---- ------<br>--- ----- --- --- ------ -------- ----- --- ------ ----- --<br>----- ----- ---------- --- the ------ ------ ---- -- ------<br>------- --- ------ ----- --- ---- ------- -- ---- --- --<br>------- ------,301376.59999999404,301375.09999999404,301067.187,301079.39999999106,301083.567,301383.606,,37,the
screen,html.Screen,2_1_1_1_38,2022-02-17T13:08:13.872Z,,,,,,,,,,,,,,,,,54,,,,,,,,,,,,,,269.59400000295136,,response,,,,100,,,,,,,Space,keypress(Space),,,,,,,,-- --- ---- --- ------ ----- ------- ---- -- --- ------- --<br>------- ---------- ------ -- ----- -- ----- -- ---- ------<br>--- ----- --- --- ------ -------- ----- --- ------ ----- --<br>----- ----- ---------- --- --- market ------ ---- -- ------<br>------- --- ------ ----- --- ---- ------- -- ---- --- --<br>------- ------,301654.39999999106,301653.200000003,301366.931,301376.799999997,301383.606,301666.666,,38,market
screen,html.Screen,2_1_1_1_39,2022-02-17T13:08:14.271Z,,,,,,,,,,,,,,,,,54,,,,,,,,,,,,,,385.0340000029537,,response,,,,100,,,,,,,Space,keypress(Space),,,,,,,,-- --- ---- --- ------ ----- ------- ---- -- --- ------- --<br>------- ---------- ------ -- ----- -- ----- -- ---- ------<br>--- ----- --- --- ------ -------- ----- --- ------ ----- --<br>----- ----- ---------- --- --- ------ became ---- -- ------<br>------- --- ------ ----- --- ---- ------- -- ---- --- --<br>------- ------,302053.200000003,302051.700000003,301650.197,301654.59999999404,301666.666,302066.329,,39,became
screen,html.Screen,2_1_1_1_40,2022-02-17T13:08:14.629Z,,,,,,,,,,,,,,,,,54,,,,,,,,,,,,,,343.8710000029532,,response,,,,100,,,,,,,Space,keypress(Space),,,,,,,,-- --- ---- --- ------ ----- ------- ---- -- --- ------- --<br>------- ---------- ------ -- ----- -- ----- -- ---- ------<br>--- ----- --- --- ------ -------- ----- --- ------ ----- --<br>----- ----- ---------- --- --- ------ ------ wary -- ------<br>------- --- ------ ----- --- ---- ------- -- ---- --- --<br>------- ------,302411.39999999106,302410.200000003,302049.745,302053.5,302066.329,302416.368,,40,wary
screen,html.Screen,2_1_1_1_41,2022-02-17T13:08:14.997Z,,,,,,,,,,,,,,,,,54,,,,,,,,,,,,,,361.2319999940228,,response,,,,100,,,,,,,Space,keypress(Space),,,,,,,,-- --- ---- --- ------ ----- ------- ---- -- --- ------- --<br>------- ---------- ------ -- ----- -- ----- -- ---- ------<br>--- ----- --- --- ------ -------- ----- --- ------ ----- --<br>----- ----- ---------- --- --- ------ ------ ---- of ------<br>------- --- ------ ----- --- ---- ------- -- ---- --- --<br>------- ------,302779.299999997,302777.59999999404,302399.556,302411.59999999404,302416.368,302782.632,,41,of
screen,html.Screen,2_1_1_1_42,2022-02-17T13:08:15.423Z,,,,,,,,,,,,,,,,,54,,,,,,,,,,,,,,421.9679999940563,,response,,,,100,,,,,,,Space,keypress(Space),,,,,,,,-- --- ---- --- ------ ----- ------- ---- -- --- ------- --<br>------- ---------- ------ -- ----- -- ----- -- ---- ------<br>--- ----- --- --- ------ -------- ----- --- ------ ----- --<br>----- ----- ---------- --- --- ------ ------ ---- -- French<br>------- --- ------ ----- --- ---- ------- -- ---- --- --<br>------- ------,303205.89999999106,303204.59999999404,302766.024,302779.5,302782.632,303215.755,,42,French
screen,html.Screen,2_1_1_1_43,2022-02-17T13:08:16.077Z,,,,,,,,,,,,,,,,,54,,,,,,,,,,,,,,642.6449999910546,,response,,,,100,,,,,,,Space,keypress(Space),,,,,,,,-- --- ---- --- ------ ----- ------- ---- -- --- ------- --<br>------- ---------- ------ -- ----- -- ----- -- ---- ------<br>--- ----- --- --- ------ -------- ----- --- ------ ----- --<br>----- ----- ---------- --- --- ------ ------ ---- -- ------<br>credit. --- ------ ----- --- ---- ------- -- ---- --- --<br>------- ------,303859.59999999404,303858.39999999106,303199.265,303206.200000003,303215.755,303865.373,,43,credit.
screen,html.Screen,2_1_1_1_44,2022-02-17T13:08:16.574Z,,,,,,,,,,,,,,,,,54,,,,,,,,,,,,,,489.8270000029588,,response,,,,100,,,,,,,Space,keypress(Space),,,,,,,,-- --- ---- --- ------ ----- ------- ---- -- --- ------- --<br>------- ---------- ------ -- ----- -- ----- -- ---- ------<br>--- ----- --- --- ------ -------- ----- --- ------ ----- --<br>----- ----- ---------- --- --- ------ ------ ---- -- ------<br>------- The ------ ----- --- ---- ------- -- ---- --- --<br>------- ------,304356.200000003,304355.200000003,303848.829,303859.89999999106,303865.373,304365.105,,44,The
screen,html.Screen,2_1_1_1_45,2022-02-17T13:08:17.242Z,,,,,,,,,,,,,,,,,54,,,,,,,,,,,,,,658.1949999970384,,response,,,,100,,,,,,,Space,keypress(Space),,,,,,,,-- --- ---- --- ------ ----- ------- ---- -- --- ------- --<br>------- ---------- ------ -- ----- -- ----- -- ---- ------<br>--- ----- --- --- ------ -------- ----- --- ------ ----- --<br>----- ----- ---------- --- --- ------ ------ ---- -- ------<br>------- --- French ----- --- ---- ------- -- ---- --- --<br>------- ------,305024.39999999106,305023.299999997,304348.533,304356.5,304365.105,305031.519,,45,French
screen,html.Screen,2_1_1_1_46,2022-02-17T13:08:17.675Z,,,,,,,,,,,,,,,,,54,,,,,,,,,,,,,,424.98100000002887,,response,,,,100,,,,,,,Space,keypress(Space),,,,,,,,-- --- ---- --- ------ ----- ------- ---- -- --- ------- --<br>------- ---------- ------ -- ----- -- ----- -- ---- ------<br>--- ----- --- --- ------ -------- ----- --- ------ ----- --<br>----- ----- ---------- --- --- ------ ------ ---- -- ------<br>------- --- ------ state --- ---- ------- -- ---- --- --<br>------- ------,305457.700000003,305456.5,305014.879,305024.59999999404,305031.519,305464.543,,46,state
screen,html.Screen,2_1_1_1_47,2022-02-17T13:08:18.231Z,,,,,,,,,,,,,,,,,54,,,,,,,,,,,,,,547.7569999970146,,response,,,,100,,,,,,,Space,keypress(Space),,,,,,,,-- --- ---- --- ------ ----- ------- ---- -- --- ------- --<br>------- ---------- ------ -- ----- -- ----- -- ---- ------<br>--- ----- --- --- ------ -------- ----- --- ------ ----- --<br>----- ----- ---------- --- --- ------ ------ ---- -- ------<br>------- --- ------ ----- was ---- ------- -- ---- --- --<br>------- ------,306013.5,306012.299999997,305448.01,305458,305464.543,306031.088,,47,was
screen,html.Screen,2_1_1_1_48,2022-02-17T13:08:18.635Z,,,,,,,,,,,,,,,,,54,,,,,,,,,,,,,,384.0119999940507,,response,,,,100,,,,,,,Space,keypress(Space),,,,,,,,-- --- ---- --- ------ ----- ------- ---- -- --- ------- --<br>------- ---------- ------ -- ----- -- ----- -- ---- ------<br>--- ----- --- --- ------ -------- ----- --- ------ ----- --<br>----- ----- ---------- --- --- ------ ------ ---- -- ------<br>------- --- ------ ----- --- left ------- -- ---- --- --<br>------- ------,306417.299999997,306415.09999999404,306014.332,306013.89999999106,306031.088,306430.807,,48,left
screen,html.Screen,2_1_1_1_49,2022-02-17T13:08:19.003Z,,,,,,,,,,,,,,,,,54,,,,,,,,,,,,,,353.39300000300864,,response,,,,100,,,,,,,Space,keypress(Space),,,,,,,,-- --- ---- --- ------ ----- ------- ---- -- --- ------- --<br>------- ---------- ------ -- ----- -- ----- -- ---- ------<br>--- ----- --- --- ------ -------- ----- --- ------ ----- --<br>----- ----- ---------- --- --- ------ ------ ---- -- ------<br>------- --- ------ ----- --- ---- without -- ---- --- --<br>------- ------,306785.299999997,306784.200000003,306414.078,306417.700000003,306430.807,306797.17,,49,without
screen,html.Screen,2_1_1_1_50,2022-02-17T13:08:19.469Z,,,,,,,,,,,,,,,,,54,,,,,,,,,,,,,,453.3300000000163,,response,,,,100,,,,,,,Space,keypress(Space),,,,,,,,-- --- ---- --- ------ ----- ------- ---- -- --- ------- --<br>------- ---------- ------ -- ----- -- ----- -- ---- ------<br>--- ----- --- --- ------ -------- ----- --- ------ ----- --<br>----- ----- ---------- --- --- ------ ------ ---- -- ------<br>------- --- ------ ----- --- ---- ------- an ---- --- --<br>------- ------,307251.89999999106,307250.5,306780.557,306785.59999999404,306797.17,307263.563,,50,an
screen,html.Screen,2_1_1_1_51,2022-02-17T13:08:19.748Z,,,,,,,,,,,,,,,,,54,,,,,,,,,,,,,,265.6370000029565,,response,,,,100,,,,,,,Space,keypress(Space),,,,,,,,-- --- ---- --- ------ ----- ------- ---- -- --- ------- --<br>------- ---------- ------ -- ----- -- ----- -- ---- ------<br>--- ----- --- --- ------ -------- ----- --- ------ ----- --<br>----- ----- ---------- --- --- ------ ------ ---- -- ------<br>------- --- ------ ----- --- ---- ------- -- easy --- --<br>------- ------,307530.39999999106,307529.200000003,307246.987,307252.200000003,307263.563,307546.737,,51,easy
screen,html.Screen,2_1_1_1_52,2022-02-17T13:08:20.161Z,,,,,,,,,,,,,,,,,54,,,,,,,,,,,,,,381.9630000029574,,response,,,,100,,,,,,,Space,keypress(Space),,,,,,,,-- --- ---- --- ------ ----- ------- ---- -- --- ------- --<br>------- ---------- ------ -- ----- -- ----- -- ---- ------<br>--- ----- --- --- ------ -------- ----- --- ------ ----- --<br>----- ----- ---------- --- --- ------ ------ ---- -- ------<br>------- --- ------ ----- --- ---- ------- -- ---- way --<br>------- ------,307943.799999997,307928.700000003,307530.125,307530.799999997,307546.737,307946.534,,52,way
screen,html.Screen,2_1_1_1_53,2022-02-17T13:08:20.547Z,,,,,,,,,,,,,,,,,54,,,,,,,,,,,,,,381.06599999405444,,response,,,,100,,,,,,,Space,keypress(Space),,,,,,,,-- --- ---- --- ------ ----- ------- ---- -- --- ------- --<br>------- ---------- ------ -- ----- -- ----- -- ---- ------<br>--- ----- --- --- ------ -------- ----- --- ------ ----- --<br>----- ----- ---------- --- --- ------ ------ ---- -- ------<br>------- --- ------ ----- --- ---- ------- -- ---- --- of<br>------- ------,308329.299999997,308327.59999999404,307929.939,307944.09999999404,307946.534,308346.334,,53,of
screen,html.Screen,2_1_1_1_54,2022-02-17T13:08:21.038Z,,,,,,,,,,,,,,,,,54,,,,,,,,,,,,,,473.06599999108585,,response,,,,100,,,,,,,Space,keypress(Space),,,,,,,,-- --- ---- --- ------ ----- ------- ---- -- --- ------- --<br>------- ---------- ------ -- ----- -- ----- -- ---- ------<br>--- ----- --- --- ------ -------- ----- --- ------ ----- --<br>----- ----- ---------- --- --- ------ ------ ---- -- ------<br>------- --- ------ ----- --- ---- ------- -- ---- --- --<br>raising ------,308820.5,308819.39999999106,308329.719,308329.59999999404,308346.334,308829.582,,54,raising
screen,html.Screen,2_1_1_1_55,2022-02-17T13:08:23.825Z,,,,,,,,,,,,,,,,,54,,,,,,,,,,,,,,2776.3179999910644,,response,,,,100,,,,,,,Space,keypress(Space),,,,,,,,-- --- ---- --- ------ ----- ------- ---- -- --- ------- --<br>------- ---------- ------ -- ----- -- ----- -- ---- ------<br>--- ----- --- --- ------ -------- ----- --- ------ ----- --<br>----- ----- ---------- --- --- ------ ------ ---- -- ------<br>------- --- ------ ----- --- ---- ------- -- ---- --- --<br>------- money.,311607.200000003,311605.89999999106,308812.934,308820.799999997,308829.582,311611.346,,55,money.
Item 100,flow.Loop,2_1_1_1,2022-02-17T13:08:23.825Z,,,,,,,,,,,,,,,,,,,,,,,,,,,,,,,26963.550999991072,,completion,,,,,D,,,,,,,,,,,silence,,,,,311607.799999997,311605.89999999106,284625.673,284626.59999999404,284642.349,311611.346,,,
Question 1,html.Screen,2_1_1_2,2022-02-17T13:08:26.727Z,,,,,,,,,,,,,,,,,,,,,,,,,,,,true,TRUE,,2894.1539999999804,,response,,,,100,D,,,,,,TRUE,click #choice-1,,,,silence,,,,,314509.09999999404,314505.5,311595.107,311608.200000003,311611.346,314509.687,,,
Question 2,html.Screen,2_1_1_3,2022-02-17T13:08:29.546Z,,,,,,,,,,,,,,,,,,,,,,,,,,,,true,FALSE,,2815.6129999970435,,response,,,,100,D,,,,,,FALSE,click #choice-2,,,,silence,,,,,317328.799999997,317325.299999997,314493.112,314509.299999997,314509.687,317341.537,,,
Item 100,flow.Sequence,2_1_1,2022-02-17T13:08:29.547Z,,,,,,,,,,,,,,,,,,,,,,,,,,,,,,,42677.563999997044,,completion,,,,,,,,,,,,,,,,,,,,,317329.200000003,317325.299999997,274631.085,274643.700000003,274647.736,317341.537,,,
End of Practice,html.Page,2_1_2,2022-02-17T13:08:33.552Z,,,,,,,,,,,,,,,,,,,,,,,,,,,,,,,3991.962999999989,,form submission,,,,,,,,,,,,,,,,,,,,,321334.200000003,321333.5,317324.845,317329.59999999404,317341.537,321339.424,,,
Practice,flow.Sequence,2_1,2022-02-17T13:08:33.552Z,,,,,,,,,,,,,,,,,,,,,,,,,,,,,,,90179.18299999999,,completion,,,,,,,,,,,,,,,,,,,,,321334.5,321333.5,231121.002,231127.5,231154.317,321339.424,,,
Trap_instruction,html.Page,2_2_0,2022-02-17T13:08:37.447Z,,,,,,,,,,,,,,,,,,,,,,,,,,,,,,,3888.576000000001,,form submission,,,,,,,,,,,,,,,,,,,,,325229.09999999404,325228,321322.821,321335,321339.424,325687.03,,,
trap_trial,html.Screen,2_2_1,2022-02-17T13:08:41.492Z,,,,,,,,,,,,,,,,,,,,,,,,,,,,true,1,,3584.3699999910314,,response,,,,,,,,,,,1,click #choice-1,,,,,,,,,329274.299999997,329271.39999999106,325220.643,325229.39999999106,325687.03,329285.108,,,
end of trap trial,html.Page,2_2_2,2022-02-17T13:08:43.797Z,,,,,,,,,,,,,,,,,,,,,,,,,,,,,,,2294.1919999970123,,form submission,,,,,,,,,,,,,,,,,,,,,331579.89999999106,331579.299999997,329268.459,329274.5,329285.108,331583.879,,,
Trap 1,flow.Sequence,2_2,2022-02-17T13:08:43.798Z,,,,,,,,,,,,,,,,,,,,,,,,,,,,,,,10239.87599999702,,completion,,,,,,,,,,,,,,,,,,,,,331580.299999997,331579.299999997,321322.821,321334.799999997,321339.424,331583.879,,,
Standby,html.Page,2_3_0,2022-02-17T13:08:51.782Z,,,,,,,,,,,,,,,,,,,,,,,,,,,,,,,7995.929000000004,,timeout,,,,,,,,,,,,,,,,,,,,,339564.09999999404,339562.933,331567.209,331580.700000003,331583.879,339579.808,,,
Holding screen,html.Screen,2_3_1_0_0,2022-02-17T13:08:58.778Z,,,,,,,,,,,,,,,,,,,,,,,,,,,,,,,6996.061999999976,,timeout,,,,,,,,,,,,,,,,,,,,,346560.5,346559.185,339562.933,339564.5,339579.808,346575.87,,,
screen,html.Screen,2_3_1_0_1_0,2022-02-17T13:08:59.842Z,,,,,,,,,,,,,,,,,15,,,,,,,,,,,,,,1013.1300000000047,,response,,,,7,D,,,,,,Space,keypress(Space),,,,silence,,,,Greg --------- ---------- - --- ------- -- --- ------------<br>----- -- -------- ------- ---- ------ - -------- ---- -----<br>--- ------- ---- -- --- -------- --- - ----- ------ ---- --<br>-------- --- -------- -------- --- -------- ---- -- ----- -<br>-------- ---- --- ---------- --------- -- ------- ------ -<br>--------- ----- -----,347624.09999999404,347589,346559.185,346560.89999999106,346575.87,347625.286,,0,Greg
screen,html.Screen,2_3_1_0_1_1,2022-02-17T13:09:00.659Z,,,,,,,,,,,,,,,,,15,,,,,,,,,,,,,,700.7829999940586,,response,,,,7,D,,,,,,Space,keypress(Space),,,,silence,,,,"---- Anderson, ---------- - --- ------- -- --- ------------<br>----- -- -------- ------- ---- ------ - -------- ---- -----<br>--- ------- ---- -- --- -------- --- - ----- ------ ---- --<br>-------- --- -------- -------- --- -------- ---- -- ----- -<br>-------- ---- --- ---------- --------- -- ------- ------ -<br>--------- ----- -----",348441.89999999106,348309.59999999404,347608.817,347624.39999999106,,348441.522,,1,"Anderson,"
screen,html.Screen,2_3_1_0_1_2,2022-02-17T13:09:01.324Z,,,,,,,,,,,,,,,,,15,,,,,,,,,,,,,,663.7779999970226,,response,,,,7,D,,,,,,Space,keypress(Space),,,,silence,,,,---- --------- considered - --- ------- -- --- ------------<br>----- -- -------- ------- ---- ------ - -------- ---- -----<br>--- ------- ---- -- --- -------- --- - ----- ------ ---- --<br>-------- --- -------- -------- --- -------- ---- -- ----- -<br>-------- ---- --- ---------- --------- -- ------- ------ -<br>--------- ----- -----,349106.5,349105.299999997,347625.286,348442.299999997,348441.522,349131.321,,2,considered
screen,html.Screen,2_3_1_0_1_3,2022-02-17T13:09:01.681Z,,,,,,,,,,,,,,,,,15,,,,,,,,,,,,,,330.37900000298396,,response,,,,7,D,,,,,,Space,keypress(Space),,,,silence,,,,---- --------- ---------- a --- ------- -- --- ------------<br>----- -- -------- ------- ---- ------ - -------- ---- -----<br>--- ------- ---- -- --- -------- --- - ----- ------ ---- --<br>-------- --- -------- -------- --- -------- ---- -- ----- -<br>-------- ---- --- ---------- --------- -- ------- ------ -<br>--------- ----- -----,349463,349461.700000003,349091.319,349106.700000003,349131.321,349474.311,,3,a
screen,html.Screen,2_3_1_0_1_4,2022-02-17T13:09:01.987Z,,,,,,,,,,,,,,,,,15,,,,,,,,,,,,,,293.88900000299327,,response,,,,7,D,,,,,,Space,keypress(Space),,,,silence,,,,---- --------- ---------- - key ------- -- --- ------------<br>----- -- -------- ------- ---- ------ - -------- ---- -----<br>--- ------- ---- -- --- -------- --- - ----- ------ ---- --<br>-------- --- -------- -------- --- -------- ---- -- ----- -<br>-------- ---- --- ---------- --------- -- ------- ------ -<br>--------- ----- -----,349769.39999999106,349768.200000003,349457.693,349463.299999997,349474.311,349774.161,,4,key
screen,html.Screen,2_3_1_0_1_5,2022-02-17T13:09:02.628Z,,,,,,,,,,,,,,,,,15,,,,,,,,,,,,,,635.1389999969979,,response,,,,7,D,,,,,,Space,keypress(Space),,,,silence,,,,---- --------- ---------- - --- witness -- --- ------------<br>----- -- -------- ------- ---- ------ - -------- ---- -----<br>--- ------- ---- -- --- -------- --- - ----- ------ ---- --<br>-------- --- -------- -------- --- -------- ---- -- ----- -<br>-------- ---- --- ---------- --------- -- ------- ------ -<br>--------- ----- -----,350410.5,350409.299999997,349757.523,349769.59999999404,349774.161,350423.82,,5,witness
screen,html.Screen,2_3_1_0_1_6,2022-02-17T13:09:03.078Z,,,,,,,,,,,,,,,,,15,,,,,,,,,,,,,,434.88000000297325,,response,,,,7,D,,,,,,Space,keypress(Space),,,,silence,,,,---- --------- ---------- - --- ------- by --- ------------<br>----- -- -------- ------- ---- ------ - -------- ---- -----<br>--- ------- ---- -- --- -------- --- - ----- ------ ---- --<br>-------- --- -------- -------- --- -------- ---- -- ----- -<br>-------- ---- --- ---------- --------- -- ------- ------ -<br>--------- ----- -----,350860.59999999404,350858.700000003,350407.243,350410.700000003,350423.82,350873.536,,6,by
screen,html.Screen,2_3_1_0_1_7,2022-02-17T13:09:03.367Z,,,,,,,,,,,,,,,,,15,,,,,,,,,,,,,,274.4639999999781,,response,,,,7,D,,,,,,Space,keypress(Space),,,,silence,,,,---- --------- ---------- - --- ------- -- the ------------<br>----- -- -------- ------- ---- ------ - -------- ---- -----<br>--- ------- ---- -- --- -------- --- - ----- ------ ---- --<br>-------- --- -------- -------- --- -------- ---- -- ----- -<br>-------- ---- --- ---------- --------- -- ------- ------ -<br>--------- ----- -----,351149.299999997,351148,350856.985,350860.89999999106,350873.536,351156.744,,7,the
screen,html.Screen,2_3_1_0_1_8,2022-02-17T13:09:04.123Z,,,,,,,,,,,,,,,,,15,,,,,,,,,,,,,,747.1559999910532,,response,,,,7,D,,,,,,Space,keypress(Space),,,,silence,,,,"---- --------- ---------- - --- ------- -- --- prosecution,<br>----- -- -------- ------- ---- ------ - -------- ---- -----<br>--- ------- ---- -- --- -------- --- - ----- ------ ---- --<br>-------- --- -------- -------- --- -------- ---- -- ----- -<br>-------- ---- --- ---------- --------- -- ------- ------ -<br>--------- ----- -----",351905.09999999404,351903.89999999106,351140.195,351149.59999999404,351156.744,351925.736,,8,"prosecution,"
screen,html.Screen,2_3_1_0_1_9,2022-02-17T13:09:04.665Z,,,,,,,,,,,,,,,,,15,,,,,,,,,,,,,,520.3639999940642,,response,,,,7,D,,,,,,Space,keypress(Space),,,,silence,,,,---- --------- ---------- - --- ------- -- --- ------------<br>vowed -- -------- ------- ---- ------ - -------- ---- -----<br>--- ------- ---- -- --- -------- --- - ----- ------ ---- --<br>-------- --- -------- -------- --- -------- ---- -- ----- -<br>-------- ---- --- ---------- --------- -- ------- ------ -<br>--------- ----- -----,352447.200000003,352446.09999999404,351889.805,351905.299999997,351925.736,352456.05,,9,vowed
screen,html.Screen,2_3_1_0_1_10,2022-02-17T13:09:04.973Z,,,,,,,,,,,,,,,,,15,,,,,,,,,,,,,,297.45000000001164,,response,,,,7,D,,,,,,Space,keypress(Space),,,,silence,,,,---- --------- ---------- - --- ------- -- --- ------------<br>----- he -------- ------- ---- ------ - -------- ---- -----<br>--- ------- ---- -- --- -------- --- - ----- ------ ---- --<br>-------- --- -------- -------- --- -------- ---- -- ----- -<br>-------- ---- --- ---------- --------- -- ------- ------ -<br>--------- ----- -----,352755.09999999404,352753.5,352439.476,352447.59999999404,352456.05,352772.564,,10,he
screen,html.Screen,2_3_1_0_1_11,2022-02-17T13:09:05.460Z,,,,,,,,,,,,,,,,,15,,,,,,,,,,,,,,468.1360000029672,,response,,,,7,D,,,,,,Space,keypress(Space),,,,silence,,,,---- --------- ---------- - --- ------- -- --- ------------<br>----- -- wouldn't ------- ---- ------ - -------- ---- -----<br>--- ------- ---- -- --- -------- --- - ----- ------ ---- --<br>-------- --- -------- -------- --- -------- ---- -- ----- -<br>-------- ---- --- ---------- --------- -- ------- ------ -<br>--------- ----- -----,353242,353240.700000003,352755.92,352755.299999997,352772.564,353255.763,,11,wouldn't
screen,html.Screen,2_3_1_0_1_12,2022-02-17T13:09:05.954Z,,,,,,,,,,,,,,,,,15,,,,,,,,,,,,,,479.5369999970426,,response,,,,7,D,,,,,,Space,keypress(Space),,,,silence,,,,---- --------- ---------- - --- ------- -- --- ------------<br>----- -- -------- testify ---- ------ - -------- ---- -----<br>--- ------- ---- -- --- -------- --- - ----- ------ ---- --<br>-------- --- -------- -------- --- -------- ---- -- ----- -<br>-------- ---- --- ---------- --------- -- ------- ------ -<br>--------- ----- -----,353736.700000003,353735.299999997,353239.029,353242.299999997,353255.763,353738.715,,12,testify
screen,html.Screen,2_3_1_0_1_13,2022-02-17T13:09:06.421Z,,,,,,,,,,,,,,,,,15,,,,,,,,,,,,,,463.1849999910337,,response,,,,7,D,,,,,,Space,keypress(Space),,,,silence,,,,---- --------- ---------- - --- ------- -- --- ------------<br>----- -- -------- ------- when ------ - -------- ---- -----<br>--- ------- ---- -- --- -------- --- - ----- ------ ---- --<br>-------- --- -------- -------- --- -------- ---- -- ----- -<br>-------- ---- --- ---------- --------- -- ------- ------ -<br>--------- ----- -----,354203.09999999404,354201.89999999106,353722.19,353737,353738.715,354205.097,,13,when
screen,html.Screen,2_3_1_0_1_14,2022-02-17T13:09:07.097Z,,,,,,,,,,,,,,,,,15,,,,,,,,,,,,,,673.0029999940307,,response,,,,7,D,,,,,,Space,keypress(Space),,,,silence,,,,---- --------- ---------- - --- ------- -- --- ------------<br>----- -- -------- ------- ---- served - -------- ---- -----<br>--- ------- ---- -- --- -------- --- - ----- ------ ---- --<br>-------- --- -------- -------- --- -------- ---- -- ----- -<br>-------- ---- --- ---------- --------- -- ------- ------ -<br>--------- ----- -----,354879.39999999106,354878.09999999404,354188.516,354203.39999999106,354205.097,354888.157,,14,served
screen,html.Screen,2_3_1_0_1_15,2022-02-17T13:09:07.457Z,,,,,,,,,,,,,,,,,15,,,,,,,,,,,,,,350.3429999999935,,response,,,,7,D,,,,,,Space,keypress(Space),,,,silence,,,,---- --------- ---------- - --- ------- -- --- ------------<br>----- -- -------- ------- ---- ------ a -------- ---- -----<br>--- ------- ---- -- --- -------- --- - ----- ------ ---- --<br>-------- --- -------- -------- --- -------- ---- -- ----- -<br>-------- ---- --- ---------- --------- -- ------- ------ -<br>--------- ----- -----,355239.799999997,355238.5,354871.538,354879.799999997,354888.157,355254.569,,15,a
screen,html.Screen,2_3_1_0_1_16,2022-02-17T13:09:08.326Z,,,,,,,,,,,,,,,,,15,,,,,,,,,,,,,,852.6310000029625,,response,,,,7,D,,,,,,Space,keypress(Space),,,,silence,,,,---- --------- ---------- - --- ------- -- --- ------------<br>----- -- -------- ------- ---- ------ - subpoena ---- -----<br>--- ------- ---- -- --- -------- --- - ----- ------ ---- --<br>-------- --- -------- -------- --- -------- ---- -- ----- -<br>-------- ---- --- ---------- --------- -- ------- ------ -<br>--------- ----- -----,356108.700000003,356107.200000003,355237.937,355240.200000003,355254.569,356137.401,,16,subpoena
screen,html.Screen,2_3_1_0_1_17,2022-02-17T13:09:08.971Z,,,,,,,,,,,,,,,,,15,,,,,,,,,,,,,,614.198999994027,,response,,,,7,D,,,,,,Space,keypress(Space),,,,silence,,,,---- --------- ---------- - --- ------- -- --- ------------<br>----- -- -------- ------- ---- ------ - -------- last -----<br>--- ------- ---- -- --- -------- --- - ----- ------ ---- --<br>-------- --- -------- -------- --- -------- ---- -- ----- -<br>-------- ---- --- ---------- --------- -- ------- ------ -<br>--------- ----- -----,356753.09999999404,356751.59999999404,356104.229,356109.200000003,356137.401,356787.072,,17,last
screen,html.Screen,2_3_1_0_1_18,2022-02-17T13:09:09.579Z,,,,,,,,,,,,,,,,,15,,,,,,,,,,,,,,573.027999994054,,response,,,,7,D,,,,,,Space,keypress(Space),,,,silence,,,,---- --------- ---------- - --- ------- -- --- ------------<br>----- -- -------- ------- ---- ------ - -------- ---- week.<br>--- ------- ---- -- --- -------- --- - ----- ------ ---- --<br>-------- --- -------- -------- --- -------- ---- -- ----- -<br>-------- ---- --- ---------- --------- -- ------- ------ -<br>--------- ----- -----,357361.5,357360.09999999404,356770.386,356753.200000003,356787.072,357370.099,,18,week.
screen,html.Screen,2_3_1_0_1_19,2022-02-17T13:09:10.032Z,,,,,,,,,,,,,,,,,15,,,,,,,,,,,,,,442.70099999703234,,response,,,,7,D,,,,,,Space,keypress(Space),,,,silence,,,,---- --------- ---------- - --- ------- -- --- ------------<br>----- -- -------- ------- ---- ------ - -------- ---- -----<br>His ------- ---- -- --- -------- --- - ----- ------ ---- --<br>-------- --- -------- -------- --- -------- ---- -- ----- -<br>-------- ---- --- ---------- --------- -- ------- ------ -<br>--------- ----- -----,357814,357812.799999997,357353.509,357361.799999997,357370.099,357819.827,,19,His
screen,html.Screen,2_3_1_0_1_20,2022-02-17T13:09:10.607Z,,,,,,,,,,,,,,,,,15,,,,,,,,,,,,,,567.2729999940493,,response,,,,7,D,,,,,,Space,keypress(Space),,,,silence,,,,---- --------- ---------- - --- ------- -- --- ------------<br>----- -- -------- ------- ---- ------ - -------- ---- -----<br>--- lawyers ---- -- --- -------- --- - ----- ------ ---- --<br>-------- --- -------- -------- --- -------- ---- -- ----- -<br>-------- ---- --- ---------- --------- -- ------- ------ -<br>--------- ----- -----,358389.299999997,358387.09999999404,357803.254,357814.200000003,357819.827,358402.955,,20,lawyers
screen,html.Screen,2_3_1_0_1_21,2022-02-17T13:09:11.107Z,,,,,,,,,,,,,,,,,15,,,,,,,,,,,,,,485.64499999402324,,response,,,,7,D,,,,,,Space,keypress(Space),,,,silence,,,,---- --------- ---------- - --- ------- -- --- ------------<br>----- -- -------- ------- ---- ------ - -------- ---- -----<br>--- ------- said -- --- -------- --- - ----- ------ ---- --<br>-------- --- -------- -------- --- -------- ---- -- ----- -<br>-------- ---- --- ---------- --------- -- ------- ------ -<br>--------- ----- -----,358889.89999999106,358888.59999999404,358386.42,358389.5,358402.955,358902.568,,21,said
screen,html.Screen,2_3_1_0_1_22,2022-02-17T13:09:11.524Z,,,,,,,,,,,,,,,,,15,,,,,,,,,,,,,,402.23199999699136,,response,,,,7,D,,,,,,Space,keypress(Space),,,,silence,,,,---- --------- ---------- - --- ------- -- --- ------------<br>----- -- -------- ------- ---- ------ - -------- ---- -----<br>--- ------- ---- he --- -------- --- - ----- ------ ---- --<br>-------- --- -------- -------- --- -------- ---- -- ----- -<br>-------- ---- --- ---------- --------- -- ------- ------ -<br>--------- ----- -----,359306.799999997,359304.799999997,358886.149,358890.09999999404,358902.568,359319.224,,22,he
screen,html.Screen,2_3_1_0_1_23,2022-02-17T13:09:11.956Z,,,,,,,,,,,,,,,,,15,,,,,,,,,,,,,,418.07599999703234,,response,,,,7,D,,,,,,Space,keypress(Space),,,,silence,,,,---- --------- ---------- - --- ------- -- --- ------------<br>----- -- -------- ------- ---- ------ - -------- ---- -----<br>--- ------- ---- -- was -------- --- - ----- ------ ---- --<br>-------- --- -------- -------- --- -------- ---- -- ----- -<br>-------- ---- --- ---------- --------- -- ------- ------ -<br>--------- ----- -----,359738.59999999404,359737.299999997,359302.442,359307.200000003,359319.224,359752.125,,23,was
screen,html.Screen,2_3_1_0_1_24,2022-02-17T13:09:12.498Z,,,,,,,,,,,,,,,,,15,,,,,,,,,,,,,,526.875,,response,,,,7,D,,,,,,Space,keypress(Space),,,,silence,,,,---- --------- ---------- - --- ------- -- --- ------------<br>----- -- -------- ------- ---- ------ - -------- ---- -----<br>--- ------- ---- -- --- prepared --- - ----- ------ ---- --<br>-------- --- -------- -------- --- -------- ---- -- ----- -<br>-------- ---- --- ---------- --------- -- ------- ------ -<br>--------- ----- -----,360280.39999999106,360279,359735.545,359738.799999997,359752.125,360285.227,,24,prepared
screen,html.Screen,2_3_1_0_1_25,2022-02-17T13:09:12.895Z,,,,,,,,,,,,,,,,,15,,,,,,,,,,,,,,390.6729999910458,,response,,,,7,D,,,,,,Space,keypress(Space),,,,silence,,,,---- --------- ---------- - --- ------- -- --- ------------<br>----- -- -------- ------- ---- ------ - -------- ---- -----<br>--- ------- ---- -- --- -------- for - ----- ------ ---- --<br>-------- --- -------- -------- --- -------- ---- -- ----- -<br>-------- ---- --- ---------- --------- -- ------- ------ -<br>--------- ----- -----,360677.09999999404,360675.89999999106,360268.605,360280.59999999404,360285.227,360684.954,,25,for
screen,html.Screen,2_3_1_0_1_26,2022-02-17T13:09:13.306Z,,,,,,,,,,,,,,,,,15,,,,,,,,,,,,,,402.34599999699276,,response,,,,7,D,,,,,,Space,keypress(Space),,,,silence,,,,---- --------- ---------- - --- ------- -- --- ------------<br>----- -- -------- ------- ---- ------ - -------- ---- -----<br>--- ------- ---- -- --- -------- --- a ----- ------ ---- --<br>-------- --- -------- -------- --- -------- ---- -- ----- -<br>-------- ---- --- ---------- --------- -- ------- ------ -<br>--------- ----- -----,361088.59999999404,361087.299999997,360668.647,360677.5,360684.954,361101.407,,26,a
screen,html.Screen,2_3_1_0_1_27,2022-02-17T13:09:13.764Z,,,,,,,,,,,,,,,,,15,,,,,,,,,,,,,,443.4929999910528,,response,,,,7,D,,,,,,Space,keypress(Space),,,,silence,,,,---- --------- ---------- - --- ------- -- --- ------------<br>----- -- -------- ------- ---- ------ - -------- ---- -----<br>--- ------- ---- -- --- -------- --- - third ------ ---- --<br>-------- --- -------- -------- --- -------- ---- -- ----- -<br>-------- ---- --- ---------- --------- -- ------- ------ -<br>--------- ----- -----,361546.39999999106,361544.89999999106,361084.816,361088.799999997,361101.407,361551.168,,27,third
screen,html.Screen,2_3_1_0_1_28,2022-02-17T13:09:14.291Z,,,,,,,,,,,,,,,,,15,,,,,,,,,,,,,,520.6319999970146,,response,,,,7,D,,,,,,Space,keypress(Space),,,,silence,,,,---- --------- ---------- - --- ------- -- --- ------------<br>----- -- -------- ------- ---- ------ - -------- ---- -----<br>--- ------- ---- -- --- -------- --- - ----- prison ---- --<br>-------- --- -------- -------- --- -------- ---- -- ----- -<br>-------- ---- --- ---------- --------- -- ------- ------ -<br>--------- ----- -----,362073.299999997,362071.799999997,361534.582,361546.700000003,361551.168,362084.293,,28,prison
screen,html.Screen,2_3_1_0_1_29,2022-02-17T13:09:14.845Z,,,,,,,,,,,,,,,,,15,,,,,,,,,,,,,,540.1069999910542,,response,,,,7,D,,,,,,Space,keypress(Space),,,,silence,,,,---- --------- ---------- - --- ------- -- --- ------------<br>----- -- -------- ------- ---- ------ - -------- ---- -----<br>--- ------- ---- -- --- -------- --- - ----- ------ stay --<br>-------- --- -------- -------- --- -------- ---- -- ----- -<br>-------- ---- --- ---------- --------- -- ------- ------ -<br>--------- ----- -----,362627.5,362624.39999999106,362067.65,362073.5,362084.293,362633.919,,29,stay
screen,html.Screen,2_3_1_0_1_30,2022-02-17T13:09:15.304Z,,,,,,,,,,,,,,,,,15,,,,,,,,,,,,,,451.6809999940451,,response,,,,7,D,,,,,,Space,keypress(Space),,,,silence,,,,---- --------- ---------- - --- ------- -- --- ------------<br>----- -- -------- ------- ---- ------ - -------- ---- -----<br>--- ------- ---- -- --- -------- --- - ----- ------ ---- to<br>-------- --- -------- -------- --- -------- ---- -- ----- -<br>-------- ---- --- ---------- --------- -- ------- ------ -<br>--------- ----- -----,363086.799999997,363085.59999999404,362617.704,362627.799999997,362633.919,363100.352,,30,to
screen,html.Screen,2_3_1_0_1_31,2022-02-17T13:09:15.770Z,,,,,,,,,,,,,,,,,15,,,,,,,,,,,,,,450.5479999910458,,response,,,,7,D,,,,,,Space,keypress(Space),,,,silence,,,,---- --------- ---------- - --- ------- -- --- ------------<br>----- -- -------- ------- ---- ------ - -------- ---- -----<br>--- ------- ---- -- --- -------- --- - ----- ------ ---- --<br>maintain --- -------- -------- --- -------- ---- -- ----- -<br>-------- ---- --- ---------- --------- -- ------- ------ -<br>--------- ----- -----,363552.39999999106,363550.89999999106,363083.755,363087.09999999404,363100.352,363566.772,,31,maintain
screen,html.Screen,2_3_1_0_1_32,2022-02-17T13:09:16.189Z,,,,,,,,,,,,,,,,,15,,,,,,,,,,,,,,403.1279999910621,,response,,,,7,D,,,,,,Space,keypress(Space),,,,silence,,,,---- --------- ---------- - --- ------- -- --- ------------<br>----- -- -------- ------- ---- ------ - -------- ---- -----<br>--- ------- ---- -- --- -------- --- - ----- ------ ---- --<br>-------- his -------- -------- --- -------- ---- -- ----- -<br>-------- ---- --- ---------- --------- -- ------- ------ -<br>--------- ----- -----,363971,363969.89999999106,363550.177,363552.700000003,363566.772,363983.227,,32,his
screen,html.Screen,2_3_1_0_1_33,2022-02-17T13:09:16.849Z,,,,,,,,,,,,,,,,,15,,,,,,,,,,,,,,646.7729999999865,,response,,,,7,D,,,,,,Space,keypress(Space),,,,silence,,,,---- --------- ---------- - --- ------- -- --- ------------<br>----- -- -------- ------- ---- ------ - -------- ---- -----<br>--- ------- ---- -- --- -------- --- - ----- ------ ---- --<br>-------- --- silence. -------- --- -------- ---- -- ----- -<br>-------- ---- --- ---------- --------- -- ------- ------ -<br>--------- ----- -----,364631.299999997,364630,363966.608,363971.39999999106,363983.227,364649.999,,33,silence.
screen,html.Screen,2_3_1_0_1_34,2022-02-17T13:09:17.382Z,,,,,,,,,,,,,,,,,15,,,,,,,,,,,,,,513.4009999910486,,response,,,,7,D,,,,,,Space,keypress(Space),,,,silence,,,,---- --------- ---------- - --- ------- -- --- ------------<br>----- -- -------- ------- ---- ------ - -------- ---- -----<br>--- ------- ---- -- --- -------- --- - ----- ------ ---- --<br>-------- --- -------- Anderson --- -------- ---- -- ----- -<br>-------- ---- --- ---------- --------- -- ------- ------ -<br>--------- ----- -----,365164.89999999106,365163.39999999106,364616.309,364631.59999999404,364649.999,365192.63,,34,Anderson
screen,html.Screen,2_3_1_0_1_35,2022-02-17T13:09:17.858Z,,,,,,,,,,,,,,,,,15,,,,,,,,,,,,,,447.0700000029756,,response,,,,7,D,,,,,,Space,keypress(Space),,,,silence,,,,---- --------- ---------- - --- ------- -- --- ------------<br>----- -- -------- ------- ---- ------ - -------- ---- -----<br>--- ------- ---- -- --- -------- --- - ----- ------ ---- --<br>-------- --- -------- -------- was -------- ---- -- ----- -<br>-------- ---- --- ---------- --------- -- ------- ------ -<br>--------- ----- -----,365640.89999999106,365639.700000003,365149.326,365165.200000003,365192.63,365648.988,,35,was
screen,html.Screen,2_3_1_0_1_36,2022-02-17T13:09:18.236Z,,,,,,,,,,,,,,,,,15,,,,,,,,,,,,,,367.81199999700766,,response,,,,7,D,,,,,,Space,keypress(Space),,,,silence,,,,---- --------- ---------- - --- ------- -- --- ------------<br>----- -- -------- ------- ---- ------ - -------- ---- -----<br>--- ------- ---- -- --- -------- --- - ----- ------ ---- --<br>-------- --- -------- -------- --- released ---- -- ----- -<br>-------- ---- --- ---------- --------- -- ------- ------ -<br>--------- ----- -----,366018.5,366016.799999997,365632.605,365641.09999999404,365648.988,366032.084,,36,released
screen,html.Screen,2_3_1_0_1_37,2022-02-17T13:09:18.863Z,,,,,,,,,,,,,,,,,15,,,,,,,,,,,,,,612.4160000000265,,response,,,,7,D,,,,,,Space,keypress(Space),,,,silence,,,,---- --------- ---------- - --- ------- -- --- ------------<br>----- -- -------- ------- ---- ------ - -------- ---- -----<br>--- ------- ---- -- --- -------- --- - ----- ------ ---- --<br>-------- --- -------- -------- --- -------- July -- ----- -<br>-------- ---- --- ---------- --------- -- ------- ------ -<br>--------- ----- -----,366645.89999999106,366644.5,366015.507,366018.799999997,366032.084,366648.566,,37,July
screen,html.Screen,2_3_1_0_1_38,2022-02-17T13:09:19.424Z,,,,,,,,,,,,,,,,,15,,,,,,,,,,,,,,556.7339999970281,,response,,,,7,D,,,,,,Space,keypress(Space),,,,silence,,,,---- --------- ---------- - --- ------- -- --- ------------<br>----- -- -------- ------- ---- ------ - -------- ---- -----<br>--- ------- ---- -- --- -------- --- - ----- ------ ---- --<br>-------- --- -------- -------- --- -------- ---- 20 ----- -<br>-------- ---- --- ---------- --------- -- ------- ------ -<br>--------- ----- -----,367206.799999997,367205.299999997,366631.888,366646.09999999404,366648.566,367214.95,,38,20
screen,html.Screen,2_3_1_0_1_39,2022-02-17T13:09:20.274Z,,,,,,,,,,,,,,,,,15,,,,,,,,,,,,,,840.1499999940279,,response,,,,7,D,,,,,,Space,keypress(Space),,,,silence,,,,---- --------- ---------- - --- ------- -- --- ------------<br>----- -- -------- ------- ---- ------ - -------- ---- -----<br>--- ------- ---- -- --- -------- --- - ----- ------ ---- --<br>-------- --- -------- -------- --- -------- ---- -- after -<br>-------- ---- --- ---------- --------- -- ------- ------ -<br>--------- ----- -----,368056.299999997,368055.09999999404,367198.265,367207,367214.95,368064.365,,39,after
screen,html.Screen,2_3_1_0_1_40,2022-02-17T13:09:20.835Z,,,,,,,,,,,,,,,,,15,,,,,,,,,,,,,,551.5349999910686,,response,,,,7,D,,,,,,Space,keypress(Space),,,,silence,,,,---- --------- ---------- - --- ------- -- --- ------------<br>----- -- -------- ------- ---- ------ - -------- ---- -----<br>--- ------- ---- -- --- -------- --- - ----- ------ ---- --<br>-------- --- -------- -------- --- -------- ---- -- ----- a<br>-------- ---- --- ---------- --------- -- ------- ------ -<br>--------- ----- -----,368617.5,368615.89999999106,368048.065,368056.59999999404,368064.365,368630.818,,40,a
