sender,sender_type,sender_id,timestamp,meta,,Blues,Classical,Country,Dance,Electronic,Folk,Gospel,Hip-Hop,Jazz,Latin,Musical/Film,New-age,Pop,Prolific_id,Provo_ID,R&B,Rap,Reggae,Religious,Rock,Soul,Swing,Traditional,age,artist_name,correct,correctResponse,distraction,duration,education,ended_on,familiarity,gender,headphone_check_performance,item,list,music_frequency,offensiveness,pleasantness,position_correct,preference,response,response_action,snippet_file,song_name,song_rating,sound,stimulus_1,stimulus_2,stimulus_3,text,time_commit,time_end,time_render,time_run,time_show,time_switch,url,word,word_ID
Prolific ID,html.Form,0,2022-02-21T11:41:45.424Z,"{""labjs_version"":""20.2.2"",""labjs_build"":{""flavor"":""production"",""commit"":""a25486e0c714a0ae2ce03ff94b7bb6896854dcfa""},""location"":""https://run.pavlovia.org/mvasilev/prolific2_music_b/"",""userAgent"":""Mozilla/5.0 (Windows NT 10.0; Win64; x64) AppleWebKit/537.36 (KHTML, like Gecko) Chrome/98.0.4758.82 Safari/537.36"",""platform"":""Win32"",""language"":""en-GB"",""locale"":""en-GB"",""timeZone"":""Europe/London"",""timezoneOffset"":0,""screen_width"":1280,""screen_height"":720,""scroll_width"":876,""scroll_height"":559,""window_innerWidth"":876,""window_innerHeight"":559,""devicePixelRatio"":1.5}",,,,,,,,,,,,,,,5c1ac1c637dd01000114e36a,,,,,,,,,,,,,,,5259.712000023841,,form submission,,,,,,,,,,,,,,,,,,,,,14461.600000023842,14461.100000023842,9167.972,8098.100000023842,9201.388,14482.89,{},,
Introduction,html.Screen,1_0,2022-02-21T11:41:49.306Z,,,,,,,,,,,,,,,,,,,,,,,,,,,,,,,3856.7100000238424,,response,,,,,,,,,,,continue,click button,,,,,,,,,18343.200000047684,18339.600000023842,14466.23,14461.899999976158,14482.89,18364.986,,,
Volume calibration,html.Screen,1_1,2022-02-21T11:42:01.845Z,,,,,,,,,,,,,,,,,,,,,,,,,,,,,,,12510.813999952315,,response,,,,,,,,,,,continue,click button,,,,,,,,,30882.399999976158,30875.799999952316,18348.28,18343.600000023842,18364.986,30894.173,,,
Task instructions,html.Screen,1_2,2022-02-21T11:42:06.080Z,,,,,,,,,,,,,,,,,,,,,,,,,,,,,,,4221.527000047685,,response,,,,,,,,,,,continue,click button,,,,,,,,,35117.799999952316,35115.700000047684,30877.474,30882.700000047684,30894.173,35142.547,,,
Sounds,html.Screen,1_3_0_0,2022-02-21T11:42:10.339Z,,,,,,,,,,,,,,,,,,,,,,,,,,,,,,,4248.563000000002,,timeout,,,,,,,,,1,,,,,,,,S,O,I,,39376.700000047684,39374.459,35126.316,35118.299999952316,35142.547,39391.11,,,
Judgement,html.Screen,1_3_0_1,2022-02-21T11:42:11.081Z,,,,,,,,,,,,,,,,,,,,,,,,,,,,true,1,,724.6899999523157,,response,,,,,,,,,1,,1,click #choice-1,,,,,S,O,I,,40118.700000047684,40115.799999952316,39374.459,39376.799999952316,39391.11,40140.852,,,
Trial,flow.Sequence,1_3_0,2022-02-21T11:42:11.082Z,,,,,,,,,,,,,,,,,,,,,,,,,,,,,,,4973.252999952318,,completion,,,,,,,,,1,,,,,,,,S,O,I,,40119.299999952316,40115.799999952316,35126.316,35118.200000047684,35142.547,40140.852,,,
Sounds,html.Screen,1_3_1_0,2022-02-21T11:42:15.337Z,,,,,,,,,,,,,,,,,,,,,,,,,,,,,,,4248.641000000003,,timeout,,,,,,,,,2,,,,,,,,I,S,O,,44374.39999997616,44372.864,40124.333,40119.60000002384,40140.852,44389.493,,,
Judgement,html.Screen,1_3_1_1,2022-02-21T11:42:15.809Z,,,,,,,,,,,,,,,,,,,,,,,,,,,,true,2,,453.90699997615593,,response,,,,,,,,,2,,2,click #choice-2,,,,,I,S,O,,44846.5,44843.39999997616,44372.864,44374.700000047684,44389.493,44872.887,,,
Trial,flow.Sequence,1_3_1,2022-02-21T11:42:15.809Z,,,,,,,,,,,,,,,,,,,,,,,,,,,,,,,4702.547999976159,,completion,,,,,,,,,2,,,,,,,,I,S,O,,44846.700000047684,44843.39999997616,40124.333,40119.5,40140.852,44872.887,,,
Sounds,html.Screen,1_3_2_0,2022-02-21T11:42:20.069Z,,,,,,,,,,,,,,,,,,,,,,,,,,,,,,,4248.3399999999965,,timeout,,,,,,,,,3,,,,,,,,O,I,S,,49106,49104.579,44855.977,44846.799999952316,44872.887,49121.227,,,
Judgement,html.Screen,1_3_2_1,2022-02-21T11:42:20.569Z,,,,,,,,,,,,,,,,,,,,,,,,,,,,true,3,,482.57299995231733,,response,,,,,,,,,3,,3,click #choice-3,,,,,O,I,S,,49606.700000047684,49603.799999952316,49104.579,49106.39999997616,49121.227,49621.069,,,
Trial,flow.Sequence,1_3_2,2022-02-21T11:42:20.570Z,,,,,,,,,,,,,,,,,,,,,,,,,,,,,,,4730.912999952314,,completion,,,,,,,,,3,,,,,,,,O,I,S,,49607.10000002384,49603.799999952316,44855.977,44846.799999952316,44872.887,49621.069,,,
Sounds,html.Screen,1_3_3_0,2022-02-21T11:42:24.817Z,,,,,,,,,,,,,,,,,,,,,,,,,,,,,,,4248.733,,timeout,,,,,,,,,3,,,,,,,,I,O,S,,53854.89999997616,53852.997,49604.358,49607.5,49621.069,53869.802,,,
Judgement,html.Screen,1_3_3_1,2022-02-21T11:42:25.249Z,,,,,,,,,,,,,,,,,,,,,,,,,,,,true,3,,413.99799995231297,,response,,,,,,,,,3,,3,click #choice-3,,,,,I,O,S,,54286.89999997616,54283.799999952316,53852.997,53855.10000002384,53869.802,54302.824,,,
Trial,flow.Sequence,1_3_3,2022-02-21T11:42:25.250Z,,,,,,,,,,,,,,,,,,,,,,,,,,,,,,,4662.730999952313,,completion,,,,,,,,,3,,,,,,,,I,O,S,,54287.299999952316,54283.799999952316,49604.358,49607.39999997616,49621.069,54302.824,,,
Sounds,html.Screen,1_3_4_0,2022-02-21T11:42:29.499Z,,,,,,,,,,,,,,,,,,,,,,,,,,,,,,,4248.485000000001,,timeout,,,,,,,,,2,,,,,,,,O,S,I,,58536.299999952316,58534.933,54286.108,54287.5,54302.824,58551.309,,,
Judgement,html.Screen,1_3_4_1,2022-02-21T11:42:29.887Z,,,,,,,,,,,,,,,,,,,,,,,,,,,,true,2,,371.79100002384075,,response,,,,,,,,,2,,2,click #choice-2,,,,,O,S,I,,58924.39999997616,58923.10000002384,58534.933,58536.5,58551.309,58951.139,,,
Trial,flow.Sequence,1_3_4,2022-02-21T11:42:29.887Z,,,,,,,,,,,,,,,,,,,,,,,,,,,,,,,4620.276000023841,,completion,,,,,,,,,2,,,,,,,,O,S,I,,58924.5,58923.10000002384,54286.108,54287.39999997616,54302.824,58951.139,,,
Sounds,html.Screen,1_3_5_0,2022-02-21T11:42:34.146Z,,,,,,,,,,,,,,,,,,,,,,,,,,,,,,,4248.555999999997,,timeout,,,,,,,,,1,,,,,,,,S,I,O,,63184,63183.033,58934.525,58924.700000047684,58951.139,63199.695,,,
Judgement,html.Screen,1_3_5_1,2022-02-21T11:42:34.585Z,,,,,,,,,,,,,,,,,,,,,,,,,,,,true,1,,420.3050000000003,,response,,,,,,,,,1,,1,click #choice-1,,,,,S,I,O,,63622.700000047684,63620,63183.033,63184.10000002384,63199.695,63649.928,,,
Trial,flow.Sequence,1_3_5,2022-02-21T11:42:34.585Z,,,,,,,,,,,,,,,,,,,,,,,,,,,,,,,4668.860999999997,,completion,,,,,,,,,1,,,,,,,,S,I,O,,63623.200000047684,63620,58934.525,58924.700000047684,58951.139,63649.928,,,
Task,flow.Loop,1_3,2022-02-21T11:42:34.592Z,,,,,,,,,,,,,,,,,,,,,,,,,,,,,,,28477.453,,completion,,,1,,,,,,,,,,,,,,,,,,63629.39999997616,63620,35126.316,35118.10000002384,35142.547,63649.928,,,
Trap,html.Screen,1_4,2022-02-21T11:42:34.593Z,,,,,,,,,,,,,,,,,,,,,,,,,,,,,,,NaN,,skipped,,,,,,,,,,,,,,,,,,,,,63630.299999952316,63620,,63630.299999952316,,63649.928,,,
Thanks,html.Screen,1_5,2022-02-21T11:42:36.711Z,,,,,,,,,,,,,,,,,,,,,,,,,,,,,,,2097.4719999761583,,response,,,,,,,,,,,continue,click button,,,,,,,,,65748.89999997616,65747.39999997616,63632.944,63630.39999997616,63649.928,69114.349,,,
Headphone screening,flow.Sequence,1,2022-02-21T11:42:36.711Z,,,,,,,,,,,,,,,,,,,,,,,,,,,,,,,51264.50999997616,,completion,,,,,,,,,,,,,,,,,,,,,65749.10000002384,65747.39999997616,14466.23,14461.799999952316,14482.89,69114.349,,,
Instructions,html.Page,2_0,2022-02-21T11:42:47.555Z,,,,,,,,,,,,,,,,,,,,,,,,,,,,,,,7477.75100002384,,form submission,,,,,,,,,,,,,,,,,,,,,76593,76592.10000002384,69081.025,69117.29999995232,69114.349,76611.908,,,
Holding screen,html.Screen,2_1_0_0,2022-02-21T11:42:57.555Z,,,,,,,,,,,,,,,,,,,,,,,,,,,,,,,9997.694000000003,,timeout,,,,,,,,,,,,,,,,,,,,,86593,86591.863,76595.134,76593.29999995232,76611.908,86609.602,,,
screen,html.Screen,2_1_0_1_0,2022-02-21T11:42:58.602Z,,,,,,,,,,,,,,,,,53,,,,,,,,,,,,,,1026.2979999761592,,response,,,,99,,,,,,,Space,keypress(Space),,,,,,,,When -- ----- -- ------ - ------- --- ----------<br>------------- ------ ------ ---- ---- ------- ----- -- ----<br>-------- ------- -- ---------- --- - --- ----- ----- ----<br>---- --- --- ----- --- ---- ---- ------- ----- ---- -------<br>--- --- -- ----- -- --- ---- -- --- ---- -- ------ ------<br>--- ----- -- ----,87639.89999997616,87635.89999997616,86591.863,86593.29999995232,86609.602,87658.399,,0,When
screen,html.Screen,2_1_0_1_1,2022-02-21T11:42:59.030Z,,,,,,,,,,,,,,,,,53,,,,,,,,,,,,,,407.8010000476788,,response,,,,99,,,,,,,Space,keypress(Space),,,,,,,,---- it ----- -- ------ - ------- --- ----------<br>------------- ------ ------ ---- ---- ------- ----- -- ----<br>-------- ------- -- ---------- --- - --- ----- ----- ----<br>---- --- --- ----- --- ---- ---- ------- ----- ---- -------<br>--- --- -- ----- -- --- ---- -- --- ---- -- ------ ------<br>--- ----- -- ----,88067.29999995232,88066.20000004768,87641.459,87640.20000004768,87658.399,88091.406,,1,it
screen,html.Screen,2_1_0_1_2,2022-02-21T11:42:59.380Z,,,,,,,,,,,,,,,,,53,,,,,,,,,,,,,,324.6940000238392,,response,,,,99,,,,,,,Space,keypress(Space),,,,,,,,---- -- comes -- ------ - ------- --- ----------<br>------------- ------ ------ ---- ---- ------- ----- -- ----<br>-------- ------- -- ---------- --- - --- ----- ----- ----<br>---- --- --- ----- --- ---- ---- ------- ----- ---- -------<br>--- --- -- ----- -- --- ---- -- --- ---- -- ------ ------<br>--- ----- -- ----,88417.29999995232,88416.10000002384,88074.883,88067.5,88091.406,88441.249,,2,comes
screen,html.Screen,2_1_0_1_3,2022-02-21T11:42:59.711Z,,,,,,,,,,,,,,,,,53,,,,,,,,,,,,,,306.5509999523201,,response,,,,99,,,,,,,Space,keypress(Space),,,,,,,,---- -- ----- to ------ - ------- --- ----------<br>------------- ------ ------ ---- ---- ------- ----- -- ----<br>-------- ------- -- ---------- --- - --- ----- ----- ----<br>---- --- --- ----- --- ---- ---- ------- ----- ---- -------<br>--- --- -- ----- -- --- ---- -- --- ---- -- ------ ------<br>--- ----- -- ----,88749,88747.79999995232,88424.807,88417.5,88441.249,88774.568,,3,to
screen,html.Screen,2_1_0_1_4,2022-02-21T11:43:00.106Z,,,,,,,,,,,,,,,,,53,,,,,,,,,,,,,,368.53200002384256,,response,,,,99,,,,,,,Space,keypress(Space),,,,,,,,---- -- ----- -- having - ------- --- ----------<br>------------- ------ ------ ---- ---- ------- ----- -- ----<br>-------- ------- -- ---------- --- - --- ----- ----- ----<br>---- --- --- ----- --- ---- ---- ------- ----- ---- -------<br>--- --- -- ----- -- --- ---- -- --- ---- -- ------ ------<br>--- ----- -- ----,89143.79999995232,89143.10000002384,88758.105,88749.20000004768,88774.568,89174.293,,4,having
screen,html.Screen,2_1_0_1_5,2022-02-21T11:43:00.459Z,,,,,,,,,,,,,,,,,53,,,,,,,,,,,,,,321.2069999999949,,response,,,,99,,,,,,,Space,keypress(Space),,,,,,,,---- -- ----- -- ------ a ------- --- ----------<br>------------- ------ ------ ---- ---- ------- ----- -- ----<br>-------- ------- -- ---------- --- - --- ----- ----- ----<br>---- --- --- ----- --- ---- ---- ------- ----- ---- -------<br>--- --- -- ----- -- --- ---- -- --- ---- -- ------ ------<br>--- ----- -- ----,89496.29999995232,89495.5,89157.651,89143.89999997616,89174.293,89524.7,,5,a
screen,html.Screen,2_1_0_1_6,2022-02-21T11:43:00.808Z,,,,,,,,,,,,,,,,,53,,,,,,,,,,,,,,318.5000000476866,,response,,,,99,,,,,,,Space,keypress(Space),,,,,,,,---- -- ----- -- ------ - lasting --- ----------<br>------------- ------ ------ ---- ---- ------- ----- -- ----<br>-------- ------- -- ---------- --- - --- ----- ----- ----<br>---- --- --- ----- --- ---- ---- ------- ----- ---- -------<br>--- --- -- ----- -- --- ---- -- --- ---- -- ------ ------<br>--- ----- -- ----,89845.60000002384,89843.20000004768,89507.64,89496.5,89524.7,89874.179,,6,lasting
screen,html.Screen,2_1_0_1_7,2022-02-21T11:43:01.226Z,,,,,,,,,,,,,,,,,53,,,,,,,,,,,,,,388.3209999999963,,response,,,,99,,,,,,,Space,keypress(Space),,,,,,,,---- -- ----- -- ------ - ------- and ----------<br>------------- ------ ------ ---- ---- ------- ----- -- ----<br>-------- ------- -- ---------- --- - --- ----- ----- ----<br>---- --- --- ----- --- ---- ---- ------- ----- ---- -------<br>--- --- -- ----- -- --- ---- -- --- ---- -- ------ ------<br>--- ----- -- ----,90263.39999997616,90262.5,89857.74,89845.70000004768,89874.179,90290.548,,7,and
screen,html.Screen,2_1_0_1_8,2022-02-21T11:43:01.546Z,,,,,,,,,,,,,,,,,53,,,,,,,,,,,,,,291.8519999761629,,response,,,,99,,,,,,,Space,keypress(Space),,,,,,,,---- -- ----- -- ------ - ------- --- fulfilling<br>------------- ------ ------ ---- ---- ------- ----- -- ----<br>-------- ------- -- ---------- --- - --- ----- ----- ----<br>---- --- --- ----- --- ---- ---- ------- ----- ---- -------<br>--- --- -- ----- -- --- ---- -- --- ---- -- ------ ------<br>--- ----- -- ----,90583.79999995232,90582.39999997616,90273.973,90263.39999997616,90290.548,90607.459,,8,fulfilling
screen,html.Screen,2_1_0_1_9,2022-02-21T11:43:02.062Z,,,,,,,,,,,,,,,,,53,,,,,,,,,,,,,,490.9409999761556,,response,,,,99,,,,,,,Space,keypress(Space),,,,,,,,"---- -- ----- -- ------ - ------- --- ----------<br>relationship, ------ ------ ---- ---- ------- ----- -- ----<br>-------- ------- -- ---------- --- - --- ----- ----- ----<br>---- --- --- ----- --- ---- ---- ------- ----- ---- -------<br>--- --- -- ----- -- --- ---- -- --- ---- -- ------ ------<br>--- ----- -- ----",91099.79999995232,91098.39999997616,90590.799,90584,90607.459,91123.868,,9,"relationship,"
screen,html.Screen,2_1_0_1_10,2022-02-21T11:43:02.470Z,,,,,,,,,,,,,,,,,53,,,,,,,,,,,,,,381.9319999523141,,response,,,,99,,,,,,,Space,keypress(Space),,,,,,,,---- -- ----- -- ------ - ------- --- ----------<br>------------- common ------ ---- ---- ------- ----- -- ----<br>-------- ------- -- ---------- --- - --- ----- ----- ----<br>---- --- --- ----- --- ---- ---- ------- ----- ---- -------<br>--- --- -- ----- -- --- ---- -- --- ---- -- ------ ------<br>--- ----- -- ----,91507.5,91505.79999995232,91107.199,91100,91123.868,91523.754,,10,common
screen,html.Screen,2_1_0_1_11,2022-02-21T11:43:02.945Z,,,,,,,,,,,,,,,,,53,,,,,,,,,,,,,,457.84600002384104,,response,,,,99,,,,,,,Space,keypress(Space),,,,,,,,---- -- ----- -- ------ - ------- --- ----------<br>------------- ------ wisdom ---- ---- ------- ----- -- ----<br>-------- ------- -- ---------- --- - --- ----- ----- ----<br>---- --- --- ----- --- ---- ---- ------- ----- ---- -------<br>--- --- -- ----- -- --- ---- -- --- ---- -- ------ ------<br>--- ----- -- ----,91982.79999995232,91981.60000002384,91506.796,91507.60000002384,91523.754,92006.924,,11,wisdom
screen,html.Screen,2_1_0_1_12,2022-02-21T11:43:03.339Z,,,,,,,,,,,,,,,,,53,,,,,,,,,,,,,,368.57600000000093,,response,,,,99,,,,,,,Space,keypress(Space),,,,,,,,---- -- ----- -- ------ - ------- --- ----------<br>------------- ------ ------ says ---- ------- ----- -- ----<br>-------- ------- -- ---------- --- - --- ----- ----- ----<br>---- --- --- ----- --- ---- ---- ------- ----- ---- -------<br>--- --- -- ----- -- --- ---- -- --- ---- -- ------ ------<br>--- ----- -- ----,92376.79999995232,92375.5,91990.259,91983,92006.924,92406.759,,12,says
screen,html.Screen,2_1_0_1_13,2022-02-21T11:43:03.665Z,,,,,,,,,,,,,,,,,53,,,,,,,,,,,,,,295.0409999523108,,response,,,,99,,,,,,,Space,keypress(Space),,,,,,,,---- -- ----- -- ------ - ------- --- ----------<br>------------- ------ ------ ---- that ------- ----- -- ----<br>-------- ------- -- ---------- --- - --- ----- ----- ----<br>---- --- --- ----- --- ---- ---- ------- ----- ---- -------<br>--- --- -- ----- -- --- ---- -- --- ---- -- ------ ------<br>--- ----- -- ----,92702.89999997616,92701.79999995232,92389.958,92377,92406.759,92723.196,,13,that
screen,html.Screen,2_1_0_1_14,2022-02-21T11:43:03.934Z,,,,,,,,,,,,,,,,,53,,,,,,,,,,,,,,247.10399995232,,response,,,,99,,,,,,,Space,keypress(Space),,,,,,,,---- -- ----- -- ------ - ------- --- ----------<br>------------- ------ ------ ---- ---- feeling ----- -- ----<br>-------- ------- -- ---------- --- - --- ----- ----- ----<br>---- --- --- ----- --- ---- ---- ------- ----- ---- -------<br>--- --- -- ----- -- --- ---- -- --- ---- -- ------ ------<br>--- ----- -- ----,92971.39999997616,92970.29999995232,92706.442,92703.10000002384,92723.196,92989.768,,14,feeling
screen,html.Screen,2_1_0_1_15,2022-02-21T11:43:04.398Z,,,,,,,,,,,,,,,,,53,,,,,,,,,,,,,,444.4320000476873,,response,,,,99,,,,,,,Space,keypress(Space),,,,,,,,---- -- ----- -- ------ - ------- --- ----------<br>------------- ------ ------ ---- ---- ------- close -- ----<br>-------- ------- -- ---------- --- - --- ----- ----- ----<br>---- --- --- ----- --- ---- ---- ------- ----- ---- -------<br>--- --- -- ----- -- --- ---- -- --- ---- -- ------ ------<br>--- ----- -- ----,93435.20000004768,93434.20000004768,92973.005,92971.70000004768,92989.768,93456.374,,15,close
screen,html.Screen,2_1_0_1_16,2022-02-21T11:43:04.759Z,,,,,,,,,,,,,,,,,53,,,,,,,,,,,,,,339.525999976162,,response,,,,99,,,,,,,Space,keypress(Space),,,,,,,,---- -- ----- -- ------ - ------- --- ----------<br>------------- ------ ------ ---- ---- ------- ----- to ----<br>-------- ------- -- ---------- --- - --- ----- ----- ----<br>---- --- --- ----- --- ---- ---- ------- ----- ---- -------<br>--- --- -- ----- -- --- ---- -- --- ---- -- ------ ------<br>--- ----- -- ----,93797,93795.89999997616,93439.72,93435.39999997616,93456.374,93822.975,,16,to
screen,html.Screen,2_1_0_1_17,2022-02-21T11:43:05.047Z,,,,,,,,,,,,,,,,,53,,,,,,,,,,,,,,260.82499995231046,,response,,,,99,,,,,,,Space,keypress(Space),,,,,,,,---- -- ----- -- ------ - ------- --- ----------<br>------------- ------ ------ ---- ---- ------- ----- -- your<br>-------- ------- -- ---------- --- - --- ----- ----- ----<br>---- --- --- ----- --- ---- ---- ------- ----- ---- -------<br>--- --- -- ----- -- --- ---- -- --- ---- -- ------ ------<br>--- ----- -- ----,94084.79999995232,94083.79999995232,93806.065,93797.29999995232,93822.975,94106.025,,17,your
screen,html.Screen,2_1_0_1_18,2022-02-21T11:43:05.505Z,,,,,,,,,,,,,,,,,53,,,,,,,,,,,,,,435.87499997616396,,response,,,,99,,,,,,,Space,keypress(Space),,,,,,,,---- -- ----- -- ------ - ------- --- ----------<br>------------- ------ ------ ---- ---- ------- ----- -- ----<br>romantic ------- -- ---------- --- - --- ----- ----- ----<br>---- --- --- ----- --- ---- ---- ------- ----- ---- -------<br>--- --- -- ----- -- --- ---- -- --- ---- -- ------ ------<br>--- ----- -- ----,94543.10000002384,94541.89999997616,94089.224,94085.10000002384,94106.025,94572.628,,18,romantic
screen,html.Screen,2_1_0_1_19,2022-02-21T11:43:05.827Z,,,,,,,,,,,,,,,,,53,,,,,,,,,,,,,,290.6719999523193,,response,,,,99,,,,,,,Space,keypress(Space),,,,,,,,---- -- ----- -- ------ - ------- --- ----------<br>------------- ------ ------ ---- ---- ------- ----- -- ----<br>-------- partner -- ---------- --- - --- ----- ----- ----<br>---- --- --- ----- --- ---- ---- ------- ----- ---- -------<br>--- --- -- ----- -- --- ---- -- --- ---- -- ------ ------<br>--- ----- -- ----,94864.39999997616,94863.29999995232,94556.018,94543.20000004768,94572.628,94889.351,,19,partner
screen,html.Screen,2_1_0_1_20,2022-02-21T11:43:06.144Z,,,,,,,,,,,,,,,,,53,,,,,,,,,,,,,,291.04899997616303,,response,,,,99,,,,,,,Space,keypress(Space),,,,,,,,---- -- ----- -- ------ - ------- --- ----------<br>------------- ------ ------ ---- ---- ------- ----- -- ----<br>-------- ------- is ---------- --- - --- ----- ----- ----<br>---- --- --- ----- --- ---- ---- ------- ----- ---- -------<br>--- --- -- ----- -- --- ---- -- --- ---- -- ------ ------<br>--- ----- -- ----,95181.39999997616,95180.39999997616,94872.391,94864.5,94889.351,95205.703,,20,is
screen,html.Screen,2_1_0_1_21,2022-02-21T11:43:06.471Z,,,,,,,,,,,,,,,,,53,,,,,,,,,,,,,,301.99700004768965,,response,,,,99,,,,,,,Space,keypress(Space),,,,,,,,---- -- ----- -- ------ - ------- --- ----------<br>------------- ------ ------ ---- ---- ------- ----- -- ----<br>-------- ------- -- paramount. --- - --- ----- ----- ----<br>---- --- --- ----- --- ---- ---- ------- ----- ---- -------<br>--- --- -- ----- -- --- ---- -- --- ---- -- ------ ------<br>--- ----- -- ----,95508.79999995232,95507.70000004768,95189.265,95181.60000002384,95205.703,95538.805,,21,paramount.
screen,html.Screen,2_1_0_1_22,2022-02-21T11:43:07.000Z,,,,,,,,,,,,,,,,,53,,,,,,,,,,,,,,498.195000000007,,response,,,,99,,,,,,,Space,keypress(Space),,,,,,,,---- -- ----- -- ------ - ------- --- ----------<br>------------- ------ ------ ---- ---- ------- ----- -- ----<br>-------- ------- -- ---------- But - --- ----- ----- ----<br>---- --- --- ----- --- ---- ---- ------- ----- ---- -------<br>--- --- -- ----- -- --- ---- -- --- ---- -- ------ ------<br>--- ----- -- ----,96038.20000004768,96037,95522.129,95509,95538.805,96055.597,,22,But
screen,html.Screen,2_1_0_1_23,2022-02-21T11:43:07.309Z,,,,,,,,,,,,,,,,,53,,,,,,,,,,,,,,289.702999952322,,response,,,,99,,,,,,,Space,keypress(Space),,,,,,,,---- -- ----- -- ------ - ------- --- ----------<br>------------- ------ ------ ---- ---- ------- ----- -- ----<br>-------- ------- -- ---------- --- a --- ----- ----- ----<br>---- --- --- ----- --- ---- ---- ------- ----- ---- -------<br>--- --- -- ----- -- --- ---- -- --- ---- -- ------ ------<br>--- ----- -- ----,96346.60000002384,96345.29999995232,96038.606,96038.39999997616,96055.597,96371.926,,23,a
screen,html.Screen,2_1_0_1_24,2022-02-21T11:43:07.617Z,,,,,,,,,,,,,,,,,53,,,,,,,,,,,,,,281.1740000238351,,response,,,,99,,,,,,,Space,keypress(Space),,,,,,,,---- -- ----- -- ------ - ------- --- ----------<br>------------- ------ ------ ---- ---- ------- ----- -- ----<br>-------- ------- -- ---------- --- - new ----- ----- ----<br>---- --- --- ----- --- ---- ---- ------- ----- ---- -------<br>--- --- -- ----- -- --- ---- -- --- ---- -- ------ ------<br>--- ----- -- ----,96654.39999997616,96653.10000002384,96355.148,96346.70000004768,96371.926,96671.933,,24,new
screen,html.Screen,2_1_0_1_25,2022-02-21T11:43:07.877Z,,,,,,,,,,,,,,,,,53,,,,,,,,,,,,,,241.56699999999546,,response,,,,99,,,,,,,Space,keypress(Space),,,,,,,,---- -- ----- -- ------ - ------- --- ----------<br>------------- ------ ------ ---- ---- ------- ----- -- ----<br>-------- ------- -- ---------- --- - --- study ----- ----<br>---- --- --- ----- --- ---- ---- ------- ----- ---- -------<br>--- --- -- ----- -- --- ---- -- --- ---- -- ------ ------<br>--- ----- -- ----,96914.70000004768,96913.5,96655.092,96654.70000004768,96671.933,96938.659,,25,study
screen,html.Screen,2_1_0_1_26,2022-02-21T11:43:08.243Z,,,,,,,,,,,,,,,,,53,,,,,,,,,,,,,,340.7409999761585,,response,,,,99,,,,,,,Space,keypress(Space),,,,,,,,---- -- ----- -- ------ - ------- --- ----------<br>------------- ------ ------ ---- ---- ------- ----- -- ----<br>-------- ------- -- ---------- --- - --- ----- finds ----<br>---- --- --- ----- --- ---- ---- ------- ----- ---- -------<br>--- --- -- ----- -- --- ---- -- --- ---- -- ------ ------<br>--- ----- -- ----,97280.60000002384,97279.39999997616,96921.698,96914.79999995232,96938.659,97305.07,,26,finds
screen,html.Screen,2_1_0_1_27,2022-02-21T11:43:08.675Z,,,,,,,,,,,,,,,,,53,,,,,,,,,,,,,,407.2299999523093,,response,,,,99,,,,,,,Space,keypress(Space),,,,,,,,---- -- ----- -- ------ - ------- --- ----------<br>------------- ------ ------ ---- ---- ------- ----- -- ----<br>-------- ------- -- ---------- --- - --- ----- ----- that<br>---- --- --- ----- --- ---- ---- ------- ----- ---- -------<br>--- --- -- ----- -- --- ---- -- --- ---- -- ------ ------<br>--- ----- -- ----,97713.10000002384,97712.29999995232,97288.207,97280.79999995232,97305.07,97738.261,,27,that
screen,html.Screen,2_1_0_1_28,2022-02-21T11:43:09.296Z,,,,,,,,,,,,,,,,,53,,,,,,,,,,,,,,594.2390000000014,,response,,,,99,,,,,,,Space,keypress(Space),,,,,,,,---- -- ----- -- ------ - ------- --- ----------<br>------------- ------ ------ ---- ---- ------- ----- -- ----<br>-------- ------- -- ---------- --- - --- ----- ----- ----<br>it's --- --- ----- --- ---- ---- ------- ----- ---- -------<br>--- --- -- ----- -- --- ---- -- --- ---- -- ------ ------<br>--- ----- -- ----,98333.5,98332.5,97721.852,97713.29999995232,97738.261,98354.688,,28,it's
screen,html.Screen,2_1_0_1_29,2022-02-21T11:43:09.663Z,,,,,,,,,,,,,,,,,53,,,,,,,,,,,,,,344.51200004768907,,response,,,,99,,,,,,,Space,keypress(Space),,,,,,,,---- -- ----- -- ------ - ------- --- ----------<br>------------- ------ ------ ---- ---- ------- ----- -- ----<br>-------- ------- -- ---------- --- - --- ----- ----- ----<br>---- not --- ----- --- ---- ---- ------- ----- ---- -------<br>--- --- -- ----- -- --- ---- -- --- ---- -- ------ ------<br>--- ----- -- ----,98700.29999995232,98699.20000004768,98337.974,98333.79999995232,98354.688,98721.368,,29,not
screen,html.Screen,2_1_0_1_30,2022-02-21T11:43:10.284Z,,,,,,,,,,,,,,,,,53,,,,,,,,,,,,,,598.5319999761559,,response,,,,99,,,,,,,Space,keypress(Space),,,,,,,,---- -- ----- -- ------ - ------- --- ----------<br>------------- ------ ------ ---- ---- ------- ----- -- ----<br>-------- ------- -- ---------- --- - --- ----- ----- ----<br>---- --- how ----- --- ---- ---- ------- ----- ---- -------<br>--- --- -- ----- -- --- ---- -- --- ---- -- ------ ------<br>--- ----- -- ----,99321.29999995232,99319.89999997616,98704.402,98700.5,98721.368,99337.941,,30,how
screen,html.Screen,2_1_0_1_31,2022-02-21T11:43:10.784Z,,,,,,,,,,,,,,,,,53,,,,,,,,,,,,,,481.8589999523101,,response,,,,99,,,,,,,Space,keypress(Space),,,,,,,,---- -- ----- -- ------ - ------- --- ----------<br>------------- ------ ------ ---- ---- ------- ----- -- ----<br>-------- ------- -- ---------- --- - --- ----- ----- ----<br>---- --- --- close --- ---- ---- ------- ----- ---- -------<br>--- --- -- ----- -- --- ---- -- --- ---- -- ------ ------<br>--- ----- -- ----,99821.29999995232,99819.79999995232,99320.791,99321.5,99337.941,99837.47,,31,close
screen,html.Screen,2_1_0_1_32,2022-02-21T11:43:11.320Z,,,,,,,,,,,,,,,,,53,,,,,,,,,,,,,,519.3299999523151,,response,,,,99,,,,,,,Space,keypress(Space),,,,,,,,---- -- ----- -- ------ - ------- --- ----------<br>------------- ------ ------ ---- ---- ------- ----- -- ----<br>-------- ------- -- ---------- --- - --- ----- ----- ----<br>---- --- --- ----- you ---- ---- ------- ----- ---- -------<br>--- --- -- ----- -- --- ---- -- --- ---- -- ------ ------<br>--- ----- -- ----,100357.89999997616,100356.79999995232,99820.663,99821.5,99837.47,100387.386,,32,you
screen,html.Screen,2_1_0_1_33,2022-02-21T11:43:11.634Z,,,,,,,,,,,,,,,,,53,,,,,,,,,,,,,,283.21400002384325,,response,,,,99,,,,,,,Space,keypress(Space),,,,,,,,---- -- ----- -- ------ - ------- --- ----------<br>------------- ------ ------ ---- ---- ------- ----- -- ----<br>-------- ------- -- ---------- --- - --- ----- ----- ----<br>---- --- --- ----- --- feel ---- ------- ----- ---- -------<br>--- --- -- ----- -- --- ---- -- --- ---- -- ------ ------<br>--- ----- -- ----,100672,100670.60000002384,100370.57,100358.10000002384,100387.386,100687.434,,33,feel
screen,html.Screen,2_1_0_1_34,2022-02-21T11:43:11.974Z,,,,,,,,,,,,,,,,,53,,,,,,,,,,,,,,322.9659999761643,,response,,,,99,,,,,,,Space,keypress(Space),,,,,,,,---- -- ----- -- ------ - ------- --- ----------<br>------------- ------ ------ ---- ---- ------- ----- -- ----<br>-------- ------- -- ---------- --- - --- ----- ----- ----<br>---- --- --- ----- --- ---- that ------- ----- ---- -------<br>--- --- -- ----- -- --- ---- -- --- ---- -- ------ ------<br>--- ----- -- ----,101011.60000002384,101010.39999997616,100670.475,100672.29999995232,100687.434,101037.249,,34,that
screen,html.Screen,2_1_0_1_35,2022-02-21T11:43:12.285Z,,,,,,,,,,,,,,,,,53,,,,,,,,,,,,,,284.5509999523201,,response,,,,99,,,,,,,Space,keypress(Space),,,,,,,,---- -- ----- -- ------ - ------- --- ----------<br>------------- ------ ------ ---- ---- ------- ----- -- ----<br>-------- ------- -- ---------- --- - --- ----- ----- ----<br>---- --- --- ----- --- ---- ---- matters ----- ---- -------<br>--- --- -- ----- -- --- ---- -- --- ---- -- ------ ------<br>--- ----- -- ----,101323,101321.79999995232,101020.336,101011.89999997616,101037.249,101353.594,,35,matters
screen,html.Screen,2_1_0_1_36,2022-02-21T11:43:12.868Z,,,,,,,,,,,,,,,,,53,,,,,,,,,,,,,,550.705999952319,,response,,,,99,,,,,,,Space,keypress(Space),,,,,,,,"---- -- ----- -- ------ - ------- --- ----------<br>------------- ------ ------ ---- ---- ------- ----- -- ----<br>-------- ------- -- ---------- --- - --- ----- ----- ----<br>---- --- --- ----- --- ---- ---- ------- most, ---- -------<br>--- --- -- ----- -- --- ---- -- --- ---- -- ------ ------<br>--- ----- -- ----",101905.5,101904.29999995232,101336.806,101323.29999995232,101353.594,101936.901,,36,"most,"
screen,html.Screen,2_1_0_1_37,2022-02-21T11:43:13.320Z,,,,,,,,,,,,,,,,,53,,,,,,,,,,,,,,419.2990000476857,,response,,,,99,,,,,,,Space,keypress(Space),,,,,,,,---- -- ----- -- ------ - ------- --- ----------<br>------------- ------ ------ ---- ---- ------- ----- -- ----<br>-------- ------- -- ---------- --- - --- ----- ----- ----<br>---- --- --- ----- --- ---- ---- ------- ----- it's -------<br>--- --- -- ----- -- --- ---- -- --- ---- -- ------ ------<br>--- ----- -- ----,102357.39999997616,102356.20000004768,101920.059,101905.60000002384,101936.901,102386.712,,37,it's
screen,html.Screen,2_1_0_1_38,2022-02-21T11:43:13.588Z,,,,,,,,,,,,,,,,,53,,,,,,,,,,,,,,238.08799995231675,,response,,,,99,,,,,,,Space,keypress(Space),,,,,,,,---- -- ----- -- ------ - ------- --- ----------<br>------------- ------ ------ ---- ---- ------- ----- -- ----<br>-------- ------- -- ---------- --- - --- ----- ----- ----<br>---- --- --- ----- --- ---- ---- ------- ----- ---- whether<br>--- --- -- ----- -- --- ---- -- --- ---- -- ------ ------<br>--- ----- -- ----,102625.89999997616,102624.79999995232,102369.892,102357.70000004768,102386.712,102653.428,,38,whether
screen,html.Screen,2_1_0_1_39,2022-02-21T11:43:14.077Z,,,,,,,,,,,,,,,,,53,,,,,,,,,,,,,,460.27200004768383,,response,,,,99,,,,,,,Space,keypress(Space),,,,,,,,---- -- ----- -- ------ - ------- --- ----------<br>------------- ------ ------ ---- ---- ------- ----- -- ----<br>-------- ------- -- ---------- --- - --- ----- ----- ----<br>---- --- --- ----- --- ---- ---- ------- ----- ---- -------<br>you --- -- ----- -- --- ---- -- --- ---- -- ------ ------<br>--- ----- -- ----,103115,103113.70000004768,102636.376,102626.10000002384,102653.428,103136.35,,39,you
screen,html.Screen,2_1_0_1_40,2022-02-21T11:43:14.359Z,,,,,,,,,,,,,,,,,53,,,,,,,,,,,,,,259.1499999999942,,response,,,,99,,,,,,,Space,keypress(Space),,,,,,,,---- -- ----- -- ------ - ------- --- ----------<br>------------- ------ ------ ---- ---- ------- ----- -- ----<br>-------- ------- -- ---------- --- - --- ----- ----- ----<br>---- --- --- ----- --- ---- ---- ------- ----- ---- -------<br>--- are -- ----- -- --- ---- -- --- ---- -- ------ ------<br>--- ----- -- ----,103396.60000002384,103395.5,103119.561,103115.20000004768,103136.35,103419.545,,40,are
screen,html.Screen,2_1_0_1_41,2022-02-21T11:43:14.601Z,,,,,,,,,,,,,,,,,53,,,,,,,,,,,,,,217.8549999761599,,response,,,,99,,,,,,,Space,keypress(Space),,,,,,,,---- -- ----- -- ------ - ------- --- ----------<br>------------- ------ ------ ---- ---- ------- ----- -- ----<br>-------- ------- -- ---------- --- - --- ----- ----- ----<br>---- --- --- ----- --- ---- ---- ------- ----- ---- -------<br>--- --- as ----- -- --- ---- -- --- ---- -- ------ ------<br>--- ----- -- ----,103638.5,103637.39999997616,103402.808,103396.79999995232,103419.545,103669.619,,41,as
screen,html.Screen,2_1_0_1_42,2022-02-21T11:43:15.011Z,,,,,,,,,,,,,,,,,53,,,,,,,,,,,,,,377.9810000238358,,response,,,,99,,,,,,,Space,keypress(Space),,,,,,,,---- -- ----- -- ------ - ------- --- ----------<br>------------- ------ ------ ---- ---- ------- ----- -- ----<br>-------- ------- -- ---------- --- - --- ----- ----- ----<br>---- --- --- ----- --- ---- ---- ------- ----- ---- -------<br>--- --- -- close -- --- ---- -- --- ---- -- ------ ------<br>--- ----- -- ----,104048.79999995232,104047.60000002384,103652.805,103638.70000004768,103669.619,104069.275,,42,close
screen,html.Screen,2_1_0_1_43,2022-02-21T11:43:15.291Z,,,,,,,,,,,,,,,,,53,,,,,,,,,,,,,,258.62499997616396,,response,,,,99,,,,,,,Space,keypress(Space),,,,,,,,---- -- ----- -- ------ - ------- --- ----------<br>------------- ------ ------ ---- ---- ------- ----- -- ----<br>-------- ------- -- ---------- --- - --- ----- ----- ----<br>---- --- --- ----- --- ---- ---- ------- ----- ---- -------<br>--- --- -- ----- as --- ---- -- --- ---- -- ------ ------<br>--- ----- -- ----,104329,104327.89999997616,104052.6,104048.89999997616,104069.275,104352.555,,43,as
screen,html.Screen,2_1_0_1_44,2022-02-21T11:43:15.674Z,,,,,,,,,,,,,,,,,53,,,,,,,,,,,,,,358.6450000476907,,response,,,,99,,,,,,,Space,keypress(Space),,,,,,,,---- -- ----- -- ------ - ------- --- ----------<br>------------- ------ ------ ---- ---- ------- ----- -- ----<br>-------- ------- -- ---------- --- - --- ----- ----- ----<br>---- --- --- ----- --- ---- ---- ------- ----- ---- -------<br>--- --- -- ----- -- you ---- -- --- ---- -- ------ ------<br>--- ----- -- ----,104712,104711.20000004768,104336.271,104329.29999995232,104352.555,104735.969,,44,you
screen,html.Screen,2_1_0_1_45,2022-02-21T11:43:16.061Z,,,,,,,,,,,,,,,,,53,,,,,,,,,,,,,,361.7310000476864,,response,,,,99,,,,,,,Space,keypress(Space),,,,,,,,---- -- ----- -- ------ - ------- --- ----------<br>------------- ------ ------ ---- ---- ------- ----- -- ----<br>-------- ------- -- ---------- --- - --- ----- ----- ----<br>---- --- --- ----- --- ---- ---- ------- ----- ---- -------<br>--- --- -- ----- -- --- want -- --- ---- -- ------ ------<br>--- ----- -- ----,105098.89999997616,105097.70000004768,104719.19,104712.10000002384,104735.969,105119.291,,45,want
screen,html.Screen,2_1_0_1_46,2022-02-21T11:43:16.400Z,,,,,,,,,,,,,,,,,53,,,,,,,,,,,,,,316.8090000238444,,response,,,,99,,,,,,,Space,keypress(Space),,,,,,,,---- -- ----- -- ------ - ------- --- ----------<br>------------- ------ ------ ---- ---- ------- ----- -- ----<br>-------- ------- -- ---------- --- - --- ----- ----- ----<br>---- --- --- ----- --- ---- ---- ------- ----- ---- -------<br>--- --- -- ----- -- --- ---- to --- ---- -- ------ ------<br>--- ----- -- ----,105437.29999995232,105436.10000002384,105102.271,105099.10000002384,105119.291,105468.872,,46,to
screen,html.Screen,2_1_0_1_47,2022-02-21T11:43:16.633Z,,,,,,,,,,,,,,,,,53,,,,,,,,,,,,,,200.62799999999697,,response,,,,99,,,,,,,Space,keypress(Space),,,,,,,,"---- -- ----- -- ------ - ------- --- ----------<br>------------- ------ ------ ---- ---- ------- ----- -- ----<br>-------- ------- -- ---------- --- - --- ----- ----- ----<br>---- --- --- ----- --- ---- ---- ------- ----- ---- -------<br>--- --- -- ----- -- --- ---- -- be, ---- -- ------ ------<br>--- ----- -- ----",105670.5,105669.5,105452.442,105437.5,105468.872,105702.221,,47,"be,"
screen,html.Screen,2_1_0_1_48,2022-02-21T11:43:16.869Z,,,,,,,,,,,,,,,,,53,,,,,,,,,,,,,,203.4790000476787,,response,,,,99,,,,,,,Space,keypress(Space),,,,,,,,---- -- ----- -- ------ - ------- --- ----------<br>------------- ------ ------ ---- ---- ------- ----- -- ----<br>-------- ------- -- ---------- --- - --- ----- ----- ----<br>---- --- --- ----- --- ---- ---- ------- ----- ---- -------<br>--- --- -- ----- -- --- ---- -- --- even -- ------ ------<br>--- ----- -- ----,105906.60000002384,105905.70000004768,105685.409,105670.70000004768,105702.221,105935.326,,48,even
screen,html.Screen,2_1_0_1_49,2022-02-21T11:43:17.206Z,,,,,,,,,,,,,,,,,53,,,,,,,,,,,,,,306.17399999999907,,response,,,,99,,,,,,,Space,keypress(Space),,,,,,,,---- -- ----- -- ------ - ------- --- ----------<br>------------- ------ ------ ---- ---- ------- ----- -- ----<br>-------- ------- -- ---------- --- - --- ----- ----- ----<br>---- --- --- ----- --- ---- ---- ------- ----- ---- -------<br>--- --- -- ----- -- --- ---- -- --- ---- if ------ ------<br>--- ----- -- ----,106243.89999997616,106241.5,105918.655,105906.79999995232,105935.326,106268.754,,49,if
screen,html.Screen,2_1_0_1_50,2022-02-21T11:43:17.494Z,,,,,,,,,,,,,,,,,53,,,,,,,,,,,,,,262.2459999999992,,response,,,,99,,,,,,,Space,keypress(Space),,,,,,,,---- -- ----- -- ------ - ------- --- ----------<br>------------- ------ ------ ---- ---- ------- ----- -- ----<br>-------- ------- -- ---------- --- - --- ----- ----- ----<br>---- --- --- ----- --- ---- ---- ------- ----- ---- -------<br>--- --- -- ----- -- --- ---- -- --- ---- -- that's ------<br>--- ----- -- ----,106532,106531,106251.98,106244.10000002384,106268.754,106551.893,,50,that's
screen,html.Screen,2_1_0_1_51,2022-02-21T11:43:17.728Z,,,,,,,,,,,,,,,,,53,,,,,,,,,,,,,,213.20700002384547,,response,,,,99,,,,,,,Space,keypress(Space),,,,,,,,---- -- ----- -- ------ - ------- --- ----------<br>------------- ------ ------ ---- ---- ------- ----- -- ----<br>-------- ------- -- ---------- --- - --- ----- ----- ----<br>---- --- --- ----- --- ---- ---- ------- ----- ---- -------<br>--- --- -- ----- -- --- ---- -- --- ---- -- ------ really<br>--- ----- -- ----,106766.20000004768,106765.10000002384,106535.12,106532.20000004768,106551.893,106785.217,,51,really
screen,html.Screen,2_1_0_1_52,2022-02-21T11:43:18.223Z,,,,,,,,,,,,,,,,,53,,,,,,,,,,,,,,473.88300002383767,,response,,,,99,,,,,,,Space,keypress(Space),,,,,,,,---- -- ----- -- ------ - ------- --- ----------<br>------------- ------ ------ ---- ---- ------- ----- -- ----<br>-------- ------- -- ---------- --- - --- ----- ----- ----<br>---- --- --- ----- --- ---- ---- ------- ----- ---- -------<br>--- --- -- ----- -- --- ---- -- --- ---- -- ------ ------<br>not ----- -- ----,107260.29999995232,107259.10000002384,106768.318,106766.39999997616,106785.217,107285.26,,52,not
screen,html.Screen,2_1_0_1_53,2022-02-21T11:43:18.461Z,,,,,,,,,,,,,,,,,53,,,,,,,,,,,,,,212.13999997616338,,response,,,,99,,,,,,,Space,keypress(Space),,,,,,,,---- -- ----- -- ------ - ------- --- ----------<br>------------- ------ ------ ---- ---- ------- ----- -- ----<br>-------- ------- -- ---------- --- - --- ----- ----- ----<br>---- --- --- ----- --- ---- ---- ------- ----- ---- -------<br>--- --- -- ----- -- --- ---- -- --- ---- -- ------ ------<br>--- close -- ----,107498.60000002384,107497.39999997616,107268.127,107260.5,107285.26,107518.196,,53,close
screen,html.Screen,2_1_0_1_54,2022-02-21T11:43:18.863Z,,,,,,,,,,,,,,,,,53,,,,,,,,,,,,,,381.70399997616187,,response,,,,99,,,,,,,Space,keypress(Space),,,,,,,,---- -- ----- -- ------ - ------- --- ----------<br>------------- ------ ------ ---- ---- ------- ----- -- ----<br>-------- ------- -- ---------- --- - --- ----- ----- ----<br>---- --- --- ----- --- ---- ---- ------- ----- ---- -------<br>--- --- -- ----- -- --- ---- -- --- ---- -- ------ ------<br>--- ----- at ----,107900.70000004768,107899.89999997616,107501.637,107498.79999995232,107518.196,107918.175,,54,at
screen,html.Screen,2_1_0_1_55,2022-02-21T11:43:19.314Z,,,,,,,,,,,,,,,,,53,,,,,,,,,,,,,,432.42500002383895,,response,,,,99,,,,,,,Space,keypress(Space),,,,,,,,---- -- ----- -- ------ - ------- --- ----------<br>------------- ------ ------ ---- ---- ------- ----- -- ----<br>-------- ------- -- ---------- --- - --- ----- ----- ----<br>---- --- --- ----- --- ---- ---- ------- ----- ---- -------<br>--- --- -- ----- -- --- ---- -- --- ---- -- ------ ------<br>--- ----- -- all.,108351.89999997616,108350.60000002384,107901.211,107900.89999997616,107918.175,108367.743,,55,all.
Item 99,flow.Loop,2_1_0_1,2022-02-21T11:43:19.315Z,,,,,,,,,,,,,,,,,,,,,,,,,,,,,,,21740.998000023843,,completion,,,,,B,,,,,,,,,,,silence,,,,,108352.29999995232,108350.60000002384,86591.863,86593.29999995232,86609.602,108367.743,,,
Question 1,html.Screen,2_1_0_2,2022-02-21T11:43:25.250Z,,,,,,,,,,,,,,,,,,,,,,,,,,,,true,FALSE,,5916.9570000476815,,response,,,,99,B,,,,,,FALSE,click #choice-2,,,,silence,,,,,114287.5,114284.70000004768,108351.094,108352.5,108367.743,114315.998,,,
Question 2,html.Screen,2_1_0_3,2022-02-21T11:43:27.968Z,,,,,,,,,,,,,,,,,,,,,,,,,,,,true,TRUE,,2687.702000047677,,response,,,,99,B,,,,,,TRUE,click #choice-1,,,,silence,,,,,117006.20000004768,117003.70000004768,114299.135,114287.70000004768,114315.998,117031.855,,,
Item 99,flow.Sequence,2_1_0,2022-02-21T11:43:27.969Z,,,,,,,,,,,,,,,,,,,,,,,,,,,,,,,40391.79200004769,,completion,,,,,,,,,,,,,,,,,,,,,117006.5,117003.70000004768,76595.134,76593.20000004768,76611.908,117031.855,,,
Holding screen,html.Screen,2_1_1_0,2022-02-21T11:43:37.979Z,,,,,,,,,,,,,,,,,,,,,,,,,,,,,,,9996.252000000008,,timeout,,,,,,,,,,,,,,,,,,,,,127015.70000004768,127011.507,117014.812,117006.79999995232,117031.855,127028.107,,,
screen,html.Screen,2_1_1_1_0,2022-02-21T11:43:38.907Z,,,,,,,,,,,,,,,,,54,,,,,,,,,,,,,,914.6929999523127,,response,,,,100,,,,,,,Space,keypress(Space),,,,,,,,At --- ---- --- ------ ----- ------- ---- -- --- ------- --<br>------- ---------- ------ -- ----- -- ----- -- ---- ------<br>--- ----- --- --- ------ -------- ----- --- ------ ----- --<br>----- ----- ---------- --- --- ------ ------ ---- -- ------<br>------- --- ------ ----- --- ---- ------- -- ---- --- --<br>------- ------,127944,127942.79999995232,127011.507,127015.89999997616,127028.107,127961.3,,0,At
screen,html.Screen,2_1_1_1_1,2022-02-21T11:43:39.285Z,,,,,,,,,,,,,,,,,54,,,,,,,,,,,,,,360.09999997615523,,response,,,,100,,,,,,,Space,keypress(Space),,,,,,,,-- the ---- --- ------ ----- ------- ---- -- --- ------- --<br>------- ---------- ------ -- ----- -- ----- -- ---- ------<br>--- ----- --- --- ------ -------- ----- --- ------ ----- --<br>----- ----- ---------- --- --- ------ ------ ---- -- ------<br>------- --- ------ ----- --- ---- ------- -- ---- --- --<br>------- ------,128322.60000002384,128321.39999997616,127944.49,127944.29999995232,127961.3,128344.552,,1,the
screen,html.Screen,2_1_1_1_2,2022-02-21T11:43:39.567Z,,,,,,,,,,,,,,,,,54,,,,,,,,,,,,,,258.24799995232024,,response,,,,100,,,,,,,Space,keypress(Space),,,,,,,,-- --- time --- ------ ----- ------- ---- -- --- ------- --<br>------- ---------- ------ -- ----- -- ----- -- ---- ------<br>--- ----- --- --- ------ -------- ----- --- ------ ----- --<br>----- ----- ---------- --- --- ------ ------ ---- -- ------<br>------- --- ------ ----- --- ---- ------- -- ---- --- --<br>------- ------,128604.10000002384,128602.79999995232,128327.796,128322.79999995232,128344.552,128628.069,,2,time
screen,html.Screen,2_1_1_1_3,2022-02-21T11:43:39.810Z,,,,,,,,,,,,,,,,,54,,,,,,,,,,,,,,218.53100002383871,,response,,,,100,,,,,,,Space,keypress(Space),,,,,,,,-- --- ---- the ------ ----- ------- ---- -- --- ------- --<br>------- ---------- ------ -- ----- -- ----- -- ---- ------<br>--- ----- --- --- ------ -------- ----- --- ------ ----- --<br>----- ----- ---------- --- --- ------ ------ ---- -- ------<br>------- --- ------ ----- --- ---- ------- -- ---- --- --<br>------- ------,128847.39999997616,128846.60000002384,128610.95,128604.20000004768,128628.069,128877.766,,3,the
screen,html.Screen,2_1_1_1_4,2022-02-21T11:43:40.128Z,,,,,,,,,,,,,,,,,54,,,,,,,,,,,,,,285.93400004768046,,response,,,,100,,,,,,,Space,keypress(Space),,,,,,,,-- --- ---- --- French ----- ------- ---- -- --- ------- --<br>------- ---------- ------ -- ----- -- ----- -- ---- ------<br>--- ----- --- --- ------ -------- ----- --- ------ ----- --<br>----- ----- ---------- --- --- ------ ------ ---- -- ------<br>------- --- ------ ----- --- ---- ------- -- ---- --- --<br>------- ------,129164.79999995232,129163.70000004768,128860.989,128847.5,128877.766,129194.101,,4,French
screen,html.Screen,2_1_1_1_5,2022-02-21T11:43:40.443Z,,,,,,,,,,,,,,,,,54,,,,,,,,,,,,,,284.99900002384675,,response,,,,100,,,,,,,Space,keypress(Space),,,,,,,,-- --- ---- --- ------ crown ------- ---- -- --- ------- --<br>------- ---------- ------ -- ----- -- ----- -- ---- ------<br>--- ----- --- --- ------ -------- ----- --- ------ ----- --<br>----- ----- ---------- --- --- ------ ------ ---- -- ------<br>------- --- ------ ----- --- ---- ------- -- ---- --- --<br>------- ------,129480.29999995232,129479.10000002384,129177.701,129165,129194.101,129510.798,,5,crown
screen,html.Screen,2_1_1_1_6,2022-02-21T11:43:40.708Z,,,,,,,,,,,,,,,,,54,,,,,,,,,,,,,,232.9020000476885,,response,,,,100,,,,,,,Space,keypress(Space),,,,,,,,-- --- ---- --- ------ ----- secured ---- -- --- ------- --<br>------- ---------- ------ -- ----- -- ----- -- ---- ------<br>--- ----- --- --- ------ -------- ----- --- ------ ----- --<br>----- ----- ---------- --- --- ------ ------ ---- -- ------<br>------- --- ------ ----- --- ---- ------- -- ---- --- --<br>------- ------,129745,129743.70000004768,129494.088,129480.5,129510.798,129760.754,,6,secured
screen,html.Screen,2_1_1_1_7,2022-02-21T11:43:41.285Z,,,,,,,,,,,,,,,,,54,,,,,,,,,,,,,,560.2459999999992,,response,,,,100,,,,,,,Space,keypress(Space),,,,,,,,-- --- ---- --- ------ ----- ------- much -- --- ------- --<br>------- ---------- ------ -- ----- -- ----- -- ---- ------<br>--- ----- --- --- ------ -------- ----- --- ------ ----- --<br>----- ----- ---------- --- --- ------ ------ ---- -- ------<br>------- --- ------ ----- --- ---- ------- -- ---- --- --<br>------- ------,130322.10000002384,130321,129743.895,129745.20000004768,129760.754,130343.987,,7,much
screen,html.Screen,2_1_1_1_8,2022-02-21T11:43:41.743Z,,,,,,,,,,,,,,,,,54,,,,,,,,,,,,,,435.0130000000063,,response,,,,100,,,,,,,Space,keypress(Space),,,,,,,,-- --- ---- --- ------ ----- ------- ---- of --- ------- --<br>------- ---------- ------ -- ----- -- ----- -- ---- ------<br>--- ----- --- --- ------ -------- ----- --- ------ ----- --<br>----- ----- ---------- --- --- ------ ------ ---- -- ------<br>------- --- ------ ----- --- ---- ------- -- ---- --- --<br>------- ------,130780.29999995232,130779,130327.291,130322.29999995232,130343.987,130810.423,,8,of
screen,html.Screen,2_1_1_1_9,2022-02-21T11:43:42.190Z,,,,,,,,,,,,,,,,,54,,,,,,,,,,,,,,415.17700002384663,,response,,,,100,,,,,,,Space,keypress(Space),,,,,,,,-- --- ---- --- ------ ----- ------- ---- -- its ------- --<br>------- ---------- ------ -- ----- -- ----- -- ---- ------<br>--- ----- --- --- ------ -------- ----- --- ------ ----- --<br>----- ----- ---------- --- --- ------ ------ ---- -- ------<br>------- --- ------ ----- --- ---- ------- -- ---- --- --<br>------- ------,131226.89999997616,131225.60000002384,130793.481,130780.5,130810.423,131243.37,,9,its
screen,html.Screen,2_1_1_1_10,2022-02-21T11:43:42.607Z,,,,,,,,,,,,,,,,,54,,,,,,,,,,,,,,399.2300000238465,,response,,,,100,,,,,,,Space,keypress(Space),,,,,,,,-- --- ---- --- ------ ----- ------- ---- -- --- revenue --<br>------- ---------- ------ -- ----- -- ----- -- ---- ------<br>--- ----- --- --- ------ -------- ----- --- ------ ----- --<br>----- ----- ---------- --- --- ------ ------ ---- -- ------<br>------- --- ------ ----- --- ---- ------- -- ---- --- --<br>------- ------,131644.10000002384,131642.60000002384,131226.65,131227.20000004768,131243.37,131660.063,,10,revenue
screen,html.Screen,2_1_1_1_11,2022-02-21T11:43:43.163Z,,,,,,,,,,,,,,,,,54,,,,,,,,,,,,,,538.8369999761635,,response,,,,100,,,,,,,Space,keypress(Space),,,,,,,,-- --- ---- --- ------ ----- ------- ---- -- --- ------- by<br>------- ---------- ------ -- ----- -- ----- -- ---- ------<br>--- ----- --- --- ------ -------- ----- --- ------ ----- --<br>----- ----- ---------- --- --- ------ ------ ---- -- ------<br>------- --- ------ ----- --- ---- ------- -- ---- --- --<br>------- ------,132200.10000002384,132198.89999997616,131643.201,131644.29999995232,131660.063,132226.523,,11,by
screen,html.Screen,2_1_1_1_12,2022-02-21T11:43:43.598Z,,,,,,,,,,,,,,,,,54,,,,,,,,,,,,,,407.4770000000135,,response,,,,100,,,,,,,Space,keypress(Space),,,,,,,,-- --- ---- --- ------ ----- ------- ---- -- --- ------- --<br>issuing ---------- ------ -- ----- -- ----- -- ---- ------<br>--- ----- --- --- ------ -------- ----- --- ------ ----- --<br>----- ----- ---------- --- --- ------ ------ ---- -- ------<br>------- --- ------ ----- --- ---- ------- -- ---- --- --<br>------- ------,132635,132634,132210.138,132200.20000004768,132226.523,132659.81,,12,issuing
screen,html.Screen,2_1_1_1_13,2022-02-21T11:43:44.051Z,,,,,,,,,,,,,,,,,54,,,,,,,,,,,,,,427.2900000238442,,response,,,,100,,,,,,,Space,keypress(Space),,,,,,,,-- --- ---- --- ------ ----- ------- ---- -- --- ------- --<br>------- government ------ -- ----- -- ----- -- ---- ------<br>--- ----- --- --- ------ -------- ----- --- ------ ----- --<br>----- ----- ---------- --- --- ------ ------ ---- -- ------<br>------- --- ------ ----- --- ---- ------- -- ---- --- --<br>------- ------,133088.29999995232,133087.10000002384,132642.948,132635.20000004768,132659.81,133109.722,,13,government
screen,html.Screen,2_1_1_1_14,2022-02-21T11:43:46.370Z,,,,,,,,,,,,,,,,,54,,,,,,,,,,,,,,2296.5779999523074,,response,,,,100,,,,,,,Space,keypress(Space),,,,,,,,-- --- ---- --- ------ ----- ------- ---- -- --- ------- --<br>------- ---------- bonds. -- ----- -- ----- -- ---- ------<br>--- ----- --- --- ------ -------- ----- --- ------ ----- --<br>----- ----- ---------- --- --- ------ ------ ---- -- ------<br>------- --- ------ ----- --- ---- ------- -- ---- --- --<br>------- ------,135407.10000002384,135406.29999995232,133092.722,133088.60000002384,133109.722,135425.595,,14,bonds.
screen,html.Screen,2_1_1_1_15,2022-02-21T11:43:46.758Z,,,,,,,,,,,,,,,,,54,,,,,,,,,,,,,,368.304999976157,,response,,,,100,,,,,,,Space,keypress(Space),,,,,,,,-- --- ---- --- ------ ----- ------- ---- -- --- ------- --<br>------- ---------- ------ In ----- -- ----- -- ---- ------<br>--- ----- --- --- ------ -------- ----- --- ------ ----- --<br>----- ----- ---------- --- --- ------ ------ ---- -- ------<br>------- --- ------ ----- --- ---- ------- -- ---- --- --<br>------- ------,135795,135793.89999997616,135408.715,135407.20000004768,135425.595,135825.697,,15,In
screen,html.Screen,2_1_1_1_16,2022-02-21T11:43:47.030Z,,,,,,,,,,,,,,,,,54,,,,,,,,,,,,,,240.20299997617258,,response,,,,100,,,,,,,Space,keypress(Space),,,,,,,,"-- --- ---- --- ------ ----- ------- ---- -- --- ------- --<br>------- ---------- ------ -- 1727, -- ----- -- ---- ------<br>--- ----- --- --- ------ -------- ----- --- ------ ----- --<br>----- ----- ---------- --- --- ------ ------ ---- -- ------<br>------- --- ------ ----- --- ---- ------- -- ---- --- --<br>------- ------",136067,136065.89999997616,135808.531,135795.29999995232,135825.697,136092.002,,16,"1727,"
screen,html.Screen,2_1_1_1_17,2022-02-21T11:43:47.640Z,,,,,,,,,,,,,,,,,54,,,,,,,,,,,,,,584.4979999999923,,response,,,,100,,,,,,,Space,keypress(Space),,,,,,,,-- --- ---- --- ------ ----- ------- ---- -- --- ------- --<br>------- ---------- ------ -- ----- in ----- -- ---- ------<br>--- ----- --- --- ------ -------- ----- --- ------ ----- --<br>----- ----- ---------- --- --- ------ ------ ---- -- ------<br>------- --- ------ ----- --- ---- ------- -- ---- --- --<br>------- ------,136677.60000002384,136676.5,136075.417,136067.29999995232,136092.002,136708.447,,17,in
screen,html.Screen,2_1_1_1_18,2022-02-21T11:43:48.044Z,,,,,,,,,,,,,,,,,54,,,,,,,,,,,,,,371.55300000001444,,response,,,,100,,,,,,,Space,keypress(Space),,,,,,,,-- --- ---- --- ------ ----- ------- ---- -- --- ------- --<br>------- ---------- ------ -- ----- -- order -- ---- ------<br>--- ----- --- --- ------ -------- ----- --- ------ ----- --<br>----- ----- ---------- --- --- ------ ------ ---- -- ------<br>------- --- ------ ----- --- ---- ------- -- ---- --- --<br>------- ------,137081.10000002384,137080,136691.596,136677.89999997616,136708.447,137108.505,,18,order
screen,html.Screen,2_1_1_1_19,2022-02-21T11:43:48.462Z,,,,,,,,,,,,,,,,,54,,,,,,,,,,,,,,389.2949999523116,,response,,,,100,,,,,,,Space,keypress(Space),,,,,,,,-- --- ---- --- ------ ----- ------- ---- -- --- ------- --<br>------- ---------- ------ -- ----- -- ----- to ---- ------<br>--- ----- --- --- ------ -------- ----- --- ------ ----- --<br>----- ----- ---------- --- --- ------ ------ ---- -- ------<br>------- --- ------ ----- --- ---- ------- -- ---- --- --<br>------- ------,137499,137497.79999995232,137091.393,137081.29999995232,137108.505,137524.868,,19,to
screen,html.Screen,2_1_1_1_20,2022-02-21T11:43:48.817Z,,,,,,,,,,,,,,,,,54,,,,,,,,,,,,,,328.13200000001234,,response,,,,100,,,,,,,Space,keypress(Space),,,,,,,,-- --- ---- --- ------ ----- ------- ---- -- --- ------- --<br>------- ---------- ------ -- ----- -- ----- -- save ------<br>--- ----- --- --- ------ -------- ----- --- ------ ----- --<br>----- ----- ---------- --- --- ------ ------ ---- -- ------<br>------- --- ------ ----- --- ---- ------- -- ---- --- --<br>------- ------,137854.39999997616,137853,137508.16,137499.20000004768,137524.868,137874.645,,20,save
screen,html.Screen,2_1_1_1_21,2022-02-21T11:43:49.363Z,,,,,,,,,,,,,,,,,54,,,,,,,,,,,,,,524.6549999523268,,response,,,,100,,,,,,,Space,keypress(Space),,,,,,,,"-- --- ---- --- ------ ----- ------- ---- -- --- ------- --<br>------- ---------- ------ -- ----- -- ----- -- ---- money,<br>--- ----- --- --- ------ -------- ----- --- ------ ----- --<br>----- ----- ---------- --- --- ------ ------ ---- -- ------<br>------- --- ------ ----- --- ---- ------- -- ---- --- --<br>------- ------",138400.5,138399.29999995232,137857.829,137854.60000002384,137874.645,138424.351,,21,"money,"
screen,html.Screen,2_1_1_1_22,2022-02-21T11:43:49.936Z,,,,,,,,,,,,,,,,,54,,,,,,,,,,,,,,548.1490000000049,,response,,,,100,,,,,,,Space,keypress(Space),,,,,,,,-- --- ---- --- ------ ----- ------- ---- -- --- ------- --<br>------- ---------- ------ -- ----- -- ----- -- ---- ------<br>the ----- --- --- ------ -------- ----- --- ------ ----- --<br>----- ----- ---------- --- --- ------ ------ ---- -- ------<br>------- --- ------ ----- --- ---- ------- -- ---- --- --<br>------- ------,138973.60000002384,138972.5,138407.872,138400.70000004768,138424.351,138990.965,,22,the
screen,html.Screen,2_1_1_1_23,2022-02-21T11:43:50.214Z,,,,,,,,,,,,,,,,,54,,,,,,,,,,,,,,260.13500002384535,,response,,,,100,,,,,,,Space,keypress(Space),,,,,,,,-- --- ---- --- ------ ----- ------- ---- -- --- ------- --<br>------- ---------- ------ -- ----- -- ----- -- ---- ------<br>--- state --- --- ------ -------- ----- --- ------ ----- --<br>----- ----- ---------- --- --- ------ ------ ---- -- ------<br>------- --- ------ ----- --- ---- ------- -- ---- --- --<br>------- ------,139251.70000004768,139251.10000002384,138974.059,138973.79999995232,138990.965,139274.33,,23,state
screen,html.Screen,2_1_1_1_24,2022-02-21T11:43:50.608Z,,,,,,,,,,,,,,,,,54,,,,,,,,,,,,,,369.1700000000128,,response,,,,100,,,,,,,Space,keypress(Space),,,,,,,,-- --- ---- --- ------ ----- ------- ---- -- --- ------- --<br>------- ---------- ------ -- ----- -- ----- -- ---- ------<br>--- ----- cut --- ------ -------- ----- --- ------ ----- --<br>----- ----- ---------- --- --- ------ ------ ---- -- ------<br>------- --- ------ ----- --- ---- ------- -- ---- --- --<br>------- ------,139644.79999995232,139643.5,139257.311,139251.79999995232,139274.33,139674.139,,24,cut
screen,html.Screen,2_1_1_1_25,2022-02-21T11:43:50.934Z,,,,,,,,,,,,,,,,,54,,,,,,,,,,,,,,296.06100004768814,,response,,,,100,,,,,,,Space,keypress(Space),,,,,,,,-- --- ---- --- ------ ----- ------- ---- -- --- ------- --<br>------- ---------- ------ -- ----- -- ----- -- ---- ------<br>--- ----- --- the ------ -------- ----- --- ------ ----- --<br>----- ----- ---------- --- --- ------ ------ ---- -- ------<br>------- --- ------ ----- --- ---- ------- -- ---- --- --<br>------- ------,139971.29999995232,139970.20000004768,139657.235,139645,139674.139,139990.643,,25,the
screen,html.Screen,2_1_1_1_26,2022-02-21T11:43:51.251Z,,,,,,,,,,,,,,,,,54,,,,,,,,,,,,,,296.4570000238309,,response,,,,100,,,,,,,Space,keypress(Space),,,,,,,,-- --- ---- --- ------ ----- ------- ---- -- --- ------- --<br>------- ---------- ------ -- ----- -- ----- -- ---- ------<br>--- ----- --- --- bonds' -------- ----- --- ------ ----- --<br>----- ----- ---------- --- --- ------ ------ ---- -- ------<br>------- --- ------ ----- --- ---- ------- -- ---- --- --<br>------- ------,140288.29999995232,140287.10000002384,139973.714,139971.60000002384,139990.643,140307.139,,26,bonds'
screen,html.Screen,2_1_1_1_27,2022-02-21T11:43:51.747Z,,,,,,,,,,,,,,,,,54,,,,,,,,,,,,,,476.1609999523207,,response,,,,100,,,,,,,Space,keypress(Space),,,,,,,,-- --- ---- --- ------ ----- ------- ---- -- --- ------- --<br>------- ---------- ------ -- ----- -- ----- -- ---- ------<br>--- ----- --- --- ------ interest ----- --- ------ ----- --<br>----- ----- ---------- --- --- ------ ------ ---- -- ------<br>------- --- ------ ----- --- ---- ------- -- ---- --- --<br>------- ------,140784.10000002384,140783.29999995232,140290.251,140288.5,140307.139,140807.208,,27,interest
screen,html.Screen,2_1_1_1_28,2022-02-21T11:43:52.167Z,,,,,,,,,,,,,,,,,54,,,,,,,,,,,,,,396.3920000238286,,response,,,,100,,,,,,,Space,keypress(Space),,,,,,,,-- --- ---- --- ------ ----- ------- ---- -- --- ------- --<br>------- ---------- ------ -- ----- -- ----- -- ---- ------<br>--- ----- --- --- ------ -------- rate. --- ------ ----- --<br>----- ----- ---------- --- --- ------ ------ ---- -- ------<br>------- --- ------ ----- --- ---- ------- -- ---- --- --<br>------- ------,141204.60000002384,141203.60000002384,140790.162,140784.20000004768,140807.208,141223.381,,28,rate.
screen,html.Screen,2_1_1_1_29,2022-02-21T11:43:53.561Z,,,,,,,,,,,,,,,,,54,,,,,,,,,,,,,,1373.719000023848,,response,,,,100,,,,,,,Space,keypress(Space),,,,,,,,-- --- ---- --- ------ ----- ------- ---- -- --- ------- --<br>------- ---------- ------ -- ----- -- ----- -- ---- ------<br>--- ----- --- --- ------ -------- ----- The ------ ----- --<br>----- ----- ---------- --- --- ------ ------ ---- -- ------<br>------- --- ------ ----- --- ---- ------- -- ---- --- --<br>------- ------,142598.29999995232,142597.10000002384,141206.612,141204.60000002384,141223.381,142623.028,,29,The
screen,html.Screen,2_1_1_1_30,2022-02-21T11:43:53.900Z,,,,,,,,,,,,,,,,,54,,,,,,,,,,,,,,313.27199995232513,,response,,,,100,,,,,,,Space,keypress(Space),,,,,,,,-- --- ---- --- ------ ----- ------- ---- -- --- ------- --<br>------- ---------- ------ -- ----- -- ----- -- ---- ------<br>--- ----- --- --- ------ -------- ----- --- market ----- --<br>----- ----- ---------- --- --- ------ ------ ---- -- ------<br>------- --- ------ ----- --- ---- ------- -- ---- --- --<br>------- ------,142937.5,142936.29999995232,142606.271,142598.5,142623.028,142956.478,,30,market
screen,html.Screen,2_1_1_1_31,2022-02-21T11:43:54.287Z,,,,,,,,,,,,,,,,,54,,,,,,,,,,,,,,366.42199997615535,,response,,,,100,,,,,,,Space,keypress(Space),,,,,,,,-- --- ---- --- ------ ----- ------- ---- -- --- ------- --<br>------- ---------- ------ -- ----- -- ----- -- ---- ------<br>--- ----- --- --- ------ -------- ----- --- ------ value --<br>----- ----- ---------- --- --- ------ ------ ---- -- ------<br>------- --- ------ ----- --- ---- ------- -- ---- --- --<br>------- ------,143323.89999997616,143322.89999997616,142939.378,142937.70000004768,142956.478,143339.374,,31,value
screen,html.Screen,2_1_1_1_32,2022-02-21T11:43:55.098Z,,,,,,,,,,,,,,,,,54,,,,,,,,,,,,,,794.7260000238311,,response,,,,100,,,,,,,Space,keypress(Space),,,,,,,,-- --- ---- --- ------ ----- ------- ---- -- --- ------- --<br>------- ---------- ------ -- ----- -- ----- -- ---- ------<br>--- ----- --- --- ------ -------- ----- --- ------ ----- of<br>----- ----- ---------- --- --- ------ ------ ---- -- ------<br>------- --- ------ ----- --- ---- ------- -- ---- --- --<br>------- ------,144135.39999997616,144134.10000002384,143322.625,143324.20000004768,143339.374,144155.781,,32,of
screen,html.Screen,2_1_1_1_33,2022-02-21T11:43:55.444Z,,,,,,,,,,,,,,,,,54,,,,,,,,,,,,,,324.4190000476956,,response,,,,100,,,,,,,Space,keypress(Space),,,,,,,,-- --- ---- --- ------ ----- ------- ---- -- --- ------- --<br>------- ---------- ------ -- ----- -- ----- -- ---- ------<br>--- ----- --- --- ------ -------- ----- --- ------ ----- --<br>these ----- ---------- --- --- ------ ------ ---- -- ------<br>------- --- ------ ----- --- ---- ------- -- ---- --- --<br>------- ------,144481.29999995232,144480.20000004768,144139.218,144135.70000004768,144155.781,144505.891,,33,these
screen,html.Screen,2_1_1_1_34,2022-02-21T11:43:55.766Z,,,,,,,,,,,,,,,,,54,,,,,,,,,,,,,,295.7090000238386,,response,,,,100,,,,,,,Space,keypress(Space),,,,,,,,-- --- ---- --- ------ ----- ------- ---- -- --- ------- --<br>------- ---------- ------ -- ----- -- ----- -- ---- ------<br>--- ----- --- --- ------ -------- ----- --- ------ ----- --<br>----- bonds ---------- --- --- ------ ------ ---- -- ------<br>------- --- ------ ----- --- ---- ------- -- ---- --- --<br>------- ------,144802.79999995232,144801.60000002384,144488.837,144481.5,144505.891,144822.05,,34,bonds
screen,html.Screen,2_1_1_1_35,2022-02-21T11:43:56.145Z,,,,,,,,,,,,,,,,,54,,,,,,,,,,,,,,359.3499999761698,,response,,,,100,,,,,,,Space,keypress(Space),,,,,,,,"-- --- ---- --- ------ ----- ------- ---- -- --- ------- --<br>------- ---------- ------ -- ----- -- ----- -- ---- ------<br>--- ----- --- --- ------ -------- ----- --- ------ ----- --<br>----- ----- plummeted, --- --- ------ ------ ---- -- ------<br>------- --- ------ ----- --- ---- ------- -- ---- --- --<br>------- ------",145182.60000002384,145181.39999997616,144805.414,144803,144822.05,145205.73,,35,"plummeted,"
screen,html.Screen,2_1_1_1_36,2022-02-21T11:43:56.625Z,,,,,,,,,,,,,,,,,54,,,,,,,,,,,,,,455.16999997614766,,response,,,,100,,,,,,,Space,keypress(Space),,,,,,,,-- --- ---- --- ------ ----- ------- ---- -- --- ------- --<br>------- ---------- ------ -- ----- -- ----- -- ---- ------<br>--- ----- --- --- ------ -------- ----- --- ------ ----- --<br>----- ----- ---------- and --- ------ ------ ---- -- ------<br>------- --- ------ ----- --- ---- ------- -- ---- --- --<br>------- ------,145662.10000002384,145660.89999997616,145188.613,145182.70000004768,145205.73,145688.602,,36,and
screen,html.Screen,2_1_1_1_37,2022-02-21T11:43:56.858Z,,,,,,,,,,,,,,,,,54,,,,,,,,,,,,,,205.49800002382835,,response,,,,100,,,,,,,Space,keypress(Space),,,,,,,,-- --- ---- --- ------ ----- ------- ---- -- --- ------- --<br>------- ---------- ------ -- ----- -- ----- -- ---- ------<br>--- ----- --- --- ------ -------- ----- --- ------ ----- --<br>----- ----- ---------- --- the ------ ------ ---- -- ------<br>------- --- ------ ----- --- ---- ------- -- ---- --- --<br>------- ------,145895.20000004768,145894.10000002384,145672.049,145662.29999995232,145688.602,145921.835,,37,the
screen,html.Screen,2_1_1_1_38,2022-02-21T11:43:57.118Z,,,,,,,,,,,,,,,,,54,,,,,,,,,,,,,,232.16500000000815,,response,,,,100,,,,,,,Space,keypress(Space),,,,,,,,-- --- ---- --- ------ ----- ------- ---- -- --- ------- --<br>------- ---------- ------ -- ----- -- ----- -- ---- ------<br>--- ----- --- --- ------ -------- ----- --- ------ ----- --<br>----- ----- ---------- --- --- market ------ ---- -- ------<br>------- --- ------ ----- --- ---- ------- -- ---- --- --<br>------- ------,146155.20000004768,146154,145905.082,145895.5,145921.835,146171.782,,38,market
screen,html.Screen,2_1_1_1_39,2022-02-21T11:43:57.589Z,,,,,,,,,,,,,,,,,54,,,,,,,,,,,,,,452.9180000476772,,response,,,,100,,,,,,,Space,keypress(Space),,,,,,,,-- --- ---- --- ------ ----- ------- ---- -- --- ------- --<br>------- ---------- ------ -- ----- -- ----- -- ---- ------<br>--- ----- --- --- ------ -------- ----- --- ------ ----- --<br>----- ----- ---------- --- --- ------ became ---- -- ------<br>------- --- ------ ----- --- ---- ------- -- ---- --- --<br>------- ------,146625.79999995232,146624.70000004768,146154.95,146155.39999997616,146171.782,146655.006,,39,became
screen,html.Screen,2_1_1_1_40,2022-02-21T11:43:57.870Z,,,,,,,,,,,,,,,,,54,,,,,,,,,,,,,,251.19400004768977,,response,,,,100,,,,,,,Space,keypress(Space),,,,,,,,-- --- ---- --- ------ ----- ------- ---- -- --- ------- --<br>------- ---------- ------ -- ----- -- ----- -- ---- ------<br>--- ----- --- --- ------ -------- ----- --- ------ ----- --<br>----- ----- ---------- --- --- ------ ------ wary -- ------<br>------- --- ------ ----- --- ---- ------- -- ---- --- --<br>------- ------,146907.20000004768,146906.20000004768,146638.521,146626,146655.006,146938.186,,40,wary
screen,html.Screen,2_1_1_1_41,2022-02-21T11:43:58.146Z,,,,,,,,,,,,,,,,,54,,,,,,,,,,,,,,244.01400004769675,,response,,,,100,,,,,,,Space,keypress(Space),,,,,,,,-- --- ---- --- ------ ----- ------- ---- -- --- ------- --<br>------- ---------- ------ -- ----- -- ----- -- ---- ------<br>--- ----- --- --- ------ -------- ----- --- ------ ----- --<br>----- ----- ---------- --- --- ------ ------ ---- of ------<br>------- --- ------ ----- --- ---- ------- -- ---- --- --<br>------- ------,147183.20000004768,147182.20000004768,146921.805,146907.5,146938.186,147204.744,,41,of
screen,html.Screen,2_1_1_1_42,2022-02-21T11:43:58.632Z,,,,,,,,,,,,,,,,,54,,,,,,,,,,,,,,462.95600004767766,,response,,,,100,,,,,,,Space,keypress(Space),,,,,,,,-- --- ---- --- ------ ----- ------- ---- -- --- ------- --<br>------- ---------- ------ -- ----- -- ----- -- ---- ------<br>--- ----- --- --- ------ -------- ----- --- ------ ----- --<br>----- ----- ---------- --- --- ------ ------ ---- -- French<br>------- --- ------ ----- --- ---- ------- -- ---- --- --<br>------- ------,147668.79999995232,147667.70000004768,147188.079,147183.39999997616,147204.744,147687.779,,42,French
screen,html.Screen,2_1_1_1_43,2022-02-21T11:43:59.012Z,,,,,,,,,,,,,,,,,54,,,,,,,,,,,,,,360.6209999761486,,response,,,,100,,,,,,,Space,keypress(Space),,,,,,,,-- --- ---- --- ------ ----- ------- ---- -- --- ------- --<br>------- ---------- ------ -- ----- -- ----- -- ---- ------<br>--- ----- --- --- ------ -------- ----- --- ------ ----- --<br>----- ----- ---------- --- --- ------ ------ ---- -- ------<br>credit. --- ------ ----- --- ---- ------- -- ---- --- --<br>------- ------,148049.5,148048.39999997616,147671.134,147669,147687.779,148071.154,,43,credit.
screen,html.Screen,2_1_1_1_44,2022-02-21T11:43:59.542Z,,,,,,,,,,,,,,,,,54,,,,,,,,,,,,,,507.34599999999045,,response,,,,100,,,,,,,Space,keypress(Space),,,,,,,,-- --- ---- --- ------ ----- ------- ---- -- --- ------- --<br>------- ---------- ------ -- ----- -- ----- -- ---- ------<br>--- ----- --- --- ------ -------- ----- --- ------ ----- --<br>----- ----- ---------- --- --- ------ ------ ---- -- ------<br>------- The ------ ----- --- ---- ------- -- ---- --- --<br>------- ------,148579.20000004768,148578.5,148054.391,148049.70000004768,148071.154,148604.316,,44,The
screen,html.Screen,2_1_1_1_45,2022-02-21T11:44:00.006Z,,,,,,,,,,,,,,,,,54,,,,,,,,,,,,,,437.48399995232467,,response,,,,100,,,,,,,Space,keypress(Space),,,,,,,,-- --- ---- --- ------ ----- ------- ---- -- --- ------- --<br>------- ---------- ------ -- ----- -- ----- -- ---- ------<br>--- ----- --- --- ------ -------- ----- --- ------ ----- --<br>----- ----- ---------- --- --- ------ ------ ---- -- ------<br>------- --- French ----- --- ---- ------- -- ---- --- --<br>------- ------,149043,149041.79999995232,148587.567,148579.29999995232,148604.316,149070.764,,45,French
screen,html.Screen,2_1_1_1_46,2022-02-21T11:44:00.259Z,,,,,,,,,,,,,,,,,54,,,,,,,,,,,,,,224.23600000000442,,response,,,,100,,,,,,,Space,keypress(Space),,,,,,,,-- --- ---- --- ------ ----- ------- ---- -- --- ------- --<br>------- ---------- ------ -- ----- -- ----- -- ---- ------<br>--- ----- --- --- ------ -------- ----- --- ------ ----- --<br>----- ----- ---------- --- --- ------ ------ ---- -- ------<br>------- --- ------ state --- ---- ------- -- ---- --- --<br>------- ------,149296,149295,149053.956,149045.60000002384,149070.764,149320.722,,46,state
screen,html.Screen,2_1_1_1_47,2022-02-21T11:44:00.769Z,,,,,,,,,,,,,,,,,54,,,,,,,,,,,,,,483.878000023833,,response,,,,100,,,,,,,Space,keypress(Space),,,,,,,,-- --- ---- --- ------ ----- ------- ---- -- --- ------- --<br>------- ---------- ------ -- ----- -- ----- -- ---- ------<br>--- ----- --- --- ------ -------- ----- --- ------ ----- --<br>----- ----- ---------- --- --- ------ ------ ---- -- ------<br>------- --- ------ ----- was ---- ------- -- ---- --- --<br>------- ------,149806,149804.60000002384,149303.898,149296.20000004768,149320.722,149837.466,,47,was
screen,html.Screen,2_1_1_1_48,2022-02-21T11:44:01.158Z,,,,,,,,,,,,,,,,,54,,,,,,,,,,,,,,357.13400002385606,,response,,,,100,,,,,,,Space,keypress(Space),,,,,,,,-- --- ---- --- ------ ----- ------- ---- -- --- ------- --<br>------- ---------- ------ -- ----- -- ----- -- ---- ------<br>--- ----- --- --- ------ -------- ----- --- ------ ----- --<br>----- ----- ---------- --- --- ------ ------ ---- -- ------<br>------- --- ------ ----- --- left ------- -- ---- --- --<br>------- ------,150195.29999995232,150194.60000002384,149820.374,149806,149837.466,150220.29,,48,left
screen,html.Screen,2_1_1_1_49,2022-02-21T11:44:01.736Z,,,,,,,,,,,,,,,,,54,,,,,,,,,,,,,,551.4100000476756,,response,,,,100,,,,,,,Space,keypress(Space),,,,,,,,-- --- ---- --- ------ ----- ------- ---- -- --- ------- --<br>------- ---------- ------ -- ----- -- ----- -- ---- ------<br>--- ----- --- --- ------ -------- ----- --- ------ ----- --<br>----- ----- ---------- --- --- ------ ------ ---- -- ------<br>------- --- ------ ----- --- ---- without -- ---- --- --<br>------- ------,150773,150771.70000004768,150203.602,150195.5,150220.29,150803.565,,49,without
screen,html.Screen,2_1_1_1_50,2022-02-21T11:44:01.990Z,,,,,,,,,,,,,,,,,54,,,,,,,,,,,,,,223.3349999761558,,response,,,,100,,,,,,,Space,keypress(Space),,,,,,,,-- --- ---- --- ------ ----- ------- ---- -- --- ------- --<br>------- ---------- ------ -- ----- -- ----- -- ---- ------<br>--- ----- --- --- ------ -------- ----- --- ------ ----- --<br>----- ----- ---------- --- --- ------ ------ ---- -- ------<br>------- --- ------ ----- --- ---- ------- an ---- --- --<br>------- ------,151027.60000002384,151026.89999997616,150787.026,150773.10000002384,150803.565,151053.449,,50,an
screen,html.Screen,2_1_1_1_51,2022-02-21T11:44:02.451Z,,,,,,,,,,,,,,,,,54,,,,,,,,,,,,,,433.9509999761649,,response,,,,100,,,,,,,Space,keypress(Space),,,,,,,,-- --- ---- --- ------ ----- ------- ---- -- --- ------- --<br>------- ---------- ------ -- ----- -- ----- -- ---- ------<br>--- ----- --- --- ------ -------- ----- --- ------ ----- --<br>----- ----- ---------- --- --- ------ ------ ---- -- ------<br>------- --- ------ ----- --- ---- ------- -- easy --- --<br>------- ------,151488.39999997616,151487.39999997616,151036.878,151027.70000004768,151053.449,151519.994,,51,easy
screen,html.Screen,2_1_1_1_52,2022-02-21T11:44:02.828Z,,,,,,,,,,,,,,,,,54,,,,,,,,,,,,,,344.50599999999395,,response,,,,100,,,,,,,Space,keypress(Space),,,,,,,,-- --- ---- --- ------ ----- ------- ---- -- --- ------- --<br>------- ---------- ------ -- ----- -- ----- -- ---- ------<br>--- ----- --- --- ------ -------- ----- --- ------ ----- --<br>----- ----- ---------- --- --- ------ ------ ---- -- ------<br>------- --- ------ ----- --- ---- ------- -- ---- way --<br>------- ------,151865.39999997616,151864.5,151503.153,151488.60000002384,151519.994,151886.564,,52,way
screen,html.Screen,2_1_1_1_53,2022-02-21T11:44:03.251Z,,,,,,,,,,,,,,,,,54,,,,,,,,,,,,,,400.1360000476707,,response,,,,100,,,,,,,Space,keypress(Space),,,,,,,,-- --- ---- --- ------ ----- ------- ---- -- --- ------- --<br>------- ---------- ------ -- ----- -- ----- -- ---- ------<br>--- ----- --- --- ------ -------- ----- --- ------ ----- --<br>----- ----- ---------- --- --- ------ ------ ---- -- ------<br>------- --- ------ ----- --- ---- ------- -- ---- --- of<br>------- ------,152288,152286.70000004768,151869.706,151865.39999997616,151886.564,152319.958,,53,of
screen,html.Screen,2_1_1_1_54,2022-02-21T11:44:03.670Z,,,,,,,,,,,,,,,,,54,,,,,,,,,,,,,,386.1420000238286,,response,,,,100,,,,,,,Space,keypress(Space),,,,,,,,-- --- ---- --- ------ ----- ------- ---- -- --- ------- --<br>------- ---------- ------ -- ----- -- ----- -- ---- ------<br>--- ----- --- --- ------ -------- ----- --- ------ ----- --<br>----- ----- ---------- --- --- ------ ------ ---- -- ------<br>------- --- ------ ----- --- ---- ------- -- ---- --- --<br>raising ------,152707.29999995232,152706.10000002384,152303.11,152288.10000002384,152319.958,152736.156,,54,raising
screen,html.Screen,2_1_1_1_55,2022-02-21T11:44:05.083Z,,,,,,,,,,,,,,,,,54,,,,,,,,,,,,,,1383.1439999523282,,response,,,,100,,,,,,,Space,keypress(Space),,,,,,,,-- --- ---- --- ------ ----- ------- ---- -- --- ------- --<br>------- ---------- ------ -- ----- -- ----- -- ---- ------<br>--- ----- --- --- ------ -------- ----- --- ------ ----- --<br>----- ----- ---------- --- --- ------ ------ ---- -- ------<br>------- --- ------ ----- --- ---- ------- -- ---- --- --<br>------- money.,154120.5,154119.29999995232,152719.371,152707.5,152736.156,154135.597,,55,money.
Item 100,flow.Loop,2_1_1_1,2022-02-21T11:44:05.084Z,,,,,,,,,,,,,,,,,,,,,,,,,,,,,,,27091.192999952313,,completion,,,,,B,,,,,,,,,,,silence,,,,,154120.89999997616,154119.29999995232,127011.507,127015.89999997616,127028.107,154135.597,,,
Question 1,html.Screen,2_1_1_2,2022-02-21T11:44:07.641Z,,,,,,,,,,,,,,,,,,,,,,,,,,,,true,TRUE,,2540.103000047675,,response,,,,100,B,,,,,,TRUE,click #choice-1,,,,silence,,,,,156678.70000004768,156675.70000004768,154118.935,154121.10000002384,154135.597,156701.434,,,
Question 2,html.Screen,2_1_1_3,2022-02-21T11:44:12.657Z,,,,,,,,,,,,,,,,,,,,,,,,,,,,false,FALSE,,4990.1660000238335,,response,,,,100,B,,,,,,TRUE,click #choice-1,,,,silence,,,,,161694.10000002384,161691.60000002384,156684.739,156678.79999995232,156701.434,161716.651,,,
Item 100,flow.Sequence,2_1_1,2022-02-21T11:44:12.657Z,,,,,,,,,,,,,,,,,,,,,,,,,,,,,,,44659.745000023846,,completion,,,,,,,,,,,,,,,,,,,,,161694.39999997616,161691.60000002384,117014.812,117006.70000004768,117031.855,161716.651,,,
End of Practice,html.Page,2_1_2,2022-02-21T11:44:17.020Z,,,,,,,,,,,,,,,,,,,,,,,,,,,,,,,4339.748999976146,,form submission,,,,,,,,,,,,,,,,,,,,,166057,166056.39999997616,161699.764,161694.5,161716.651,166081.844,,,
Practice,flow.Sequence,2_1,2022-02-21T11:44:17.020Z,,,,,,,,,,,,,,,,,,,,,,,,,,,,,,,89444.49199997616,,completion,,,,,,,,,,,,,,,,,,,,,166057.10000002384,166056.39999997616,76595.134,76593.20000004768,76611.908,166081.844,,,
Trap_instruction,html.Page,2_2_0,2022-02-21T11:44:19.403Z,,,,,,,,,,,,,,,,,,,,,,,,,,,,,,,2357.5559999761463,,form submission,,,,,,,,,,,,,,,,,,,,,168440,168439.39999997616,166065.121,166057.20000004768,166081.844,168464.069,,,
trap_trial,html.Screen,2_2_1,2022-02-21T11:44:23.489Z,,,,,,,,,,,,,,,,,,,,,,,,,,,,true,1,,4059.3309999761696,,response,,,,,,,,,,,1,click #choice-1,,,,,,,,,172525.89999997616,172523.39999997616,168447.481,168440.20000004768,168464.069,172546.078,,,
end of trap trial,html.Page,2_2_2,2022-02-21T11:44:24.755Z,,,,,,,,,,,,,,,,,,,,,,,,,,,,,,,1245.622000047675,,form submission,,,,,,,,,,,,,,,,,,,,,173792.5,173791.70000004768,172529.39,172526.20000004768,172546.078,173812.27,,,
Trap 1,flow.Sequence,2_2,2022-02-21T11:44:24.755Z,,,,,,,,,,,,,,,,,,,,,,,,,,,,,,,7709.856000047672,,completion,,,,,,,,,,,,,,,,,,,,,173792.70000004768,173791.70000004768,166065.121,166057.10000002384,166081.844,173812.27,,,
Standby,html.Page,2_3_0,2022-02-21T11:44:32.756Z,,,,,,,,,,,,,,,,,,,,,,,,,,,,,,,7997.401000000013,,timeout,,,,,,,,,,,,,,,,,,,,,181793.79999995232,181792.89,173795.55,173792.89999997616,173812.27,181809.671,,,
Holding screen,html.Screen,2_3_1_0_0,2022-02-21T11:44:39.754Z,,,,,,,,,,,,,,,,,,,,,,,,,,,,,,,6997.6600000000035,,timeout,,,,,,,,,,,,,,,,,,,,,188791.89999997616,188790.577,181792.89,181793.89999997616,181809.671,188807.331,,,
screen,html.Screen,2_3_1_0_1_0,2022-02-21T11:44:41.326Z,,,,,,,,,,,,,,,,,48,,,,,,,,,,,,,,1555.2690000238363,,response,,,,10,B,,,,,,Space,keypress(Space),,,,lyrical,,,,As -- --- ------ ------- --------- ----------- --------<br>--------- -------- --- ------- -- ------- ---- -- ------<br>-- --- -------- -------- ---------- ---- ---- ---- ------<br>-- --------- -- ---- -- --- -- --- ------- -- - -----<br>---------- -- -- -- ---- ----- -- ------ -- --- ------<br>-------,190363.89999997616,190362.60000002384,188790.577,188792.29999995232,188807.331,190390.081,,0,As
screen,html.Screen,2_3_1_0_1_1,2022-02-21T11:44:41.721Z,,,,,,,,,,,,,,,,,48,,,,,,,,,,,,,,368.1190000476781,,response,,,,10,B,,,,,,Space,keypress(Space),,,,lyrical,,,,-- in --- ------ ------- --------- ----------- --------<br>--------- -------- --- ------- -- ------- ---- -- ------<br>-- --- -------- -------- ---------- ---- ---- ---- ------<br>-- --------- -- ---- -- --- -- --- ------- -- - -----<br>---------- -- -- -- ---- ----- -- ------ -- --- ------<br>-------,190759.39999997616,190758.20000004768,190373.39,190364.10000002384,190390.081,190790.281,,1,in
screen,html.Screen,2_3_1_0_1_2,2022-02-21T11:44:42.181Z,,,,,,,,,,,,,,,,,48,,,,,,,,,,,,,,427.11899997617,,response,,,,10,B,,,,,,Space,keypress(Space),,,,lyrical,,,,-- -- the ------ ------- --------- ----------- --------<br>--------- -------- --- ------- -- ------- ---- -- ------<br>-- --- -------- -------- ---------- ---- ---- ---- ------<br>-- --------- -- ---- -- --- -- --- ------- -- - -----<br>---------- -- -- -- ---- ----- -- ------ -- --- ------<br>-------,191218.5,191217.39999997616,190773.178,190759.60000002384,190790.281,191239.971,,2,the
screen,html.Screen,2_3_1_0_1_3,2022-02-21T11:44:42.487Z,,,,,,,,,,,,,,,,,48,,,,,,,,,,,,,,284.32899995232583,,response,,,,10,B,,,,,,Space,keypress(Space),,,,lyrical,,,,-- -- --- United ------- --------- ----------- --------<br>--------- -------- --- ------- -- ------- ---- -- ------<br>-- --- -------- -------- ---------- ---- ---- ---- ------<br>-- --------- -- ---- -- --- -- --- ------- -- - -----<br>---------- -- -- -- ---- ----- -- ------ -- --- ------<br>-------,191525.39999997616,191524.29999995232,191223.022,191218.70000004768,191239.971,191556.423,,3,United
screen,html.Screen,2_3_1_0_1_4,2022-02-21T11:44:42.851Z,,,,,,,,,,,,,,,,,48,,,,,,,,,,,,,,331.1770000238321,,response,,,,10,B,,,,,,Space,keypress(Space),,,,lyrical,,,,"-- -- --- ------ States, --------- ----------- --------<br>--------- -------- --- ------- -- ------- ---- -- ------<br>-- --- -------- -------- ---------- ---- ---- ---- ------<br>-- --------- -- ---- -- --- -- --- ------- -- - -----<br>---------- -- -- -- ---- ----- -- ------ -- --- ------<br>-------",191889,191887.60000002384,191539.616,191525.5,191556.423,191906.257,,4,"States,"
screen,html.Screen,2_3_1_0_1_5,2022-02-21T11:44:43.253Z,,,,,,,,,,,,,,,,,48,,,,,,,,,,,,,,383.04299995230394,,response,,,,10,B,,,,,,Space,keypress(Space),,,,lyrical,,,,-- -- --- ------ ------- Colombian ----------- --------<br>--------- -------- --- ------- -- ------- ---- -- ------<br>-- --- -------- -------- ---------- ---- ---- ---- ------<br>-- --------- -- ---- -- --- -- --- ------- -- - -----<br>---------- -- -- -- ---- ----- -- ------ -- --- ------<br>-------,192290.79999995232,192289.29999995232,191889.46,191889.10000002384,191906.257,192306.209,,5,Colombian
screen,html.Screen,2_3_1_0_1_6,2022-02-21T11:44:43.949Z,,,,,,,,,,,,,,,,,48,,,,,,,,,,,,,,679.5909999523137,,response,,,,10,B,,,,,,Space,keypress(Space),,,,lyrical,,,,-- -- --- ------ ------- --------- legislation --------<br>--------- -------- --- ------- -- ------- ---- -- ------<br>-- --- -------- -------- ---------- ---- ---- ---- ------<br>-- --------- -- ---- -- --- -- --- ------- -- - -----<br>---------- -- -- -- ---- ----- -- ------ -- --- ------<br>-------,192987,192985.79999995232,192289.342,192291,192306.209,193005.903,,6,legislation
screen,html.Screen,2_3_1_0_1_7,2022-02-21T11:44:44.372Z,,,,,,,,,,,,,,,,,48,,,,,,,,,,,,,,403.29700004769256,,response,,,,10,B,,,,,,Space,keypress(Space),,,,lyrical,,,,-- -- --- ------ ------- --------- ----------- requires<br>--------- -------- --- ------- -- ------- ---- -- ------<br>-- --- -------- -------- ---------- ---- ---- ---- ------<br>-- --------- -- ---- -- --- -- --- ------- -- - -----<br>---------- -- -- -- ---- ----- -- ------ -- --- ------<br>-------,193410.29999995232,193409.20000004768,192989.093,192987.20000004768,193005.903,193439.127,,7,requires
screen,html.Screen,2_3_1_0_1_8,2022-02-21T11:44:44.785Z,,,,,,,,,,,,,,,,,48,,,,,,,,,,,,,,382.3729999999923,,response,,,,10,B,,,,,,Space,keypress(Space),,,,lyrical,,,,-- -- --- ------ ------- --------- ----------- --------<br>travelers -------- --- ------- -- ------- ---- -- ------<br>-- --- -------- -------- ---------- ---- ---- ---- ------<br>-- --------- -- ---- -- --- -- --- ------- -- - -----<br>---------- -- -- -- ---- ----- -- ------ -- --- ------<br>-------,193823,193821.5,193422.338,193410.5,193439.127,193838.84,,8,travelers
screen,html.Screen,2_3_1_0_1_9,2022-02-21T11:44:45.397Z,,,,,,,,,,,,,,,,,48,,,,,,,,,,,,,,595.0599999761616,,response,,,,10,B,,,,,,Space,keypress(Space),,,,lyrical,,,,-- -- --- ------ ------- --------- ----------- --------<br>--------- entering --- ------- -- ------- ---- -- ------<br>-- --- -------- -------- ---------- ---- ---- ---- ------<br>-- --------- -- ---- -- --- -- --- ------- -- - -----<br>---------- -- -- -- ---- ----- -- ------ -- --- ------<br>-------,194434.5,194433.89999997616,193822.159,193823.39999997616,193838.84,194455.539,,9,entering
screen,html.Screen,2_3_1_0_1_10,2022-02-21T11:44:45.740Z,,,,,,,,,,,,,,,,,48,,,,,,,,,,,,,,321.26099995232653,,response,,,,10,B,,,,,,Space,keypress(Space),,,,lyrical,,,,-- -- --- ------ ------- --------- ----------- --------<br>--------- -------- the ------- -- ------- ---- -- ------<br>-- --- -------- -------- ---------- ---- ---- ---- ------<br>-- --------- -- ---- -- --- -- --- ------- -- - -----<br>---------- -- -- -- ---- ----- -- ------ -- --- ------<br>-------,194777.89999997616,194776.79999995232,194438.598,194434.60000002384,194455.539,194805.58,,10,the
screen,html.Screen,2_3_1_0_1_11,2022-02-21T11:44:46.107Z,,,,,,,,,,,,,,,,,48,,,,,,,,,,,,,,337.81999997617095,,response,,,,10,B,,,,,,Space,keypress(Space),,,,lyrical,,,,-- -- --- ------ ------- --------- ----------- --------<br>--------- -------- --- country -- ------- ---- -- ------<br>-- --- -------- -------- ---------- ---- ---- ---- ------<br>-- --------- -- ---- -- --- -- --- ------- -- - -----<br>---------- -- -- -- ---- ----- -- ------ -- --- ------<br>-------,195144.5,195143.39999997616,194788.679,194778.10000002384,194805.58,195172.233,,11,country
screen,html.Screen,2_3_1_0_1_12,2022-02-21T11:44:46.497Z,,,,,,,,,,,,,,,,,48,,,,,,,,,,,,,,361.76699999999255,,response,,,,10,B,,,,,,Space,keypress(Space),,,,lyrical,,,,-- -- --- ------ ------- --------- ----------- --------<br>--------- -------- --- ------- to ------- ---- -- ------<br>-- --- -------- -------- ---------- ---- ---- ---- ------<br>-- --------- -- ---- -- --- -- --- ------- -- - -----<br>---------- -- -- -- ---- ----- -- ------ -- --- ------<br>-------,195535.29999995232,195534,195155.213,195144.79999995232,195172.233,195555.035,,12,to
screen,html.Screen,2_3_1_0_1_13,2022-02-21T11:44:46.823Z,,,,,,,,,,,,,,,,,48,,,,,,,,,,,,,,304.36499997615465,,response,,,,10,B,,,,,,Space,keypress(Space),,,,lyrical,,,,-- -- --- ------ ------- --------- ----------- --------<br>--------- -------- --- ------- -- declare ---- -- ------<br>-- --- -------- -------- ---------- ---- ---- ---- ------<br>-- --------- -- ---- -- --- -- --- ------- -- - -----<br>---------- -- -- -- ---- ----- -- ------ -- --- ------<br>-------,195860.70000004768,195859.39999997616,195538.225,195535.5,195555.035,195888.358,,13,declare
screen,html.Screen,2_3_1_0_1_14,2022-02-21T11:44:47.156Z,,,,,,,,,,,,,,,,,48,,,,,,,,,,,,,,304.84200004767627,,response,,,,10,B,,,,,,Space,keypress(Space),,,,lyrical,,,,-- -- --- ------ ------- --------- ----------- --------<br>--------- -------- --- ------- -- ------- cash -- ------<br>-- --- -------- -------- ---------- ---- ---- ---- ------<br>-- --------- -- ---- -- --- -- --- ------- -- - -----<br>---------- -- -- -- ---- ----- -- ------ -- --- ------<br>-------,196194.29999995232,196193.20000004768,195871.496,195860.89999997616,195888.358,196221.547,,14,cash
screen,html.Screen,2_3_1_0_1_15,2022-02-21T11:44:47.567Z,,,,,,,,,,,,,,,,,48,,,,,,,,,,,,,,382.0530000238505,,response,,,,10,B,,,,,,Space,keypress(Space),,,,lyrical,,,,-- -- --- ------ ------- --------- ----------- --------<br>--------- -------- --- ------- -- ------- ---- in ------<br>-- --- -------- -------- ---------- ---- ---- ---- ------<br>-- --------- -- ---- -- --- -- --- ------- -- - -----<br>---------- -- -- -- ---- ----- -- ------ -- --- ------<br>-------,196604.89999997616,196603.60000002384,196204.709,196194.5,196221.547,196621.522,,15,in
screen,html.Screen,2_3_1_0_1_16,2022-02-21T11:44:49.788Z,,,,,,,,,,,,,,,,,48,,,,,,,,,,,,,,2203.5780000238447,,response,,,,10,B,,,,,,Space,keypress(Space),,,,lyrical,,,,-- -- --- ------ ------- --------- ----------- --------<br>--------- -------- --- ------- -- ------- ---- -- excess<br>-- --- -------- -------- ---------- ---- ---- ---- ------<br>-- --------- -- ---- -- --- -- --- ------- -- - -----<br>---------- -- -- -- ---- ----- -- ------ -- --- ------<br>-------,198826.20000004768,198825.10000002384,196604.549,196605.20000004768,196621.522,198854.116,,16,excess
screen,html.Screen,2_3_1_0_1_17,2022-02-21T11:44:50.447Z,,,,,,,,,,,,,,,,,48,,,,,,,,,,,,,,629.6839999523072,,response,,,,10,B,,,,,,Space,keypress(Space),,,,lyrical,,,,-- -- --- ------ ------- --------- ----------- --------<br>--------- -------- --- ------- -- ------- ---- -- ------<br>of --- -------- -------- ---------- ---- ---- ---- ------<br>-- --------- -- ---- -- --- -- --- ------- -- - -----<br>---------- -- -- -- ---- ----- -- ------ -- --- ------<br>-------,199484.60000002384,199483.79999995232,198837.396,198826.5,198854.116,199503.809,,17,of
screen,html.Screen,2_3_1_0_1_18,2022-02-21T11:44:50.752Z,,,,,,,,,,,,,,,,,48,,,,,,,,,,,,,,284.39100004767533,,response,,,,10,B,,,,,,Space,keypress(Space),,,,lyrical,,,,-- -- --- ------ ------- --------- ----------- --------<br>--------- -------- --- ------- -- ------- ---- -- ------<br>-- ten -------- -------- ---------- ---- ---- ---- ------<br>-- --------- -- ---- -- --- -- --- ------- -- - -----<br>---------- -- -- -- ---- ----- -- ------ -- --- ------<br>-------,199789.39999997616,199788.20000004768,199486.941,199484.79999995232,199503.809,199820.239,,18,ten
screen,html.Screen,2_3_1_0_1_19,2022-02-21T11:44:51.249Z,,,,,,,,,,,,,,,,,48,,,,,,,,,,,,,,465.5609999523149,,response,,,,10,B,,,,,,Space,keypress(Space),,,,lyrical,,,,-- -- --- ------ ------- --------- ----------- --------<br>--------- -------- --- ------- -- ------- ---- -- ------<br>-- --- thousand -------- ---------- ---- ---- ---- ------<br>-- --------- -- ---- -- --- -- --- ------- -- - -----<br>---------- -- -- -- ---- ----- -- ------ -- --- ------<br>-------,200287,200285.79999995232,199803.871,199789.60000002384,199820.239,200303.378,,19,thousand
screen,html.Screen,2_3_1_0_1_20,2022-02-21T11:44:51.523Z,,,,,,,,,,,,,,,,,48,,,,,,,,,,,,,,257.122000000003,,response,,,,10,B,,,,,,Space,keypress(Space),,,,lyrical,,,,-- -- --- ------ ------- --------- ----------- --------<br>--------- -------- --- ------- -- ------- ---- -- ------<br>-- --- -------- dollars. ---------- ---- ---- ---- ------<br>-- --------- -- ---- -- --- -- --- ------- -- - -----<br>---------- -- -- -- ---- ----- -- ------ -- --- ------<br>-------,200561.20000004768,200560.5,200286.637,200287.20000004768,200303.378,200586.59,,20,dollars.
screen,html.Screen,2_3_1_0_1_21,2022-02-21T11:44:51.872Z,,,,,,,,,,,,,,,,,48,,,,,,,,,,,,,,322.4100000000035,,response,,,,10,B,,,,,,Space,keypress(Space),,,,lyrical,,,,-- -- --- ------ ------- --------- ----------- --------<br>--------- -------- --- ------- -- ------- ---- -- ------<br>-- --- -------- -------- Concealing ---- ---- ---- ------<br>-- --------- -- ---- -- --- -- --- ------- -- - -----<br>---------- -- -- -- ---- ----- -- ------ -- --- ------<br>-------,200910.20000004768,200909,200570.126,200561.29999995232,200586.59,200936.671,,21,Concealing
screen,html.Screen,2_3_1_0_1_22,2022-02-21T11:44:52.283Z,,,,,,,,,,,,,,,,,48,,,,,,,,,,,,,,383.1289999523142,,response,,,,10,B,,,,,,Space,keypress(Space),,,,lyrical,,,,-- -- --- ------ ------- --------- ----------- --------<br>--------- -------- --- ------- -- ------- ---- -- ------<br>-- --- -------- -------- ---------- more ---- ---- ------<br>-- --------- -- ---- -- --- -- --- ------- -- - -----<br>---------- -- -- -- ---- ----- -- ------ -- --- ------<br>-------,201321.10000002384,201319.79999995232,200919.855,200910.5,200936.671,201336.378,,22,more
screen,html.Screen,2_3_1_0_1_23,2022-02-21T11:44:52.549Z,,,,,,,,,,,,,,,,,48,,,,,,,,,,,,,,249.52199997616117,,response,,,,10,B,,,,,,Space,keypress(Space),,,,lyrical,,,,-- -- --- ------ ------- --------- ----------- --------<br>--------- -------- --- ------- -- ------- ---- -- ------<br>-- --- -------- -------- ---------- ---- than ---- ------<br>-- --------- -- ---- -- --- -- --- ------- -- - -----<br>---------- -- -- -- ---- ----- -- ------ -- --- ------<br>-------,201587.20000004768,201585.89999997616,201319.62,201321.20000004768,201336.378,201602.913,,23,than
screen,html.Screen,2_3_1_0_1_24,2022-02-21T11:44:52.799Z,,,,,,,,,,,,,,,,,48,,,,,,,,,,,,,,232.38699995231582,,response,,,,10,B,,,,,,Space,keypress(Space),,,,lyrical,,,,-- -- --- ------ ------- --------- ----------- --------<br>--------- -------- --- ------- -- ------- ---- -- ------<br>-- --- -------- -------- ---------- ---- ---- that ------<br>-- --------- -- ---- -- --- -- --- ------- -- - -----<br>---------- -- -- -- ---- ----- -- ------ -- --- ------<br>-------,201836.60000002384,201835.29999995232,201586.136,201587.39999997616,201602.913,201852.926,,24,that
screen,html.Screen,2_3_1_0_1_25,2022-02-21T11:44:53.080Z,,,,,,,,,,,,,,,,,48,,,,,,,,,,,,,,263.77400004767696,,response,,,,10,B,,,,,,Space,keypress(Space),,,,lyrical,,,,-- -- --- ------ ------- --------- ----------- --------<br>--------- -------- --- ------- -- ------- ---- -- ------<br>-- --- -------- -------- ---------- ---- ---- ---- amount<br>-- --------- -- ---- -- --- -- --- ------- -- - -----<br>---------- -- -- -- ---- ----- -- ------ -- --- ------<br>-------,202117.89999997616,202116.70000004768,201836.075,201836.89999997616,201852.926,202136.187,,25,amount
screen,html.Screen,2_3_1_0_1_26,2022-02-21T11:44:53.397Z,,,,,,,,,,,,,,,,,48,,,,,,,,,,,,,,297.2129999761528,,response,,,,10,B,,,,,,Space,keypress(Space),,,,lyrical,,,,-- -- --- ------ ------- --------- ----------- --------<br>--------- -------- --- ------- -- ------- ---- -- ------<br>-- --- -------- -------- ---------- ---- ---- ---- ------<br>to --------- -- ---- -- --- -- --- ------- -- - -----<br>---------- -- -- -- ---- ----- -- ------ -- --- ------<br>-------,202434.60000002384,202433.39999997616,202119.348,202118.10000002384,202136.187,202452.734,,26,to
screen,html.Screen,2_3_1_0_1_27,2022-02-21T11:44:53.656Z,,,,,,,,,,,,,,,,,48,,,,,,,,,,,,,,240.06599995231954,,response,,,,10,B,,,,,,Space,keypress(Space),,,,lyrical,,,,-- -- --- ------ ------- --------- ----------- --------<br>--------- -------- --- ------- -- ------- ---- -- ------<br>-- --- -------- -------- ---------- ---- ---- ---- ------<br>-- transport -- ---- -- --- -- --- ------- -- - -----<br>---------- -- -- -- ---- ----- -- ------ -- --- ------<br>-------,202694,202692.79999995232,202435.879,202434.79999995232,202452.734,202719.27,,27,transport
screen,html.Screen,2_3_1_0_1_28,2022-02-21T11:44:53.940Z,,,,,,,,,,,,,,,,,48,,,,,,,,,,,,,,257.52999995232676,,response,,,,10,B,,,,,,Space,keypress(Space),,,,lyrical,,,,-- -- --- ------ ------- --------- ----------- --------<br>--------- -------- --- ------- -- ------- ---- -- ------<br>-- --- -------- -------- ---------- ---- ---- ---- ------<br>-- --------- it ---- -- --- -- --- ------- -- - -----<br>---------- -- -- -- ---- ----- -- ------ -- --- ------<br>-------,202977.89999997616,202976.79999995232,202702.462,202694.20000004768,202719.27,203002.487,,28,it
screen,html.Screen,2_3_1_0_1_29,2022-02-21T11:44:54.492Z,,,,,,,,,,,,,,,,,48,,,,,,,,,,,,,,526.0130000000063,,response,,,,10,B,,,,,,Space,keypress(Space),,,,lyrical,,,,-- -- --- ------ ------- --------- ----------- --------<br>--------- -------- --- ------- -- ------- ---- -- ------<br>-- --- -------- -------- ---------- ---- ---- ---- ------<br>-- --------- -- into -- --- -- --- ------- -- - -----<br>---------- -- -- -- ---- ----- -- ------ -- --- ------<br>-------,203529.79999995232,203528.5,202985.752,202978.10000002384,203002.487,203552.26,,29,into
screen,html.Screen,2_3_1_0_1_30,2022-02-21T11:44:54.713Z,,,,,,,,,,,,,,,,,48,,,,,,,,,,,,,,197.4400000476744,,response,,,,10,B,,,,,,Space,keypress(Space),,,,lyrical,,,,-- -- --- ------ ------- --------- ----------- --------<br>--------- -------- --- ------- -- ------- ---- -- ------<br>-- --- -------- -------- ---------- ---- ---- ---- ------<br>-- --------- -- ---- or --- -- --- ------- -- - -----<br>---------- -- -- -- ---- ----- -- ------ -- --- ------<br>-------,203750.89999997616,203749.70000004768,203535.534,203530,203552.26,203768.874,,30,or
screen,html.Screen,2_3_1_0_1_31,2022-02-21T11:44:54.953Z,,,,,,,,,,,,,,,,,48,,,,,,,,,,,,,,221.1259999999893,,response,,,,10,B,,,,,,Space,keypress(Space),,,,lyrical,,,,-- -- --- ------ ------- --------- ----------- --------<br>--------- -------- --- ------- -- ------- ---- -- ------<br>-- --- -------- -------- ---------- ---- ---- ---- ------<br>-- --------- -- ---- -- out -- --- ------- -- - -----<br>---------- -- -- -- ---- ----- -- ------ -- --- ------<br>-------,203991.10000002384,203990,203752.19,203751.20000004768,203768.874,204018.85,,31,out
screen,html.Screen,2_3_1_0_1_32,2022-02-21T11:44:55.212Z,,,,,,,,,,,,,,,,,48,,,,,,,,,,,,,,230.25000002383604,,response,,,,10,B,,,,,,Space,keypress(Space),,,,lyrical,,,,-- -- --- ------ ------- --------- ----------- --------<br>--------- -------- --- ------- -- ------- ---- -- ------<br>-- --- -------- -------- ---------- ---- ---- ---- ------<br>-- --------- -- ---- -- --- of --- ------- -- - -----<br>---------- -- -- -- ---- ----- -- ------ -- --- ------<br>-------,204249.89999997616,204249.10000002384,204002.028,203991.29999995232,204018.85,204268.764,,32,of
screen,html.Screen,2_3_1_0_1_33,2022-02-21T11:44:55.443Z,,,,,,,,,,,,,,,,,48,,,,,,,,,,,,,,211.23600000000442,,response,,,,10,B,,,,,,Space,keypress(Space),,,,lyrical,,,,-- -- --- ------ ------- --------- ----------- --------<br>--------- -------- --- ------- -- ------- ---- -- ------<br>-- --- -------- -------- ---------- ---- ---- ---- ------<br>-- --------- -- ---- -- --- -- the ------- -- - -----<br>---------- -- -- -- ---- ----- -- ------ -- --- ------<br>-------,204480.60000002384,204480,204252.001,204250,204268.764,204502.035,,33,the
screen,html.Screen,2_3_1_0_1_34,2022-02-21T11:44:55.669Z,,,,,,,,,,,,,,,,,48,,,,,,,,,,,,,,203.56500002383837,,response,,,,10,B,,,,,,Space,keypress(Space),,,,lyrical,,,,-- -- --- ------ ------- --------- ----------- --------<br>--------- -------- --- ------- -- ------- ---- -- ------<br>-- --- -------- -------- ---------- ---- ---- ---- ------<br>-- --------- -- ---- -- --- -- --- country -- - -----<br>---------- -- -- -- ---- ----- -- ------ -- --- ------<br>-------,204706.70000004768,204705.60000002384,204485.448,204480.79999995232,204502.035,204735.307,,34,country
screen,html.Screen,2_3_1_0_1_35,2022-02-21T11:44:55.892Z,,,,,,,,,,,,,,,,,48,,,,,,,,,,,,,,193.1929999999993,,response,,,,10,B,,,,,,Space,keypress(Space),,,,lyrical,,,,-- -- --- ------ ------- --------- ----------- --------<br>--------- -------- --- ------- -- ------- ---- -- ------<br>-- --- -------- -------- ---------- ---- ---- ---- ------<br>-- --------- -- ---- -- --- -- --- ------- is - -----<br>---------- -- -- -- ---- ----- -- ------ -- --- ------<br>-------,204929.60000002384,204928.5,204718.695,204707,204735.307,204952.256,,35,is
screen,html.Screen,2_3_1_0_1_36,2022-02-21T11:44:56.149Z,,,,,,,,,,,,,,,,,48,,,,,,,,,,,,,,232.94400004768977,,response,,,,10,B,,,,,,Space,keypress(Space),,,,lyrical,,,,-- -- --- ------ ------- --------- ----------- --------<br>--------- -------- --- ------- -- ------- ---- -- ------<br>-- --- -------- -------- ---------- ---- ---- ---- ------<br>-- --------- -- ---- -- --- -- --- ------- -- a -----<br>---------- -- -- -- ---- ----- -- ------ -- --- ------<br>-------,205186.39999997616,205185.20000004768,204935.086,204929.89999997616,204952.256,205201.817,,36,a
screen,html.Screen,2_3_1_0_1_37,2022-02-21T11:44:56.397Z,,,,,,,,,,,,,,,,,48,,,,,,,,,,,,,,231.78300002383185,,response,,,,10,B,,,,,,Space,keypress(Space),,,,lyrical,,,,-- -- --- ------ ------- --------- ----------- --------<br>--------- -------- --- ------- -- ------- ---- -- ------<br>-- --- -------- -------- ---------- ---- ---- ---- ------<br>-- --------- -- ---- -- --- -- --- ------- -- - crime<br>---------- -- -- -- ---- ----- -- ------ -- --- ------<br>-------,205434.79999995232,205433.60000002384,205184.963,205186.60000002384,205201.817,205451.71,,37,crime
screen,html.Screen,2_3_1_0_1_38,2022-02-21T11:44:56.675Z,,,,,,,,,,,,,,,,,48,,,,,,,,,,,,,,260.29000000000815,,response,,,,10,B,,,,,,Space,keypress(Space),,,,lyrical,,,,-- -- --- ------ ------- --------- ----------- --------<br>--------- -------- --- ------- -- ------- ---- -- ------<br>-- --- -------- -------- ---------- ---- ---- ---- ------<br>-- --------- -- ---- -- --- -- --- ------- -- - -----<br>punishable -- -- -- ---- ----- -- ------ -- --- ------<br>-------,205713.10000002384,205712,205434.871,205435,205451.71,205734.887,,38,punishable
screen,html.Screen,2_3_1_0_1_39,2022-02-21T11:44:56.911Z,,,,,,,,,,,,,,,,,48,,,,,,,,,,,,,,212.71300002385397,,response,,,,10,B,,,,,,Space,keypress(Space),,,,lyrical,,,,-- -- --- ------ ------- --------- ----------- --------<br>--------- -------- --- ------- -- ------- ---- -- ------<br>-- --- -------- -------- ---------- ---- ---- ---- ------<br>-- --------- -- ---- -- --- -- --- ------- -- - -----<br>---------- by -- -- ---- ----- -- ------ -- --- ------<br>-------,205948.79999995232,205947.60000002384,205718.128,205713.39999997616,205734.887,205968.178,,39,by
screen,html.Screen,2_3_1_0_1_40,2022-02-21T11:44:57.154Z,,,,,,,,,,,,,,,,,48,,,,,,,,,,,,,,222.02200004766928,,response,,,,10,B,,,,,,Space,keypress(Space),,,,lyrical,,,,-- -- --- ------ ------- --------- ----------- --------<br>--------- -------- --- ------- -- ------- ---- -- ------<br>-- --- -------- -------- ---------- ---- ---- ---- ------<br>-- --------- -- ---- -- --- -- --- ------- -- - -----<br>---------- -- up -- ---- ----- -- ------ -- --- ------<br>-------,206191.5,206190.20000004768,205951.366,205949,205968.178,206218.143,,40,up
screen,html.Screen,2_3_1_0_1_41,2022-02-21T11:44:57.408Z,,,,,,,,,,,,,,,,,48,,,,,,,,,,,,,,226.35699999998906,,response,,,,10,B,,,,,,Space,keypress(Space),,,,lyrical,,,,-- -- --- ------ ------- --------- ----------- --------<br>--------- -------- --- ------- -- ------- ---- -- ------<br>-- --- -------- -------- ---------- ---- ---- ---- ------<br>-- --------- -- ---- -- --- -- --- ------- -- - -----<br>---------- -- -- to ---- ----- -- ------ -- --- ------<br>-------,206445.70000004768,206444.5,206201.329,206191.70000004768,206218.143,206468.165,,41,to
screen,html.Screen,2_3_1_0_1_42,2022-02-21T11:44:57.658Z,,,,,,,,,,,,,,,,,48,,,,,,,,,,,,,,226.63499995230814,,response,,,,10,B,,,,,,Space,keypress(Space),,,,lyrical,,,,-- -- --- ------ ------- --------- ----------- --------<br>--------- -------- --- ------- -- ------- ---- -- ------<br>-- --- -------- -------- ---------- ---- ---- ---- ------<br>-- --------- -- ---- -- --- -- --- ------- -- - -----<br>---------- -- -- -- five ----- -- ------ -- --- ------<br>-------,206695.79999995232,206694.79999995232,206451.209,206445.89999997616,206468.165,206717.897,,42,five
screen,html.Screen,2_3_1_0_1_43,2022-02-21T11:44:57.896Z,,,,,,,,,,,,,,,,,48,,,,,,,,,,,,,,214.40299995231908,,response,,,,10,B,,,,,,Space,keypress(Space),,,,lyrical,,,,-- -- --- ------ ------- --------- ----------- --------<br>--------- -------- --- ------- -- ------- ---- -- ------<br>-- --- -------- -------- ---------- ---- ---- ---- ------<br>-- --------- -- ---- -- --- -- --- ------- -- - -----<br>---------- -- -- -- ---- years -- ------ -- --- ------<br>-------,206933.60000002384,206932.29999995232,206701.398,206695.89999997616,206717.897,206951.102,,43,years
