sender,sender_type,sender_id,timestamp,meta,,Blues,Classical,Country,Dance,Electronic,Folk,Gospel,Hip-Hop,Jazz,Latin,Musical/Film,New-age,Pop,Prolific_id,Provo_ID,R&B,Rap,Reggae,Religious,Rock,Soul,Swing,Traditional,age,artist_name,correct,correctResponse,distraction,duration,education,ended_on,familiarity,gender,headphone_check_performance,item,list,music_frequency,offensiveness,pleasantness,position_correct,preference,response,response_action,snippet_file,song_name,song_rating,sound,stimulus_1,stimulus_2,stimulus_3,text,time_commit,time_end,time_render,time_run,time_show,time_switch,url,word,word_ID
Prolific ID,html.Form,0,2022-02-16T09:03:22.629Z,"{""labjs_version"":""20.2.2"",""labjs_build"":{""flavor"":""production"",""commit"":""a25486e0c714a0ae2ce03ff94b7bb6896854dcfa""},""location"":""https://run.pavlovia.org/mvasilev/prolific2_music_c/"",""userAgent"":""Mozilla/5.0 (Macintosh; Intel Mac OS X 10_15_7) AppleWebKit/537.36 (KHTML, like Gecko) Chrome/98.0.4758.80 Safari/537.36"",""platform"":""MacIntel"",""language"":""en-GB"",""locale"":""en-GB"",""timeZone"":""Europe/London"",""timezoneOffset"":0,""screen_width"":1440,""screen_height"":900,""scroll_width"":1440,""scroll_height"":714,""window_innerWidth"":1440,""window_innerHeight"":762,""devicePixelRatio"":2}",,,,,,,,,,,,,,,5fa18024e8db28293edae14e,,,,,,,,,,,,,,,9158.050999904633,,form submission,,,,,,,,,,,,,,,,,,,,,16489.599999904633,16489.099999904633,7314.383,7317.200000047684,7331.049,16514.015,{},,
Introduction,html.Screen,1_0,2022-02-16T09:03:26.645Z,,,,,,,,,,,,,,,,,,,,,,,,,,,,,,,3986.6850000476843,,response,,,,,,,,,,,continue,click button,,,,,,,,,20506.299999952316,20500.700000047684,16497.349,16489.900000095367,16514.015,20530.521,,,
Volume calibration,html.Screen,1_1,2022-02-16T09:03:36.548Z,,,,,,,,,,,,,,,,,,,,,,,,,,,,,,,9875.578999904632,,response,,,,,,,,,,,continue,click button,,,,,,,,,30409,30406.099999904633,20513.855,20506.599999904633,20530.521,30430.125,,,
Task instructions,html.Screen,1_2,2022-02-16T09:03:39.898Z,,,,,,,,,,,,,,,,,,,,,,,,,,,,,,,3326.375,,response,,,,,,,,,,,continue,click button,,,,,,,,,33759.200000047684,33756.5,30413.459,30409.200000047684,30430.125,33779.991,,,
Sounds,html.Screen,1_3_0_0,2022-02-16T09:03:44.157Z,,,,,,,,,,,,,,,,,,,,,,,,,,,,,,,4249.830000000002,,timeout,,,,,,,,,3,,,,,,,,O,I,S,,38018.299999952316,38013.155,33763.325,33759.5,33779.991,38029.821,,,
Judgement,html.Screen,1_3_0_1,2022-02-16T09:03:44.889Z,,,,,,,,,,,,,,,,,,,,,,,,,,,,true,3,,717.4789999523127,,response,,,,,,,,,3,,3,click #choice-3,,,,,O,I,S,,38750.5,38747.299999952316,38013.155,38018.5,38029.821,38763.125,,,
Trial,flow.Sequence,1_3_0,2022-02-16T09:03:44.890Z,,,,,,,,,,,,,,,,,,,,,,,,,,,,,,,4967.3089999523145,,completion,,,,,,,,,3,,,,,,,,O,I,S,,38751,38747.299999952316,33763.325,33759.5,33779.991,38763.125,,,
Sounds,html.Screen,1_3_1_0,2022-02-16T09:03:49.137Z,,,,,,,,,,,,,,,,,,,,,,,,,,,,,,,4249.830000000002,,timeout,,,,,,,,,1,,,,,,,,S,O,I,,42997.90000009537,42996.289,38746.459,38751.299999952316,38763.125,43012.955,,,
Judgement,html.Screen,1_3_1_1,2022-02-16T09:03:50.267Z,,,,,,,,,,,,,,,,,,,,,,,,,,,,true,1,,1111.9450000953657,,response,,,,,,,,,1,,1,click #choice-1,,,,,S,O,I,,44128.09999990463,44124.90000009537,42996.289,42998.09999990463,43012.955,44146.243,,,
Trial,flow.Sequence,1_3_1,2022-02-16T09:03:50.267Z,,,,,,,,,,,,,,,,,,,,,,,,,,,,,,,5361.775000095367,,completion,,,,,,,,,1,,,,,,,,S,O,I,,44128.59999990463,44124.90000009537,38746.459,38751.09999990463,38763.125,44146.243,,,
Sounds,html.Screen,1_3_2_0,2022-02-16T09:03:54.521Z,,,,,,,,,,,,,,,,,,,,,,,,,,,,,,,4249.8299999999945,,timeout,,,,,,,,,2,,,,,,,,I,S,O,,48382.09999990463,48379.407,44129.577,44129,44146.243,48396.073,,,
Judgement,html.Screen,1_3_2_1,2022-02-16T09:03:54.909Z,,,,,,,,,,,,,,,,,,,,,,,,,,,,true,2,,371.0269999046359,,response,,,,,,,,,2,,2,click #choice-2,,,,,I,S,O,,48770.200000047684,48767.09999990463,48379.407,48382.200000047684,48396.073,48796.057,,,
Trial,flow.Sequence,1_3_2,2022-02-16T09:03:54.909Z,,,,,,,,,,,,,,,,,,,,,,,,,,,,,,,4620.85699990463,,completion,,,,,,,,,2,,,,,,,,I,S,O,,48770.5,48767.09999990463,44129.577,44128.90000009537,44146.243,48796.057,,,
Sounds,html.Screen,1_3_3_0,2022-02-16T09:03:59.170Z,,,,,,,,,,,,,,,,,,,,,,,,,,,,,,,4249.830000000002,,timeout,,,,,,,,,2,,,,,,,,O,S,I,,53031,53029.221,48779.391,48770.700000047684,48796.057,53045.887,,,
Judgement,html.Screen,1_3_3_1,2022-02-16T09:03:59.509Z,,,,,,,,,,,,,,,,,,,,,,,,,,,,true,2,,321.513000095365,,response,,,,,,,,,2,,2,click #choice-2,,,,,O,S,I,,53370.5,53367.40000009537,53029.221,53031.200000047684,53045.887,53395.873,,,
Trial,flow.Sequence,1_3_3,2022-02-16T09:03:59.510Z,,,,,,,,,,,,,,,,,,,,,,,,,,,,,,,4571.343000095367,,completion,,,,,,,,,2,,,,,,,,O,S,I,,53370.700000047684,53367.40000009537,48779.391,48770.700000047684,48796.057,53395.873,,,
Sounds,html.Screen,1_3_4_0,2022-02-16T09:04:03.771Z,,,,,,,,,,,,,,,,,,,,,,,,,,,,,,,4249.830000000002,,timeout,,,,,,,,,3,,,,,,,,I,O,S,,57631.799999952316,57629.037,53379.207,53370.90000009537,53395.873,57645.703,,,
Judgement,html.Screen,1_3_4_1,2022-02-16T09:04:04.440Z,,,,,,,,,,,,,,,,,,,,,,,,,,,,true,3,,654.596999952315,,response,,,,,,,,,3,,3,click #choice-3,,,,,I,O,S,,58301.5,58300.299999952316,57629.037,57631.90000009537,57645.703,58312.343,,,
Trial,flow.Sequence,1_3_4,2022-02-16T09:04:04.440Z,,,,,,,,,,,,,,,,,,,,,,,,,,,,,,,4904.426999952317,,completion,,,,,,,,,3,,,,,,,,I,O,S,,58301.59999990463,58300.299999952316,53379.207,53370.90000009537,53395.873,58312.343,,,
Sounds,html.Screen,1_3_5_0,2022-02-16T09:04:08.687Z,,,,,,,,,,,,,,,,,,,,,,,,,,,,,,,4249.830000000002,,timeout,,,,,,,,,1,,,,,,,,S,I,O,,62548.09999990463,62545.507,58295.677,58301.700000047684,58312.343,62562.173,,,
Judgement,html.Screen,1_3_5_1,2022-02-16T09:04:09.173Z,,,,,,,,,,,,,,,,,,,,,,,,,,,,true,1,,469.6269999523138,,response,,,,,,,,,1,,1,click #choice-1,,,,,S,I,O,,63034.59999990463,63031.799999952316,62545.507,62548.40000009537,62562.173,63045.487,,,
Trial,flow.Sequence,1_3_5,2022-02-16T09:04:09.174Z,,,,,,,,,,,,,,,,,,,,,,,,,,,,,,,4719.4569999523155,,completion,,,,,,,,,1,,,,,,,,S,I,O,,63035,63031.799999952316,58295.677,58301.700000047684,58312.343,63045.487,,,
Task,flow.Loop,1_3,2022-02-16T09:04:09.181Z,,,,,,,,,,,,,,,,,,,,,,,,,,,,,,,29251.808999952314,,completion,,,1,,,,,,,,,,,,,,,,,,63041.700000047684,63031.799999952316,33763.325,33759.40000009537,33779.991,63045.487,,,
Trap,html.Screen,1_4,2022-02-16T09:04:09.182Z,,,,,,,,,,,,,,,,,,,,,,,,,,,,,,,NaN,,skipped,,,,,,,,,,,,,,,,,,,,,63042.90000009537,63031.799999952316,,63042.799999952316,,63045.487,,,
Thanks,html.Screen,1_5,2022-02-16T09:04:11.185Z,,,,,,,,,,,,,,,,,,,,,,,,,,,,,,,1998.012999999999,,response,,,,,,,,,,,continue,click button,,,,,,,,,65046.09999990463,65043.5,63028.821,63043.09999990463,63045.487,67178.655,,,
Headphone screening,flow.Sequence,1,2022-02-16T09:04:11.185Z,,,,,,,,,,,,,,,,,,,,,,,,,,,,,,,48529.485,,completion,,,,,,,,,,,,,,,,,,,,,65046.200000047684,65043.5,16497.349,16489.900000095367,16514.015,67178.655,,,
Instructions,html.Page,2_0,2022-02-16T09:04:20.698Z,,,,,,,,,,,,,,,,,,,,,,,,,,,,,,,7379.845000000001,,form submission,,,,,,,,,,,,,,,,,,,,,74559,74558.5,67161.989,67172.59999990463,67178.655,74584.355,,,
Holding screen,html.Screen,2_1_0_0,2022-02-16T09:04:30.713Z,,,,,,,,,,,,,,,,,,,,,,,,,,,,,,,9999.600000000006,,timeout,,,,,,,,,,,,,,,,,,,,,84574.09999990463,84567.289,74567.689,74559.29999995232,74584.355,84583.955,,,
screen,html.Screen,2_1_0_1_0,2022-02-16T09:04:31.659Z,,,,,,,,,,,,,,,,,53,,,,,,,,,,,,,,927.745000047682,,response,,,,99,,,,,,,Space,keypress(Space),,,,,,,,When -- ----- -- ------ - ------- --- ----------<br>------------- ------ ------ ---- ---- ------- ----- -- ----<br>-------- ------- -- ---------- --- - --- ----- ----- ----<br>---- --- --- ----- --- ---- ---- ------- ----- ---- -------<br>--- --- -- ----- -- --- ---- -- --- ---- -- ------ ------<br>--- ----- -- ----,85520.40000009537,85511.70000004768,84567.289,84574.40000009537,84583.955,85533.917,,0,When
screen,html.Screen,2_1_0_1_1,2022-02-16T09:04:31.991Z,,,,,,,,,,,,,,,,,53,,,,,,,,,,,,,,313.5829999999987,,response,,,,99,,,,,,,Space,keypress(Space),,,,,,,,---- it ----- -- ------ - ------- --- ----------<br>------------- ------ ------ ---- ---- ------- ----- -- ----<br>-------- ------- -- ---------- --- - --- ----- ----- ----<br>---- --- --- ----- --- ---- ---- ------- ----- ---- -------<br>--- --- -- ----- -- --- ---- -- --- ---- -- ------ ------<br>--- ----- -- ----,85852.5,85847.5,85517.251,85520.5,85533.917,85867.237,,1,it
screen,html.Screen,2_1_0_1_2,2022-02-16T09:04:32.399Z,,,,,,,,,,,,,,,,,53,,,,,,,,,,,,,,388.96300004769,,response,,,,99,,,,,,,Space,keypress(Space),,,,,,,,---- -- comes -- ------ - ------- --- ----------<br>------------- ------ ------ ---- ---- ------- ----- -- ----<br>-------- ------- -- ---------- --- - --- ----- ----- ----<br>---- --- --- ----- --- ---- ---- ------- ----- ---- -------<br>--- --- -- ----- -- --- ---- -- --- ---- -- ------ ------<br>--- ----- -- ----,86259.79999995232,86256.20000004768,85850.571,85852.70000004768,85867.237,86267.221,,2,comes
screen,html.Screen,2_1_0_1_3,2022-02-16T09:04:32.751Z,,,,,,,,,,,,,,,,,53,,,,,,,,,,,,,,340.87899990462756,,response,,,,99,,,,,,,Space,keypress(Space),,,,,,,,---- -- ----- to ------ - ------- --- ----------<br>------------- ------ ------ ---- ---- ------- ----- -- ----<br>-------- ------- -- ---------- --- - --- ----- ----- ----<br>---- --- --- ----- --- ---- ---- ------- ----- ---- -------<br>--- --- -- ----- -- --- ---- -- --- ---- -- ------ ------<br>--- ----- -- ----,86612,86608.09999990463,86250.555,86260,86267.221,86617.207,,3,to
screen,html.Screen,2_1_0_1_4,2022-02-16T09:04:33.103Z,,,,,,,,,,,,,,,,,53,,,,,,,,,,,,,,342.0929999523214,,response,,,,99,,,,,,,Space,keypress(Space),,,,,,,,---- -- ----- -- having - ------- --- ----------<br>------------- ------ ------ ---- ---- ------- ----- -- ----<br>-------- ------- -- ---------- --- - --- ----- ----- ----<br>---- --- --- ----- --- ---- ---- ------- ----- ---- -------<br>--- --- -- ----- -- --- ---- -- --- ---- -- ------ ------<br>--- ----- -- ----,86964.40000009537,86959.29999995232,86600.541,86612.09999990463,86617.207,86967.193,,4,having
screen,html.Screen,2_1_0_1_5,2022-02-16T09:04:33.458Z,,,,,,,,,,,,,,,,,53,,,,,,,,,,,,,,346.90699990463327,,response,,,,99,,,,,,,Space,keypress(Space),,,,,,,,---- -- ----- -- ------ a ------- --- ----------<br>------------- ------ ------ ---- ---- ------- ----- -- ----<br>-------- ------- -- ---------- --- - --- ----- ----- ----<br>---- --- --- ----- --- ---- ---- ------- ----- ---- -------<br>--- --- -- ----- -- --- ---- -- --- ---- -- ------ ------<br>--- ----- -- ----,87318.90000009537,87314.09999990463,86950.527,86964.59999990463,86967.193,87333.845,,5,a
screen,html.Screen,2_1_0_1_6,2022-02-16T09:04:33.789Z,,,,,,,,,,,,,,,,,53,,,,,,,,,,,,,,311.4549999523151,,response,,,,99,,,,,,,Space,keypress(Space),,,,,,,,---- -- ----- -- ------ - lasting --- ----------<br>------------- ------ ------ ---- ---- ------- ----- -- ----<br>-------- ------- -- ---------- --- - --- ----- ----- ----<br>---- --- --- ----- --- ---- ---- ------- ----- ---- -------<br>--- --- -- ----- -- --- ---- -- --- ---- -- ------ ------<br>--- ----- -- ----,87650.29999995232,87645.29999995232,87317.179,87319.09999990463,87333.845,87667.165,,6,lasting
screen,html.Screen,2_1_0_1_7,2022-02-16T09:04:34.093Z,,,,,,,,,,,,,,,,,53,,,,,,,,,,,,,,281.1349999523227,,response,,,,99,,,,,,,Space,keypress(Space),,,,,,,,---- -- ----- -- ------ - ------- and ----------<br>------------- ------ ------ ---- ---- ------- ----- -- ----<br>-------- ------- -- ---------- --- - --- ----- ----- ----<br>---- --- --- ----- --- ---- ---- ------- ----- ---- -------<br>--- --- -- ----- -- --- ---- -- --- ---- -- ------ ------<br>--- ----- -- ----,87953.90000009537,87948.29999995232,87650.499,87650.5,87667.165,87967.153,,7,and
screen,html.Screen,2_1_0_1_8,2022-02-16T09:04:34.408Z,,,,,,,,,,,,,,,,,53,,,,,,,,,,,,,,297.047000047678,,response,,,,99,,,,,,,Space,keypress(Space),,,,,,,,---- -- ----- -- ------ - ------- --- fulfilling<br>------------- ------ ------ ---- ---- ------- ----- -- ----<br>-------- ------- -- ---------- --- - --- ----- ----- ----<br>---- --- --- ----- --- ---- ---- ------- ----- ---- -------<br>--- --- -- ----- -- --- ---- -- --- ---- -- ------ ------<br>--- ----- -- ----,88269.20000004768,88264.20000004768,87950.487,87954.09999990463,87967.153,88283.807,,8,fulfilling
screen,html.Screen,2_1_0_1_9,2022-02-16T09:04:34.733Z,,,,,,,,,,,,,,,,,53,,,,,,,,,,,,,,305.4929999523156,,response,,,,99,,,,,,,Space,keypress(Space),,,,,,,,"---- -- ----- -- ------ - ------- --- ----------<br>relationship, ------ ------ ---- ---- ------- ----- -- ----<br>-------- ------- -- ---------- --- - --- ----- ----- ----<br>---- --- --- ----- --- ---- ---- ------- ----- ---- -------<br>--- --- -- ----- -- --- ---- -- --- ---- -- ------ ------<br>--- ----- -- ----",88594.5,88589.29999995232,88267.141,88269.40000009537,88283.807,88600.461,,9,"relationship,"
screen,html.Screen,2_1_0_1_10,2022-02-16T09:04:34.910Z,,,,,,,,,,,,,,,,,53,,,,,,,,,,,,,,165.8389999523206,,response,,,,99,,,,,,,Space,keypress(Space),,,,,,,,---- -- ----- -- ------ - ------- --- ----------<br>------------- common ------ ---- ---- ------- ----- -- ----<br>-------- ------- -- ---------- --- - --- ----- ----- ----<br>---- --- --- ----- --- ---- ---- ------- ----- ---- -------<br>--- --- -- ----- -- --- ---- -- --- ---- -- ------ ------<br>--- ----- -- ----,88771.40000009537,88766.29999995232,88583.795,88594.70000004768,88600.461,88783.787,,10,common
screen,html.Screen,2_1_0_1_11,2022-02-16T09:04:35.086Z,,,,,,,,,,,,,,,,,53,,,,,,,,,,,,,,158.6130000953708,,response,,,,99,,,,,,,Space,keypress(Space),,,,,,,,---- -- ----- -- ------ - ------- --- ----------<br>------------- ------ wisdom ---- ---- ------- ----- -- ----<br>-------- ------- -- ---------- --- - --- ----- ----- ----<br>---- --- --- ----- --- ---- ---- ------- ----- ---- -------<br>--- --- -- ----- -- --- ---- -- --- ---- -- ------ ------<br>--- ----- -- ----,88947.70000004768,88942.40000009537,88767.121,88771.59999990463,88783.787,88950.447,,11,wisdom
screen,html.Screen,2_1_0_1_12,2022-02-16T09:04:35.624Z,,,,,,,,,,,,,,,,,53,,,,,,,,,,,,,,530.6529999046325,,response,,,,99,,,,,,,Space,keypress(Space),,,,,,,,---- -- ----- -- ------ - ------- --- ----------<br>------------- ------ ------ says ---- ------- ----- -- ----<br>-------- ------- -- ---------- --- - --- ----- ----- ----<br>---- --- --- ----- --- ---- ---- ------- ----- ---- -------<br>--- --- -- ----- -- --- ---- -- --- ---- -- ------ ------<br>--- ----- -- ----,89485.70000004768,89481.09999990463,88933.781,88947.79999995232,88950.447,89500.425,,12,says
screen,html.Screen,2_1_0_1_13,2022-02-16T09:04:35.981Z,,,,,,,,,,,,,,,,,53,,,,,,,,,,,,,,335.7750000476808,,response,,,,99,,,,,,,Space,keypress(Space),,,,,,,,---- -- ----- -- ------ - ------- --- ----------<br>------------- ------ ------ ---- that ------- ----- -- ----<br>-------- ------- -- ---------- --- - --- ----- ----- ----<br>---- --- --- ----- --- ---- ---- ------- ----- ---- -------<br>--- --- -- ----- -- --- ---- -- --- ---- -- ------ ------<br>--- ----- -- ----,89841.70000004768,89836.20000004768,89483.759,89485.79999995232,89500.425,89850.411,,13,that
screen,html.Screen,2_1_0_1_14,2022-02-16T09:04:36.317Z,,,,,,,,,,,,,,,,,53,,,,,,,,,,,,,,321.8889999523235,,response,,,,99,,,,,,,Space,keypress(Space),,,,,,,,---- -- ----- -- ------ - ------- --- ----------<br>------------- ------ ------ ---- ---- feeling ----- -- ----<br>-------- ------- -- ---------- --- - --- ----- ----- ----<br>---- --- --- ----- --- ---- ---- ------- ----- ---- -------<br>--- --- -- ----- -- --- ---- -- --- ---- -- ------ ------<br>--- ----- -- ----,90178,90172.29999995232,89833.745,89841.90000009537,89850.411,90183.731,,14,feeling
screen,html.Screen,2_1_0_1_15,2022-02-16T09:04:36.701Z,,,,,,,,,,,,,,,,,53,,,,,,,,,,,,,,373.3689999046328,,response,,,,99,,,,,,,Space,keypress(Space),,,,,,,,---- -- ----- -- ------ - ------- --- ----------<br>------------- ------ ------ ---- ---- ------- close -- ----<br>-------- ------- -- ---------- --- - --- ----- ----- ----<br>---- --- --- ----- --- ---- ---- ------- ----- ---- -------<br>--- --- -- ----- -- --- ---- -- --- ---- -- ------ ------<br>--- ----- -- ----,90562.70000004768,90557.09999990463,90167.065,90178.20000004768,90183.731,90567.049,,15,close
screen,html.Screen,2_1_0_1_16,2022-02-16T09:04:37.023Z,,,,,,,,,,,,,,,,,53,,,,,,,,,,,,,,312.15100004768465,,response,,,,99,,,,,,,Space,keypress(Space),,,,,,,,---- -- ----- -- ------ - ------- --- ----------<br>------------- ------ ------ ---- ---- ------- ----- to ----<br>-------- ------- -- ---------- --- - --- ----- ----- ----<br>---- --- --- ----- --- ---- ---- ------- ----- ---- -------<br>--- --- -- ----- -- --- ---- -- --- ---- -- ------ ------<br>--- ----- -- ----,90884.5,90879.20000004768,90550.383,90562.79999995232,90567.049,90900.369,,16,to
screen,html.Screen,2_1_0_1_17,2022-02-16T09:04:37.198Z,,,,,,,,,,,,,,,,,53,,,,,,,,,,,,,,153.73099990462651,,response,,,,99,,,,,,,Space,keypress(Space),,,,,,,,---- -- ----- -- ------ - ------- --- ----------<br>------------- ------ ------ ---- ---- ------- ----- -- your<br>-------- ------- -- ---------- --- - --- ----- ----- ----<br>---- --- --- ----- --- ---- ---- ------- ----- ---- -------<br>--- --- -- ----- -- --- ---- -- --- ---- -- ------ ------<br>--- ----- -- ----,91059.20000004768,91054.09999990463,90883.703,90884.70000004768,90900.369,91067.029,,17,your
screen,html.Screen,2_1_0_1_18,2022-02-16T09:04:37.578Z,,,,,,,,,,,,,,,,,53,,,,,,,,,,,,,,367.1710000476887,,response,,,,99,,,,,,,Space,keypress(Space),,,,,,,,---- -- ----- -- ------ - ------- --- ----------<br>------------- ------ ------ ---- ---- ------- ----- -- ----<br>romantic ------- -- ---------- --- - --- ----- ----- ----<br>---- --- --- ----- --- ---- ---- ------- ----- ---- -------<br>--- --- -- ----- -- --- ---- -- --- ---- -- ------ ------<br>--- ----- -- ----,91439.5,91434.20000004768,91050.363,91059.40000009537,91067.029,91450.347,,18,romantic
screen,html.Screen,2_1_0_1_19,2022-02-16T09:04:37.779Z,,,,,,,,,,,,,,,,,53,,,,,,,,,,,,,,183.85300004768942,,response,,,,99,,,,,,,Space,keypress(Space),,,,,,,,---- -- ----- -- ------ - ------- --- ----------<br>------------- ------ ------ ---- ---- ------- ----- -- ----<br>-------- partner -- ---------- --- - --- ----- ----- ----<br>---- --- --- ----- --- ---- ---- ------- ----- ---- -------<br>--- --- -- ----- -- --- ---- -- --- ---- -- ------ ------<br>--- ----- -- ----,91639.70000004768,91634.20000004768,91433.681,91439.59999990463,91450.347,91650.339,,19,partner
screen,html.Screen,2_1_0_1_20,2022-02-16T09:04:37.947Z,,,,,,,,,,,,,,,,,53,,,,,,,,,,,,,,152.66099999999278,,response,,,,99,,,,,,,Space,keypress(Space),,,,,,,,---- -- ----- -- ------ - ------- --- ----------<br>------------- ------ ------ ---- ---- ------- ----- -- ----<br>-------- ------- is ---------- --- - --- ----- ----- ----<br>---- --- --- ----- --- ---- ---- ------- ----- ---- -------<br>--- --- -- ----- -- --- ---- -- --- ---- -- ------ ------<br>--- ----- -- ----,91808.09999990463,91803,91633.673,91639.90000009537,91650.339,91816.999,,20,is
screen,html.Screen,2_1_0_1_21,2022-02-16T09:04:38.179Z,,,,,,,,,,,,,,,,,53,,,,,,,,,,,,,,217.1009999046364,,response,,,,99,,,,,,,Space,keypress(Space),,,,,,,,---- -- ----- -- ------ - ------- --- ----------<br>------------- ------ ------ ---- ---- ------- ----- -- ----<br>-------- ------- -- paramount. --- - --- ----- ----- ----<br>---- --- --- ----- --- ---- ---- ------- ----- ---- -------<br>--- --- -- ----- -- --- ---- -- --- ---- -- ------ ------<br>--- ----- -- ----,92039.59999990463,92034.09999990463,91800.333,91808.40000009537,91816.999,92050.323,,21,paramount.
screen,html.Screen,2_1_0_1_22,2022-02-16T09:04:38.383Z,,,,,,,,,,,,,,,,,53,,,,,,,,,,,,,,188.7769999046286,,response,,,,99,,,,,,,Space,keypress(Space),,,,,,,,---- -- ----- -- ------ - ------- --- ----------<br>------------- ------ ------ ---- ---- ------- ----- -- ----<br>-------- ------- -- ---------- But - --- ----- ----- ----<br>---- --- --- ----- --- ---- ---- ------- ----- ---- -------<br>--- --- -- ----- -- --- ---- -- --- ---- -- ------ ------<br>--- ----- -- ----,92244.29999995232,92239.09999990463,92033.657,92039.90000009537,92050.323,92250.315,,22,But
screen,html.Screen,2_1_0_1_23,2022-02-16T09:04:38.815Z,,,,,,,,,,,,,,,,,53,,,,,,,,,,,,,,420.78499990463024,,response,,,,99,,,,,,,Space,keypress(Space),,,,,,,,---- -- ----- -- ------ - ------- --- ----------<br>------------- ------ ------ ---- ---- ------- ----- -- ----<br>-------- ------- -- ---------- --- a --- ----- ----- ----<br>---- --- --- ----- --- ---- ---- ------- ----- ---- -------<br>--- --- -- ----- -- --- ---- -- --- ---- -- ------ ------<br>--- ----- -- ----,92676.09999990463,92671.09999990463,92233.649,92244.5,92250.315,92683.631,,23,a
screen,html.Screen,2_1_0_1_24,2022-02-16T09:04:38.986Z,,,,,,,,,,,,,,,,,53,,,,,,,,,,,,,,159.46899990463862,,response,,,,99,,,,,,,Space,keypress(Space),,,,,,,,---- -- ----- -- ------ - ------- --- ----------<br>------------- ------ ------ ---- ---- ------- ----- -- ----<br>-------- ------- -- ---------- --- - new ----- ----- ----<br>---- --- --- ----- --- ---- ---- ------- ----- ---- -------<br>--- --- -- ----- -- --- ---- -- --- ---- -- ------ ------<br>--- ----- -- ----,92847.70000004768,92843.09999990463,92666.965,92676.29999995232,92683.631,92850.291,,24,new
screen,html.Screen,2_1_0_1_25,2022-02-16T09:04:39.409Z,,,,,,,,,,,,,,,,,53,,,,,,,,,,,,,,414.70900000000256,,response,,,,99,,,,,,,Space,keypress(Space),,,,,,,,---- -- ----- -- ------ - ------- --- ----------<br>------------- ------ ------ ---- ---- ------- ----- -- ----<br>-------- ------- -- ---------- --- - --- study ----- ----<br>---- --- --- ----- --- ---- ---- ------- ----- ---- -------<br>--- --- -- ----- -- --- ---- -- --- ---- -- ------ ------<br>--- ----- -- ----,93270.5,93265,92833.625,92847.79999995232,92850.291,93283.607,,25,study
screen,html.Screen,2_1_0_1_26,2022-02-16T09:04:39.651Z,,,,,,,,,,,,,,,,,53,,,,,,,,,,,,,,223.3929999999964,,response,,,,99,,,,,,,Space,keypress(Space),,,,,,,,---- -- ----- -- ------ - ------- --- ----------<br>------------- ------ ------ ---- ---- ------- ----- -- ----<br>-------- ------- -- ---------- --- - --- ----- finds ----<br>---- --- --- ----- --- ---- ---- ------- ----- ---- -------<br>--- --- -- ----- -- --- ---- -- --- ---- -- ------ ------<br>--- ----- -- ----,93512.09999990463,93507,93266.941,93270.70000004768,93283.607,93516.931,,26,finds
screen,html.Screen,2_1_0_1_27,2022-02-16T09:04:39.999Z,,,,,,,,,,,,,,,,,53,,,,,,,,,,,,,,338.06900000000314,,response,,,,99,,,,,,,Space,keypress(Space),,,,,,,,---- -- ----- -- ------ - ------- --- ----------<br>------------- ------ ------ ---- ---- ------- ----- -- ----<br>-------- ------- -- ---------- --- - --- ----- ----- that<br>---- --- --- ----- --- ---- ---- ------- ----- ---- -------<br>--- --- -- ----- -- --- ---- -- --- ---- -- ------ ------<br>--- ----- -- ----,93860.5,93855,93500.265,93512.40000009537,93516.931,93866.917,,27,that
screen,html.Screen,2_1_0_1_28,2022-02-16T09:04:40.346Z,,,,,,,,,,,,,,,,,53,,,,,,,,,,,,,,336.1829999046313,,response,,,,99,,,,,,,Space,keypress(Space),,,,,,,,---- -- ----- -- ------ - ------- --- ----------<br>------------- ------ ------ ---- ---- ------- ----- -- ----<br>-------- ------- -- ---------- --- - --- ----- ----- ----<br>it's --- --- ----- --- ---- ---- ------- ----- ---- -------<br>--- --- -- ----- -- --- ---- -- --- ---- -- ------ ------<br>--- ----- -- ----,94207.40000009537,94203.09999990463,93850.251,93860.70000004768,93866.917,94216.903,,28,it's
screen,html.Screen,2_1_0_1_29,2022-02-16T09:04:40.794Z,,,,,,,,,,,,,,,,,53,,,,,,,,,,,,,,433.0969999999943,,response,,,,99,,,,,,,Space,keypress(Space),,,,,,,,---- -- ----- -- ------ - ------- --- ----------<br>------------- ------ ------ ---- ---- ------- ----- -- ----<br>-------- ------- -- ---------- --- - --- ----- ----- ----<br>---- not --- ----- --- ---- ---- ------- ----- ---- -------<br>--- --- -- ----- -- --- ---- -- --- ---- -- ------ ------<br>--- ----- -- ----,94655.5,94650,94200.237,94207.5,94216.903,94666.885,,29,not
screen,html.Screen,2_1_0_1_30,2022-02-16T09:04:40.982Z,,,,,,,,,,,,,,,,,53,,,,,,,,,,,,,,171.11500000000524,,response,,,,99,,,,,,,Space,keypress(Space),,,,,,,,---- -- ----- -- ------ - ------- --- ----------<br>------------- ------ ------ ---- ---- ------- ----- -- ----<br>-------- ------- -- ---------- --- - --- ----- ----- ----<br>---- --- how ----- --- ---- ---- ------- ----- ---- -------<br>--- --- -- ----- -- --- ---- -- --- ---- -- ------ ------<br>--- ----- -- ----,94843.09999990463,94838,94650.219,94655.59999990463,94666.885,94850.211,,30,how
screen,html.Screen,2_1_0_1_31,2022-02-16T09:04:41.161Z,,,,,,,,,,,,,,,,,53,,,,,,,,,,,,,,166.7890000000043,,response,,,,99,,,,,,,Space,keypress(Space),,,,,,,,---- -- ----- -- ------ - ------- --- ----------<br>------------- ------ ------ ---- ---- ------- ----- -- ----<br>-------- ------- -- ---------- --- - --- ----- ----- ----<br>---- --- --- close --- ---- ---- ------- ----- ---- -------<br>--- --- -- ----- -- --- ---- -- --- ---- -- ------ ------<br>--- ----- -- ----,95022.5,95017,94833.545,94843.29999995232,94850.211,95033.537,,31,close
screen,html.Screen,2_1_0_1_32,2022-02-16T09:04:41.490Z,,,,,,,,,,,,,,,,,53,,,,,,,,,,,,,,312.4630000000034,,response,,,,99,,,,,,,Space,keypress(Space),,,,,,,,---- -- ----- -- ------ - ------- --- ----------<br>------------- ------ ------ ---- ---- ------- ----- -- ----<br>-------- ------- -- ---------- --- - --- ----- ----- ----<br>---- --- --- ----- you ---- ---- ------- ----- ---- -------<br>--- --- -- ----- -- --- ---- -- --- ---- -- ------ ------<br>--- ----- -- ----,95351.40000009537,95346,95016.871,95022.59999990463,95033.537,95366.857,,32,you
screen,html.Screen,2_1_0_1_33,2022-02-16T09:04:41.811Z,,,,,,,,,,,,,,,,,53,,,,,,,,,,,,,,299.0430000953638,,response,,,,99,,,,,,,Space,keypress(Space),,,,,,,,---- -- ----- -- ------ - ------- --- ----------<br>------------- ------ ------ ---- ---- ------- ----- -- ----<br>-------- ------- -- ---------- --- - --- ----- ----- ----<br>---- --- --- ----- --- feel ---- ------- ----- ---- -------<br>--- --- -- ----- -- --- ---- -- --- ---- -- ------ ------<br>--- ----- -- ----,95671.79999995232,95665.90000009537,95350.191,95351.59999990463,95366.857,95683.511,,33,feel
screen,html.Screen,2_1_0_1_34,2022-02-16T09:04:42.207Z,,,,,,,,,,,,,,,,,53,,,,,,,,,,,,,,379.38900009536883,,response,,,,99,,,,,,,Space,keypress(Space),,,,,,,,---- -- ----- -- ------ - ------- --- ----------<br>------------- ------ ------ ---- ---- ------- ----- -- ----<br>-------- ------- -- ---------- --- - --- ----- ----- ----<br>---- --- --- ----- --- ---- that ------- ----- ---- -------<br>--- --- -- ----- -- --- ---- -- --- ---- -- ------ ------<br>--- ----- -- ----,96068.09999990463,96062.90000009537,95666.845,95671.90000009537,95683.511,96083.495,,34,that
screen,html.Screen,2_1_0_1_35,2022-02-16T09:04:42.613Z,,,,,,,,,,,,,,,,,53,,,,,,,,,,,,,,385.50500000000466,,response,,,,99,,,,,,,Space,keypress(Space),,,,,,,,---- -- ----- -- ------ - ------- --- ----------<br>------------- ------ ------ ---- ---- ------- ----- -- ----<br>-------- ------- -- ---------- --- - --- ----- ----- ----<br>---- --- --- ----- --- ---- ---- matters ----- ---- -------<br>--- --- -- ----- -- --- ---- -- --- ---- -- ------ ------<br>--- ----- -- ----,96473.90000009537,96469,96066.829,96068.20000004768,96083.495,96483.479,,35,matters
screen,html.Screen,2_1_0_1_36,2022-02-16T09:04:43.027Z,,,,,,,,,,,,,,,,,53,,,,,,,,,,,,,,399.4210000953608,,response,,,,99,,,,,,,Space,keypress(Space),,,,,,,,"---- -- ----- -- ------ - ------- --- ----------<br>------------- ------ ------ ---- ---- ------- ----- -- ----<br>-------- ------- -- ---------- --- - --- ----- ----- ----<br>---- --- --- ----- --- ---- ---- ------- most, ---- -------<br>--- --- -- ----- -- --- ---- -- --- ---- -- ------ ------<br>--- ----- -- ----",96888.20000004768,96882.90000009537,96466.813,96474.20000004768,96483.479,96900.129,,36,"most,"
screen,html.Screen,2_1_0_1_37,2022-02-16T09:04:43.397Z,,,,,,,,,,,,,,,,,53,,,,,,,,,,,,,,352.7710000953666,,response,,,,99,,,,,,,Space,keypress(Space),,,,,,,,---- -- ----- -- ------ - ------- --- ----------<br>------------- ------ ------ ---- ---- ------- ----- -- ----<br>-------- ------- -- ---------- --- - --- ----- ----- ----<br>---- --- --- ----- --- ---- ---- ------- ----- it's -------<br>--- --- -- ----- -- --- ---- -- --- ---- -- ------ ------<br>--- ----- -- ----,97257.90000009537,97252.90000009537,96883.463,96888.40000009537,96900.129,97266.781,,37,it's
screen,html.Screen,2_1_0_1_38,2022-02-16T09:04:43.753Z,,,,,,,,,,,,,,,,,53,,,,,,,,,,,,,,342.11900009536475,,response,,,,99,,,,,,,Space,keypress(Space),,,,,,,,---- -- ----- -- ------ - ------- --- ----------<br>------------- ------ ------ ---- ---- ------- ----- -- ----<br>-------- ------- -- ---------- --- - --- ----- ----- ----<br>---- --- --- ----- --- ---- ---- ------- ----- ---- whether<br>--- --- -- ----- -- --- ---- -- --- ---- -- ------ ------<br>--- ----- -- ----,97613.90000009537,97608.90000009537,97250.115,97258.09999990463,97266.781,97616.767,,38,whether
screen,html.Screen,2_1_0_1_39,2022-02-16T09:04:44.341Z,,,,,,,,,,,,,,,,,53,,,,,,,,,,,,,,579.1330000953603,,response,,,,99,,,,,,,Space,keypress(Space),,,,,,,,---- -- ----- -- ------ - ------- --- ----------<br>------------- ------ ------ ---- ---- ------- ----- -- ----<br>-------- ------- -- ---------- --- - --- ----- ----- ----<br>---- --- --- ----- --- ---- ---- ------- ----- ---- -------<br>you --- -- ----- -- --- ---- -- --- ---- -- ------ ------<br>--- ----- -- ----,98201.90000009537,98195.90000009537,97600.101,97614.09999990463,97616.767,98216.743,,39,you
screen,html.Screen,2_1_0_1_40,2022-02-16T09:04:44.780Z,,,,,,,,,,,,,,,,,53,,,,,,,,,,,,,,418.9570000476815,,response,,,,99,,,,,,,Space,keypress(Space),,,,,,,,---- -- ----- -- ------ - ------- --- ----------<br>------------- ------ ------ ---- ---- ------- ----- -- ----<br>-------- ------- -- ---------- --- - --- ----- ----- ----<br>---- --- --- ----- --- ---- ---- ------- ----- ---- -------<br>--- are -- ----- -- --- ---- -- --- ---- -- ------ ------<br>--- ----- -- ----,98641.09999990463,98635.70000004768,98200.077,98202.09999990463,98216.743,98650.059,,40,are
screen,html.Screen,2_1_0_1_41,2022-02-16T09:04:45.183Z,,,,,,,,,,,,,,,,,53,,,,,,,,,,,,,,388.8410000953736,,response,,,,99,,,,,,,Space,keypress(Space),,,,,,,,---- -- ----- -- ------ - ------- --- ----------<br>------------- ------ ------ ---- ---- ------- ----- -- ----<br>-------- ------- -- ---------- --- - --- ----- ----- ----<br>---- --- --- ----- --- ---- ---- ------- ----- ---- -------<br>--- --- as ----- -- --- ---- -- --- ---- -- ------ ------<br>--- ----- -- ----,99044.40000009537,99038.90000009537,98633.393,98641.40000009537,98650.059,99050.043,,41,as
screen,html.Screen,2_1_0_1_42,2022-02-16T09:04:45.422Z,,,,,,,,,,,,,,,,,53,,,,,,,,,,,,,,227.75699995231116,,response,,,,99,,,,,,,Space,keypress(Space),,,,,,,,---- -- ----- -- ------ - ------- --- ----------<br>------------- ------ ------ ---- ---- ------- ----- -- ----<br>-------- ------- -- ---------- --- - --- ----- ----- ----<br>---- --- --- ----- --- ---- ---- ------- ----- ---- -------<br>--- --- -- close -- --- ---- -- --- ---- -- ------ ------<br>--- ----- -- ----,99283.40000009537,99277.79999995232,99033.377,99044.59999990463,99050.043,99300.033,,42,close
screen,html.Screen,2_1_0_1_43,2022-02-16T09:04:45.675Z,,,,,,,,,,,,,,,,,53,,,,,,,,,,,,,,230.76699995232048,,response,,,,99,,,,,,,Space,keypress(Space),,,,,,,,---- -- ----- -- ------ - ------- --- ----------<br>------------- ------ ------ ---- ---- ------- ----- -- ----<br>-------- ------- -- ---------- --- - --- ----- ----- ----<br>---- --- --- ----- --- ---- ---- ------- ----- ---- -------<br>--- --- -- ----- as --- ---- -- --- ---- -- ------ ------<br>--- ----- -- ----,99536.29999995232,99530.79999995232,99283.367,99283.59999990463,99300.033,99550.023,,43,as
screen,html.Screen,2_1_0_1_44,2022-02-16T09:04:46.024Z,,,,,,,,,,,,,,,,,53,,,,,,,,,,,,,,330.5769999046315,,response,,,,99,,,,,,,Space,keypress(Space),,,,,,,,---- -- ----- -- ------ - ------- --- ----------<br>------------- ------ ------ ---- ---- ------- ----- -- ----<br>-------- ------- -- ---------- --- - --- ----- ----- ----<br>---- --- --- ----- --- ---- ---- ------- ----- ---- -------<br>--- --- -- ----- -- you ---- -- --- ---- -- ------ ------<br>--- ----- -- ----,99884.90000009537,99880.59999990463,99533.357,99536.5,99550.023,99900.009,,44,you
screen,html.Screen,2_1_0_1_45,2022-02-16T09:04:46.374Z,,,,,,,,,,,,,,,,,53,,,,,,,,,,,,,,330.5909999046271,,response,,,,99,,,,,,,Space,keypress(Space),,,,,,,,---- -- ----- -- ------ - ------- --- ----------<br>------------- ------ ------ ---- ---- ------- ----- -- ----<br>-------- ------- -- ---------- --- - --- ----- ----- ----<br>---- --- --- ----- --- ---- ---- ------- ----- ---- -------<br>--- --- -- ----- -- --- want -- --- ---- -- ------ ------<br>--- ----- -- ----,100235.59999990463,100230.59999990463,99883.343,99885,99900.009,100249.995,,45,want
screen,html.Screen,2_1_0_1_46,2022-02-16T09:04:46.619Z,,,,,,,,,,,,,,,,,53,,,,,,,,,,,,,,225.70500004768837,,response,,,,99,,,,,,,Space,keypress(Space),,,,,,,,---- -- ----- -- ------ - ------- --- ----------<br>------------- ------ ------ ---- ---- ------- ----- -- ----<br>-------- ------- -- ---------- --- - --- ----- ----- ----<br>---- --- --- ----- --- ---- ---- ------- ----- ---- -------<br>--- --- -- ----- -- --- ---- to --- ---- -- ------ ------<br>--- ----- -- ----,100480.59999990463,100475.70000004768,100233.329,100235.79999995232,100249.995,100483.319,,46,to
screen,html.Screen,2_1_0_1_47,2022-02-16T09:04:46.881Z,,,,,,,,,,,,,,,,,53,,,,,,,,,,,,,,253.48099995231314,,response,,,,99,,,,,,,Space,keypress(Space),,,,,,,,"---- -- ----- -- ------ - ------- --- ----------<br>------------- ------ ------ ---- ---- ------- ----- -- ----<br>-------- ------- -- ---------- --- - --- ----- ----- ----<br>---- --- --- ----- --- ---- ---- ------- ----- ---- -------<br>--- --- -- ----- -- --- ---- -- be, ---- -- ------ ------<br>--- ----- -- ----",100742,100736.79999995232,100466.653,100480.70000004768,100483.319,100749.975,,47,"be,"
screen,html.Screen,2_1_0_1_48,2022-02-16T09:04:47.291Z,,,,,,,,,,,,,,,,,53,,,,,,,,,,,,,,396.82499995231046,,response,,,,99,,,,,,,Space,keypress(Space),,,,,,,,---- -- ----- -- ------ - ------- --- ----------<br>------------- ------ ------ ---- ---- ------- ----- -- ----<br>-------- ------- -- ---------- --- - --- ----- ----- ----<br>---- --- --- ----- --- ---- ---- ------- ----- ---- -------<br>--- --- -- ----- -- --- ---- -- --- even -- ------ ------<br>--- ----- -- ----,101152.29999995232,101146.79999995232,100733.309,100742.09999990463,100749.975,101166.625,,48,even
screen,html.Screen,2_1_0_1_49,2022-02-16T09:04:47.696Z,,,,,,,,,,,,,,,,,53,,,,,,,,,,,,,,385.0750000476837,,response,,,,99,,,,,,,Space,keypress(Space),,,,,,,,---- -- ----- -- ------ - ------- --- ----------<br>------------- ------ ------ ---- ---- ------- ----- -- ----<br>-------- ------- -- ---------- --- - --- ----- ----- ----<br>---- --- --- ----- --- ---- ---- ------- ----- ---- -------<br>--- --- -- ----- -- --- ---- -- --- ---- if ------ ------<br>--- ----- -- ----,101556.79999995232,101551.70000004768,101149.959,101152.5,101166.625,101566.609,,49,if
screen,html.Screen,2_1_0_1_50,2022-02-16T09:04:48.051Z,,,,,,,,,,,,,,,,,53,,,,,,,,,,,,,,340.091000047687,,response,,,,99,,,,,,,Space,keypress(Space),,,,,,,,---- -- ----- -- ------ - ------- --- ----------<br>------------- ------ ------ ---- ---- ------- ----- -- ----<br>-------- ------- -- ---------- --- - --- ----- ----- ----<br>---- --- --- ----- --- ---- ---- ------- ----- ---- -------<br>--- --- -- ----- -- --- ---- -- --- ---- -- that's ------<br>--- ----- -- ----,101912.29999995232,101906.70000004768,101549.943,101557,101566.609,101916.595,,50,that's
screen,html.Screen,2_1_0_1_51,2022-02-16T09:04:48.364Z,,,,,,,,,,,,,,,,,53,,,,,,,,,,,,,,303.5049999046314,,response,,,,99,,,,,,,Space,keypress(Space),,,,,,,,---- -- ----- -- ------ - ------- --- ----------<br>------------- ------ ------ ---- ---- ------- ----- -- ----<br>-------- ------- -- ---------- --- - --- ----- ----- ----<br>---- --- --- ----- --- ---- ---- ------- ----- ---- -------<br>--- --- -- ----- -- --- ---- -- --- ---- -- ------ really<br>--- ----- -- ----,102225,102220.09999990463,101899.929,101912.5,101916.595,102233.249,,51,really
screen,html.Screen,2_1_0_1_52,2022-02-16T09:04:48.760Z,,,,,,,,,,,,,,,,,53,,,,,,,,,,,,,,383.5509999523201,,response,,,,99,,,,,,,Space,keypress(Space),,,,,,,,---- -- ----- -- ------ - ------- --- ----------<br>------------- ------ ------ ---- ---- ------- ----- -- ----<br>-------- ------- -- ---------- --- - --- ----- ----- ----<br>---- --- --- ----- --- ---- ---- ------- ----- ---- -------<br>--- --- -- ----- -- --- ---- -- --- ---- -- ------ ------<br>not ----- -- ----,102621.59999990463,102616.79999995232,102216.583,102225.09999990463,102233.249,102633.233,,52,not
screen,html.Screen,2_1_0_1_53,2022-02-16T09:04:49.091Z,,,,,,,,,,,,,,,,,53,,,,,,,,,,,,,,313.4670000476908,,response,,,,99,,,,,,,Space,keypress(Space),,,,,,,,---- -- ----- -- ------ - ------- --- ----------<br>------------- ------ ------ ---- ---- ------- ----- -- ----<br>-------- ------- -- ---------- --- - --- ----- ----- ----<br>---- --- --- ----- --- ---- ---- ------- ----- ---- -------<br>--- --- -- ----- -- --- ---- -- --- ---- -- ------ ------<br>--- close -- ----,102952.20000004768,102946.70000004768,102616.567,102621.90000009537,102633.233,102966.553,,53,close
screen,html.Screen,2_1_0_1_54,2022-02-16T09:04:49.513Z,,,,,,,,,,,,,,,,,53,,,,,,,,,,,,,,403.0469999046327,,response,,,,99,,,,,,,Space,keypress(Space),,,,,,,,---- -- ----- -- ------ - ------- --- ----------<br>------------- ------ ------ ---- ---- ------- ----- -- ----<br>-------- ------- -- ---------- --- - --- ----- ----- ----<br>---- --- --- ----- --- ---- ---- ------- ----- ---- -------<br>--- --- -- ----- -- --- ---- -- --- ---- -- ------ ------<br>--- ----- at ----,103374.70000004768,103369.59999990463,102949.887,102952.40000009537,102966.553,103383.203,,54,at
screen,html.Screen,2_1_0_1_55,2022-02-16T09:04:49.908Z,,,,,,,,,,,,,,,,,53,,,,,,,,,,,,,,380.3969999046385,,response,,,,99,,,,,,,Space,keypress(Space),,,,,,,,---- -- ----- -- ------ - ------- --- ----------<br>------------- ------ ------ ---- ---- ------- ----- -- ----<br>-------- ------- -- ---------- --- - --- ----- ----- ----<br>---- --- --- ----- --- ---- ---- ------- ----- ---- -------<br>--- --- -- ----- -- --- ---- -- --- ---- -- ------ ------<br>--- ----- -- all.,103769.09999990463,103763.59999990463,103366.537,103374.90000009537,103383.203,103783.187,,55,all.
Item 99,flow.Loop,2_1_0_1,2022-02-16T09:04:49.908Z,,,,,,,,,,,,,,,,,,,,,,,,,,,,,,,19179.64499990463,,completion,,,,,C,,,,,,,,,,,silence,,,,,103769.5,103763.59999990463,84567.289,84574.29999995232,84583.955,103783.187,,,
Question 1,html.Screen,2_1_0_2,2022-02-16T09:04:53.051Z,,,,,,,,,,,,,,,,,,,,,,,,,,,,true,FALSE,,3126.3129999999946,,response,,,,99,C,,,,,,FALSE,click #choice-2,,,,silence,,,,,106912.40000009537,106909.5,103766.521,103769.70000004768,103783.187,106933.061,,,
Question 2,html.Screen,2_1_0_3,2022-02-16T09:04:55.402Z,,,,,,,,,,,,,,,,,,,,,,,,,,,,true,TRUE,,2328.2389999523148,,response,,,,99,C,,,,,,TRUE,click #choice-1,,,,silence,,,,,109263.59999990463,109261.29999995232,106916.395,106912.59999990463,106933.061,109282.967,,,
Item 99,flow.Sequence,2_1_0,2022-02-16T09:04:55.403Z,,,,,,,,,,,,,,,,,,,,,,,,,,,,,,,34676.94499995232,,completion,,,,,,,,,,,,,,,,,,,,,109263.90000009537,109261.29999995232,74567.689,74559.20000004768,74584.355,109282.967,,,
Holding screen,html.Screen,2_1_1_0,2022-02-16T09:05:05.413Z,,,,,,,,,,,,,,,,,,,,,,,,,,,,,,,9999.599999999991,,timeout,,,,,,,,,,,,,,,,,,,,,119273.79999995232,119265.901,109266.301,109264,109282.967,119282.567,,,
screen,html.Screen,2_1_1_1_0,2022-02-16T09:05:06.096Z,,,,,,,,,,,,,,,,,54,,,,,,,,,,,,,,670.9330000000045,,response,,,,100,,,,,,,Space,keypress(Space),,,,,,,,At --- ---- --- ------ ----- ------- ---- -- --- ------- --<br>------- ---------- ------ -- ----- -- ----- -- ---- ------<br>--- ----- --- --- ------ -------- ----- --- ------ ----- --<br>----- ----- ---------- --- --- ------ ------ ---- -- ------<br>------- --- ------ ----- --- ---- ------- -- ---- --- --<br>------- ------,119957.5,119953.5,119265.901,119273.90000009537,119282.567,119965.873,,0,At
screen,html.Screen,2_1_1_1_1,2022-02-16T09:05:06.422Z,,,,,,,,,,,,,,,,,54,,,,,,,,,,,,,,313.12699999999313,,response,,,,100,,,,,,,Space,keypress(Space),,,,,,,,-- the ---- --- ------ ----- ------- ---- -- --- ------- --<br>------- ---------- ------ -- ----- -- ----- -- ---- ------<br>--- ----- --- --- ------ -------- ----- --- ------ ----- --<br>----- ----- ---------- --- --- ------ ------ ---- -- ------<br>------- --- ------ ----- --- ---- ------- -- ---- --- --<br>------- ------,120283,120279,119949.207,119957.59999990463,119965.873,120299.193,,1,the
screen,html.Screen,2_1_1_1_2,2022-02-16T09:05:06.638Z,,,,,,,,,,,,,,,,,54,,,,,,,,,,,,,,195.70700009536813,,response,,,,100,,,,,,,Space,keypress(Space),,,,,,,,-- --- time --- ------ ----- ------- ---- -- --- ------- --<br>------- ---------- ------ -- ----- -- ----- -- ---- ------<br>--- ----- --- --- ------ -------- ----- --- ------ ----- --<br>----- ----- ---------- --- --- ------ ------ ---- -- ------<br>------- --- ------ ----- --- ---- ------- -- ---- --- --<br>------- ------,120498.90000009537,120494.90000009537,120282.527,120283.20000004768,120299.193,120515.851,,2,time
screen,html.Screen,2_1_1_1_3,2022-02-16T09:05:06.816Z,,,,,,,,,,,,,,,,,54,,,,,,,,,,,,,,157.1490000000049,,response,,,,100,,,,,,,Space,keypress(Space),,,,,,,,-- --- ---- the ------ ----- ------- ---- -- --- ------- --<br>------- ---------- ------ -- ----- -- ----- -- ---- ------<br>--- ----- --- --- ------ -------- ----- --- ------ ----- --<br>----- ----- ---------- --- --- ------ ------ ---- -- ------<br>------- --- ------ ----- --- ---- ------- -- ---- --- --<br>------- ------,120677,120673,120499.185,120499.09999990463,120515.851,120682.511,,3,the
screen,html.Screen,2_1_1_1_4,2022-02-16T09:05:07.025Z,,,,,,,,,,,,,,,,,54,,,,,,,,,,,,,,199.4890000000014,,response,,,,100,,,,,,,Space,keypress(Space),,,,,,,,-- --- ---- --- French ----- ------- ---- -- --- ------- --<br>------- ---------- ------ -- ----- -- ----- -- ---- ------<br>--- ----- --- --- ------ -------- ----- --- ------ ----- --<br>----- ----- ---------- --- --- ------ ------ ---- -- ------<br>------- --- ------ ----- --- ---- ------- -- ---- --- --<br>------- ------,120886.20000004768,120882,120665.845,120677.09999990463,120682.511,120899.169,,4,French
screen,html.Screen,2_1_1_1_5,2022-02-16T09:05:07.229Z,,,,,,,,,,,,,,,,,54,,,,,,,,,,,,,,186.63099995232187,,response,,,,100,,,,,,,Space,keypress(Space),,,,,,,,-- --- ---- --- ------ crown ------- ---- -- --- ------- --<br>------- ---------- ------ -- ----- -- ----- -- ---- ------<br>--- ----- --- --- ------ -------- ----- --- ------ ----- --<br>----- ----- ---------- --- --- ------ ------ ---- -- ------<br>------- --- ------ ----- --- ---- ------- -- ---- --- --<br>------- ------,121089.90000009537,121085.79999995232,120882.503,120886.40000009537,120899.169,121099.161,,5,crown
screen,html.Screen,2_1_1_1_6,2022-02-16T09:05:07.404Z,,,,,,,,,,,,,,,,,54,,,,,,,,,,,,,,161.9389999046398,,response,,,,100,,,,,,,Space,keypress(Space),,,,,,,,-- --- ---- --- ------ ----- secured ---- -- --- ------- --<br>------- ---------- ------ -- ----- -- ----- -- ---- ------<br>--- ----- --- --- ------ -------- ----- --- ------ ----- --<br>----- ----- ---------- --- --- ------ ------ ---- -- ------<br>------- --- ------ ----- --- ---- ------- -- ---- --- --<br>------- ------,121265.20000004768,121261.09999990463,121082.495,121090.09999990463,121099.161,121282.487,,6,secured
screen,html.Screen,2_1_1_1_7,2022-02-16T09:05:07.757Z,,,,,,,,,,,,,,,,,54,,,,,,,,,,,,,,331.5130000000063,,response,,,,100,,,,,,,Space,keypress(Space),,,,,,,,-- --- ---- --- ------ ----- ------- much -- --- ------- --<br>------- ---------- ------ -- ----- -- ----- -- ---- ------<br>--- ----- --- --- ------ -------- ----- --- ------ ----- --<br>----- ----- ---------- --- --- ------ ------ ---- -- ------<br>------- --- ------ ----- --- ---- ------- -- ---- --- --<br>------- ------,121618.09999990463,121614,121265.821,121265.40000009537,121282.487,121632.473,,7,much
screen,html.Screen,2_1_1_1_8,2022-02-16T09:05:08.022Z,,,,,,,,,,,,,,,,,54,,,,,,,,,,,,,,246.52700000000186,,response,,,,100,,,,,,,Space,keypress(Space),,,,,,,,-- --- ---- --- ------ ----- ------- ---- of --- ------- --<br>------- ---------- ------ -- ----- -- ----- -- ---- ------<br>--- ----- --- --- ------ -------- ----- --- ------ ----- --<br>----- ----- ---------- --- --- ------ ------ ---- -- ------<br>------- --- ------ ----- --- ---- ------- -- ---- --- --<br>------- ------,121883,121879,121615.807,121618.29999995232,121632.473,121899.129,,8,of
screen,html.Screen,2_1_1_1_9,2022-02-16T09:05:08.220Z,,,,,,,,,,,,,,,,,54,,,,,,,,,,,,,,177.77100009536662,,response,,,,100,,,,,,,Space,keypress(Space),,,,,,,,-- --- ---- --- ------ ----- ------- ---- -- its ------- --<br>------- ---------- ------ -- ----- -- ----- -- ---- ------<br>--- ----- --- --- ------ -------- ----- --- ------ ----- --<br>----- ----- ---------- --- --- ------ ------ ---- -- ------<br>------- --- ------ ----- --- ---- ------- -- ---- --- --<br>------- ------,122081.09999990463,122076.90000009537,121882.463,121883.09999990463,121899.129,122082.455,,9,its
screen,html.Screen,2_1_1_1_10,2022-02-16T09:05:08.472Z,,,,,,,,,,,,,,,,,54,,,,,,,,,,,,,,246.44500009536569,,response,,,,100,,,,,,,Space,keypress(Space),,,,,,,,-- --- ---- --- ------ ----- ------- ---- -- --- revenue --<br>------- ---------- ------ -- ----- -- ----- -- ---- ------<br>--- ----- --- --- ------ -------- ----- --- ------ ----- --<br>----- ----- ---------- --- --- ------ ------ ---- -- ------<br>------- --- ------ ----- --- ---- ------- -- ---- --- --<br>------- ------,122333,122328.90000009537,122065.789,122081.20000004768,122082.455,122349.111,,10,revenue
screen,html.Screen,2_1_1_1_11,2022-02-16T09:05:08.882Z,,,,,,,,,,,,,,,,,54,,,,,,,,,,,,,,389.789000095363,,response,,,,100,,,,,,,Space,keypress(Space),,,,,,,,-- --- ---- --- ------ ----- ------- ---- -- --- ------- by<br>------- ---------- ------ -- ----- -- ----- -- ---- ------<br>--- ----- --- --- ------ -------- ----- --- ------ ----- --<br>----- ----- ---------- --- --- ------ ------ ---- -- ------<br>------- --- ------ ----- --- ---- ------- -- ---- --- --<br>------- ------,122742.79999995232,122738.90000009537,122332.445,122333.09999990463,122349.111,122749.095,,11,by
screen,html.Screen,2_1_1_1_12,2022-02-16T09:05:09.105Z,,,,,,,,,,,,,,,,,54,,,,,,,,,,,,,,212.80500009536627,,response,,,,100,,,,,,,Space,keypress(Space),,,,,,,,-- --- ---- --- ------ ----- ------- ---- -- --- ------- --<br>issuing ---------- ------ -- ----- -- ----- -- ---- ------<br>--- ----- --- --- ------ -------- ----- --- ------ ----- --<br>----- ----- ---------- --- --- ------ ------ ---- -- ------<br>------- --- ------ ----- --- ---- ------- -- ---- --- --<br>------- ------,122965.90000009537,122961.90000009537,122732.429,122743.09999990463,122749.095,122982.419,,12,issuing
screen,html.Screen,2_1_1_1_13,2022-02-16T09:05:09.314Z,,,,,,,,,,,,,,,,,54,,,,,,,,,,,,,,188.48100009537302,,response,,,,100,,,,,,,Space,keypress(Space),,,,,,,,-- --- ---- --- ------ ----- ------- ---- -- --- ------- --<br>------- government ------ -- ----- -- ----- -- ---- ------<br>--- ----- --- --- ------ -------- ----- --- ------ ----- --<br>----- ----- ---------- --- --- ------ ------ ---- -- ------<br>------- --- ------ ----- --- ---- ------- -- ---- --- --<br>------- ------,123175,123170.90000009537,122965.753,122966.09999990463,122982.419,123182.411,,13,government
screen,html.Screen,2_1_1_1_14,2022-02-16T09:05:09.579Z,,,,,,,,,,,,,,,,,54,,,,,,,,,,,,,,253.28900004769093,,response,,,,100,,,,,,,Space,keypress(Space),,,,,,,,-- --- ---- --- ------ ----- ------- ---- -- --- ------- --<br>------- ---------- bonds. -- ----- -- ----- -- ---- ------<br>--- ----- --- --- ------ -------- ----- --- ------ ----- --<br>----- ----- ---------- --- --- ------ ------ ---- -- ------<br>------- --- ------ ----- --- ---- ------- -- ---- --- --<br>------- ------,123439.79999995232,123435.70000004768,123165.745,123175.09999990463,123182.411,123449.067,,14,bonds.
screen,html.Screen,2_1_1_1_15,2022-02-16T09:05:10.035Z,,,,,,,,,,,,,,,,,54,,,,,,,,,,,,,,442.833000095372,,response,,,,100,,,,,,,Space,keypress(Space),,,,,,,,-- --- ---- --- ------ ----- ------- ---- -- --- ------- --<br>------- ---------- ------ In ----- -- ----- -- ---- ------<br>--- ----- --- --- ------ -------- ----- --- ------ ----- --<br>----- ----- ---------- --- --- ------ ------ ---- -- ------<br>------- --- ------ ----- --- ---- ------- -- ---- --- --<br>------- ------,123896,123891.90000009537,123432.401,123440,123449.067,123899.049,,15,In
screen,html.Screen,2_1_1_1_16,2022-02-16T09:05:10.388Z,,,,,,,,,,,,,,,,,54,,,,,,,,,,,,,,347.5509999046335,,response,,,,100,,,,,,,Space,keypress(Space),,,,,,,,"-- --- ---- --- ------ ----- ------- ---- -- --- ------- --<br>------- ---------- ------ -- 1727, -- ----- -- ---- ------<br>--- ----- --- --- ------ -------- ----- --- ------ ----- --<br>----- ----- ---------- --- --- ------ ------ ---- -- ------<br>------- --- ------ ----- --- ---- ------- -- ---- --- --<br>------- ------",124249.59999990463,124246.59999990463,123882.383,123896.20000004768,123899.049,124265.701,,16,"1727,"
screen,html.Screen,2_1_1_1_17,2022-02-16T09:05:10.639Z,,,,,,,,,,,,,,,,,54,,,,,,,,,,,,,,231.99900004768278,,response,,,,100,,,,,,,Space,keypress(Space),,,,,,,,-- --- ---- --- ------ ----- ------- ---- -- --- ------- --<br>------- ---------- ------ -- ----- in ----- -- ---- ------<br>--- ----- --- --- ------ -------- ----- --- ------ ----- --<br>----- ----- ---------- --- --- ------ ------ ---- -- ------<br>------- --- ------ ----- --- ---- ------- -- ---- --- --<br>------- ------,124500.40000009537,124497.70000004768,124249.035,124249.70000004768,124265.701,124515.691,,17,in
screen,html.Screen,2_1_1_1_18,2022-02-16T09:05:10.903Z,,,,,,,,,,,,,,,,,54,,,,,,,,,,,,,,245.9089999046264,,response,,,,100,,,,,,,Space,keypress(Space),,,,,,,,-- --- ---- --- ------ ----- ------- ---- -- --- ------- --<br>------- ---------- ------ -- ----- -- order -- ---- ------<br>--- ----- --- --- ------ -------- ----- --- ------ ----- --<br>----- ----- ---------- --- --- ------ ------ ---- -- ------<br>------- --- ------ ----- --- ---- ------- -- ---- --- --<br>------- ------,124764.5,124761.59999990463,124499.025,124500.5,124515.691,124765.681,,18,order
screen,html.Screen,2_1_1_1_19,2022-02-16T09:05:11.212Z,,,,,,,,,,,,,,,,,54,,,,,,,,,,,,,,304.01900004768686,,response,,,,100,,,,,,,Space,keypress(Space),,,,,,,,-- --- ---- --- ------ ----- ------- ---- -- --- ------- --<br>------- ---------- ------ -- ----- -- ----- to ---- ------<br>--- ----- --- --- ------ -------- ----- --- ------ ----- --<br>----- ----- ---------- --- --- ------ ------ ---- -- ------<br>------- --- ------ ----- --- ---- ------- -- ---- --- --<br>------- ------,125072.79999995232,125069.70000004768,124749.015,124764.70000004768,124765.681,125082.335,,19,to
screen,html.Screen,2_1_1_1_20,2022-02-16T09:05:11.482Z,,,,,,,,,,,,,,,,,54,,,,,,,,,,,,,,258.3650000476773,,response,,,,100,,,,,,,Space,keypress(Space),,,,,,,,-- --- ---- --- ------ ----- ------- ---- -- --- ------- --<br>------- ---------- ------ -- ----- -- ----- -- save ------<br>--- ----- --- --- ------ -------- ----- --- ------ ----- --<br>----- ----- ---------- --- --- ------ ------ ---- -- ------<br>------- --- ------ ----- --- ---- ------- -- ---- --- --<br>------- ------,125343.29999995232,125340.70000004768,125065.669,125073,125082.335,125348.991,,20,save
screen,html.Screen,2_1_1_1_21,2022-02-16T09:05:11.896Z,,,,,,,,,,,,,,,,,54,,,,,,,,,,,,,,403.7090000476892,,response,,,,100,,,,,,,Space,keypress(Space),,,,,,,,"-- --- ---- --- ------ ----- ------- ---- -- --- ------- --<br>------- ---------- ------ -- ----- -- ----- -- ---- money,<br>--- ----- --- --- ------ -------- ----- --- ------ ----- --<br>----- ----- ---------- --- --- ------ ------ ---- -- ------<br>------- --- ------ ----- --- ---- ------- -- ---- --- --<br>------- ------",125756.70000004768,125752.70000004768,125332.325,125343.5,125348.991,125765.641,,21,"money,"
screen,html.Screen,2_1_1_1_22,2022-02-16T09:05:12.321Z,,,,,,,,,,,,,,,,,54,,,,,,,,,,,,,,412.158999952313,,response,,,,100,,,,,,,Space,keypress(Space),,,,,,,,-- --- ---- --- ------ ----- ------- ---- -- --- ------- --<br>------- ---------- ------ -- ----- -- ----- -- ---- ------<br>the ----- --- --- ------ -------- ----- --- ------ ----- --<br>----- ----- ---------- --- --- ------ ------ ---- -- ------<br>------- --- ------ ----- --- ---- ------- -- ---- --- --<br>------- ------,126181.79999995232,126177.79999995232,125748.975,125756.90000009537,125765.641,126198.957,,22,the
screen,html.Screen,2_1_1_1_23,2022-02-16T09:05:12.540Z,,,,,,,,,,,,,,,,,54,,,,,,,,,,,,,,197.8429999523214,,response,,,,100,,,,,,,Space,keypress(Space),,,,,,,,-- --- ---- --- ------ ----- ------- ---- -- --- ------- --<br>------- ---------- ------ -- ----- -- ----- -- ---- ------<br>--- state --- --- ------ -------- ----- --- ------ ----- --<br>----- ----- ---------- --- --- ------ ------ ---- -- ------<br>------- --- ------ ----- --- ---- ------- -- ---- --- --<br>------- ------,126400.79999995232,126396.79999995232,126182.291,126182,126198.957,126415.615,,23,state
screen,html.Screen,2_1_1_1_24,2022-02-16T09:05:12.927Z,,,,,,,,,,,,,,,,,54,,,,,,,,,,,,,,368.18499995231105,,response,,,,100,,,,,,,Space,keypress(Space),,,,,,,,-- --- ---- --- ------ ----- ------- ---- -- --- ------- --<br>------- ---------- ------ -- ----- -- ----- -- ---- ------<br>--- ----- cut --- ------ -------- ----- --- ------ ----- --<br>----- ----- ---------- --- --- ------ ------ ---- -- ------<br>------- --- ------ ----- --- ---- ------- -- ---- --- --<br>------- ------,126787.90000009537,126783.79999995232,126398.949,126401.09999990463,126415.615,126798.933,,24,cut
screen,html.Screen,2_1_1_1_25,2022-02-16T09:05:13.137Z,,,,,,,,,,,,,,,,,54,,,,,,,,,,,,,,195.66699990462803,,response,,,,100,,,,,,,Space,keypress(Space),,,,,,,,-- --- ---- --- ------ ----- ------- ---- -- --- ------- --<br>------- ---------- ------ -- ----- -- ----- -- ---- ------<br>--- ----- --- the ------ -------- ----- --- ------ ----- --<br>----- ----- ---------- --- --- ------ ------ ---- -- ------<br>------- --- ------ ----- --- ---- ------- -- ---- --- --<br>------- ------,126998.59999990463,126994.59999990463,126782.267,126788,126798.933,127015.591,,25,the
screen,html.Screen,2_1_1_1_26,2022-02-16T09:05:13.349Z,,,,,,,,,,,,,,,,,54,,,,,,,,,,,,,,190.20899995231593,,response,,,,100,,,,,,,Space,keypress(Space),,,,,,,,-- --- ---- --- ------ ----- ------- ---- -- --- ------- --<br>------- ---------- ------ -- ----- -- ----- -- ---- ------<br>--- ----- --- --- bonds' -------- ----- --- ------ ----- --<br>----- ----- ---------- --- --- ------ ------ ---- -- ------<br>------- --- ------ ----- --- ---- ------- -- ---- --- --<br>------- ------,127209.79999995232,127205.79999995232,126998.925,126998.79999995232,127015.591,127215.583,,26,bonds'
screen,html.Screen,2_1_1_1_27,2022-02-16T09:05:13.599Z,,,,,,,,,,,,,,,,,54,,,,,,,,,,,,,,240.117000047685,,response,,,,100,,,,,,,Space,keypress(Space),,,,,,,,-- --- ---- --- ------ ----- ------- ---- -- --- ------- --<br>------- ---------- ------ -- ----- -- ----- -- ---- ------<br>--- ----- --- --- ------ interest ----- --- ------ ----- --<br>----- ----- ---------- --- --- ------ ------ ---- -- ------<br>------- --- ------ ----- --- ---- ------- -- ---- --- --<br>------- ------,127459.70000004768,127455.70000004768,127198.917,127210,127215.583,127465.573,,27,interest
screen,html.Screen,2_1_1_1_28,2022-02-16T09:05:14.060Z,,,,,,,,,,,,,,,,,54,,,,,,,,,,,,,,451.12700004767976,,response,,,,100,,,,,,,Space,keypress(Space),,,,,,,,-- --- ---- --- ------ ----- ------- ---- -- --- ------- --<br>------- ---------- ------ -- ----- -- ----- -- ---- ------<br>--- ----- --- --- ------ -------- rate. --- ------ ----- --<br>----- ----- ---------- --- --- ------ ------ ---- -- ------<br>------- --- ------ ----- --- ---- ------- -- ---- --- --<br>------- ------,127920.70000004768,127916.70000004768,127448.907,127459.90000009537,127465.573,127932.221,,28,rate.
screen,html.Screen,2_1_1_1_29,2022-02-16T09:05:14.565Z,,,,,,,,,,,,,,,,,54,,,,,,,,,,,,,,489.5789999523113,,response,,,,100,,,,,,,Space,keypress(Space),,,,,,,,-- --- ---- --- ------ ----- ------- ---- -- --- ------- --<br>------- ---------- ------ -- ----- -- ----- -- ---- ------<br>--- ----- --- --- ------ -------- ----- The ------ ----- --<br>----- ----- ---------- --- --- ------ ------ ---- -- ------<br>------- --- ------ ----- --- ---- ------- -- ---- --- --<br>------- ------,128425.79999995232,128421.79999995232,127915.555,127920.90000009537,127932.221,128432.201,,29,The
screen,html.Screen,2_1_1_1_30,2022-02-16T09:05:14.796Z,,,,,,,,,,,,,,,,,54,,,,,,,,,,,,,,220.49900004768278,,response,,,,100,,,,,,,Space,keypress(Space),,,,,,,,-- --- ---- --- ------ ----- ------- ---- -- --- ------- --<br>------- ---------- ------ -- ----- -- ----- -- ---- ------<br>--- ----- --- --- ------ -------- ----- --- market ----- --<br>----- ----- ---------- --- --- ------ ------ ---- -- ------<br>------- --- ------ ----- --- ---- ------- -- ---- --- --<br>------- ------,128656.70000004768,128652.70000004768,128415.535,128426.09999990463,128432.201,128665.525,,30,market
screen,html.Screen,2_1_1_1_31,2022-02-16T09:05:15.116Z,,,,,,,,,,,,,,,,,54,,,,,,,,,,,,,,307.2749999523221,,response,,,,100,,,,,,,Space,keypress(Space),,,,,,,,-- --- ---- --- ------ ----- ------- ---- -- --- ------- --<br>------- ---------- ------ -- ----- -- ----- -- ---- ------<br>--- ----- --- --- ------ -------- ----- --- ------ value --<br>----- ----- ---------- --- --- ------ ------ ---- -- ------<br>------- --- ------ ----- --- ---- ------- -- ---- --- --<br>------- ------,128976.79999995232,128972.79999995232,128648.859,128656.90000009537,128665.525,128982.179,,31,value
screen,html.Screen,2_1_1_1_32,2022-02-16T09:05:15.455Z,,,,,,,,,,,,,,,,,54,,,,,,,,,,,,,,329.42099990462884,,response,,,,100,,,,,,,Space,keypress(Space),,,,,,,,-- --- ---- --- ------ ----- ------- ---- -- --- ------- --<br>------- ---------- ------ -- ----- -- ----- -- ---- ------<br>--- ----- --- --- ------ -------- ----- --- ------ ----- of<br>----- ----- ---------- --- --- ------ ------ ---- -- ------<br>------- --- ------ ----- --- ---- ------- -- ---- --- --<br>------- ------,129315.70000004768,129311.59999990463,128965.513,128976.90000009537,128982.179,129332.165,,32,of
screen,html.Screen,2_1_1_1_33,2022-02-16T09:05:15.699Z,,,,,,,,,,,,,,,,,54,,,,,,,,,,,,,,224.53500004769012,,response,,,,100,,,,,,,Space,keypress(Space),,,,,,,,-- --- ---- --- ------ ----- ------- ---- -- --- ------- --<br>------- ---------- ------ -- ----- -- ----- -- ---- ------<br>--- ----- --- --- ------ -------- ----- --- ------ ----- --<br>these ----- ---------- --- --- ------ ------ ---- -- ------<br>------- --- ------ ----- --- ---- ------- -- ---- --- --<br>------- ------,129560.59999990463,129556.70000004768,129315.499,129315.90000009537,129332.165,129565.489,,33,these
screen,html.Screen,2_1_1_1_34,2022-02-16T09:05:15.926Z,,,,,,,,,,,,,,,,,54,,,,,,,,,,,,,,218.21100004768232,,response,,,,100,,,,,,,Space,keypress(Space),,,,,,,,-- --- ---- --- ------ ----- ------- ---- -- --- ------- --<br>------- ---------- ------ -- ----- -- ----- -- ---- ------<br>--- ----- --- --- ------ -------- ----- --- ------ ----- --<br>----- bonds ---------- --- --- ------ ------ ---- -- ------<br>------- --- ------ ----- --- ---- ------- -- ---- --- --<br>------- ------,129787.59999990463,129783.70000004768,129548.823,129560.79999995232,129565.489,129798.813,,34,bonds
screen,html.Screen,2_1_1_1_35,2022-02-16T09:05:16.407Z,,,,,,,,,,,,,,,,,54,,,,,,,,,,,,,,464.88700004768907,,response,,,,100,,,,,,,Space,keypress(Space),,,,,,,,"-- --- ---- --- ------ ----- ------- ---- -- --- ------- --<br>------- ---------- ------ -- ----- -- ----- -- ---- ------<br>--- ----- --- --- ------ -------- ----- --- ------ ----- --<br>----- ----- plummeted, --- --- ------ ------ ---- -- ------<br>------- --- ------ ----- --- ---- ------- -- ---- --- --<br>------- ------",130268.5,130263.70000004768,129782.147,129787.70000004768,129798.813,130282.127,,35,"plummeted,"
screen,html.Screen,2_1_1_1_36,2022-02-16T09:05:16.825Z,,,,,,,,,,,,,,,,,54,,,,,,,,,,,,,,399.5730000476906,,response,,,,100,,,,,,,Space,keypress(Space),,,,,,,,-- --- ---- --- ------ ----- ------- ---- -- --- ------- --<br>------- ---------- ------ -- ----- -- ----- -- ---- ------<br>--- ----- --- --- ------ -------- ----- --- ------ ----- --<br>----- ----- ---------- and --- ------ ------ ---- -- ------<br>------- --- ------ ----- --- ---- ------- -- ---- --- --<br>------- ------,130685.70000004768,130681.70000004768,130265.461,130268.59999990463,130282.127,130698.777,,36,and
screen,html.Screen,2_1_1_1_37,2022-02-16T09:05:17.000Z,,,,,,,,,,,,,,,,,54,,,,,,,,,,,,,,158.02299995231442,,response,,,,100,,,,,,,Space,keypress(Space),,,,,,,,-- --- ---- --- ------ ----- ------- ---- -- --- ------- --<br>------- ---------- ------ -- ----- -- ----- -- ---- ------<br>--- ----- --- --- ------ -------- ----- --- ------ ----- --<br>----- ----- ---------- --- the ------ ------ ---- -- ------<br>------- --- ------ ----- --- ---- ------- -- ---- --- --<br>------- ------,130860.79999995232,130856.79999995232,130682.111,130685.79999995232,130698.777,130865.437,,37,the
screen,html.Screen,2_1_1_1_38,2022-02-16T09:05:17.179Z,,,,,,,,,,,,,,,,,54,,,,,,,,,,,,,,171.26300004767836,,response,,,,100,,,,,,,Space,keypress(Space),,,,,,,,-- --- ---- --- ------ ----- ------- ---- -- --- ------- --<br>------- ---------- ------ -- ----- -- ----- -- ---- ------<br>--- ----- --- --- ------ -------- ----- --- ------ ----- --<br>----- ----- ---------- --- --- market ------ ---- -- ------<br>------- --- ------ ----- --- ---- ------- -- ---- --- --<br>------- ------,131040.70000004768,131036.70000004768,130848.771,130860.90000009537,130865.437,131048.763,,38,market
screen,html.Screen,2_1_1_1_39,2022-02-16T09:05:17.348Z,,,,,,,,,,,,,,,,,54,,,,,,,,,,,,,,156.83699990462628,,response,,,,100,,,,,,,Space,keypress(Space),,,,,,,,-- --- ---- --- ------ ----- ------- ---- -- --- ------- --<br>------- ---------- ------ -- ----- -- ----- -- ---- ------<br>--- ----- --- --- ------ -------- ----- --- ------ ----- --<br>----- ----- ---------- --- --- ------ became ---- -- ------<br>------- --- ------ ----- --- ---- ------- -- ---- --- --<br>------- ------,131209.59999990463,131205.59999990463,131032.097,131040.79999995232,131048.763,131215.423,,39,became
screen,html.Screen,2_1_1_1_40,2022-02-16T09:05:17.765Z,,,,,,,,,,,,,,,,,54,,,,,,,,,,,,,,406.27700004767394,,response,,,,100,,,,,,,Space,keypress(Space),,,,,,,,-- --- ---- --- ------ ----- ------- ---- -- --- ------- --<br>------- ---------- ------ -- ----- -- ----- -- ---- ------<br>--- ----- --- --- ------ -------- ----- --- ------ ----- --<br>----- ----- ---------- --- --- ------ ------ wary -- ------<br>------- --- ------ ----- --- ---- ------- -- ---- --- --<br>------- ------,131625.79999995232,131621.70000004768,131198.757,131209.79999995232,131215.423,131632.073,,40,wary
screen,html.Screen,2_1_1_1_41,2022-02-16T09:05:18.078Z,,,,,,,,,,,,,,,,,54,,,,,,,,,,,,,,303.5269999046286,,response,,,,100,,,,,,,Space,keypress(Space),,,,,,,,-- --- ---- --- ------ ----- ------- ---- -- --- ------- --<br>------- ---------- ------ -- ----- -- ----- -- ---- ------<br>--- ----- --- --- ------ -------- ----- --- ------ ----- --<br>----- ----- ---------- --- --- ------ ------ ---- of ------<br>------- --- ------ ----- --- ---- ------- -- ---- --- --<br>------- ------,131939.59999990463,131935.59999990463,131615.407,131626,131632.073,131948.727,,41,of
screen,html.Screen,2_1_1_1_42,2022-02-16T09:05:18.715Z,,,,,,,,,,,,,,,,,54,,,,,,,,,,,,,,622.8729999046191,,response,,,,100,,,,,,,Space,keypress(Space),,,,,,,,-- --- ---- --- ------ ----- ------- ---- -- --- ------- --<br>------- ---------- ------ -- ----- -- ----- -- ---- ------<br>--- ----- --- --- ------ -------- ----- --- ------ ----- --<br>----- ----- ---------- --- --- ------ ------ ---- -- French<br>------- --- ------ ----- --- ---- ------- -- ---- --- --<br>------- ------,132575.70000004768,132571.59999990463,131932.061,131939.79999995232,131948.727,132582.035,,42,French
screen,html.Screen,2_1_1_1_43,2022-02-16T09:05:19.142Z,,,,,,,,,,,,,,,,,54,,,,,,,,,,,,,,417.5649999046291,,response,,,,100,,,,,,,Space,keypress(Space),,,,,,,,-- --- ---- --- ------ ----- ------- ---- -- --- ------- --<br>------- ---------- ------ -- ----- -- ----- -- ---- ------<br>--- ----- --- --- ------ -------- ----- --- ------ ----- --<br>----- ----- ---------- --- --- ------ ------ ---- -- ------<br>credit. --- ------ ----- --- ---- ------- -- ---- --- --<br>------- ------,133003.70000004768,132999.59999990463,132565.369,132575.90000009537,132582.035,133015.351,,43,credit.
screen,html.Screen,2_1_1_1_44,2022-02-16T09:05:19.549Z,,,,,,,,,,,,,,,,,54,,,,,,,,,,,,,,390.1490000000049,,response,,,,100,,,,,,,Space,keypress(Space),,,,,,,,-- --- ---- --- ------ ----- ------- ---- -- --- ------- --<br>------- ---------- ------ -- ----- -- ----- -- ---- ------<br>--- ----- --- --- ------ -------- ----- --- ------ ----- --<br>----- ----- ---------- --- --- ------ ------ ---- -- ------<br>------- The ------ ----- --- ---- ------- -- ---- --- --<br>------- ------,133409.70000004768,133405.5,132998.685,133003.79999995232,133015.351,133415.335,,44,The
screen,html.Screen,2_1_1_1_45,2022-02-16T09:05:19.933Z,,,,,,,,,,,,,,,,,54,,,,,,,,,,,,,,375.16500000000815,,response,,,,100,,,,,,,Space,keypress(Space),,,,,,,,-- --- ---- --- ------ ----- ------- ---- -- --- ------- --<br>------- ---------- ------ -- ----- -- ----- -- ---- ------<br>--- ----- --- --- ------ -------- ----- --- ------ ----- --<br>----- ----- ---------- --- --- ------ ------ ---- -- ------<br>------- --- French ----- --- ---- ------- -- ---- --- --<br>------- ------,133794.59999990463,133790.5,133398.669,133409.90000009537,133415.335,133798.653,,45,French
screen,html.Screen,2_1_1_1_46,2022-02-16T09:05:20.351Z,,,,,,,,,,,,,,,,,54,,,,,,,,,,,,,,410.04700004769256,,response,,,,100,,,,,,,Space,keypress(Space),,,,,,,,-- --- ---- --- ------ ----- ------- ---- -- --- ------- --<br>------- ---------- ------ -- ----- -- ----- -- ---- ------<br>--- ----- --- --- ------ -------- ----- --- ------ ----- --<br>----- ----- ---------- --- --- ------ ------ ---- -- ------<br>------- --- ------ state --- ---- ------- -- ---- --- --<br>------- ------,134212.59999990463,134208.70000004768,133781.987,133794.79999995232,133798.653,134215.303,,46,state
screen,html.Screen,2_1_1_1_47,2022-02-16T09:05:20.759Z,,,,,,,,,,,,,,,,,54,,,,,,,,,,,,,,401.19699999998556,,response,,,,100,,,,,,,Space,keypress(Space),,,,,,,,-- --- ---- --- ------ ----- ------- ---- -- --- ------- --<br>------- ---------- ------ -- ----- -- ----- -- ---- ------<br>--- ----- --- --- ------ -------- ----- --- ------ ----- --<br>----- ----- ---------- --- --- ------ ------ ---- -- ------<br>------- --- ------ ----- was ---- ------- -- ---- --- --<br>------- ------,134620.5,134616.5,134198.637,134212.79999995232,134215.303,134631.953,,47,was
screen,html.Screen,2_1_1_1_48,2022-02-16T09:05:20.970Z,,,,,,,,,,,,,,,,,54,,,,,,,,,,,,,,195.64699990462395,,response,,,,100,,,,,,,Space,keypress(Space),,,,,,,,-- --- ---- --- ------ ----- ------- ---- -- --- ------- --<br>------- ---------- ------ -- ----- -- ----- -- ---- ------<br>--- ----- --- --- ------ -------- ----- --- ------ ----- --<br>----- ----- ---------- --- --- ------ ------ ---- -- ------<br>------- --- ------ ----- --- left ------- -- ---- --- --<br>------- ------,134831.59999990463,134827.59999990463,134615.287,134620.59999990463,134631.953,134848.611,,48,left
screen,html.Screen,2_1_1_1_49,2022-02-16T09:05:21.366Z,,,,,,,,,,,,,,,,,54,,,,,,,,,,,,,,374.98899990462814,,response,,,,100,,,,,,,Space,keypress(Space),,,,,,,,-- --- ---- --- ------ ----- ------- ---- -- --- ------- --<br>------- ---------- ------ -- ----- -- ----- -- ---- ------<br>--- ----- --- --- ------ -------- ----- --- ------ ----- --<br>----- ----- ---------- --- --- ------ ------ ---- -- ------<br>------- --- ------ ----- --- ---- without -- ---- --- --<br>------- ------,135227.79999995232,135223.59999990463,134831.945,134831.79999995232,134848.611,135231.929,,49,without
screen,html.Screen,2_1_1_1_50,2022-02-16T09:05:21.688Z,,,,,,,,,,,,,,,,,54,,,,,,,,,,,,,,313.5709999999963,,response,,,,100,,,,,,,Space,keypress(Space),,,,,,,,-- --- ---- --- ------ ----- ------- ---- -- --- ------- --<br>------- ---------- ------ -- ----- -- ----- -- ---- ------<br>--- ----- --- --- ------ -------- ----- --- ------ ----- --<br>----- ----- ---------- --- --- ------ ------ ---- -- ------<br>------- --- ------ ----- --- ---- ------- an ---- --- --<br>------- ------,135549.40000009537,135545.5,135215.263,135227.90000009537,135231.929,135565.249,,50,an
screen,html.Screen,2_1_1_1_51,2022-02-16T09:05:21.873Z,,,,,,,,,,,,,,,,,54,,,,,,,,,,,,,,165.2509999999893,,response,,,,100,,,,,,,Space,keypress(Space),,,,,,,,-- --- ---- --- ------ ----- ------- ---- -- --- ------- --<br>------- ---------- ------ -- ----- -- ----- -- ---- ------<br>--- ----- --- --- ------ -------- ----- --- ------ ----- --<br>----- ----- ---------- --- --- ------ ------ ---- -- ------<br>------- --- ------ ----- --- ---- ------- -- easy --- --<br>------- ------,135734.59999990463,135730.5,135548.583,135549.59999990463,135565.249,135748.575,,51,easy
screen,html.Screen,2_1_1_1_52,2022-02-16T09:05:22.062Z,,,,,,,,,,,,,,,,,54,,,,,,,,,,,,,,170.92499999998836,,response,,,,100,,,,,,,Space,keypress(Space),,,,,,,,-- --- ---- --- ------ ----- ------- ---- -- --- ------- --<br>------- ---------- ------ -- ----- -- ----- -- ---- ------<br>--- ----- --- --- ------ -------- ----- --- ------ ----- --<br>----- ----- ---------- --- --- ------ ------ ---- -- ------<br>------- --- ------ ----- --- ---- ------- -- ---- way --<br>------- ------,135923.5,135919.5,135731.909,135734.70000004768,135748.575,135931.901,,52,way
screen,html.Screen,2_1_1_1_53,2022-02-16T09:05:22.421Z,,,,,,,,,,,,,,,,,54,,,,,,,,,,,,,,346.49900009535486,,response,,,,100,,,,,,,Space,keypress(Space),,,,,,,,-- --- ---- --- ------ ----- ------- ---- -- --- ------- --<br>------- ---------- ------ -- ----- -- ----- -- ---- ------<br>--- ----- --- --- ------ -------- ----- --- ------ ----- --<br>----- ----- ---------- --- --- ------ ------ ---- -- ------<br>------- --- ------ ----- --- ---- ------- -- ---- --- of<br>------- ------,136282.29999995232,136278.40000009537,135915.235,135923.70000004768,135931.901,136298.553,,53,of
screen,html.Screen,2_1_1_1_54,2022-02-16T09:05:22.725Z,,,,,,,,,,,,,,,,,54,,,,,,,,,,,,,,283.74699995230185,,response,,,,100,,,,,,,Space,keypress(Space),,,,,,,,-- --- ---- --- ------ ----- ------- ---- -- --- ------- --<br>------- ---------- ------ -- ----- -- ----- -- ---- ------<br>--- ----- --- --- ------ -------- ----- --- ------ ----- --<br>----- ----- ---------- --- --- ------ ------ ---- -- ------<br>------- --- ------ ----- --- ---- ------- -- ---- --- --<br>raising ------,136586.29999995232,136582.29999995232,136281.887,136282.5,136298.553,136598.541,,54,raising
screen,html.Screen,2_1_1_1_55,2022-02-16T09:05:23.260Z,,,,,,,,,,,,,,,,,54,,,,,,,,,,,,,,518.85900009537,,response,,,,100,,,,,,,Space,keypress(Space),,,,,,,,-- --- ---- --- ------ ----- ------- ---- -- --- ------- --<br>------- ---------- ------ -- ----- -- ----- -- ---- ------<br>--- ----- --- --- ------ -------- ----- --- ------ ----- --<br>----- ----- ---------- --- --- ------ ------ ---- -- ------<br>------- --- ------ ----- --- ---- ------- -- ---- --- --<br>------- money.,137121.40000009537,137117.40000009537,136581.875,136586.5,136598.541,137131.853,,55,money.
Item 100,flow.Loop,2_1_1_1,2022-02-16T09:05:23.260Z,,,,,,,,,,,,,,,,,,,,,,,,,,,,,,,17834.833000095372,,completion,,,,,C,,,,,,,,,,,silence,,,,,137121.70000004768,137117.40000009537,119265.901,119273.79999995232,119282.567,137131.853,,,
Question 1,html.Screen,2_1_1_2,2022-02-16T09:05:25.111Z,,,,,,,,,,,,,,,,,,,,,,,,,,,,true,TRUE,,1837.2469999046298,,response,,,,100,C,,,,,,TRUE,click #choice-1,,,,silence,,,,,138971.90000009537,138969.09999990463,137115.187,137121.79999995232,137131.853,138998.445,,,
Question 2,html.Screen,2_1_1_3,2022-02-16T09:05:27.129Z,,,,,,,,,,,,,,,,,,,,,,,,,,,,true,FALSE,,1990.2550000476767,,response,,,,100,C,,,,,,FALSE,click #choice-2,,,,silence,,,,,140990.59999990463,140988.70000004768,138981.779,138972.09999990463,138998.445,141015.031,,,
Item 100,flow.Sequence,2_1_1,2022-02-16T09:05:27.130Z,,,,,,,,,,,,,,,,,,,,,,,,,,,,,,,31705.73300004768,,completion,,,,,,,,,,,,,,,,,,,,,140990.79999995232,140988.70000004768,109266.301,109263.90000009537,109282.967,141015.031,,,
End of Practice,html.Page,2_1_2,2022-02-16T09:05:29.992Z,,,,,,,,,,,,,,,,,,,,,,,,,,,,,,,2837.469000000012,,form submission,,,,,,,,,,,,,,,,,,,,,143853,143852.5,140998.365,140990.90000009537,141015.031,143864.917,,,
Practice,flow.Sequence,2_1,2022-02-16T09:05:29.992Z,,,,,,,,,,,,,,,,,,,,,,,,,,,,,,,69268.145,,completion,,,,,,,,,,,,,,,,,,,,,143853.20000004768,143852.5,74567.689,74559.09999990463,74584.355,143864.917,,,
Trap_instruction,html.Page,2_2_0,2022-02-16T09:05:33.020Z,,,,,,,,,,,,,,,,,,,,,,,,,,,,,,,3015.5830000000133,,form submission,,,,,,,,,,,,,,,,,,,,,146881.09999990463,146880.5,143848.251,143853.29999995232,143864.917,146898.129,,,
trap_trial,html.Screen,2_2_1,2022-02-16T09:05:35.209Z,,,,,,,,,,,,,,,,,,,,,,,,,,,,true,1,,2168.4709999046463,,response,,,,,,,,,,,1,click #choice-1,,,,,,,,,149069.90000009537,149066.59999990463,146881.463,146881.20000004768,146898.129,149081.375,,,
end of trap trial,html.Page,2_2_2,2022-02-16T09:05:37.001Z,,,,,,,,,,,,,,,,,,,,,,,,,,,,,,,1780.5250000953674,,form submission,,,,,,,,,,,,,,,,,,,,,150862.29999995232,150861.90000009537,149064.709,149070.09999990463,149081.375,150881.303,,,
Trap 1,flow.Sequence,2_2,2022-02-16T09:05:37.001Z,,,,,,,,,,,,,,,,,,,,,,,,,,,,,,,6996.983000095381,,completion,,,,,,,,,,,,,,,,,,,,,150862.5,150861.90000009537,143848.251,143853.29999995232,143864.917,150881.303,,,
Standby,html.Page,2_3_0,2022-02-16T09:05:45.005Z,,,,,,,,,,,,,,,,,,,,,,,,,,,,,,,7999.679999999993,,timeout,,,,,,,,,,,,,,,,,,,,,158866.5,158864.317,150864.637,150862.59999990463,150881.303,158880.983,,,
Holding screen,html.Screen,2_3_1_0_0,2022-02-16T09:05:52.005Z,,,,,,,,,,,,,,,,,,,,,,,,,,,,,,,6999.720000000001,,timeout,,,,,,,,,,,,,,,,,,,,,165865.79999995232,165864.037,158864.317,158866.70000004768,158880.983,165880.703,,,
screen,html.Screen,2_3_1_0_1_0,2022-02-16T09:05:52.949Z,,,,,,,,,,,,,,,,,48,,,,,,,,,,,,,,924.6970000953588,,response,,,,10,C,,,,,,Space,keypress(Space),,,,instrumental,,,,As -- --- ------ ------- --------- ----------- --------<br>--------- -------- --- ------- -- ------- ---- -- ------<br>-- --- -------- -------- ---------- ---- ---- ---- ------<br>-- --------- -- ---- -- --- -- --- ------- -- - -----<br>---------- -- -- -- ---- ----- -- ------ -- --- ------<br>-------,166810.20000004768,166805.40000009537,165864.037,165865.90000009537,165880.703,166813.999,,0,As
screen,html.Screen,2_3_1_0_1_1,2022-02-16T09:05:53.301Z,,,,,,,,,,,,,,,,,48,,,,,,,,,,,,,,344.0009999999893,,response,,,,10,C,,,,,,Space,keypress(Space),,,,instrumental,,,,-- in --- ------ ------- --------- ----------- --------<br>--------- -------- --- ------- -- ------- ---- -- ------<br>-- --- -------- -------- ---------- ---- ---- ---- ------<br>-- --------- -- ---- -- --- -- --- ------- -- - -----<br>---------- -- -- -- ---- ----- -- ------ -- --- ------<br>-------,167162.40000009537,167158,166797.333,166810.29999995232,166813.999,167163.985,,1,in
screen,html.Screen,2_3_1_0_1_2,2022-02-16T09:05:53.559Z,,,,,,,,,,,,,,,,,48,,,,,,,,,,,,,,250.21500004769769,,response,,,,10,C,,,,,,Space,keypress(Space),,,,instrumental,,,,-- -- the ------ ------- --------- ----------- --------<br>--------- -------- --- ------- -- ------- ---- -- ------<br>-- --- -------- -------- ---------- ---- ---- ---- ------<br>-- --------- -- ---- -- --- -- --- ------- -- - -----<br>---------- -- -- -- ---- ----- -- ------ -- --- ------<br>-------,167419.79999995232,167414.20000004768,167147.319,167162.59999990463,167163.985,167430.641,,2,the
screen,html.Screen,2_3_1_0_1_3,2022-02-16T09:05:53.837Z,,,,,,,,,,,,,,,,,48,,,,,,,,,,,,,,262.4589999046293,,response,,,,10,C,,,,,,Space,keypress(Space),,,,instrumental,,,,-- -- --- United ------- --------- ----------- --------<br>--------- -------- --- ------- -- ------- ---- -- ------<br>-- --- -------- -------- ---------- ---- ---- ---- ------<br>-- --------- -- ---- -- --- -- --- ------- -- - -----<br>---------- -- -- -- ---- ----- -- ------ -- --- ------<br>-------,167698.59999990463,167693.09999990463,167413.975,167420,167430.641,167713.963,,3,United
screen,html.Screen,2_3_1_0_1_4,2022-02-16T09:05:54.053Z,,,,,,,,,,,,,,,,,48,,,,,,,,,,,,,,195.2370000476949,,response,,,,10,C,,,,,,Space,keypress(Space),,,,instrumental,,,,"-- -- --- ------ States, --------- ----------- --------<br>--------- -------- --- ------- -- ------- ---- -- ------<br>-- --- -------- -------- ---------- ---- ---- ---- ------<br>-- --------- -- ---- -- --- -- --- ------- -- - -----<br>---------- -- -- -- ---- ----- -- ------ -- --- ------<br>-------",167914.20000004768,167909.20000004768,167697.297,167698.79999995232,167713.963,167930.621,,4,"States,"
screen,html.Screen,2_3_1_0_1_5,2022-02-16T09:05:54.261Z,,,,,,,,,,,,,,,,,48,,,,,,,,,,,,,,186.57900004766998,,response,,,,10,C,,,,,,Space,keypress(Space),,,,instrumental,,,,-- -- --- ------ ------- Colombian ----------- --------<br>--------- -------- --- ------- -- ------- ---- -- ------<br>-- --- -------- -------- ---------- ---- ---- ---- ------<br>-- --------- -- ---- -- --- -- --- ------- -- - -----<br>---------- -- -- -- ---- ----- -- ------ -- --- ------<br>-------,168122.70000004768,168117.20000004768,167913.955,167914.40000009537,167930.621,168130.613,,5,Colombian
screen,html.Screen,2_3_1_0_1_6,2022-02-16T09:05:54.486Z,,,,,,,,,,,,,,,,,48,,,,,,,,,,,,,,210.8869999999879,,response,,,,10,C,,,,,,Space,keypress(Space),,,,instrumental,,,,-- -- --- ------ ------- --------- legislation --------<br>--------- -------- --- ------- -- ------- ---- -- ------<br>-- --- -------- -------- ---------- ---- ---- ---- ------<br>-- --------- -- ---- -- --- -- --- ------- -- - -----<br>---------- -- -- -- ---- ----- -- ------ -- --- ------<br>-------,168347.20000004768,168341.5,168113.947,168122.90000009537,168130.613,168363.937,,6,legislation
screen,html.Screen,2_3_1_0_1_7,2022-02-16T09:05:55.132Z,,,,,,,,,,,,,,,,,48,,,,,,,,,,,,,,623.3629999523109,,response,,,,10,C,,,,,,Space,keypress(Space),,,,instrumental,,,,-- -- --- ------ ------- --------- ----------- requires<br>--------- -------- --- ------- -- ------- ---- -- ------<br>-- --- -------- -------- ---------- ---- ---- ---- ------<br>-- --------- -- ---- -- --- -- --- ------- -- - -----<br>---------- -- -- -- ---- ----- -- ------ -- --- ------<br>-------,168992.79999995232,168987.29999995232,168347.271,168347.29999995232,168363.937,168997.245,,7,requires
screen,html.Screen,2_3_1_0_1_8,2022-02-16T09:05:55.346Z,,,,,,,,,,,,,,,,,48,,,,,,,,,,,,,,204.85499990463722,,response,,,,10,C,,,,,,Space,keypress(Space),,,,instrumental,,,,-- -- --- ------ ------- --------- ----------- --------<br>travelers -------- --- ------- -- ------- ---- -- ------<br>-- --- -------- -------- ---------- ---- ---- ---- ------<br>-- --------- -- ---- -- --- -- --- ------- -- - -----<br>---------- -- -- -- ---- ----- -- ------ -- --- ------<br>-------,169207.40000009537,169202.09999990463,168980.579,168993,168997.245,169213.903,,8,travelers
screen,html.Screen,2_3_1_0_1_9,2022-02-16T09:05:55.788Z,,,,,,,,,,,,,,,,,48,,,,,,,,,,,,,,430.39699995232513,,response,,,,10,C,,,,,,Space,keypress(Space),,,,instrumental,,,,-- -- --- ------ ------- --------- ----------- --------<br>--------- entering --- ------- -- ------- ---- -- ------<br>-- --- -------- -------- ---------- ---- ---- ---- ------<br>-- --------- -- ---- -- --- -- --- ------- -- - -----<br>---------- -- -- -- ---- ----- -- ------ -- --- ------<br>-------,169649.29999995232,169644.29999995232,169197.237,169207.40000009537,169213.903,169663.885,,9,entering
screen,html.Screen,2_3_1_0_1_10,2022-02-16T09:05:55.954Z,,,,,,,,,,,,,,,,,48,,,,,,,,,,,,,,146.3150000476744,,response,,,,10,C,,,,,,Space,keypress(Space),,,,instrumental,,,,-- -- --- ------ ------- --------- ----------- --------<br>--------- -------- the ------- -- ------- ---- -- ------<br>-- --- -------- -------- ---------- ---- ---- ---- ------<br>-- --------- -- ---- -- --- -- --- ------- -- - -----<br>---------- -- -- -- ---- ----- -- ------ -- --- ------<br>-------,169815.5,169810.20000004768,169647.219,169649.40000009537,169663.885,169830.545,,10,the
screen,html.Screen,2_3_1_0_1_11,2022-02-16T09:05:56.126Z,,,,,,,,,,,,,,,,,48,,,,,,,,,,,,,,151.55499990461976,,response,,,,10,C,,,,,,Space,keypress(Space),,,,instrumental,,,,-- -- --- ------ ------- --------- ----------- --------<br>--------- -------- --- country -- ------- ---- -- ------<br>-- --- -------- -------- ---------- ---- ---- ---- ------<br>-- --------- -- ---- -- --- -- --- ------- -- - -----<br>---------- -- -- -- ---- ----- -- ------ -- --- ------<br>-------,169987.09999990463,169982.09999990463,169813.879,169815.59999990463,169830.545,169997.205,,11,country
screen,html.Screen,2_3_1_0_1_12,2022-02-16T09:05:56.311Z,,,,,,,,,,,,,,,,,48,,,,,,,,,,,,,,169.89499990464537,,response,,,,10,C,,,,,,Space,keypress(Space),,,,instrumental,,,,-- -- --- ------ ------- --------- ----------- --------<br>--------- -------- --- ------- to ------- ---- -- ------<br>-- --- -------- -------- ---------- ---- ---- ---- ------<br>-- --------- -- ---- -- --- -- --- ------- -- - -----<br>---------- -- -- -- ---- ----- -- ------ -- --- ------<br>-------,170172.5,170167.09999990463,169980.539,169987.20000004768,169997.205,170180.531,,12,to
screen,html.Screen,2_3_1_0_1_13,2022-02-16T09:05:56.475Z,,,,,,,,,,,,,,,,,48,,,,,,,,,,,,,,150.6690000476956,,response,,,,10,C,,,,,,Space,keypress(Space),,,,instrumental,,,,-- -- --- ------ ------- --------- ----------- --------<br>--------- -------- --- ------- -- declare ---- -- ------<br>-- --- -------- -------- ---------- ---- ---- ---- ------<br>-- --------- -- ---- -- --- -- --- ------- -- - -----<br>---------- -- -- -- ---- ----- -- ------ -- --- ------<br>-------,170336.70000004768,170331.20000004768,170163.865,170172.59999990463,170180.531,170347.191,,13,declare
screen,html.Screen,2_3_1_0_1_14,2022-02-16T09:05:56.639Z,,,,,,,,,,,,,,,,,48,,,,,,,,,,,,,,147.90899990464095,,response,,,,10,C,,,,,,Space,keypress(Space),,,,instrumental,,,,-- -- --- ------ ------- --------- ----------- --------<br>--------- -------- --- ------- -- ------- cash -- ------<br>-- --- -------- -------- ---------- ---- ---- ---- ------<br>-- --------- -- ---- -- --- -- --- ------- -- - -----<br>---------- -- -- -- ---- ----- -- ------ -- --- ------<br>-------,170500.29999995232,170495.09999990463,170330.525,170336.90000009537,170347.191,170513.851,,14,cash
screen,html.Screen,2_3_1_0_1_15,2022-02-16T09:05:56.977Z,,,,,,,,,,,,,,,,,48,,,,,,,,,,,,,,318.3490000476886,,response,,,,10,C,,,,,,Space,keypress(Space),,,,instrumental,,,,-- -- --- ------ ------- --------- ----------- --------<br>--------- -------- --- ------- -- ------- ---- in ------<br>-- --- -------- -------- ---------- ---- ---- ---- ------<br>-- --------- -- ---- -- --- -- --- ------- -- - -----<br>---------- -- -- -- ---- ----- -- ------ -- --- ------<br>-------,170837.79999995232,170832.20000004768,170497.185,170500.5,170513.851,170847.171,,15,in
screen,html.Screen,2_3_1_0_1_16,2022-02-16T09:05:57.294Z,,,,,,,,,,,,,,,,,48,,,,,,,,,,,,,,302.9289999046305,,response,,,,10,C,,,,,,Space,keypress(Space),,,,instrumental,,,,-- -- --- ------ ------- --------- ----------- --------<br>--------- -------- --- ------- -- ------- ---- -- excess<br>-- --- -------- -------- ---------- ---- ---- ---- ------<br>-- --------- -- ---- -- --- -- --- ------- -- - -----<br>---------- -- -- -- ---- ----- -- ------ -- --- ------<br>-------,171155.59999990463,171150.09999990463,170830.505,170837.90000009537,170847.171,171163.825,,16,excess
screen,html.Screen,2_3_1_0_1_17,2022-02-16T09:05:57.580Z,,,,,,,,,,,,,,,,,48,,,,,,,,,,,,,,272.2749999046209,,response,,,,10,C,,,,,,Space,keypress(Space),,,,instrumental,,,,-- -- --- ------ ------- --------- ----------- --------<br>--------- -------- --- ------- -- ------- ---- -- ------<br>of --- -------- -------- ---------- ---- ---- ---- ------<br>-- --------- -- ---- -- --- -- --- ------- -- - -----<br>---------- -- -- -- ---- ----- -- ------ -- --- ------<br>-------,171441.29999995232,171436.09999990463,171147.159,171155.79999995232,171163.825,171447.147,,17,of
screen,html.Screen,2_3_1_0_1_18,2022-02-16T09:05:57.833Z,,,,,,,,,,,,,,,,,48,,,,,,,,,,,,,,241.75300009537023,,response,,,,10,C,,,,,,Space,keypress(Space),,,,instrumental,,,,-- -- --- ------ ------- --------- ----------- --------<br>--------- -------- --- ------- -- ------- ---- -- ------<br>-- ten -------- -------- ---------- ---- ---- ---- ------<br>-- --------- -- ---- -- --- -- --- ------- -- - -----<br>---------- -- -- -- ---- ----- -- ------ -- --- ------<br>-------,171694.20000004768,171688.90000009537,171430.481,171441.5,171447.147,171697.137,,18,ten
screen,html.Screen,2_3_1_0_1_19,2022-02-16T09:05:58.158Z,,,,,,,,,,,,,,,,,48,,,,,,,,,,,,,,316.8630000000121,,response,,,,10,C,,,,,,Space,keypress(Space),,,,instrumental,,,,-- -- --- ------ ------- --------- ----------- --------<br>--------- -------- --- ------- -- ------- ---- -- ------<br>-- --- thousand -------- ---------- ---- ---- ---- ------<br>-- --------- -- ---- -- --- -- --- ------- -- - -----<br>---------- -- -- -- ---- ----- -- ------ -- --- ------<br>-------,172019,172014,171680.471,171694.29999995232,171697.137,172030.457,,19,thousand
screen,html.Screen,2_3_1_0_1_20,2022-02-16T09:05:58.386Z,,,,,,,,,,,,,,,,,48,,,,,,,,,,,,,,211.74300004768884,,response,,,,10,C,,,,,,Space,keypress(Space),,,,instrumental,,,,-- -- --- ------ ------- --------- ----------- --------<br>--------- -------- --- ------- -- ------- ---- -- ------<br>-- --- -------- dollars. ---------- ---- ---- ---- ------<br>-- --------- -- ---- -- --- -- --- ------- -- - -----<br>---------- -- -- -- ---- ----- -- ------ -- --- ------<br>-------,172247.40000009537,172242.20000004768,172013.791,172019.29999995232,172030.457,172263.781,,20,dollars.
screen,html.Screen,2_3_1_0_1_21,2022-02-16T09:05:58.604Z,,,,,,,,,,,,,,,,,48,,,,,,,,,,,,,,196.1190000953793,,response,,,,10,C,,,,,,Space,keypress(Space),,,,instrumental,,,,-- -- --- ------ ------- --------- ----------- --------<br>--------- -------- --- ------- -- ------- ---- -- ------<br>-- --- -------- -------- Concealing ---- ---- ---- ------<br>-- --------- -- ---- -- --- -- --- ------- -- - -----<br>---------- -- -- -- ---- ----- -- ------ -- --- ------<br>-------,172465.29999995232,172459.90000009537,172247.115,172247.5,172263.781,172480.439,,21,Concealing
screen,html.Screen,2_3_1_0_1_22,2022-02-16T09:05:58.834Z,,,,,,,,,,,,,,,,,48,,,,,,,,,,,,,,209.66099990461953,,response,,,,10,C,,,,,,Space,keypress(Space),,,,instrumental,,,,-- -- --- ------ ------- --------- ----------- --------<br>--------- -------- --- ------- -- ------- ---- -- ------<br>-- --- -------- -------- ---------- more ---- ---- ------<br>-- --------- -- ---- -- --- -- --- ------- -- - -----<br>---------- -- -- -- ---- ----- -- ------ -- --- ------<br>-------,172695.40000009537,172690.09999990463,172463.773,172465.5,172480.439,172697.097,,22,more
screen,html.Screen,2_3_1_0_1_23,2022-02-16T09:05:59.111Z,,,,,,,,,,,,,,,,,48,,,,,,,,,,,,,,270.90299999999115,,response,,,,10,C,,,,,,Space,keypress(Space),,,,instrumental,,,,-- -- --- ------ ------- --------- ----------- --------<br>--------- -------- --- ------- -- ------- ---- -- ------<br>-- --- -------- -------- ---------- ---- than ---- ------<br>-- --------- -- ---- -- --- -- --- ------- -- - -----<br>---------- -- -- -- ---- ----- -- ------ -- --- ------<br>-------,172972.09999990463,172968,172680.431,172695.5,172697.097,172980.419,,23,than
screen,html.Screen,2_3_1_0_1_24,2022-02-16T09:05:59.313Z,,,,,,,,,,,,,,,,,48,,,,,,,,,,,,,,188.7810000476893,,response,,,,10,C,,,,,,Space,keypress(Space),,,,instrumental,,,,-- -- --- ------ ------- --------- ----------- --------<br>--------- -------- --- ------- -- ------- ---- -- ------<br>-- --- -------- -------- ---------- ---- ---- that ------<br>-- --------- -- ---- -- --- -- --- ------- -- - -----<br>---------- -- -- -- ---- ----- -- ------ -- --- ------<br>-------,173174.59999990463,173169.20000004768,172963.753,172972.20000004768,172980.419,173180.411,,24,that
screen,html.Screen,2_3_1_0_1_25,2022-02-16T09:05:59.518Z,,,,,,,,,,,,,,,,,48,,,,,,,,,,,,,,193.48900009537465,,response,,,,10,C,,,,,,Space,keypress(Space),,,,instrumental,,,,-- -- --- ------ ------- --------- ----------- --------<br>--------- -------- --- ------- -- ------- ---- -- ------<br>-- --- -------- -------- ---------- ---- ---- ---- amount<br>-- --------- -- ---- -- --- -- --- ------- -- - -----<br>---------- -- -- -- ---- ----- -- ------ -- --- ------<br>-------,173379.59999990463,173373.90000009537,173163.745,173174.70000004768,173180.411,173380.403,,25,amount
screen,html.Screen,2_3_1_0_1_26,2022-02-16T09:05:59.703Z,,,,,,,,,,,,,,,,,48,,,,,,,,,,,,,,178.59700000000885,,response,,,,10,C,,,,,,Space,keypress(Space),,,,instrumental,,,,-- -- --- ------ ------- --------- ----------- --------<br>--------- -------- --- ------- -- ------- ---- -- ------<br>-- --- -------- -------- ---------- ---- ---- ---- ------<br>to --------- -- ---- -- --- -- --- ------- -- - -----<br>---------- -- -- -- ---- ----- -- ------ -- --- ------<br>-------,173564.29999995232,173559,173363.737,173379.79999995232,173380.403,173580.395,,26,to
screen,html.Screen,2_3_1_0_1_27,2022-02-16T09:05:59.873Z,,,,,,,,,,,,,,,,,48,,,,,,,,,,,,,,148.5050000953779,,response,,,,10,C,,,,,,Space,keypress(Space),,,,instrumental,,,,-- -- --- ------ ------- --------- ----------- --------<br>--------- -------- --- ------- -- ------- ---- -- ------<br>-- --- -------- -------- ---------- ---- ---- ---- ------<br>-- transport -- ---- -- --- -- --- ------- -- - -----<br>---------- -- -- -- ---- ----- -- ------ -- --- ------<br>-------,173733.90000009537,173728.90000009537,173563.729,173564.40000009537,173580.395,173747.055,,27,transport
screen,html.Screen,2_3_1_0_1_28,2022-02-16T09:06:00.046Z,,,,,,,,,,,,,,,,,48,,,,,,,,,,,,,,154.94500000000698,,response,,,,10,C,,,,,,Space,keypress(Space),,,,instrumental,,,,-- -- --- ------ ------- --------- ----------- --------<br>--------- -------- --- ------- -- ------- ---- -- ------<br>-- --- -------- -------- ---------- ---- ---- ---- ------<br>-- --------- it ---- -- --- -- --- ------- -- - -----<br>---------- -- -- -- ---- ----- -- ------ -- --- ------<br>-------,173906.90000009537,173902,173730.389,173734,173747.055,173913.715,,28,it
screen,html.Screen,2_3_1_0_1_29,2022-02-16T09:06:00.212Z,,,,,,,,,,,,,,,,,48,,,,,,,,,,,,,,154.38499990463606,,response,,,,10,C,,,,,,Space,keypress(Space),,,,instrumental,,,,-- -- --- ------ ------- --------- ----------- --------<br>--------- -------- --- ------- -- ------- ---- -- ------<br>-- --- -------- -------- ---------- ---- ---- ---- ------<br>-- --------- -- into -- --- -- --- ------- -- - -----<br>---------- -- -- -- ---- ----- -- ------ -- --- ------<br>-------,174073.20000004768,174068.09999990463,173897.049,173907.09999990463,173913.715,174080.375,,29,into
screen,html.Screen,2_3_1_0_1_30,2022-02-16T09:06:00.380Z,,,,,,,,,,,,,,,,,48,,,,,,,,,,,,,,155.52500009536743,,response,,,,10,C,,,,,,Space,keypress(Space),,,,instrumental,,,,-- -- --- ------ ------- --------- ----------- --------<br>--------- -------- --- ------- -- ------- ---- -- ------<br>-- --- -------- -------- ---------- ---- ---- ---- ------<br>-- --------- -- ---- or --- -- --- ------- -- - -----<br>---------- -- -- -- ---- ----- -- ------ -- --- ------<br>-------,174241.09999990463,174235.90000009537,174063.709,174073.29999995232,174080.375,174247.035,,30,or
screen,html.Screen,2_3_1_0_1_31,2022-02-16T09:06:00.542Z,,,,,,,,,,,,,,,,,48,,,,,,,,,,,,,,150.86500009536394,,response,,,,10,C,,,,,,Space,keypress(Space),,,,instrumental,,,,-- -- --- ------ ------- --------- ----------- --------<br>--------- -------- --- ------- -- ------- ---- -- ------<br>-- --- -------- -------- ---------- ---- ---- ---- ------<br>-- --------- -- ---- -- out -- --- ------- -- - -----<br>---------- -- -- -- ---- ----- -- ------ -- --- ------<br>-------,174403,174397.90000009537,174230.369,174241.20000004768,174247.035,174413.695,,31,out
screen,html.Screen,2_3_1_0_1_32,2022-02-16T09:06:00.710Z,,,,,,,,,,,,,,,,,48,,,,,,,,,,,,,,152.30499999999302,,response,,,,10,C,,,,,,Space,keypress(Space),,,,instrumental,,,,-- -- --- ------ ------- --------- ----------- --------<br>--------- -------- --- ------- -- ------- ---- -- ------<br>-- --- -------- -------- ---------- ---- ---- ---- ------<br>-- --------- -- ---- -- --- of --- ------- -- - -----<br>---------- -- -- -- ---- ----- -- ------ -- --- ------<br>-------,174571.20000004768,174566,174397.029,174403.29999995232,174413.695,174580.355,,32,of
screen,html.Screen,2_3_1_0_1_33,2022-02-16T09:06:00.867Z,,,,,,,,,,,,,,,,,48,,,,,,,,,,,,,,142.4449999523058,,response,,,,10,C,,,,,,Space,keypress(Space),,,,instrumental,,,,-- -- --- ------ ------- --------- ----------- --------<br>--------- -------- --- ------- -- ------- ---- -- ------<br>-- --- -------- -------- ---------- ---- ---- ---- ------<br>-- --------- -- ---- -- --- -- the ------- -- - -----<br>---------- -- -- -- ---- ----- -- ------ -- --- ------<br>-------,174727.79999995232,174722.79999995232,174563.689,174571.29999995232,174580.355,174730.349,,33,the
screen,html.Screen,2_3_1_0_1_34,2022-02-16T09:06:01.031Z,,,,,,,,,,,,,,,,,48,,,,,,,,,,,,,,156.65100000001257,,response,,,,10,C,,,,,,Space,keypress(Space),,,,instrumental,,,,-- -- --- ------ ------- --------- ----------- --------<br>--------- -------- --- ------- -- ------- ---- -- ------<br>-- --- -------- -------- ---------- ---- ---- ---- ------<br>-- --------- -- ---- -- --- -- --- country -- - -----<br>---------- -- -- -- ---- ----- -- ------ -- --- ------<br>-------,174892.20000004768,174887,174713.683,174727.90000009537,174730.349,174897.009,,34,country
screen,html.Screen,2_3_1_0_1_35,2022-02-16T09:06:01.193Z,,,,,,,,,,,,,,,,,48,,,,,,,,,,,,,,151.79099995232536,,response,,,,10,C,,,,,,Space,keypress(Space),,,,instrumental,,,,-- -- --- ------ ------- --------- ----------- --------<br>--------- -------- --- ------- -- ------- ---- -- ------<br>-- --- -------- -------- ---------- ---- ---- ---- ------<br>-- --------- -- ---- -- --- -- --- ------- is - -----<br>---------- -- -- -- ---- ----- -- ------ -- --- ------<br>-------,175053.79999995232,175048.79999995232,174880.343,174892.29999995232,174897.009,175063.669,,35,is
screen,html.Screen,2_3_1_0_1_36,2022-02-16T09:06:01.357Z,,,,,,,,,,,,,,,,,48,,,,,,,,,,,,,,149.3310000000056,,response,,,,10,C,,,,,,Space,keypress(Space),,,,instrumental,,,,-- -- --- ------ ------- --------- ----------- --------<br>--------- -------- --- ------- -- ------- ---- -- ------<br>-- --- -------- -------- ---------- ---- ---- ---- ------<br>-- --------- -- ---- -- --- -- --- ------- -- a -----<br>---------- -- -- -- ---- ----- -- ------ -- --- ------<br>-------,175218.20000004768,175213,175047.003,175054.09999990463,175063.669,175230.329,,36,a
screen,html.Screen,2_3_1_0_1_37,2022-02-16T09:06:01.518Z,,,,,,,,,,,,,,,,,48,,,,,,,,,,,,,,143.47099995231838,,response,,,,10,C,,,,,,Space,keypress(Space),,,,instrumental,,,,-- -- --- ------ ------- --------- ----------- --------<br>--------- -------- --- ------- -- ------- ---- -- ------<br>-- --- -------- -------- ---------- ---- ---- ---- ------<br>-- --------- -- ---- -- --- -- --- ------- -- - crime<br>---------- -- -- -- ---- ----- -- ------ -- --- ------<br>-------,175379.5,175373.79999995232,175213.663,175218.29999995232,175230.329,175380.323,,37,crime
screen,html.Screen,2_3_1_0_1_38,2022-02-16T09:06:01.684Z,,,,,,,,,,,,,,,,,48,,,,,,,,,,,,,,159.7769999046286,,response,,,,10,C,,,,,,Space,keypress(Space),,,,instrumental,,,,-- -- --- ------ ------- --------- ----------- --------<br>--------- -------- --- ------- -- ------- ---- -- ------<br>-- --- -------- -------- ---------- ---- ---- ---- ------<br>-- --------- -- ---- -- --- -- --- ------- -- - -----<br>punishable -- -- -- ---- ----- -- ------ -- --- ------<br>-------,175545.09999990463,175540.09999990463,175363.657,175379.70000004768,175380.323,175546.983,,38,punishable
screen,html.Screen,2_3_1_0_1_39,2022-02-16T09:06:01.850Z,,,,,,,,,,,,,,,,,48,,,,,,,,,,,,,,159.01699999999255,,response,,,,10,C,,,,,,Space,keypress(Space),,,,instrumental,,,,-- -- --- ------ ------- --------- ----------- --------<br>--------- -------- --- ------- -- ------- ---- -- ------<br>-- --- -------- -------- ---------- ---- ---- ---- ------<br>-- --------- -- ---- -- --- -- --- ------- -- - -----<br>---------- by -- -- ---- ----- -- ------ -- --- ------<br>-------,175711.09999990463,175706,175530.317,175545.29999995232,175546.983,175713.643,,39,by
screen,html.Screen,2_3_1_0_1_40,2022-02-16T09:06:02.028Z,,,,,,,,,,,,,,,,,48,,,,,,,,,,,,,,170.45699990462163,,response,,,,10,C,,,,,,Space,keypress(Space),,,,instrumental,,,,-- -- --- ------ ------- --------- ----------- --------<br>--------- -------- --- ------- -- ------- ---- -- ------<br>-- --- -------- -------- ---------- ---- ---- ---- ------<br>-- --------- -- ---- -- --- -- --- ------- -- - -----<br>---------- -- up -- ---- ----- -- ------ -- --- ------<br>-------,175889.40000009537,175884.09999990463,175696.977,175711.29999995232,175713.643,175896.969,,40,up
screen,html.Screen,2_3_1_0_1_41,2022-02-16T09:06:02.191Z,,,,,,,,,,,,,,,,,48,,,,,,,,,,,,,,150.03099999998813,,response,,,,10,C,,,,,,Space,keypress(Space),,,,instrumental,,,,-- -- --- ------ ------- --------- ----------- --------<br>--------- -------- --- ------- -- ------- ---- -- ------<br>-- --- -------- -------- ---------- ---- ---- ---- ------<br>-- --------- -- ---- -- --- -- --- ------- -- - -----<br>---------- -- -- to ---- ----- -- ------ -- --- ------<br>-------,176052,176047,175880.303,175889.5,175896.969,176063.629,,41,to
screen,html.Screen,2_3_1_0_1_42,2022-02-16T09:06:02.350Z,,,,,,,,,,,,,,,,,48,,,,,,,,,,,,,,142.27100009538117,,response,,,,10,C,,,,,,Space,keypress(Space),,,,instrumental,,,,-- -- --- ------ ------- --------- ----------- --------<br>--------- -------- --- ------- -- ------- ---- -- ------<br>-- --- -------- -------- ---------- ---- ---- ---- ------<br>-- --------- -- ---- -- --- -- --- ------- -- - -----<br>---------- -- -- -- five ----- -- ------ -- --- ------<br>-------,176211,176205.90000009537,176046.963,176052.20000004768,176063.629,176213.623,,42,five
