sender,sender_type,sender_id,timestamp,meta,,Blues,Classical,Country,Dance,Electronic,Folk,Gospel,Hip-Hop,Jazz,Latin,Musical/Film,New-age,Pop,Prolific_id,Provo_ID,R&B,Rap,Reggae,Religious,Rock,Soul,Swing,Traditional,age,artist_name,correct,correctResponse,distraction,duration,education,ended_on,familiarity,gender,headphone_check_performance,item,list,music_frequency,offensiveness,pleasantness,position_correct,preference,response,response_action,snippet_file,song_name,song_rating,sound,stimulus_1,stimulus_2,stimulus_3,text,time_commit,time_end,time_render,time_run,time_show,time_switch,url,word,word_ID
Prolific ID,html.Form,0,2022-02-15T16:25:15.401Z,"{""labjs_version"":""20.2.2"",""labjs_build"":{""flavor"":""production"",""commit"":""a25486e0c714a0ae2ce03ff94b7bb6896854dcfa""},""location"":""https://run.pavlovia.org/mvasilev/prolific2_music_b/"",""userAgent"":""Mozilla/5.0 (Macintosh; Intel Mac OS X 10_11_6) AppleWebKit/537.36 (KHTML, like Gecko) Chrome/98.0.4758.80 Safari/537.36"",""platform"":""MacIntel"",""language"":""en-US"",""locale"":""en-US"",""timeZone"":""Europe/London"",""timezoneOffset"":0,""screen_width"":1440,""screen_height"":900,""scroll_width"":1329,""scroll_height"":647,""window_innerWidth"":1329,""window_innerHeight"":695,""devicePixelRatio"":1}",,,,,,,,,,,,,,,611be5e583ed1955429fb4bb,,,,,,,,,,,,,,,8777.618999964237,,form submission,,,,,,,,,,,,,,,,,,,,,20038.599999964237,20037.099999964237,11192.813,11196,11259.481,20042.99,{},,
Introduction,html.Screen,1_0,2022-02-15T16:25:27.541Z,,,,,,,,,,,,,,,,,,,,,,,,,,,,,,,12130.509999999998,,response,,,,,,,,,,,continue,click button,,,,,,,,,32178.19999998808,32173.5,20026.323,20039.80000001192,20042.99,32193.233,,,
Volume calibration,html.Screen,1_1,2022-02-15T16:25:44.048Z,,,,,,,,,,,,,,,,,,,,,,,,,,,,,,,16485.866999964237,,response,,,,,,,,,,,continue,click button,,,,,,,,,48684.80000001192,48679.09999996424,32159.899,32178.5,32193.233,48693.563,,,
Task instructions,html.Screen,1_2,2022-02-15T16:25:51.443Z,,,,,,,,,,,,,,,,,,,,,,,,,,,,,,,7384.136999988077,,response,,,,,,,,,,,continue,click button,,,,,,,,,56079.30000001192,56077.69999998808,48676.896,48685,48693.563,56093.711,,,
Sounds,html.Screen,1_3_0_0,2022-02-15T16:25:55.696Z,,,,,,,,,,,,,,,,,,,,,,,,,,,,,,,4250.084999999999,,timeout,,,,,,,,,2,,,,,,,,I,S,O,,60332.39999997616,60327.129,56077.044,56079.59999996424,56093.711,60343.796,,,
Judgement,html.Screen,1_3_0_1,2022-02-15T16:25:57.749Z,,,,,,,,,,,,,,,,,,,,,,,,,,,,true,2,,2035.103999976156,,response,,,,,,,,,2,,2,click #choice-2,,,,,I,S,O,,62385.09999996424,62378.89999997616,60327.129,60332.59999996424,60343.796,62393.837,,,
Trial,flow.Sequence,1_3_0,2022-02-15T16:25:57.749Z,,,,,,,,,,,,,,,,,,,,,,,,,,,,,,,6285.188999976155,,completion,,,,,,,,,2,,,,,,,,I,S,O,,62385.59999996424,62378.89999997616,56077.044,56079.59999996424,56093.711,62393.837,,,
Sounds,html.Screen,1_3_1_0,2022-02-15T16:26:01.994Z,,,,,,,,,,,,,,,,,,,,,,,,,,,,,,,4250.085000000006,,timeout,,,,,,,,,1,,,,,,,,S,O,I,,66630.5,66627.255,62377.17,62386.30000001192,62393.837,66643.922,,,
Judgement,html.Screen,1_3_1_1,2022-02-15T16:26:02.532Z,,,,,,,,,,,,,,,,,,,,,,,,,,,,true,1,,522.2779999880731,,response,,,,,,,,,1,,1,click #choice-1,,,,,S,O,I,,67168.30000001192,67166.19999998808,66627.255,66630.89999997616,66643.922,67177.266,,,
Trial,flow.Sequence,1_3_1,2022-02-15T16:26:02.532Z,,,,,,,,,,,,,,,,,,,,,,,,,,,,,,,4772.3629999880795,,completion,,,,,,,,,1,,,,,,,,S,O,I,,67168.59999996424,67166.19999998808,62377.17,62385.80000001192,62393.837,67177.266,,,
Sounds,html.Screen,1_3_2_0,2022-02-15T16:26:06.778Z,,,,,,,,,,,,,,,,,,,,,,,,,,,,,,,4250.084999999992,,timeout,,,,,,,,,2,,,,,,,,O,S,I,,71414.19999998808,71410.684,67160.599,67168.80000001192,67177.266,71427.351,,,
Judgement,html.Screen,1_3_2_1,2022-02-15T16:26:07.539Z,,,,,,,,,,,,,,,,,,,,,,,,,,,,true,2,,745.848999988084,,response,,,,,,,,,2,,2,click #choice-2,,,,,O,S,I,,72175,72173.19999998808,71410.684,71414.5,71427.351,72177.366,,,
Trial,flow.Sequence,1_3_2,2022-02-15T16:26:07.539Z,,,,,,,,,,,,,,,,,,,,,,,,,,,,,,,4995.933999988076,,completion,,,,,,,,,2,,,,,,,,O,S,I,,72175.30000001192,72173.19999998808,67160.599,67168.69999998808,67177.266,72177.366,,,
Sounds,html.Screen,1_3_3_0,2022-02-15T16:26:11.776Z,,,,,,,,,,,,,,,,,,,,,,,,,,,,,,,4250.085000000006,,timeout,,,,,,,,,3,,,,,,,,O,I,S,,76412.09999996424,76410.784,72160.699,72175.39999997616,72177.366,76427.451,,,
Judgement,html.Screen,1_3_3_1,2022-02-15T16:26:12.462Z,,,,,,,,,,,,,,,,,,,,,,,,,,,,true,3,,668.84900001192,,response,,,,,,,,,3,,3,click #choice-3,,,,,O,I,S,,77098.19999998808,77096.30000001192,76410.784,76412.5,76427.451,77110.798,,,
Trial,flow.Sequence,1_3_3,2022-02-15T16:26:12.463Z,,,,,,,,,,,,,,,,,,,,,,,,,,,,,,,4918.934000011926,,completion,,,,,,,,,3,,,,,,,,O,I,S,,77098.5,77096.30000001192,72160.699,72175.39999997616,72177.366,77110.798,,,
Sounds,html.Screen,1_3_4_0,2022-02-15T16:26:16.710Z,,,,,,,,,,,,,,,,,,,,,,,,,,,,,,,4250.085000000006,,timeout,,,,,,,,,1,,,,,,,,S,I,O,,81346.09999996424,81344.216,77094.131,77098.69999998808,77110.798,81360.883,,,
Judgement,html.Screen,1_3_4_1,2022-02-15T16:26:17.485Z,,,,,,,,,,,,,,,,,,,,,,,,,,,,true,1,,757.9170000119193,,response,,,,,,,,,1,,1,click #choice-1,,,,,S,I,O,,82121.30000001192,82118.80000001192,81344.216,81346.30000001192,81360.883,82127.565,,,
Trial,flow.Sequence,1_3_4,2022-02-15T16:26:17.486Z,,,,,,,,,,,,,,,,,,,,,,,,,,,,,,,5008.002000011926,,completion,,,,,,,,,1,,,,,,,,S,I,O,,82121.69999998808,82118.80000001192,77094.131,77098.59999996424,77110.798,82127.565,,,
Sounds,html.Screen,1_3_5_0,2022-02-15T16:26:21.727Z,,,,,,,,,,,,,,,,,,,,,,,,,,,,,,,4250.084999999992,,timeout,,,,,,,,,3,,,,,,,,I,O,S,,86362.89999997616,86360.983,82110.898,82121.89999997616,82127.565,86377.65,,,
Judgement,html.Screen,1_3_5_1,2022-02-15T16:26:22.496Z,,,,,,,,,,,,,,,,,,,,,,,,,,,,true,3,,750.1500000119267,,response,,,,,,,,,3,,3,click #choice-3,,,,,I,O,S,,87131.80000001192,87127.80000001192,86360.983,86363.09999996424,86377.65,87144.332,,,
Trial,flow.Sequence,1_3_5,2022-02-15T16:26:22.497Z,,,,,,,,,,,,,,,,,,,,,,,,,,,,,,,5000.235000011919,,completion,,,,,,,,,3,,,,,,,,I,O,S,,87132.5,87127.80000001192,82110.898,82121.80000001192,82127.565,87144.332,,,
Task,flow.Loop,1_3,2022-02-15T16:26:22.503Z,,,,,,,,,,,,,,,,,,,,,,,,,,,,,,,31034.089000011918,,completion,,,1,,,,,,,,,,,,,,,,,,87138.39999997616,87127.80000001192,56077.044,56079.59999996424,56093.711,87144.332,,,
Trap,html.Screen,1_4,2022-02-15T16:26:22.504Z,,,,,,,,,,,,,,,,,,,,,,,,,,,,,,,NaN,,skipped,,,,,,,,,,,,,,,,,,,,,87140,87127.80000001192,,87139.89999997616,,87144.332,,,
Thanks,html.Screen,1_5,2022-02-15T16:26:25.020Z,,,,,,,,,,,,,,,,,,,,,,,,,,,,,,,2509.2679999642423,,response,,,,,,,,,,,continue,click button,,,,,,,,,89655.59999996424,89653.59999996424,87127.665,87140.19999998808,87144.332,93044.45,,,
Headphone screening,flow.Sequence,1,2022-02-15T16:26:25.020Z,,,,,,,,,,,,,,,,,,,,,,,,,,,,,,,69610.60999996423,,completion,,,,,,,,,,,,,,,,,,,,,89655.80000001192,89653.59999996424,20026.323,20039.5,20042.99,93044.45,,,
Instructions,html.Page,2_0,2022-02-15T16:26:44.986Z,,,,,,,,,,,,,,,,,,,,,,,,,,,,,,,16575.64999996424,,form submission,,,,,,,,,,,,,,,,,,,,,109621,109620.09999996424,93027.783,93047.19999998808,93044.45,109630.442,,,
Holding screen,html.Screen,2_1_0_0,2022-02-15T16:26:54.982Z,,,,,,,,,,,,,,,,,,,,,,,,,,,,,,,10000.200000000012,,timeout,,,,,,,,,,,,,,,,,,,,,119616.5,119613.975,109613.775,109621.80000001192,109630.442,119630.642,,,
screen,html.Screen,2_1_0_1_0,2022-02-15T16:26:56.021Z,,,,,,,,,,,,,,,,,53,,,,,,,,,,,,,,1020.8579999999929,,response,,,,99,,,,,,,Space,keypress(Space),,,,,,,,When -- ----- -- ------ - ------- --- ----------<br>------------- ------ ------ ---- ---- ------- ----- -- ----<br>-------- ------- -- ---------- --- - --- ----- ----- ----<br>---- --- --- ----- --- ---- ---- ------- ----- ---- -------<br>--- --- -- ----- -- --- ---- -- --- ---- -- ------ ------<br>--- ----- -- ----,120655.30000001192,120651.5,119613.975,119616.69999998808,119630.642,120663.996,,0,When
screen,html.Screen,2_1_0_1_1,2022-02-15T16:26:56.589Z,,,,,,,,,,,,,,,,,53,,,,,,,,,,,,,,557.3040000119217,,response,,,,99,,,,,,,Space,keypress(Space),,,,,,,,---- it ----- -- ------ - ------- --- ----------<br>------------- ------ ------ ---- ---- ------- ----- -- ----<br>-------- ------- -- ---------- --- - --- ----- ----- ----<br>---- --- --- ----- --- ---- ---- ------- ----- ---- -------<br>--- --- -- ----- -- --- ---- -- --- ---- -- ------ ------<br>--- ----- -- ----,121223.5,121221.30000001192,120647.329,120655.39999997616,120663.996,121230.674,,1,it
screen,html.Screen,2_1_0_1_2,2022-02-15T16:26:57.003Z,,,,,,,,,,,,,,,,,53,,,,,,,,,,,,,,404.92599996423814,,response,,,,99,,,,,,,Space,keypress(Space),,,,,,,,---- -- comes -- ------ - ------- --- ----------<br>------------- ------ ------ ---- ---- ------- ----- -- ----<br>-------- ------- -- ---------- --- - --- ----- ----- ----<br>---- --- --- ----- --- ---- ---- ------- ----- ---- -------<br>--- --- -- ----- -- --- ---- -- --- ---- -- ------ ------<br>--- ----- -- ----,121637.80000001192,121635.59999996424,121214.007,121223.69999998808,121230.674,121647.349,,2,comes
screen,html.Screen,2_1_0_1_3,2022-02-15T16:26:57.607Z,,,,,,,,,,,,,,,,,53,,,,,,,,,,,,,,591.150999999998,,response,,,,99,,,,,,,Space,keypress(Space),,,,,,,,---- -- ----- to ------ - ------- --- ----------<br>------------- ------ ------ ---- ---- ------- ----- -- ----<br>-------- ------- -- ---------- --- - --- ----- ----- ----<br>---- --- --- ----- --- ---- ---- ------- ----- ---- -------<br>--- --- -- ----- -- --- ---- -- --- ---- -- ------ ------<br>--- ----- -- ----,122241.09999996424,122238.5,121630.682,121638,121647.349,122247.361,,3,to
screen,html.Screen,2_1_0_1_4,2022-02-15T16:26:58.123Z,,,,,,,,,,,,,,,,,53,,,,,,,,,,,,,,508.1389999999956,,response,,,,99,,,,,,,Space,keypress(Space),,,,,,,,---- -- ----- -- having - ------- --- ----------<br>------------- ------ ------ ---- ---- ------- ----- -- ----<br>-------- ------- -- ---------- --- - --- ----- ----- ----<br>---- --- --- ----- --- ---- ---- ------- ----- ---- -------<br>--- --- -- ----- -- --- ---- -- --- ---- -- ------ ------<br>--- ----- -- ----,122757.39999997616,122755.5,122230.694,122241.89999997616,122247.361,122764.038,,4,having
screen,html.Screen,2_1_0_1_5,2022-02-15T16:26:58.486Z,,,,,,,,,,,,,,,,,53,,,,,,,,,,,,,,353.46199999999953,,response,,,,99,,,,,,,Space,keypress(Space),,,,,,,,---- -- ----- -- ------ a ------- --- ----------<br>------------- ------ ------ ---- ---- ------- ----- -- ----<br>-------- ------- -- ---------- --- - --- ----- ----- ----<br>---- --- --- ----- --- ---- ---- ------- ----- ---- -------<br>--- --- -- ----- -- --- ---- -- --- ---- -- ------ ------<br>--- ----- -- ----,123120.69999998808,123117.5,122747.371,122757.59999996424,122764.038,123130.712,,5,a
screen,html.Screen,2_1_0_1_6,2022-02-15T16:26:58.832Z,,,,,,,,,,,,,,,,,53,,,,,,,,,,,,,,333.5880000119214,,response,,,,99,,,,,,,Space,keypress(Space),,,,,,,,---- -- ----- -- ------ - lasting --- ----------<br>------------- ------ ------ ---- ---- ------- ----- -- ----<br>-------- ------- -- ---------- --- - --- ----- ----- ----<br>---- --- --- ----- --- ---- ---- ------- ----- ---- -------<br>--- --- -- ----- -- --- ---- -- --- ---- -- ------ ------<br>--- ----- -- ----,123466.39999997616,123464.30000001192,123114.045,123120.89999997616,123130.712,123480.719,,6,lasting
screen,html.Screen,2_1_0_1_7,2022-02-15T16:26:59.312Z,,,,,,,,,,,,,,,,,53,,,,,,,,,,,,,,463.48099998808175,,response,,,,99,,,,,,,Space,keypress(Space),,,,,,,,---- -- ----- -- ------ - ------- and ----------<br>------------- ------ ------ ---- ---- ------- ----- -- ----<br>-------- ------- -- ---------- --- - --- ----- ----- ----<br>---- --- --- ----- --- ---- ---- ------- ----- ---- -------<br>--- --- -- ----- -- --- ---- -- --- ---- -- ------ ------<br>--- ----- -- ----,123946.09999996424,123944.19999998808,123464.052,123466.59999996424,123480.719,123947.395,,7,and
screen,html.Screen,2_1_0_1_8,2022-02-15T16:27:00.060Z,,,,,,,,,,,,,,,,,53,,,,,,,,,,,,,,744.9050000119169,,response,,,,99,,,,,,,Space,keypress(Space),,,,,,,,---- -- ----- -- ------ - ------- --- fulfilling<br>------------- ------ ------ ---- ---- ------- ----- -- ----<br>-------- ------- -- ---------- --- - --- ----- ----- ----<br>---- --- --- ----- --- ---- ---- ------- ----- ---- -------<br>--- --- -- ----- -- --- ---- -- --- ---- -- ------ ------<br>--- ----- -- ----,124694.09999996424,124692.30000001192,123930.728,123946.30000001192,123947.395,124697.41,,8,fulfilling
screen,html.Screen,2_1_0_1_9,2022-02-15T16:27:00.639Z,,,,,,,,,,,,,,,,,53,,,,,,,,,,,,,,573.8900000119174,,response,,,,99,,,,,,,Space,keypress(Space),,,,,,,,"---- -- ----- -- ------ - ------- --- ----------<br>relationship, ------ ------ ---- ---- ------- ----- -- ----<br>-------- ------- -- ---------- --- - --- ----- ----- ----<br>---- --- --- ----- --- ---- ---- ------- ----- ---- -------<br>--- --- -- ----- -- --- ---- -- --- ---- -- ------ ------<br>--- ----- -- ----",125273.69999998808,125271.30000001192,124680.743,124694.19999998808,124697.41,125280.755,,9,"relationship,"
screen,html.Screen,2_1_0_1_10,2022-02-15T16:27:01.073Z,,,,,,,,,,,,,,,,,53,,,,,,,,,,,,,,423.5450000119163,,response,,,,99,,,,,,,Space,keypress(Space),,,,,,,,---- -- ----- -- ------ - ------- --- ----------<br>------------- common ------ ---- ---- ------- ----- -- ----<br>-------- ------- -- ---------- --- - --- ----- ----- ----<br>---- --- --- ----- --- ---- ---- ------- ----- ---- -------<br>--- --- -- ----- -- --- ---- -- --- ---- -- ------ ------<br>--- ----- -- ----,125707.19999998808,125704.30000001192,125264.088,125274,125280.755,125714.097,,10,common
screen,html.Screen,2_1_0_1_11,2022-02-15T16:27:01.500Z,,,,,,,,,,,,,,,,,53,,,,,,,,,,,,,,418.1029999880848,,response,,,,99,,,,,,,Space,keypress(Space),,,,,,,,---- -- ----- -- ------ - ------- --- ----------<br>------------- ------ wisdom ---- ---- ------- ----- -- ----<br>-------- ------- -- ---------- --- - --- ----- ----- ----<br>---- --- --- ----- --- ---- ---- ------- ----- ---- -------<br>--- --- -- ----- -- --- ---- -- --- ---- -- ------ ------<br>--- ----- -- ----,126134.09999996424,126132.19999998808,125697.43,125707.5,125714.097,126147.439,,11,wisdom
screen,html.Screen,2_1_0_1_12,2022-02-15T16:27:02.173Z,,,,,,,,,,,,,,,,,53,,,,,,,,,,,,,,656.7609999880806,,response,,,,99,,,,,,,Space,keypress(Space),,,,,,,,---- -- ----- -- ------ - ------- --- ----------<br>------------- ------ ------ says ---- ------- ----- -- ----<br>-------- ------- -- ---------- --- - --- ----- ----- ----<br>---- --- --- ----- --- ---- ---- ------- ----- ---- -------<br>--- --- -- ----- -- --- ---- -- --- ---- -- ------ ------<br>--- ----- -- ----,126807,126804.19999998808,126130.772,126134.39999997616,126147.439,126814.119,,12,says
screen,html.Screen,2_1_0_1_13,2022-02-15T16:27:02.589Z,,,,,,,,,,,,,,,,,53,,,,,,,,,,,,,,406.98099996423116,,response,,,,99,,,,,,,Space,keypress(Space),,,,,,,,---- -- ----- -- ------ - ------- --- ----------<br>------------- ------ ------ ---- that ------- ----- -- ----<br>-------- ------- -- ---------- --- - --- ----- ----- ----<br>---- --- --- ----- --- ---- ---- ------- ----- ---- -------<br>--- --- -- ----- -- --- ---- -- --- ---- -- ------ ------<br>--- ----- -- ----,127223.19999998808,127221.09999996424,126797.452,126807.19999998808,126814.119,127230.794,,13,that
screen,html.Screen,2_1_0_1_14,2022-02-15T16:27:03.198Z,,,,,,,,,,,,,,,,,53,,,,,,,,,,,,,,599.3059999642428,,response,,,,99,,,,,,,Space,keypress(Space),,,,,,,,---- -- ----- -- ------ - ------- --- ----------<br>------------- ------ ------ ---- ---- feeling ----- -- ----<br>-------- ------- -- ---------- --- - --- ----- ----- ----<br>---- --- --- ----- --- ---- ---- ------- ----- ---- -------<br>--- --- -- ----- -- --- ---- -- --- ---- -- ------ ------<br>--- ----- -- ----,127832.19999998808,127830.09999996424,127214.127,127223.5,127230.794,127847.473,,14,feeling
screen,html.Screen,2_1_0_1_15,2022-02-15T16:27:03.788Z,,,,,,,,,,,,,,,,,53,,,,,,,,,,,,,,572.6269999642391,,response,,,,99,,,,,,,Space,keypress(Space),,,,,,,,---- -- ----- -- ------ - ------- --- ----------<br>------------- ------ ------ ---- ---- ------- close -- ----<br>-------- ------- -- ---------- --- - --- ----- ----- ----<br>---- --- --- ----- --- ---- ---- ------- ----- ---- -------<br>--- --- -- ----- -- --- ---- -- --- ---- -- ------ ------<br>--- ----- -- ----,128422.5,128420.09999996424,127830.806,127832.39999997616,127847.473,128430.818,,15,close
screen,html.Screen,2_1_0_1_16,2022-02-15T16:27:04.118Z,,,,,,,,,,,,,,,,,53,,,,,,,,,,,,,,318.9820000119216,,response,,,,99,,,,,,,Space,keypress(Space),,,,,,,,---- -- ----- -- ------ - ------- --- ----------<br>------------- ------ ------ ---- ---- ------- ----- to ----<br>-------- ------- -- ---------- --- - --- ----- ----- ----<br>---- --- --- ----- --- ---- ---- ------- ----- ---- -------<br>--- --- -- ----- -- --- ---- -- --- ---- -- ------ ------<br>--- ----- -- ----,128752.30000001192,128749.80000001192,128414.151,128422.69999998808,128430.818,128764.158,,16,to
screen,html.Screen,2_1_0_1_17,2022-02-15T16:27:04.570Z,,,,,,,,,,,,,,,,,53,,,,,,,,,,,,,,437.6420000119251,,response,,,,99,,,,,,,Space,keypress(Space),,,,,,,,---- -- ----- -- ------ - ------- --- ----------<br>------------- ------ ------ ---- ---- ------- ----- -- your<br>-------- ------- -- ---------- --- - --- ----- ----- ----<br>---- --- --- ----- --- ---- ---- ------- ----- ---- -------<br>--- --- -- ----- -- --- ---- -- --- ---- -- ------ ------<br>--- ----- -- ----,129204.30000001192,129201.80000001192,128747.491,128752.59999996424,128764.158,129214.167,,17,your
screen,html.Screen,2_1_0_1_18,2022-02-15T16:27:05.124Z,,,,,,,,,,,,,,,,,53,,,,,,,,,,,,,,541.7329999761569,,response,,,,99,,,,,,,Space,keypress(Space),,,,,,,,---- -- ----- -- ------ - ------- --- ----------<br>------------- ------ ------ ---- ---- ------- ----- -- ----<br>romantic ------- -- ---------- --- - --- ----- ----- ----<br>---- --- --- ----- --- ---- ---- ------- ----- ---- -------<br>--- --- -- ----- -- --- ---- -- --- ---- -- ------ ------<br>--- ----- -- ----,129758.19999998808,129755.89999997616,129197.5,129204.59999996424,129214.167,129764.178,,18,romantic
screen,html.Screen,2_1_0_1_19,2022-02-15T16:27:05.590Z,,,,,,,,,,,,,,,,,53,,,,,,,,,,,,,,457.8220000000001,,response,,,,99,,,,,,,Space,keypress(Space),,,,,,,,---- -- ----- -- ------ - ------- --- ----------<br>------------- ------ ------ ---- ---- ------- ----- -- ----<br>-------- partner -- ---------- --- - --- ----- ----- ----<br>---- --- --- ----- --- ---- ---- ------- ----- ---- -------<br>--- --- -- ----- -- --- ---- -- --- ---- -- ------ ------<br>--- ----- -- ----,130224.59999996424,130222,129747.511,129758.5,129764.178,130230.854,,19,partner
screen,html.Screen,2_1_0_1_20,2022-02-15T16:27:05.976Z,,,,,,,,,,,,,,,,,53,,,,,,,,,,,,,,376.0459999761515,,response,,,,99,,,,,,,Space,keypress(Space),,,,,,,,---- -- ----- -- ------ - ------- --- ----------<br>------------- ------ ------ ---- ---- ------- ----- -- ----<br>-------- ------- is ---------- --- - --- ----- ----- ----<br>---- --- --- ----- --- ---- ---- ------- ----- ---- -------<br>--- --- -- ----- -- --- ---- -- --- ---- -- ------ ------<br>--- ----- -- ----,130610.19999998808,130606.89999997616,130214.187,130224.89999997616,130230.854,130614.195,,20,is
screen,html.Screen,2_1_0_1_21,2022-02-15T16:27:06.373Z,,,,,,,,,,,,,,,,,53,,,,,,,,,,,,,,389.70499997615116,,response,,,,99,,,,,,,Space,keypress(Space),,,,,,,,---- -- ----- -- ------ - ------- --- ----------<br>------------- ------ ------ ---- ---- ------- ----- -- ----<br>-------- ------- -- paramount. --- - --- ----- ----- ----<br>---- --- --- ----- --- ---- ---- ------- ----- ---- -------<br>--- --- -- ----- -- --- ---- -- --- ---- -- ------ ------<br>--- ----- -- ----,131006.80000001192,131003.89999997616,130597.528,130610.59999996424,130614.195,131014.203,,21,paramount.
screen,html.Screen,2_1_0_1_22,2022-02-15T16:27:06.986Z,,,,,,,,,,,,,,,,,53,,,,,,,,,,,,,,603.6969999761641,,response,,,,99,,,,,,,Space,keypress(Space),,,,,,,,---- -- ----- -- ------ - ------- --- ----------<br>------------- ------ ------ ---- ---- ------- ----- -- ----<br>-------- ------- -- ---------- But - --- ----- ----- ----<br>---- --- --- ----- --- ---- ---- ------- ----- ---- -------<br>--- --- -- ----- -- --- ---- -- --- ---- -- ------ ------<br>--- ----- -- ----,131620,131617.89999997616,130997.536,131007.5,131014.203,131630.882,,22,But
screen,html.Screen,2_1_0_1_23,2022-02-15T16:27:07.348Z,,,,,,,,,,,,,,,,,53,,,,,,,,,,,,,,347.81799998806673,,response,,,,99,,,,,,,Space,keypress(Space),,,,,,,,---- -- ----- -- ------ - ------- --- ----------<br>------------- ------ ------ ---- ---- ------- ----- -- ----<br>-------- ------- -- ---------- --- a --- ----- ----- ----<br>---- --- --- ----- --- ---- ---- ------- ----- ---- -------<br>--- --- -- ----- -- --- ---- -- --- ---- -- ------ ------<br>--- ----- -- ----,131981.89999997616,131978.69999998808,131614.215,131620.39999997616,131630.882,131997.556,,23,a
screen,html.Screen,2_1_0_1_24,2022-02-15T16:27:07.728Z,,,,,,,,,,,,,,,,,53,,,,,,,,,,,,,,362.2440000119095,,response,,,,99,,,,,,,Space,keypress(Space),,,,,,,,---- -- ----- -- ------ - ------- --- ----------<br>------------- ------ ------ ---- ---- ------- ----- -- ----<br>-------- ------- -- ---------- --- - new ----- ----- ----<br>---- --- --- ----- --- ---- ---- ------- ----- ---- -------<br>--- --- -- ----- -- --- ---- -- --- ---- -- ------ ------<br>--- ----- -- ----,132361.69999998808,132359.80000001192,131980.889,131982,131997.556,132364.23,,24,new
screen,html.Screen,2_1_0_1_25,2022-02-15T16:27:08.142Z,,,,,,,,,,,,,,,,,53,,,,,,,,,,,,,,409.4699999880686,,response,,,,99,,,,,,,Space,keypress(Space),,,,,,,,---- -- ----- -- ------ - ------- --- ----------<br>------------- ------ ------ ---- ---- ------- ----- -- ----<br>-------- ------- -- ---------- --- - --- study ----- ----<br>---- --- --- ----- --- ---- ---- ------- ----- ---- -------<br>--- --- -- ----- -- --- ---- -- --- ---- -- ------ ------<br>--- ----- -- ----,132775.69999998808,132773.69999998808,132347.563,132361.89999997616,132364.23,132780.905,,25,study
screen,html.Screen,2_1_0_1_26,2022-02-15T16:27:08.734Z,,,,,,,,,,,,,,,,,53,,,,,,,,,,,,,,585.8950000119221,,response,,,,99,,,,,,,Space,keypress(Space),,,,,,,,---- -- ----- -- ------ - ------- --- ----------<br>------------- ------ ------ ---- ---- ------- ----- -- ----<br>-------- ------- -- ---------- --- - --- ----- finds ----<br>---- --- --- ----- --- ---- ---- ------- ----- ---- -------<br>--- --- -- ----- -- --- ---- -- --- ---- -- ------ ------<br>--- ----- -- ----,133368.39999997616,133366.80000001192,132764.238,132775.80000001192,132780.905,133380.917,,26,finds
screen,html.Screen,2_1_0_1_27,2022-02-15T16:27:09.406Z,,,,,,,,,,,,,,,,,53,,,,,,,,,,,,,,656.7829999880923,,response,,,,99,,,,,,,Space,keypress(Space),,,,,,,,---- -- ----- -- ------ - ------- --- ----------<br>------------- ------ ------ ---- ---- ------- ----- -- ----<br>-------- ------- -- ---------- --- - --- ----- ----- that<br>---- --- --- ----- --- ---- ---- ------- ----- ---- -------<br>--- --- -- ----- -- --- ---- -- --- ---- -- ------ ------<br>--- ----- -- ----,134040.19999998808,134037.69999998808,133364.25,133368.5,133380.917,134047.597,,27,that
screen,html.Screen,2_1_0_1_28,2022-02-15T16:27:09.879Z,,,,,,,,,,,,,,,,,53,,,,,,,,,,,,,,463.1029999880702,,response,,,,99,,,,,,,Space,keypress(Space),,,,,,,,---- -- ----- -- ------ - ------- --- ----------<br>------------- ------ ------ ---- ---- ------- ----- -- ----<br>-------- ------- -- ---------- --- - --- ----- ----- ----<br>it's --- --- ----- --- ---- ---- ------- ----- ---- -------<br>--- --- -- ----- -- --- ---- -- --- ---- -- ------ ------<br>--- ----- -- ----,134512.69999998808,134510.69999998808,134030.93,134040.59999996424,134047.597,134514.273,,28,it's
screen,html.Screen,2_1_0_1_29,2022-02-15T16:27:10.244Z,,,,,,,,,,,,,,,,,53,,,,,,,,,,,,,,361.4269999880926,,response,,,,99,,,,,,,Space,keypress(Space),,,,,,,,---- -- ----- -- ------ - ------- --- ----------<br>------------- ------ ------ ---- ---- ------- ----- -- ----<br>-------- ------- -- ---------- --- - --- ----- ----- ----<br>---- not --- ----- --- ---- ---- ------- ----- ---- -------<br>--- --- -- ----- -- --- ---- -- --- ---- -- ------ ------<br>--- ----- -- ----,134877.59999996424,134875.69999998808,134497.606,134512.89999997616,134514.273,134880.947,,29,not
screen,html.Screen,2_1_0_1_30,2022-02-15T16:27:10.646Z,,,,,,,,,,,,,,,,,53,,,,,,,,,,,,,,396.55300000001444,,response,,,,99,,,,,,,Space,keypress(Space),,,,,,,,---- -- ----- -- ------ - ------- --- ----------<br>------------- ------ ------ ---- ---- ------- ----- -- ----<br>-------- ------- -- ---------- --- - --- ----- ----- ----<br>---- --- how ----- --- ---- ---- ------- ----- ---- -------<br>--- --- -- ----- -- --- ---- -- --- ---- -- ------ ------<br>--- ----- -- ----,135279.59999996424,135277.5,134864.28,134877.89999997616,134880.947,135297.622,,30,how
screen,html.Screen,2_1_0_1_31,2022-02-15T16:27:11.453Z,,,,,,,,,,,,,,,,,53,,,,,,,,,,,,,,787.077999988076,,response,,,,99,,,,,,,Space,keypress(Space),,,,,,,,---- -- ----- -- ------ - ------- --- ----------<br>------------- ------ ------ ---- ---- ------- ----- -- ----<br>-------- ------- -- ---------- --- - --- ----- ----- ----<br>---- --- --- close --- ---- ---- ------- ----- ---- -------<br>--- --- -- ----- -- --- ---- -- --- ---- -- ------ ------<br>--- ----- -- ----,136087,136084.69999998808,135280.955,135279.80000001192,135297.622,136097.638,,31,close
screen,html.Screen,2_1_0_1_32,2022-02-15T16:27:11.808Z,,,,,,,,,,,,,,,,,53,,,,,,,,,,,,,,341.9619999642309,,response,,,,99,,,,,,,Space,keypress(Space),,,,,,,,---- -- ----- -- ------ - ------- --- ----------<br>------------- ------ ------ ---- ---- ------- ----- -- ----<br>-------- ------- -- ---------- --- - --- ----- ----- ----<br>---- --- --- ----- you ---- ---- ------- ----- ---- -------<br>--- --- -- ----- -- --- ---- -- --- ---- -- ------ ------<br>--- ----- -- ----,136441.59999996424,136439.59999996424,136080.971,136087.30000001192,136097.638,136447.645,,32,you
screen,html.Screen,2_1_0_1_33,2022-02-15T16:27:12.302Z,,,,,,,,,,,,,,,,,53,,,,,,,,,,,,,,484.9549999642477,,response,,,,99,,,,,,,Space,keypress(Space),,,,,,,,---- -- ----- -- ------ - ------- --- ----------<br>------------- ------ ------ ---- ---- ------- ----- -- ----<br>-------- ------- -- ---------- --- - --- ----- ----- ----<br>---- --- --- ----- --- feel ---- ------- ----- ---- -------<br>--- --- -- ----- -- --- ---- -- --- ---- -- ------ ------<br>--- ----- -- ----,136935.39999997616,136932.59999996424,136430.978,136441.69999998808,136447.645,136947.655,,33,feel
screen,html.Screen,2_1_0_1_34,2022-02-15T16:27:12.959Z,,,,,,,,,,,,,,,,,53,,,,,,,,,,,,,,643.7449999761593,,response,,,,99,,,,,,,Space,keypress(Space),,,,,,,,---- -- ----- -- ------ - ------- --- ----------<br>------------- ------ ------ ---- ---- ------- ----- -- ----<br>-------- ------- -- ---------- --- - --- ----- ----- ----<br>---- --- --- ----- --- ---- that ------- ----- ---- -------<br>--- --- -- ----- -- --- ---- -- --- ---- -- ------ ------<br>--- ----- -- ----,137593.30000001192,137591.39999997616,136930.988,136935.59999996424,136947.655,137597.668,,34,that
screen,html.Screen,2_1_0_1_35,2022-02-15T16:27:13.553Z,,,,,,,,,,,,,,,,,53,,,,,,,,,,,,,,586.731999976153,,response,,,,99,,,,,,,Space,keypress(Space),,,,,,,,---- -- ----- -- ------ - ------- --- ----------<br>------------- ------ ------ ---- ---- ------- ----- -- ----<br>-------- ------- -- ---------- --- - --- ----- ----- ----<br>---- --- --- ----- --- ---- ---- matters ----- ---- -------<br>--- --- -- ----- -- --- ---- -- --- ---- -- ------ ------<br>--- ----- -- ----,138186.69999998808,138184.39999997616,137581.001,137593.59999996424,137597.668,138197.68,,35,matters
screen,html.Screen,2_1_0_1_36,2022-02-15T16:27:14.081Z,,,,,,,,,,,,,,,,,53,,,,,,,,,,,,,,514.6200000119279,,response,,,,99,,,,,,,Space,keypress(Space),,,,,,,,"---- -- ----- -- ------ - ------- --- ----------<br>------------- ------ ------ ---- ---- ------- ----- -- ----<br>-------- ------- -- ---------- --- - --- ----- ----- ----<br>---- --- --- ----- --- ---- ---- ------- most, ---- -------<br>--- --- -- ----- -- --- ---- -- --- ---- -- ------ ------<br>--- ----- -- ----",138714.39999997616,138712.30000001192,138181.013,138187.19999998808,138197.68,138731.024,,36,"most,"
screen,html.Screen,2_1_0_1_37,2022-02-15T16:27:14.674Z,,,,,,,,,,,,,,,,,53,,,,,,,,,,,,,,574.4759999999951,,response,,,,99,,,,,,,Space,keypress(Space),,,,,,,,---- -- ----- -- ------ - ------- --- ----------<br>------------- ------ ------ ---- ---- ------- ----- -- ----<br>-------- ------- -- ---------- --- - --- ----- ----- ----<br>---- --- --- ----- --- ---- ---- ------- ----- it's -------<br>--- --- -- ----- -- --- ---- -- --- ---- -- ------ ------<br>--- ----- -- ----,139307.80000001192,139305.5,138714.357,138714.69999998808,138731.024,139314.369,,37,it's
screen,html.Screen,2_1_0_1_38,2022-02-15T16:27:15.084Z,,,,,,,,,,,,,,,,,53,,,,,,,,,,,,,,401.9310000119149,,response,,,,99,,,,,,,Space,keypress(Space),,,,,,,,---- -- ----- -- ------ - ------- --- ----------<br>------------- ------ ------ ---- ---- ------- ----- -- ----<br>-------- ------- -- ---------- --- - --- ----- ----- ----<br>---- --- --- ----- --- ---- ---- ------- ----- ---- whether<br>--- --- -- ----- -- --- ---- -- --- ---- -- ------ ------<br>--- ----- -- ----,139718.09999996424,139716.30000001192,139297.702,139308,139314.369,139731.044,,38,whether
screen,html.Screen,2_1_0_1_39,2022-02-15T16:27:15.481Z,,,,,,,,,,,,,,,,,53,,,,,,,,,,,,,,381.4560000000056,,response,,,,99,,,,,,,Space,keypress(Space),,,,,,,,---- -- ----- -- ------ - ------- --- ----------<br>------------- ------ ------ ---- ---- ------- ----- -- ----<br>-------- ------- -- ---------- --- - --- ----- ----- ----<br>---- --- --- ----- --- ---- ---- ------- ----- ---- -------<br>you --- -- ----- -- --- ---- -- --- ---- -- ------ ------<br>--- ----- -- ----,140115.19999998808,140112.5,139714.377,139718.09999996424,139731.044,140131.052,,39,you
screen,html.Screen,2_1_0_1_40,2022-02-15T16:27:15.860Z,,,,,,,,,,,,,,,,,53,,,,,,,,,,,,,,359.64799998808303,,response,,,,99,,,,,,,Space,keypress(Space),,,,,,,,---- -- ----- -- ------ - ------- --- ----------<br>------------- ------ ------ ---- ---- ------- ----- -- ----<br>-------- ------- -- ---------- --- - --- ----- ----- ----<br>---- --- --- ----- --- ---- ---- ------- ----- ---- -------<br>--- are -- ----- -- --- ---- -- --- ---- -- ------ ------<br>--- ----- -- ----,140493.80000001192,140490.69999998808,140114.385,140115.5,140131.052,140497.726,,40,are
screen,html.Screen,2_1_0_1_41,2022-02-15T16:27:16.276Z,,,,,,,,,,,,,,,,,53,,,,,,,,,,,,,,409.5740000119258,,response,,,,99,,,,,,,Space,keypress(Space),,,,,,,,---- -- ----- -- ------ - ------- --- ----------<br>------------- ------ ------ ---- ---- ------- ----- -- ----<br>-------- ------- -- ---------- --- - --- ----- ----- ----<br>---- --- --- ----- --- ---- ---- ------- ----- ---- -------<br>--- --- as ----- -- --- ---- -- --- ---- -- ------ ------<br>--- ----- -- ----,140909.30000001192,140907.30000001192,140481.059,140494,140497.726,140914.401,,41,as
screen,html.Screen,2_1_0_1_42,2022-02-15T16:27:16.663Z,,,,,,,,,,,,,,,,,53,,,,,,,,,,,,,,379.99899997614557,,response,,,,99,,,,,,,Space,keypress(Space),,,,,,,,---- -- ----- -- ------ - ------- --- ----------<br>------------- ------ ------ ---- ---- ------- ----- -- ----<br>-------- ------- -- ---------- --- - --- ----- ----- ----<br>---- --- --- ----- --- ---- ---- ------- ----- ---- -------<br>--- --- -- close -- --- ---- -- --- ---- -- ------ ------<br>--- ----- -- ----,141297,141294.39999997616,140897.734,140909.5,140914.401,141314.409,,42,close
screen,html.Screen,2_1_0_1_43,2022-02-15T16:27:17.363Z,,,,,,,,,,,,,,,,,53,,,,,,,,,,,,,,679.8910000119067,,response,,,,99,,,,,,,Space,keypress(Space),,,,,,,,---- -- ----- -- ------ - ------- --- ----------<br>------------- ------ ------ ---- ---- ------- ----- -- ----<br>-------- ------- -- ---------- --- - --- ----- ----- ----<br>---- --- --- ----- --- ---- ---- ------- ----- ---- -------<br>--- --- -- ----- as --- ---- -- --- ---- -- ------ ------<br>--- ----- -- ----,141996.5,141994.30000001192,141297.742,141297.19999998808,141314.409,141997.756,,43,as
screen,html.Screen,2_1_0_1_44,2022-02-15T16:27:17.716Z,,,,,,,,,,,,,,,,,53,,,,,,,,,,,,,,349.544000011927,,response,,,,99,,,,,,,Space,keypress(Space),,,,,,,,---- -- ----- -- ------ - ------- --- ----------<br>------------- ------ ------ ---- ---- ------- ----- -- ----<br>-------- ------- -- ---------- --- - --- ----- ----- ----<br>---- --- --- ----- --- ---- ---- ------- ----- ---- -------<br>--- --- -- ----- -- you ---- -- --- ---- -- ------ ------<br>--- ----- -- ----,142349.5,142347.30000001192,141981.089,141996.69999998808,141997.756,142364.43,,44,you
screen,html.Screen,2_1_0_1_45,2022-02-15T16:27:18.126Z,,,,,,,,,,,,,,,,,53,,,,,,,,,,,,,,392.76999998808606,,response,,,,99,,,,,,,Space,keypress(Space),,,,,,,,---- -- ----- -- ------ - ------- --- ----------<br>------------- ------ ------ ---- ---- ------- ----- -- ----<br>-------- ------- -- ---------- --- - --- ----- ----- ----<br>---- --- --- ----- --- ---- ---- ------- ----- ---- -------<br>--- --- -- ----- -- --- want -- --- ---- -- ------ ------<br>--- ----- -- ----,142759.5,142757.19999998808,142347.763,142349.80000001192,142364.43,142764.438,,45,want
screen,html.Screen,2_1_0_1_46,2022-02-15T16:27:18.472Z,,,,,,,,,,,,,,,,,53,,,,,,,,,,,,,,338.7619999880844,,response,,,,99,,,,,,,Space,keypress(Space),,,,,,,,---- -- ----- -- ------ - ------- --- ----------<br>------------- ------ ------ ---- ---- ------- ----- -- ----<br>-------- ------- -- ---------- --- - --- ----- ----- ----<br>---- --- --- ----- --- ---- ---- ------- ----- ---- -------<br>--- --- -- ----- -- --- ---- to --- ---- -- ------ ------<br>--- ----- -- ----,143105.59999996424,143103.19999998808,142747.771,142759.69999998808,142764.438,143114.445,,46,to
screen,html.Screen,2_1_0_1_47,2022-02-15T16:27:18.880Z,,,,,,,,,,,,,,,,,53,,,,,,,,,,,,,,396.7549999880721,,response,,,,99,,,,,,,Space,keypress(Space),,,,,,,,"---- -- ----- -- ------ - ------- --- ----------<br>------------- ------ ------ ---- ---- ------- ----- -- ----<br>-------- ------- -- ---------- --- - --- ----- ----- ----<br>---- --- --- ----- --- ---- ---- ------- ----- ---- -------<br>--- --- -- ----- -- --- ---- -- be, ---- -- ------ ------<br>--- ----- -- ----",143513.30000001192,143511.19999998808,143097.778,143105.80000001192,143114.445,143531.12,,47,"be,"
screen,html.Screen,2_1_0_1_48,2022-02-15T16:27:19.348Z,,,,,,,,,,,,,,,,,53,,,,,,,,,,,,,,448.0799999880837,,response,,,,99,,,,,,,Space,keypress(Space),,,,,,,,---- -- ----- -- ------ - ------- --- ----------<br>------------- ------ ------ ---- ---- ------- ----- -- ----<br>-------- ------- -- ---------- --- - --- ----- ----- ----<br>---- --- --- ----- --- ---- ---- ------- ----- ---- -------<br>--- --- -- ----- -- --- ---- -- --- even -- ------ ------<br>--- ----- -- ----,143981.30000001192,143979.19999998808,143514.453,143513.69999998808,143531.12,143997.796,,48,even
screen,html.Screen,2_1_0_1_49,2022-02-15T16:27:19.712Z,,,,,,,,,,,,,,,,,53,,,,,,,,,,,,,,346.3039999642351,,response,,,,99,,,,,,,Space,keypress(Space),,,,,,,,---- -- ----- -- ------ - ------- --- ----------<br>------------- ------ ------ ---- ---- ------- ----- -- ----<br>-------- ------- -- ---------- --- - --- ----- ----- ----<br>---- --- --- ----- --- ---- ---- ------- ----- ---- -------<br>--- --- -- ----- -- --- ---- -- --- ---- if ------ ------<br>--- ----- -- ----,144346,144344.09999996424,143981.129,143981.39999997616,143997.796,144347.803,,49,if
screen,html.Screen,2_1_0_1_50,2022-02-15T16:27:20.107Z,,,,,,,,,,,,,,,,,53,,,,,,,,,,,,,,390.9970000119065,,response,,,,99,,,,,,,Space,keypress(Space),,,,,,,,---- -- ----- -- ------ - ------- --- ----------<br>------------- ------ ------ ---- ---- ------- ----- -- ----<br>-------- ------- -- ---------- --- - --- ----- ----- ----<br>---- --- --- ----- --- ---- ---- ------- ----- ---- -------<br>--- --- -- ----- -- --- ---- -- --- ---- -- that's ------<br>--- ----- -- ----,144740.5,144738.80000001192,144331.136,144346.19999998808,144347.803,144747.811,,50,that's
screen,html.Screen,2_1_0_1_51,2022-02-15T16:27:20.543Z,,,,,,,,,,,,,,,,,53,,,,,,,,,,,,,,426.98900001193397,,response,,,,99,,,,,,,Space,keypress(Space),,,,,,,,---- -- ----- -- ------ - ------- --- ----------<br>------------- ------ ------ ---- ---- ------- ----- -- ----<br>-------- ------- -- ---------- --- - --- ----- ----- ----<br>---- --- --- ----- --- ---- ---- ------- ----- ---- -------<br>--- --- -- ----- -- --- ---- -- --- ---- -- ------ really<br>--- ----- -- ----,145176.89999997616,145174.80000001192,144731.144,144740.69999998808,144747.811,145181.153,,51,really
screen,html.Screen,2_1_0_1_52,2022-02-15T16:27:20.954Z,,,,,,,,,,,,,,,,,53,,,,,,,,,,,,,,404.94699996424606,,response,,,,99,,,,,,,Space,keypress(Space),,,,,,,,---- -- ----- -- ------ - ------- --- ----------<br>------------- ------ ------ ---- ---- ------- ----- -- ----<br>-------- ------- -- ---------- --- - --- ----- ----- ----<br>---- --- --- ----- --- ---- ---- ------- ----- ---- -------<br>--- --- -- ----- -- --- ---- -- --- ---- -- ------ ------<br>not ----- -- ----,145588.09999996424,145586.09999996424,145164.486,145177.09999996424,145181.153,145597.828,,52,not
screen,html.Screen,2_1_0_1_53,2022-02-15T16:27:21.395Z,,,,,,,,,,,,,,,,,53,,,,,,,,,,,,,,428.37199998807046,,response,,,,99,,,,,,,Space,keypress(Space),,,,,,,,---- -- ----- -- ------ - ------- --- ----------<br>------------- ------ ------ ---- ---- ------- ----- -- ----<br>-------- ------- -- ---------- --- - --- ----- ----- ----<br>---- --- --- ----- --- ---- ---- ------- ----- ---- -------<br>--- --- -- ----- -- --- ---- -- --- ---- -- ------ ------<br>--- close -- ----,146028.69999998808,146026.19999998808,145581.161,145588.30000001192,145597.828,146031.17,,53,close
screen,html.Screen,2_1_0_1_54,2022-02-15T16:27:21.791Z,,,,,,,,,,,,,,,,,53,,,,,,,,,,,,,,391.8299999999872,,response,,,,99,,,,,,,Space,keypress(Space),,,,,,,,---- -- ----- -- ------ - ------- --- ----------<br>------------- ------ ------ ---- ---- ------- ----- -- ----<br>-------- ------- -- ---------- --- - --- ----- ----- ----<br>---- --- --- ----- --- ---- ---- ------- ----- ---- -------<br>--- --- -- ----- -- --- ---- -- --- ---- -- ------ ------<br>--- ----- at ----,146425,146423,146014.503,146028.80000001192,146031.17,146431.178,,54,at
screen,html.Screen,2_1_0_1_55,2022-02-15T16:27:22.650Z,,,,,,,,,,,,,,,,,53,,,,,,,,,,,,,,849.7219999761437,,response,,,,99,,,,,,,Space,keypress(Space),,,,,,,,---- -- ----- -- ------ - ------- --- ----------<br>------------- ------ ------ ---- ---- ------- ----- -- ----<br>-------- ------- -- ---------- --- - --- ----- ----- ----<br>---- --- --- ----- --- ---- ---- ------- ----- ---- -------<br>--- --- -- ----- -- --- ---- -- --- ---- -- ------ ------<br>--- ----- -- all.,147283.19999998808,147280.89999997616,146414.511,146425.30000001192,146431.178,147297.862,,55,all.
Item 99,flow.Loop,2_1_0_1,2022-02-15T16:27:22.650Z,,,,,,,,,,,,,,,,,,,,,,,,,,,,,,,27650.25799997615,,completion,,,,,B,,,,,,,,,,,silence,,,,,147283.80000001192,147280.89999997616,119613.975,119616.69999998808,119630.642,147297.862,,,
Question 1,html.Screen,2_1_0_2,2022-02-15T16:27:28.866Z,,,,,,,,,,,,,,,,,,,,,,,,,,,,false,FALSE,,6199.638000000006,,response,,,,99,B,,,,,,TRUE,click #choice-1,,,,silence,,,,,153499.59999996424,153497.5,147281.195,147283.89999997616,147297.862,153514.653,,,
Question 2,html.Screen,2_1_0_3,2022-02-15T16:27:33.561Z,,,,,,,,,,,,,,,,,,,,,,,,,,,,true,TRUE,,4677.546999988088,,response,,,,99,B,,,,,,TRUE,click #choice-1,,,,silence,,,,,158194.09999996424,158192.19999998808,153497.986,153499.69999998808,153514.653,158198.08,,,
Item 99,flow.Sequence,2_1_0,2022-02-15T16:27:33.561Z,,,,,,,,,,,,,,,,,,,,,,,,,,,,,,,48561.75799998808,,completion,,,,,,,,,,,,,,,,,,,,,158194.30000001192,158192.19999998808,109613.775,109621.69999998808,109630.442,158198.08,,,
Holding screen,html.Screen,2_1_1_0,2022-02-15T16:27:43.551Z,,,,,,,,,,,,,,,,,,,,,,,,,,,,,,,10000.200000000012,,timeout,,,,,,,,,,,,,,,,,,,,,168183.39999997616,168181.613,158181.413,158194.39999997616,158198.08,168198.28,,,
screen,html.Screen,2_1_1_1_0,2022-02-15T16:27:44.647Z,,,,,,,,,,,,,,,,,54,,,,,,,,,,,,,,1077.3199999642384,,response,,,,100,,,,,,,Space,keypress(Space),,,,,,,,At --- ---- --- ------ ----- ------- ---- -- --- ------- --<br>------- ---------- ------ -- ----- -- ----- -- ---- ------<br>--- ----- --- --- ------ -------- ----- --- ------ ----- --<br>----- ----- ---------- --- --- ------ ------ ---- -- ------<br>------- --- ------ ----- --- ---- ------- -- ---- --- --<br>------- ------,169280,169275.59999996424,168181.613,168183.69999998808,168198.28,169281.635,,0,At
screen,html.Screen,2_1_1_1_1,2022-02-15T16:27:44.980Z,,,,,,,,,,,,,,,,,54,,,,,,,,,,,,,,329.56499998806976,,response,,,,100,,,,,,,Space,keypress(Space),,,,,,,,-- the ---- --- ------ ----- ------- ---- -- --- ------- --<br>------- ---------- ------ -- ----- -- ----- -- ---- ------<br>--- ----- --- --- ------ -------- ----- --- ------ ----- --<br>----- ----- ---------- --- --- ------ ------ ---- -- ------<br>------- --- ------ ----- --- ---- ------- -- ---- --- --<br>------- ------,169613.19999998808,169611.19999998808,169264.968,169280.19999998808,169281.635,169614.975,,1,the
screen,html.Screen,2_1_1_1_2,2022-02-15T16:27:45.463Z,,,,,,,,,,,,,,,,,54,,,,,,,,,,,,,,478.9249999761523,,response,,,,100,,,,,,,Space,keypress(Space),,,,,,,,-- --- time --- ------ ----- ------- ---- -- --- ------- --<br>------- ---------- ------ -- ----- -- ----- -- ---- ------<br>--- ----- --- --- ------ -------- ----- --- ------ ----- --<br>----- ----- ---------- --- --- ------ ------ ---- -- ------<br>------- --- ------ ----- --- ---- ------- -- ---- --- --<br>------- ------,170095.89999997616,170093.89999997616,169598.308,169613.30000001192,169614.975,170098.318,,2,time
screen,html.Screen,2_1_1_1_3,2022-02-15T16:27:45.852Z,,,,,,,,,,,,,,,,,54,,,,,,,,,,,,,,384.08199997615884,,response,,,,100,,,,,,,Space,keypress(Space),,,,,,,,-- --- ---- the ------ ----- ------- ---- -- --- ------- --<br>------- ---------- ------ -- ----- -- ----- -- ---- ------<br>--- ----- --- --- ------ -------- ----- --- ------ ----- --<br>----- ----- ---------- --- --- ------ ------ ---- -- ------<br>------- --- ------ ----- --- ---- ------- -- ---- --- --<br>------- ------,170484.69999998808,170482.39999997616,170081.651,170096.09999996424,170098.318,170498.326,,3,the
screen,html.Screen,2_1_1_1_4,2022-02-15T16:27:46.198Z,,,,,,,,,,,,,,,,,54,,,,,,,,,,,,,,329.97400001192,,response,,,,100,,,,,,,Space,keypress(Space),,,,,,,,-- --- ---- --- French ----- ------- ---- -- --- ------- --<br>------- ---------- ------ -- ----- -- ----- -- ---- ------<br>--- ----- --- --- ------ -------- ----- --- ------ ----- --<br>----- ----- ---------- --- --- ------ ------ ---- -- ------<br>------- --- ------ ----- --- ---- ------- -- ---- --- --<br>------- ------,170830.30000001192,170828.30000001192,170481.659,170485,170498.326,170831.666,,4,French
screen,html.Screen,2_1_1_1_5,2022-02-15T16:27:46.622Z,,,,,,,,,,,,,,,,,54,,,,,,,,,,,,,,421.53399998808163,,response,,,,100,,,,,,,Space,keypress(Space),,,,,,,,-- --- ---- --- ------ crown ------- ---- -- --- ------- --<br>------- ---------- ------ -- ----- -- ----- -- ---- ------<br>--- ----- --- --- ------ -------- ----- --- ------ ----- --<br>----- ----- ---------- --- --- ------ ------ ---- -- ------<br>------- --- ------ ----- --- ---- ------- -- ---- --- --<br>------- ------,171255.09999996424,171253.19999998808,170814.999,170830.39999997616,170831.666,171265.008,,5,crown
screen,html.Screen,2_1_1_1_6,2022-02-15T16:27:47.258Z,,,,,,,,,,,,,,,,,54,,,,,,,,,,,,,,620.8919999761565,,response,,,,100,,,,,,,Space,keypress(Space),,,,,,,,-- --- ---- --- ------ ----- secured ---- -- --- ------- --<br>------- ---------- ------ -- ----- -- ----- -- ---- ------<br>--- ----- --- --- ------ -------- ----- --- ------ ----- --<br>----- ----- ---------- --- --- ------ ------ ---- -- ------<br>------- --- ------ ----- --- ---- ------- -- ---- --- --<br>------- ------,171890.5,171885.89999997616,171248.341,171255.5,171265.008,171898.354,,6,secured
screen,html.Screen,2_1_1_1_7,2022-02-15T16:27:47.824Z,,,,,,,,,,,,,,,,,54,,,,,,,,,,,,,,556.6460000000079,,response,,,,100,,,,,,,Space,keypress(Space),,,,,,,,-- --- ---- --- ------ ----- ------- much -- --- ------- --<br>------- ---------- ------ -- ----- -- ----- -- ---- ------<br>--- ----- --- --- ------ -------- ----- --- ------ ----- --<br>----- ----- ---------- --- --- ------ ------ ---- -- ------<br>------- --- ------ ----- --- ---- ------- -- ---- --- --<br>------- ------,172456.80000001192,172455,171881.687,171895.09999996424,171898.354,172465.032,,7,much
screen,html.Screen,2_1_1_1_8,2022-02-15T16:27:48.171Z,,,,,,,,,,,,,,,,,54,,,,,,,,,,,,,,336.2680000119144,,response,,,,100,,,,,,,Space,keypress(Space),,,,,,,,-- --- ---- --- ------ ----- ------- ---- of --- ------- --<br>------- ---------- ------ -- ----- -- ----- -- ---- ------<br>--- ----- --- --- ------ -------- ----- --- ------ ----- --<br>----- ----- ---------- --- --- ------ ------ ---- -- ------<br>------- --- ------ ----- --- ---- ------- -- ---- --- --<br>------- ------,172803.30000001192,172801.30000001192,172448.365,172457,172465.032,172815.039,,8,of
screen,html.Screen,2_1_1_1_9,2022-02-15T16:27:48.450Z,,,,,,,,,,,,,,,,,54,,,,,,,,,,,,,,265.2610000119312,,response,,,,100,,,,,,,Space,keypress(Space),,,,,,,,-- --- ---- --- ------ ----- ------- ---- -- its ------- --<br>------- ---------- ------ -- ----- -- ----- -- ---- ------<br>--- ----- --- --- ------ -------- ----- --- ------ ----- --<br>----- ----- ---------- --- --- ------ ------ ---- -- ------<br>------- --- ------ ----- --- ---- ------- -- ---- --- --<br>------- ------,173082.69999998808,173080.30000001192,172798.372,172803.39999997616,172815.039,173098.378,,9,its
screen,html.Screen,2_1_1_1_10,2022-02-15T16:27:48.845Z,,,,,,,,,,,,,,,,,54,,,,,,,,,,,,,,377.622000000003,,response,,,,100,,,,,,,Space,keypress(Space),,,,,,,,-- --- ---- --- ------ ----- ------- ---- -- --- revenue --<br>------- ---------- ------ -- ----- -- ----- -- ---- ------<br>--- ----- --- --- ------ -------- ----- --- ------ ----- --<br>----- ----- ---------- --- --- ------ ------ ---- -- ------<br>------- --- ------ ----- --- ---- ------- -- ---- --- --<br>------- ------,173477.69999998808,173476,173081.711,173083,173098.378,173481.719,,10,revenue
screen,html.Screen,2_1_1_1_11,2022-02-15T16:27:49.209Z,,,,,,,,,,,,,,,,,54,,,,,,,,,,,,,,357.38099996422534,,response,,,,100,,,,,,,Space,keypress(Space),,,,,,,,-- --- ---- --- ------ ----- ------- ---- -- --- ------- by<br>------- ---------- ------ -- ----- -- ----- -- ---- ------<br>--- ----- --- --- ------ -------- ----- --- ------ ----- --<br>----- ----- ---------- --- --- ------ ------ ---- -- ------<br>------- --- ------ ----- --- ---- ------- -- ---- --- --<br>------- ------,173841.19999998808,173839.09999996424,173465.052,173478,173481.719,173848.393,,11,by
screen,html.Screen,2_1_1_1_12,2022-02-15T16:27:49.551Z,,,,,,,,,,,,,,,,,54,,,,,,,,,,,,,,332.70699996422627,,response,,,,100,,,,,,,Space,keypress(Space),,,,,,,,-- --- ---- --- ------ ----- ------- ---- -- --- ------- --<br>issuing ---------- ------ -- ----- -- ----- -- ---- ------<br>--- ----- --- --- ------ -------- ----- --- ------ ----- --<br>----- ----- ---------- --- --- ------ ------ ---- -- ------<br>------- --- ------ ----- --- ---- ------- -- ---- --- --<br>------- ------,174183.59999996424,174181.09999996424,173831.726,173841.39999997616,173848.393,174198.4,,12,issuing
screen,html.Screen,2_1_1_1_13,2022-02-15T16:27:49.964Z,,,,,,,,,,,,,,,,,54,,,,,,,,,,,,,,396.49999997616396,,response,,,,100,,,,,,,Space,keypress(Space),,,,,,,,-- --- ---- --- ------ ----- ------- ---- -- --- ------- --<br>------- government ------ -- ----- -- ----- -- ---- ------<br>--- ----- --- --- ------ -------- ----- --- ------ ----- --<br>----- ----- ---------- --- --- ------ ------ ---- -- ------<br>------- --- ------ ----- --- ---- ------- -- ---- --- --<br>------- ------,174596.89999997616,174594.89999997616,174181.733,174184,174198.4,174598.408,,13,government
screen,html.Screen,2_1_1_1_14,2022-02-15T16:27:50.356Z,,,,,,,,,,,,,,,,,54,,,,,,,,,,,,,,388.6919999642414,,response,,,,100,,,,,,,Space,keypress(Space),,,,,,,,-- --- ---- --- ------ ----- ------- ---- -- --- ------- --<br>------- ---------- bonds. -- ----- -- ----- -- ---- ------<br>--- ----- --- --- ------ -------- ----- --- ------ ----- --<br>----- ----- ---------- --- --- ------ ------ ---- -- ------<br>------- --- ------ ----- --- ---- ------- -- ---- --- --<br>------- ------,174988.80000001192,174987.09999996424,174581.741,174597.09999996424,174598.408,174998.416,,14,bonds.
screen,html.Screen,2_1_1_1_15,2022-02-15T16:27:50.752Z,,,,,,,,,,,,,,,,,54,,,,,,,,,,,,,,383.6839999642398,,response,,,,100,,,,,,,Space,keypress(Space),,,,,,,,-- --- ---- --- ------ ----- ------- ---- -- --- ------- --<br>------- ---------- ------ In ----- -- ----- -- ---- ------<br>--- ----- --- --- ------ -------- ----- --- ------ ----- --<br>----- ----- ---------- --- --- ------ ------ ---- -- ------<br>------- --- ------ ----- --- ---- ------- -- ---- --- --<br>------- ------,175384,175382.09999996424,174981.749,174989.09999996424,174998.416,175398.424,,15,In
screen,html.Screen,2_1_1_1_16,2022-02-15T16:27:51.213Z,,,,,,,,,,,,,,,,,54,,,,,,,,,,,,,,445.57600000000093,,response,,,,100,,,,,,,Space,keypress(Space),,,,,,,,"-- --- ---- --- ------ ----- ------- ---- -- --- ------- --<br>------- ---------- ------ -- 1727, -- ----- -- ---- ------<br>--- ----- --- --- ------ -------- ----- --- ------ ----- --<br>----- ----- ---------- --- --- ------ ------ ---- -- ------<br>------- --- ------ ----- --- ---- ------- -- ---- --- --<br>------- ------",175846,175844,175381.757,175384.39999997616,175398.424,175865.1,,16,"1727,"
screen,html.Screen,2_1_1_1_17,2022-02-15T16:27:52.145Z,,,,,,,,,,,,,,,,,54,,,,,,,,,,,,,,910.8999999999942,,response,,,,100,,,,,,,Space,keypress(Space),,,,,,,,-- --- ---- --- ------ ----- ------- ---- -- --- ------- --<br>------- ---------- ------ -- ----- in ----- -- ---- ------<br>--- ----- --- --- ------ -------- ----- --- ------ ----- --<br>----- ----- ---------- --- --- ------ ------ ---- -- ------<br>------- --- ------ ----- --- ---- ------- -- ---- --- --<br>------- ------,176778,176776,175848.433,175849.5,175865.1,176781.785,,17,in
screen,html.Screen,2_1_1_1_18,2022-02-15T16:27:52.739Z,,,,,,,,,,,,,,,,,54,,,,,,,,,,,,,,587.2149999999965,,response,,,,100,,,,,,,Space,keypress(Space),,,,,,,,-- --- ---- --- ------ ----- ------- ---- -- --- ------- --<br>------- ---------- ------ -- ----- -- order -- ---- ------<br>--- ----- --- --- ------ -------- ----- --- ------ ----- --<br>----- ----- ---------- --- --- ------ ------ ---- -- ------<br>------- --- ------ ----- --- ---- ------- -- ---- --- --<br>------- ------,177372,177369,176765.118,176778.30000001192,176781.785,177381.797,,18,order
screen,html.Screen,2_1_1_1_19,2022-02-15T16:27:53.100Z,,,,,,,,,,,,,,,,,54,,,,,,,,,,,,,,349.2030000000086,,response,,,,100,,,,,,,Space,keypress(Space),,,,,,,,-- --- ---- --- ------ ----- ------- ---- -- --- ------- --<br>------- ---------- ------ -- ----- -- ----- to ---- ------<br>--- ----- --- --- ------ -------- ----- --- ------ ----- --<br>----- ----- ---------- --- --- ------ ------ ---- -- ------<br>------- --- ------ ----- --- ---- ------- -- ---- --- --<br>------- ------,177732.89999997616,177731,177365.13,177372.19999998808,177381.797,177748.471,,19,to
screen,html.Screen,2_1_1_1_20,2022-02-15T16:27:53.555Z,,,,,,,,,,,,,,,,,54,,,,,,,,,,,,,,437.3290000119305,,response,,,,100,,,,,,,Space,keypress(Space),,,,,,,,-- --- ---- --- ------ ----- ------- ---- -- --- ------- --<br>------- ---------- ------ -- ----- -- ----- -- save ------<br>--- ----- --- --- ------ -------- ----- --- ------ ----- --<br>----- ----- ---------- --- --- ------ ------ ---- -- ------<br>------- --- ------ ----- --- ---- ------- -- ---- --- --<br>------- ------,178187.80000001192,178185.80000001192,177731.804,177733.09999996424,177748.471,178198.48,,20,save
screen,html.Screen,2_1_1_1_21,2022-02-15T16:27:54.112Z,,,,,,,,,,,,,,,,,54,,,,,,,,,,,,,,543.4199999761477,,response,,,,100,,,,,,,Space,keypress(Space),,,,,,,,"-- --- ---- --- ------ ----- ------- ---- -- --- ------- --<br>------- ---------- ------ -- ----- -- ----- -- ---- money,<br>--- ----- --- --- ------ -------- ----- --- ------ ----- --<br>----- ----- ---------- --- --- ------ ------ ---- -- ------<br>------- --- ------ ----- --- ---- ------- -- ---- --- --<br>------- ------",178744,178741.89999997616,178181.813,178188,178198.48,178748.491,,21,"money,"
screen,html.Screen,2_1_1_1_22,2022-02-15T16:27:54.495Z,,,,,,,,,,,,,,,,,54,,,,,,,,,,,,,,376.40899997614906,,response,,,,100,,,,,,,Space,keypress(Space),,,,,,,,-- --- ---- --- ------ ----- ------- ---- -- --- ------- --<br>------- ---------- ------ -- ----- -- ----- -- ---- ------<br>the ----- --- --- ------ -------- ----- --- ------ ----- --<br>----- ----- ---------- --- --- ------ ------ ---- -- ------<br>------- --- ------ ----- --- ---- ------- -- ---- --- --<br>------- ------,179127.19999998808,179124.89999997616,178731.824,178744.19999998808,178748.491,179131.832,,22,the
screen,html.Screen,2_1_1_1_23,2022-02-15T16:27:54.897Z,,,,,,,,,,,,,,,,,54,,,,,,,,,,,,,,394.76799996424234,,response,,,,100,,,,,,,Space,keypress(Space),,,,,,,,-- --- ---- --- ------ ----- ------- ---- -- --- ------- --<br>------- ---------- ------ -- ----- -- ----- -- ---- ------<br>--- state --- --- ------ -------- ----- --- ------ ----- --<br>----- ----- ---------- --- --- ------ ------ ---- -- ------<br>------- --- ------ ----- --- ---- ------- -- ---- --- --<br>------- ------,179529.09999996424,179526.59999996424,179115.165,179127.59999996424,179131.832,179531.84,,23,state
screen,html.Screen,2_1_1_1_24,2022-02-15T16:27:55.262Z,,,,,,,,,,,,,,,,,54,,,,,,,,,,,,,,360.7599999642407,,response,,,,100,,,,,,,Space,keypress(Space),,,,,,,,-- --- ---- --- ------ ----- ------- ---- -- --- ------- --<br>------- ---------- ------ -- ----- -- ----- -- ---- ------<br>--- ----- cut --- ------ -------- ----- --- ------ ----- --<br>----- ----- ---------- --- --- ------ ------ ---- -- ------<br>------- --- ------ ----- --- ---- ------- -- ---- --- --<br>------- ------,179894.5,179892.59999996424,179515.173,179529.30000001192,179531.84,179898.514,,24,cut
screen,html.Screen,2_1_1_1_25,2022-02-15T16:27:55.575Z,,,,,,,,,,,,,,,,,54,,,,,,,,,,,,,,306.6859999880835,,response,,,,100,,,,,,,Space,keypress(Space),,,,,,,,-- --- ---- --- ------ ----- ------- ---- -- --- ------- --<br>------- ---------- ------ -- ----- -- ----- -- ---- ------<br>--- ----- --- the ------ -------- ----- --- ------ ----- --<br>----- ----- ---------- --- --- ------ ------ ---- -- ------<br>------- --- ------ ----- --- ---- ------- -- ---- --- --<br>------- ------,180207.69999998808,180205.19999998808,179881.847,179894.69999998808,179898.514,180215.187,,25,the
screen,html.Screen,2_1_1_1_26,2022-02-15T16:27:55.882Z,,,,,,,,,,,,,,,,,54,,,,,,,,,,,,,,297.6130000119156,,response,,,,100,,,,,,,Space,keypress(Space),,,,,,,,-- --- ---- --- ------ ----- ------- ---- -- --- ------- --<br>------- ---------- ------ -- ----- -- ----- -- ---- ------<br>--- ----- --- --- bonds' -------- ----- --- ------ ----- --<br>----- ----- ---------- --- --- ------ ------ ---- -- ------<br>------- --- ------ ----- --- ---- ------- -- ---- --- --<br>------- ------,180514.59999996424,180512.80000001192,180198.52,180207.89999997616,180215.187,180531.86,,26,bonds'
screen,html.Screen,2_1_1_1_27,2022-02-15T16:27:56.285Z,,,,,,,,,,,,,,,,,54,,,,,,,,,,,,,,383.7399999642512,,response,,,,100,,,,,,,Space,keypress(Space),,,,,,,,-- --- ---- --- ------ ----- ------- ---- -- --- ------- --<br>------- ---------- ------ -- ----- -- ----- -- ---- ------<br>--- ----- --- --- ------ interest ----- --- ------ ----- --<br>----- ----- ---------- --- --- ------ ------ ---- -- ------<br>------- --- ------ ----- --- ---- ------- -- ---- --- --<br>------- ------,180917.5,180915.59999996424,180515.193,180514.89999997616,180531.86,180931.868,,27,interest
screen,html.Screen,2_1_1_1_28,2022-02-15T16:27:56.651Z,,,,,,,,,,,,,,,,,54,,,,,,,,,,,,,,348.73199996424955,,response,,,,100,,,,,,,Space,keypress(Space),,,,,,,,-- --- ---- --- ------ ----- ------- ---- -- --- ------- --<br>------- ---------- ------ -- ----- -- ----- -- ---- ------<br>--- ----- --- --- ------ -------- rate. --- ------ ----- --<br>----- ----- ---------- --- --- ------ ------ ---- -- ------<br>------- --- ------ ----- --- ---- ------- -- ---- --- --<br>------- ------,181283.30000001192,181280.59999996424,180915.201,180917.69999998808,180931.868,181298.542,,28,rate.
screen,html.Screen,2_1_1_1_29,2022-02-15T16:27:57.081Z,,,,,,,,,,,,,,,,,54,,,,,,,,,,,,,,412.2580000119342,,response,,,,100,,,,,,,Space,keypress(Space),,,,,,,,-- --- ---- --- ------ ----- ------- ---- -- --- ------- --<br>------- ---------- ------ -- ----- -- ----- -- ---- ------<br>--- ----- --- --- ------ -------- ----- The ------ ----- --<br>----- ----- ---------- --- --- ------ ------ ---- -- ------<br>------- --- ------ ----- --- ---- ------- -- ---- --- --<br>------- ------,181712.89999997616,181710.80000001192,181281.875,181283.39999997616,181298.542,181715.217,,29,The
screen,html.Screen,2_1_1_1_30,2022-02-15T16:27:57.475Z,,,,,,,,,,,,,,,,,54,,,,,,,,,,,,,,389.68299997615395,,response,,,,100,,,,,,,Space,keypress(Space),,,,,,,,-- --- ---- --- ------ ----- ------- ---- -- --- ------- --<br>------- ---------- ------ -- ----- -- ----- -- ---- ------<br>--- ----- --- --- ------ -------- ----- --- market ----- --<br>----- ----- ---------- --- --- ------ ------ ---- -- ------<br>------- --- ------ ----- --- ---- ------- -- ---- --- --<br>------- ------,182107.30000001192,182104.89999997616,181698.55,181713.09999996424,181715.217,182115.225,,30,market
screen,html.Screen,2_1_1_1_31,2022-02-15T16:27:57.844Z,,,,,,,,,,,,,,,,,54,,,,,,,,,,,,,,358.47499998807325,,response,,,,100,,,,,,,Space,keypress(Space),,,,,,,,-- --- ---- --- ------ ----- ------- ---- -- --- ------- --<br>------- ---------- ------ -- ----- -- ----- -- ---- ------<br>--- ----- --- --- ------ -------- ----- --- ------ value --<br>----- ----- ---------- --- --- ------ ------ ---- -- ------<br>------- --- ------ ----- --- ---- ------- -- ---- --- --<br>------- ------,182476.09999996424,182473.69999998808,182098.558,182107.59999996424,182115.225,182481.899,,31,value
screen,html.Screen,2_1_1_1_32,2022-02-15T16:27:58.221Z,,,,,,,,,,,,,,,,,54,,,,,,,,,,,,,,369.50099997615325,,response,,,,100,,,,,,,Space,keypress(Space),,,,,,,,-- --- ---- --- ------ ----- ------- ---- -- --- ------- --<br>------- ---------- ------ -- ----- -- ----- -- ---- ------<br>--- ----- --- --- ------ -------- ----- --- ------ ----- of<br>----- ----- ---------- --- --- ------ ------ ---- -- ------<br>------- --- ------ ----- --- ---- ------- -- ---- --- --<br>------- ------,182853.39999997616,182851.39999997616,182465.232,182476.30000001192,182481.899,182865.24,,32,of
screen,html.Screen,2_1_1_1_33,2022-02-15T16:27:58.618Z,,,,,,,,,,,,,,,,,54,,,,,,,,,,,,,,382.8599999642465,,response,,,,100,,,,,,,Space,keypress(Space),,,,,,,,-- --- ---- --- ------ ----- ------- ---- -- --- ------- --<br>------- ---------- ------ -- ----- -- ----- -- ---- ------<br>--- ----- --- --- ------ -------- ----- --- ------ ----- --<br>these ----- ---------- --- --- ------ ------ ---- -- ------<br>------- --- ------ ----- --- ---- ------- -- ---- --- --<br>------- ------,183250.5,183248.09999996424,182848.573,182853.59999996424,182865.24,183265.248,,33,these
screen,html.Screen,2_1_1_1_34,2022-02-15T16:27:58.941Z,,,,,,,,,,,,,,,,,54,,,,,,,,,,,,,,306.3519999642449,,response,,,,100,,,,,,,Space,keypress(Space),,,,,,,,-- --- ---- --- ------ ----- ------- ---- -- --- ------- --<br>------- ---------- ------ -- ----- -- ----- -- ---- ------<br>--- ----- --- --- ------ -------- ----- --- ------ ----- --<br>----- bonds ---------- --- --- ------ ------ ---- -- ------<br>------- --- ------ ----- --- ---- ------- -- ---- --- --<br>------- ------,183573.39999997616,183571.59999996424,183248.581,183250.80000001192,183265.248,183581.921,,34,bonds
screen,html.Screen,2_1_1_1_35,2022-02-15T16:27:59.318Z,,,,,,,,,,,,,,,,,54,,,,,,,,,,,,,,366.5789999999979,,response,,,,100,,,,,,,Space,keypress(Space),,,,,,,,"-- --- ---- --- ------ ----- ------- ---- -- --- ------- --<br>------- ---------- ------ -- ----- -- ----- -- ---- ------<br>--- ----- --- --- ------ -------- ----- --- ------ ----- --<br>----- ----- plummeted, --- --- ------ ------ ---- -- ------<br>------- --- ------ ----- --- ---- ------- -- ---- --- --<br>------- ------",183950.09999996424,183948.5,183565.254,183573.59999996424,183581.921,183965.262,,35,"plummeted,"
screen,html.Screen,2_1_1_1_36,2022-02-15T16:27:59.715Z,,,,,,,,,,,,,,,,,54,,,,,,,,,,,,,,380.2380000000121,,response,,,,100,,,,,,,Space,keypress(Space),,,,,,,,-- --- ---- --- ------ ----- ------- ---- -- --- ------- --<br>------- ---------- ------ -- ----- -- ----- -- ---- ------<br>--- ----- --- --- ------ -------- ----- --- ------ ----- --<br>----- ----- ---------- and --- ------ ------ ---- -- ------<br>------- --- ------ ----- --- ---- ------- -- ---- --- --<br>------- ------,184347.39999997616,184345.5,183948.595,183950.19999998808,183965.262,184348.603,,36,and
screen,html.Screen,2_1_1_1_37,2022-02-15T16:28:00.062Z,,,,,,,,,,,,,,,,,54,,,,,,,,,,,,,,343.79699997615535,,response,,,,100,,,,,,,Space,keypress(Space),,,,,,,,-- --- ---- --- ------ ----- ------- ---- -- --- ------- --<br>------- ---------- ------ -- ----- -- ----- -- ---- ------<br>--- ----- --- --- ------ -------- ----- --- ------ ----- --<br>----- ----- ---------- --- the ------ ------ ---- -- ------<br>------- --- ------ ----- --- ---- ------- -- ---- --- --<br>------- ------,184694.39999997616,184692.39999997616,184331.936,184347.59999996424,184348.603,184698.61,,37,the
screen,html.Screen,2_1_1_1_38,2022-02-15T16:28:00.389Z,,,,,,,,,,,,,,,,,54,,,,,,,,,,,,,,320.89000000001397,,response,,,,100,,,,,,,Space,keypress(Space),,,,,,,,-- --- ---- --- ------ ----- ------- ---- -- --- ------- --<br>------- ---------- ------ -- ----- -- ----- -- ---- ------<br>--- ----- --- --- ------ -------- ----- --- ------ ----- --<br>----- ----- ---------- --- --- market ------ ---- -- ------<br>------- --- ------ ----- --- ---- ------- -- ---- --- --<br>------- ------,185021.39999997616,185019.5,184681.943,184694.5,184698.61,185031.95,,38,market
screen,html.Screen,2_1_1_1_39,2022-02-15T16:28:00.727Z,,,,,,,,,,,,,,,,,54,,,,,,,,,,,,,,325.3500000119093,,response,,,,100,,,,,,,Space,keypress(Space),,,,,,,,-- --- ---- --- ------ ----- ------- ---- -- --- ------- --<br>------- ---------- ------ -- ----- -- ----- -- ---- ------<br>--- ----- --- --- ------ -------- ----- --- ------ ----- --<br>----- ----- ---------- --- --- ------ became ---- -- ------<br>------- --- ------ ----- --- ---- ------- -- ---- --- --<br>------- ------,185359.59999996424,185357.30000001192,185015.283,185021.59999996424,185031.95,185365.29,,39,became
screen,html.Screen,2_1_1_1_40,2022-02-15T16:28:01.128Z,,,,,,,,,,,,,,,,,54,,,,,,,,,,,,,,393.10999997615,,response,,,,100,,,,,,,Space,keypress(Space),,,,,,,,-- --- ---- --- ------ ----- ------- ---- -- --- ------- --<br>------- ---------- ------ -- ----- -- ----- -- ---- ------<br>--- ----- --- --- ------ -------- ----- --- ------ ----- --<br>----- ----- ---------- --- --- ------ ------ wary -- ------<br>------- --- ------ ----- --- ---- ------- -- ---- --- --<br>------- ------,185760.59999996424,185758.39999997616,185348.623,185359.89999997616,185365.29,185765.298,,40,wary
screen,html.Screen,2_1_1_1_41,2022-02-15T16:28:01.480Z,,,,,,,,,,,,,,,,,54,,,,,,,,,,,,,,345.00200001191115,,response,,,,100,,,,,,,Space,keypress(Space),,,,,,,,-- --- ---- --- ------ ----- ------- ---- -- --- ------- --<br>------- ---------- ------ -- ----- -- ----- -- ---- ------<br>--- ----- --- --- ------ -------- ----- --- ------ ----- --<br>----- ----- ---------- --- --- ------ ------ ---- of ------<br>------- --- ------ ----- --- ---- ------- -- ---- --- --<br>------- ------,186112.30000001192,186110.30000001192,185748.631,185760.80000001192,185765.298,186115.305,,41,of
screen,html.Screen,2_1_1_1_42,2022-02-15T16:28:02.029Z,,,,,,,,,,,,,,,,,54,,,,,,,,,,,,,,544.0949999761651,,response,,,,100,,,,,,,Space,keypress(Space),,,,,,,,-- --- ---- --- ------ ----- ------- ---- -- --- ------- --<br>------- ---------- ------ -- ----- -- ----- -- ---- ------<br>--- ----- --- --- ------ -------- ----- --- ------ ----- --<br>----- ----- ---------- --- --- ------ ------ ---- -- French<br>------- --- ------ ----- --- ---- ------- -- ---- --- --<br>------- ------,186661.30000001192,186659.39999997616,186098.638,186112.59999996424,186115.305,186665.316,,42,French
screen,html.Screen,2_1_1_1_43,2022-02-15T16:28:02.466Z,,,,,,,,,,,,,,,,,54,,,,,,,,,,,,,,430.88399998808745,,response,,,,100,,,,,,,Space,keypress(Space),,,,,,,,-- --- ---- --- ------ ----- ------- ---- -- --- ------- --<br>------- ---------- ------ -- ----- -- ----- -- ---- ------<br>--- ----- --- --- ------ -------- ----- --- ------ ----- --<br>----- ----- ---------- --- --- ------ ------ ---- -- ------<br>credit. --- ------ ----- --- ---- ------- -- ---- --- --<br>------- ------,187097.80000001192,187096.19999998808,186648.649,186661.39999997616,186665.316,187115.325,,43,credit.
screen,html.Screen,2_1_1_1_44,2022-02-15T16:28:02.946Z,,,,,,,,,,,,,,,,,54,,,,,,,,,,,,,,460.0749999761465,,response,,,,100,,,,,,,Space,keypress(Space),,,,,,,,-- --- ---- --- ------ ----- ------- ---- -- --- ------- --<br>------- ---------- ------ -- ----- -- ----- -- ---- ------<br>--- ----- --- --- ------ -------- ----- --- ------ ----- --<br>----- ----- ---------- --- --- ------ ------ ---- -- ------<br>------- The ------ ----- --- ---- ------- -- ---- --- --<br>------- ------,187578.09999996424,187575.39999997616,187098.658,187097.89999997616,187115.325,187582.001,,44,The
screen,html.Screen,2_1_1_1_45,2022-02-15T16:28:03.308Z,,,,,,,,,,,,,,,,,54,,,,,,,,,,,,,,356.29900001193164,,response,,,,100,,,,,,,Space,keypress(Space),,,,,,,,-- --- ---- --- ------ ----- ------- ---- -- --- ------- --<br>------- ---------- ------ -- ----- -- ----- -- ---- ------<br>--- ----- --- --- ------ -------- ----- --- ------ ----- --<br>----- ----- ---------- --- --- ------ ------ ---- -- ------<br>------- --- French ----- --- ---- ------- -- ---- --- --<br>------- ------,187940.39999997616,187938.30000001192,187565.334,187578.19999998808,187582.001,187948.675,,45,French
screen,html.Screen,2_1_1_1_46,2022-02-15T16:28:03.650Z,,,,,,,,,,,,,,,,,54,,,,,,,,,,,,,,331.7249999761698,,response,,,,100,,,,,,,Space,keypress(Space),,,,,,,,-- --- ---- --- ------ ----- ------- ---- -- --- ------- --<br>------- ---------- ------ -- ----- -- ----- -- ---- ------<br>--- ----- --- --- ------ -------- ----- --- ------ ----- --<br>----- ----- ---------- --- --- ------ ------ ---- -- ------<br>------- --- ------ state --- ---- ------- -- ---- --- --<br>------- ------,188282.09999996424,188280.39999997616,187932.008,187940.59999996424,187948.675,188298.682,,46,state
screen,html.Screen,2_1_1_1_47,2022-02-15T16:28:04.048Z,,,,,,,,,,,,,,,,,54,,,,,,,,,,,,,,379.5179999880784,,response,,,,100,,,,,,,Space,keypress(Space),,,,,,,,-- --- ---- --- ------ ----- ------- ---- -- --- ------- --<br>------- ---------- ------ -- ----- -- ----- -- ---- ------<br>--- ----- --- --- ------ -------- ----- --- ------ ----- --<br>----- ----- ---------- --- --- ------ ------ ---- -- ------<br>------- --- ------ ----- was ---- ------- -- ---- --- --<br>------- ------,188680.5,188678.19999998808,188282.015,188282.19999998808,188298.682,188698.69,,47,was
screen,html.Screen,2_1_1_1_48,2022-02-15T16:28:04.437Z,,,,,,,,,,,,,,,,,54,,,,,,,,,,,,,,368.50999998807674,,response,,,,100,,,,,,,Space,keypress(Space),,,,,,,,-- --- ---- --- ------ ----- ------- ---- -- --- ------- --<br>------- ---------- ------ -- ----- -- ----- -- ---- ------<br>--- ----- --- --- ------ -------- ----- --- ------ ----- --<br>----- ----- ---------- --- --- ------ ------ ---- -- ------<br>------- --- ------ ----- --- left ------- -- ---- --- --<br>------- ------,189069.19999998808,189067.19999998808,188682.023,188681,188698.69,189082.031,,48,left
screen,html.Screen,2_1_1_1_49,2022-02-15T16:28:04.809Z,,,,,,,,,,,,,,,,,54,,,,,,,,,,,,,,356.16899998809095,,response,,,,100,,,,,,,Space,keypress(Space),,,,,,,,-- --- ---- --- ------ ----- ------- ---- -- --- ------- --<br>------- ---------- ------ -- ----- -- ----- -- ---- ------<br>--- ----- --- --- ------ -------- ----- --- ------ ----- --<br>----- ----- ---------- --- --- ------ ------ ---- -- ------<br>------- --- ------ ----- --- ---- without -- ---- --- --<br>------- ------,189441.09999996424,189438.19999998808,189065.364,189069.39999997616,189082.031,189448.705,,49,without
screen,html.Screen,2_1_1_1_50,2022-02-15T16:28:05.140Z,,,,,,,,,,,,,,,,,54,,,,,,,,,,,,,,320.39499996425,,response,,,,100,,,,,,,Space,keypress(Space),,,,,,,,-- --- ---- --- ------ ----- ------- ---- -- --- ------- --<br>------- ---------- ------ -- ----- -- ----- -- ---- ------<br>--- ----- --- --- ------ -------- ----- --- ------ ----- --<br>----- ----- ---------- --- --- ------ ------ ---- -- ------<br>------- --- ------ ----- --- ---- ------- an ---- --- --<br>------- ------,189772.09999996424,189769.09999996424,189432.038,189441.30000001192,189448.705,189782.045,,50,an
screen,html.Screen,2_1_1_1_51,2022-02-15T16:28:05.496Z,,,,,,,,,,,,,,,,,54,,,,,,,,,,,,,,343.15499998806627,,response,,,,100,,,,,,,Space,keypress(Space),,,,,,,,-- --- ---- --- ------ ----- ------- ---- -- --- ------- --<br>------- ---------- ------ -- ----- -- ----- -- ---- ------<br>--- ----- --- --- ------ -------- ----- --- ------ ----- --<br>----- ----- ---------- --- --- ------ ------ ---- -- ------<br>------- --- ------ ----- --- ---- ------- -- easy --- --<br>------- ------,190128.09999996424,190125.19999998808,189765.378,189772.30000001192,189782.045,190132.052,,51,easy
screen,html.Screen,2_1_1_1_52,2022-02-15T16:28:05.888Z,,,,,,,,,,,,,,,,,54,,,,,,,,,,,,,,386.04799996424117,,response,,,,100,,,,,,,Space,keypress(Space),,,,,,,,-- --- ---- --- ------ ----- ------- ---- -- --- ------- --<br>------- ---------- ------ -- ----- -- ----- -- ---- ------<br>--- ----- --- --- ------ -------- ----- --- ------ ----- --<br>----- ----- ---------- --- --- ------ ------ ---- -- ------<br>------- --- ------ ----- --- ---- ------- -- ---- way --<br>------- ------,190519.5,190518.09999996424,190115.385,190128.30000001192,190132.052,190532.06,,52,way
screen,html.Screen,2_1_1_1_53,2022-02-15T16:28:06.252Z,,,,,,,,,,,,,,,,,54,,,,,,,,,,,,,,350.74000001192326,,response,,,,100,,,,,,,Space,keypress(Space),,,,,,,,-- --- ---- --- ------ ----- ------- ---- -- --- ------- --<br>------- ---------- ------ -- ----- -- ----- -- ---- ------<br>--- ----- --- --- ------ -------- ----- --- ------ ----- --<br>----- ----- ---------- --- --- ------ ------ ---- -- ------<br>------- --- ------ ----- --- ---- ------- -- ---- --- of<br>------- ------,190884.5,190882.80000001192,190515.393,190519.59999996424,190532.06,190898.734,,53,of
screen,html.Screen,2_1_1_1_54,2022-02-15T16:28:06.680Z,,,,,,,,,,,,,,,,,54,,,,,,,,,,,,,,411.3659999642405,,response,,,,100,,,,,,,Space,keypress(Space),,,,,,,,-- --- ---- --- ------ ----- ------- ---- -- --- ------- --<br>------- ---------- ------ -- ----- -- ----- -- ---- ------<br>--- ----- --- --- ------ -------- ----- --- ------ ----- --<br>----- ----- ---------- --- --- ------ ------ ---- -- ------<br>------- --- ------ ----- --- ---- ------- -- ---- --- --<br>raising ------,191312,191310.09999996424,190882.067,190884.59999996424,190898.734,191315.409,,54,raising
screen,html.Screen,2_1_1_1_55,2022-02-15T16:28:07.197Z,,,,,,,,,,,,,,,,,54,,,,,,,,,,,,,,511.5909999999858,,response,,,,100,,,,,,,Space,keypress(Space),,,,,,,,-- --- ---- --- ------ ----- ------- ---- -- --- ------- --<br>------- ---------- ------ -- ----- -- ----- -- ---- ------<br>--- ----- --- --- ------ -------- ----- --- ------ ----- --<br>----- ----- ---------- --- --- ------ ------ ---- -- ------<br>------- --- ------ ----- --- ---- ------- -- ---- --- --<br>------- money.,191828.89999997616,191827,191298.742,191312.19999998808,191315.409,191832.086,,55,money.
Item 100,flow.Loop,2_1_1_1,2022-02-15T16:28:07.197Z,,,,,,,,,,,,,,,,,,,,,,,,,,,,,,,23628.72,,completion,,,,,B,,,,,,,,,,,silence,,,,,191829.19999998808,191827,168181.613,168183.5,168198.28,191832.086,,,
Question 1,html.Screen,2_1_1_2,2022-02-15T16:28:10.251Z,,,,,,,,,,,,,,,,,,,,,,,,,,,,true,TRUE,,3048.513999964227,,response,,,,100,B,,,,,,TRUE,click #choice-1,,,,silence,,,,,194882.69999998808,194880.59999996424,191815.419,191829.30000001192,191832.086,194898.814,,,
Question 2,html.Screen,2_1_1_3,2022-02-15T16:28:12.553Z,,,,,,,,,,,,,,,,,,,,,,,,,,,,true,FALSE,,2283.785999964224,,response,,,,100,B,,,,,,FALSE,click #choice-2,,,,silence,,,,,197184.39999997616,197182.59999996424,194882.147,194882.89999997616,194898.814,197198.86,,,
Item 100,flow.Sequence,2_1_1,2022-02-15T16:28:12.553Z,,,,,,,,,,,,,,,,,,,,,,,,,,,,,,,38984.51999996425,,completion,,,,,,,,,,,,,,,,,,,,,197184.89999997616,197182.59999996424,158181.413,158194.39999997616,158198.08,197198.86,,,
End of Practice,html.Page,2_1_2,2022-02-15T16:28:18.258Z,,,,,,,,,,,,,,,,,,,,,,,,,,,,,,,5689.839999988093,,form submission,,,,,,,,,,,,,,,,,,,,,202889.39999997616,202888.69999998808,197182.193,197185.09999996424,197198.86,202898.974,,,
Practice,flow.Sequence,2_1,2022-02-15T16:28:18.258Z,,,,,,,,,,,,,,,,,,,,,,,,,,,,,,,93258.25799998808,,completion,,,,,,,,,,,,,,,,,,,,,202889.69999998808,202888.69999998808,109613.775,109621.59999996424,109630.442,202898.974,,,
Trap_instruction,html.Page,2_2_0,2022-02-15T16:28:23.764Z,,,,,,,,,,,,,,,,,,,,,,,,,,,,,,,5496.3260000119335,,form submission,,,,,,,,,,,,,,,,,,,,,208395.69999998808,208395.30000001192,202882.307,202890,202898.974,208432.418,,,
trap_trial,html.Screen,2_2_1,2022-02-15T16:28:28.400Z,,,,,,,,,,,,,,,,,,,,,,,,,,,,true,1,,4596.281999988074,,response,,,,,,,,,,,1,click #choice-1,,,,,,,,,213030.89999997616,213028.69999998808,208382.417,208395.80000001192,208432.418,213032.51,,,
end of trap trial,html.Page,2_2_2,2022-02-15T16:28:31.360Z,,,,,,,,,,,,,,,,,,,,,,,,,,,,,,,2958.2900000119116,,form submission,,,,,,,,,,,,,,,,,,,,,215991.30000001192,215990.80000001192,213015.843,213031.19999998808,213032.51,215999.236,,,
Trap 1,flow.Sequence,2_2,2022-02-15T16:28:31.360Z,,,,,,,,,,,,,,,,,,,,,,,,,,,,,,,13091.826000011934,,completion,,,,,,,,,,,,,,,,,,,,,215991.5,215990.80000001192,202882.307,202889.80000001192,202898.974,215999.236,,,
Standby,html.Page,2_3_0,2022-02-15T16:28:39.353Z,,,,,,,,,,,,,,,,,,,,,,,,,,,,,,,8000.1600000000035,,timeout,,,,,,,,,,,,,,,,,,,,,223983.89999997616,223982.729,215982.569,215991.80000001192,215999.236,223999.396,,,
Holding screen,html.Screen,2_3_1_0_0,2022-02-15T16:28:46.354Z,,,,,,,,,,,,,,,,,,,,,,,,,,,,,,,7000.139999999985,,timeout,,,,,,,,,,,,,,,,,,,,,230984.09999996424,230982.869,223982.729,223984.30000001192,223999.396,230999.536,,,
screen,html.Screen,2_3_1_0_1_0,2022-02-15T16:28:47.109Z,,,,,,,,,,,,,,,,,11,,,,,,,,,,,,,,737.0639999642444,,response,,,,4,B,,,,,,Space,keypress(Space),,,,lyrical,,,,Known -- ---- --- -- --- -------- ------------ ---------- --<br>- ------- ------ --------- -- ------------ -- --- ---- -----<br>------ ---- ---- ------ ------ ------- --- ----- ---------<br>---- --- -------- -------- --- --- -- ------- --- --- -----<br>-- --- ------ ------- --- --- -------- ---- --------- --<br>---------- -- -------- ----------------,231739.69999998808,231736.59999996424,230982.869,230984.5,230999.536,231749.551,,0,Known
screen,html.Screen,2_3_1_0_1_1,2022-02-15T16:28:47.489Z,,,,,,,,,,,,,,,,,11,,,,,,,,,,,,,,367.2490000119142,,response,,,,4,B,,,,,,Space,keypress(Space),,,,lyrical,,,,----- as ---- --- -- --- -------- ------------ ---------- --<br>- ------- ------ --------- -- ------------ -- --- ---- -----<br>------ ---- ---- ------ ------ ------- --- ----- ---------<br>---- --- -------- -------- --- --- -- ------- --- --- -----<br>-- --- ------ ------- --- --- -------- ---- --------- --<br>---------- -- -------- ----------------,232119.39999997616,232116.80000001192,231732.884,231739.89999997616,231749.551,232132.892,,1,as
screen,html.Screen,2_3_1_0_1_2,2022-02-15T16:28:47.967Z,,,,,,,,,,,,,,,,,11,,,,,,,,,,,,,,461.8079999880865,,response,,,,4,B,,,,,,Space,keypress(Space),,,,lyrical,,,,----- -- Rapa --- -- --- -------- ------------ ---------- --<br>- ------- ------ --------- -- ------------ -- --- ---- -----<br>------ ---- ---- ------ ------ ------- --- ----- ---------<br>---- --- -------- -------- --- --- -- ------- --- --- -----<br>-- --- ------ ------- --- --- -------- ---- --------- --<br>---------- -- -------- ----------------,232597.5,232594.69999998808,232116.225,232119.5,232132.892,232599.568,,2,Rapa
screen,html.Screen,2_3_1_0_1_3,2022-02-15T16:28:48.360Z,,,,,,,,,,,,,,,,,11,,,,,,,,,,,,,,388.63199998807977,,response,,,,4,B,,,,,,Space,keypress(Space),,,,lyrical,,,,----- -- ---- Nui -- --- -------- ------------ ---------- --<br>- ------- ------ --------- -- ------------ -- --- ---- -----<br>------ ---- ---- ------ ------ ------- --- ----- ---------<br>---- --- -------- -------- --- --- -- ------- --- --- -----<br>-- --- ------ ------- --- --- -------- ---- --------- --<br>---------- -- -------- ----------------,232990.09999996424,232988.19999998808,232582.901,232597.80000001192,232599.568,232999.576,,3,Nui
screen,html.Screen,2_3_1_0_1_4,2022-02-15T16:28:48.690Z,,,,,,,,,,,,,,,,,11,,,,,,,,,,,,,,319.0239999642363,,response,,,,4,B,,,,,,Space,keypress(Space),,,,lyrical,,,,----- -- ---- --- to --- -------- ------------ ---------- --<br>- ------- ------ --------- -- ------------ -- --- ---- -----<br>------ ---- ---- ------ ------ ------- --- ----- ---------<br>---- --- -------- -------- --- --- -- ------- --- --- -----<br>-- --- ------ ------- --- --- -------- ---- --------- --<br>---------- -- -------- ----------------,233320.59999996424,233318.59999996424,232982.909,232990.30000001192,232999.576,233332.916,,4,to
screen,html.Screen,2_3_1_0_1_5,2022-02-15T16:28:49.025Z,,,,,,,,,,,,,,,,,11,,,,,,,,,,,,,,320.28399998808163,,response,,,,4,B,,,,,,Space,keypress(Space),,,,lyrical,,,,----- -- ---- --- -- the -------- ------------ ---------- --<br>- ------- ------ --------- -- ------------ -- --- ---- -----<br>------ ---- ---- ------ ------ ------- --- ----- ---------<br>---- --- -------- -------- --- --- -- ------- --- --- -----<br>-- --- ------ ------- --- --- -------- ---- --------- --<br>---------- -- -------- ----------------,233655.80000001192,233653.19999998808,233316.249,233320.69999998808,233332.916,233666.256,,5,the
screen,html.Screen,2_3_1_0_1_6,2022-02-15T16:28:49.407Z,,,,,,,,,,,,,,,,,11,,,,,,,,,,,,,,368.4439999880851,,response,,,,4,B,,,,,,Space,keypress(Space),,,,lyrical,,,,----- -- ---- --- -- --- island's ------------ ---------- --<br>- ------- ------ --------- -- ------------ -- --- ---- -----<br>------ ---- ---- ------ ------ ------- --- ----- ---------<br>---- --- -------- -------- --- --- -- ------- --- --- -----<br>-- --- ------ ------- --- --- -------- ---- --------- --<br>---------- -- -------- ----------------,234037,234034.69999998808,233649.589,233656.69999998808,233666.256,234049.597,,6,island's
screen,html.Screen,2_3_1_0_1_7,2022-02-15T16:28:49.802Z,,,,,,,,,,,,,,,,,11,,,,,,,,,,,,,,380.8029999761493,,response,,,,4,B,,,,,,Space,keypress(Space),,,,lyrical,,,,"----- -- ---- --- -- --- -------- inhabitants, ---------- --<br>- ------- ------ --------- -- ------------ -- --- ---- -----<br>------ ---- ---- ------ ------ ------- --- ----- ---------<br>---- --- -------- -------- --- --- -- ------- --- --- -----<br>-- --- ------ ------- --- --- -------- ---- --------- --<br>---------- -- -------- ----------------",234432.5,234430.39999997616,234032.93,234037.5,234049.597,234449.605,,7,"inhabitants,"
screen,html.Screen,2_3_1_0_1_8,2022-02-15T16:28:50.298Z,,,,,,,,,,,,,,,,,11,,,,,,,,,,,,,,475.99499996422674,,response,,,,4,B,,,,,,Space,keypress(Space),,,,lyrical,,,,----- -- ---- --- -- --- -------- ------------ Rongorongo --<br>- ------- ------ --------- -- ------------ -- --- ---- -----<br>------ ---- ---- ------ ------ ------- --- ----- ---------<br>---- --- -------- -------- --- --- -- ------- --- --- -----<br>-- --- ------ ------- --- --- -------- ---- --------- --<br>---------- -- -------- ----------------,234928.59999996424,234925.59999996424,234432.938,234432.69999998808,234449.605,234932.948,,8,Rongorongo
screen,html.Screen,2_3_1_0_1_9,2022-02-15T16:28:50.671Z,,,,,,,,,,,,,,,,,11,,,,,,,,,,,,,,365.4519999761542,,response,,,,4,B,,,,,,Space,keypress(Space),,,,lyrical,,,,----- -- ---- --- -- --- -------- ------------ ---------- is<br>- ------- ------ --------- -- ------------ -- --- ---- -----<br>------ ---- ---- ------ ------ ------- --- ----- ---------<br>---- --- -------- -------- --- --- -- ------- --- --- -----<br>-- --- ------ ------- --- --- -------- ---- --------- --<br>---------- -- -------- ----------------,235301,235298.39999997616,234916.281,234928.80000001192,234932.948,235316.289,,9,is
screen,html.Screen,2_3_1_0_1_10,2022-02-15T16:28:51.003Z,,,,,,,,,,,,,,,,,11,,,,,,,,,,,,,,314.4109999880893,,response,,,,4,B,,,,,,Space,keypress(Space),,,,lyrical,,,,----- -- ---- --- -- --- -------- ------------ ---------- --<br>a ------- ------ --------- -- ------------ -- --- ---- -----<br>------ ---- ---- ------ ------ ------- --- ----- ---------<br>---- --- -------- -------- --- --- -- ------- --- --- -----<br>-- --- ------ ------- --- --- -------- ---- --------- --<br>---------- -- -------- ----------------,235633.19999998808,235630.69999998808,235299.622,235301.30000001192,235316.289,235649.629,,10,a
screen,html.Screen,2_3_1_0_1_11,2022-02-15T16:28:51.381Z,,,,,,,,,,,,,,,,,11,,,,,,,,,,,,,,359.67100001193467,,response,,,,4,B,,,,,,Space,keypress(Space),,,,lyrical,,,,----- -- ---- --- -- --- -------- ------------ ---------- --<br>- writing ------ --------- -- ------------ -- --- ---- -----<br>------ ---- ---- ------ ------ ------- --- ----- ---------<br>---- --- -------- -------- --- --- -- ------- --- --- -----<br>-- --- ------ ------- --- --- -------- ---- --------- --<br>---------- -- -------- ----------------,236011.19999998808,236009.30000001192,235632.962,235633.30000001192,235649.629,236016.303,,11,writing
screen,html.Screen,2_3_1_0_1_12,2022-02-15T16:28:51.775Z,,,,,,,,,,,,,,,,,11,,,,,,,,,,,,,,386.9970000119065,,response,,,,4,B,,,,,,Space,keypress(Space),,,,lyrical,,,,----- -- ---- --- -- --- -------- ------------ ---------- --<br>- ------- system --------- -- ------------ -- --- ---- -----<br>------ ---- ---- ------ ------ ------- --- ----- ---------<br>---- --- -------- -------- --- --- -- ------- --- --- -----<br>-- --- ------ ------- --- --- -------- ---- --------- --<br>---------- -- -------- ----------------,236405.19999998808,236403.30000001192,235999.636,236011.30000001192,236016.303,236416.311,,12,system
screen,html.Screen,2_3_1_0_1_13,2022-02-15T16:28:52.095Z,,,,,,,,,,,,,,,,,11,,,,,,,,,,,,,,307.0889999761712,,response,,,,4,B,,,,,,Space,keypress(Space),,,,lyrical,,,,----- -- ---- --- -- --- -------- ------------ ---------- --<br>- ------- ------ comprised -- ------------ -- --- ---- -----<br>------ ---- ---- ------ ------ ------- --- ----- ---------<br>---- --- -------- -------- --- --- -- ------- --- --- -----<br>-- --- ------ ------- --- --- -------- ---- --------- --<br>---------- -- -------- ----------------,236725.30000001192,236723.39999997616,236399.644,236405.30000001192,236416.311,236732.984,,13,comprised
screen,html.Screen,2_3_1_0_1_14,2022-02-15T16:28:52.526Z,,,,,,,,,,,,,,,,,11,,,,,,,,,,,,,,421.3160000119242,,response,,,,4,B,,,,,,Space,keypress(Space),,,,lyrical,,,,----- -- ---- --- -- --- -------- ------------ ---------- --<br>- ------- ------ --------- of ------------ -- --- ---- -----<br>------ ---- ---- ------ ------ ------- --- ----- ---------<br>---- --- -------- -------- --- --- -- ------- --- --- -----<br>-- --- ------ ------- --- --- -------- ---- --------- --<br>---------- -- -------- ----------------,237156.09999996424,237154.30000001192,236716.317,236725.59999996424,236732.984,237166.326,,14,of
screen,html.Screen,2_3_1_0_1_15,2022-02-15T16:28:53.217Z,,,,,,,,,,,,,,,,,11,,,,,,,,,,,,,,678.97400001192,,response,,,,4,B,,,,,,Space,keypress(Space),,,,lyrical,,,,----- -- ---- --- -- --- -------- ------------ ---------- --<br>- ------- ------ --------- -- pictographs. -- --- ---- -----<br>------ ---- ---- ------ ------ ------- --- ----- ---------<br>---- --- -------- -------- --- --- -- ------- --- --- -----<br>-- --- ------ ------- --- --- -------- ---- --------- --<br>---------- -- -------- ----------------,237847.80000001192,237845.30000001192,237149.659,237156.30000001192,237166.326,237849.673,,15,pictographs.
screen,html.Screen,2_3_1_0_1_16,2022-02-15T16:28:53.576Z,,,,,,,,,,,,,,,,,11,,,,,,,,,,,,,,354.5269999880693,,response,,,,4,B,,,,,,Space,keypress(Space),,,,lyrical,,,,----- -- ---- --- -- --- -------- ------------ ---------- --<br>- ------- ------ --------- -- ------------ It --- ---- -----<br>------ ---- ---- ------ ------ ------- --- ----- ---------<br>---- --- -------- -------- --- --- -- ------- --- --- -----<br>-- --- ------ ------- --- --- -------- ---- --------- --<br>---------- -- -------- ----------------,238206,238204.19999998808,237833.006,237848,237849.673,238216.347,,16,It
screen,html.Screen,2_3_1_0_1_17,2022-02-15T16:28:53.911Z,,,,,,,,,,,,,,,,,11,,,,,,,,,,,,,,322.9530000119121,,response,,,,4,B,,,,,,Space,keypress(Space),,,,lyrical,,,,----- -- ---- --- -- --- -------- ------------ ---------- --<br>- ------- ------ --------- -- ------------ -- has ---- -----<br>------ ---- ---- ------ ------ ------- --- ----- ---------<br>---- --- -------- -------- --- --- -- ------- --- --- -----<br>-- --- ------ ------- --- --- -------- ---- --------- --<br>---------- -- -------- ----------------,238541.30000001192,238539.30000001192,238199.68,238206.19999998808,238216.347,238549.687,,17,has
screen,html.Screen,2_3_1_0_1_18,2022-02-15T16:28:54.259Z,,,,,,,,,,,,,,,,,11,,,,,,,,,,,,,,337.6130000119156,,response,,,,4,B,,,,,,Space,keypress(Space),,,,lyrical,,,,----- -- ---- --- -- --- -------- ------------ ---------- --<br>- ------- ------ --------- -- ------------ -- --- been -----<br>------ ---- ---- ------ ------ ------- --- ----- ---------<br>---- --- -------- -------- --- --- -- ------- --- --- -----<br>-- --- ------ ------- --- --- -------- ---- --------- --<br>---------- -- -------- ----------------,238889.19999998808,238887.30000001192,238533.02,238541.5,238549.687,238899.694,,18,been
screen,html.Screen,2_3_1_0_1_19,2022-02-15T16:28:54.666Z,,,,,,,,,,,,,,,,,11,,,,,,,,,,,,,,394.4059999642486,,response,,,,4,B,,,,,,Space,keypress(Space),,,,lyrical,,,,----- -- ---- --- -- --- -------- ------------ ---------- --<br>- ------- ------ --------- -- ------------ -- --- ---- found<br>------ ---- ---- ------ ------ ------- --- ----- ---------<br>---- --- -------- -------- --- --- -- ------- --- --- -----<br>-- --- ------ ------- --- --- -------- ---- --------- --<br>---------- -- -------- ----------------,239296,239294.09999996424,238883.027,238889.5,238899.694,239299.702,,19,found
screen,html.Screen,2_3_1_0_1_20,2022-02-15T16:28:55.162Z,,,,,,,,,,,,,,,,,11,,,,,,,,,,,,,,490.397999964247,,response,,,,4,B,,,,,,Space,keypress(Space),,,,lyrical,,,,----- -- ---- --- -- --- -------- ------------ ---------- --<br>- ------- ------ --------- -- ------------ -- --- ---- -----<br>carved ---- ---- ------ ------ ------- --- ----- ---------<br>---- --- -------- -------- --- --- -- ------- --- --- -----<br>-- --- ------ ------- --- --- -------- ---- --------- --<br>---------- -- -------- ----------------,239792.5,239790.09999996424,239283.035,239296.19999998808,239299.702,239799.712,,20,carved
screen,html.Screen,2_3_1_0_1_21,2022-02-15T16:28:55.550Z,,,,,,,,,,,,,,,,,11,,,,,,,,,,,,,,378.3879999642377,,response,,,,4,B,,,,,,Space,keypress(Space),,,,lyrical,,,,----- -- ---- --- -- --- -------- ------------ ---------- --<br>- ------- ------ --------- -- ------------ -- --- ---- -----<br>------ into ---- ------ ------ ------- --- ----- ---------<br>---- --- -------- -------- --- --- -- ------- --- --- -----<br>-- --- ------ ------- --- --- -------- ---- --------- --<br>---------- -- -------- ----------------,240180,240178.09999996424,239783.045,239792.80000001192,239799.712,240183.053,,21,into
screen,html.Screen,2_3_1_0_1_22,2022-02-15T16:28:55.857Z,,,,,,,,,,,,,,,,,11,,,,,,,,,,,,,,300.94699999998556,,response,,,,4,B,,,,,,Space,keypress(Space),,,,lyrical,,,,----- -- ---- --- -- --- -------- ------------ ---------- --<br>- ------- ------ --------- -- ------------ -- --- ---- -----<br>------ ---- many ------ ------ ------- --- ----- ---------<br>---- --- -------- -------- --- --- -- ------- --- --- -----<br>-- --- ------ ------- --- --- -------- ---- --------- --<br>---------- -- -------- ----------------,240486.80000001192,240484,240166.386,240180.39999997616,240183.053,240499.726,,22,many
screen,html.Screen,2_3_1_0_1_23,2022-02-15T16:28:56.302Z,,,,,,,,,,,,,,,,,11,,,,,,,,,,,,,,430.3739999642421,,response,,,,4,B,,,,,,Space,keypress(Space),,,,lyrical,,,,----- -- ---- --- -- --- -------- ------------ ---------- --<br>- ------- ------ --------- -- ------------ -- --- ---- -----<br>------ ---- ---- oblong ------ ------- --- ----- ---------<br>---- --- -------- -------- --- --- -- ------- --- --- -----<br>-- --- ------ ------- --- --- -------- ---- --------- --<br>---------- -- -------- ----------------,240932.39999997616,240930.09999996424,240483.059,240487,240499.726,240949.735,,23,oblong
screen,html.Screen,2_3_1_0_1_24,2022-02-15T16:28:56.799Z,,,,,,,,,,,,,,,,,11,,,,,,,,,,,,,,477.3649999642512,,response,,,,4,B,,,,,,Space,keypress(Space),,,,lyrical,,,,----- -- ---- --- -- --- -------- ------------ ---------- --<br>- ------- ------ --------- -- ------------ -- --- ---- -----<br>------ ---- ---- ------ wooden ------- --- ----- ---------<br>---- --- -------- -------- --- --- -- ------- --- --- -----<br>-- --- ------ ------- --- --- -------- ---- --------- --<br>---------- -- -------- ----------------,241429,241427.09999996424,240933.068,240932.69999998808,240949.735,241433.078,,24,wooden
screen,html.Screen,2_3_1_0_1_25,2022-02-15T16:28:57.144Z,,,,,,,,,,,,,,,,,11,,,,,,,,,,,,,,337.0219999642286,,response,,,,4,B,,,,,,Space,keypress(Space),,,,lyrical,,,,----- -- ---- --- -- --- -------- ------------ ---------- --<br>- ------- ------ --------- -- ------------ -- --- ---- -----<br>------ ---- ---- ------ ------ tablets --- ----- ---------<br>---- --- -------- -------- --- --- -- ------- --- --- -----<br>-- --- ------ ------- --- --- -------- ---- --------- --<br>---------- -- -------- ----------------,241774.39999997616,241770.09999996424,241416.411,241429.5,241433.078,241783.085,,25,tablets
screen,html.Screen,2_3_1_0_1_26,2022-02-15T16:28:57.618Z,,,,,,,,,,,,,,,,,11,,,,,,,,,,,,,,462.8149999761663,,response,,,,4,B,,,,,,Space,keypress(Space),,,,lyrical,,,,----- -- ---- --- -- --- -------- ------------ ---------- --<br>- ------- ------ --------- -- ------------ -- --- ---- -----<br>------ ---- ---- ------ ------ ------- and ----- ---------<br>---- --- -------- -------- --- --- -- ------- --- --- -----<br>-- --- ------ ------- --- --- -------- ---- --------- --<br>---------- -- -------- ----------------,242248.19999998808,242245.89999997616,241766.418,241775.19999998808,241783.085,242249.761,,26,and
screen,html.Screen,2_3_1_0_1_27,2022-02-15T16:28:58.005Z,,,,,,,,,,,,,,,,,11,,,,,,,,,,,,,,383.2390000000014,,response,,,,4,B,,,,,,Space,keypress(Space),,,,lyrical,,,,----- -- ---- --- -- --- -------- ------------ ---------- --<br>- ------- ------ --------- -- ------------ -- --- ---- -----<br>------ ---- ---- ------ ------ ------- --- other ---------<br>---- --- -------- -------- --- --- -- ------- --- --- -----<br>-- --- ------ ------- --- --- -------- ---- --------- --<br>---------- -- -------- ----------------,242635.19999998808,242633,242233.094,242248.30000001192,242249.761,242649.769,,27,other
screen,html.Screen,2_3_1_0_1_28,2022-02-15T16:28:58.534Z,,,,,,,,,,,,,,,,,11,,,,,,,,,,,,,,512.4309999880788,,response,,,,4,B,,,,,,Space,keypress(Space),,,,lyrical,,,,----- -- ---- --- -- --- -------- ------------ ---------- --<br>- ------- ------ --------- -- ------------ -- --- ---- -----<br>------ ---- ---- ------ ------ ------- --- ----- artifacts<br>---- --- -------- -------- --- --- -- ------- --- --- -----<br>-- --- ------ ------- --- --- -------- ---- --------- --<br>---------- -- -------- ----------------,243163.89999997616,243162.19999998808,242633.102,242635.39999997616,242649.769,243166.446,,28,artifacts
screen,html.Screen,2_3_1_0_1_29,2022-02-15T16:28:59.030Z,,,,,,,,,,,,,,,,,11,,,,,,,,,,,,,,491.5540000000037,,response,,,,4,B,,,,,,Space,keypress(Space),,,,lyrical,,,,----- -- ---- --- -- --- -------- ------------ ---------- --<br>- ------- ------ --------- -- ------------ -- --- ---- -----<br>------ ---- ---- ------ ------ ------- --- ----- ---------<br>from --- -------- -------- --- --- -- ------- --- --- -----<br>-- --- ------ ------- --- --- -------- ---- --------- --<br>---------- -- -------- ----------------,243660.39999997616,243658,243149.779,243164.19999998808,243166.446,243666.456,,29,from
screen,html.Screen,2_3_1_0_1_30,2022-02-15T16:28:59.327Z,,,,,,,,,,,,,,,,,11,,,,,,,,,,,,,,288.5439999999944,,response,,,,4,B,,,,,,Space,keypress(Space),,,,lyrical,,,,----- -- ---- --- -- --- -------- ------------ ---------- --<br>- ------- ------ --------- -- ------------ -- --- ---- -----<br>------ ---- ---- ------ ------ ------- --- ----- ---------<br>---- the -------- -------- --- --- -- ------- --- --- -----<br>-- --- ------ ------- --- --- -------- ---- --------- --<br>---------- -- -------- ----------------,243957,243955,243649.789,243660.59999996424,243666.456,243966.462,,30,the
screen,html.Screen,2_3_1_0_1_31,2022-02-15T16:28:59.602Z,,,,,,,,,,,,,,,,,11,,,,,,,,,,,,,,262.4379999761586,,response,,,,4,B,,,,,,Space,keypress(Space),,,,lyrical,,,,----- -- ---- --- -- --- -------- ------------ ---------- --<br>- ------- ------ --------- -- ------------ -- --- ---- -----<br>------ ---- ---- ------ ------ ------- --- ----- ---------<br>---- --- island's -------- --- --- -- ------- --- --- -----<br>-- --- ------ ------- --- --- -------- ---- --------- --<br>---------- -- -------- ----------------,244231.59999996424,244228.89999997616,243949.795,243957.19999998808,243966.462,244249.801,,31,island's
screen,html.Screen,2_3_1_0_1_32,2022-02-15T16:28:59.995Z,,,,,,,,,,,,,,,,,11,,,,,,,,,,,,,,372.8989999880723,,response,,,,4,B,,,,,,Space,keypress(Space),,,,lyrical,,,,----- -- ---- --- -- --- -------- ------------ ---------- --<br>- ------- ------ --------- -- ------------ -- --- ---- -----<br>------ ---- ---- ------ ------ ------- --- ----- ---------<br>---- --- -------- history. --- --- -- ------- --- --- -----<br>-- --- ------ ------- --- --- -------- ---- --------- --<br>---------- -- -------- ----------------,244624.69999998808,244622.69999998808,244233.134,244231.89999997616,244249.801,244633.142,,32,history.
screen,html.Screen,2_3_1_0_1_33,2022-02-15T16:29:00.320Z,,,,,,,,,,,,,,,,,11,,,,,,,,,,,,,,315.45799996424466,,response,,,,4,B,,,,,,Space,keypress(Space),,,,lyrical,,,,----- -- ---- --- -- --- -------- ------------ ---------- --<br>- ------- ------ --------- -- ------------ -- --- ---- -----<br>------ ---- ---- ------ ------ ------- --- ----- ---------<br>---- --- -------- -------- The --- -- ------- --- --- -----<br>-- --- ------ ------- --- --- -------- ---- --------- --<br>---------- -- -------- ----------------,244950.59999996424,244948.59999996424,244616.475,244624.89999997616,244633.142,244966.482,,33,The
screen,html.Screen,2_3_1_0_1_34,2022-02-15T16:29:00.637Z,,,,,,,,,,,,,,,,,11,,,,,,,,,,,,,,298.4179999761691,,response,,,,4,B,,,,,,Space,keypress(Space),,,,lyrical,,,,----- -- ---- --- -- --- -------- ------------ ---------- --<br>- ------- ------ --------- -- ------------ -- --- ---- -----<br>------ ---- ---- ------ ------ ------- --- ----- ---------<br>---- --- -------- -------- --- art -- ------- --- --- -----<br>-- --- ------ ------- --- --- -------- ---- --------- --<br>---------- -- -------- ----------------,245267.39999997616,245264.89999997616,244949.815,244950.69999998808,244966.482,245283.155,,34,art
screen,html.Screen,2_3_1_0_1_35,2022-02-15T16:29:00.947Z,,,,,,,,,,,,,,,,,11,,,,,,,,,,,,,,291.6450000119221,,response,,,,4,B,,,,,,Space,keypress(Space),,,,lyrical,,,,----- -- ---- --- -- --- -------- ------------ ---------- --<br>- ------- ------ --------- -- ------------ -- --- ---- -----<br>------ ---- ---- ------ ------ ------- --- ----- ---------<br>---- --- -------- -------- --- --- of ------- --- --- -----<br>-- --- ------ ------- --- --- -------- ---- --------- --<br>---------- -- -------- ----------------,245576.80000001192,245574.80000001192,245266.488,245267.59999996424,245283.155,245583.161,,35,of
screen,html.Screen,2_3_1_0_1_36,2022-02-15T16:29:01.235Z,,,,,,,,,,,,,,,,,11,,,,,,,,,,,,,,278.43899996424443,,response,,,,4,B,,,,,,Space,keypress(Space),,,,lyrical,,,,----- -- ---- --- -- --- -------- ------------ ---------- --<br>- ------- ------ --------- -- ------------ -- --- ---- -----<br>------ ---- ---- ------ ------ ------- --- ----- ---------<br>---- --- -------- -------- --- --- -- writing --- --- -----<br>-- --- ------ ------- --- --- -------- ---- --------- --<br>---------- -- -------- ----------------,245865,245861.59999996424,245566.494,245576.89999997616,245583.161,245883.167,,36,writing
screen,html.Screen,2_3_1_0_1_37,2022-02-15T16:29:01.677Z,,,,,,,,,,,,,,,,,11,,,,,,,,,,,,,,421.83300000001327,,response,,,,4,B,,,,,,Space,keypress(Space),,,,lyrical,,,,----- -- ---- --- -- --- -------- ------------ ---------- --<br>- ------- ------ --------- -- ------------ -- --- ---- -----<br>------ ---- ---- ------ ------ ------- --- ----- ---------<br>---- --- -------- -------- --- --- -- ------- was --- -----<br>-- --- ------ ------- --- --- -------- ---- --------- --<br>---------- -- -------- ----------------,246307.59999996424,246305,245866.5,245865.5,245883.167,246316.509,,37,was
screen,html.Screen,2_3_1_0_1_38,2022-02-15T16:29:01.967Z,,,,,,,,,,,,,,,,,11,,,,,,,,,,,,,,278.29100001193,,response,,,,4,B,,,,,,Space,keypress(Space),,,,lyrical,,,,----- -- ---- --- -- --- -------- ------------ ---------- --<br>- ------- ------ --------- -- ------------ -- --- ---- -----<br>------ ---- ---- ------ ------ ------- --- ----- ---------<br>---- --- -------- -------- --- --- -- ------- --- not -----<br>-- --- ------ ------- --- --- -------- ---- --------- --<br>---------- -- -------- ----------------,246597,246594.80000001192,246299.842,246307.69999998808,246316.509,246599.848,,38,not
screen,html.Screen,2_3_1_0_1_39,2022-02-15T16:29:02.316Z,,,,,,,,,,,,,,,,,11,,,,,,,,,,,,,,343.85199998808093,,response,,,,4,B,,,,,,Space,keypress(Space),,,,lyrical,,,,----- -- ---- --- -- --- -------- ------------ ---------- --<br>- ------- ------ --------- -- ------------ -- --- ---- -----<br>------ ---- ---- ------ ------ ------- --- ----- ---------<br>---- --- -------- -------- --- --- -- ------- --- --- known<br>-- --- ------ ------- --- --- -------- ---- --------- --<br>---------- -- -------- ----------------,246945.69999998808,246943.69999998808,246583.181,246597.30000001192,246599.848,246949.855,,39,known
