sender,sender_type,sender_id,timestamp,meta,,Blues,Classical,Country,Dance,Electronic,Folk,Gospel,Hip-Hop,Jazz,Latin,Musical/Film,New-age,Pop,Prolific_id,Provo_ID,R&B,Rap,Reggae,Religious,Rock,Soul,Swing,Traditional,age,artist_name,correct,correctResponse,distraction,duration,education,ended_on,familiarity,gender,headphone_check_performance,item,list,music_frequency,offensiveness,pleasantness,position_correct,preference,response,response_action,snippet_file,song_name,song_rating,sound,stimulus_1,stimulus_2,stimulus_3,text,time_commit,time_end,time_render,time_run,time_show,time_switch,url,word,word_ID
Prolific ID,html.Form,0,2022-02-02T12:18:44.249Z,"{""labjs_version"":""20.2.2"",""labjs_build"":{""flavor"":""production"",""commit"":""a25486e0c714a0ae2ce03ff94b7bb6896854dcfa""},""location"":""https://run.pavlovia.org/mvasilev/prolific2_music_a/"",""userAgent"":""Mozilla/5.0 (Windows NT 10.0; Win64; x64) AppleWebKit/537.36 (KHTML, like Gecko) Chrome/97.0.4692.99 Safari/537.36"",""platform"":""Win32"",""language"":""en-GB"",""locale"":""en-US"",""timeZone"":""Europe/London"",""timezoneOffset"":0,""screen_width"":1920,""screen_height"":1080,""scroll_width"":1196,""scroll_height"":560,""window_innerWidth"":1196,""window_innerHeight"":560,""devicePixelRatio"":1}",,,,,,,,,,,,,,,60bb3b463887c2f9d1385cce,,,,,,,,,,,,,,,165027.0579999985,,form submission,,,,,,,,,,,,,,,,,,,,,177531.8999999985,177531.3999999985,12455.673,12455.39999999851,12504.342,177542.873,{},,
Introduction,html.Screen,1_0,2022-02-02T12:18:45.997Z,,,,,,,,,,,,,,,,,,,,,,,,,,,,,,,1736.2269999977725,,response,,,,,,,,,,,continue,click button,,,,,,,,,179279.69999999925,179279.09999999776,177528.932,177532.19999999925,177542.873,179285.895,,,
Volume calibration,html.Screen,1_1,2022-02-02T12:18:48.851Z,,,,,,,,,,,,,,,,,,,,,,,,,,,,,,,2847.3049999992654,,response,,,,,,,,,,,continue,click button,,,,,,,,,182133.8999999985,182133.19999999925,179278.9,179279.79999999702,179285.895,182139.964,,,
Task instructions,html.Screen,1_2,2022-02-02T12:18:51.613Z,,,,,,,,,,,,,,,,,,,,,,,,,,,,,,,2755.1359999977576,,response,,,,,,,,,,,continue,click button,,,,,,,,,184895.79999999702,184895.09999999776,182133.009,182134,182139.964,184896.884,,,
Sounds,html.Screen,1_3_0_0,2022-02-02T12:18:55.859Z,,,,,,,,,,,,,,,,,,,,,,,,,,,,,,,4250.225999999995,,timeout,,,,,,,,,2,,,,,,,,I,S,O,,189141.5,189139.83,184889.96,184895.8999999985,184896.884,189147.11,,,
Judgement,html.Screen,1_3_0_1,2022-02-02T12:18:58.606Z,,,,,,,,,,,,,,,,,,,,,,,,,,,,false,2,,2740.089999999269,,response,,,,,,,,,2,,1,click #choice-1,,,,,I,S,O,,191888.09999999776,191887.19999999925,189139.83,189141.59999999776,189147.11,191889.789,,,
Trial,flow.Sequence,1_3_0,2022-02-02T12:18:58.607Z,,,,,,,,,,,,,,,,,,,,,,,,,,,,,,,6990.315999999264,,completion,,,,,,,,,2,,,,,,,,I,S,O,,191889.09999999776,191887.19999999925,184889.96,184895.8999999985,184896.884,191889.789,,,
Sounds,html.Screen,1_3_1_0,2022-02-02T12:19:02.851Z,,,,,,,,,,,,,,,,,,,,,,,,,,,,,,,4249.906000000017,,timeout,,,,,,,,,2,,,,,,,,O,S,I,,196133.19999999925,196132.744,191882.828,191889.19999999925,191889.789,196139.695,,,
Judgement,html.Screen,1_3_1_1,2022-02-02T12:19:03.524Z,,,,,,,,,,,,,,,,,,,,,,,,,,,,true,2,,665.504999999248,,response,,,,,,,,,2,,2,click #choice-2,,,,,O,S,I,,196806.09999999776,196805.19999999925,196132.744,196133.19999999925,196139.695,196823.343,,,
Trial,flow.Sequence,1_3_1,2022-02-02T12:19:03.524Z,,,,,,,,,,,,,,,,,,,,,,,,,,,,,,,4915.410999999265,,completion,,,,,,,,,2,,,,,,,,O,S,I,,196806.09999999776,196805.19999999925,191882.828,191889.19999999925,191889.789,196823.343,,,
Sounds,html.Screen,1_3_2_0,2022-02-02T12:19:07.781Z,,,,,,,,,,,,,,,,,,,,,,,,,,,,,,,4246.8429999999935,,timeout,,,,,,,,,1,,,,,,,,S,O,I,,201063.5,201063.218,196799.415,196806.29999999702,196823.343,201070.186,,,
Judgement,html.Screen,1_3_2_1,2022-02-02T12:19:08.251Z,,,,,,,,,,,,,,,,,,,,,,,,,,,,true,1,,462.91399999777786,,response,,,,,,,,,1,,1,click #choice-1,,,,,S,O,I,,201533.79999999702,201533.09999999776,201063.218,201063.59999999776,201070.186,201535.44,,,
Trial,flow.Sequence,1_3_2,2022-02-02T12:19:08.251Z,,,,,,,,,,,,,,,,,,,,,,,,,,,,,,,4709.756999997771,,completion,,,,,,,,,1,,,,,,,,S,O,I,,201533.8999999985,201533.09999999776,196799.415,196806.29999999702,196823.343,201535.44,,,
Sounds,html.Screen,1_3_3_0,2022-02-02T12:19:12.496Z,,,,,,,,,,,,,,,,,,,,,,,,,,,,,,,4249.915999999997,,timeout,,,,,,,,,3,,,,,,,,I,O,S,,205778.69999999925,205778.393,201528.476,201534,201535.44,205785.356,,,
Judgement,html.Screen,1_3_3_1,2022-02-02T12:19:12.966Z,,,,,,,,,,,,,,,,,,,,,,,,,,,,true,3,,461.94399999702,,response,,,,,,,,,3,,3,click #choice-3,,,,,I,O,S,,206248,206247.29999999702,205778.393,205778.79999999702,205785.356,206250.658,,,
Trial,flow.Sequence,1_3_3,2022-02-02T12:19:12.966Z,,,,,,,,,,,,,,,,,,,,,,,,,,,,,,,4711.859999997017,,completion,,,,,,,,,3,,,,,,,,I,O,S,,206248.09999999776,206247.29999999702,201528.476,201534,201535.44,206250.658,,,
Sounds,html.Screen,1_3_4_0,2022-02-02T12:19:17.212Z,,,,,,,,,,,,,,,,,,,,,,,,,,,,,,,4249.877000000008,,timeout,,,,,,,,,3,,,,,,,,O,I,S,,210493.8999999985,210493.589,206243.658,206248.09999999776,206250.658,210500.535,,,
Judgement,html.Screen,1_3_4_1,2022-02-02T12:19:17.559Z,,,,,,,,,,,,,,,,,,,,,,,,,,,,true,3,,340.56499999776133,,response,,,,,,,,,3,,3,click #choice-3,,,,,O,I,S,,210841.79999999702,210841.09999999776,210493.589,210494.09999999776,210500.535,210847.748,,,
Trial,flow.Sequence,1_3_4,2022-02-02T12:19:17.559Z,,,,,,,,,,,,,,,,,,,,,,,,,,,,,,,4590.441999997769,,completion,,,,,,,,,3,,,,,,,,O,I,S,,210841.8999999985,210841.09999999776,206243.658,206248.09999999776,206250.658,210847.748,,,
Sounds,html.Screen,1_3_5_0,2022-02-02T12:19:21.809Z,,,,,,,,,,,,,,,,,,,,,,,,,,,,,,,4249.920000000013,,timeout,,,,,,,,,1,,,,,,,,S,I,O,,215091.19999999925,215090.716,210840.819,210842,210847.748,215097.668,,,
Judgement,html.Screen,1_3_5_1,2022-02-02T12:19:22.221Z,,,,,,,,,,,,,,,,,,,,,,,,,,,,true,1,,405.4319999977597,,response,,,,,,,,,1,,1,click #choice-1,,,,,S,I,O,,215503.79999999702,215503.09999999776,215090.716,215091.29999999702,215097.668,215507.415,,,
Trial,flow.Sequence,1_3_5,2022-02-02T12:19:22.222Z,,,,,,,,,,,,,,,,,,,,,,,,,,,,,,,4655.3519999977725,,completion,,,,,,,,,1,,,,,,,,S,I,O,,215504,215503.09999999776,210840.819,210842,210847.748,215507.415,,,
Task,flow.Loop,1_3,2022-02-02T12:19:22.224Z,,,,,,,,,,,,,,,,,,,,,,,,,,,,,,,30606.215999997774,,completion,,,0.8333333333333334,,,,,,,,,,,,,,,,,,215506.5,215503.09999999776,184889.96,184895.8999999985,184896.884,215507.415,,,
Trap,html.Screen,1_4,2022-02-02T12:19:22.225Z,,,,,,,,,,,,,,,,,,,,,,,,,,,,,,,NaN,,skipped,,,,,,,,,,,,,,,,,,,,,215507.19999999925,215503.09999999776,,215507.19999999925,,215507.415,,,
Thanks,html.Screen,1_5,2022-02-02T12:19:27.063Z,,,,,,,,,,,,,,,,,,,,,,,,,,,,,,,4837.684999997757,,response,,,,,,,,,,,continue,click button,,,,,,,,,220345.79999999702,220345.09999999776,215500.427,215507.3999999985,215507.415,227014.168,,,
Headphone screening,flow.Sequence,1,2022-02-02T12:19:27.063Z,,,,,,,,,,,,,,,,,,,,,,,,,,,,,,,42802.22699999777,,completion,,,,,,,,,,,,,,,,,,,,,220345.8999999985,220345.09999999776,177528.932,177532.09999999776,177542.873,227014.168,,,
Instructions,html.Page,2_0,2022-02-02T12:40:10.434Z,,,,,,,,,,,,,,,,,,,,,,,,,,,,,,,1236701.9319999977,,form submission,,,,,,,,,,,,,,,,,,,,,1463716.299999997,1463716.0999999978,227007.21,227009.79999999702,227014.168,1463719.736,,,
Holding screen,html.Screen,2_1_0_0,2022-02-02T12:40:20.430Z,,,,,,,,,,,,,,,,,,,,,,,,,,,,,,,9999.783000000054,,timeout,,,,,,,,,,,,,,,,,,,,,1473712.799999997,1473712.549,1463712.746,1463716.3999999985,1463719.736,1473719.519,,,
screen,html.Screen,2_1_0_1_0,2022-02-02T12:40:21.426Z,,,,,,,,,,,,,,,,,53,,,,,,,,,,,,,,986.7809999969322,,response,,,,99,,,,,,,Space,keypress(Space),,,,,,,,When -- ----- -- ------ - ------- --- ----------<br>------------- ------ ------ ---- ---- ------- ----- -- ----<br>-------- ------- -- ---------- --- - --- ----- ----- ----<br>---- --- --- ----- --- ---- ---- ------- ----- ---- -------<br>--- --- -- ----- -- --- ---- -- --- ---- -- ------ ------<br>--- ----- -- ----,1474708.0999999978,1474706.299999997,1473712.549,1473713,1473719.519,1474712.542,,0,When
screen,html.Screen,2_1_0_1_1,2022-02-02T12:40:21.904Z,,,,,,,,,,,,,,,,,53,,,,,,,,,,,,,,473.6579999993555,,response,,,,99,,,,,,,Space,keypress(Space),,,,,,,,---- it ----- -- ------ - ------- --- ----------<br>------------- ------ ------ ---- ---- ------- ----- -- ----<br>-------- ------- -- ---------- --- - --- ----- ----- ----<br>---- --- --- ----- --- ---- ---- ------- ----- ---- -------<br>--- --- -- ----- -- --- ---- -- --- ---- -- ------ ------<br>--- ----- -- ----,1475186.799999997,1475186.1999999993,1474705.541,1474708.1999999993,1474712.542,1475191.691,,1,it
screen,html.Screen,2_1_0_1_2,2022-02-02T12:40:22.352Z,,,,,,,,,,,,,,,,,53,,,,,,,,,,,,,,442.60899999691173,,response,,,,99,,,,,,,Space,keypress(Space),,,,,,,,---- -- comes -- ------ - ------- --- ----------<br>------------- ------ ------ ---- ---- ------- ----- -- ----<br>-------- ------- -- ---------- --- - --- ----- ----- ----<br>---- --- --- ----- --- ---- ---- ------- ----- ---- -------<br>--- --- -- ----- -- --- ---- -- --- ---- -- ------ ------<br>--- ----- -- ----,1475634.799999997,1475634.299999997,1475184.729,1475186.8999999985,1475191.691,1475654.995,,2,comes
screen,html.Screen,2_1_0_1_3,2022-02-02T12:40:22.736Z,,,,,,,,,,,,,,,,,53,,,,,,,,,,,,,,363.2049999991432,,response,,,,99,,,,,,,Space,keypress(Space),,,,,,,,---- -- ----- to ------ - ------- --- ----------<br>------------- ------ ------ ---- ---- ------- ----- -- ----<br>-------- ------- -- ---------- --- - --- ----- ----- ----<br>---- --- --- ----- --- ---- ---- ------- ----- ---- -------<br>--- --- -- ----- -- --- ---- -- --- ---- -- ------ ------<br>--- ----- -- ----,1476018.799999997,1476018.1999999993,1475629.16,1475634.8999999985,1475654.995,1476025.019,,3,to
screen,html.Screen,2_1_0_1_4,2022-02-02T12:40:23.184Z,,,,,,,,,,,,,,,,,53,,,,,,,,,,,,,,441.2809999969322,,response,,,,99,,,,,,,Space,keypress(Space),,,,,,,,---- -- ----- -- having - ------- --- ----------<br>------------- ------ ------ ---- ---- ------- ----- -- ----<br>-------- ------- -- ---------- --- - --- ----- ----- ----<br>---- --- --- ----- --- ---- ---- ------- ----- ---- -------<br>--- --- -- ----- -- --- ---- -- --- ---- -- ------ ------<br>--- ----- -- ----,1476466.799999997,1476466.299999997,1476018.039,1476018.8999999985,1476025.019,1476469.474,,4,having
screen,html.Screen,2_1_0_1_5,2022-02-02T12:40:23.632Z,,,,,,,,,,,,,,,,,53,,,,,,,,,,,,,,444.82599999709055,,response,,,,99,,,,,,,Space,keypress(Space),,,,,,,,---- -- ----- -- ------ a ------- --- ----------<br>------------- ------ ------ ---- ---- ------- ----- -- ----<br>-------- ------- -- ---------- --- - --- ----- ----- ----<br>---- --- --- ----- --- ---- ---- ------- ----- ---- -------<br>--- --- -- ----- -- --- ---- -- --- ---- -- ------ ------<br>--- ----- -- ----,1476914.799999997,1476914.299999997,1476462.489,1476466.8999999985,1476469.474,1476920.835,,5,a
screen,html.Screen,2_1_0_1_6,2022-02-02T12:40:24.017Z,,,,,,,,,,,,,,,,,53,,,,,,,,,,,,,,377.8649999992922,,response,,,,99,,,,,,,Space,keypress(Space),,,,,,,,---- -- ----- -- ------ - lasting --- ----------<br>------------- ------ ------ ---- ---- ------- ----- -- ----<br>-------- ------- -- ---------- --- - --- ----- ----- ----<br>---- --- --- ----- --- ---- ---- ------- ----- ---- -------<br>--- --- -- ----- -- --- ---- -- --- ---- -- ------ ------<br>--- ----- -- ----,1477299.299999997,1477298.6999999993,1476913.855,1476915,1476920.835,1477302.914,,6,lasting
screen,html.Screen,2_1_0_1_7,2022-02-02T12:40:24.400Z,,,,,,,,,,,,,,,,,53,,,,,,,,,,,,,,379.3859999969136,,response,,,,99,,,,,,,Space,keypress(Space),,,,,,,,---- -- ----- -- ------ - ------- and ----------<br>------------- ------ ------ ---- ---- ------- ----- -- ----<br>-------- ------- -- ---------- --- - --- ----- ----- ----<br>---- --- --- ----- --- ---- ---- ------- ----- ---- -------<br>--- --- -- ----- -- --- ---- -- --- ---- -- ------ ------<br>--- ----- -- ----,1477682.799999997,1477682.299999997,1477295.81,1477299.299999997,1477302.914,1477684.74,,7,and
screen,html.Screen,2_1_0_1_8,2022-02-02T12:40:24.977Z,,,,,,,,,,,,,,,,,53,,,,,,,,,,,,,,573.7600000000093,,response,,,,99,,,,,,,Space,keypress(Space),,,,,,,,---- -- ----- -- ------ - ------- --- fulfilling<br>------------- ------ ------ ---- ---- ------- ----- -- ----<br>-------- ------- -- ---------- --- - --- ----- ----- ----<br>---- --- --- ----- --- ---- ---- ------- ----- ---- -------<br>--- --- -- ----- -- --- ---- -- --- ---- -- ------ ------<br>--- ----- -- ----,1478259.1999999993,1478258.5,1477677.728,1477682.8999999985,1477684.74,1478261.105,,8,fulfilling
screen,html.Screen,2_1_0_1_9,2022-02-02T12:40:25.808Z,,,,,,,,,,,,,,,,,53,,,,,,,,,,,,,,829.1949999970384,,response,,,,99,,,,,,,Space,keypress(Space),,,,,,,,"---- -- ----- -- ------ - ------- --- ----------<br>relationship, ------ ------ ---- ---- ------- ----- -- ----<br>-------- ------- -- ---------- --- - --- ----- ----- ----<br>---- --- --- ----- --- ---- ---- ------- ----- ---- -------<br>--- --- -- ----- -- --- ---- -- --- ---- -- ------ ------<br>--- ----- -- ----",1479090.8999999985,1479090.299999997,1478254.113,1478259.299999997,1478261.105,1479094.395,,9,"relationship,"
screen,html.Screen,2_1_0_1_10,2022-02-02T12:40:26.353Z,,,,,,,,,,,,,,,,,53,,,,,,,,,,,,,,540.1049999999814,,response,,,,99,,,,,,,Space,keypress(Space),,,,,,,,---- -- ----- -- ------ - ------- --- ----------<br>------------- common ------ ---- ---- ------- ----- -- ----<br>-------- ------- -- ---------- --- - --- ----- ----- ----<br>---- --- --- ----- --- ---- ---- ------- ----- ---- -------<br>--- --- -- ----- -- --- ---- -- --- ---- -- ------ ------<br>--- ----- -- ----,1479635.0999999978,1479634.5,1479087.409,1479091,1479094.395,1479645.998,,10,common
screen,html.Screen,2_1_0_1_11,2022-02-02T12:40:26.768Z,,,,,,,,,,,,,,,,,53,,,,,,,,,,,,,,404.30199999711476,,response,,,,99,,,,,,,Space,keypress(Space),,,,,,,,---- -- ----- -- ------ - ------- --- ----------<br>------------- ------ wisdom ---- ---- ------- ----- -- ----<br>-------- ------- -- ---------- --- - --- ----- ----- ----<br>---- --- --- ----- --- ---- ---- ------- ----- ---- -------<br>--- --- -- ----- -- --- ---- -- --- ---- -- ------ ------<br>--- ----- -- ----,1480050.799999997,1480050.299999997,1479629.08,1479635.299999997,1479645.998,1480052.733,,11,wisdom
screen,html.Screen,2_1_0_1_12,2022-02-02T12:40:27.376Z,,,,,,,,,,,,,,,,,53,,,,,,,,,,,,,,605.5669999970123,,response,,,,99,,,,,,,Space,keypress(Space),,,,,,,,---- -- ----- -- ------ - ------- --- ----------<br>------------- ------ ------ says ---- ------- ----- -- ----<br>-------- ------- -- ---------- --- - --- ----- ----- ----<br>---- --- --- ----- --- ---- ---- ------- ----- ---- -------<br>--- --- -- ----- -- --- ---- -- --- ---- -- ------ ------<br>--- ----- -- ----,1480658.8999999985,1480658.299999997,1480045.743,1480050.8999999985,1480052.733,1480663.835,,12,says
screen,html.Screen,2_1_0_1_13,2022-02-02T12:40:27.921Z,,,,,,,,,,,,,,,,,53,,,,,,,,,,,,,,538.5649999985471,,response,,,,99,,,,,,,Space,keypress(Space),,,,,,,,---- -- ----- -- ------ - ------- --- ----------<br>------------- ------ ------ ---- that ------- ----- -- ----<br>-------- ------- -- ---------- --- - --- ----- ----- ----<br>---- --- --- ----- --- ---- ---- ------- ----- ---- -------<br>--- --- -- ----- -- --- ---- -- --- ---- -- ------ ------<br>--- ----- -- ----,1481203,1481202.3999999985,1480656.836,1480659.0999999978,1480663.835,1481205.516,,13,that
screen,html.Screen,2_1_0_1_14,2022-02-02T12:40:28.304Z,,,,,,,,,,,,,,,,,53,,,,,,,,,,,,,,380.6839999991935,,response,,,,99,,,,,,,Space,keypress(Space),,,,,,,,---- -- ----- -- ------ - ------- --- ----------<br>------------- ------ ------ ---- ---- feeling ----- -- ----<br>-------- ------- -- ---------- --- - --- ----- ----- ----<br>---- --- --- ----- --- ---- ---- ------- ----- ---- -------<br>--- --- -- ----- -- --- ---- -- --- ---- -- ------ ------<br>--- ----- -- ----,1481586.8999999985,1481586.1999999993,1481198.487,1481203,1481205.516,1481596.338,,14,feeling
screen,html.Screen,2_1_0_1_15,2022-02-02T12:40:28.752Z,,,,,,,,,,,,,,,,,53,,,,,,,,,,,,,,438.06199999852106,,response,,,,99,,,,,,,Space,keypress(Space),,,,,,,,---- -- ----- -- ------ - ------- --- ----------<br>------------- ------ ------ ---- ---- ------- close -- ----<br>-------- ------- -- ---------- --- - --- ----- ----- ----<br>---- --- --- ----- --- ---- ---- ------- ----- ---- -------<br>--- --- -- ----- -- --- ---- -- --- ---- -- ------ ------<br>--- ----- -- ----,1482034.799999997,1482034.3999999985,1481580.448,1481587,1481596.338,1482038.793,,15,close
screen,html.Screen,2_1_0_1_16,2022-02-02T12:40:29.080Z,,,,,,,,,,,,,,,,,53,,,,,,,,,,,,,,323.50699999695644,,response,,,,99,,,,,,,Space,keypress(Space),,,,,,,,---- -- ----- -- ------ - ------- --- ----------<br>------------- ------ ------ ---- ---- ------- ----- to ----<br>-------- ------- -- ---------- --- - --- ----- ----- ----<br>---- --- --- ----- --- ---- ---- ------- ----- ---- -------<br>--- --- -- ----- -- --- ---- -- --- ---- -- ------ ------<br>--- ----- -- ----,1482362.6999999993,1482362.299999997,1482031.816,1482035,1482038.793,1482365.207,,16,to
screen,html.Screen,2_1_0_1_17,2022-02-02T12:40:29.497Z,,,,,,,,,,,,,,,,,53,,,,,,,,,,,,,,413.1929999985732,,response,,,,99,,,,,,,Space,keypress(Space),,,,,,,,---- -- ----- -- ------ - ------- --- ----------<br>------------- ------ ------ ---- ---- ------- ----- -- your<br>-------- ------- -- ---------- --- - --- ----- ----- ----<br>---- --- --- ----- --- ---- ---- ------- ----- ---- -------<br>--- --- -- ----- -- --- ---- -- --- ---- -- ------ ------<br>--- ----- -- ----,1482779.5,1482778.3999999985,1482358.211,1482362.6999999993,1482365.207,1482781.857,,17,your
screen,html.Screen,2_1_0_1_18,2022-02-02T12:40:30.137Z,,,,,,,,,,,,,,,,,53,,,,,,,,,,,,,,636.4429999969434,,response,,,,99,,,,,,,Space,keypress(Space),,,,,,,,---- -- ----- -- ------ - ------- --- ----------<br>------------- ------ ------ ---- ---- ------- ----- -- ----<br>romantic ------- -- ---------- --- - --- ----- ----- ----<br>---- --- --- ----- --- ---- ---- ------- ----- ---- -------<br>--- --- -- ----- -- --- ---- -- --- ---- -- ------ ------<br>--- ----- -- ----,1483419,1483418.299999997,1482774.865,1482779.5999999978,1482781.857,1483420.746,,18,romantic
screen,html.Screen,2_1_0_1_19,2022-02-02T12:40:30.520Z,,,,,,,,,,,,,,,,,53,,,,,,,,,,,,,,381.5539999969769,,response,,,,99,,,,,,,Space,keypress(Space),,,,,,,,---- -- ----- -- ------ - ------- --- ----------<br>------------- ------ ------ ---- ---- ------- ----- -- ----<br>-------- partner -- ---------- --- - --- ----- ----- ----<br>---- --- --- ----- --- ---- ---- ------- ----- ---- -------<br>--- --- -- ----- -- --- ---- -- --- ---- -- ------ ------<br>--- ----- -- ----,1483802.8999999985,1483802.299999997,1483413.724,1483419.0999999978,1483420.746,1483809.593,,19,partner
screen,html.Screen,2_1_0_1_20,2022-02-02T12:40:30.968Z,,,,,,,,,,,,,,,,,53,,,,,,,,,,,,,,440.7069999969099,,response,,,,99,,,,,,,Space,keypress(Space),,,,,,,,---- -- ----- -- ------ - ------- --- ----------<br>------------- ------ ------ ---- ---- ------- ----- -- ----<br>-------- ------- is ---------- --- - --- ----- ----- ----<br>---- --- --- ----- --- ---- ---- ------- ----- ---- -------<br>--- --- -- ----- -- --- ---- -- --- ---- -- ------ ------<br>--- ----- -- ----,1484250.8999999985,1484250.299999997,1483802.615,1483803,1483809.593,1484254.035,,20,is
screen,html.Screen,2_1_0_1_21,2022-02-02T12:40:32.313Z,,,,,,,,,,,,,,,,,53,,,,,,,,,,,,,,1340.3649999985937,,response,,,,99,,,,,,,Space,keypress(Space),,,,,,,,---- -- ----- -- ------ - ------- --- ----------<br>------------- ------ ------ ---- ---- ------- ----- -- ----<br>-------- ------- -- paramount. --- - --- ----- ----- ----<br>---- --- --- ----- --- ---- ---- ------- ----- ---- -------<br>--- --- -- ----- -- --- ---- -- --- ---- -- ------ ------<br>--- ----- -- ----,1485595.0999999978,1485594.3999999985,1484247.059,1484250.8999999985,1484254.035,1485601.21,,21,paramount.
screen,html.Screen,2_1_0_1_22,2022-02-02T12:40:32.728Z,,,,,,,,,,,,,,,,,53,,,,,,,,,,,,,,409.18999999854714,,response,,,,99,,,,,,,Space,keypress(Space),,,,,,,,---- -- ----- -- ------ - ------- --- ----------<br>------------- ------ ------ ---- ---- ------- ----- -- ----<br>-------- ------- -- ---------- But - --- ----- ----- ----<br>---- --- --- ----- --- ---- ---- ------- ----- ---- -------<br>--- --- -- ----- -- --- ---- -- --- ---- -- ------ ------<br>--- ----- -- ----,1486010.799999997,1486010.3999999985,1485594.202,1485595.1999999993,1485601.21,1486017.9,,22,But
screen,html.Screen,2_1_0_1_23,2022-02-02T12:40:33.048Z,,,,,,,,,,,,,,,,,53,,,,,,,,,,,,,,312.3999999971129,,response,,,,99,,,,,,,Space,keypress(Space),,,,,,,,---- -- ----- -- ------ - ------- --- ----------<br>------------- ------ ------ ---- ---- ------- ----- -- ----<br>-------- ------- -- ---------- --- a --- ----- ----- ----<br>---- --- --- ----- --- ---- ---- ------- ----- ---- -------<br>--- --- -- ----- -- --- ---- -- --- ---- -- ------ ------<br>--- ----- -- ----,1486330.6999999993,1486330.299999997,1486010.902,1486010.8999999985,1486017.9,1486337.321,,23,a
screen,html.Screen,2_1_0_1_24,2022-02-02T12:40:33.784Z,,,,,,,,,,,,,,,,,53,,,,,,,,,,,,,,728.9789999970235,,response,,,,99,,,,,,,Space,keypress(Space),,,,,,,,---- -- ----- -- ------ - ------- --- ----------<br>------------- ------ ------ ---- ---- ------- ----- -- ----<br>-------- ------- -- ---------- --- - new ----- ----- ----<br>---- --- --- ----- --- ---- ---- ------- ----- ---- -------<br>--- --- -- ----- -- --- ---- -- --- ---- -- ------ ------<br>--- ----- -- ----,1487066.8999999985,1487066.299999997,1486330.358,1486330.799999997,1486337.321,1487073.423,,24,new
screen,html.Screen,2_1_0_1_25,2022-02-02T12:40:34.777Z,,,,,,,,,,,,,,,,,53,,,,,,,,,,,,,,985.3769999970682,,response,,,,99,,,,,,,Space,keypress(Space),,,,,,,,---- -- ----- -- ------ - ------- --- ----------<br>------------- ------ ------ ---- ---- ------- ----- -- ----<br>-------- ------- -- ---------- --- - --- study ----- ----<br>---- --- --- ----- --- ---- ---- ------- ----- ---- -------<br>--- --- -- ----- -- --- ---- -- --- ---- -- ------ ------<br>--- ----- -- ----,1488059.5,1488058.799999997,1487066.435,1487067,1487073.423,1488066.449,,25,study
screen,html.Screen,2_1_0_1_26,2022-02-02T12:40:36.312Z,,,,,,,,,,,,,,,,,53,,,,,,,,,,,,,,1527.8509999969974,,response,,,,99,,,,,,,Space,keypress(Space),,,,,,,,---- -- ----- -- ------ - ------- --- ----------<br>------------- ------ ------ ---- ---- ------- ----- -- ----<br>-------- ------- -- ---------- --- - --- ----- finds ----<br>---- --- --- ----- --- ---- ---- ------- ----- ---- -------<br>--- --- -- ----- -- --- ---- -- --- ---- -- ------ ------<br>--- ----- -- ----,1489594.8999999985,1489594.299999997,1488059.461,1488059.5999999978,1488066.449,1489601.146,,26,finds
screen,html.Screen,2_1_0_1_27,2022-02-02T12:40:36.985Z,,,,,,,,,,,,,,,,,53,,,,,,,,,,,,,,665.1539999970701,,response,,,,99,,,,,,,Space,keypress(Space),,,,,,,,---- -- ----- -- ------ - ------- --- ----------<br>------------- ------ ------ ---- ---- ------- ----- -- ----<br>-------- ------- -- ---------- --- - --- ----- ----- that<br>---- --- --- ----- --- ---- ---- ------- ----- ---- -------<br>--- --- -- ----- -- --- ---- -- --- ---- -- ------ ------<br>--- ----- -- ----,1490266.8999999985,1490266.299999997,1489594.13,1489595.0999999978,1489601.146,1490287.66,,27,that
screen,html.Screen,2_1_0_1_28,2022-02-02T12:40:37.497Z,,,,,,,,,,,,,,,,,53,,,,,,,,,,,,,,490.7399999985937,,response,,,,99,,,,,,,Space,keypress(Space),,,,,,,,---- -- ----- -- ------ - ------- --- ----------<br>------------- ------ ------ ---- ---- ------- ----- -- ----<br>-------- ------- -- ---------- --- - --- ----- ----- ----<br>it's --- --- ----- --- ---- ---- ------- ----- ---- -------<br>--- --- -- ----- -- --- ---- -- --- ---- -- ------ ------<br>--- ----- -- ----,1490778.8999999985,1490778.3999999985,1490260.811,1490267,1490287.66,1490781.697,,28,it's
screen,html.Screen,2_1_0_1_29,2022-02-02T12:40:37.848Z,,,,,,,,,,,,,,,,,53,,,,,,,,,,,,,,348.5029999993276,,response,,,,99,,,,,,,Space,keypress(Space),,,,,,,,---- -- ----- -- ------ - ------- --- ----------<br>------------- ------ ------ ---- ---- ------- ----- -- ----<br>-------- ------- -- ---------- --- - --- ----- ----- ----<br>---- not --- ----- --- ---- ---- ------- ----- ---- -------<br>--- --- -- ----- -- --- ---- -- --- ---- -- ------ ------<br>--- ----- -- ----,1491130.799999997,1491130.1999999993,1490774.701,1490779,1490781.697,1491135.833,,29,not
screen,html.Screen,2_1_0_1_30,2022-02-02T12:40:38.232Z,,,,,,,,,,,,,,,,,53,,,,,,,,,,,,,,378.4669999969192,,response,,,,99,,,,,,,Space,keypress(Space),,,,,,,,---- -- ----- -- ------ - ------- --- ----------<br>------------- ------ ------ ---- ---- ------- ----- -- ----<br>-------- ------- -- ---------- --- - --- ----- ----- ----<br>---- --- how ----- --- ---- ---- ------- ----- ---- -------<br>--- --- -- ----- -- --- ---- -- --- ---- -- ------ ------<br>--- ----- -- ----,1491514.8999999985,1491514.299999997,1491128.867,1491130.799999997,1491135.833,1491517.838,,30,how
screen,html.Screen,2_1_0_1_31,2022-02-02T12:40:38.841Z,,,,,,,,,,,,,,,,,53,,,,,,,,,,,,,,604.5619999985211,,response,,,,99,,,,,,,Space,keypress(Space),,,,,,,,---- -- ----- -- ------ - ------- --- ----------<br>------------- ------ ------ ---- ---- ------- ----- -- ----<br>-------- ------- -- ---------- --- - --- ----- ----- ----<br>---- --- --- close --- ---- ---- ------- ----- ---- -------<br>--- --- -- ----- -- --- ---- -- --- ---- -- ------ ------<br>--- ----- -- ----,1492123,1492122.3999999985,1491510.81,1491514.8999999985,1491517.838,1492128.897,,31,close
screen,html.Screen,2_1_0_1_32,2022-02-02T12:40:39.512Z,,,,,,,,,,,,,,,,,53,,,,,,,,,,,,,,665.3029999991413,,response,,,,99,,,,,,,Space,keypress(Space),,,,,,,,---- -- ----- -- ------ - ------- --- ----------<br>------------- ------ ------ ---- ---- ------- ----- -- ----<br>-------- ------- -- ---------- --- - --- ----- ----- ----<br>---- --- --- ----- you ---- ---- ------- ----- ---- -------<br>--- --- -- ----- -- --- ---- -- --- ---- -- ------ ------<br>--- ----- -- ----,1492794.6999999993,1492794.1999999993,1492121.886,1492123,1492128.897,1492814.408,,32,you
screen,html.Screen,2_1_0_1_33,2022-02-02T12:40:39.961Z,,,,,,,,,,,,,,,,,53,,,,,,,,,,,,,,427.99199999845587,,response,,,,99,,,,,,,Space,keypress(Space),,,,,,,,---- -- ----- -- ------ - ------- --- ----------<br>------------- ------ ------ ---- ---- ------- ----- -- ----<br>-------- ------- -- ---------- --- - --- ----- ----- ----<br>---- --- --- ----- --- feel ---- ------- ----- ---- -------<br>--- --- -- ----- -- --- ---- -- --- ---- -- ------ ------<br>--- ----- -- ----,1493243,1493242.3999999985,1492788.551,1492794.6999999993,1492814.408,1493246.909,,33,feel
screen,html.Screen,2_1_0_1_34,2022-02-02T12:40:40.536Z,,,,,,,,,,,,,,,,,53,,,,,,,,,,,,,,571.3909999970347,,response,,,,99,,,,,,,Space,keypress(Space),,,,,,,,---- -- ----- -- ------ - ------- --- ----------<br>------------- ------ ------ ---- ---- ------- ----- -- ----<br>-------- ------- -- ---------- --- - --- ----- ----- ----<br>---- --- --- ----- --- ---- that ------- ----- ---- -------<br>--- --- -- ----- -- --- ---- -- --- ---- -- ------ ------<br>--- ----- -- ----,1493818.6999999993,1493818.299999997,1493239.928,1493243.0999999978,1493246.909,1493823.286,,34,that
screen,html.Screen,2_1_0_1_35,2022-02-02T12:40:40.824Z,,,,,,,,,,,,,,,,,53,,,,,,,,,,,,,,283.0139999969397,,response,,,,99,,,,,,,Space,keypress(Space),,,,,,,,---- -- ----- -- ------ - ------- --- ----------<br>------------- ------ ------ ---- ---- ------- ----- -- ----<br>-------- ------- -- ---------- --- - --- ----- ----- ----<br>---- --- --- ----- --- ---- ---- matters ----- ---- -------<br>--- --- -- ----- -- --- ---- -- --- ---- -- ------ ------<br>--- ----- -- ----,1494106.799999997,1494106.299999997,1493816.318,1493818.799999997,1493823.286,1494129.84,,35,matters
screen,html.Screen,2_1_0_1_36,2022-02-02T12:40:41.528Z,,,,,,,,,,,,,,,,,53,,,,,,,,,,,,,,680.459999996936,,response,,,,99,,,,,,,Space,keypress(Space),,,,,,,,"---- -- ----- -- ------ - ------- --- ----------<br>------------- ------ ------ ---- ---- ------- ----- -- ----<br>-------- ------- -- ---------- --- - --- ----- ----- ----<br>---- --- --- ----- --- ---- ---- ------- most, ---- -------<br>--- --- -- ----- -- --- ---- -- --- ---- -- ------ ------<br>--- ----- -- ----",1494810.8999999985,1494810.299999997,1494101.03,1494106.8999999985,1494129.84,1494816.307,,36,"most,"
screen,html.Screen,2_1_0_1_37,2022-02-02T12:40:41.976Z,,,,,,,,,,,,,,,,,53,,,,,,,,,,,,,,441.99299999698997,,response,,,,99,,,,,,,Space,keypress(Space),,,,,,,,---- -- ----- -- ------ - ------- --- ----------<br>------------- ------ ------ ---- ---- ------- ----- -- ----<br>-------- ------- -- ---------- --- - --- ----- ----- ----<br>---- --- --- ----- --- ---- ---- ------- ----- it's -------<br>--- --- -- ----- -- --- ---- -- --- ---- -- ------ ------<br>--- ----- -- ----,1495258.8999999985,1495258.299999997,1494809.331,1494811,1494816.307,1495260.781,,37,it's
screen,html.Screen,2_1_0_1_38,2022-02-02T12:40:42.680Z,,,,,,,,,,,,,,,,,53,,,,,,,,,,,,,,701.6189999985509,,response,,,,99,,,,,,,Space,keypress(Space),,,,,,,,---- -- ----- -- ------ - ------- --- ----------<br>------------- ------ ------ ---- ---- ------- ----- -- ----<br>-------- ------- -- ---------- --- - --- ----- ----- ----<br>---- --- --- ----- --- ---- ---- ------- ----- ---- whether<br>--- --- -- ----- -- --- ---- -- --- ---- -- ------ ------<br>--- ----- -- ----,1495962.8999999985,1495962.3999999985,1495253.781,1495258.8999999985,1495260.781,1495969.082,,38,whether
screen,html.Screen,2_1_0_1_39,2022-02-02T12:40:45.113Z,,,,,,,,,,,,,,,,,53,,,,,,,,,,,,,,2425.6179999993183,,response,,,,99,,,,,,,Space,keypress(Space),,,,,,,,---- -- ----- -- ------ - ------- --- ----------<br>------------- ------ ------ ---- ---- ------- ----- -- ----<br>-------- ------- -- ---------- --- - --- ----- ----- ----<br>---- --- --- ----- --- ---- ---- ------- ----- ---- -------<br>you --- -- ----- -- --- ---- -- --- ---- -- ------ ------<br>--- ----- -- ----,1498395.1999999993,1498394.6999999993,1495962.094,1495963,1495969.082,1498399.637,,39,you
screen,html.Screen,2_1_0_1_40,2022-02-02T12:40:45.656Z,,,,,,,,,,,,,,,,,53,,,,,,,,,,,,,,538.6629999969155,,response,,,,99,,,,,,,Space,keypress(Space),,,,,,,,---- -- ----- -- ------ - ------- --- ----------<br>------------- ------ ------ ---- ---- ------- ----- -- ----<br>-------- ------- -- ---------- --- - --- ----- ----- ----<br>---- --- --- ----- --- ---- ---- ------- ----- ---- -------<br>--- are -- ----- -- --- ---- -- --- ---- -- ------ ------<br>--- ----- -- ----,1498938.799999997,1498938.299999997,1498392.538,1498395.3999999985,1498399.637,1498941.261,,40,are
screen,html.Screen,2_1_0_1_41,2022-02-02T12:40:46.201Z,,,,,,,,,,,,,,,,,53,,,,,,,,,,,,,,541.1389999985695,,response,,,,99,,,,,,,Space,keypress(Space),,,,,,,,---- -- ----- -- ------ - ------- --- ----------<br>------------- ------ ------ ---- ---- ------- ----- -- ----<br>-------- ------- -- ---------- --- - --- ----- ----- ----<br>---- --- --- ----- --- ---- ---- ------- ----- ---- -------<br>--- --- as ----- -- --- ---- -- --- ---- -- ------ ------<br>--- ----- -- ----,1499482.8999999985,1499482.3999999985,1498934.275,1498938.799999997,1498941.261,1499489.85,,41,as
screen,html.Screen,2_1_0_1_42,2022-02-02T12:40:46.649Z,,,,,,,,,,,,,,,,,53,,,,,,,,,,,,,,440.54999999841675,,response,,,,99,,,,,,,Space,keypress(Space),,,,,,,,---- -- ----- -- ------ - ------- --- ----------<br>------------- ------ ------ ---- ---- ------- ----- -- ----<br>-------- ------- -- ---------- --- - --- ----- ----- ----<br>---- --- --- ----- --- ---- ---- ------- ----- ---- -------<br>--- --- -- close -- --- ---- -- --- ---- -- ------ ------<br>--- ----- -- ----,1499931,1499930.3999999985,1499482.858,1499483.0999999978,1499489.85,1499934.27,,42,close
screen,html.Screen,2_1_0_1_43,2022-02-02T12:40:47.065Z,,,,,,,,,,,,,,,,,53,,,,,,,,,,,,,,412.12999999849126,,response,,,,99,,,,,,,Space,keypress(Space),,,,,,,,---- -- ----- -- ------ - ------- --- ----------<br>------------- ------ ------ ---- ---- ------- ----- -- ----<br>-------- ------- -- ---------- --- - --- ----- ----- ----<br>---- --- --- ----- --- ---- ---- ------- ----- ---- -------<br>--- --- -- ----- as --- ---- -- --- ---- -- ------ ------<br>--- ----- -- ----,1500347.0999999978,1500346.3999999985,1499927.319,1499931.0999999978,1499934.27,1500351.013,,43,as
screen,html.Screen,2_1_0_1_44,2022-02-02T12:40:47.520Z,,,,,,,,,,,,,,,,,53,,,,,,,,,,,,,,451.2869999969844,,response,,,,99,,,,,,,Space,keypress(Space),,,,,,,,---- -- ----- -- ------ - ------- --- ----------<br>------------- ------ ------ ---- ---- ------- ----- -- ----<br>-------- ------- -- ---------- --- - --- ----- ----- ----<br>---- --- --- ----- --- ---- ---- ------- ----- ---- -------<br>--- --- -- ----- -- you ---- -- --- ---- -- ------ ------<br>--- ----- -- ----,1500802.5999999978,1500802.299999997,1500343.974,1500347.5,1500351.013,1500809.262,,44,you
screen,html.Screen,2_1_0_1_45,2022-02-02T12:40:47.904Z,,,,,,,,,,,,,,,,,53,,,,,,,,,,,,,,377.03799999691546,,response,,,,99,,,,,,,Space,keypress(Space),,,,,,,,---- -- ----- -- ------ - ------- --- ----------<br>------------- ------ ------ ---- ---- ------- ----- -- ----<br>-------- ------- -- ---------- --- - --- ----- ----- ----<br>---- --- --- ----- --- ---- ---- ------- ----- ---- -------<br>--- --- -- ----- -- --- want -- --- ---- -- ------ ------<br>--- ----- -- ----,1501186.6999999993,1501186.299999997,1500802.292,1500802.799999997,1500809.262,1501191.21,,45,want
screen,html.Screen,2_1_0_1_46,2022-02-02T12:40:48.288Z,,,,,,,,,,,,,,,,,53,,,,,,,,,,,,,,378.9899999992922,,response,,,,99,,,,,,,Space,keypress(Space),,,,,,,,---- -- ----- -- ------ - ------- --- ----------<br>------------- ------ ------ ---- ---- ------- ----- -- ----<br>-------- ------- -- ---------- --- - --- ----- ----- ----<br>---- --- --- ----- --- ---- ---- ------- ----- ---- -------<br>--- --- -- ----- -- --- ---- to --- ---- -- ------ ------<br>--- ----- -- ----,1501570.799999997,1501570.1999999993,1501184.222,1501186.8999999985,1501191.21,1501573.253,,46,to
screen,html.Screen,2_1_0_1_47,2022-02-02T12:40:48.704Z,,,,,,,,,,,,,,,,,53,,,,,,,,,,,,,,413.1469999984838,,response,,,,99,,,,,,,Space,keypress(Space),,,,,,,,"---- -- ----- -- ------ - ------- --- ----------<br>------------- ------ ------ ---- ---- ------- ----- -- ----<br>-------- ------- -- ---------- --- - --- ----- ----- ----<br>---- --- --- ----- --- ---- ---- ------- ----- ---- -------<br>--- --- -- ----- -- --- ---- -- be, ---- -- ------ ------<br>--- ----- -- ----",1501986.799999997,1501986.3999999985,1501566.177,1501570.8999999985,1501573.253,1501989.924,,47,"be,"
screen,html.Screen,2_1_0_1_48,2022-02-02T12:40:49.119Z,,,,,,,,,,,,,,,,,53,,,,,,,,,,,,,,412.3759999969043,,response,,,,99,,,,,,,Space,keypress(Space),,,,,,,,---- -- ----- -- ------ - ------- --- ----------<br>------------- ------ ------ ---- ---- ------- ----- -- ----<br>-------- ------- -- ---------- --- - --- ----- ----- ----<br>---- --- --- ----- --- ---- ---- ------- ----- ---- -------<br>--- --- -- ----- -- --- ---- -- --- even -- ------ ------<br>--- ----- -- ----,1502402.6999999993,1502402.299999997,1501982.833,1501987,1501989.924,1502406.438,,48,even
screen,html.Screen,2_1_0_1_49,2022-02-02T12:40:49.568Z,,,,,,,,,,,,,,,,,53,,,,,,,,,,,,,,443.9619999984279,,response,,,,99,,,,,,,Space,keypress(Space),,,,,,,,---- -- ----- -- ------ - ------- --- ----------<br>------------- ------ ------ ---- ---- ------- ----- -- ----<br>-------- ------- -- ---------- --- - --- ----- ----- ----<br>---- --- --- ----- --- ---- ---- ------- ----- ---- -------<br>--- --- -- ----- -- --- ---- -- --- ---- if ------ ------<br>--- ----- -- ----,1502851,1502850.3999999985,1502399.492,1502402.8999999985,1502406.438,1502857.817,,49,if
screen,html.Screen,2_1_0_1_50,2022-02-02T12:40:49.983Z,,,,,,,,,,,,,,,,,53,,,,,,,,,,,,,,408.3829999992158,,response,,,,99,,,,,,,Space,keypress(Space),,,,,,,,---- -- ----- -- ------ - ------- --- ----------<br>------------- ------ ------ ---- ---- ------- ----- -- ----<br>-------- ------- -- ---------- --- - --- ----- ----- ----<br>---- --- --- ----- --- ---- ---- ------- ----- ---- -------<br>--- --- -- ----- -- --- ---- -- --- ---- -- that's ------<br>--- ----- -- ----,1503266.6999999993,1503266.1999999993,1502850.858,1502851.0999999978,1502857.817,1503276.474,,50,that's
screen,html.Screen,2_1_0_1_51,2022-02-02T12:40:50.592Z,,,,,,,,,,,,,,,,,53,,,,,,,,,,,,,,597.9259999985807,,response,,,,99,,,,,,,Space,keypress(Space),,,,,,,,---- -- ----- -- ------ - ------- --- ----------<br>------------- ------ ------ ---- ---- ------- ----- -- ----<br>-------- ------- -- ---------- --- - --- ----- ----- ----<br>---- --- --- ----- --- ---- ---- ------- ----- ---- -------<br>--- --- -- ----- -- --- ---- -- --- ---- -- ------ really<br>--- ----- -- ----,1503875,1503874.3999999985,1503260.571,1503266.799999997,1503276.474,1503878.646,,51,really
screen,html.Screen,2_1_0_1_52,2022-02-02T12:40:51.104Z,,,,,,,,,,,,,,,,,53,,,,,,,,,,,,,,507.7539999985602,,response,,,,99,,,,,,,Space,keypress(Space),,,,,,,,---- -- ----- -- ------ - ------- --- ----------<br>------------- ------ ------ ---- ---- ------- ----- -- ----<br>-------- ------- -- ---------- --- - --- ----- ----- ----<br>---- --- --- ----- --- ---- ---- ------- ----- ---- -------<br>--- --- -- ----- -- --- ---- -- --- ---- -- ------ ------<br>not ----- -- ----,1504386.8999999985,1504386.3999999985,1503871.668,1503875.0999999978,1503878.646,1504392.538,,52,not
screen,html.Screen,2_1_0_1_53,2022-02-02T12:40:51.616Z,,,,,,,,,,,,,,,,,53,,,,,,,,,,,,,,505.7619999970775,,response,,,,99,,,,,,,Space,keypress(Space),,,,,,,,---- -- ----- -- ------ - ------- --- ----------<br>------------- ------ ------ ---- ---- ------- ----- -- ----<br>-------- ------- -- ---------- --- - --- ----- ----- ----<br>---- --- --- ----- --- ---- ---- ------- ----- ---- -------<br>--- --- -- ----- -- --- ---- -- --- ---- -- ------ ------<br>--- close -- ----,1504898.8999999985,1504898.299999997,1504385.559,1504387,1504392.538,1504920.284,,53,close
screen,html.Screen,2_1_0_1_54,2022-02-02T12:40:52.128Z,,,,,,,,,,,,,,,,,53,,,,,,,,,,,,,,490.1159999985248,,response,,,,99,,,,,,,Space,keypress(Space),,,,,,,,---- -- ----- -- ------ - ------- --- ----------<br>------------- ------ ------ ---- ---- ------- ----- -- ----<br>-------- ------- -- ---------- --- - --- ----- ----- ----<br>---- --- --- ----- --- ---- ---- ------- ----- ---- -------<br>--- --- -- ----- -- --- ---- -- --- ---- -- ------ ------<br>--- ----- at ----,1505410.799999997,1505410.3999999985,1504917.326,1504899,1504920.284,1505413.403,,54,at
screen,html.Screen,2_1_0_1_55,2022-02-02T12:40:52.639Z,,,,,,,,,,,,,,,,,53,,,,,,,,,,,,,,508.8969999970868,,response,,,,99,,,,,,,Space,keypress(Space),,,,,,,,---- -- ----- -- ------ - ------- --- ----------<br>------------- ------ ------ ---- ---- ------- ----- -- ----<br>-------- ------- -- ---------- --- - --- ----- ----- ----<br>---- --- --- ----- --- ---- ---- ------- ----- ---- -------<br>--- --- -- ----- -- --- ---- -- --- ---- -- ------ ------<br>--- ----- -- all.,1505922.6999999993,1505922.299999997,1505406.363,1505410.8999999985,1505413.403,1505927.246,,55,all.
Item 99,flow.Loop,2_1_0_1,2022-02-02T12:40:52.640Z,,,,,,,,,,,,,,,,,,,,,,,,,,,,,,,32202.780999996932,,completion,,,,,A,,,,,,,,,,,silence,,,,,1505922.8999999985,1505922.299999997,1473712.549,1473712.8999999985,1473719.519,1505927.246,,,
Question 1,html.Screen,2_1_0_2,2022-02-02T12:40:55.992Z,,,,,,,,,,,,,,,,,,,,,,,,,,,,true,FALSE,,3346.853999997722,,response,,,,99,A,,,,,,FALSE,click #choice-2,,,,silence,,,,,1509275,1509274.0999999978,1505920.238,1505923,1505927.246,1509281.31,,,
Question 2,html.Screen,2_1_0_3,2022-02-02T12:41:04.197Z,,,,,,,,,,,,,,,,,,,,,,,,,,,,true,TRUE,,8198.689999999944,,response,,,,99,A,,,,,,TRUE,click #choice-1,,,,silence,,,,,1517480.5999999978,1517480,1509274.383,1509275,1509281.31,1517482.584,,,
Item 99,flow.Sequence,2_1_0,2022-02-02T12:41:04.197Z,,,,,,,,,,,,,,,,,,,,,,,,,,,,,,,53760.26399999997,,completion,,,,,,,,,,,,,,,,,,,,,1517480.6999999993,1517480,1463712.746,1463716.3999999985,1463719.736,1517482.584,,,
Holding screen,html.Screen,2_1_1_0,2022-02-02T12:41:14.192Z,,,,,,,,,,,,,,,,,,,,,,,,,,,,,,,9999.811999999918,,timeout,,,,,,,,,,,,,,,,,,,,,1527475.6999999993,1527475.416,1517475.591,1517480.8999999985,1517482.584,1527482.396,,,
screen,html.Screen,2_1_1_1_0,2022-02-02T12:41:15.848Z,,,,,,,,,,,,,,,,,54,,,,,,,,,,,,,,1648.2039999978151,,response,,,,100,,,,,,,Space,keypress(Space),,,,,,,,At --- ---- --- ------ ----- ------- ---- -- --- ------- --<br>------- ---------- ------ -- ----- -- ----- -- ---- ------<br>--- ----- --- --- ------ -------- ----- --- ------ ----- --<br>----- ----- ---------- --- --- ------ ------ ---- -- ------<br>------- --- ------ ----- --- ---- ------- -- ---- --- --<br>------- ------,1529131.1999999993,1529130.5999999978,1527475.416,1527475.799999997,1527482.396,1529135.089,,0,At
screen,html.Screen,2_1_1_1_1,2022-02-02T12:41:16.584Z,,,,,,,,,,,,,,,,,54,,,,,,,,,,,,,,731.2109999970999,,response,,,,100,,,,,,,Space,keypress(Space),,,,,,,,-- the ---- --- ------ ----- ------- ---- -- --- ------- --<br>------- ---------- ------ -- ----- -- ----- -- ---- ------<br>--- ----- --- --- ------ -------- ----- --- ------ ----- --<br>----- ----- ---------- --- --- ------ ------ ---- -- ------<br>------- --- ------ ----- --- ---- ------- -- ---- --- --<br>------- ------,1529866.8999999985,1529866.299999997,1529128.096,1529131.1999999993,1529135.089,1529871.215,,1,the
screen,html.Screen,2_1_1_1_2,2022-02-02T12:41:17.064Z,,,,,,,,,,,,,,,,,54,,,,,,,,,,,,,,475.08499999693595,,response,,,,100,,,,,,,Space,keypress(Space),,,,,,,,-- --- time --- ------ ----- ------- ---- -- --- ------- --<br>------- ---------- ------ -- ----- -- ----- -- ---- ------<br>--- ----- --- --- ------ -------- ----- --- ------ ----- --<br>----- ----- ---------- --- --- ------ ------ ---- -- ------<br>------- --- ------ ----- --- ---- ------- -- ---- --- --<br>------- ------,1530346.8999999985,1530346.299999997,1529864.215,1529867,1529871.215,1530350.349,,2,time
screen,html.Screen,2_1_1_1_3,2022-02-02T12:41:17.736Z,,,,,,,,,,,,,,,,,54,,,,,,,,,,,,,,668.0509999985807,,response,,,,100,,,,,,,Space,keypress(Space),,,,,,,,-- --- ---- the ------ ----- ------- ---- -- --- ------- --<br>------- ---------- ------ -- ----- -- ----- -- ---- ------<br>--- ----- --- --- ------ -------- ----- --- ------ ----- --<br>----- ----- ---------- --- --- ------ ------ ---- -- ------<br>------- --- ------ ----- --- ---- ------- -- ---- --- --<br>------- ------,1531019,1531018.3999999985,1530343.398,1530346.8999999985,1530350.349,1531023.961,,3,the
screen,html.Screen,2_1_1_1_4,2022-02-02T12:41:18.087Z,,,,,,,,,,,,,,,,,54,,,,,,,,,,,,,,346.33899999712594,,response,,,,100,,,,,,,Space,keypress(Space),,,,,,,,-- --- ---- --- French ----- ------- ---- -- --- ------- --<br>------- ---------- ------ -- ----- -- ----- -- ---- ------<br>--- ----- --- --- ------ -------- ----- --- ------ ----- --<br>----- ----- ---------- --- --- ------ ------ ---- -- ------<br>------- --- ------ ----- --- ---- ------- -- ---- --- --<br>------- ------,1531370.6999999993,1531370.299999997,1531016.976,1531019.0999999978,1531023.961,1531390.132,,4,French
screen,html.Screen,2_1_1_1_5,2022-02-02T12:41:18.536Z,,,,,,,,,,,,,,,,,54,,,,,,,,,,,,,,428.16799999703653,,response,,,,100,,,,,,,Space,keypress(Space),,,,,,,,-- --- ---- --- ------ crown ------- ---- -- --- ------- --<br>------- ---------- ------ -- ----- -- ----- -- ---- ------<br>--- ----- --- --- ------ -------- ----- --- ------ ----- --<br>----- ----- ---------- --- --- ------ ------ ---- -- ------<br>------- --- ------ ----- --- ---- ------- -- ---- --- --<br>------- ------,1531818.799999997,1531818.299999997,1531364.217,1531370.799999997,1531390.132,1531822.577,,5,crown
screen,html.Screen,2_1_1_1_6,2022-02-02T12:41:19.111Z,,,,,,,,,,,,,,,,,54,,,,,,,,,,,,,,571.7229999969713,,response,,,,100,,,,,,,Space,keypress(Space),,,,,,,,-- --- ---- --- ------ ----- secured ---- -- --- ------- --<br>------- ---------- ------ -- ----- -- ----- -- ---- ------<br>--- ----- --- --- ------ -------- ----- --- ------ ----- --<br>----- ----- ---------- --- --- ------ ------ ---- -- ------<br>------- --- ------ ----- --- ---- ------- -- ---- --- --<br>------- ------,1532394.799999997,1532394.299999997,1531815.608,1531819,1531822.577,1532398.937,,6,secured
screen,html.Screen,2_1_1_1_7,2022-02-02T12:41:19.592Z,,,,,,,,,,,,,,,,,54,,,,,,,,,,,,,,475.3629999971017,,response,,,,100,,,,,,,Space,keypress(Space),,,,,,,,-- --- ---- --- ------ ----- ------- much -- --- ------- --<br>------- ---------- ------ -- ----- -- ----- -- ---- ------<br>--- ----- --- --- ------ -------- ----- --- ------ ----- --<br>----- ----- ---------- --- --- ------ ------ ---- -- ------<br>------- --- ------ ----- --- ---- ------- -- ---- --- --<br>------- ------,1532874.8999999985,1532874.299999997,1532391.954,1532394.799999997,1532398.937,1532878.098,,7,much
screen,html.Screen,2_1_1_1_8,2022-02-02T12:41:20.039Z,,,,,,,,,,,,,,,,,54,,,,,,,,,,,,,,444.20199999702163,,response,,,,100,,,,,,,Space,keypress(Space),,,,,,,,-- --- ---- --- ------ ----- ------- ---- of --- ------- --<br>------- ---------- ------ -- ----- -- ----- -- ---- ------<br>--- ----- --- --- ------ -------- ----- --- ------ ----- --<br>----- ----- ---------- --- --- ------ ------ ---- -- ------<br>------- --- ------ ----- --- ---- ------- -- ---- --- --<br>------- ------,1533322.6999999993,1533322.299999997,1532871.117,1532874.8999999985,1532878.098,1533329.463,,8,of
screen,html.Screen,2_1_1_1_9,2022-02-02T12:41:20.487Z,,,,,,,,,,,,,,,,,54,,,,,,,,,,,,,,440.93699999852106,,response,,,,100,,,,,,,Space,keypress(Space),,,,,,,,-- --- ---- --- ------ ----- ------- ---- -- its ------- --<br>------- ---------- ------ -- ----- -- ----- -- ---- ------<br>--- ----- --- --- ------ -------- ----- --- ------ ----- --<br>----- ----- ---------- --- --- ------ ------ ---- -- ------<br>------- --- ------ ----- --- ---- ------- -- ---- --- --<br>------- ------,1533770.799999997,1533770.3999999985,1533322.508,1533322.799999997,1533329.463,1533773.907,,9,its
screen,html.Screen,2_1_1_1_10,2022-02-02T12:41:21.192Z,,,,,,,,,,,,,,,,,54,,,,,,,,,,,,,,700.4929999986198,,response,,,,100,,,,,,,Space,keypress(Space),,,,,,,,-- --- ---- --- ------ ----- ------- ---- -- --- revenue --<br>------- ---------- ------ -- ----- -- ----- -- ---- ------<br>--- ----- --- --- ------ -------- ----- --- ------ ----- --<br>----- ----- ---------- --- --- ------ ------ ---- -- ------<br>------- --- ------ ----- --- ---- ------- -- ---- --- --<br>------- ------,1534475,1534474.3999999985,1533766.93,1533770.799999997,1533773.907,1534482.235,,10,revenue
screen,html.Screen,2_1_1_1_11,2022-02-02T12:41:21.607Z,,,,,,,,,,,,,,,,,54,,,,,,,,,,,,,,408.0649999969173,,response,,,,100,,,,,,,Space,keypress(Space),,,,,,,,-- --- ---- --- ------ ----- ------- ---- -- --- ------- by<br>------- ---------- ------ -- ----- -- ----- -- ---- ------<br>--- ----- --- --- ------ -------- ----- --- ------ ----- --<br>----- ----- ---------- --- --- ------ ------ ---- -- ------<br>------- --- ------ ----- --- ---- ------- -- ---- --- --<br>------- ------,1534890.799999997,1534890.299999997,1534475.239,1534475.1999999993,1534482.235,1534902.165,,11,by
screen,html.Screen,2_1_1_1_12,2022-02-02T12:41:22.183Z,,,,,,,,,,,,,,,,,54,,,,,,,,,,,,,,564.1349999969825,,response,,,,100,,,,,,,Space,keypress(Space),,,,,,,,-- --- ---- --- ------ ----- ------- ---- -- --- ------- --<br>issuing ---------- ------ -- ----- -- ----- -- ---- ------<br>--- ----- --- --- ------ -------- ----- --- ------ ----- --<br>----- ----- ---------- --- --- ------ ------ ---- -- ------<br>------- --- ------ ----- --- ---- ------- -- ---- --- --<br>------- ------,1535466.6999999993,1535466.299999997,1534884.972,1534890.8999999985,1534902.165,1535468.346,,12,issuing
screen,html.Screen,2_1_1_1_13,2022-02-02T12:41:22.791Z,,,,,,,,,,,,,,,,,54,,,,,,,,,,,,,,605.9539999971166,,response,,,,100,,,,,,,Space,keypress(Space),,,,,,,,-- --- ---- --- ------ ----- ------- ---- -- --- ------- --<br>------- government ------ -- ----- -- ----- -- ---- ------<br>--- ----- --- --- ------ -------- ----- --- ------ ----- --<br>----- ----- ---------- --- --- ------ ------ ---- -- ------<br>------- --- ------ ----- --- ---- ------- -- ---- --- --<br>------- ------,1536074.6999999993,1536074.299999997,1535461.395,1535466.799999997,1535468.346,1536079.427,,13,government
screen,html.Screen,2_1_1_1_14,2022-02-02T12:41:24.136Z,,,,,,,,,,,,,,,,,54,,,,,,,,,,,,,,1338.872999997111,,response,,,,100,,,,,,,Space,keypress(Space),,,,,,,,-- --- ---- --- ------ ----- ------- ---- -- --- ------- --<br>------- ---------- bonds. -- ----- -- ----- -- ---- ------<br>--- ----- --- --- ------ -------- ----- --- ------ ----- --<br>----- ----- ---------- --- --- ------ ------ ---- -- ------<br>------- --- ------ ----- --- ---- ------- -- ---- --- --<br>------- ------,1537418.8999999985,1537418.299999997,1536072.434,1536074.799999997,1536079.427,1537441.493,,14,bonds.
screen,html.Screen,2_1_1_1_15,2022-02-02T12:41:24.776Z,,,,,,,,,,,,,,,,,54,,,,,,,,,,,,,,616.806999997003,,response,,,,100,,,,,,,Space,keypress(Space),,,,,,,,-- --- ---- --- ------ ----- ------- ---- -- --- ------- --<br>------- ---------- ------ In ----- -- ----- -- ---- ------<br>--- ----- --- --- ------ -------- ----- --- ------ ----- --<br>----- ----- ---------- --- --- ------ ------ ---- -- ------<br>------- --- ------ ----- --- ---- ------- -- ---- --- --<br>------- ------,1538058.8999999985,1538058.299999997,1537412.655,1537419,1537441.493,1538065.499,,15,In
screen,html.Screen,2_1_1_1_16,2022-02-02T12:41:25.479Z,,,,,,,,,,,,,,,,,54,,,,,,,,,,,,,,696.8009999969508,,response,,,,100,,,,,,,Space,keypress(Space),,,,,,,,"-- --- ---- --- ------ ----- ------- ---- -- --- ------- --<br>------- ---------- ------ -- 1727, -- ----- -- ---- ------<br>--- ----- --- --- ------ -------- ----- --- ------ ----- --<br>----- ----- ---------- --- --- ------ ------ ---- -- ------<br>------- --- ------ ----- --- ---- ------- -- ---- --- --<br>------- ------",1538762.6999999993,1538762.299999997,1538058.526,1538059,1538065.499,1538766.889,,16,"1727,"
screen,html.Screen,2_1_1_1_17,2022-02-02T12:41:26.056Z,,,,,,,,,,,,,,,,,54,,,,,,,,,,,,,,571.8109999992885,,response,,,,100,,,,,,,Space,keypress(Space),,,,,,,,-- --- ---- --- ------ ----- ------- ---- -- --- ------- --<br>------- ---------- ------ -- ----- in ----- -- ---- ------<br>--- ----- --- --- ------ -------- ----- --- ------ ----- --<br>----- ----- ---------- --- --- ------ ------ ---- -- ------<br>------- --- ------ ----- --- ---- ------- -- ---- --- --<br>------- ------,1539339.299999997,1539338.6999999993,1538759.892,1538762.799999997,1538766.889,1539343.245,,17,in
screen,html.Screen,2_1_1_1_18,2022-02-02T12:41:26.696Z,,,,,,,,,,,,,,,,,54,,,,,,,,,,,,,,635.1549999983981,,response,,,,100,,,,,,,Space,keypress(Space),,,,,,,,-- --- ---- --- ------ ----- ------- ---- -- --- ------- --<br>------- ---------- ------ -- ----- -- order -- ---- ------<br>--- ----- --- --- ------ -------- ----- --- ------ ----- --<br>----- ----- ---------- --- --- ------ ------ ---- -- ------<br>------- --- ------ ----- --- ---- ------- -- ---- --- --<br>------- ------,1539979,1539978.3999999985,1539336.266,1539339.3999999985,1539343.245,1539982.141,,18,order
screen,html.Screen,2_1_1_1_19,2022-02-02T12:41:26.983Z,,,,,,,,,,,,,,,,,54,,,,,,,,,,,,,,284.0589999991935,,response,,,,100,,,,,,,Space,keypress(Space),,,,,,,,-- --- ---- --- ------ ----- ------- ---- -- --- ------- --<br>------- ---------- ------ -- ----- -- ----- to ---- ------<br>--- ----- --- --- ------ -------- ----- --- ------ ----- --<br>----- ----- ---------- --- --- ------ ------ ---- -- ------<br>------- --- ------ ----- --- ---- ------- -- ---- --- --<br>------- ------,1540266.6999999993,1540266.1999999993,1539975.155,1539979.0999999978,1539982.141,1540273.783,,19,to
screen,html.Screen,2_1_1_1_20,2022-02-02T12:41:27.271Z,,,,,,,,,,,,,,,,,54,,,,,,,,,,,,,,280.51699999696575,,response,,,,100,,,,,,,Space,keypress(Space),,,,,,,,-- --- ---- --- ------ ----- ------- ---- -- --- ------- --<br>------- ---------- ------ -- ----- -- ----- -- save ------<br>--- ----- --- --- ------ -------- ----- --- ------ ----- --<br>----- ----- ---------- --- --- ------ ------ ---- -- ------<br>------- --- ------ ----- --- ---- ------- -- ---- --- --<br>------- ------,1540554.6999999993,1540554.299999997,1540266.831,1540266.799999997,1540273.783,1540558.492,,20,save
screen,html.Screen,2_1_1_1_21,2022-02-02T12:41:27.815Z,,,,,,,,,,,,,,,,,54,,,,,,,,,,,,,,539.8079999969341,,response,,,,100,,,,,,,Space,keypress(Space),,,,,,,,"-- --- ---- --- ------ ----- ------- ---- -- --- ------- --<br>------- ---------- ------ -- ----- -- ----- -- ---- money,<br>--- ----- --- --- ------ -------- ----- --- ------ ----- --<br>----- ----- ---------- --- --- ------ ------ ---- -- ------<br>------- --- ------ ----- --- ---- ------- -- ---- --- --<br>------- ------",1541098.6999999993,1541098.299999997,1540551.546,1540554.8999999985,1540558.492,1541100.165,,21,"money,"
screen,html.Screen,2_1_1_1_22,2022-02-02T12:41:28.200Z,,,,,,,,,,,,,,,,,54,,,,,,,,,,,,,,382.1349999969825,,response,,,,100,,,,,,,Space,keypress(Space),,,,,,,,-- --- ---- --- ------ ----- ------- ---- -- --- ------- --<br>------- ---------- ------ -- ----- -- ----- -- ---- ------<br>the ----- --- --- ------ -------- ----- --- ------ ----- --<br>----- ----- ---------- --- --- ------ ------ ---- -- ------<br>------- --- ------ ----- --- ---- ------- -- ---- --- --<br>------- ------,1541482.8999999985,1541482.299999997,1541093.176,1541098.799999997,1541100.165,1541489.03,,22,the
screen,html.Screen,2_1_1_1_23,2022-02-02T12:41:28.615Z,,,,,,,,,,,,,,,,,54,,,,,,,,,,,,,,409.2699999969918,,response,,,,100,,,,,,,Space,keypress(Space),,,,,,,,-- --- ---- --- ------ ----- ------- ---- -- --- ------- --<br>------- ---------- ------ -- ----- -- ----- -- ---- ------<br>--- state --- --- ------ -------- ----- --- ------ ----- --<br>----- ----- ---------- --- --- ------ ------ ---- -- ------<br>------- --- ------ ----- --- ---- ------- -- ---- --- --<br>------- ------,1541898.799999997,1541898.299999997,1541482.065,1541483.0999999978,1541489.03,1541905.693,,23,state
screen,html.Screen,2_1_1_1_24,2022-02-02T12:41:28.999Z,,,,,,,,,,,,,,,,,54,,,,,,,,,,,,,,376.50699999928474,,response,,,,100,,,,,,,Space,keypress(Space),,,,,,,,-- --- ---- --- ------ ----- ------- ---- -- --- ------- --<br>------- ---------- ------ -- ----- -- ----- -- ---- ------<br>--- ----- cut --- ------ -------- ----- --- ------ ----- --<br>----- ----- ---------- --- --- ------ ------ ---- -- ------<br>------- --- ------ ----- --- ---- ------- -- ---- --- --<br>------- ------,1542282.6999999993,1542282.1999999993,1541898.723,1541898.8999999985,1541905.693,1542287.637,,24,cut
screen,html.Screen,2_1_1_1_25,2022-02-02T12:41:29.319Z,,,,,,,,,,,,,,,,,54,,,,,,,,,,,,,,314.66299999691546,,response,,,,100,,,,,,,Space,keypress(Space),,,,,,,,-- --- ---- --- ------ ----- ------- ---- -- --- ------- --<br>------- ---------- ------ -- ----- -- ----- -- ---- ------<br>--- ----- --- the ------ -------- ----- --- ------ ----- --<br>----- ----- ---------- --- --- ------ ------ ---- -- ------<br>------- --- ------ ----- --- ---- ------- -- ---- --- --<br>------- ------,1542602.5999999978,1542602.299999997,1542280.663,1542282.799999997,1542287.637,1542607.073,,25,the
screen,html.Screen,2_1_1_1_26,2022-02-02T12:41:29.607Z,,,,,,,,,,,,,,,,,54,,,,,,,,,,,,,,283.2269999969285,,response,,,,100,,,,,,,Space,keypress(Space),,,,,,,,-- --- ---- --- ------ ----- ------- ---- -- --- ------- --<br>------- ---------- ------ -- ----- -- ----- -- ---- ------<br>--- ----- --- --- bonds' -------- ----- --- ------ ----- --<br>----- ----- ---------- --- --- ------ ------ ---- -- ------<br>------- --- ------ ----- --- ---- ------- -- ---- --- --<br>------- ------,1542890.6999999993,1542890.299999997,1542600.114,1542602.6999999993,1542607.073,1542909.77,,26,bonds'
screen,html.Screen,2_1_1_1_27,2022-02-02T12:41:30.087Z,,,,,,,,,,,,,,,,,54,,,,,,,,,,,,,,460.52999999700114,,response,,,,100,,,,,,,Space,keypress(Space),,,,,,,,-- --- ---- --- ------ ----- ------- ---- -- --- ------- --<br>------- ---------- ------ -- ----- -- ----- -- ---- ------<br>--- ----- --- --- ------ interest ----- --- ------ ----- --<br>----- ----- ---------- --- --- ------ ------ ---- -- ------<br>------- --- ------ ----- --- ---- ------- -- ---- --- --<br>------- ------,1543370.799999997,1543370.299999997,1542884.846,1542890.799999997,1542909.77,1543377.891,,27,interest
screen,html.Screen,2_1_1_1_28,2022-02-02T12:41:30.928Z,,,,,,,,,,,,,,,,,54,,,,,,,,,,,,,,832.4089999969583,,response,,,,100,,,,,,,Space,keypress(Space),,,,,,,,-- --- ---- --- ------ ----- ------- ---- -- --- ------- --<br>------- ---------- ------ -- ----- -- ----- -- ---- ------<br>--- ----- --- --- ------ -------- rate. --- ------ ----- --<br>----- ----- ---------- --- --- ------ ------ ---- -- ------<br>------- --- ------ ----- --- ---- ------- -- ---- --- --<br>------- ------,1544210.8999999985,1544210.299999997,1543370.916,1543370.799999997,1543377.891,1544218.158,,28,rate.
screen,html.Screen,2_1_1_1_29,2022-02-02T12:41:31.279Z,,,,,,,,,,,,,,,,,54,,,,,,,,,,,,,,344.0419999992009,,response,,,,100,,,,,,,Space,keypress(Space),,,,,,,,-- --- ---- --- ------ ----- ------- ---- -- --- ------- --<br>------- ---------- ------ -- ----- -- ----- -- ---- ------<br>--- ----- --- --- ------ -------- ----- The ------ ----- --<br>----- ----- ---------- --- --- ------ ------ ---- -- ------<br>------- --- ------ ----- --- ---- ------- -- ---- --- --<br>------- ------,1544562.6999999993,1544562.1999999993,1544211.172,1544211,1544218.158,1544565.411,,29,The
screen,html.Screen,2_1_1_1_30,2022-02-02T12:41:31.567Z,,,,,,,,,,,,,,,,,54,,,,,,,,,,,,,,284.8889999969397,,response,,,,100,,,,,,,Space,keypress(Space),,,,,,,,-- --- ---- --- ------ ----- ------- ---- -- --- ------- --<br>------- ---------- ------ -- ----- -- ----- -- ---- ------<br>--- ----- --- --- ------ -------- ----- --- market ----- --<br>----- ----- ---------- --- --- ------ ------ ---- -- ------<br>------- --- ------ ----- --- ---- ------- -- ---- --- --<br>------- ------,1544850.5999999978,1544850.299999997,1544558.435,1544562.799999997,1544565.411,1544857.013,,30,market
screen,html.Screen,2_1_1_1_31,2022-02-02T12:41:31.824Z,,,,,,,,,,,,,,,,,54,,,,,,,,,,,,,,249.28699999698438,,response,,,,100,,,,,,,Space,keypress(Space),,,,,,,,-- --- ---- --- ------ ----- ------- ---- -- --- ------- --<br>------- ---------- ------ -- ----- -- ----- -- ---- ------<br>--- ----- --- --- ------ -------- ----- --- ------ value --<br>----- ----- ---------- --- --- ------ ------ ---- -- ------<br>------- --- ------ ----- --- ---- ------- -- ---- --- --<br>------- ------,1545107,1545106.299999997,1544850.059,1544850.6999999993,1544857.013,1545113.975,,31,value
screen,html.Screen,2_1_1_1_32,2022-02-02T12:41:32.304Z,,,,,,,,,,,,,,,,,54,,,,,,,,,,,,,,472.42499999841675,,response,,,,100,,,,,,,Space,keypress(Space),,,,,,,,-- --- ---- --- ------ ----- ------- ---- -- --- ------- --<br>------- ---------- ------ -- ----- -- ----- -- ---- ------<br>--- ----- --- --- ------ -------- ----- --- ------ ----- of<br>----- ----- ---------- --- --- ------ ------ ---- -- ------<br>------- --- ------ ----- --- ---- ------- -- ---- --- --<br>------- ------,1545586.8999999985,1545586.3999999985,1545107.016,1545107.0999999978,1545113.975,1545593.137,,32,of
screen,html.Screen,2_1_1_1_33,2022-02-02T12:41:32.655Z,,,,,,,,,,,,,,,,,54,,,,,,,,,,,,,,345.06299999915063,,response,,,,100,,,,,,,Space,keypress(Space),,,,,,,,-- --- ---- --- ------ ----- ------- ---- -- --- ------- --<br>------- ---------- ------ -- ----- -- ----- -- ---- ------<br>--- ----- --- --- ------ -------- ----- --- ------ ----- --<br>these ----- ---------- --- --- ------ ------ ---- -- ------<br>------- --- ------ ----- --- ---- ------- -- ---- --- --<br>------- ------,1545938.6999999993,1545938.1999999993,1545586.165,1545587,1545593.137,1545940.355,,33,these
screen,html.Screen,2_1_1_1_34,2022-02-02T12:41:32.943Z,,,,,,,,,,,,,,,,,54,,,,,,,,,,,,,,285.84499999927357,,response,,,,100,,,,,,,Space,keypress(Space),,,,,,,,-- --- ---- --- ------ ----- ------- ---- -- --- ------- --<br>------- ---------- ------ -- ----- -- ----- -- ---- ------<br>--- ----- --- --- ------ -------- ----- --- ------ ----- --<br>----- bonds ---------- --- --- ------ ------ ---- -- ------<br>------- --- ------ ----- --- ---- ------- -- ---- --- --<br>------- ------,1546226.5999999978,1546226.1999999993,1545933.387,1545938.799999997,1545940.355,1546231.993,,34,bonds
screen,html.Screen,2_1_1_1_35,2022-02-02T12:41:33.392Z,,,,,,,,,,,,,,,,,54,,,,,,,,,,,,,,442.306999997003,,response,,,,100,,,,,,,Space,keypress(Space),,,,,,,,"-- --- ---- --- ------ ----- ------- ---- -- --- ------- --<br>------- ---------- ------ -- ----- -- ----- -- ---- ------<br>--- ----- --- --- ------ -------- ----- --- ------ ----- --<br>----- ----- plummeted, --- --- ------ ------ ---- -- ------<br>------- --- ------ ----- --- ---- ------- -- ---- --- --<br>------- ------",1546674.8999999985,1546674.299999997,1546225.038,1546226.6999999993,1546231.993,1546676.482,,35,"plummeted,"
screen,html.Screen,2_1_1_1_36,2022-02-02T12:41:34.000Z,,,,,,,,,,,,,,,,,54,,,,,,,,,,,,,,605.9179999984335,,response,,,,100,,,,,,,Space,keypress(Space),,,,,,,,-- --- ---- --- ------ ----- ------- ---- -- --- ------- --<br>------- ---------- ------ -- ----- -- ----- -- ---- ------<br>--- ----- --- --- ------ -------- ----- --- ------ ----- --<br>----- ----- ---------- and --- ------ ------ ---- -- ------<br>------- --- ------ ----- --- ---- ------- -- ---- --- --<br>------- ------,1547282.799999997,1547282.3999999985,1546669.473,1546675,1546676.482,1547287.541,,36,and
screen,html.Screen,2_1_1_1_37,2022-02-02T12:41:34.511Z,,,,,,,,,,,,,,,,,54,,,,,,,,,,,,,,506.85899999854155,,response,,,,100,,,,,,,Space,keypress(Space),,,,,,,,-- --- ---- --- ------ ----- ------- ---- -- --- ------- --<br>------- ---------- ------ -- ----- -- ----- -- ---- ------<br>--- ----- --- --- ------ -------- ----- --- ------ ----- --<br>----- ----- ---------- --- the ------ ------ ---- -- ------<br>------- --- ------ ----- --- ---- ------- -- ---- --- --<br>------- ------,1547794.6999999993,1547794.3999999985,1547280.566,1547282.8999999985,1547287.541,1547801.425,,37,the
screen,html.Screen,2_1_1_1_38,2022-02-02T12:41:35.023Z,,,,,,,,,,,,,,,,,54,,,,,,,,,,,,,,504.8749999969732,,response,,,,100,,,,,,,Space,keypress(Space),,,,,,,,-- --- ---- --- ------ ----- ------- ---- -- --- ------- --<br>------- ---------- ------ -- ----- -- ----- -- ---- ------<br>--- ----- --- --- ------ -------- ----- --- ------ ----- --<br>----- ----- ---------- --- --- market ------ ---- -- ------<br>------- --- ------ ----- --- ---- ------- -- ---- --- --<br>------- ------,1548306.799999997,1548306.299999997,1547794.45,1547794.799999997,1547801.425,1548308.371,,38,market
screen,html.Screen,2_1_1_1_39,2022-02-02T12:41:35.407Z,,,,,,,,,,,,,,,,,54,,,,,,,,,,,,,,381.8289999992121,,response,,,,100,,,,,,,Space,keypress(Space),,,,,,,,-- --- ---- --- ------ ----- ------- ---- -- --- ------- --<br>------- ---------- ------ -- ----- -- ----- -- ---- ------<br>--- ----- --- --- ------ -------- ----- --- ------ ----- --<br>----- ----- ---------- --- --- ------ became ---- -- ------<br>------- --- ------ ----- --- ---- ------- -- ---- --- --<br>------- ------,1548690.6999999993,1548690.1999999993,1548301.393,1548306.8999999985,1548308.371,1548697.216,,39,became
screen,html.Screen,2_1_1_1_40,2022-02-02T12:41:35.888Z,,,,,,,,,,,,,,,,,54,,,,,,,,,,,,,,473.08399999700487,,response,,,,100,,,,,,,Space,keypress(Space),,,,,,,,-- --- ---- --- ------ ----- ------- ---- -- --- ------- --<br>------- ---------- ------ -- ----- -- ----- -- ---- ------<br>--- ----- --- --- ------ -------- ----- --- ------ ----- --<br>----- ----- ---------- --- --- ------ ------ wary -- ------<br>------- --- ------ ----- --- ---- ------- -- ---- --- --<br>------- ------,1549171,1549170.299999997,1548690.262,1548690.6999999993,1548697.216,1549176.394,,40,wary
screen,html.Screen,2_1_1_1_41,2022-02-02T12:41:36.304Z,,,,,,,,,,,,,,,,,54,,,,,,,,,,,,,,410.4059999969322,,response,,,,100,,,,,,,Space,keypress(Space),,,,,,,,-- --- ---- --- ------ ----- ------- ---- -- --- ------- --<br>------- ---------- ------ -- ----- -- ----- -- ---- ------<br>--- ----- --- --- ------ -------- ----- --- ------ ----- --<br>----- ----- ---------- --- --- ------ ------ ---- of ------<br>------- --- ------ ----- --- ---- ------- -- ---- --- --<br>------- ------,1549587.1999999993,1549586.799999997,1549169.412,1549171.0999999978,1549176.394,1549593.05,,41,of
screen,html.Screen,2_1_1_1_42,2022-02-02T12:41:36.655Z,,,,,,,,,,,,,,,,,54,,,,,,,,,,,,,,345.2499999969732,,response,,,,100,,,,,,,Space,keypress(Space),,,,,,,,-- --- ---- --- ------ ----- ------- ---- -- --- ------- --<br>------- ---------- ------ -- ----- -- ----- -- ---- ------<br>--- ----- --- --- ------ -------- ----- --- ------ ----- --<br>----- ----- ---------- --- --- ------ ------ ---- -- French<br>------- --- ------ ----- --- ---- ------- -- ---- --- --<br>------- ------,1549938.799999997,1549938.299999997,1549586.092,1549587.299999997,1549593.05,1549940.295,,42,French
screen,html.Screen,2_1_1_1_43,2022-02-02T12:41:37.456Z,,,,,,,,,,,,,,,,,54,,,,,,,,,,,,,,798.1049999985844,,response,,,,100,,,,,,,Space,keypress(Space),,,,,,,,-- --- ---- --- ------ ----- ------- ---- -- --- ------- --<br>------- ---------- ------ -- ----- -- ----- -- ---- ------<br>--- ----- --- --- ------ -------- ----- --- ------ ----- --<br>----- ----- ---------- --- --- ------ ------ ---- -- ------<br>credit. --- ------ ----- --- ---- ------- -- ---- --- --<br>------- ------,1550738.8999999985,1550738.3999999985,1549933.307,1549938.8999999985,1549940.295,1550745.794,,43,credit.
screen,html.Screen,2_1_1_1_44,2022-02-02T12:41:37.872Z,,,,,,,,,,,,,,,,,54,,,,,,,,,,,,,,408.50599999702536,,response,,,,100,,,,,,,Space,keypress(Space),,,,,,,,-- --- ---- --- ------ ----- ------- ---- -- --- ------- --<br>------- ---------- ------ -- ----- -- ----- -- ---- ------<br>--- ----- --- --- ------ -------- ----- --- ------ ----- --<br>----- ----- ---------- --- --- ------ ------ ---- -- ------<br>------- The ------ ----- --- ---- ------- -- ---- --- --<br>------- ------,1551154.8999999985,1551154.299999997,1550738.83,1550739,1550745.794,1551164.458,,44,The
screen,html.Screen,2_1_1_1_45,2022-02-02T12:41:38.351Z,,,,,,,,,,,,,,,,,54,,,,,,,,,,,,,,469.9419999984093,,response,,,,100,,,,,,,Space,keypress(Space),,,,,,,,-- --- ---- --- ------ ----- ------- ---- -- --- ------- --<br>------- ---------- ------ -- ----- -- ----- -- ---- ------<br>--- ----- --- --- ------ -------- ----- --- ------ ----- --<br>----- ----- ---------- --- --- ------ ------ ---- -- ------<br>------- --- French ----- --- ---- ------- -- ---- --- --<br>------- ------,1551634.799999997,1551634.3999999985,1551148.547,1551155,1551164.458,1551641.62,,45,French
screen,html.Screen,2_1_1_1_46,2022-02-02T12:41:38.703Z,,,,,,,,,,,,,,,,,54,,,,,,,,,,,,,,344.679999996908,,response,,,,100,,,,,,,Space,keypress(Space),,,,,,,,-- --- ---- --- ------ ----- ------- ---- -- --- ------- --<br>------- ---------- ------ -- ----- -- ----- -- ---- ------<br>--- ----- --- --- ------ -------- ----- --- ------ ----- --<br>----- ----- ---------- --- --- ------ ------ ---- -- ------<br>------- --- ------ state --- ---- ------- -- ---- --- --<br>------- ------,1551986.6999999993,1551986.299999997,1551634.649,1551634.8999999985,1551641.62,1551988.867,,46,state
screen,html.Screen,2_1_1_1_47,2022-02-02T12:41:39.087Z,,,,,,,,,,,,,,,,,54,,,,,,,,,,,,,,381.4329999969341,,response,,,,100,,,,,,,Space,keypress(Space),,,,,,,,-- --- ---- --- ------ ----- ------- ---- -- --- ------- --<br>------- ---------- ------ -- ----- -- ----- -- ---- ------<br>--- ----- --- --- ------ -------- ----- --- ------ ----- --<br>----- ----- ---------- --- --- ------ ------ ---- -- ------<br>------- --- ------ ----- was ---- ------- -- ---- --- --<br>------- ------,1552370.799999997,1552370.299999997,1551981.865,1551986.8999999985,1551988.867,1552377.71,,47,was
screen,html.Screen,2_1_1_1_48,2022-02-02T12:41:39.792Z,,,,,,,,,,,,,,,,,54,,,,,,,,,,,,,,696.589999997057,,response,,,,100,,,,,,,Space,keypress(Space),,,,,,,,-- --- ---- --- ------ ----- ------- ---- -- --- ------- --<br>------- ---------- ------ -- ----- -- ----- -- ---- ------<br>--- ----- --- --- ------ -------- ----- --- ------ ----- --<br>----- ----- ---------- --- --- ------ ------ ---- -- ------<br>------- --- ------ ----- --- left ------- -- ---- --- --<br>------- ------,1553074.799999997,1553074.299999997,1552370.748,1552370.799999997,1552377.71,1553079.093,,48,left
screen,html.Screen,2_1_1_1_49,2022-02-02T12:41:40.240Z,,,,,,,,,,,,,,,,,54,,,,,,,,,,,,,,443.3069999984,,response,,,,100,,,,,,,Space,keypress(Space),,,,,,,,-- --- ---- --- ------ ----- ------- ---- -- --- ------- --<br>------- ---------- ------ -- ----- -- ----- -- ---- ------<br>--- ----- --- --- ------ -------- ----- --- ------ ----- --<br>----- ----- ---------- --- --- ------ ------ ---- -- ------<br>------- --- ------ ----- --- ---- without -- ---- --- --<br>------- ------,1553523,1553522.3999999985,1553072.112,1553074.8999999985,1553079.093,1553532.459,,49,without
screen,html.Screen,2_1_1_1_50,2022-02-02T12:41:40.720Z,,,,,,,,,,,,,,,,,54,,,,,,,,,,,,,,469.8409999969881,,response,,,,100,,,,,,,Space,keypress(Space),,,,,,,,-- --- ---- --- ------ ----- ------- ---- -- --- ------- --<br>------- ---------- ------ -- ----- -- ----- -- ---- ------<br>--- ----- --- --- ------ -------- ----- --- ------ ----- --<br>----- ----- ---------- --- --- ------ ------ ---- -- ------<br>------- --- ------ ----- --- ---- ------- an ---- --- --<br>------- ------,1554003,1554002.299999997,1553516.577,1553523,1553532.459,1554009.639,,50,an
screen,html.Screen,2_1_1_1_51,2022-02-02T12:41:41.263Z,,,,,,,,,,,,,,,,,54,,,,,,,,,,,,,,536.6609999970533,,response,,,,100,,,,,,,Space,keypress(Space),,,,,,,,-- --- ---- --- ------ ----- ------- ---- -- --- ------- --<br>------- ---------- ------ -- ----- -- ----- -- ---- ------<br>--- ----- --- --- ------ -------- ----- --- ------ ----- --<br>----- ----- ---------- --- --- ------ ------ ---- -- ------<br>------- --- ------ ----- --- ---- ------- -- easy --- --<br>------- ------,1554546.799999997,1554546.299999997,1554002.66,1554003,1554009.639,1554551.283,,51,easy
screen,html.Screen,2_1_1_1_52,2022-02-02T12:41:41.647Z,,,,,,,,,,,,,,,,,54,,,,,,,,,,,,,,379.01699999696575,,response,,,,100,,,,,,,Space,keypress(Space),,,,,,,,-- --- ---- --- ------ ----- ------- ---- -- --- ------- --<br>------- ---------- ------ -- ----- -- ----- -- ---- ------<br>--- ----- --- --- ------ -------- ----- --- ------ ----- --<br>----- ----- ---------- --- --- ------ ------ ---- -- ------<br>------- --- ------ ----- --- ---- ------- -- ---- way --<br>------- ------,1554930.5999999978,1554930.299999997,1554544.321,1554546.8999999985,1554551.283,1554933.24,,52,way
screen,html.Screen,2_1_1_1_53,2022-02-02T12:41:42.159Z,,,,,,,,,,,,,,,,,54,,,,,,,,,,,,,,508.95999999926426,,response,,,,100,,,,,,,Space,keypress(Space),,,,,,,,-- --- ---- --- ------ ----- ------- ---- -- --- ------- --<br>------- ---------- ------ -- ----- -- ----- -- ---- ------<br>--- ----- --- --- ------ -------- ----- --- ------ ----- --<br>----- ----- ---------- --- --- ------ ------ ---- -- ------<br>------- --- ------ ----- --- ---- ------- -- ---- --- of<br>------- ------,1555442.799999997,1555442.1999999993,1554926.251,1554930.6999999993,1554933.24,1555447.103,,53,of
screen,html.Screen,2_1_1_1_54,2022-02-02T12:41:42.640Z,,,,,,,,,,,,,,,,,54,,,,,,,,,,,,,,475.2969999986235,,response,,,,100,,,,,,,Space,keypress(Space),,,,,,,,-- --- ---- --- ------ ----- ------- ---- -- --- ------- --<br>------- ---------- ------ -- ----- -- ----- -- ---- ------<br>--- ----- --- --- ------ -------- ----- --- ------ ----- --<br>----- ----- ---------- --- --- ------ ------ ---- -- ------<br>------- --- ------ ----- --- ---- ------- -- ---- --- --<br>raising ------,1555922.8999999985,1555922.3999999985,1555440.147,1555442.799999997,1555447.103,1555926.264,,54,raising
screen,html.Screen,2_1_1_1_55,2022-02-02T12:41:43.216Z,,,,,,,,,,,,,,,,,54,,,,,,,,,,,,,,572.0359999970533,,response,,,,100,,,,,,,Space,keypress(Space),,,,,,,,-- --- ---- --- ------ ----- ------- ---- -- --- ------- --<br>------- ---------- ------ -- ----- -- ----- -- ---- ------<br>--- ----- --- --- ------ -------- ----- --- ------ ----- --<br>----- ----- ---------- --- --- ------ ------ ---- -- ------<br>------- --- ------ ----- --- ---- ------- -- ---- --- --<br>------- money.,1556498.8999999985,1556498.299999997,1555919.291,1555923,1555926.264,1556502.66,,55,money.
Item 100,flow.Loop,2_1_1_1,2022-02-02T12:41:43.216Z,,,,,,,,,,,,,,,,,,,,,,,,,,,,,,,29015.90399999707,,completion,,,,,A,,,,,,,,,,,silence,,,,,1556499.0999999978,1556498.299999997,1527475.416,1527475.6999999993,1527482.396,1556502.66,,,
Question 1,html.Screen,2_1_1_2,2022-02-02T12:41:46.044Z,,,,,,,,,,,,,,,,,,,,,,,,,,,,true,TRUE,,2824.6399999971036,,response,,,,100,A,,,,,,TRUE,click #choice-1,,,,silence,,,,,1559327.799999997,1559327.299999997,1556495.659,1556499.0999999978,1556502.66,1559335.914,,,
Question 2,html.Screen,2_1_1_3,2022-02-02T12:41:49.136Z,,,,,,,,,,,,,,,,,,,,,,,,,,,,true,FALSE,,3082.1859999976587,,response,,,,100,A,,,,,,FALSE,click #choice-2,,,,silence,,,,,1562418.5999999978,1562418.0999999978,1559328.988,1559327.799999997,1559335.914,1562435.074,,,
Item 100,flow.Sequence,2_1_1,2022-02-02T12:41:49.136Z,,,,,,,,,,,,,,,,,,,,,,,,,,,,,,,44935.51599999773,,completion,,,,,,,,,,,,,,,,,,,,,1562418.799999997,1562418.0999999978,1517475.591,1517480.6999999993,1517482.584,1562435.074,,,
End of Practice,html.Page,2_1_2,2022-02-02T12:41:58.258Z,,,,,,,,,,,,,,,,,,,,,,,,,,,,,,,9104.725999996997,,form submission,,,,,,,,,,,,,,,,,,,,,1571540.0999999978,1571539.799999997,1562412.232,1562418.799999997,1562435.074,1571544.056,,,
Practice,flow.Sequence,2_1,2022-02-02T12:41:58.258Z,,,,,,,,,,,,,,,,,,,,,,,,,,,,,,,107820.06399999699,,completion,,,,,,,,,,,,,,,,,,,,,1571540.1999999993,1571539.799999997,1463712.746,1463716.3999999985,1463719.736,1571544.056,,,
Trap_instruction,html.Page,2_2_0,2022-02-02T12:42:03.484Z,,,,,,,,,,,,,,,,,,,,,,,,,,,,,,,5221.843999998411,,form submission,,,,,,,,,,,,,,,,,,,,,1576766.1999999993,1576765.8999999985,1571537.059,1571540.1999999993,1571544.056,1576786.057,,,
trap_trial,html.Screen,2_2_1,2022-02-02T12:42:06.499Z,,,,,,,,,,,,,,,,,,,,,,,,,,,,true,1,,2995.042999997735,,response,,,,,,,,,,,1,click #choice-1,,,,,,,,,1579781.6999999993,1579781.0999999978,1576759.179,1576766.299999997,1576786.057,1579786.901,,,
end of trap trial,html.Page,2_2_2,2022-02-02T12:42:09.985Z,,,,,,,,,,,,,,,,,,,,,,,,,,,,,,,3479.898999996949,,form submission,,,,,,,,,,,,,,,,,,,,,1583267,1583266.799999997,1579779.955,1579781.8999999985,1579786.901,1583272.949,,,
Trap 1,flow.Sequence,2_2,2022-02-02T12:42:09.985Z,,,,,,,,,,,,,,,,,,,,,,,,,,,,,,,11722.743999996921,,completion,,,,,,,,,,,,,,,,,,,,,1583267.0999999978,1583266.799999997,1571537.059,1571540.1999999993,1571544.056,1583272.949,,,
Standby,html.Page,2_3_0,2022-02-02T12:42:17.985Z,,,,,,,,,,,,,,,,,,,,,,,,,,,,,,,7999.876999999862,,timeout,,,,,,,,,,,,,,,,,,,,,1591267.1999999993,1591265.846,1583266.003,1583267.1999999993,1583272.949,1591272.826,,,
Holding screen,html.Screen,2_3_1_0_0,2022-02-02T12:42:24.984Z,,,,,,,,,,,,,,,,,,,,,,,,,,,,,,,6999.836000000127,,timeout,,,,,,,,,,,,,,,,,,,,,1598265.8999999985,1598265.712,1591265.846,1591267.299999997,1591272.826,1598272.662,,,
screen,html.Screen,2_3_1_0_1_0,2022-02-02T12:42:30.273Z,,,,,,,,,,,,,,,,,2,,,,,,,,,,,,,,5282.037999999244,,response,,,,1,A,,,,,,Space,keypress(Space),,,,silence,,,,Two ---- ------ --- ------- ---------- ------- ----------<br>--- --------- --- ----------- ------- ----- ------- ---<br>--------- ---- -- --- ---- -- --------- -- ---- -------<br>-- --------- ------ --- ----- ------ ---- --- --------- --<br>------ - ---- -- --- ----------- ------- ---- ----- -----<br>--- -------- - ------ ---- -- ----- ---- --- --- -----------<br>-- -------,1603555.5,1603554.6999999993,1598265.712,1598266.0999999978,1598272.662,1603557.332,,0,Two
screen,html.Screen,2_3_1_0_1_1,2022-02-02T12:42:30.721Z,,,,,,,,,,,,,,,,,2,,,,,,,,,,,,,,444.9679999970831,,response,,,,1,A,,,,,,Space,keypress(Space),,,,silence,,,,--- days ------ --- ------- ---------- ------- ----------<br>--- --------- --- ----------- ------- ----- ------- ---<br>--------- ---- -- --- ---- -- --------- -- ---- -------<br>-- --------- ------ --- ----- ------ ---- --- --------- --<br>------ - ---- -- --- ----------- ------- ---- ----- -----<br>--- -------- - ------ ---- -- ----- ---- --- --- -----------<br>-- -------,1604002.8999999985,1604002.299999997,1603550.099,1603555.5999999978,1603557.332,1604008.673,,1,days
screen,html.Screen,2_3_1_0_1_2,2022-02-02T12:42:32.161Z,,,,,,,,,,,,,,,,,2,,,,,,,,,,,,,,1433.8270000000484,,response,,,,1,A,,,,,,Space,keypress(Space),,,,silence,,,,"--- ---- later, --- ------- ---------- ------- ----------<br>--- --------- --- ----------- ------- ----- ------- ---<br>--------- ---- -- --- ---- -- --------- -- ---- -------<br>-- --------- ------ --- ----- ------ ---- --- --------- --<br>------ - ---- -- --- ----------- ------- ---- ----- -----<br>--- -------- - ------ ---- -- ----- ---- --- --- -----------<br>-- -------",1605443.0999999978,1605442.5,1604001.694,1604003,1604008.673,1605446.17,,2,"later,"
screen,html.Screen,2_3_1_0_1_3,2022-02-02T12:42:32.737Z,,,,,,,,,,,,,,,,,2,,,,,,,,,,,,,,572.1299999970943,,response,,,,1,A,,,,,,Space,keypress(Space),,,,silence,,,,--- ---- ------ the ------- ---------- ------- ----------<br>--- --------- --- ----------- ------- ----- ------- ---<br>--------- ---- -- --- ---- -- --------- -- ---- -------<br>-- --------- ------ --- ----- ------ ---- --- --------- --<br>------ - ---- -- --- ----------- ------- ---- ----- -----<br>--- -------- - ------ ---- -- ----- ---- --- --- -----------<br>-- -------,1606018.8999999985,1606018.299999997,1605439.136,1605443.0999999978,1605446.17,1606022.522,,3,the
screen,html.Screen,2_3_1_0_1_4,2022-02-02T12:42:33.217Z,,,,,,,,,,,,,,,,,2,,,,,,,,,,,,,,475.87799999839626,,response,,,,1,A,,,,,,Space,keypress(Space),,,,silence,,,,--- ---- ------ --- British ---------- ------- ----------<br>--- --------- --- ----------- ------- ----- ------- ---<br>--------- ---- -- --- ---- -- --------- -- ---- -------<br>-- --------- ------ --- ----- ------ ---- --- --------- --<br>------ - ---- -- --- ----------- ------- ---- ----- -----<br>--- -------- - ------ ---- -- ----- ---- --- --- -----------<br>-- -------,1606498.8999999985,1606498.3999999985,1606015.539,1606019,1606022.522,1606501.704,,4,British
screen,html.Screen,2_3_1_0_1_5,2022-02-02T12:42:34.080Z,,,,,,,,,,,,,,,,,2,,,,,,,,,,,,,,860.5959999971092,,response,,,,1,A,,,,,,Space,keypress(Space),,,,silence,,,,--- ---- ------ --- ------- astronomer ------- ----------<br>--- --------- --- ----------- ------- ----- ------- ---<br>--------- ---- -- --- ---- -- --------- -- ---- -------<br>-- --------- ------ --- ----- ------ ---- --- --------- --<br>------ - ---- -- --- ----------- ------- ---- ----- -----<br>--- -------- - ------ ---- -- ----- ---- --- --- -----------<br>-- -------,1607362.6999999993,1607362.299999997,1606494.717,1606498.8999999985,1606501.704,1607369.704,,5,astronomer
screen,html.Screen,2_3_1_0_1_6,2022-02-02T12:42:34.528Z,,,,,,,,,,,,,,,,,2,,,,,,,,,,,,,,440.5959999971092,,response,,,,1,A,,,,,,Space,keypress(Space),,,,silence,,,,--- ---- ------ --- ------- ---------- Richard ----------<br>--- --------- --- ----------- ------- ----- ------- ---<br>--------- ---- -- --- ---- -- --------- -- ---- -------<br>-- --------- ------ --- ----- ------ ---- --- --------- --<br>------ - ---- -- --- ----------- ------- ---- ----- -----<br>--- -------- - ------ ---- -- ----- ---- --- --- -----------<br>-- -------,1607810.799999997,1607810.299999997,1607362.726,1607362.799999997,1607369.704,1607814.18,,6,Richard
screen,html.Screen,2_3_1_0_1_7,2022-02-02T12:42:35.040Z,,,,,,,,,,,,,,,,,2,,,,,,,,,,,,,,508.11999999708496,,response,,,,1,A,,,,,,Space,keypress(Space),,,,silence,,,,--- ---- ------ --- ------- ---------- ------- Carrington<br>--- --------- --- ----------- ------- ----- ------- ---<br>--------- ---- -- --- ---- -- --------- -- ---- -------<br>-- --------- ------ --- ----- ------ ---- --- --------- --<br>------ - ---- -- --- ----------- ------- ---- ----- -----<br>--- -------- - ------ ---- -- ----- ---- --- --- -----------<br>-- -------,1608322.799999997,1608322.299999997,1607807.179,1607810.8999999985,1607814.18,1608328.037,,7,Carrington
screen,html.Screen,2_3_1_0_1_8,2022-02-02T12:42:35.456Z,,,,,,,,,,,,,,,,,2,,,,,,,,,,,,,,410.2629999970086,,response,,,,1,A,,,,,,Space,keypress(Space),,,,silence,,,,--- ---- ------ --- ------- ---------- ------- ----------<br>was --------- --- ----------- ------- ----- ------- ---<br>--------- ---- -- --- ---- -- --------- -- ---- -------<br>-- --------- ------ --- ----- ------ ---- --- --------- --<br>------ - ---- -- --- ----------- ------- ---- ----- -----<br>--- -------- - ------ ---- -- ----- ---- --- --- -----------<br>-- -------,1608738.6999999993,1608738.299999997,1608321.085,1608322.8999999985,1608328.037,1608744.701,,8,was
screen,html.Screen,2_3_1_0_1_9,2022-02-02T12:42:35.840Z,,,,,,,,,,,,,,,,,2,,,,,,,,,,,,,,377.59899999713525,,response,,,,1,A,,,,,,Space,keypress(Space),,,,silence,,,,--- ---- ------ --- ------- ---------- ------- ----------<br>--- observing --- ----------- ------- ----- ------- ---<br>--------- ---- -- --- ---- -- --------- -- ---- -------<br>-- --------- ------ --- ----- ------ ---- --- --------- --<br>------ - ---- -- --- ----------- ------- ---- ----- -----<br>--- -------- - ------ ---- -- ----- ---- --- --- -----------<br>-- -------,1609122.799999997,1609122.299999997,1608737.736,1608738.6999999993,1608744.701,1609126.616,,9,observing
screen,html.Screen,2_3_1_0_1_10,2022-02-02T12:42:36.257Z,,,,,,,,,,,,,,,,,2,,,,,,,,,,,,,,411.7839999985881,,response,,,,1,A,,,,,,Space,keypress(Space),,,,silence,,,,--- ---- ------ --- ------- ---------- ------- ----------<br>--- --------- the ----------- ------- ----- ------- ---<br>--------- ---- -- --- ---- -- --------- -- ---- -------<br>-- --------- ------ --- ----- ------ ---- --- --------- --<br>------ - ---- -- --- ----------- ------- ---- ----- -----<br>--- -------- - ------ ---- -- ----- ---- --- --- -----------<br>-- -------,1609539,1609538.3999999985,1609119.661,1609122.8999999985,1609126.616,1609543.295,,10,the
screen,html.Screen,2_3_1_0_1_11,2022-02-02T12:42:36.673Z,,,,,,,,,,,,,,,,,2,,,,,,,,,,,,,,411.0049999970943,,response,,,,1,A,,,,,,Space,keypress(Space),,,,silence,,,,--- ---- ------ --- ------- ---------- ------- ----------<br>--- --------- --- interesting ------- ----- ------- ---<br>--------- ---- -- --- ---- -- --------- -- ---- -------<br>-- --------- ------ --- ----- ------ ---- --- --------- --<br>------ - ---- -- --- ----------- ------- ---- ----- -----<br>--- -------- - ------ ---- -- ----- ---- --- --- -----------<br>-- -------,1609954.8999999985,1609954.299999997,1609536.312,1609539,1609543.295,1609959.942,,11,interesting
screen,html.Screen,2_3_1_0_1_12,2022-02-02T12:42:37.216Z,,,,,,,,,,,,,,,,,2,,,,,,,,,,,,,,538.3579999969807,,response,,,,1,A,,,,,,Space,keypress(Space),,,,silence,,,,--- ---- ------ --- ------- ---------- ------- ----------<br>--- --------- --- ----------- sunspot ----- ------- ---<br>--------- ---- -- --- ---- -- --------- -- ---- -------<br>-- --------- ------ --- ----- ------ ---- --- --------- --<br>------ - ---- -- --- ----------- ------- ---- ----- -----<br>--- -------- - ------ ---- -- ----- ---- --- --- -----------<br>-- -------,1610498.799999997,1610498.299999997,1609952.986,1609955,1609959.942,1610501.627,,12,sunspot
screen,html.Screen,2_3_1_0_1_13,2022-02-02T12:42:37.632Z,,,,,,,,,,,,,,,,,2,,,,,,,,,,,,,,412.6729999969248,,response,,,,1,A,,,,,,Space,keypress(Space),,,,silence,,,,--- ---- ------ --- ------- ---------- ------- ----------<br>--- --------- --- ----------- ------- group ------- ---<br>--------- ---- -- --- ---- -- --------- -- ---- -------<br>-- --------- ------ --- ----- ------ ---- --- --------- --<br>------ - ---- -- --- ----------- ------- ---- ----- -----<br>--- -------- - ------ ---- -- ----- ---- --- --- -----------<br>-- -------,1610914.6999999993,1610914.299999997,1610494.624,1610498.8999999985,1610501.627,1610918.256,,13,group
screen,html.Screen,2_3_1_0_1_14,2022-02-02T12:42:38.240Z,,,,,,,,,,,,,,,,,2,,,,,,,,,,,,,,604.0439999969676,,response,,,,1,A,,,,,,Space,keypress(Space),,,,silence,,,,--- ---- ------ --- ------- ---------- ------- ----------<br>--- --------- --- ----------- ------- ----- through ---<br>--------- ---- -- --- ---- -- --------- -- ---- -------<br>-- --------- ------ --- ----- ------ ---- --- --------- --<br>------ - ---- -- --- ----------- ------- ---- ----- -----<br>--- -------- - ------ ---- -- ----- ---- --- --- -----------<br>-- -------,1611522.799999997,1611522.299999997,1610911.287,1610914.799999997,1610918.256,1611529.365,,14,through
screen,html.Screen,2_3_1_0_1_15,2022-02-02T12:42:38.720Z,,,,,,,,,,,,,,,,,2,,,,,,,,,,,,,,472.9349999970291,,response,,,,1,A,,,,,,Space,keypress(Space),,,,silence,,,,--- ---- ------ --- ------- ---------- ------- ----------<br>--- --------- --- ----------- ------- ----- ------- his<br>--------- ---- -- --- ---- -- --------- -- ---- -------<br>-- --------- ------ --- ----- ------ ---- --- --------- --<br>------ - ---- -- --- ----------- ------- ---- ----- -----<br>--- -------- - ------ ---- -- ----- ---- --- --- -----------<br>-- -------,1612002.799999997,1612002.299999997,1611522.381,1611522.8999999985,1611529.365,1612008.511,,15,his
screen,html.Screen,2_3_1_0_1_16,2022-02-02T12:42:39.297Z,,,,,,,,,,,,,,,,,2,,,,,,,,,,,,,,569.7889999970794,,response,,,,1,A,,,,,,Space,keypress(Space),,,,silence,,,,--- ---- ------ --- ------- ---------- ------- ----------<br>--- --------- --- ----------- ------- ----- ------- ---<br>telescope ---- -- --- ---- -- --------- -- ---- -------<br>-- --------- ------ --- ----- ------ ---- --- --------- --<br>------ - ---- -- --- ----------- ------- ---- ----- -----<br>--- -------- - ------ ---- -- ----- ---- --- --- -----------<br>-- -------,1612579,1612578.299999997,1612001.554,1612002.8999999985,1612008.511,1612584.9,,16,telescope
screen,html.Screen,2_3_1_0_1_17,2022-02-02T12:42:39.744Z,,,,,,,,,,,,,,,,,2,,,,,,,,,,,,,,441.2999999993481,,response,,,,1,A,,,,,,Space,keypress(Space),,,,silence,,,,--- ---- ------ --- ------- ---------- ------- ----------<br>--- --------- --- ----------- ------- ----- ------- ---<br>--------- when -- --- ---- -- --------- -- ---- -------<br>-- --------- ------ --- ----- ------ ---- --- --------- --<br>------ - ---- -- --- ----------- ------- ---- ----- -----<br>--- -------- - ------ ---- -- ----- ---- --- --- -----------<br>-- -------,1613026.6999999993,1613026.1999999993,1612577.914,1612579.1999999993,1612584.9,1613029.379,,17,when
screen,html.Screen,2_3_1_0_1_18,2022-02-02T12:42:40.160Z,,,,,,,,,,,,,,,,,2,,,,,,,,,,,,,,412.8209999992978,,response,,,,1,A,,,,,,Space,keypress(Space),,,,silence,,,,--- ---- ------ --- ------- ---------- ------- ----------<br>--- --------- --- ----------- ------- ----- ------- ---<br>--------- ---- he --- ---- -- --------- -- ---- -------<br>-- --------- ------ --- ----- ------ ---- --- --------- --<br>------ - ---- -- --- ----------- ------- ---- ----- -----<br>--- -------- - ------ ---- -- ----- ---- --- --- -----------<br>-- -------,1613442.8999999985,1613442.1999999993,1613022.371,1613026.799999997,1613029.379,1613446.179,,18,he
screen,html.Screen,2_3_1_0_1_19,2022-02-02T12:42:40.481Z,,,,,,,,,,,,,,,,,2,,,,,,,,,,,,,,316.4209999977611,,response,,,,1,A,,,,,,Space,keypress(Space),,,,silence,,,,--- ---- ------ --- ------- ---------- ------- ----------<br>--- --------- --- ----------- ------- ----- ------- ---<br>--------- ---- -- saw ---- -- --------- -- ---- -------<br>-- --------- ------ --- ----- ------ ---- --- --------- --<br>------ - ---- -- --- ----------- ------- ---- ----- -----<br>--- -------- - ------ ---- -- ----- ---- --- --- -----------<br>-- -------,1613763.0999999978,1613762.5999999978,1613439.032,1613443,1613446.179,1613765.457,,19,saw
screen,html.Screen,2_3_1_0_1_20,2022-02-02T12:42:40.928Z,,,,,,,,,,,,,,,,,2,,,,,,,,,,,,,,444.8429999970831,,response,,,,1,A,,,,,,Space,keypress(Space),,,,silence,,,,--- ---- ------ --- ------- ---------- ------- ----------<br>--- --------- --- ----------- ------- ----- ------- ---<br>--------- ---- -- --- what -- --------- -- ---- -------<br>-- --------- ------ --- ----- ------ ---- --- --------- --<br>------ - ---- -- --- ----------- ------- ---- ----- -----<br>--- -------- - ------ ---- -- ----- ---- --- --- -----------<br>-- -------,1614210.799999997,1614210.299999997,1613758.463,1613763.1999999993,1613765.457,1614216.81,,20,what
screen,html.Screen,2_3_1_0_1_21,2022-02-02T12:42:41.281Z,,,,,,,,,,,,,,,,,2,,,,,,,,,,,,,,345.589999998454,,response,,,,1,A,,,,,,Space,keypress(Space),,,,silence,,,,--- ---- ------ --- ------- ---------- ------- ----------<br>--- --------- --- ----------- ------- ----- ------- ---<br>--------- ---- -- --- ---- he --------- -- ---- -------<br>-- --------- ------ --- ----- ------ ---- --- --------- --<br>------ - ---- -- --- ----------- ------- ---- ----- -----<br>--- -------- - ------ ---- -- ----- ---- --- --- -----------<br>-- -------,1614562.8999999985,1614562.3999999985,1614209.836,1614210.8999999985,1614216.81,1614581.595,,21,he
screen,html.Screen,2_3_1_0_1_22,2022-02-02T12:42:41.792Z,,,,,,,,,,,,,,,,,2,,,,,,,,,,,,,,492.6049999992829,,response,,,,1,A,,,,,,Space,keypress(Space),,,,silence,,,,--- ---- ------ --- ------- ---------- ------- ----------<br>--- --------- --- ----------- ------- ----- ------- ---<br>--------- ---- -- --- ---- -- described -- ---- -------<br>-- --------- ------ --- ----- ------ ---- --- --------- --<br>------ - ---- -- --- ----------- ------- ---- ----- -----<br>--- -------- - ------ ---- -- ----- ---- --- --- -----------<br>-- -------,1615074.6999999993,1615074.1999999993,1614557.072,1614563,1614581.595,1615077.926,,22,described
screen,html.Screen,2_3_1_0_1_23,2022-02-02T12:42:42.240Z,,,,,,,,,,,,,,,,,2,,,,,,,,,,,,,,444.3739999970421,,response,,,,1,A,,,,,,Space,keypress(Space),,,,silence,,,,--- ---- ------ --- ------- ---------- ------- ----------<br>--- --------- --- ----------- ------- ----- ------- ---<br>--------- ---- -- --- ---- -- --------- as ---- -------<br>-- --------- ------ --- ----- ------ ---- --- --------- --<br>------ - ---- -- --- ----------- ------- ---- ----- -----<br>--- -------- - ------ ---- -- ----- ---- --- --- -----------<br>-- -------,1615522.6999999993,1615522.299999997,1615070.925,1615074.799999997,1615077.926,1615529.294,,23,as
screen,html.Screen,2_3_1_0_1_24,2022-02-02T12:42:42.657Z,,,,,,,,,,,,,,,,,2,,,,,,,,,,,,,,409.00599999702536,,response,,,,1,A,,,,,,Space,keypress(Space),,,,silence,,,,"--- ---- ------ --- ------- ---------- ------- ----------<br>--- --------- --- ----------- ------- ----- ------- ---<br>--------- ---- -- --- ---- -- --------- -- ""two -------<br>-- --------- ------ --- ----- ------ ---- --- --------- --<br>------ - ---- -- --- ----------- ------- ---- ----- -----<br>--- -------- - ------ ---- -- ----- ---- --- --- -----------<br>-- -------",1615938.8999999985,1615938.299999997,1615522.311,1615522.8999999985,1615529.294,1615945.955,,24,"""two"
screen,html.Screen,2_3_1_0_1_25,2022-02-02T12:42:43.497Z,,,,,,,,,,,,,,,,,2,,,,,,,,,,,,,,832.3449999969453,,response,,,,1,A,,,,,,Space,keypress(Space),,,,silence,,,,--- ---- ------ --- ------- ---------- ------- ----------<br>--- --------- --- ----------- ------- ----- ------- ---<br>--------- ---- -- --- ---- -- --------- -- ---- patches<br>-- --------- ------ --- ----- ------ ---- --- --------- --<br>------ - ---- -- --- ----------- ------- ---- ----- -----<br>--- -------- - ------ ---- -- ----- ---- --- --- -----------<br>-- -------,1616779,1616778.299999997,1615938.983,1615939,1615945.955,1616786.197,,25,patches
screen,html.Screen,2_3_1_0_1_26,2022-02-02T12:42:43.912Z,,,,,,,,,,,,,,,,,2,,,,,,,,,,,,,,408.1029999970924,,response,,,,1,A,,,,,,Space,keypress(Space),,,,silence,,,,--- ---- ------ --- ------- ---------- ------- ----------<br>--- --------- --- ----------- ------- ----- ------- ---<br>--------- ---- -- --- ---- -- --------- -- ---- -------<br>of --------- ------ --- ----- ------ ---- --- --------- --<br>------ - ---- -- --- ----------- ------- ---- ----- -----<br>--- -------- - ------ ---- -- ----- ---- --- --- -----------<br>-- -------,1617194.799999997,1617194.299999997,1616779.225,1616779,1616786.197,1617215.804,,26,of
screen,html.Screen,2_3_1_0_1_27,2022-02-02T12:42:44.393Z,,,,,,,,,,,,,,,,,2,,,,,,,,,,,,,,458.59599999850616,,response,,,,1,A,,,,,,Space,keypress(Space),,,,silence,,,,--- ---- ------ --- ------- ---------- ------- ----------<br>--- --------- --- ----------- ------- ----- ------- ---<br>--------- ---- -- --- ---- -- --------- -- ---- -------<br>-- intensely ------ --- ----- ------ ---- --- --------- --<br>------ - ---- -- --- ----------- ------- ---- ----- -----<br>--- -------- - ------ ---- -- ----- ---- --- --- -----------<br>-- -------,1617675,1617674.3999999985,1617188.945,1617195,1617215.804,1617682.017,,27,intensely
screen,html.Screen,2_3_1_0_1_28,2022-02-02T12:42:44.840Z,,,,,,,,,,,,,,,,,2,,,,,,,,,,,,,,440.2829999970272,,response,,,,1,A,,,,,,Space,keypress(Space),,,,silence,,,,--- ---- ------ --- ------- ---------- ------- ----------<br>--- --------- --- ----------- ------- ----- ------- ---<br>--------- ---- -- --- ---- -- --------- -- ---- -------<br>-- --------- bright --- ----- ------ ---- --- --------- --<br>------ - ---- -- --- ----------- ------- ---- ----- -----<br>--- -------- - ------ ---- -- ----- ---- --- --- -----------<br>-- -------,1618122.6999999993,1618122.299999997,1617675.051,1617675,1617682.017,1618126.457,,28,bright
screen,html.Screen,2_3_1_0_1_29,2022-02-02T12:42:45.160Z,,,,,,,,,,,,,,,,,2,,,,,,,,,,,,,,315.8429999970831,,response,,,,1,A,,,,,,Space,keypress(Space),,,,silence,,,,--- ---- ------ --- ------- ---------- ------- ----------<br>--- --------- --- ----------- ------- ----- ------- ---<br>--------- ---- -- --- ---- -- --------- -- ---- -------<br>-- --------- ------ and ----- ------ ---- --- --------- --<br>------ - ---- -- --- ----------- ------- ---- ----- -----<br>--- -------- - ------ ---- -- ----- ---- --- --- -----------<br>-- -------,1618442.5999999978,1618442.299999997,1618119.485,1618122.799999997,1618126.457,1618445.882,,29,and
screen,html.Screen,2_3_1_0_1_30,2022-02-02T12:42:45.481Z,,,,,,,,,,,,,,,,,2,,,,,,,,,,,,,,316.51799999852665,,response,,,,1,A,,,,,,Space,keypress(Space),,,,silence,,,,--- ---- ------ --- ------- ---------- ------- ----------<br>--- --------- --- ----------- ------- ----- ------- ---<br>--------- ---- -- --- ---- -- --------- -- ---- -------<br>-- --------- ------ --- white ------ ---- --- --------- --<br>------ - ---- -- --- ----------- ------- ---- ----- -----<br>--- -------- - ------ ---- -- ----- ---- --- --- -----------<br>-- -------,1618762.8999999985,1618762.3999999985,1618438.954,1618442.6999999993,1618445.882,1618765.38,,30,white
screen,html.Screen,2_3_1_0_1_31,2022-02-02T12:42:46.345Z,,,,,,,,,,,,,,,,,2,,,,,,,,,,,,,,861.0199999986216,,response,,,,1,A,,,,,,Space,keypress(Space),,,,silence,,,,"--- ---- ------ --- ------- ---------- ------- ----------<br>--- --------- --- ----------- ------- ----- ------- ---<br>--------- ---- -- --- ---- -- --------- -- ---- -------<br>-- --------- ------ --- ----- light"" ---- --- --------- --<br>------ - ---- -- --- ----------- ------- ---- ----- -----<br>--- -------- - ------ ---- -- ----- ---- --- --- -----------<br>-- -------",1619626.799999997,1619626.3999999985,1618758.364,1618763,1618765.38,1619633.379,,31,"light"""
screen,html.Screen,2_3_1_0_1_32,2022-02-02T12:42:46.761Z,,,,,,,,,,,,,,,,,2,,,,,,,,,,,,,,408.9209999970626,,response,,,,1,A,,,,,,Space,keypress(Space),,,,silence,,,,--- ---- ------ --- ------- ---------- ------- ----------<br>--- --------- --- ----------- ------- ----- ------- ---<br>--------- ---- -- --- ---- -- --------- -- ---- -------<br>-- --------- ------ --- ----- ------ over --- --------- --<br>------ - ---- -- --- ----------- ------- ---- ----- -----<br>--- -------- - ------ ---- -- ----- ---- --- --- -----------<br>-- -------,1620042.8999999985,1620042.299999997,1619626.394,1619627,1619633.379,1620050.027,,32,over
screen,html.Screen,2_3_1_0_1_33,2022-02-02T12:42:47.113Z,,,,,,,,,,,,,,,,,2,,,,,,,,,,,,,,344.2729999970179,,response,,,,1,A,,,,,,Space,keypress(Space),,,,silence,,,,--- ---- ------ --- ------- ---------- ------- ----------<br>--- --------- --- ----------- ------- ----- ------- ---<br>--------- ---- -- --- ---- -- --------- -- ---- -------<br>-- --------- ------ --- ----- ------ ---- the --------- --<br>------ - ---- -- --- ----------- ------- ---- ----- -----<br>--- -------- - ------ ---- -- ----- ---- --- --- -----------<br>-- -------,1620394.8999999985,1620394.299999997,1620043.07,1620043,1620050.027,1620397.293,,33,the
screen,html.Screen,2_3_1_0_1_34,2022-02-02T12:42:47.977Z,,,,,,,,,,,,,,,,,2,,,,,,,,,,,,,,861.0069999969564,,response,,,,1,A,,,,,,Space,keypress(Space),,,,silence,,,,--- ---- ------ --- ------- ---------- ------- ----------<br>--- --------- --- ----------- ------- ----- ------- ---<br>--------- ---- -- --- ---- -- --------- -- ---- -------<br>-- --------- ------ --- ----- ------ ---- --- sunspots. --<br>------ - ---- -- --- ----------- ------- ---- ----- -----<br>--- -------- - ------ ---- -- ----- ---- --- --- -----------<br>-- -------,1621258.8999999985,1621258.299999997,1620390.277,1620395.0999999978,1620397.293,1621265.294,,34,sunspots.
screen,html.Screen,2_3_1_0_1_35,2022-02-02T12:42:48.585Z,,,,,,,,,,,,,,,,,2,,,,,,,,,,,,,,601.0059999970254,,response,,,,1,A,,,,,,Space,keypress(Space),,,,silence,,,,--- ---- ------ --- ------- ---------- ------- ----------<br>--- --------- --- ----------- ------- ----- ------- ---<br>--------- ---- -- --- ---- -- --------- -- ---- -------<br>-- --------- ------ --- ----- ------ ---- --- --------- He<br>------ - ---- -- --- ----------- ------- ---- ----- -----<br>--- -------- - ------ ---- -- ----- ---- --- --- -----------<br>-- -------,1621867,1621866.299999997,1621258.305,1621259,1621265.294,1621869.504,,35,He
screen,html.Screen,2_3_1_0_1_36,2022-02-02T12:42:49.033Z,,,,,,,,,,,,,,,,,2,,,,,,,,,,,,,,444.7959999970626,,response,,,,1,A,,,,,,Space,keypress(Space),,,,silence,,,,--- ---- ------ --- ------- ---------- ------- ----------<br>--- --------- --- ----------- ------- ----- ------- ---<br>--------- ---- -- --- ---- -- --------- -- ---- -------<br>-- --------- ------ --- ----- ------ ---- --- --------- --<br>jotted - ---- -- --- ----------- ------- ---- ----- -----<br>--- -------- - ------ ---- -- ----- ---- --- --- -----------<br>-- -------,1622314.8999999985,1622314.299999997,1621862.472,1621867,1621869.504,1622320.834,,36,jotted
