sender,sender_type,sender_id,timestamp,meta,,Blues,Classical,Country,Dance,Electronic,Folk,Gospel,Hip-Hop,Jazz,Latin,Musical/Film,New-age,Pop,Prolific_id,Provo_ID,R&B,Rap,Reggae,Religious,Rock,Soul,Swing,Traditional,age,artist_name,correct,correctResponse,distraction,duration,education,ended_on,familiarity,gender,headphone_check_performance,item,list,music_frequency,offensiveness,pleasantness,position_correct,preference,response,response_action,snippet_file,song_name,song_rating,sound,stimulus_1,stimulus_2,stimulus_3,text,time_commit,time_end,time_render,time_run,time_show,time_switch,url,word,word_ID
Prolific ID,html.Form,0,2022-02-02T16:05:41.179Z,"{""labjs_version"":""20.2.2"",""labjs_build"":{""flavor"":""production"",""commit"":""a25486e0c714a0ae2ce03ff94b7bb6896854dcfa""},""location"":""https://run.pavlovia.org/mvasilev/prolific2_music_d/"",""userAgent"":""Mozilla/5.0 (Windows NT 10.0; Win64; x64) AppleWebKit/537.36 (KHTML, like Gecko) Chrome/97.0.4692.99 Safari/537.36"",""platform"":""Win32"",""language"":""en-GB"",""locale"":""en-GB"",""timeZone"":""Europe/London"",""timezoneOffset"":0,""screen_width"":1536,""screen_height"":864,""scroll_width"":1536,""scroll_height"":674,""window_innerWidth"":1536,""window_innerHeight"":722,""devicePixelRatio"":1.25}",,,,,,,,,,,,,,,5d41d708128a05000183c461,,,,,,,,,,,,,,,5415.19299999702,,form submission,,,,,,,,,,,,,,,,,,,,,14490.89999999106,14490.29999999702,9058.439,9064.20000000298,9075.107,14491.732,{},,
Introduction,html.Screen,1_0,2022-02-02T16:05:46.266Z,,,,,,,,,,,,,,,,,,,,,,,,,,,,,,,5081.667999991059,,response,,,,,,,,,,,continue,click button,,,,,,,,,19577.79999999702,19573.39999999106,14475.346,14491.39999999106,14491.732,19601.453,,,
Volume calibration,html.Screen,1_1,2022-02-02T16:06:25.004Z,,,,,,,,,,,,,,,,,,,,,,,,,,,,,,,38713.14699999404,,response,,,,,,,,,,,continue,click button,,,,,,,,,58318.70000000298,58314.59999999404,19558.679,19578.09999999404,19601.453,58325.077,,,
Task instructions,html.Screen,1_2,2022-02-02T16:06:35.388Z,,,,,,,,,,,,,,,,,,,,,,,,,,,,,,,10376.123000002983,,response,,,,,,,,,,,continue,click button,,,,,,,,,68702.70000000298,68701.20000000298,58308.693,58318.89999999106,58325.077,68708.473,,,
Sounds,html.Screen,1_3_0_0,2022-02-02T16:06:39.631Z,,,,,,,,,,,,,,,,,,,,,,,,,,,,,,,4250.210999999996,,timeout,,,,,,,,,1,,,,,,,,S,O,I,,72946.09999999404,72941.907,68691.826,68703,68708.473,72958.684,,,
Judgement,html.Screen,1_3_0_1,2022-02-02T16:06:44.326Z,,,,,,,,,,,,,,,,,,,,,,,,,,,,true,1,,4681.2159999910655,,response,,,,,,,,,1,,1,click #choice-1,,,,,S,O,I,,77641.29999999702,77639.89999999106,72941.907,72946.29999999702,72958.684,77667.171,,,
Trial,flow.Sequence,1_3_0,2022-02-02T16:06:44.330Z,,,,,,,,,,,,,,,,,,,,,,,,,,,,,,,8931.426999991061,,completion,,,,,,,,,1,,,,,,,,S,O,I,,77644.5,77639.89999999106,68691.826,68702.89999999106,68708.473,77667.171,,,
Sounds,html.Screen,1_3_1_0,2022-02-02T16:06:48.594Z,,,,,,,,,,,,,,,,,,,,,,,,,,,,,,,4258.190999999992,,timeout,,,,,,,,,1,,,,,,,,S,I,O,,81909.39999999106,81908.634,77625.427,77644.89999999106,77667.171,81925.362,,,
Judgement,html.Screen,1_3_1_1,2022-02-02T16:06:49.960Z,,,,,,,,,,,,,,,,,,,,,,,,,,,,true,1,,1347.6380000000063,,response,,,,,,,,,1,,1,click #choice-1,,,,,S,I,O,,83274.59999999404,83273,81908.634,81909.70000000298,81925.362,83296.975,,,
Trial,flow.Sequence,1_3_1,2022-02-02T16:06:49.960Z,,,,,,,,,,,,,,,,,,,,,,,,,,,,,,,5605.828999999998,,completion,,,,,,,,,1,,,,,,,,S,I,O,,83275.09999999404,83273,77625.427,77644.79999999702,77667.171,83296.975,,,
Sounds,html.Screen,1_3_2_0,2022-02-02T16:06:54.211Z,,,,,,,,,,,,,,,,,,,,,,,,,,,,,,,4244.948999999993,,timeout,,,,,,,,,2,,,,,,,,I,S,O,,87526.39999999106,87525.174,83258.599,83275.29999999702,83296.975,87541.924,,,
Judgement,html.Screen,1_3_2_1,2022-02-02T16:06:55.420Z,,,,,,,,,,,,,,,,,,,,,,,,,,,,true,2,,1191.7760000029812,,response,,,,,,,,,2,,2,click #choice-2,,,,,I,S,O,,88735.09999999404,88733.70000000298,87525.174,87526.5,87541.924,88741.858,,,
Trial,flow.Sequence,1_3_2,2022-02-02T16:06:55.420Z,,,,,,,,,,,,,,,,,,,,,,,,,,,,,,,5436.725000002974,,completion,,,,,,,,,2,,,,,,,,I,S,O,,88735.39999999106,88733.70000000298,83258.599,83275.20000000298,83296.975,88741.858,,,
Sounds,html.Screen,1_3_3_0,2022-02-02T16:06:59.661Z,,,,,,,,,,,,,,,,,,,,,,,,,,,,,,,4249.895000000004,,timeout,,,,,,,,,3,,,,,,,,I,O,S,,92976.29999999702,92975.371,88725.172,88735.59999999404,88741.858,92991.753,,,
Judgement,html.Screen,1_3_3_1,2022-02-02T16:07:00.732Z,,,,,,,,,,,,,,,,,,,,,,,,,,,,true,3,,1053.8469999940426,,response,,,,,,,,,3,,3,click #choice-3,,,,,I,O,S,,94047,94045.59999999404,92975.371,92976.39999999106,92991.753,94058.584,,,
Trial,flow.Sequence,1_3_3,2022-02-02T16:07:00.732Z,,,,,,,,,,,,,,,,,,,,,,,,,,,,,,,5303.741999994047,,completion,,,,,,,,,3,,,,,,,,I,O,S,,94047.29999999702,94045.59999999404,88725.172,88735.5,88741.858,94058.584,,,
Sounds,html.Screen,1_3_4_0,2022-02-02T16:07:04.980Z,,,,,,,,,,,,,,,,,,,,,,,,,,,,,,,4250.104999999996,,timeout,,,,,,,,,3,,,,,,,,O,I,S,,98292.89999999106,98291.893,94041.807,94047.5,94058.584,98308.689,,,
Judgement,html.Screen,1_3_4_1,2022-02-02T16:07:06.221Z,,,,,,,,,,,,,,,,,,,,,,,,,,,,true,3,,1223.8110000000015,,response,,,,,,,,,3,,3,click #choice-3,,,,,O,I,S,,99533.70000000298,99532.5,98291.893,98293.20000000298,98308.689,99541.793,,,
Trial,flow.Sequence,1_3_4,2022-02-02T16:07:06.223Z,,,,,,,,,,,,,,,,,,,,,,,,,,,,,,,5473.915999999997,,completion,,,,,,,,,3,,,,,,,,O,I,S,,99535.09999999404,99532.5,94041.807,94047.39999999106,94058.584,99541.793,,,
Sounds,html.Screen,1_3_5_0,2022-02-02T16:07:10.464Z,,,,,,,,,,,,,,,,,,,,,,,,,,,,,,,4250.051999999996,,timeout,,,,,,,,,2,,,,,,,,O,S,I,,103776.09999999404,103775.363,99525.242,99535.29999999702,99541.793,103791.845,,,
Judgement,html.Screen,1_3_5_1,2022-02-02T16:07:11.256Z,,,,,,,,,,,,,,,,,,,,,,,,,,,,true,2,,774.8550000029791,,response,,,,,,,,,2,,2,click #choice-2,,,,,O,S,I,,104568.09999999404,104566.70000000298,103775.363,103776.29999999702,103791.845,104575.079,,,
Trial,flow.Sequence,1_3_5,2022-02-02T16:07:11.256Z,,,,,,,,,,,,,,,,,,,,,,,,,,,,,,,5024.907000002975,,completion,,,,,,,,,2,,,,,,,,O,S,I,,104568.29999999702,104566.70000000298,99525.242,99535.29999999702,99541.793,104575.079,,,
Task,flow.Loop,1_3,2022-02-02T16:07:11.262Z,,,,,,,,,,,,,,,,,,,,,,,,,,,,,,,35858.22700000298,,completion,,,1,,,,,,,,,,,,,,,,,,104575,104566.70000000298,68691.826,68702.89999999106,68708.473,104575.079,,,
Trap,html.Screen,1_4,2022-02-02T16:07:11.265Z,,,,,,,,,,,,,,,,,,,,,,,,,,,,,,,NaN,,skipped,,,,,,,,,,,,,,,,,,,,,104577.09999999404,104566.70000000298,,104576.89999999106,,104575.079,,,
Thanks,html.Screen,1_5,2022-02-02T16:07:14.524Z,,,,,,,,,,,,,,,,,,,,,,,,,,,,,,,3259.921000000002,,response,,,,,,,,,,,continue,click button,,,,,,,,,107836.29999999702,107835,104558.462,104577.29999999702,104575.079,112025.182,,,
Headphone screening,flow.Sequence,1,2022-02-02T16:07:14.524Z,,,,,,,,,,,,,,,,,,,,,,,,,,,,,,,93343.268,,completion,,,,,,,,,,,,,,,,,,,,,107836.5,107835,14475.346,14491.29999999702,14491.732,112025.182,,,
Instructions,html.Page,2_0,2022-02-02T16:07:36.787Z,,,,,,,,,,,,,,,,,,,,,,,,,,,,,,,18074.318,,form submission,,,,,,,,,,,,,,,,,,,,,130099.79999999702,130099.5,112008.447,112030.29999999702,112025.182,130108.431,,,
Holding screen,html.Screen,2_1_0_0,2022-02-02T16:07:46.780Z,,,,,,,,,,,,,,,,,,,,,,,,,,,,,,,10000.01400000001,,timeout,,,,,,,,,,,,,,,,,,,,,140092.89999999106,140091.923,130091.931,130100.09999999404,130108.431,140108.445,,,
screen,html.Screen,2_1_0_1_0,2022-02-02T16:07:48.064Z,,,,,,,,,,,,,,,,,53,,,,,,,,,,,,,,1264.554999999993,,response,,,,99,,,,,,,Space,keypress(Space),,,,,,,,When -- ----- -- ------ - ------- --- ----------<br>------------- ------ ------ ---- ---- ------- ----- -- ----<br>-------- ------- -- ---------- --- - --- ----- ----- ----<br>---- --- --- ----- --- ---- ---- ------- ----- ---- -------<br>--- --- -- ----- -- --- ---- -- --- ---- -- ------ ------<br>--- ----- -- ----,141376.70000000298,141373,140091.923,140093.09999999404,140108.445,141391.808,,0,When
screen,html.Screen,2_1_0_1_1,2022-02-02T16:07:48.861Z,,,,,,,,,,,,,,,,,53,,,,,,,,,,,,,,780.7919999940495,,response,,,,99,,,,,,,Space,keypress(Space),,,,,,,,---- it ----- -- ------ - ------- --- ----------<br>------------- ------ ------ ---- ---- ------- ----- -- ----<br>-------- ------- -- ---------- --- - --- ----- ----- ----<br>---- --- --- ----- --- ---- ---- ------- ----- ---- -------<br>--- --- -- ----- -- --- ---- -- --- ---- -- ------ ------<br>--- ----- -- ----,142173.39999999106,142172.59999999404,141375.241,141376.79999999702,141391.808,142175.139,,1,it
screen,html.Screen,2_1_0_1_2,2022-02-02T16:07:49.855Z,,,,,,,,,,,,,,,,,53,,,,,,,,,,,,,,991.5610000029847,,response,,,,99,,,,,,,Space,keypress(Space),,,,,,,,---- -- comes -- ------ - ------- --- ----------<br>------------- ------ ------ ---- ---- ------- ----- -- ----<br>-------- ------- -- ---------- --- - --- ----- ----- ----<br>---- --- --- ----- --- ---- ---- ------- ----- ---- -------<br>--- --- -- ----- -- --- ---- -- --- ---- -- ------ ------<br>--- ----- -- ----,143167.70000000298,143166.70000000298,142158.567,142173.5,142175.139,143175.139,,2,comes
screen,html.Screen,2_1_0_1_3,2022-02-02T16:07:50.471Z,,,,,,,,,,,,,,,,,53,,,,,,,,,,,,,,607.0610000029847,,response,,,,99,,,,,,,Space,keypress(Space),,,,,,,,---- -- ----- to ------ - ------- --- ----------<br>------------- ------ ------ ---- ---- ------- ----- -- ----<br>-------- ------- -- ---------- --- - --- ----- ----- ----<br>---- --- --- ----- --- ---- ---- ------- ----- ---- -------<br>--- --- -- ----- -- --- ---- -- --- ---- -- ------ ------<br>--- ----- -- ----,143783.20000000298,143782.20000000298,143158.606,143167.79999999702,143175.139,143791.805,,3,to
screen,html.Screen,2_1_0_1_4,2022-02-02T16:07:51.375Z,,,,,,,,,,,,,,,,,53,,,,,,,,,,,,,,894.8950000029872,,response,,,,99,,,,,,,Space,keypress(Space),,,,,,,,---- -- ----- -- having - ------- --- ----------<br>------------- ------ ------ ---- ---- ------- ----- -- ----<br>-------- ------- -- ---------- --- - --- ----- ----- ----<br>---- --- --- ----- --- ---- ---- ------- ----- ---- -------<br>--- --- -- ----- -- --- ---- -- --- ---- -- ------ ------<br>--- ----- -- ----,144687.39999999106,144686.70000000298,143775.313,143783.29999999702,143791.805,144691.808,,4,having
screen,html.Screen,2_1_0_1_5,2022-02-02T16:07:51.950Z,,,,,,,,,,,,,,,,,53,,,,,,,,,,,,,,569.8920000029902,,response,,,,99,,,,,,,Space,keypress(Space),,,,,,,,---- -- ----- -- ------ a ------- --- ----------<br>------------- ------ ------ ---- ---- ------- ----- -- ----<br>-------- ------- -- ---------- --- - --- ----- ----- ----<br>---- --- --- ----- --- ---- ---- ------- ----- ---- -------<br>--- --- -- ----- -- --- ---- -- --- ---- -- ------ ------<br>--- ----- -- ----,145262.5,145261.70000000298,144675.305,144687.59999999404,144691.808,145269.279,,5,a
screen,html.Screen,2_1_0_1_6,2022-02-02T16:07:52.565Z,,,,,,,,,,,,,,,,,53,,,,,,,,,,,,,,607.0209999970102,,response,,,,99,,,,,,,Space,keypress(Space),,,,,,,,---- -- ----- -- ------ - lasting --- ----------<br>------------- ------ ------ ---- ---- ------- ----- -- ----<br>-------- ------- -- ---------- --- - --- ----- ----- ----<br>---- --- --- ----- --- ---- ---- ------- ----- ---- -------<br>--- --- -- ----- -- --- ---- -- --- ---- -- ------ ------<br>--- ----- -- ----,145877.09999999404,145876.29999999702,145258.622,145262.70000000298,145269.279,145891.944,,6,lasting
screen,html.Screen,2_1_0_1_7,2022-02-02T16:07:52.999Z,,,,,,,,,,,,,,,,,53,,,,,,,,,,,,,,419.15599999405094,,response,,,,99,,,,,,,Space,keypress(Space),,,,,,,,---- -- ----- -- ------ - ------- and ----------<br>------------- ------ ------ ---- ---- ------- ----- -- ----<br>-------- ------- -- ---------- --- - --- ----- ----- ----<br>---- --- --- ----- --- ---- ---- ------- ----- ---- -------<br>--- --- -- ----- -- --- ---- -- --- ---- -- ------ ------<br>--- ----- -- ----,146311.89999999106,146311.09999999404,145875.336,145877.29999999702,145891.944,146325.374,,7,and
screen,html.Screen,2_1_0_1_8,2022-02-02T16:07:53.639Z,,,,,,,,,,,,,,,,,53,,,,,,,,,,,,,,625.9259999970091,,response,,,,99,,,,,,,Space,keypress(Space),,,,,,,,---- -- ----- -- ------ - ------- --- fulfilling<br>------------- ------ ------ ---- ---- ------- ----- -- ----<br>-------- ------- -- ---------- --- - --- ----- ----- ----<br>---- --- --- ----- --- ---- ---- ------- ----- ---- -------<br>--- --- -- ----- -- --- ---- -- --- ---- -- ------ ------<br>--- ----- -- ----,146952,146951.29999999702,146308.547,146312.20000000298,146325.374,146958.605,,8,fulfilling
screen,html.Screen,2_1_0_1_9,2022-02-02T16:07:54.415Z,,,,,,,,,,,,,,,,,53,,,,,,,,,,,,,,767.9949999940291,,response,,,,99,,,,,,,Space,keypress(Space),,,,,,,,"---- -- ----- -- ------ - ------- --- ----------<br>relationship, ------ ------ ---- ---- ------- ----- -- ----<br>-------- ------- -- ---------- --- - --- ----- ----- ----<br>---- --- --- ----- --- ---- ---- ------- ----- ---- -------<br>--- --- -- ----- -- --- ---- -- --- ---- -- ------ ------<br>--- ----- -- ----",147727.29999999702,147726.59999999404,146941.904,146952.09999999404,146958.605,147741.788,,9,"relationship,"
screen,html.Screen,2_1_0_1_10,2022-02-02T16:07:54.939Z,,,,,,,,,,,,,,,,,53,,,,,,,,,,,,,,509.11199999105884,,response,,,,99,,,,,,,Space,keypress(Space),,,,,,,,---- -- ----- -- ------ - ------- --- ----------<br>------------- common ------ ---- ---- ------- ----- -- ----<br>-------- ------- -- ---------- --- - --- ----- ----- ----<br>---- --- --- ----- --- ---- ---- ------- ----- ---- -------<br>--- --- -- ----- -- --- ---- -- --- ---- -- ------ ------<br>--- ----- -- ----,148251.70000000298,148250.89999999106,147725.283,147727.39999999106,147741.788,148258.574,,10,common
screen,html.Screen,2_1_0_1_11,2022-02-02T16:07:55.465Z,,,,,,,,,,,,,,,,,53,,,,,,,,,,,,,,517.7259999970265,,response,,,,99,,,,,,,Space,keypress(Space),,,,,,,,---- -- ----- -- ------ - ------- --- ----------<br>------------- ------ wisdom ---- ---- ------- ----- -- ----<br>-------- ------- -- ---------- --- - --- ----- ----- ----<br>---- --- --- ----- --- ---- ---- ------- ----- ---- -------<br>--- --- -- ----- -- --- ---- -- --- ---- -- ------ ------<br>--- ----- -- ----,148777.20000000298,148776.29999999702,148241.799,148251.89999999106,148258.574,148791.926,,11,wisdom
screen,html.Screen,2_1_0_1_12,2022-02-02T16:07:55.944Z,,,,,,,,,,,,,,,,,53,,,,,,,,,,,,,,463.7740000029735,,response,,,,99,,,,,,,Space,keypress(Space),,,,,,,,---- -- ----- -- ------ - ------- --- ----------<br>------------- ------ ------ says ---- ------- ----- -- ----<br>-------- ------- -- ---------- --- - --- ----- ----- ----<br>---- --- --- ----- --- ---- ---- ------- ----- ---- -------<br>--- --- -- ----- -- --- ---- -- --- ---- -- ------ ------<br>--- ----- -- ----,149256.70000000298,149255.70000000298,148775.232,148777.39999999106,148791.926,149258.472,,12,says
screen,html.Screen,2_1_0_1_13,2022-02-02T16:07:56.394Z,,,,,,,,,,,,,,,,,53,,,,,,,,,,,,,,447.2280000029714,,response,,,,99,,,,,,,Space,keypress(Space),,,,,,,,---- -- ----- -- ------ - ------- --- ----------<br>------------- ------ ------ ---- that ------- ----- -- ----<br>-------- ------- -- ---------- --- - --- ----- ----- ----<br>---- --- --- ----- --- ---- ---- ------- ----- ---- -------<br>--- --- -- ----- -- --- ---- -- --- ---- -- ------ ------<br>--- ----- -- ----,149706.5,149705.70000000298,149241.951,149256.79999999702,149258.472,149708.413,,13,that
screen,html.Screen,2_1_0_1_14,2022-02-02T16:07:56.864Z,,,,,,,,,,,,,,,,,53,,,,,,,,,,,,,,467.3869999970193,,response,,,,99,,,,,,,Space,keypress(Space),,,,,,,,---- -- ----- -- ------ - ------- --- ----------<br>------------- ------ ------ ---- ---- feeling ----- -- ----<br>-------- ------- -- ---------- --- - --- ----- ----- ----<br>---- --- --- ----- --- ---- ---- ------- ----- ---- -------<br>--- --- -- ----- -- --- ---- -- --- ---- -- ------ ------<br>--- ----- -- ----,150176.70000000298,150175.79999999702,149691.958,149706.59999999404,149708.413,150191.8,,14,feeling
screen,html.Screen,2_1_0_1_15,2022-02-02T16:07:57.294Z,,,,,,,,,,,,,,,,,53,,,,,,,,,,,,,,413.70000000001164,,response,,,,99,,,,,,,Space,keypress(Space),,,,,,,,---- -- ----- -- ------ - ------- --- ----------<br>------------- ------ ------ ---- ---- ------- close -- ----<br>-------- ------- -- ---------- --- - --- ----- ----- ----<br>---- --- --- ----- --- ---- ---- ------- ----- ---- -------<br>--- --- -- ----- -- --- ---- -- --- ---- -- ------ ------<br>--- ----- -- ----,150606.59999999404,150605.5,150175.261,150176.89999999106,150191.8,150608.474,,15,close
screen,html.Screen,2_1_0_1_16,2022-02-02T16:07:57.724Z,,,,,,,,,,,,,,,,,53,,,,,,,,,,,,,,427.2260000029928,,response,,,,99,,,,,,,Space,keypress(Space),,,,,,,,---- -- ----- -- ------ - ------- --- ----------<br>------------- ------ ------ ---- ---- ------- ----- to ----<br>-------- ------- -- ---------- --- - --- ----- ----- ----<br>---- --- --- ----- --- ---- ---- ------- ----- ---- -------<br>--- --- -- ----- -- --- ---- -- --- ---- -- ------ ------<br>--- ----- -- ----,151036.70000000298,151035.70000000298,150591.751,150606.89999999106,150608.474,151041.787,,16,to
screen,html.Screen,2_1_0_1_17,2022-02-02T16:07:58.150Z,,,,,,,,,,,,,,,,,53,,,,,,,,,,,,,,419.91300000296906,,response,,,,99,,,,,,,Space,keypress(Space),,,,,,,,---- -- ----- -- ------ - ------- --- ----------<br>------------- ------ ------ ---- ---- ------- ----- -- your<br>-------- ------- -- ---------- --- - --- ----- ----- ----<br>---- --- --- ----- --- ---- ---- ------- ----- ---- -------<br>--- --- -- ----- -- --- ---- -- --- ---- -- ------ ------<br>--- ----- -- ----,151462.70000000298,151461.70000000298,151025.245,151036.79999999702,151041.787,151475.323,,17,your
screen,html.Screen,2_1_0_1_18,2022-02-02T16:07:58.729Z,,,,,,,,,,,,,,,,,53,,,,,,,,,,,,,,564.676999999996,,response,,,,99,,,,,,,Space,keypress(Space),,,,,,,,---- -- ----- -- ------ - ------- --- ----------<br>------------- ------ ------ ---- ---- ------- ----- -- ----<br>romantic ------- -- ---------- --- - --- ----- ----- ----<br>---- --- --- ----- --- ---- ---- ------- ----- ---- -------<br>--- --- -- ----- -- --- ---- -- --- ---- -- ------ ------<br>--- ----- -- ----,152041.09999999404,152040,151458.598,151462.89999999106,151475.323,152058.611,,18,romantic
screen,html.Screen,2_1_0_1_19,2022-02-02T16:07:59.182Z,,,,,,,,,,,,,,,,,53,,,,,,,,,,,,,,435.18899999701534,,response,,,,99,,,,,,,Space,keypress(Space),,,,,,,,---- -- ----- -- ------ - ------- --- ----------<br>------------- ------ ------ ---- ---- ------- ----- -- ----<br>-------- partner -- ---------- --- - --- ----- ----- ----<br>---- --- --- ----- --- ---- ---- ------- ----- ---- -------<br>--- --- -- ----- -- --- ---- -- --- ---- -- ------ ------<br>--- ----- -- ----,152494.59999999404,152493.79999999702,152025.272,152041.29999999702,152058.611,152508.619,,19,partner
screen,html.Screen,2_1_0_1_20,2022-02-02T16:07:59.604Z,,,,,,,,,,,,,,,,,53,,,,,,,,,,,,,,406.78099999105325,,response,,,,99,,,,,,,Space,keypress(Space),,,,,,,,---- -- ----- -- ------ - ------- --- ----------<br>------------- ------ ------ ---- ---- ------- ----- -- ----<br>-------- ------- is ---------- --- - --- ----- ----- ----<br>---- --- --- ----- --- ---- ---- ------- ----- ---- -------<br>--- --- -- ----- -- --- ---- -- --- ---- -- ------ ------<br>--- ----- -- ----,152916.20000000298,152915.39999999106,152491.772,152494.70000000298,152508.619,152925.11,,20,is
screen,html.Screen,2_1_0_1_21,2022-02-02T16:08:00.189Z,,,,,,,,,,,,,,,,,53,,,,,,,,,,,,,,575.1899999970337,,response,,,,99,,,,,,,Space,keypress(Space),,,,,,,,---- -- ----- -- ------ - ------- --- ----------<br>------------- ------ ------ ---- ---- ------- ----- -- ----<br>-------- ------- -- paramount. --- - --- ----- ----- ----<br>---- --- --- ----- --- ---- ---- ------- ----- ---- -------<br>--- --- -- ----- -- --- ---- -- --- ---- -- ------ ------<br>--- ----- -- ----,153501.09999999404,153500.29999999702,152908.42,152916.39999999106,152925.11,153508.405,,21,paramount.
screen,html.Screen,2_1_0_1_22,2022-02-02T16:08:00.843Z,,,,,,,,,,,,,,,,,53,,,,,,,,,,,,,,646.3949999970209,,response,,,,99,,,,,,,Space,keypress(Space),,,,,,,,---- -- ----- -- ------ - ------- --- ----------<br>------------- ------ ------ ---- ---- ------- ----- -- ----<br>-------- ------- -- ---------- But - --- ----- ----- ----<br>---- --- --- ----- --- ---- ---- ------- ----- ---- -------<br>--- --- -- ----- -- --- ---- -- --- ---- -- ------ ------<br>--- ----- -- ----,154155.59999999404,154154.79999999702,153491.922,153501.29999999702,153508.405,154158.406,,22,But
screen,html.Screen,2_1_0_1_23,2022-02-02T16:08:01.293Z,,,,,,,,,,,,,,,,,53,,,,,,,,,,,,,,446.2940000029921,,response,,,,99,,,,,,,Space,keypress(Space),,,,,,,,---- -- ----- -- ------ - ------- --- ----------<br>------------- ------ ------ ---- ---- ------- ----- -- ----<br>-------- ------- -- ---------- --- a --- ----- ----- ----<br>---- --- --- ----- --- ---- ---- ------- ----- ---- -------<br>--- --- -- ----- -- --- ---- -- --- ---- -- ------ ------<br>--- ----- -- ----,154605.5,154604.70000000298,154141.884,154155.70000000298,154158.406,154608.471,,23,a
screen,html.Screen,2_1_0_1_24,2022-02-02T16:08:01.713Z,,,,,,,,,,,,,,,,,53,,,,,,,,,,,,,,416.02900000000955,,response,,,,99,,,,,,,Space,keypress(Space),,,,,,,,---- -- ----- -- ------ - ------- --- ----------<br>------------- ------ ------ ---- ---- ------- ----- -- ----<br>-------- ------- -- ---------- --- - new ----- ----- ----<br>---- --- --- ----- --- ---- ---- ------- ----- ---- -------<br>--- --- -- ----- -- --- ---- -- --- ---- -- ------ ------<br>--- ----- -- ----,155025.5,155024.5,154591.94,154605.70000000298,154608.471,155041.83,,24,new
screen,html.Screen,2_1_0_1_25,2022-02-02T16:08:02.159Z,,,,,,,,,,,,,,,,,53,,,,,,,,,,,,,,429.0699999910721,,response,,,,99,,,,,,,Space,keypress(Space),,,,,,,,---- -- ----- -- ------ - ------- --- ----------<br>------------- ------ ------ ---- ---- ------- ----- -- ----<br>-------- ------- -- ---------- --- - --- study ----- ----<br>---- --- --- ----- --- ---- ---- ------- ----- ---- -------<br>--- --- -- ----- -- --- ---- -- --- ---- -- ------ ------<br>--- ----- -- ----,155471.70000000298,155470.89999999106,155025.269,155025.59999999404,155041.83,155475.108,,25,study
screen,html.Screen,2_1_0_1_26,2022-02-02T16:08:02.542Z,,,,,,,,,,,,,,,,,53,,,,,,,,,,,,,,379.29199999105185,,response,,,,99,,,,,,,Space,keypress(Space),,,,,,,,---- -- ----- -- ------ - ------- --- ----------<br>------------- ------ ------ ---- ---- ------- ----- -- ----<br>-------- ------- -- ---------- --- - --- ----- finds ----<br>---- --- --- ----- --- ---- ---- ------- ----- ---- -------<br>--- --- -- ----- -- --- ---- -- --- ---- -- ------ ------<br>--- ----- -- ----,155855,155854.39999999106,155458.579,155472,155475.108,155858.409,,26,finds
screen,html.Screen,2_1_0_1_27,2022-02-02T16:08:03.003Z,,,,,,,,,,,,,,,,,53,,,,,,,,,,,,,,455.9909999910451,,response,,,,99,,,,,,,Space,keypress(Space),,,,,,,,---- -- ----- -- ------ - ------- --- ----------<br>------------- ------ ------ ---- ---- ------- ----- -- ----<br>-------- ------- -- ---------- --- - --- ----- ----- that<br>---- --- --- ----- --- ---- ---- ------- ----- ---- -------<br>--- --- -- ----- -- --- ---- -- --- ---- -- ------ ------<br>--- ----- -- ----,156315.29999999702,156314.39999999106,155842.036,155855.20000000298,155858.409,156325.192,,27,that
screen,html.Screen,2_1_0_1_28,2022-02-02T16:08:03.518Z,,,,,,,,,,,,,,,,,53,,,,,,,,,,,,,,504.7079999910493,,response,,,,99,,,,,,,Space,keypress(Space),,,,,,,,---- -- ----- -- ------ - ------- --- ----------<br>------------- ------ ------ ---- ---- ------- ----- -- ----<br>-------- ------- -- ---------- --- - --- ----- ----- ----<br>it's --- --- ----- --- ---- ---- ------- ----- ---- -------<br>--- --- -- ----- -- --- ---- -- --- ---- -- ------ ------<br>--- ----- -- ----,156830.79999999702,156829.89999999106,156308.459,156315.39999999106,156325.192,156841.929,,28,it's
screen,html.Screen,2_1_0_1_29,2022-02-02T16:08:03.943Z,,,,,,,,,,,,,,,,,53,,,,,,,,,,,,,,412.2710000029765,,response,,,,99,,,,,,,Space,keypress(Space),,,,,,,,---- -- ----- -- ------ - ------- --- ----------<br>------------- ------ ------ ---- ---- ------- ----- -- ----<br>-------- ------- -- ---------- --- - --- ----- ----- ----<br>---- not --- ----- --- ---- ---- ------- ----- ---- -------<br>--- --- -- ----- -- --- ---- -- --- ---- -- ------ ------<br>--- ----- -- ----,157255,157254.20000000298,156825.269,156830.89999999106,156841.929,157258.445,,29,not
screen,html.Screen,2_1_0_1_30,2022-02-02T16:08:04.292Z,,,,,,,,,,,,,,,,,53,,,,,,,,,,,,,,345.554999999993,,response,,,,99,,,,,,,Space,keypress(Space),,,,,,,,---- -- ----- -- ------ - ------- --- ----------<br>------------- ------ ------ ---- ---- ------- ----- -- ----<br>-------- ------- -- ---------- --- - --- ----- ----- ----<br>---- --- how ----- --- ---- ---- ------- ----- ---- -------<br>--- --- -- ----- -- --- ---- -- --- ---- -- ------ ------<br>--- ----- -- ----,157604.89999999106,157604,157241.89,157255.20000000298,157258.445,157608.474,,30,how
screen,html.Screen,2_1_0_1_31,2022-02-02T16:08:04.728Z,,,,,,,,,,,,,,,,,53,,,,,,,,,,,,,,431.32599999703234,,response,,,,99,,,,,,,Space,keypress(Space),,,,,,,,---- -- ----- -- ------ - ------- --- ----------<br>------------- ------ ------ ---- ---- ------- ----- -- ----<br>-------- ------- -- ---------- --- - --- ----- ----- ----<br>---- --- --- close --- ---- ---- ------- ----- ---- -------<br>--- --- -- ----- -- --- ---- -- --- ---- -- ------ ------<br>--- ----- -- ----,158040.39999999106,158039.79999999702,157591.891,157605,157608.474,158041.825,,31,close
screen,html.Screen,2_1_0_1_32,2022-02-02T16:08:05.098Z,,,,,,,,,,,,,,,,,53,,,,,,,,,,,,,,368.8750000029686,,response,,,,99,,,,,,,Space,keypress(Space),,,,,,,,---- -- ----- -- ------ - ------- --- ----------<br>------------- ------ ------ ---- ---- ------- ----- -- ----<br>-------- ------- -- ---------- --- - --- ----- ----- ----<br>---- --- --- ----- you ---- ---- ------- ----- ---- -------<br>--- --- -- ----- -- --- ---- -- --- ---- -- ------ ------<br>--- ----- -- ----,158411.5,158410.70000000298,158025.149,158040.5,158041.825,158425.309,,32,you
screen,html.Screen,2_1_0_1_33,2022-02-02T16:08:05.576Z,,,,,,,,,,,,,,,,,53,,,,,,,,,,,,,,463.79099999403115,,response,,,,99,,,,,,,Space,keypress(Space),,,,,,,,---- -- ----- -- ------ - ------- --- ----------<br>------------- ------ ------ ---- ---- ------- ----- -- ----<br>-------- ------- -- ---------- --- - --- ----- ----- ----<br>---- --- --- ----- --- feel ---- ------- ----- ---- -------<br>--- --- -- ----- -- --- ---- -- --- ---- -- ------ ------<br>--- ----- -- ----,158890,158889.09999999404,158408.647,158411.70000000298,158425.309,158891.808,,33,feel
screen,html.Screen,2_1_0_1_34,2022-02-02T16:08:05.991Z,,,,,,,,,,,,,,,,,53,,,,,,,,,,,,,,412.19200000001,,response,,,,99,,,,,,,Space,keypress(Space),,,,,,,,---- -- ----- -- ------ - ------- --- ----------<br>------------- ------ ------ ---- ---- ------- ----- -- ----<br>-------- ------- -- ---------- --- - --- ----- ----- ----<br>---- --- --- ----- --- ---- that ------- ----- ---- -------<br>--- --- -- ----- -- --- ---- -- --- ---- -- ------ ------<br>--- ----- -- ----,159304.79999999702,159304,158875.272,158890.09999999404,158891.808,159308.489,,34,that
screen,html.Screen,2_1_0_1_35,2022-02-02T16:08:06.341Z,,,,,,,,,,,,,,,,,53,,,,,,,,,,,,,,345.4109999910579,,response,,,,99,,,,,,,Space,keypress(Space),,,,,,,,---- -- ----- -- ------ - ------- --- ----------<br>------------- ------ ------ ---- ---- ------- ----- -- ----<br>-------- ------- -- ---------- --- - --- ----- ----- ----<br>---- --- --- ----- --- ---- ---- matters ----- ---- -------<br>--- --- -- ----- -- --- ---- -- --- ---- -- ------ ------<br>--- ----- -- ----,159654.79999999702,159653.89999999106,159291.765,159305,159308.489,159658.473,,35,matters
screen,html.Screen,2_1_0_1_36,2022-02-02T16:08:07.092Z,,,,,,,,,,,,,,,,,53,,,,,,,,,,,,,,746.1269999940414,,response,,,,99,,,,,,,Space,keypress(Space),,,,,,,,"---- -- ----- -- ------ - ------- --- ----------<br>------------- ------ ------ ---- ---- ------- ----- -- ----<br>-------- ------- -- ---------- --- - --- ----- ----- ----<br>---- --- --- ----- --- ---- ---- ------- most, ---- -------<br>--- --- -- ----- -- --- ---- -- --- ---- -- ------ ------<br>--- ----- -- ----",160405.70000000298,160404.59999999404,159641.932,159655,159658.473,160408.411,,36,"most,"
screen,html.Screen,2_1_0_1_37,2022-02-02T16:08:07.501Z,,,,,,,,,,,,,,,,,53,,,,,,,,,,,,,,405.888999997027,,response,,,,99,,,,,,,Space,keypress(Space),,,,,,,,---- -- ----- -- ------ - ------- --- ----------<br>------------- ------ ------ ---- ---- ------- ----- -- ----<br>-------- ------- -- ---------- --- - --- ----- ----- ----<br>---- --- --- ----- --- ---- ---- ------- ----- it's -------<br>--- --- -- ----- -- --- ---- -- --- ---- -- ------ ------<br>--- ----- -- ----,160815.09999999404,160814.29999999702,160391.807,160405.89999999106,160408.411,160825.309,,37,it's
screen,html.Screen,2_1_0_1_38,2022-02-02T16:08:07.971Z,,,,,,,,,,,,,,,,,53,,,,,,,,,,,,,,458.9909999970114,,response,,,,99,,,,,,,Space,keypress(Space),,,,,,,,---- -- ----- -- ------ - ------- --- ----------<br>------------- ------ ------ ---- ---- ------- ----- -- ----<br>-------- ------- -- ---------- --- - --- ----- ----- ----<br>---- --- --- ----- --- ---- ---- ------- ----- ---- whether<br>--- --- -- ----- -- --- ---- -- --- ---- -- ------ ------<br>--- ----- -- ----,161285.29999999702,161284.29999999702,160808.413,160815.20000000298,160825.309,161291.825,,38,whether
screen,html.Screen,2_1_0_1_39,2022-02-02T16:08:08.411Z,,,,,,,,,,,,,,,,,53,,,,,,,,,,,,,,432.4749999970081,,response,,,,99,,,,,,,Space,keypress(Space),,,,,,,,---- -- ----- -- ------ - ------- --- ----------<br>------------- ------ ------ ---- ---- ------- ----- -- ----<br>-------- ------- -- ---------- --- - --- ----- ----- ----<br>---- --- --- ----- --- ---- ---- ------- ----- ---- -------<br>you --- -- ----- -- --- ---- -- --- ---- -- ------ ------<br>--- ----- -- ----,161725.20000000298,161724.29999999702,161275.261,161285.5,161291.825,161741.94,,39,you
screen,html.Screen,2_1_0_1_40,2022-02-02T16:08:08.811Z,,,,,,,,,,,,,,,,,53,,,,,,,,,,,,,,381.85999999701744,,response,,,,99,,,,,,,Space,keypress(Space),,,,,,,,---- -- ----- -- ------ - ------- --- ----------<br>------------- ------ ------ ---- ---- ------- ----- -- ----<br>-------- ------- -- ---------- --- - --- ----- ----- ----<br>---- --- --- ----- --- ---- ---- ------- ----- ---- -------<br>--- are -- ----- -- --- ---- -- --- ---- -- ------ ------<br>--- ----- -- ----,162124.70000000298,162123.79999999702,161725.127,161725.29999999702,161741.94,162141.936,,40,are
screen,html.Screen,2_1_0_1_41,2022-02-02T16:08:09.191Z,,,,,,,,,,,,,,,,,53,,,,,,,,,,,,,,362.06400000001304,,response,,,,99,,,,,,,Space,keypress(Space),,,,,,,,---- -- ----- -- ------ - ------- --- ----------<br>------------- ------ ------ ---- ---- ------- ----- -- ----<br>-------- ------- -- ---------- --- - --- ----- ----- ----<br>---- --- --- ----- --- ---- ---- ------- ----- ---- -------<br>--- --- as ----- -- --- ---- -- --- ---- -- ------ ------<br>--- ----- -- ----,162504.79999999702,162504,162125.255,162124.89999999106,162141.936,162508.438,,41,as
screen,html.Screen,2_1_0_1_42,2022-02-02T16:08:09.606Z,,,,,,,,,,,,,,,,,53,,,,,,,,,,,,,,410.1619999940449,,response,,,,99,,,,,,,Space,keypress(Space),,,,,,,,---- -- ----- -- ------ - ------- --- ----------<br>------------- ------ ------ ---- ---- ------- ----- -- ----<br>-------- ------- -- ---------- --- - --- ----- ----- ----<br>---- --- --- ----- --- ---- ---- ------- ----- ---- -------<br>--- --- -- close -- --- ---- -- --- ---- -- ------ ------<br>--- ----- -- ----,162919.29999999702,162918.59999999404,162492.04,162505,162508.438,162925.197,,42,close
screen,html.Screen,2_1_0_1_43,2022-02-02T16:08:09.991Z,,,,,,,,,,,,,,,,,53,,,,,,,,,,,,,,378.80300000001444,,response,,,,99,,,,,,,Space,keypress(Space),,,,,,,,---- -- ----- -- ------ - ------- --- ----------<br>------------- ------ ------ ---- ---- ------- ----- -- ----<br>-------- ------- -- ---------- --- - --- ----- ----- ----<br>---- --- --- ----- --- ---- ---- ------- ----- ---- -------<br>--- --- -- ----- as --- ---- -- --- ---- -- ------ ------<br>--- ----- -- ----,163304.89999999106,163304,162908.717,162919.39999999106,162925.197,163308.417,,43,as
screen,html.Screen,2_1_0_1_44,2022-02-02T16:08:10.411Z,,,,,,,,,,,,,,,,,53,,,,,,,,,,,,,,415.4829999910726,,response,,,,99,,,,,,,Space,keypress(Space),,,,,,,,---- -- ----- -- ------ - ------- --- ----------<br>------------- ------ ------ ---- ---- ------- ----- -- ----<br>-------- ------- -- ---------- --- - --- ----- ----- ----<br>---- --- --- ----- --- ---- ---- ------- ----- ---- -------<br>--- --- -- ----- -- you ---- -- --- ---- -- ------ ------<br>--- ----- -- ----,163724.70000000298,163723.89999999106,163291.938,163305.09999999404,163308.417,163741.937,,44,you
screen,html.Screen,2_1_0_1_45,2022-02-02T16:08:10.800Z,,,,,,,,,,,,,,,,,53,,,,,,,,,,,,,,371.7630000029749,,response,,,,99,,,,,,,Space,keypress(Space),,,,,,,,---- -- ----- -- ------ - ------- --- ----------<br>------------- ------ ------ ---- ---- ------- ----- -- ----<br>-------- ------- -- ---------- --- - --- ----- ----- ----<br>---- --- --- ----- --- ---- ---- ------- ----- ---- -------<br>--- --- -- ----- -- --- want -- --- ---- -- ------ ------<br>--- ----- -- ----,164114.29999999702,164113.70000000298,163725.255,163724.79999999702,163741.937,164125.333,,45,want
screen,html.Screen,2_1_0_1_46,2022-02-02T16:08:11.146Z,,,,,,,,,,,,,,,,,53,,,,,,,,,,,,,,333.86700000296696,,response,,,,99,,,,,,,Space,keypress(Space),,,,,,,,---- -- ----- -- ------ - ------- --- ----------<br>------------- ------ ------ ---- ---- ------- ----- -- ----<br>-------- ------- -- ---------- --- - --- ----- ----- ----<br>---- --- --- ----- --- ---- ---- ------- ----- ---- -------<br>--- --- -- ----- -- --- ---- to --- ---- -- ------ ------<br>--- ----- -- ----,164460.20000000298,164459.20000000298,164108.551,164114.39999999106,164125.333,164475.387,,46,to
screen,html.Screen,2_1_0_1_47,2022-02-02T16:08:11.480Z,,,,,,,,,,,,,,,,,53,,,,,,,,,,,,,,318.1130000000121,,response,,,,99,,,,,,,Space,keypress(Space),,,,,,,,"---- -- ----- -- ------ - ------- --- ----------<br>------------- ------ ------ ---- ---- ------- ----- -- ----<br>-------- ------- -- ---------- --- - --- ----- ----- ----<br>---- --- --- ----- --- ---- ---- ------- ----- ---- -------<br>--- --- -- ----- -- --- ---- -- be, ---- -- ------ ------<br>--- ----- -- ----",164794.09999999404,164793.5,164458.579,164460.29999999702,164475.387,164808.571,,47,"be,"
screen,html.Screen,2_1_0_1_48,2022-02-02T16:08:11.935Z,,,,,,,,,,,,,,,,,53,,,,,,,,,,,,,,439.52899999404326,,response,,,,99,,,,,,,Space,keypress(Space),,,,,,,,---- -- ----- -- ------ - ------- --- ----------<br>------------- ------ ------ ---- ---- ------- ----- -- ----<br>-------- ------- -- ---------- --- - --- ----- ----- ----<br>---- --- --- ----- --- ---- ---- ------- ----- ---- -------<br>--- --- -- ----- -- --- ---- -- --- even -- ------ ------<br>--- ----- -- ----,165248.79999999702,165248.09999999404,164791.822,164794.20000000298,164808.571,165258.571,,48,even
screen,html.Screen,2_1_0_1_49,2022-02-02T16:08:12.156Z,,,,,,,,,,,,,,,,,53,,,,,,,,,,,,,,210.62900000298396,,response,,,,99,,,,,,,Space,keypress(Space),,,,,,,,---- -- ----- -- ------ - ------- --- ----------<br>------------- ------ ------ ---- ---- ------- ----- -- ----<br>-------- ------- -- ---------- --- - --- ----- ----- ----<br>---- --- --- ----- --- ---- ---- ------- ----- ---- -------<br>--- --- -- ----- -- --- ---- -- --- ---- if ------ ------<br>--- ----- -- ----,165469.89999999106,165469.20000000298,165241.885,165248.89999999106,165258.571,165475.159,,49,if
screen,html.Screen,2_1_0_1_50,2022-02-02T16:08:12.410Z,,,,,,,,,,,,,,,,,53,,,,,,,,,,,,,,248.14099999700557,,response,,,,99,,,,,,,Space,keypress(Space),,,,,,,,---- -- ----- -- ------ - ------- --- ----------<br>------------- ------ ------ ---- ---- ------- ----- -- ----<br>-------- ------- -- ---------- --- - --- ----- ----- ----<br>---- --- --- ----- --- ---- ---- ------- ----- ---- -------<br>--- --- -- ----- -- --- ---- -- --- ---- -- that's ------<br>--- ----- -- ----,165724.20000000298,165723.29999999702,165458.593,165470,165475.159,165747.141,,50,that's
screen,html.Screen,2_1_0_1_51,2022-02-02T16:08:12.920Z,,,,,,,,,,,,,,,,,53,,,,,,,,,,,,,,485.35899999999674,,response,,,,99,,,,,,,Space,keypress(Space),,,,,,,,---- -- ----- -- ------ - ------- --- ----------<br>------------- ------ ------ ---- ---- ------- ----- -- ----<br>-------- ------- -- ---------- --- - --- ----- ----- ----<br>---- --- --- ----- --- ---- ---- ------- ----- ---- -------<br>--- --- -- ----- -- --- ---- -- --- ---- -- ------ really<br>--- ----- -- ----,166233.39999999106,166232.5,165708.612,165724.29999999702,165747.141,166241.935,,51,really
screen,html.Screen,2_1_0_1_52,2022-02-02T16:08:13.295Z,,,,,,,,,,,,,,,,,53,,,,,,,,,,,,,,365.8649999970221,,response,,,,99,,,,,,,Space,keypress(Space),,,,,,,,---- -- ----- -- ------ - ------- --- ----------<br>------------- ------ ------ ---- ---- ------- ----- -- ----<br>-------- ------- -- ---------- --- - --- ----- ----- ----<br>---- --- --- ----- --- ---- ---- ------- ----- ---- -------<br>--- --- -- ----- -- --- ---- -- --- ---- -- ------ ------<br>not ----- -- ----,166608.59999999404,166607.79999999702,166225.303,166233.59999999404,166241.935,166625.332,,52,not
screen,html.Screen,2_1_0_1_53,2022-02-02T16:08:13.675Z,,,,,,,,,,,,,,,,,53,,,,,,,,,,,,,,362.86800000298535,,response,,,,99,,,,,,,Space,keypress(Space),,,,,,,,---- -- ----- -- ------ - ------- --- ----------<br>------------- ------ ------ ---- ---- ------- ----- -- ----<br>-------- ------- -- ---------- --- - --- ----- ----- ----<br>---- --- --- ----- --- ---- ---- ------- ----- ---- -------<br>--- --- -- ----- -- --- ---- -- --- ---- -- ------ ------<br>--- close -- ----,166989,166988.20000000298,166608.708,166608.70000000298,166625.332,166991.797,,53,close
screen,html.Screen,2_1_0_1_54,2022-02-02T16:08:14.166Z,,,,,,,,,,,,,,,,,53,,,,,,,,,,,,,,486.80299999404815,,response,,,,99,,,,,,,Space,keypress(Space),,,,,,,,---- -- ----- -- ------ - ------- --- ----------<br>------------- ------ ------ ---- ---- ------- ----- -- ----<br>-------- ------- -- ---------- --- - --- ----- ----- ----<br>---- --- --- ----- --- ---- ---- ------- ----- ---- -------<br>--- --- -- ----- -- --- ---- -- --- ---- -- ------ ------<br>--- ----- at ----,167479.59999999404,167478.59999999404,166975.247,166989.20000000298,166991.797,167491.938,,54,at
screen,html.Screen,2_1_0_1_55,2022-02-02T16:08:15.865Z,,,,,,,,,,,,,,,,,53,,,,,,,,,,,,,,1685.5620000000054,,response,,,,99,,,,,,,Space,keypress(Space),,,,,,,,---- -- ----- -- ------ - ------- --- ----------<br>------------- ------ ------ ---- ---- ------- ----- -- ----<br>-------- ------- -- ---------- --- - --- ----- ----- ----<br>---- --- --- ----- --- ---- ---- ------- ----- ---- -------<br>--- --- -- ----- -- --- ---- -- --- ---- -- ------ ------<br>--- ----- -- all.,169178.39999999106,169177.5,167475.251,167479.70000000298,167491.938,169191.751,,55,all.
Item 99,flow.Loop,2_1_0_1,2022-02-02T16:08:15.865Z,,,,,,,,,,,,,,,,,,,,,,,,,,,,,,,29069.054999999993,,completion,,,,,D,,,,,,,,,,,silence,,,,,169178.79999999702,169177.5,140091.923,140093,140108.445,169191.751,,,
Question 1,html.Screen,2_1_0_2,2022-02-02T16:08:20.942Z,,,,,,,,,,,,,,,,,,,,,,,,,,,,true,FALSE,,5063.249000000011,,response,,,,99,D,,,,,,FALSE,click #choice-2,,,,silence,,,,,174256.20000000298,174255,169175.194,169178.89999999106,169191.751,174258.421,,,
Question 2,html.Screen,2_1_0_3,2022-02-02T16:08:26.300Z,,,,,,,,,,,,,,,,,,,,,,,,,,,,true,TRUE,,5354.078999999998,,response,,,,99,D,,,,,,TRUE,click #choice-1,,,,silence,,,,,179613.70000000298,179612.5,174242.069,174256.39999999106,174258.421,179625.214,,,
Item 99,flow.Sequence,2_1_0,2022-02-02T16:08:26.300Z,,,,,,,,,,,,,,,,,,,,,,,,,,,,,,,49504.069,,completion,,,,,,,,,,,,,,,,,,,,,179614,179612.5,130091.931,130100.09999999404,130108.431,179625.214,,,
Holding screen,html.Screen,2_1_1_0,2022-02-02T16:08:36.295Z,,,,,,,,,,,,,,,,,,,,,,,,,,,,,,,9999.967000000004,,timeout,,,,,,,,,,,,,,,,,,,,,189609.29999999702,189608.569,179608.592,179614.20000000298,179625.214,189625.181,,,
screen,html.Screen,2_1_1_1_0,2022-02-02T16:08:37.192Z,,,,,,,,,,,,,,,,,54,,,,,,,,,,,,,,880.1189999970084,,response,,,,100,,,,,,,Space,keypress(Space),,,,,,,,At --- ---- --- ------ ----- ------- ---- -- --- ------- --<br>------- ---------- ------ -- ----- -- ----- -- ---- ------<br>--- ----- --- --- ------ -------- ----- --- ------ ----- --<br>----- ----- ---------- --- --- ------ ------ ---- -- ------<br>------- --- ------ ----- --- ---- ------- -- ---- --- --<br>------- ------,190506.20000000298,190505.29999999702,189608.569,189609.59999999404,189625.181,190508.493,,0,At
screen,html.Screen,2_1_1_1_1,2022-02-02T16:08:37.597Z,,,,,,,,,,,,,,,,,54,,,,,,,,,,,,,,401.7070000029926,,response,,,,100,,,,,,,Space,keypress(Space),,,,,,,,-- the ---- --- ------ ----- ------- ---- -- --- ------- --<br>------- ---------- ------ -- ----- -- ----- -- ---- ------<br>--- ----- --- --- ------ -------- ----- --- ------ ----- --<br>----- ----- ---------- --- --- ------ ------ ---- -- ------<br>------- --- ------ ----- --- ---- ------- -- ---- --- --<br>------- ------,190911,190910.20000000298,190492.042,190506.39999999106,190508.493,190925.188,,1,the
screen,html.Screen,2_1_1_1_2,2022-02-02T16:08:37.927Z,,,,,,,,,,,,,,,,,54,,,,,,,,,,,,,,314.9119999940449,,response,,,,100,,,,,,,Space,keypress(Space),,,,,,,,-- --- time --- ------ ----- ------- ---- -- --- ------- --<br>------- ---------- ------ -- ----- -- ----- -- ---- ------<br>--- ----- --- --- ------ -------- ----- --- ------ ----- --<br>----- ----- ---------- --- --- ------ ------ ---- -- ------<br>------- --- ------ ----- --- ---- ------- -- ---- --- --<br>------- ------,191240.89999999106,191240.09999999404,190908.467,190911.09999999404,190925.188,191258.579,,2,time
screen,html.Screen,2_1_1_1_3,2022-02-02T16:08:38.332Z,,,,,,,,,,,,,,,,,54,,,,,,,,,,,,,,385.9210000000021,,response,,,,100,,,,,,,Space,keypress(Space),,,,,,,,-- --- ---- the ------ ----- ------- ---- -- --- ------- --<br>------- ---------- ------ -- ----- -- ----- -- ---- ------<br>--- ----- --- --- ------ -------- ----- --- ------ ----- --<br>----- ----- ---------- --- --- ------ ------ ---- -- ------<br>------- --- ------ ----- --- ---- ------- -- ---- --- --<br>------- ------,191645.5,191644.5,191225.225,191241.09999999404,191258.579,191658.577,,3,the
screen,html.Screen,2_1_1_1_4,2022-02-02T16:08:38.767Z,,,,,,,,,,,,,,,,,54,,,,,,,,,,,,,,421.22299999702955,,response,,,,100,,,,,,,Space,keypress(Space),,,,,,,,-- --- ---- --- French ----- ------- ---- -- --- ------- --<br>------- ---------- ------ -- ----- -- ----- -- ---- ------<br>--- ----- --- --- ------ -------- ----- --- ------ ----- --<br>----- ----- ---------- --- --- ------ ------ ---- -- ------<br>------- --- ------ ----- --- ---- ------- -- ---- --- --<br>------- ------,192080.59999999404,192079.79999999702,191641.812,191645.59999999404,191658.577,192091.829,,4,French
screen,html.Screen,2_1_1_1_5,2022-02-02T16:08:39.242Z,,,,,,,,,,,,,,,,,54,,,,,,,,,,,,,,462.5709999910614,,response,,,,100,,,,,,,Space,keypress(Space),,,,,,,,-- --- ---- --- ------ crown ------- ---- -- --- ------- --<br>------- ---------- ------ -- ----- -- ----- -- ---- ------<br>--- ----- --- --- ------ -------- ----- --- ------ ----- --<br>----- ----- ---------- --- --- ------ ------ ---- -- ------<br>------- --- ------ ----- --- ---- ------- -- ---- --- --<br>------- ------,192555.29999999702,192554.39999999106,192075.382,192080.70000000298,192091.829,192558.507,,5,crown
screen,html.Screen,2_1_1_1_6,2022-02-02T16:08:39.766Z,,,,,,,,,,,,,,,,,54,,,,,,,,,,,,,,521.0929999940272,,response,,,,100,,,,,,,Space,keypress(Space),,,,,,,,-- --- ---- --- ------ ----- secured ---- -- --- ------- --<br>------- ---------- ------ -- ----- -- ----- -- ---- ------<br>--- ----- --- --- ------ -------- ----- --- ------ ----- --<br>----- ----- ---------- --- --- ------ ------ ---- -- ------<br>------- --- ------ ----- --- ---- ------- -- ---- --- --<br>------- ------,193080.20000000298,193079.59999999404,192541.92,192555.5,192558.507,193091.803,,6,secured
screen,html.Screen,2_1_1_1_7,2022-02-02T16:08:40.282Z,,,,,,,,,,,,,,,,,54,,,,,,,,,,,,,,502.7969999940251,,response,,,,100,,,,,,,Space,keypress(Space),,,,,,,,-- --- ---- --- ------ ----- ------- much -- --- ------- --<br>------- ---------- ------ -- ----- -- ----- -- ---- ------<br>--- ----- --- --- ------ -------- ----- --- ------ ----- --<br>----- ----- ---------- --- --- ------ ------ ---- -- ------<br>------- --- ------ ----- --- ---- ------- -- ---- --- --<br>------- ------,193595.39999999106,193594.59999999404,193075.269,193080.39999999106,193091.803,193608.625,,7,much
screen,html.Screen,2_1_1_1_8,2022-02-02T16:08:40.667Z,,,,,,,,,,,,,,,,,54,,,,,,,,,,,,,,371.2749999910593,,response,,,,100,,,,,,,Space,keypress(Space),,,,,,,,-- --- ---- --- ------ ----- ------- ---- of --- ------- --<br>------- ---------- ------ -- ----- -- ----- -- ---- ------<br>--- ----- --- --- ------ -------- ----- --- ------ ----- --<br>----- ----- ---------- --- --- ------ ------ ---- -- ------<br>------- --- ------ ----- --- ---- ------- -- ---- --- --<br>------- ------,193980.79999999702,193979.89999999106,193592.032,193595.5,193608.625,193992.023,,8,of
screen,html.Screen,2_1_1_1_9,2022-02-02T16:08:40.921Z,,,,,,,,,,,,,,,,,54,,,,,,,,,,,,,,242.07699999405304,,response,,,,100,,,,,,,Space,keypress(Space),,,,,,,,-- --- ---- --- ------ ----- ------- ---- -- its ------- --<br>------- ---------- ------ -- ----- -- ----- -- ---- ------<br>--- ----- --- --- ------ -------- ----- --- ------ ----- --<br>----- ----- ---------- --- --- ------ ------ ---- -- ------<br>------- --- ------ ----- --- ---- ------- -- ---- --- --<br>------- ------,194235,194234.09999999404,193975.376,193981,193992.023,194241.75,,9,its
screen,html.Screen,2_1_1_1_10,2022-02-02T16:08:41.497Z,,,,,,,,,,,,,,,,,54,,,,,,,,,,,,,,567.75,,response,,,,100,,,,,,,Space,keypress(Space),,,,,,,,-- --- ---- --- ------ ----- ------- ---- -- --- revenue --<br>------- ---------- ------ -- ----- -- ----- -- ---- ------<br>--- ----- --- --- ------ -------- ----- --- ------ ----- --<br>----- ----- ---------- --- --- ------ ------ ---- -- ------<br>------- --- ------ ----- --- ---- ------- -- ---- --- --<br>------- ------,194810.39999999106,194809.5,194225.238,194235.09999999404,194241.75,194825.381,,10,revenue
screen,html.Screen,2_1_1_1_11,2022-02-02T16:08:41.836Z,,,,,,,,,,,,,,,,,54,,,,,,,,,,,,,,323.9189999970258,,response,,,,100,,,,,,,Space,keypress(Space),,,,,,,,-- --- ---- --- ------ ----- ------- ---- -- --- ------- by<br>------- ---------- ------ -- ----- -- ----- -- ---- ------<br>--- ----- --- --- ------ -------- ----- --- ------ ----- --<br>----- ----- ---------- --- --- ------ ------ ---- -- ------<br>------- --- ------ ----- --- ---- ------- -- ---- --- --<br>------- ------,195150.20000000298,195149.29999999702,194808.491,194810.5,194825.381,195158.589,,11,by
screen,html.Screen,2_1_1_1_12,2022-02-02T16:08:42.326Z,,,,,,,,,,,,,,,,,54,,,,,,,,,,,,,,480.71099999701255,,response,,,,100,,,,,,,Space,keypress(Space),,,,,,,,-- --- ---- --- ------ ----- ------- ---- -- --- ------- --<br>issuing ---------- ------ -- ----- -- ----- -- ---- ------<br>--- ----- --- --- ------ -------- ----- --- ------ ----- --<br>----- ----- ---------- --- --- ------ ------ ---- -- ------<br>------- --- ------ ----- --- ---- ------- -- ---- --- --<br>------- ------,195640.09999999404,195639.29999999702,195141.88,195150.29999999702,195158.589,195658.912,,12,issuing
screen,html.Screen,2_1_1_1_13,2022-02-02T16:08:42.761Z,,,,,,,,,,,,,,,,,54,,,,,,,,,,,,,,415.0879999999888,,response,,,,100,,,,,,,Space,keypress(Space),,,,,,,,-- --- ---- --- ------ ----- ------- ---- -- --- ------- --<br>------- government ------ -- ----- -- ----- -- ---- ------<br>--- ----- --- --- ------ -------- ----- --- ------ ----- --<br>----- ----- ---------- --- --- ------ ------ ---- -- ------<br>------- --- ------ ----- --- ---- ------- -- ---- --- --<br>------- ------,196074.79999999702,196074,195625.273,195640.29999999702,195658.912,196091.96,,13,government
screen,html.Screen,2_1_1_1_14,2022-02-02T16:08:43.491Z,,,,,,,,,,,,,,,,,54,,,,,,,,,,,,,,712.1399999940477,,response,,,,100,,,,,,,Space,keypress(Space),,,,,,,,-- --- ---- --- ------ ----- ------- ---- -- --- ------- --<br>------- ---------- bonds. -- ----- -- ----- -- ---- ------<br>--- ----- --- --- ------ -------- ----- --- ------ ----- --<br>----- ----- ---------- --- --- ------ ------ ---- -- ------<br>------- --- ------ ----- --- ---- ------- -- ---- --- --<br>------- ------,196804.89999999106,196804.09999999404,196075.241,196075,196091.96,196808.423,,14,bonds.
screen,html.Screen,2_1_1_1_15,2022-02-02T16:08:43.872Z,,,,,,,,,,,,,,,,,54,,,,,,,,,,,,,,376.27700000297045,,response,,,,100,,,,,,,Space,keypress(Space),,,,,,,,-- --- ---- --- ------ ----- ------- ---- -- --- ------- --<br>------- ---------- ------ In ----- -- ----- -- ---- ------<br>--- ----- --- --- ------ -------- ----- --- ------ ----- --<br>----- ----- ---------- --- --- ------ ------ ---- -- ------<br>------- --- ------ ----- --- ---- ------- -- ---- --- --<br>------- ------,197185.29999999702,197184.70000000298,196791.829,196805,196808.423,197191.908,,15,In
screen,html.Screen,2_1_1_1_16,2022-02-02T16:08:44.326Z,,,,,,,,,,,,,,,,,54,,,,,,,,,,,,,,447.0920000000042,,response,,,,100,,,,,,,Space,keypress(Space),,,,,,,,"-- --- ---- --- ------ ----- ------- ---- -- --- ------- --<br>------- ---------- ------ -- 1727, -- ----- -- ---- ------<br>--- ----- --- --- ------ -------- ----- --- ------ ----- --<br>----- ----- ---------- --- --- ------ ------ ---- -- ------<br>------- --- ------ ----- --- ---- ------- -- ---- --- --<br>------- ------",197640,197639,197175.247,197185.5,197191.908,197641.824,,16,"1727,"
screen,html.Screen,2_1_1_1_17,2022-02-02T16:08:44.946Z,,,,,,,,,,,,,,,,,54,,,,,,,,,,,,,,616.9759999970265,,response,,,,100,,,,,,,Space,keypress(Space),,,,,,,,-- --- ---- --- ------ ----- ------- ---- -- --- ------- --<br>------- ---------- ------ -- ----- in ----- -- ---- ------<br>--- ----- --- --- ------ -------- ----- --- ------ ----- --<br>----- ----- ---------- --- --- ------ ------ ---- -- ------<br>------- --- ------ ----- --- ---- ------- -- ---- --- --<br>------- ------,198259.70000000298,198258.79999999702,197625.375,197640.20000000298,197641.824,198275.384,,17,in
screen,html.Screen,2_1_1_1_18,2022-02-02T16:08:45.336Z,,,,,,,,,,,,,,,,,54,,,,,,,,,,,,,,373.41599999702885,,response,,,,100,,,,,,,Space,keypress(Space),,,,,,,,-- --- ---- --- ------ ----- ------- ---- -- --- ------- --<br>------- ---------- ------ -- ----- -- order -- ---- ------<br>--- ----- --- --- ------ -------- ----- --- ------ ----- --<br>----- ----- ---------- --- --- ------ ------ ---- -- ------<br>------- --- ------ ----- --- ---- ------- -- ---- --- --<br>------- ------,198649.70000000298,198648.79999999702,198258.444,198259.79999999702,198275.384,198658.583,,18,order
screen,html.Screen,2_1_1_1_19,2022-02-02T16:08:45.666Z,,,,,,,,,,,,,,,,,54,,,,,,,,,,,,,,320.11700000296696,,response,,,,100,,,,,,,Space,keypress(Space),,,,,,,,-- --- ---- --- ------ ----- ------- ---- -- --- ------- --<br>------- ---------- ------ -- ----- -- ----- to ---- ------<br>--- ----- --- --- ------ -------- ----- --- ------ ----- --<br>----- ----- ---------- --- --- ------ ------ ---- -- ------<br>------- --- ------ ----- --- ---- ------- -- ---- --- --<br>------- ------,198979.70000000298,198978.70000000298,198641.893,198649.89999999106,198658.583,198991.938,,19,to
screen,html.Screen,2_1_1_1_20,2022-02-02T16:08:46.072Z,,,,,,,,,,,,,,,,,54,,,,,,,,,,,,,,393.46199999106466,,response,,,,100,,,,,,,Space,keypress(Space),,,,,,,,-- --- ---- --- ------ ----- ------- ---- -- --- ------- --<br>------- ---------- ------ -- ----- -- ----- -- save ------<br>--- ----- --- --- ------ -------- ----- --- ------ ----- --<br>----- ----- ---------- --- --- ------ ------ ---- -- ------<br>------- --- ------ ----- --- ---- ------- -- ---- --- --<br>------- ------,199386.09999999404,199385.39999999106,198975.312,198979.79999999702,198991.938,199391.813,,20,save
screen,html.Screen,2_1_1_1_21,2022-02-02T16:08:46.666Z,,,,,,,,,,,,,,,,,54,,,,,,,,,,,,,,587.3870000029856,,response,,,,100,,,,,,,Space,keypress(Space),,,,,,,,"-- --- ---- --- ------ ----- ------- ---- -- --- ------- --<br>------- ---------- ------ -- ----- -- ----- -- ---- money,<br>--- ----- --- --- ------ -------- ----- --- ------ ----- --<br>----- ----- ---------- --- --- ------ ------ ---- -- ------<br>------- --- ------ ----- --- ---- ------- -- ---- --- --<br>------- ------",199980,199979.20000000298,199375.288,199386.20000000298,199391.813,199991.852,,21,"money,"
screen,html.Screen,2_1_1_1_22,2022-02-02T16:08:47.107Z,,,,,,,,,,,,,,,,,54,,,,,,,,,,,,,,428.24799999402603,,response,,,,100,,,,,,,Space,keypress(Space),,,,,,,,-- --- ---- --- ------ ----- ------- ---- -- --- ------- --<br>------- ---------- ------ -- ----- -- ----- -- ---- ------<br>the ----- --- --- ------ -------- ----- --- ------ ----- --<br>----- ----- ---------- --- --- ------ ------ ---- -- ------<br>------- --- ------ ----- --- ---- ------- -- ---- --- --<br>------- ------,200420.79999999702,200420.09999999404,199975.371,199980.09999999404,199991.852,200425.166,,22,the
screen,html.Screen,2_1_1_1_23,2022-02-02T16:08:47.711Z,,,,,,,,,,,,,,,,,54,,,,,,,,,,,,,,599.0340000029828,,response,,,,100,,,,,,,Space,keypress(Space),,,,,,,,-- --- ---- --- ------ ----- ------- ---- -- --- ------- --<br>------- ---------- ------ -- ----- -- ----- -- ---- ------<br>--- state --- --- ------ -------- ----- --- ------ ----- --<br>----- ----- ---------- --- --- ------ ------ ---- -- ------<br>------- --- ------ ----- --- ---- ------- -- ---- --- --<br>------- ------,201025,201024.20000000298,200408.592,200420.89999999106,200425.166,201042.005,,23,state
screen,html.Screen,2_1_1_1_24,2022-02-02T16:08:48.141Z,,,,,,,,,,,,,,,,,54,,,,,,,,,,,,,,412.1950000029756,,response,,,,100,,,,,,,Space,keypress(Space),,,,,,,,-- --- ---- --- ------ ----- ------- ---- -- --- ------- --<br>------- ---------- ------ -- ----- -- ----- -- ---- ------<br>--- ----- cut --- ------ -------- ----- --- ------ ----- --<br>----- ----- ---------- --- --- ------ ------ ---- -- ------<br>------- --- ------ ----- --- ---- ------- -- ---- --- --<br>------- ------,201455.09999999404,201454.20000000298,201025.36,201025.20000000298,201042.005,201458.467,,24,cut
screen,html.Screen,2_1_1_1_25,2022-02-02T16:08:48.506Z,,,,,,,,,,,,,,,,,54,,,,,,,,,,,,,,360.3329999970156,,response,,,,100,,,,,,,Space,keypress(Space),,,,,,,,-- --- ---- --- ------ ----- ------- ---- -- --- ------- --<br>------- ---------- ------ -- ----- -- ----- -- ---- ------<br>--- ----- --- the ------ -------- ----- --- ------ ----- --<br>----- ----- ---------- --- --- ------ ------ ---- -- ------<br>------- --- ------ ----- --- ---- ------- -- ---- --- --<br>------- ------,201819.39999999106,201818.79999999702,201441.976,201455.29999999702,201458.467,201825.274,,25,the
screen,html.Screen,2_1_1_1_26,2022-02-02T16:08:48.846Z,,,,,,,,,,,,,,,,,54,,,,,,,,,,,,,,333.32599999403465,,response,,,,100,,,,,,,Space,keypress(Space),,,,,,,,-- --- ---- --- ------ ----- ------- ---- -- --- ------- --<br>------- ---------- ------ -- ----- -- ----- -- ---- ------<br>--- ----- --- --- bonds' -------- ----- --- ------ ----- --<br>----- ----- ---------- --- --- ------ ------ ---- -- ------<br>------- --- ------ ----- --- ---- ------- -- ---- --- --<br>------- ------,202159.5,202158.59999999404,201808.57,201819.59999999404,201825.274,202175.343,,26,bonds'
screen,html.Screen,2_1_1_1_27,2022-02-02T16:08:49.451Z,,,,,,,,,,,,,,,,,54,,,,,,,,,,,,,,588.3570000029868,,response,,,,100,,,,,,,Space,keypress(Space),,,,,,,,-- --- ---- --- ------ ----- ------- ---- -- --- ------- --<br>------- ---------- ------ -- ----- -- ----- -- ---- ------<br>--- ----- --- --- ------ interest ----- --- ------ ----- --<br>----- ----- ---------- --- --- ------ ------ ---- -- ------<br>------- --- ------ ----- --- ---- ------- -- ---- --- --<br>------- ------,202764.39999999106,202763.70000000298,202158.636,202159.79999999702,202175.343,202775.38,,27,interest
screen,html.Screen,2_1_1_1_28,2022-02-02T16:08:50.236Z,,,,,,,,,,,,,,,,,54,,,,,,,,,,,,,,773.4199999970151,,response,,,,100,,,,,,,Space,keypress(Space),,,,,,,,-- --- ---- --- ------ ----- ------- ---- -- --- ------- --<br>------- ---------- ------ -- ----- -- ----- -- ---- ------<br>--- ----- --- --- ------ -------- rate. --- ------ ----- --<br>----- ----- ---------- --- --- ------ ------ ---- -- ------<br>------- --- ------ ----- --- ---- ------- -- ---- --- --<br>------- ------,203549.59999999404,203548.79999999702,202758.644,202764.59999999404,202775.38,203558.579,,28,rate.
screen,html.Screen,2_1_1_1_29,2022-02-02T16:08:50.741Z,,,,,,,,,,,,,,,,,54,,,,,,,,,,,,,,495.4210000000021,,response,,,,100,,,,,,,Space,keypress(Space),,,,,,,,-- --- ---- --- ------ ----- ------- ---- -- --- ------- --<br>------- ---------- ------ -- ----- -- ----- -- ---- ------<br>--- ----- --- --- ------ -------- ----- The ------ ----- --<br>----- ----- ---------- --- --- ------ ------ ---- -- ------<br>------- --- ------ ----- --- ---- ------- -- ---- --- --<br>------- ------,204054.70000000298,204054,203541.962,203549.89999999106,203558.579,204058.477,,29,The
screen,html.Screen,2_1_1_1_30,2022-02-02T16:08:51.010Z,,,,,,,,,,,,,,,,,54,,,,,,,,,,,,,,264.9229999910458,,response,,,,100,,,,,,,Space,keypress(Space),,,,,,,,-- --- ---- --- ------ ----- ------- ---- -- --- ------- --<br>------- ---------- ------ -- ----- -- ----- -- ---- ------<br>--- ----- --- --- ------ -------- ----- --- market ----- --<br>----- ----- ---------- --- --- ------ ------ ---- -- ------<br>------- --- ------ ----- --- ---- ------- -- ---- --- --<br>------- ------,204324.20000000298,204323.39999999106,204041.909,204054.89999999106,204058.477,204341.993,,30,market
screen,html.Screen,2_1_1_1_31,2022-02-02T16:08:51.521Z,,,,,,,,,,,,,,,,,54,,,,,,,,,,,,,,492.50700000001234,,response,,,,100,,,,,,,Space,keypress(Space),,,,,,,,-- --- ---- --- ------ ----- ------- ---- -- --- ------- --<br>------- ---------- ------ -- ----- -- ----- -- ---- ------<br>--- ----- --- --- ------ -------- ----- --- ------ value --<br>----- ----- ---------- --- --- ------ ------ ---- -- ------<br>------- --- ------ ----- --- ---- ------- -- ---- --- --<br>------- ------,204835.09999999404,204834.5,204308.719,204324.29999999702,204341.993,204841.926,,31,value
screen,html.Screen,2_1_1_1_32,2022-02-02T16:08:52.016Z,,,,,,,,,,,,,,,,,54,,,,,,,,,,,,,,486.6739999940328,,response,,,,100,,,,,,,Space,keypress(Space),,,,,,,,-- --- ---- --- ------ ----- ------- ---- -- --- ------- --<br>------- ---------- ------ -- ----- -- ----- -- ---- ------<br>--- ----- --- --- ------ -------- ----- --- ------ ----- of<br>----- ----- ---------- --- --- ------ ------ ---- -- ------<br>------- --- ------ ----- --- ---- ------- -- ---- --- --<br>------- ------,205329.29999999702,205328.59999999404,204825.376,204835.29999999702,204841.926,205341.942,,32,of
screen,html.Screen,2_1_1_1_33,2022-02-02T16:08:52.421Z,,,,,,,,,,,,,,,,,54,,,,,,,,,,,,,,391.7580000029702,,response,,,,100,,,,,,,Space,keypress(Space),,,,,,,,-- --- ---- --- ------ ----- ------- ---- -- --- ------- --<br>------- ---------- ------ -- ----- -- ----- -- ---- ------<br>--- ----- --- --- ------ -------- ----- --- ------ ----- --<br>these ----- ---------- --- --- ------ ------ ---- -- ------<br>------- --- ------ ----- --- ---- ------- -- ---- --- --<br>------- ------,205734.59999999404,205733.70000000298,205325.375,205329.5,205341.942,205741.883,,33,these
screen,html.Screen,2_1_1_1_34,2022-02-02T16:08:52.841Z,,,,,,,,,,,,,,,,,54,,,,,,,,,,,,,,411.91699999701814,,response,,,,100,,,,,,,Space,keypress(Space),,,,,,,,-- --- ---- --- ------ ----- ------- ---- -- --- ------- --<br>------- ---------- ------ -- ----- -- ----- -- ---- ------<br>--- ----- --- --- ------ -------- ----- --- ------ ----- --<br>----- bonds ---------- --- --- ------ ------ ---- -- ------<br>------- --- ------ ----- --- ---- ------- -- ---- --- --<br>------- ------,206154.5,206153.79999999702,205725.316,205734.79999999702,205741.883,206158.44,,34,bonds
screen,html.Screen,2_1_1_1_35,2022-02-02T16:08:53.420Z,,,,,,,,,,,,,,,,,54,,,,,,,,,,,,,,574.959999991057,,response,,,,100,,,,,,,Space,keypress(Space),,,,,,,,"-- --- ---- --- ------ ----- ------- ---- -- --- ------- --<br>------- ---------- ------ -- ----- -- ----- -- ---- ------<br>--- ----- --- --- ------ -------- ----- --- ------ ----- --<br>----- ----- plummeted, --- --- ------ ------ ---- -- ------<br>------- --- ------ ----- --- ---- ------- -- ---- --- --<br>------- ------",206734.09999999404,206733.39999999106,206141.909,206154.70000000298,206158.44,206741.991,,35,"plummeted,"
screen,html.Screen,2_1_1_1_36,2022-02-02T16:08:53.790Z,,,,,,,,,,,,,,,,,54,,,,,,,,,,,,,,361.4089999910502,,response,,,,100,,,,,,,Space,keypress(Space),,,,,,,,-- --- ---- --- ------ ----- ------- ---- -- --- ------- --<br>------- ---------- ------ -- ----- -- ----- -- ---- ------<br>--- ----- --- --- ------ -------- ----- --- ------ ----- --<br>----- ----- ---------- and --- ------ ------ ---- -- ------<br>------- --- ------ ----- --- ---- ------- -- ---- --- --<br>------- ------,207104.09999999404,207103.39999999106,206725.241,206734.29999999702,206741.991,207108.526,,36,and
screen,html.Screen,2_1_1_1_37,2022-02-02T16:08:54.015Z,,,,,,,,,,,,,,,,,54,,,,,,,,,,,,,,219.87399999104673,,response,,,,100,,,,,,,Space,keypress(Space),,,,,,,,-- --- ---- --- ------ ----- ------- ---- -- --- ------- --<br>------- ---------- ------ -- ----- -- ----- -- ---- ------<br>--- ----- --- --- ------ -------- ----- --- ------ ----- --<br>----- ----- ---------- --- the ------ ------ ---- -- ------<br>------- --- ------ ----- --- ---- ------- -- ---- --- --<br>------- ------,207329.20000000298,207328.39999999106,207091.909,207104.20000000298,207108.526,207341.998,,37,the
screen,html.Screen,2_1_1_1_38,2022-02-02T16:08:54.440Z,,,,,,,,,,,,,,,,,54,,,,,,,,,,,,,,411.401999991067,,response,,,,100,,,,,,,Space,keypress(Space),,,,,,,,-- --- ---- --- ------ ----- ------- ---- -- --- ------- --<br>------- ---------- ------ -- ----- -- ----- -- ---- ------<br>--- ----- --- --- ------ -------- ----- --- ------ ----- --<br>----- ----- ---------- --- --- market ------ ---- -- ------<br>------- --- ------ ----- --- ---- ------- -- ---- --- --<br>------- ------,207754.20000000298,207753.39999999106,207325.388,207329.29999999702,207341.998,207758.478,,38,market
screen,html.Screen,2_1_1_1_39,2022-02-02T16:08:54.855Z,,,,,,,,,,,,,,,,,54,,,,,,,,,,,,,,409.72200000297744,,response,,,,100,,,,,,,Space,keypress(Space),,,,,,,,-- --- ---- --- ------ ----- ------- ---- -- --- ------- --<br>------- ---------- ------ -- ----- -- ----- -- ---- ------<br>--- ----- --- --- ------ -------- ----- --- ------ ----- --<br>----- ----- ---------- --- --- ------ became ---- -- ------<br>------- --- ------ ----- --- ---- ------- -- ---- --- --<br>------- ------,208169.20000000298,208168.20000000298,207741.912,207754.29999999702,207758.478,208175.234,,39,became
screen,html.Screen,2_1_1_1_40,2022-02-02T16:08:55.555Z,,,,,,,,,,,,,,,,,54,,,,,,,,,,,,,,693.065999997023,,response,,,,100,,,,,,,Space,keypress(Space),,,,,,,,-- --- ---- --- ------ ----- ------- ---- -- --- ------- --<br>------- ---------- ------ -- ----- -- ----- -- ---- ------<br>--- ----- --- --- ------ -------- ----- --- ------ ----- --<br>----- ----- ---------- --- --- ------ ------ wary -- ------<br>------- --- ------ ----- --- ---- ------- -- ---- --- --<br>------- ------,208869,208868.29999999702,208158.707,208169.39999999106,208175.234,208875.249,,40,wary
screen,html.Screen,2_1_1_1_41,2022-02-02T16:08:56.015Z,,,,,,,,,,,,,,,,,54,,,,,,,,,,,,,,452.7509999999893,,response,,,,100,,,,,,,Space,keypress(Space),,,,,,,,-- --- ---- --- ------ ----- ------- ---- -- --- ------- --<br>------- ---------- ------ -- ----- -- ----- -- ---- ------<br>--- ----- --- --- ------ -------- ----- --- ------ ----- --<br>----- ----- ---------- --- --- ------ ------ ---- of ------<br>------- --- ------ ----- --- ---- ------- -- ---- --- --<br>------- ------,209328.89999999106,209328,208858.702,208869.09999999404,208875.249,209341.923,,41,of
screen,html.Screen,2_1_1_1_42,2022-02-02T16:08:56.280Z,,,,,,,,,,,,,,,,,54,,,,,,,,,,,,,,251.17699999402976,,response,,,,100,,,,,,,Space,keypress(Space),,,,,,,,-- --- ---- --- ------ ----- ------- ---- -- --- ------- --<br>------- ---------- ------ -- ----- -- ----- -- ---- ------<br>--- ----- --- --- ------ -------- ----- --- ------ ----- --<br>----- ----- ---------- --- --- ------ ------ ---- -- French<br>------- --- ------ ----- --- ---- ------- -- ---- --- --<br>------- ------,209594,209593.09999999404,209325.201,209329,209341.923,209608.596,,42,French
screen,html.Screen,2_1_1_1_43,2022-02-02T16:08:57.341Z,,,,,,,,,,,,,,,,,54,,,,,,,,,,,,,,1045.003999994049,,response,,,,100,,,,,,,Space,keypress(Space),,,,,,,,-- --- ---- --- ------ ----- ------- ---- -- --- ------- --<br>------- ---------- ------ -- ----- -- ----- -- ---- ------<br>--- ----- --- --- ------ -------- ----- --- ------ ----- --<br>----- ----- ---------- --- --- ------ ------ ---- -- ------<br>credit. --- ------ ----- --- ---- ------- -- ---- --- --<br>------- ------,210654.39999999106,210653.59999999404,209591.943,209594,209608.596,210658.425,,43,credit.
screen,html.Screen,2_1_1_1_44,2022-02-02T16:08:57.900Z,,,,,,,,,,,,,,,,,54,,,,,,,,,,,,,,554.474999991071,,response,,,,100,,,,,,,Space,keypress(Space),,,,,,,,-- --- ---- --- ------ ----- ------- ---- -- --- ------- --<br>------- ---------- ------ -- ----- -- ----- -- ---- ------<br>--- ----- --- --- ------ -------- ----- --- ------ ----- --<br>----- ----- ---------- --- --- ------ ------ ---- -- ------<br>------- The ------ ----- --- ---- ------- -- ---- --- --<br>------- ------,211213.79999999702,211212.89999999106,210641.832,210654.59999999404,210658.425,211230.751,,44,The
screen,html.Screen,2_1_1_1_45,2022-02-02T16:08:58.455Z,,,,,,,,,,,,,,,,,54,,,,,,,,,,,,,,537.14899999107,,response,,,,100,,,,,,,Space,keypress(Space),,,,,,,,-- --- ---- --- ------ ----- ------- ---- -- --- ------- --<br>------- ---------- ------ -- ----- -- ----- -- ---- ------<br>--- ----- --- --- ------ -------- ----- --- ------ ----- --<br>----- ----- ---------- --- --- ------ ------ ---- -- ------<br>------- --- French ----- --- ---- ------- -- ---- --- --<br>------- ------,211768.70000000298,211767.89999999106,211208.492,211214,211230.751,211775.144,,45,French
screen,html.Screen,2_1_1_1_46,2022-02-02T16:08:59.265Z,,,,,,,,,,,,,,,,,54,,,,,,,,,,,,,,802.3559999999998,,response,,,,100,,,,,,,Space,keypress(Space),,,,,,,,-- --- ---- --- ------ ----- ------- ---- -- --- ------- --<br>------- ---------- ------ -- ----- -- ----- -- ---- ------<br>--- ----- --- --- ------ -------- ----- --- ------ ----- --<br>----- ----- ---------- --- --- ------ ------ ---- -- ------<br>------- --- ------ state --- ---- ------- -- ---- --- --<br>------- ------,212578.39999999106,212577.5,211758.495,211768.89999999106,211775.144,212591.879,,46,state
screen,html.Screen,2_1_1_1_47,2022-02-02T16:08:59.560Z,,,,,,,,,,,,,,,,,54,,,,,,,,,,,,,,280.9209999970335,,response,,,,100,,,,,,,Space,keypress(Space),,,,,,,,-- --- ---- --- ------ ----- ------- ---- -- --- ------- --<br>------- ---------- ------ -- ----- -- ----- -- ---- ------<br>--- ----- --- --- ------ -------- ----- --- ------ ----- --<br>----- ----- ---------- --- --- ------ ------ ---- -- ------<br>------- --- ------ ----- was ---- ------- -- ---- --- --<br>------- ------,212873.5,212872.79999999702,212575.365,212578.59999999404,212591.879,212875.088,,47,was
screen,html.Screen,2_1_1_1_48,2022-02-02T16:08:59.840Z,,,,,,,,,,,,,,,,,54,,,,,,,,,,,,,,278.21199999703094,,response,,,,100,,,,,,,Space,keypress(Space),,,,,,,,-- --- ---- --- ------ ----- ------- ---- -- --- ------- --<br>------- ---------- ------ -- ----- -- ----- -- ---- ------<br>--- ----- --- --- ------ -------- ----- --- ------ ----- --<br>----- ----- ---------- --- --- ------ ------ ---- -- ------<br>------- --- ------ ----- --- left ------- -- ---- --- --<br>------- ------,213154.09999999404,213153.29999999702,212858.508,212873.5,212875.088,213158.496,,48,left
screen,html.Screen,2_1_1_1_49,2022-02-02T16:09:00.465Z,,,,,,,,,,,,,,,,,54,,,,,,,,,,,,,,619.6039999940258,,response,,,,100,,,,,,,Space,keypress(Space),,,,,,,,-- --- ---- --- ------ ----- ------- ---- -- --- ------- --<br>------- ---------- ------ -- ----- -- ----- -- ---- ------<br>--- ----- --- --- ------ -------- ----- --- ------ ----- --<br>----- ----- ---------- --- --- ------ ------ ---- -- ------<br>------- --- ------ ----- --- ---- without -- ---- --- --<br>------- ------,213778.79999999702,213778.09999999404,213141.911,213154.29999999702,213158.496,213791.802,,49,without
screen,html.Screen,2_1_1_1_50,2022-02-02T16:09:00.750Z,,,,,,,,,,,,,,,,,54,,,,,,,,,,,,,,270.8980000029842,,response,,,,100,,,,,,,Space,keypress(Space),,,,,,,,-- --- ---- --- ------ ----- ------- ---- -- --- ------- --<br>------- ---------- ------ -- ----- -- ----- -- ---- ------<br>--- ----- --- --- ------ -------- ----- --- ------ ----- --<br>----- ----- ---------- --- --- ------ ------ ---- -- ------<br>------- --- ------ ----- --- ---- ------- an ---- --- --<br>------- ------,214063.39999999106,214062.70000000298,213775.3,213779,213791.802,214075.113,,50,an
screen,html.Screen,2_1_1_1_51,2022-02-02T16:09:00.970Z,,,,,,,,,,,,,,,,,54,,,,,,,,,,,,,,207.68699999700766,,response,,,,100,,,,,,,Space,keypress(Space),,,,,,,,-- --- ---- --- ------ ----- ------- ---- -- --- ------- --<br>------- ---------- ------ -- ----- -- ----- -- ---- ------<br>--- ----- --- --- ------ -------- ----- --- ------ ----- --<br>----- ----- ---------- --- --- ------ ------ ---- -- ------<br>------- --- ------ ----- --- ---- ------- -- easy --- --<br>------- ------,214283.5,214282.79999999702,214058.601,214063.59999999404,214075.113,214291.856,,51,easy
screen,html.Screen,2_1_1_1_52,2022-02-02T16:09:01.449Z,,,,,,,,,,,,,,,,,54,,,,,,,,,,,,,,470.64400000000023,,response,,,,100,,,,,,,Space,keypress(Space),,,,,,,,-- --- ---- --- ------ ----- ------- ---- -- --- ------- --<br>------- ---------- ------ -- ----- -- ----- -- ---- ------<br>--- ----- --- --- ------ -------- ----- --- ------ ----- --<br>----- ----- ---------- --- --- ------ ------ ---- -- ------<br>------- --- ------ ----- --- ---- ------- -- ---- way --<br>------- ------,214763.29999999702,214762.5,214275.23,214283.70000000298,214291.856,214775.163,,52,way
screen,html.Screen,2_1_1_1_53,2022-02-02T16:09:01.920Z,,,,,,,,,,,,,,,,,54,,,,,,,,,,,,,,457.53700000297977,,response,,,,100,,,,,,,Space,keypress(Space),,,,,,,,-- --- ---- --- ------ ----- ------- ---- -- --- ------- --<br>------- ---------- ------ -- ----- -- ----- -- ---- ------<br>--- ----- --- --- ------ -------- ----- --- ------ ----- --<br>----- ----- ---------- --- --- ------ ------ ---- -- ------<br>------- --- ------ ----- --- ---- ------- -- ---- --- of<br>------- ------,215233.5,215232.70000000298,214758.631,214763.39999999106,214775.163,215241.919,,53,of
screen,html.Screen,2_1_1_1_54,2022-02-02T16:09:02.420Z,,,,,,,,,,,,,,,,,54,,,,,,,,,,,,,,490.5810000000056,,response,,,,100,,,,,,,Space,keypress(Space),,,,,,,,-- --- ---- --- ------ ----- ------- ---- -- --- ------- --<br>------- ---------- ------ -- ----- -- ----- -- ---- ------<br>--- ----- --- --- ------ -------- ----- --- ------ ----- --<br>----- ----- ---------- --- --- ------ ------ ---- -- ------<br>------- --- ------ ----- --- ---- ------- -- ---- --- --<br>raising ------,215733.39999999106,215732.5,215225.327,215233.70000000298,215241.919,215741.799,,54,raising
screen,html.Screen,2_1_1_1_55,2022-02-02T16:09:03.304Z,,,,,,,,,,,,,,,,,54,,,,,,,,,,,,,,875.5009999970207,,response,,,,100,,,,,,,Space,keypress(Space),,,,,,,,-- --- ---- --- ------ ----- ------- ---- -- --- ------- --<br>------- ---------- ------ -- ----- -- ----- -- ---- ------<br>--- ----- --- --- ------ -------- ----- --- ------ ----- --<br>----- ----- ---------- --- --- ------ ------ ---- -- ------<br>------- --- ------ ----- --- ---- ------- -- ---- --- --<br>------- money.,216618.09999999404,216617.29999999702,215725.272,215733.59999999404,215741.799,216625.094,,55,money.
Item 100,flow.Loop,2_1_1_1,2022-02-02T16:09:03.305Z,,,,,,,,,,,,,,,,,,,,,,,,,,,,,,,26992.11899999701,,completion,,,,,D,,,,,,,,,,,silence,,,,,216618.39999999106,216617.29999999702,189608.569,189609.39999999106,189625.181,216625.094,,,
Question 1,html.Screen,2_1_1_2,2022-02-02T16:09:07.097Z,,,,,,,,,,,,,,,,,,,,,,,,,,,,true,TRUE,,3783.5059999940277,,response,,,,100,D,,,,,,TRUE,click #choice-1,,,,silence,,,,,220409.89999999106,220408.59999999404,216608.579,216618.59999999404,216625.094,220425.453,,,
Question 2,html.Screen,2_1_1_3,2022-02-02T16:09:10.947Z,,,,,,,,,,,,,,,,,,,,,,,,,,,,true,FALSE,,3833.646999994031,,response,,,,100,D,,,,,,FALSE,click #choice-2,,,,silence,,,,,224260.20000000298,224259.09999999404,220408.599,220410.09999999404,220425.453,224275.394,,,
Item 100,flow.Sequence,2_1_1,2022-02-02T16:09:10.947Z,,,,,,,,,,,,,,,,,,,,,,,,,,,,,,,44633.88599999403,,completion,,,,,,,,,,,,,,,,,,,,,224260.59999999404,224259.09999999404,179608.592,179614.09999999404,179625.214,224275.394,,,
End of Practice,html.Page,2_1_2,2022-02-02T16:09:30.946Z,,,,,,,,,,,,,,,,,,,,,,,,,,,,,,,19999.785999999993,,timeout,,,,,,,,,,,,,,,,,,,,,244259.59999999404,244258.694,224258.719,224260.79999999702,224275.394,244275.18,,,
Practice,flow.Sequence,2_1,2022-02-02T16:09:30.947Z,,,,,,,,,,,,,,,,,,,,,,,,,,,,,,,114150.26299999999,,completion,,,,,,,,,,,,,,,,,,,,,244259.89999999106,244258.694,130091.931,130100.09999999404,130108.431,244275.18,,,
Trap_instruction,html.Page,2_2_0,2022-02-02T16:09:36.637Z,,,,,,,,,,,,,,,,,,,,,,,,,,,,,,,5675.119999997027,,form submission,,,,,,,,,,,,,,,,,,,,,249950.59999999404,249950.29999999702,244258.694,244259.89999999106,244275.18,249958.453,,,
trap_trial,html.Screen,2_2_1,2022-02-02T16:09:40.600Z,,,,,,,,,,,,,,,,,,,,,,,,,,,,true,1,,3952.9469999910507,,response,,,,,,,,,,,1,click #choice-1,,,,,,,,,253912.79999999702,253911.39999999106,249941.929,249950.79999999702,249958.453,253925.397,,,
end of trap trial,html.Page,2_2_2,2022-02-02T16:09:43.118Z,,,,,,,,,,,,,,,,,,,,,,,,,,,,,,,2506.103000000003,,form submission,,,,,,,,,,,,,,,,,,,,,256431.70000000298,256431.5,253908.498,253913,253925.397,256442.006,,,
Trap 1,flow.Sequence,2_2,2022-02-02T16:09:43.119Z,,,,,,,,,,,,,,,,,,,,,,,,,,,,,,,12156.320000000007,,completion,,,,,,,,,,,,,,,,,,,,,256431.89999999106,256431.5,244258.694,244259.89999999106,244275.18,256442.006,,,
Standby,html.Page,2_3_0,2022-02-02T16:09:51.113Z,,,,,,,,,,,,,,,,,,,,,,,,,,,,,,,7999.924999999988,,timeout,,,,,,,,,,,,,,,,,,,,,264426.200000003,264425.112,256425.423,256432.09999999404,256442.006,264441.931,,,
Holding screen,html.Screen,2_3_1_0_0,2022-02-02T16:09:58.113Z,,,,,,,,,,,,,,,,,,,,,,,,,,,,,,,7000.085000000021,,timeout,,,,,,,,,,,,,,,,,,,,,271426.09999999404,271425.393,264425.112,264426.299999997,264441.931,271442.016,,,
screen,html.Screen,2_3_1_0_1_0,2022-02-02T16:09:59.784Z,,,,,,,,,,,,,,,,,11,,,,,,,,,,,,,,1653.883999991056,,response,,,,4,D,,,,,,Space,keypress(Space),,,,silence,,,,Known -- ---- --- -- --- -------- ------------ ---------- --<br>- ------- ------ --------- -- ------------ -- --- ---- -----<br>------ ---- ---- ------ ------ ------- --- ----- ---------<br>---- --- -------- -------- --- --- -- ------- --- --- -----<br>-- --- ------ ------- --- --- -------- ---- --------- --<br>---------- -- -------- ----------------,273096.799999997,273095.89999999106,271425.393,271426.200000003,271442.016,273108.609,,0,Known
screen,html.Screen,2_3_1_0_1_1,2022-02-02T16:10:00.268Z,,,,,,,,,,,,,,,,,11,,,,,,,,,,,,,,471.9909999940428,,response,,,,4,D,,,,,,Space,keypress(Space),,,,silence,,,,----- as ---- --- -- --- -------- ------------ ---------- --<br>- ------- ------ --------- -- ------------ -- --- ---- -----<br>------ ---- ---- ------ ------ ------- --- ----- ---------<br>---- --- -------- -------- --- --- -- ------- --- --- -----<br>-- --- ------ ------- --- --- -------- ---- --------- --<br>---------- -- -------- ----------------,273581.299999997,273580.59999999404,273092.063,273097.09999999404,273108.609,273591.806,,1,as
screen,html.Screen,2_3_1_0_1_2,2022-02-02T16:10:00.948Z,,,,,,,,,,,,,,,,,11,,,,,,,,,,,,,,668.3940000029979,,response,,,,4,D,,,,,,Space,keypress(Space),,,,silence,,,,----- -- Rapa --- -- --- -------- ------------ ---------- --<br>- ------- ------ --------- -- ------------ -- --- ---- -----<br>------ ---- ---- ------ ------ ------- --- ----- ---------<br>---- --- -------- -------- --- --- -- ------- --- --- -----<br>-- --- ------ ------- --- --- -------- ---- --------- --<br>---------- -- -------- ----------------,274261,274260.200000003,273575.342,273581.5,273591.806,274275.342,,2,Rapa
screen,html.Screen,2_3_1_0_1_3,2022-02-02T16:10:01.537Z,,,,,,,,,,,,,,,,,11,,,,,,,,,,,,,,574.4579999970156,,response,,,,4,D,,,,,,Space,keypress(Space),,,,silence,,,,----- -- ---- Nui -- --- -------- ------------ ---------- --<br>- ------- ------ --------- -- ------------ -- --- ---- -----<br>------ ---- ---- ------ ------ ------- --- ----- ---------<br>---- --- -------- -------- --- --- -- ------- --- --- -----<br>-- --- ------ ------- --- --- -------- ---- --------- --<br>---------- -- -------- ----------------,274850.59999999404,274849.799999997,274258.598,274261.200000003,274275.342,274858.593,,3,Nui
screen,html.Screen,2_3_1_0_1_4,2022-02-02T16:10:02.074Z,,,,,,,,,,,,,,,,,11,,,,,,,,,,,,,,527.7069999970263,,response,,,,4,D,,,,,,Space,keypress(Space),,,,silence,,,,----- -- ---- --- to --- -------- ------------ ---------- --<br>- ------- ------ --------- -- ------------ -- --- ---- -----<br>------ ---- ---- ------ ------ ------- --- ----- ---------<br>---- --- -------- -------- --- --- -- ------- --- --- -----<br>-- --- ------ ------- --- --- -------- ---- --------- --<br>---------- -- -------- ----------------,275387.200000003,275386.299999997,274841.865,274850.799999997,274858.593,275391.838,,4,to
screen,html.Screen,2_3_1_0_1_5,2022-02-02T16:10:02.388Z,,,,,,,,,,,,,,,,,11,,,,,,,,,,,,,,308.5619999910705,,response,,,,4,D,,,,,,Space,keypress(Space),,,,silence,,,,----- -- ---- --- -- the -------- ------------ ---------- --<br>- ------- ------ --------- -- ------------ -- --- ---- -----<br>------ ---- ---- ------ ------ ------- --- ----- ---------<br>---- --- -------- -------- --- --- -- ------- --- --- -----<br>-- --- ------ ------- --- --- -------- ---- --------- --<br>---------- -- -------- ----------------,275701.200000003,275700.39999999106,275375.194,275387.299999997,275391.838,275708.427,,5,the
screen,html.Screen,2_3_1_0_1_6,2022-02-02T16:10:02.782Z,,,,,,,,,,,,,,,,,11,,,,,,,,,,,,,,386.6729999940144,,response,,,,4,D,,,,,,Space,keypress(Space),,,,silence,,,,----- -- ---- --- -- --- island's ------------ ---------- --<br>- ------- ------ --------- -- ------------ -- --- ---- -----<br>------ ---- ---- ------ ------ ------- --- ----- ---------<br>---- --- -------- -------- --- --- -- ------- --- --- -----<br>-- --- ------ ------- --- --- -------- ---- --------- --<br>---------- -- -------- ----------------,276095.700000003,276095.09999999404,275692.069,275701.39999999106,275708.427,276108.607,,6,island's
screen,html.Screen,2_3_1_0_1_7,2022-02-02T16:10:03.648Z,,,,,,,,,,,,,,,,,11,,,,,,,,,,,,,,851.3929999999818,,response,,,,4,D,,,,,,Space,keypress(Space),,,,silence,,,,"----- -- ---- --- -- --- -------- inhabitants, ---------- --<br>- ------- ------ --------- -- ------------ -- --- ---- -----<br>------ ---- ---- ------ ------ ------- --- ----- ---------<br>---- --- -------- -------- --- --- -- ------- --- --- -----<br>-- --- ------ ------- --- --- -------- ---- --------- --<br>---------- -- -------- ----------------",276960.799999997,276960,276091.935,276095.89999999106,276108.607,276975.407,,7,"inhabitants,"
screen,html.Screen,2_3_1_0_1_8,2022-02-02T16:10:04.762Z,,,,,,,,,,,,,,,,,11,,,,,,,,,,,,,,1099.3929999970132,,response,,,,4,D,,,,,,Space,keypress(Space),,,,silence,,,,----- -- ---- --- -- --- -------- ------------ Rongorongo --<br>- ------- ------ --------- -- ------------ -- --- ---- -----<br>------ ---- ---- ------ ------ ------- --- ----- ---------<br>---- --- -------- -------- --- --- -- ------- --- --- -----<br>-- --- ------ ------- --- --- -------- ---- --------- --<br>---------- -- -------- ----------------,278075.59999999404,278074.799999997,276958.746,276960.89999999106,276975.407,278091.971,,8,Rongorongo
screen,html.Screen,2_3_1_0_1_9,2022-02-02T16:10:05.217Z,,,,,,,,,,,,,,,,,11,,,,,,,,,,,,,,437.7290000029607,,response,,,,4,D,,,,,,Space,keypress(Space),,,,silence,,,,----- -- ---- --- -- --- -------- ------------ ---------- is<br>- ------- ------ --------- -- ------------ -- --- ---- -----<br>------ ---- ---- ------ ------ ------- --- ----- ---------<br>---- --- -------- -------- --- --- -- ------- --- --- -----<br>-- --- ------ ------- --- --- -------- ---- --------- --<br>---------- -- -------- ----------------,278530.5,278529.700000003,278075.158,278075.799999997,278091.971,278541.967,,9,is
screen,html.Screen,2_3_1_0_1_10,2022-02-02T16:10:05.577Z,,,,,,,,,,,,,,,,,11,,,,,,,,,,,,,,352.73300000297604,,response,,,,4,D,,,,,,Space,keypress(Space),,,,silence,,,,----- -- ---- --- -- --- -------- ------------ ---------- --<br>a ------- ------ --------- -- ------------ -- --- ---- -----<br>------ ---- ---- ------ ------ ------- --- ----- ---------<br>---- --- -------- -------- --- --- -- ------- --- --- -----<br>-- --- ------ ------- --- --- -------- ---- --------- --<br>---------- -- -------- ----------------,278895.59999999404,278894.700000003,278525.258,278530.700000003,278541.967,278908.628,,10,a
screen,html.Screen,2_3_1_0_1_11,2022-02-02T16:10:05.992Z,,,,,,,,,,,,,,,,,11,,,,,,,,,,,,,,401.3719999999739,,response,,,,4,D,,,,,,Space,keypress(Space),,,,silence,,,,----- -- ---- --- -- --- -------- ------------ ---------- --<br>- writing ------ --------- -- ------------ -- --- ---- -----<br>------ ---- ---- ------ ------ ------- --- ----- ---------<br>---- --- -------- -------- --- --- -- ------- --- --- -----<br>-- --- ------ ------- --- --- -------- ---- --------- --<br>---------- -- -------- ----------------,279310.799999997,279310,278891.914,278895.799999997,278908.628,279325.407,,11,writing
screen,html.Screen,2_3_1_0_1_12,2022-02-02T16:10:06.512Z,,,,,,,,,,,,,,,,,11,,,,,,,,,,,,,,504.39299999701325,,response,,,,4,D,,,,,,Space,keypress(Space),,,,silence,,,,----- -- ---- --- -- --- -------- ------------ ---------- --<br>- ------- system --------- -- ------------ -- --- ---- -----<br>------ ---- ---- ------ ------ ------- --- ----- ---------<br>---- --- -------- -------- --- --- -- ------- --- --- -----<br>-- --- ------ ------- --- --- -------- ---- --------- --<br>---------- -- -------- ----------------,279830.5,279829.799999997,279308.61,279310.89999999106,279325.407,279841.821,,12,system
screen,html.Screen,2_3_1_0_1_13,2022-02-02T16:10:06.982Z,,,,,,,,,,,,,,,,,11,,,,,,,,,,,,,,457.4789999970235,,response,,,,4,D,,,,,,Space,keypress(Space),,,,silence,,,,----- -- ---- --- -- --- -------- ------------ ---------- --<br>- ------- ------ comprised -- ------------ -- --- ---- -----<br>------ ---- ---- ------ ------ ------- --- ----- ---------<br>---- --- -------- -------- --- --- -- ------- --- --- -----<br>-- --- ------ ------- --- --- -------- ---- --------- --<br>---------- -- -------- ----------------,280300,280299.299999997,279825.21,279830.700000003,279841.821,280308.627,,13,comprised
screen,html.Screen,2_3_1_0_1_14,2022-02-02T16:10:07.311Z,,,,,,,,,,,,,,,,,11,,,,,,,,,,,,,,320.3730000000214,,response,,,,4,D,,,,,,Space,keypress(Space),,,,silence,,,,----- -- ---- --- -- --- -------- ------------ ---------- --<br>- ------- ------ --------- of ------------ -- --- ---- -----<br>------ ---- ---- ------ ------ ------- --- ----- ---------<br>---- --- -------- -------- --- --- -- ------- --- --- -----<br>-- --- ------ ------- --- --- -------- ---- --------- --<br>---------- -- -------- ----------------,280629.700000003,280629,280291.851,280300.09999999404,280308.627,280641.821,,14,of
screen,html.Screen,2_3_1_0_1_15,2022-02-02T16:10:08.058Z,,,,,,,,,,,,,,,,,11,,,,,,,,,,,,,,734.078999991063,,response,,,,4,D,,,,,,Space,keypress(Space),,,,silence,,,,----- -- ---- --- -- --- -------- ------------ ---------- --<br>- ------- ------ --------- -- pictographs. -- --- ---- -----<br>------ ---- ---- ------ ------ ------- --- ----- ---------<br>---- --- -------- -------- --- --- -- ------- --- --- -----<br>-- --- ------ ------- --- --- -------- ---- --------- --<br>---------- -- -------- ----------------,281376.89999999106,281375.89999999106,280625.113,280629.89999999106,280641.821,281392.018,,15,pictographs.
screen,html.Screen,2_3_1_0_1_16,2022-02-02T16:10:08.477Z,,,,,,,,,,,,,,,,,11,,,,,,,,,,,,,,402.0819999940577,,response,,,,4,D,,,,,,Space,keypress(Space),,,,silence,,,,----- -- ---- --- -- --- -------- ------------ ---------- --<br>- ------- ------ --------- -- ------------ It --- ---- -----<br>------ ---- ---- ------ ------ ------- --- ----- ---------<br>---- --- -------- -------- --- --- -- ------- --- --- -----<br>-- --- ------ ------- --- --- -------- ---- --------- --<br>---------- -- -------- ----------------,281794.89999999106,281794.09999999404,281375.166,281376.89999999106,281392.018,281808.641,,16,It
screen,html.Screen,2_3_1_0_1_17,2022-02-02T16:10:08.762Z,,,,,,,,,,,,,,,,,11,,,,,,,,,,,,,,270.559000002977,,response,,,,4,D,,,,,,Space,keypress(Space),,,,silence,,,,----- -- ---- --- -- --- -------- ------------ ---------- --<br>- ------- ------ --------- -- ------------ -- has ---- -----<br>------ ---- ---- ------ ------ ------- --- ----- ---------<br>---- --- -------- -------- --- --- -- ------- --- --- -----<br>-- --- ------ ------- --- --- -------- ---- --------- --<br>---------- -- -------- ----------------,282080,282079.200000003,281791.83,281795.09999999404,281808.641,282091.904,,17,has
screen,html.Screen,2_3_1_0_1_18,2022-02-02T16:10:09.052Z,,,,,,,,,,,,,,,,,11,,,,,,,,,,,,,,277.49599999107886,,response,,,,4,D,,,,,,Space,keypress(Space),,,,silence,,,,----- -- ---- --- -- --- -------- ------------ ---------- --<br>- ------- ------ --------- -- ------------ -- --- been -----<br>------ ---- ---- ------ ------ ------- --- ----- ---------<br>---- --- -------- -------- --- --- -- ------- --- --- -----<br>-- --- ------ ------- --- --- -------- ---- --------- --<br>---------- -- -------- ----------------,282370.09999999404,282369.39999999106,282075.254,282080.200000003,282091.904,282375.241,,18,been
screen,html.Screen,2_3_1_0_1_19,2022-02-02T16:10:09.267Z,,,,,,,,,,,,,,,,,11,,,,,,,,,,,,,,208.65899999107933,,response,,,,4,D,,,,,,Space,keypress(Space),,,,silence,,,,----- -- ---- --- -- --- -------- ------------ ---------- --<br>- ------- ------ --------- -- ------------ -- --- ---- found<br>------ ---- ---- ------ ------ ------- --- ----- ---------<br>---- --- -------- -------- --- --- -- ------- --- --- -----<br>-- --- ------ ------- --- --- -------- ---- --------- --<br>---------- -- -------- ----------------,282584.799999997,282583.89999999106,282358.638,282370.299999997,282375.241,282591.832,,19,found
screen,html.Screen,2_3_1_0_1_20,2022-02-02T16:10:09.952Z,,,,,,,,,,,,,,,,,11,,,,,,,,,,,,,,677.6680000000051,,response,,,,4,D,,,,,,Space,keypress(Space),,,,silence,,,,----- -- ---- --- -- --- -------- ------------ ---------- --<br>- ------- ------ --------- -- ------------ -- --- ---- -----<br>carved ---- ---- ------ ------ ------- --- ----- ---------<br>---- --- -------- -------- --- --- -- ------- --- --- -----<br>-- --- ------ ------- --- --- -------- ---- --------- --<br>---------- -- -------- ----------------,283270.200000003,283269.5,282575.308,282585,282591.832,283275.167,,20,carved
screen,html.Screen,2_3_1_0_1_21,2022-02-02T16:10:10.206Z,,,,,,,,,,,,,,,,,11,,,,,,,,,,,,,,248.63299999700394,,response,,,,4,D,,,,,,Space,keypress(Space),,,,silence,,,,----- -- ---- --- -- --- -------- ------------ ---------- --<br>- ------- ------ --------- -- ------------ -- --- ---- -----<br>------ into ---- ------ ------ ------- --- ----- ---------<br>---- --- -------- -------- --- --- -- ------- --- --- -----<br>-- --- ------ ------- --- --- -------- ---- --------- --<br>---------- -- -------- ----------------,283524.59999999404,283523.799999997,283258.718,283270.39999999106,283275.167,283541.851,,21,into
screen,html.Screen,2_3_1_0_1_22,2022-02-02T16:10:10.532Z,,,,,,,,,,,,,,,,,11,,,,,,,,,,,,,,307.349000002956,,response,,,,4,D,,,,,,Space,keypress(Space),,,,silence,,,,----- -- ---- --- -- --- -------- ------------ ---------- --<br>- ------- ------ --------- -- ------------ -- --- ---- -----<br>------ ---- many ------ ------ ------- --- ----- ---------<br>---- --- -------- -------- --- --- -- ------- --- --- -----<br>-- --- ------ ------- --- --- -------- ---- --------- --<br>---------- -- -------- ----------------,283850.200000003,283849.200000003,283525.299,283524.799999997,283541.851,283858.475,,22,many
screen,html.Screen,2_3_1_0_1_23,2022-02-02T16:10:10.967Z,,,,,,,,,,,,,,,,,11,,,,,,,,,,,,,,425.7250000030035,,response,,,,4,D,,,,,,Space,keypress(Space),,,,silence,,,,----- -- ---- --- -- --- -------- ------------ ---------- --<br>- ------- ------ --------- -- ------------ -- --- ---- -----<br>------ ---- ---- oblong ------ ------- --- ----- ---------<br>---- --- -------- -------- --- --- -- ------- --- --- -----<br>-- --- ------ ------- --- --- -------- ---- --------- --<br>---------- -- -------- ----------------,284285.09999999404,284284.200000003,283841.846,283850.299999997,283858.475,284291.77,,23,oblong
screen,html.Screen,2_3_1_0_1_24,2022-02-02T16:10:11.271Z,,,,,,,,,,,,,,,,,11,,,,,,,,,,,,,,296.7299999999814,,response,,,,4,D,,,,,,Space,keypress(Space),,,,silence,,,,----- -- ---- --- -- --- -------- ------------ ---------- --<br>- ------- ------ --------- -- ------------ -- --- ---- -----<br>------ ---- ---- ------ wooden ------- --- ----- ---------<br>---- --- -------- -------- --- --- -- ------- --- --- -----<br>-- --- ------ ------- --- --- -------- ---- --------- --<br>---------- -- -------- ----------------,284589.299999997,284588.5,284275.215,284285.299999997,284291.77,284591.812,,24,wooden
screen,html.Screen,2_3_1_0_1_25,2022-02-02T16:10:11.532Z,,,,,,,,,,,,,,,,,11,,,,,,,,,,,,,,258.08799999108305,,response,,,,4,D,,,,,,Space,keypress(Space),,,,silence,,,,----- -- ---- --- -- --- -------- ------------ ---------- --<br>- ------- ------ --------- -- ------------ -- --- ---- -----<br>------ ---- ---- ------ ------ tablets --- ----- ---------<br>---- --- -------- -------- --- --- -- ------- --- --- -----<br>-- --- ------ ------- --- --- -------- ---- --------- --<br>---------- -- -------- ----------------,284850.59999999404,284849.89999999106,284575.282,284589.5,284591.812,284858.617,,25,tablets
screen,html.Screen,2_3_1_0_1_26,2022-02-02T16:10:11.782Z,,,,,,,,,,,,,,,,,11,,,,,,,,,,,,,,240.58300000295276,,response,,,,4,D,,,,,,Space,keypress(Space),,,,silence,,,,----- -- ---- --- -- --- -------- ------------ ---------- --<br>- ------- ------ --------- -- ------------ -- --- ---- -----<br>------ ---- ---- ------ ------ ------- and ----- ---------<br>---- --- -------- -------- --- --- -- ------- --- --- -----<br>-- --- ------ ------- --- --- -------- ---- --------- --<br>---------- -- -------- ----------------,285100,285099.200000003,284842.072,284850.700000003,284858.617,285108.576,,26,and
screen,html.Screen,2_3_1_0_1_27,2022-02-02T16:10:12.103Z,,,,,,,,,,,,,,,,,11,,,,,,,,,,,,,,311.92399999999907,,response,,,,4,D,,,,,,Space,keypress(Space),,,,silence,,,,----- -- ---- --- -- --- -------- ------------ ---------- --<br>- ------- ------ --------- -- ------------ -- --- ---- -----<br>------ ---- ---- ------ ------ ------- --- other ---------<br>---- --- -------- -------- --- --- -- ------- --- --- -----<br>-- --- ------ ------- --- --- -------- ---- --------- --<br>---------- -- -------- ----------------,285421.299999997,285420.5,285091.92,285100.200000003,285108.576,285425.111,,27,other
screen,html.Screen,2_3_1_0_1_28,2022-02-02T16:10:12.371Z,,,,,,,,,,,,,,,,,11,,,,,,,,,,,,,,263.68899999704445,,response,,,,4,D,,,,,,Space,keypress(Space),,,,silence,,,,----- -- ---- --- -- --- -------- ------------ ---------- --<br>- ------- ------ --------- -- ------------ -- --- ---- -----<br>------ ---- ---- ------ ------ ------- --- ----- artifacts<br>---- --- -------- -------- --- --- -- ------- --- --- -----<br>-- --- ------ ------- --- --- -------- ---- --------- --<br>---------- -- -------- ----------------,285689.59999999404,285688.799999997,285408.644,285421.39999999106,285425.111,285691.801,,28,artifacts
screen,html.Screen,2_3_1_0_1_29,2022-02-02T16:10:12.986Z,,,,,,,,,,,,,,,,,11,,,,,,,,,,,,,,612.0989999910817,,response,,,,4,D,,,,,,Space,keypress(Space),,,,silence,,,,----- -- ---- --- -- --- -------- ------------ ---------- --<br>- ------- ------ --------- -- ------------ -- --- ---- -----<br>------ ---- ---- ------ ------ ------- --- ----- ---------<br>from --- -------- -------- --- --- -- ------- --- --- -----<br>-- --- ------ ------- --- --- -------- ---- --------- --<br>---------- -- -------- ----------------,286304.59999999404,286303.89999999106,285675.295,285689.799999997,285691.801,286308.476,,29,from
screen,html.Screen,2_3_1_0_1_30,2022-02-02T16:10:13.381Z,,,,,,,,,,,,,,,,,11,,,,,,,,,,,,,,389.9239999910351,,response,,,,4,D,,,,,,Space,keypress(Space),,,,silence,,,,----- -- ---- --- -- --- -------- ------------ ---------- --<br>- ------- ------ --------- -- ------------ -- --- ---- -----<br>------ ---- ---- ------ ------ ------- --- ----- ---------<br>---- the -------- -------- --- --- -- ------- --- --- -----<br>-- --- ------ ------- --- --- -------- ---- --------- --<br>---------- -- -------- ----------------,286699.299999997,286698.39999999106,286291.769,286304.799999997,286308.476,286708.623,,30,the
screen,html.Screen,2_3_1_0_1_31,2022-02-02T16:10:13.596Z,,,,,,,,,,,,,,,,,11,,,,,,,,,,,,,,204.5770000029588,,response,,,,4,D,,,,,,Space,keypress(Space),,,,silence,,,,----- -- ---- --- -- --- -------- ------------ ---------- --<br>- ------- ------ --------- -- ------------ -- --- ---- -----<br>------ ---- ---- ------ ------ ------- --- ----- ---------<br>---- --- island's -------- --- --- -- ------- --- --- -----<br>-- --- ------ ------- --- --- -------- ---- --------- --<br>---------- -- -------- ----------------,286914,286913.200000003,286691.878,286699.5,286708.623,286925.407,,31,island's
screen,html.Screen,2_3_1_0_1_32,2022-02-02T16:10:13.991Z,,,,,,,,,,,,,,,,,11,,,,,,,,,,,,,,382.89299999701325,,response,,,,4,D,,,,,,Space,keypress(Space),,,,silence,,,,----- -- ---- --- -- --- -------- ------------ ---------- --<br>- ------- ------ --------- -- ------------ -- --- ---- -----<br>------ ---- ---- ------ ------ ------- --- ----- ---------<br>---- --- -------- history. --- --- -- ------- --- --- -----<br>-- --- ------ ------- --- --- -------- ---- --------- --<br>---------- -- -------- ----------------,287309.200000003,287308.299999997,286908.436,286914.09999999404,286925.407,287325.408,,32,history.
screen,html.Screen,2_3_1_0_1_33,2022-02-02T16:10:14.666Z,,,,,,,,,,,,,,,,,11,,,,,,,,,,,,,,658.2920000029844,,response,,,,4,D,,,,,,Space,keypress(Space),,,,silence,,,,----- -- ---- --- -- --- -------- ------------ ---------- --<br>- ------- ------ --------- -- ------------ -- --- ---- -----<br>------ ---- ---- ------ ------ ------- --- ----- ---------<br>---- --- -------- -------- The --- -- ------- --- --- -----<br>-- --- ------ ------- --- --- -------- ---- --------- --<br>---------- -- -------- ----------------,287984.5,287983.700000003,287308.613,287309.39999999106,287325.408,287991.962,,33,The
screen,html.Screen,2_3_1_0_1_34,2022-02-02T16:10:14.876Z,,,,,,,,,,,,,,,,,11,,,,,,,,,,,,,,201.43799999105977,,response,,,,4,D,,,,,,Space,keypress(Space),,,,silence,,,,----- -- ---- --- -- --- -------- ------------ ---------- --<br>- ------- ------ --------- -- ------------ -- --- ---- -----<br>------ ---- ---- ------ ------ ------- --- ----- ---------<br>---- --- -------- -------- --- art -- ------- --- --- -----<br>-- --- ------ ------- --- --- -------- ---- --------- --<br>---------- -- -------- ----------------,288194.299999997,288193.39999999106,287975.273,287984.700000003,287991.962,288208.629,,34,art
screen,html.Screen,2_3_1_0_1_35,2022-02-02T16:10:15.131Z,,,,,,,,,,,,,,,,,11,,,,,,,,,,,,,,240.1709999970044,,response,,,,4,D,,,,,,Space,keypress(Space),,,,silence,,,,----- -- ---- --- -- --- -------- ------------ ---------- --<br>- ------- ------ --------- -- ------------ -- --- ---- -----<br>------ ---- ---- ------ ------ ------- --- ----- ---------<br>---- --- -------- -------- --- --- of ------- --- --- -----<br>-- --- ------ ------- --- --- -------- ---- --------- --<br>---------- -- -------- ----------------,288449.59999999404,288448.799999997,288192.066,288194.39999999106,288208.629,288458.573,,35,of
screen,html.Screen,2_3_1_0_1_36,2022-02-02T16:10:15.401Z,,,,,,,,,,,,,,,,,11,,,,,,,,,,,,,,259.42700000002515,,response,,,,4,D,,,,,,Space,keypress(Space),,,,silence,,,,----- -- ---- --- -- --- -------- ------------ ---------- --<br>- ------- ------ --------- -- ------------ -- --- ---- -----<br>------ ---- ---- ------ ------ ------- --- ----- ---------<br>---- --- -------- -------- --- --- -- writing --- --- -----<br>-- --- ------ ------- --- --- -------- ---- --------- --<br>---------- -- -------- ----------------,288719,288718,288441.931,288449.799999997,288458.573,288725.282,,36,writing
screen,html.Screen,2_3_1_0_1_37,2022-02-02T16:10:15.856Z,,,,,,,,,,,,,,,,,11,,,,,,,,,,,,,,448.4180000029737,,response,,,,4,D,,,,,,Space,keypress(Space),,,,silence,,,,----- -- ---- --- -- --- -------- ------------ ---------- --<br>- ------- ------ --------- -- ------------ -- --- ---- -----<br>------ ---- ---- ------ ------ ------- --- ----- ---------<br>---- --- -------- -------- --- --- -- ------- was --- -----<br>-- --- ------ ------- --- --- -------- ---- --------- --<br>---------- -- -------- ----------------,289174.5,289173.700000003,288708.592,288719.09999999404,288725.282,289208.635,,37,was
screen,html.Screen,2_3_1_0_1_38,2022-02-02T16:10:16.082Z,,,,,,,,,,,,,,,,,11,,,,,,,,,,,,,,190.56500000297092,,response,,,,4,D,,,,,,Space,keypress(Space),,,,silence,,,,----- -- ---- --- -- --- -------- ------------ ---------- --<br>- ------- ------ --------- -- ------------ -- --- ---- -----<br>------ ---- ---- ------ ------ ------- --- ----- ---------<br>---- --- -------- -------- --- --- -- ------- --- not -----<br>-- --- ------ ------- --- --- -------- ---- --------- --<br>---------- -- -------- ----------------,289400,289399.200000003,289192.011,289174.700000003,289208.635,289408.64,,38,not
screen,html.Screen,2_3_1_0_1_39,2022-02-02T16:10:16.330Z,,,,,,,,,,,,,,,,,11,,,,,,,,,,,,,,239.1599999970058,,response,,,,4,D,,,,,,Space,keypress(Space),,,,silence,,,,----- -- ---- --- -- --- -------- ------------ ---------- --<br>- ------- ------ --------- -- ------------ -- --- ---- -----<br>------ ---- ---- ------ ------ ------- --- ----- ---------<br>---- --- -------- -------- --- --- -- ------- --- --- known<br>-- --- ------ ------- --- --- -------- ---- --------- --<br>---------- -- -------- ----------------,289648.59999999404,289647.799999997,289391.998,289400.200000003,289408.64,289658.63,,39,known
