sender,sender_type,sender_id,timestamp,meta,,Blues,Classical,Country,Dance,Electronic,Folk,Gospel,Hip-Hop,Jazz,Latin,Musical/Film,New-age,Pop,Prolific_id,Provo_ID,R&B,Rap,Reggae,Religious,Rock,Soul,Swing,Traditional,age,artist_name,correct,correctResponse,distraction,duration,education,ended_on,familiarity,gender,headphone_check_performance,item,list,music_frequency,offensiveness,pleasantness,position_correct,preference,response,response_action,snippet_file,song_name,song_rating,sound,stimulus_1,stimulus_2,stimulus_3,text,time_commit,time_end,time_render,time_run,time_show,time_switch,url,word,word_ID
Prolific ID,html.Form,0,2022-02-03T15:37:04.648Z,"{""labjs_version"":""20.2.2"",""labjs_build"":{""flavor"":""production"",""commit"":""a25486e0c714a0ae2ce03ff94b7bb6896854dcfa""},""location"":""https://run.pavlovia.org/mvasilev/prolific2_music_b/"",""userAgent"":""Mozilla/5.0 (Windows NT 10.0; Win64; x64) AppleWebKit/537.36 (KHTML, like Gecko) Chrome/98.0.4758.82 Safari/537.36"",""platform"":""Win32"",""language"":""en-US"",""locale"":""en-US"",""timeZone"":""Europe/London"",""timezoneOffset"":0,""screen_width"":1280,""screen_height"":720,""scroll_width"":1280,""scroll_height"":561,""window_innerWidth"":1280,""window_innerHeight"":609,""devicePixelRatio"":1.5}",,,,,,,,,,,,,,,60c212bd1d3721d909c0580d,,,,,,,,,,,,,,,8769.178999976159,,form submission,,,,,,,,,,,,,,,,,,,,,16473.19999998808,16472.399999976158,7669.758,7682,7703.221,16486.342,{},,
Introduction,html.Screen,1_0,2022-02-03T15:37:09.780Z,,,,,,,,,,,,,,,,,,,,,,,,,,,,,,,5115.8579999880785,,response,,,,,,,,,,,continue,click button,,,,,,,,,21605.5,21602.19999998808,16469.827,16473.599999964237,16486.342,21619.589,,,
Volume calibration,html.Screen,1_1,2022-02-03T15:37:58.365Z,,,,,,,,,,,,,,,,,,,,,,,,,,,,,,,48565.51099996424,,response,,,,,,,,,,,continue,click button,,,,,,,,,70189.80000001192,70185.09999996424,21603.022,21605.599999964237,21619.589,70201.503,,,
Task instructions,html.Screen,1_2,2022-02-03T15:38:08.507Z,,,,,,,,,,,,,,,,,,,,,,,,,,,,,,,10129.497000000003,,response,,,,,,,,,,,continue,click button,,,,,,,,,80332.19999998808,80331,70184.908,70190,70201.503,80334.506,,,
Sounds,html.Screen,1_3_0_0,2022-02-03T15:38:12.746Z,,,,,,,,,,,,,,,,,,,,,,,,,,,,,,,4249.856,,timeout,,,,,,,,,3,,,,,,,,O,I,S,,84571.5,84567.728,80317.844,80332.5,80334.506,84584.362,,,
Judgement,html.Screen,1_3_0_1,2022-02-03T15:38:16.926Z,,,,,,,,,,,,,,,,,,,,,,,,,,,,true,3,,4164.938000011927,,response,,,,,,,,,3,,3,click #choice-3,,,,,O,I,S,,88750.80000001192,88749.30000001192,84567.728,84571.69999998808,84584.362,88779.446,,,
Trial,flow.Sequence,1_3_0,2022-02-03T15:38:16.929Z,,,,,,,,,,,,,,,,,,,,,,,,,,,,,,,8414.794000011927,,completion,,,,,,,,,3,,,,,,,,O,I,S,,88754.30000001192,88749.30000001192,80317.844,80332.5,80334.506,88779.446,,,
Sounds,html.Screen,1_3_1_0,2022-02-03T15:38:21.193Z,,,,,,,,,,,,,,,,,,,,,,,,,,,,,,,4254.71100000001,,timeout,,,,,,,,,1,,,,,,,,S,I,O,,93018.80000001192,93017.538,88734.381,88754.69999998808,88779.446,93034.157,,,
Judgement,html.Screen,1_3_1_1,2022-02-03T15:38:21.985Z,,,,,,,,,,,,,,,,,,,,,,,,,,,,true,1,,774.4429999642307,,response,,,,,,,,,1,,1,click #choice-1,,,,,S,I,O,,93810.09999996424,93808.59999996424,93017.538,93019,93034.157,93817.45,,,
Trial,flow.Sequence,1_3_1,2022-02-03T15:38:21.985Z,,,,,,,,,,,,,,,,,,,,,,,,,,,,,,,5029.153999964241,,completion,,,,,,,,,1,,,,,,,,S,I,O,,93810.59999996424,93808.59999996424,88734.381,88754.5,88779.446,93817.45,,,
Sounds,html.Screen,1_3_2_0,2022-02-03T15:38:26.227Z,,,,,,,,,,,,,,,,,,,,,,,,,,,,,,,4249.880000000005,,timeout,,,,,,,,,2,,,,,,,,O,S,I,,98052,98050.666,93800.919,93810.89999997616,93817.45,98067.33,,,
Judgement,html.Screen,1_3_2_1,2022-02-03T15:38:27.963Z,,,,,,,,,,,,,,,,,,,,,,,,,,,,true,2,,1719.4700000119192,,response,,,,,,,,,2,,2,click #choice-2,,,,,O,S,I,,99788.39999997616,99786.80000001192,98050.666,98052.19999998808,98067.33,99800.552,,,
Trial,flow.Sequence,1_3_2,2022-02-03T15:38:27.963Z,,,,,,,,,,,,,,,,,,,,,,,,,,,,,,,5969.350000011924,,completion,,,,,,,,,2,,,,,,,,O,S,I,,99788.80000001192,99786.80000001192,93800.919,93810.80000001192,93817.45,99800.552,,,
Sounds,html.Screen,1_3_3_0,2022-02-03T15:38:32.210Z,,,,,,,,,,,,,,,,,,,,,,,,,,,,,,,4249.900999999998,,timeout,,,,,,,,,2,,,,,,,,I,S,O,,104034.89999997616,104033.825,99784.083,99788.89999997616,99800.552,104050.453,,,
Judgement,html.Screen,1_3_3_1,2022-02-03T15:38:33.662Z,,,,,,,,,,,,,,,,,,,,,,,,,,,,true,2,,1435.946999976164,,response,,,,,,,,,2,,2,click #choice-2,,,,,I,S,O,,105487.59999996424,105486.39999997616,104033.825,104035.19999998808,104050.453,105500.539,,,
Trial,flow.Sequence,1_3_3,2022-02-03T15:38:33.663Z,,,,,,,,,,,,,,,,,,,,,,,,,,,,,,,5685.847999976162,,completion,,,,,,,,,2,,,,,,,,I,S,O,,105487.89999997616,105486.39999997616,99784.083,99788.89999997616,99800.552,105500.539,,,
Sounds,html.Screen,1_3_4_0,2022-02-03T15:38:37.910Z,,,,,,,,,,,,,,,,,,,,,,,,,,,,,,,4249.702999999994,,timeout,,,,,,,,,3,,,,,,,,I,O,S,,109734.80000001192,109733.689,105483.823,105488,105500.539,109750.242,,,
Judgement,html.Screen,1_3_4_1,2022-02-03T15:38:38.703Z,,,,,,,,,,,,,,,,,,,,,,,,,,,,true,3,,776.0580000119226,,response,,,,,,,,,3,,3,click #choice-3,,,,,I,O,S,,110527.80000001192,110526.30000001192,109733.689,109734.89999997616,109750.242,110533.615,,,
Trial,flow.Sequence,1_3_4,2022-02-03T15:38:38.703Z,,,,,,,,,,,,,,,,,,,,,,,,,,,,,,,5025.761000011917,,completion,,,,,,,,,3,,,,,,,,I,O,S,,110528,110526.30000001192,105483.823,105488,105500.539,110533.615,,,
Sounds,html.Screen,1_3_5_0,2022-02-03T15:38:42.942Z,,,,,,,,,,,,,,,,,,,,,,,,,,,,,,,4249.905999999988,,timeout,,,,,,,,,1,,,,,,,,S,O,I,,114767.59999996424,114766.758,110516.969,110528.19999998808,110533.615,114783.521,,,
Judgement,html.Screen,1_3_5_1,2022-02-03T15:38:43.743Z,,,,,,,,,,,,,,,,,,,,,,,,,,,,true,1,,782.4790000000066,,response,,,,,,,,,1,,1,click #choice-1,,,,,S,O,I,,115567.80000001192,115566,114766.758,114767.69999998808,114783.521,115583.64,,,
Trial,flow.Sequence,1_3_5,2022-02-03T15:38:43.743Z,,,,,,,,,,,,,,,,,,,,,,,,,,,,,,,5032.384999999995,,completion,,,,,,,,,1,,,,,,,,S,O,I,,115568.09999996424,115566,110516.969,110528.19999998808,110533.615,115583.64,,,
Task,flow.Loop,1_3,2022-02-03T15:38:43.747Z,,,,,,,,,,,,,,,,,,,,,,,,,,,,,,,35231.494000000006,,completion,,,1,,,,,,,,,,,,,,,,,,115572.59999996424,115566,80317.844,80332.39999997616,80334.506,115583.64,,,
Trap,html.Screen,1_4,2022-02-03T15:38:43.748Z,,,,,,,,,,,,,,,,,,,,,,,,,,,,,,,NaN,,skipped,,,,,,,,,,,,,,,,,,,,,115573.19999998808,115566,,115573.19999998808,,115583.64,,,
Thanks,html.Screen,1_5,2022-02-03T15:38:47.385Z,,,,,,,,,,,,,,,,,,,,,,,,,,,,,,,3625.6600000119215,,response,,,,,,,,,,,continue,click button,,,,,,,,,119210.5,119209.30000001192,115567.066,115573.19999998808,115583.64,122283.224,,,
Headphone screening,flow.Sequence,1,2022-02-03T15:38:47.386Z,,,,,,,,,,,,,,,,,,,,,,,,,,,,,,,102722.95800001192,,completion,,,,,,,,,,,,,,,,,,,,,119210.80000001192,119209.30000001192,16469.827,16473.5,16486.342,122283.224,,,
Instructions,html.Page,2_0,2022-02-03T15:39:09.929Z,,,,,,,,,,,,,,,,,,,,,,,,,,,,,,,19470.475999988077,,form submission,,,,,,,,,,,,,,,,,,,,,141754.19999998808,141753.69999998808,122266.614,122283.80000001192,122283.224,141766.112,,,
Holding screen,html.Screen,2_1_0_0,2022-02-03T15:39:19.925Z,,,,,,,,,,,,,,,,,,,,,,,,,,,,,,,10016.252999999997,,timeout,,,,,,,,,,,,,,,,,,,,,151750.09999996424,151749.121,141749.614,141754.5,141766.112,151782.365,,,
screen,html.Screen,2_1_0_1_0,2022-02-03T15:39:22.628Z,,,,,,,,,,,,,,,,,53,,,,,,,,,,,,,,2666.8349999880884,,response,,,,99,,,,,,,Space,keypress(Space),,,,,,,,When -- ----- -- ------ - ------- --- ----------<br>------------- ------ ------ ---- ---- ------- ----- -- ----<br>-------- ------- -- ---------- --- - --- ----- ----- ----<br>---- --- --- ----- --- ---- ---- ------- ----- ---- -------<br>--- --- -- ----- -- --- ---- -- --- ---- -- ------ ------<br>--- ----- -- ----,154453.5,154449.19999998808,151749.121,151750.39999997616,151782.365,154465.634,,0,When
screen,html.Screen,2_1_0_1_1,2022-02-03T15:39:23.547Z,,,,,,,,,,,,,,,,,53,,,,,,,,,,,,,,905.4659999642463,,response,,,,99,,,,,,,Space,keypress(Space),,,,,,,,---- it ----- -- ------ - ------- --- ----------<br>------------- ------ ------ ---- ---- ------- ----- -- ----<br>-------- ------- -- ---------- --- - --- ----- ----- ----<br>---- --- --- ----- --- ---- ---- ------- ----- ---- -------<br>--- --- -- ----- -- --- ---- -- --- ---- -- ------ ------<br>--- ----- -- ----,155371.80000001192,155371.09999996424,154449.378,154453.59999996424,154465.634,155382.156,,1,it
screen,html.Screen,2_1_0_1_2,2022-02-03T15:39:24.020Z,,,,,,,,,,,,,,,,,53,,,,,,,,,,,,,,462.4439999642491,,response,,,,99,,,,,,,Space,keypress(Space),,,,,,,,---- -- comes -- ------ - ------- --- ----------<br>------------- ------ ------ ---- ---- ------- ----- -- ----<br>-------- ------- -- ---------- --- - --- ----- ----- ----<br>---- --- --- ----- --- ---- ---- ------- ----- ---- -------<br>--- --- -- ----- -- --- ---- -- --- ---- -- ------ ------<br>--- ----- -- ----,155845.5,155844.59999996424,155365.708,155371.89999997616,155382.156,155848.916,,2,comes
screen,html.Screen,2_1_0_1_3,2022-02-03T15:39:24.429Z,,,,,,,,,,,,,,,,,53,,,,,,,,,,,,,,404.3840000119235,,response,,,,99,,,,,,,Space,keypress(Space),,,,,,,,---- -- ----- to ------ - ------- --- ----------<br>------------- ------ ------ ---- ---- ------- ----- -- ----<br>-------- ------- -- ---------- --- - --- ----- ----- ----<br>---- --- --- ----- --- ---- ---- ------- ----- ---- -------<br>--- --- -- ----- -- --- ---- -- --- ---- -- ------ ------<br>--- ----- -- ----,156254.39999997616,156253.30000001192,155832.301,155845.69999998808,155848.916,156265.585,,3,to
screen,html.Screen,2_1_0_1_4,2022-02-03T15:39:24.863Z,,,,,,,,,,,,,,,,,53,,,,,,,,,,,,,,421.1149999880872,,response,,,,99,,,,,,,Space,keypress(Space),,,,,,,,---- -- ----- -- having - ------- --- ----------<br>------------- ------ ------ ---- ---- ------- ----- -- ----<br>-------- ------- -- ---------- --- - --- ----- ----- ----<br>---- --- --- ----- --- ---- ---- ------- ----- ---- -------<br>--- --- -- ----- -- --- ---- -- --- ---- -- ------ ------<br>--- ----- -- ----,156687.89999997616,156686.69999998808,156248.997,156254.59999996424,156265.585,156699.085,,4,having
screen,html.Screen,2_1_0_1_5,2022-02-03T15:39:25.232Z,,,,,,,,,,,,,,,,,53,,,,,,,,,,,,,,355.8149999761663,,response,,,,99,,,,,,,Space,keypress(Space),,,,,,,,---- -- ----- -- ------ a ------- --- ----------<br>------------- ------ ------ ---- ---- ------- ----- -- ----<br>-------- ------- -- ---------- --- - --- ----- ----- ----<br>---- --- --- ----- --- ---- ---- ------- ----- ---- -------<br>--- --- -- ----- -- --- ---- -- --- ---- -- ------ ------<br>--- ----- -- ----,157056.69999998808,157054.89999997616,156682.316,156688.09999996424,156699.085,157065.707,,5,a
screen,html.Screen,2_1_0_1_6,2022-02-03T15:39:25.663Z,,,,,,,,,,,,,,,,,53,,,,,,,,,,,,,,421.59300001192605,,response,,,,99,,,,,,,Space,keypress(Space),,,,,,,,---- -- ----- -- ------ - lasting --- ----------<br>------------- ------ ------ ---- ---- ------- ----- -- ----<br>-------- ------- -- ---------- --- - --- ----- ----- ----<br>---- --- --- ----- --- ---- ---- ------- ----- ---- -------<br>--- --- -- ----- -- --- ---- -- --- ---- -- ------ ------<br>--- ----- -- ----,157488.09999996424,157487.30000001192,157049.149,157056.89999997616,157065.707,157498.847,,6,lasting
screen,html.Screen,2_1_0_1_7,2022-02-03T15:39:26.053Z,,,,,,,,,,,,,,,,,53,,,,,,,,,,,,,,378.65299999999115,,response,,,,99,,,,,,,Space,keypress(Space),,,,,,,,---- -- ----- -- ------ - ------- and ----------<br>------------- ------ ------ ---- ---- ------- ----- -- ----<br>-------- ------- -- ---------- --- - --- ----- ----- ----<br>---- --- --- ----- --- ---- ---- ------- ----- ---- -------<br>--- --- -- ----- -- --- ---- -- --- ---- -- ------ ------<br>--- ----- -- ----,157878.59999996424,157877.5,157482.491,157488.19999998808,157498.847,157882.172,,7,and
screen,html.Screen,2_1_0_1_8,2022-02-03T15:39:26.549Z,,,,,,,,,,,,,,,,,53,,,,,,,,,,,,,,491.3280000000086,,response,,,,99,,,,,,,Space,keypress(Space),,,,,,,,---- -- ----- -- ------ - ------- --- fulfilling<br>------------- ------ ------ ---- ---- ------- ----- -- ----<br>-------- ------- -- ---------- --- - --- ----- ----- ----<br>---- --- --- ----- --- ---- ---- ------- ----- ---- -------<br>--- --- -- ----- -- --- ---- -- --- ---- -- ------ ------<br>--- ----- -- ----,158374.30000001192,158373.5,157865.679,157878.80000001192,157882.172,158382.209,,8,fulfilling
screen,html.Screen,2_1_0_1_9,2022-02-03T15:39:27.003Z,,,,,,,,,,,,,,,,,53,,,,,,,,,,,,,,445.39099996423465,,response,,,,99,,,,,,,Space,keypress(Space),,,,,,,,"---- -- ----- -- ------ - ------- --- ----------<br>relationship, ------ ------ ---- ---- ------- ----- -- ----<br>-------- ------- -- ---------- --- - --- ----- ----- ----<br>---- --- --- ----- --- ---- ---- ------- ----- ---- -------<br>--- --- -- ----- -- --- ---- -- --- ---- -- ------ ------<br>--- ----- -- ----",158828.59999996424,158827.59999996424,158365.65,158374.39999997616,158382.209,158832.19,,9,"relationship,"
screen,html.Screen,2_1_0_1_10,2022-02-03T15:39:27.410Z,,,,,,,,,,,,,,,,,53,,,,,,,,,,,,,,401.8099999999977,,response,,,,99,,,,,,,Space,keypress(Space),,,,,,,,---- -- ----- -- ------ - ------- --- ----------<br>------------- common ------ ---- ---- ------- ----- -- ----<br>-------- ------- -- ---------- --- - --- ----- ----- ----<br>---- --- --- ----- --- ---- ---- ------- ----- ---- -------<br>--- --- -- ----- -- --- ---- -- --- ---- -- ------ ------<br>--- ----- -- ----,159235,159234,158815.608,158828.69999998808,158832.19,159249.098,,10,common
screen,html.Screen,2_1_0_1_11,2022-02-03T15:39:27.940Z,,,,,,,,,,,,,,,,,53,,,,,,,,,,,,,,514.9020000000019,,response,,,,99,,,,,,,Space,keypress(Space),,,,,,,,---- -- ----- -- ------ - ------- --- ----------<br>------------- ------ wisdom ---- ---- ------- ----- -- ----<br>-------- ------- -- ---------- --- - --- ----- ----- ----<br>---- --- --- ----- --- ---- ---- ------- ----- ---- -------<br>--- --- -- ----- -- --- ---- -- --- ---- -- ------ ------<br>--- ----- -- ----,159764.89999997616,159764,159232.244,159235.19999998808,159249.098,159782.165,,11,wisdom
screen,html.Screen,2_1_0_1_12,2022-02-03T15:39:28.361Z,,,,,,,,,,,,,,,,,53,,,,,,,,,,,,,,403.0349999880709,,response,,,,99,,,,,,,Space,keypress(Space),,,,,,,,---- -- ----- -- ------ - ------- --- ----------<br>------------- ------ ------ says ---- ------- ----- -- ----<br>-------- ------- -- ---------- --- - --- ----- ----- ----<br>---- --- --- ----- --- ---- ---- ------- ----- ---- -------<br>--- --- -- ----- -- --- ---- -- --- ---- -- ------ ------<br>--- ----- -- ----,160186.19999998808,160185.19999998808,159765.472,159765.19999998808,159782.165,160199.035,,12,says
screen,html.Screen,2_1_0_1_13,2022-02-03T15:39:28.744Z,,,,,,,,,,,,,,,,,53,,,,,,,,,,,,,,369.4649999999965,,response,,,,99,,,,,,,Space,keypress(Space),,,,,,,,---- -- ----- -- ------ - ------- --- ----------<br>------------- ------ ------ ---- that ------- ----- -- ----<br>-------- ------- -- ---------- --- - --- ----- ----- ----<br>---- --- --- ----- --- ---- ---- ------- ----- ---- -------<br>--- --- -- ----- -- --- ---- -- --- ---- -- ------ ------<br>--- ----- -- ----,160569.30000001192,160568.5,160182.106,160186.39999997616,160199.035,160582.183,,13,that
screen,html.Screen,2_1_0_1_14,2022-02-03T15:39:29.193Z,,,,,,,,,,,,,,,,,53,,,,,,,,,,,,,,434.5169999880891,,response,,,,99,,,,,,,Space,keypress(Space),,,,,,,,---- -- ----- -- ------ - ------- --- ----------<br>------------- ------ ------ ---- ---- feeling ----- -- ----<br>-------- ------- -- ---------- --- - --- ----- ----- ----<br>---- --- --- ----- --- ---- ---- ------- ----- ---- -------<br>--- --- -- ----- -- --- ---- -- --- ---- -- ------ ------<br>--- ----- -- ----,161017.80000001192,161016.69999998808,160565.514,160569.5,160582.183,161032.344,,14,feeling
screen,html.Screen,2_1_0_1_15,2022-02-03T15:39:29.630Z,,,,,,,,,,,,,,,,,53,,,,,,,,,,,,,,422.6559999999881,,response,,,,99,,,,,,,Space,keypress(Space),,,,,,,,---- -- ----- -- ------ - ------- --- ----------<br>------------- ------ ------ ---- ---- ------- close -- ----<br>-------- ------- -- ---------- --- - --- ----- ----- ----<br>---- --- --- ----- --- ---- ---- ------- ----- ---- -------<br>--- --- -- ----- -- --- ---- -- --- ---- -- ------ ------<br>--- ----- -- ----,161455.5,161455,161015.499,161018,161032.344,161465.526,,15,close
screen,html.Screen,2_1_0_1_16,2022-02-03T15:39:30.001Z,,,,,,,,,,,,,,,,,53,,,,,,,,,,,,,,360.07399996422464,,response,,,,99,,,,,,,Space,keypress(Space),,,,,,,,---- -- ----- -- ------ - ------- --- ----------<br>------------- ------ ------ ---- ---- ------- ----- to ----<br>-------- ------- -- ---------- --- - --- ----- ----- ----<br>---- --- --- ----- --- ---- ---- ------- ----- ---- -------<br>--- --- -- ----- -- --- ---- -- --- ---- -- ------ ------<br>--- ----- -- ----,161826.39999997616,161825.59999996424,161448.823,161455.59999996424,161465.526,161832.087,,16,to
screen,html.Screen,2_1_0_1_17,2022-02-03T15:39:30.480Z,,,,,,,,,,,,,,,,,53,,,,,,,,,,,,,,472.5129999642377,,response,,,,99,,,,,,,Space,keypress(Space),,,,,,,,---- -- ----- -- ------ - ------- --- ----------<br>------------- ------ ------ ---- ---- ------- ----- -- your<br>-------- ------- -- ---------- --- - --- ----- ----- ----<br>---- --- --- ----- --- ---- ---- ------- ----- ---- -------<br>--- --- -- ----- -- --- ---- -- --- ---- -- ------ ------<br>--- ----- -- ----,162305.59999996424,162304.59999996424,161815.412,161826.69999998808,161832.087,162315.543,,17,your
screen,html.Screen,2_1_0_1_18,2022-02-03T15:39:30.994Z,,,,,,,,,,,,,,,,,53,,,,,,,,,,,,,,502.4569999999949,,response,,,,99,,,,,,,Space,keypress(Space),,,,,,,,---- -- ----- -- ------ - ------- --- ----------<br>------------- ------ ------ ---- ---- ------- ----- -- ----<br>romantic ------- -- ---------- --- - --- ----- ----- ----<br>---- --- --- ----- --- ---- ---- ------- ----- ---- -------<br>--- --- -- ----- -- --- ---- -- --- ---- -- ------ ------<br>--- ----- -- ----,162818.80000001192,162818,162298.779,162305.89999997616,162315.543,162832.305,,18,romantic
screen,html.Screen,2_1_0_1_19,2022-02-03T15:39:31.460Z,,,,,,,,,,,,,,,,,53,,,,,,,,,,,,,,452.39499998808606,,response,,,,99,,,,,,,Space,keypress(Space),,,,,,,,---- -- ----- -- ------ - ------- --- ----------<br>------------- ------ ------ ---- ---- ------- ----- -- ----<br>-------- partner -- ---------- --- - --- ----- ----- ----<br>---- --- --- ----- --- ---- ---- ------- ----- ---- -------<br>--- --- -- ----- -- --- ---- -- --- ---- -- ------ ------<br>--- ----- -- ----,163285.59999996424,163284.69999998808,162815.667,162819,162832.305,163298.661,,19,partner
screen,html.Screen,2_1_0_1_20,2022-02-03T15:39:31.828Z,,,,,,,,,,,,,,,,,53,,,,,,,,,,,,,,353.5389999880863,,response,,,,99,,,,,,,Space,keypress(Space),,,,,,,,---- -- ----- -- ------ - ------- --- ----------<br>------------- ------ ------ ---- ---- ------- ----- -- ----<br>-------- ------- is ---------- --- - --- ----- ----- ----<br>---- --- --- ----- --- ---- ---- ------- ----- ---- -------<br>--- --- -- ----- -- --- ---- -- --- ---- -- ------ ------<br>--- ----- -- ----,163653.39999997616,163652.19999998808,163282.119,163285.69999998808,163298.661,163665.526,,20,is
screen,html.Screen,2_1_0_1_21,2022-02-03T15:39:32.287Z,,,,,,,,,,,,,,,,,53,,,,,,,,,,,,,,445.87399997614557,,response,,,,99,,,,,,,Space,keypress(Space),,,,,,,,---- -- ----- -- ------ - ------- --- ----------<br>------------- ------ ------ ---- ---- ------- ----- -- ----<br>-------- ------- -- paramount. --- - --- ----- ----- ----<br>---- --- --- ----- --- ---- ---- ------- ----- ---- -------<br>--- --- -- ----- -- --- ---- -- --- ---- -- ------ ------<br>--- ----- -- ----,164112.30000001192,164111.39999997616,163648.926,163653.59999996424,163665.526,164115.409,,21,paramount.
screen,html.Screen,2_1_0_1_22,2022-02-03T15:39:32.713Z,,,,,,,,,,,,,,,,,53,,,,,,,,,,,,,,421.3910000119067,,response,,,,99,,,,,,,Space,keypress(Space),,,,,,,,---- -- ----- -- ------ - ------- --- ----------<br>------------- ------ ------ ---- ---- ------- ----- -- ----<br>-------- ------- -- ---------- But - --- ----- ----- ----<br>---- --- --- ----- --- ---- ---- ------- ----- ---- -------<br>--- --- -- ----- -- --- ---- -- --- ---- -- ------ ------<br>--- ----- -- ----,164537.89999997616,164536.80000001192,164098.946,164112.5,164115.409,164548.761,,22,But
screen,html.Screen,2_1_0_1_23,2022-02-03T15:39:33.165Z,,,,,,,,,,,,,,,,,53,,,,,,,,,,,,,,440.43899998808047,,response,,,,99,,,,,,,Space,keypress(Space),,,,,,,,---- -- ----- -- ------ - ------- --- ----------<br>------------- ------ ------ ---- ---- ------- ----- -- ----<br>-------- ------- -- ---------- --- a --- ----- ----- ----<br>---- --- --- ----- --- ---- ---- ------- ----- ---- -------<br>--- --- -- ----- -- --- ---- -- --- ---- -- ------ ------<br>--- ----- -- ----,164990.09999996424,164989.19999998808,164532.152,164538.09999996424,164548.761,164998.943,,23,a
screen,html.Screen,2_1_0_1_24,2022-02-03T15:39:33.558Z,,,,,,,,,,,,,,,,,53,,,,,,,,,,,,,,383.45699997615884,,response,,,,99,,,,,,,Space,keypress(Space),,,,,,,,---- -- ----- -- ------ - ------- --- ----------<br>------------- ------ ------ ---- ---- ------- ----- -- ----<br>-------- ------- -- ---------- --- - new ----- ----- ----<br>---- --- --- ----- --- ---- ---- ------- ----- ---- -------<br>--- --- -- ----- -- --- ---- -- --- ---- -- ------ ------<br>--- ----- -- ----,165383.39999997616,165382.39999997616,164982.174,164990.30000001192,164998.943,165398.748,,24,new
screen,html.Screen,2_1_0_1_25,2022-02-03T15:39:33.920Z,,,,,,,,,,,,,,,,,53,,,,,,,,,,,,,,345.6519999761658,,response,,,,99,,,,,,,Space,keypress(Space),,,,,,,,---- -- ----- -- ------ - ------- --- ----------<br>------------- ------ ------ ---- ---- ------- ----- -- ----<br>-------- ------- -- ---------- --- - --- study ----- ----<br>---- --- --- ----- --- ---- ---- ------- ----- ---- -------<br>--- --- -- ----- -- --- ---- -- --- ---- -- ------ ------<br>--- ----- -- ----,165745.30000001192,165744.39999997616,165382.173,165383.5,165398.748,165748.581,,25,study
screen,html.Screen,2_1_0_1_26,2022-02-03T15:39:34.310Z,,,,,,,,,,,,,,,,,53,,,,,,,,,,,,,,385.4189999999944,,response,,,,99,,,,,,,Space,keypress(Space),,,,,,,,---- -- ----- -- ------ - ------- --- ----------<br>------------- ------ ------ ---- ---- ------- ----- -- ----<br>-------- ------- -- ---------- --- - --- ----- finds ----<br>---- --- --- ----- --- ---- ---- ------- ----- ---- -------<br>--- --- -- ----- -- --- ---- -- --- ---- -- ------ ------<br>--- ----- -- ----,166135.39999997616,166134,165732.265,165745.39999997616,165748.581,166148.921,,26,finds
screen,html.Screen,2_1_0_1_27,2022-02-03T15:39:35.040Z,,,,,,,,,,,,,,,,,53,,,,,,,,,,,,,,715.478999976156,,response,,,,99,,,,,,,Space,keypress(Space),,,,,,,,---- -- ----- -- ------ - ------- --- ----------<br>------------- ------ ------ ---- ---- ------- ----- -- ----<br>-------- ------- -- ---------- --- - --- ----- ----- that<br>---- --- --- ----- --- ---- ---- ------- ----- ---- -------<br>--- --- -- ----- -- --- ---- -- --- ---- -- ------ ------<br>--- ----- -- ----,166865.39999997616,166864.39999997616,166132.112,166135.59999996424,166148.921,166882.243,,27,that
screen,html.Screen,2_1_0_1_28,2022-02-03T15:39:35.491Z,,,,,,,,,,,,,,,,,53,,,,,,,,,,,,,,433.25700000001234,,response,,,,99,,,,,,,Space,keypress(Space),,,,,,,,---- -- ----- -- ------ - ------- --- ----------<br>------------- ------ ------ ---- ---- ------- ----- -- ----<br>-------- ------- -- ---------- --- - --- ----- ----- ----<br>it's --- --- ----- --- ---- ---- ------- ----- ---- -------<br>--- --- -- ----- -- --- ---- -- --- ---- -- ------ ------<br>--- ----- -- ----,167316.5,167315.5,166865.54,166865.59999996424,166882.243,167331.958,,28,it's
screen,html.Screen,2_1_0_1_29,2022-02-03T15:39:35.843Z,,,,,,,,,,,,,,,,,53,,,,,,,,,,,,,,335.54199999998673,,response,,,,99,,,,,,,Space,keypress(Space),,,,,,,,---- -- ----- -- ------ - ------- --- ----------<br>------------- ------ ------ ---- ---- ------- ----- -- ----<br>-------- ------- -- ---------- --- - --- ----- ----- ----<br>---- not --- ----- --- ---- ---- ------- ----- ---- -------<br>--- --- -- ----- -- --- ---- -- --- ---- -- ------ ------<br>--- ----- -- ----,167668.5,167667.5,167315.34,167316.69999998808,167331.958,167682.18,,29,not
screen,html.Screen,2_1_0_1_30,2022-02-03T15:39:36.238Z,,,,,,,,,,,,,,,,,53,,,,,,,,,,,,,,380.2199999761651,,response,,,,99,,,,,,,Space,keypress(Space),,,,,,,,---- -- ----- -- ------ - ------- --- ----------<br>------------- ------ ------ ---- ---- ------- ----- -- ----<br>-------- ------- -- ---------- --- - --- ----- ----- ----<br>---- --- how ----- --- ---- ---- ------- ----- ---- -------<br>--- --- -- ----- -- --- ---- -- --- ---- -- ------ ------<br>--- ----- -- ----,168063.30000001192,168062.39999997616,167665.369,167668.69999998808,167682.18,168065.632,,30,how
screen,html.Screen,2_1_0_1_31,2022-02-03T15:39:36.748Z,,,,,,,,,,,,,,,,,53,,,,,,,,,,,,,,507.2679999761458,,response,,,,99,,,,,,,Space,keypress(Space),,,,,,,,---- -- ----- -- ------ - ------- --- ----------<br>------------- ------ ------ ---- ---- ------- ----- -- ----<br>-------- ------- -- ---------- --- - --- ----- ----- ----<br>---- --- --- close --- ---- ---- ------- ----- ---- -------<br>--- --- -- ----- -- --- ---- -- --- ---- -- ------ ------<br>--- ----- -- ----,168573.5,168572.89999997616,168048.862,168063.5,168065.632,168581.965,,31,close
screen,html.Screen,2_1_0_1_32,2022-02-03T15:39:37.152Z,,,,,,,,,,,,,,,,,53,,,,,,,,,,,,,,394.6349999642407,,response,,,,99,,,,,,,Space,keypress(Space),,,,,,,,---- -- ----- -- ------ - ------- --- ----------<br>------------- ------ ------ ---- ---- ------- ----- -- ----<br>-------- ------- -- ---------- --- - --- ----- ----- ----<br>---- --- --- ----- you ---- ---- ------- ----- ---- -------<br>--- --- -- ----- -- --- ---- -- --- ---- -- ------ ------<br>--- ----- -- ----,168977.59999996424,168976.59999996424,168565.47,168573.5,168581.965,168981.836,,32,you
screen,html.Screen,2_1_0_1_33,2022-02-03T15:39:37.622Z,,,,,,,,,,,,,,,,,53,,,,,,,,,,,,,,464.26399996422697,,response,,,,99,,,,,,,Space,keypress(Space),,,,,,,,---- -- ----- -- ------ - ------- --- ----------<br>------------- ------ ------ ---- ---- ------- ----- -- ----<br>-------- ------- -- ---------- --- - --- ----- ----- ----<br>---- --- --- ----- --- feel ---- ------- ----- ---- -------<br>--- --- -- ----- -- --- ---- -- --- ---- -- ------ ------<br>--- ----- -- ----,169447,169446.09999996424,168965.244,168977.80000001192,168981.836,169478.932,,33,feel
screen,html.Screen,2_1_0_1_34,2022-02-03T15:39:38.015Z,,,,,,,,,,,,,,,,,53,,,,,,,,,,,,,,360.0679999999993,,response,,,,99,,,,,,,Space,keypress(Space),,,,,,,,---- -- ----- -- ------ - ------- --- ----------<br>------------- ------ ------ ---- ---- ------- ----- -- ----<br>-------- ------- -- ---------- --- - --- ----- ----- ----<br>---- --- --- ----- --- ---- that ------- ----- ---- -------<br>--- --- -- ----- -- --- ---- -- --- ---- -- ------ ------<br>--- ----- -- ----,169839.89999997616,169839,169432.116,169447.19999998808,169478.932,169848.824,,34,that
screen,html.Screen,2_1_0_1_35,2022-02-03T15:39:38.396Z,,,,,,,,,,,,,,,,,53,,,,,,,,,,,,,,371.5759999761649,,response,,,,99,,,,,,,Space,keypress(Space),,,,,,,,---- -- ----- -- ------ - ------- --- ----------<br>------------- ------ ------ ---- ---- ------- ----- -- ----<br>-------- ------- -- ---------- --- - --- ----- ----- ----<br>---- --- --- ----- --- ---- ---- matters ----- ---- -------<br>--- --- -- ----- -- --- ---- -- --- ---- -- ------ ------<br>--- ----- -- ----,170221.30000001192,170220.39999997616,169831.972,169840.09999996424,169848.824,170231.857,,35,matters
screen,html.Screen,2_1_0_1_36,2022-02-03T15:39:38.795Z,,,,,,,,,,,,,,,,,53,,,,,,,,,,,,,,387.0429999761691,,response,,,,99,,,,,,,Space,keypress(Space),,,,,,,,"---- -- ----- -- ------ - ------- --- ----------<br>------------- ------ ------ ---- ---- ------- ----- -- ----<br>-------- ------- -- ---------- --- - --- ----- ----- ----<br>---- --- --- ----- --- ---- ---- ------- most, ---- -------<br>--- --- -- ----- -- --- ---- -- --- ---- -- ------ ------<br>--- ----- -- ----",170620,170618.89999997616,170215.222,170221.69999998808,170231.857,170631.899,,36,"most,"
screen,html.Screen,2_1_0_1_37,2022-02-03T15:39:39.224Z,,,,,,,,,,,,,,,,,53,,,,,,,,,,,,,,416.00099997615325,,response,,,,99,,,,,,,Space,keypress(Space),,,,,,,,---- -- ----- -- ------ - ------- --- ----------<br>------------- ------ ------ ---- ---- ------- ----- -- ----<br>-------- ------- -- ---------- --- - --- ----- ----- ----<br>---- --- --- ----- --- ---- ---- ------- ----- it's -------<br>--- --- -- ----- -- --- ---- -- --- ---- -- ------ ------<br>--- ----- -- ----,171049,171047.89999997616,170615.259,170620.09999996424,170631.899,171065.288,,37,it's
screen,html.Screen,2_1_0_1_38,2022-02-03T15:39:39.698Z,,,,,,,,,,,,,,,,,53,,,,,,,,,,,,,,456.31199996423675,,response,,,,99,,,,,,,Space,keypress(Space),,,,,,,,---- -- ----- -- ------ - ------- --- ----------<br>------------- ------ ------ ---- ---- ------- ----- -- ----<br>-------- ------- -- ---------- --- - --- ----- ----- ----<br>---- --- --- ----- --- ---- ---- ------- ----- ---- whether<br>--- --- -- ----- -- --- ---- -- --- ---- -- ------ ------<br>--- ----- -- ----,171522.69999998808,171521.59999996424,171048.498,171049.09999996424,171065.288,171531.762,,38,whether
screen,html.Screen,2_1_0_1_39,2022-02-03T15:39:40.104Z,,,,,,,,,,,,,,,,,53,,,,,,,,,,,,,,396.4379999880912,,response,,,,99,,,,,,,Space,keypress(Space),,,,,,,,---- -- ----- -- ------ - ------- --- ----------<br>------------- ------ ------ ---- ---- ------- ----- -- ----<br>-------- ------- -- ---------- --- - --- ----- ----- ----<br>---- --- --- ----- --- ---- ---- ------- ----- ---- -------<br>you --- -- ----- -- --- ---- -- --- ---- -- ------ ------<br>--- ----- -- ----,171929.19999998808,171928.19999998808,171515.396,171522.89999997616,171531.762,171948.581,,39,you
screen,html.Screen,2_1_0_1_40,2022-02-03T15:39:40.530Z,,,,,,,,,,,,,,,,,53,,,,,,,,,,,,,,405.21900001191534,,response,,,,99,,,,,,,Space,keypress(Space),,,,,,,,---- -- ----- -- ------ - ------- --- ----------<br>------------- ------ ------ ---- ---- ------- ----- -- ----<br>-------- ------- -- ---------- --- - --- ----- ----- ----<br>---- --- --- ----- --- ---- ---- ------- ----- ---- -------<br>--- are -- ----- -- --- ---- -- --- ---- -- ------ ------<br>--- ----- -- ----,172354.80000001192,172353.80000001192,171931.826,171930.5,171948.581,172365.262,,40,are
screen,html.Screen,2_1_0_1_41,2022-02-03T15:39:40.904Z,,,,,,,,,,,,,,,,,53,,,,,,,,,,,,,,363.13799997617025,,response,,,,99,,,,,,,Space,keypress(Space),,,,,,,,---- -- ----- -- ------ - ------- --- ----------<br>------------- ------ ------ ---- ---- ------- ----- -- ----<br>-------- ------- -- ---------- --- - --- ----- ----- ----<br>---- --- --- ----- --- ---- ---- ------- ----- ---- -------<br>--- --- as ----- -- --- ---- -- --- ---- -- ------ ------<br>--- ----- -- ----,172729.19999998808,172728.39999997616,172348.48,172355.09999996424,172365.262,172731.817,,41,as
screen,html.Screen,2_1_0_1_42,2022-02-03T15:39:41.297Z,,,,,,,,,,,,,,,,,53,,,,,,,,,,,,,,389.38299998806906,,response,,,,99,,,,,,,Space,keypress(Space),,,,,,,,---- -- ----- -- ------ - ------- --- ----------<br>------------- ------ ------ ---- ---- ------- ----- -- ----<br>-------- ------- -- ---------- --- - --- ----- ----- ----<br>---- --- --- ----- --- ---- ---- ------- ----- ---- -------<br>--- --- -- close -- --- ---- -- --- ---- -- ------ ------<br>--- ----- -- ----,173122.30000001192,173121.19999998808,172715.383,172729.39999997616,172731.817,173131.947,,42,close
screen,html.Screen,2_1_0_1_43,2022-02-03T15:39:41.706Z,,,,,,,,,,,,,,,,,53,,,,,,,,,,,,,,397.85300001193536,,response,,,,99,,,,,,,Space,keypress(Space),,,,,,,,---- -- ----- -- ------ - ------- --- ----------<br>------------- ------ ------ ---- ---- ------- ----- -- ----<br>-------- ------- -- ---------- --- - --- ----- ----- ----<br>---- --- --- ----- --- ---- ---- ------- ----- ---- -------<br>--- --- -- ----- as --- ---- -- --- ---- -- ------ ------<br>--- ----- -- ----,173530.89999997616,173529.80000001192,173115.354,173122.39999997616,173131.947,173548.72,,43,as
screen,html.Screen,2_1_0_1_44,2022-02-03T15:39:42.126Z,,,,,,,,,,,,,,,,,53,,,,,,,,,,,,,,401.08000001191976,,response,,,,99,,,,,,,Space,keypress(Space),,,,,,,,---- -- ----- -- ------ - ------- --- ----------<br>------------- ------ ------ ---- ---- ------- ----- -- ----<br>-------- ------- -- ---------- --- - --- ----- ----- ----<br>---- --- --- ----- --- ---- ---- ------- ----- ---- -------<br>--- --- -- ----- -- you ---- -- --- ---- -- ------ ------<br>--- ----- -- ----,173950.80000001192,173949.80000001192,173515.338,173531.09999996424,173548.72,173965.362,,44,you
screen,html.Screen,2_1_0_1_45,2022-02-03T15:39:42.567Z,,,,,,,,,,,,,,,,,53,,,,,,,,,,,,,,426.2379999642435,,response,,,,99,,,,,,,Space,keypress(Space),,,,,,,,---- -- ----- -- ------ - ------- --- ----------<br>------------- ------ ------ ---- ---- ------- ----- -- ----<br>-------- ------- -- ---------- --- - --- ----- ----- ----<br>---- --- --- ----- --- ---- ---- ------- ----- ---- -------<br>--- --- -- ----- -- --- want -- --- ---- -- ------ ------<br>--- ----- -- ----,174392.69999998808,174391.59999996424,173948.563,173951,173965.362,174398.368,,45,want
screen,html.Screen,2_1_0_1_46,2022-02-03T15:39:42.944Z,,,,,,,,,,,,,,,,,53,,,,,,,,,,,,,,369.3319999880914,,response,,,,99,,,,,,,Space,keypress(Space),,,,,,,,---- -- ----- -- ------ - ------- --- ----------<br>------------- ------ ------ ---- ---- ------- ----- -- ----<br>-------- ------- -- ---------- --- - --- ----- ----- ----<br>---- --- --- ----- --- ---- ---- ------- ----- ---- -------<br>--- --- -- ----- -- --- ---- to --- ---- -- ------ ------<br>--- ----- -- ----,174768.80000001192,174767.69999998808,174381.977,174392.80000001192,174398.368,174781.822,,46,to
screen,html.Screen,2_1_0_1_47,2022-02-03T15:39:43.402Z,,,,,,,,,,,,,,,,,53,,,,,,,,,,,,,,444.0779999761726,,response,,,,99,,,,,,,Space,keypress(Space),,,,,,,,"---- -- ----- -- ------ - ------- --- ----------<br>------------- ------ ------ ---- ---- ------- ----- -- ----<br>-------- ------- -- ---------- --- - --- ----- ----- ----<br>---- --- --- ----- --- ---- ---- ------- ----- ---- -------<br>--- --- -- ----- -- --- ---- -- be, ---- -- ------ ------<br>--- ----- -- ----",175226.89999997616,175225.89999997616,174765.06,174769.09999996424,174781.822,175231.67,,47,"be,"
screen,html.Screen,2_1_0_1_48,2022-02-03T15:39:43.788Z,,,,,,,,,,,,,,,,,53,,,,,,,,,,,,,,380.4299999642244,,response,,,,99,,,,,,,Space,keypress(Space),,,,,,,,---- -- ----- -- ------ - ------- --- ----------<br>------------- ------ ------ ---- ---- ------- ----- -- ----<br>-------- ------- -- ---------- --- - --- ----- ----- ----<br>---- --- --- ----- --- ---- ---- ------- ----- ---- -------<br>--- --- -- ----- -- --- ---- -- --- even -- ------ ------<br>--- ----- -- ----,175613.19999998808,175612.09999996424,175215.265,175227,175231.67,175632.996,,48,even
screen,html.Screen,2_1_0_1_49,2022-02-03T15:39:44.246Z,,,,,,,,,,,,,,,,,53,,,,,,,,,,,,,,437.6039999642235,,response,,,,99,,,,,,,Space,keypress(Space),,,,,,,,---- -- ----- -- ------ - ------- --- ----------<br>------------- ------ ------ ---- ---- ------- ----- -- ----<br>-------- ------- -- ---------- --- - --- ----- ----- ----<br>---- --- --- ----- --- ---- ---- ------- ----- ---- -------<br>--- --- -- ----- -- --- ---- -- --- ---- if ------ ------<br>--- ----- -- ----,176071.59999996424,176070.59999996424,175598.558,175613.5,175632.996,176081.604,,49,if
screen,html.Screen,2_1_0_1_50,2022-02-03T15:39:44.636Z,,,,,,,,,,,,,,,,,53,,,,,,,,,,,,,,378.99599996424513,,response,,,,99,,,,,,,Space,keypress(Space),,,,,,,,---- -- ----- -- ------ - ------- --- ----------<br>------------- ------ ------ ---- ---- ------- ----- -- ----<br>-------- ------- -- ---------- --- - --- ----- ----- ----<br>---- --- --- ----- --- ---- ---- ------- ----- ---- -------<br>--- --- -- ----- -- --- ---- -- --- ---- -- that's ------<br>--- ----- -- ----,176461.5,176460.59999996424,176065.16,176071.80000001192,176081.604,176464.901,,50,that's
screen,html.Screen,2_1_0_1_51,2022-02-03T15:39:45.073Z,,,,,,,,,,,,,,,,,53,,,,,,,,,,,,,,432.19899996422464,,response,,,,99,,,,,,,Space,keypress(Space),,,,,,,,---- -- ----- -- ------ - ------- --- ----------<br>------------- ------ ------ ---- ---- ------- ----- -- ----<br>-------- ------- -- ---------- --- - --- ----- ----- ----<br>---- --- --- ----- --- ---- ---- ------- ----- ---- -------<br>--- --- -- ----- -- --- ---- -- --- ---- -- ------ really<br>--- ----- -- ----,176898.09999996424,176897.09999996424,176448.408,176461.69999998808,176464.901,176914.973,,51,really
screen,html.Screen,2_1_0_1_52,2022-02-03T15:39:45.487Z,,,,,,,,,,,,,,,,,53,,,,,,,,,,,,,,396.3270000119228,,response,,,,99,,,,,,,Space,keypress(Space),,,,,,,,---- -- ----- -- ------ - ------- --- ----------<br>------------- ------ ------ ---- ---- ------- ----- -- ----<br>-------- ------- -- ---------- --- - --- ----- ----- ----<br>---- --- --- ----- --- ---- ---- ------- ----- ---- -------<br>--- --- -- ----- -- --- ---- -- --- ---- -- ------ ------<br>not ----- -- ----,177312.19999998808,177311.30000001192,176898.46,176898.19999998808,176914.973,177314.993,,52,not
screen,html.Screen,2_1_0_1_53,2022-02-03T15:39:45.950Z,,,,,,,,,,,,,,,,,53,,,,,,,,,,,,,,458.80700001193327,,response,,,,99,,,,,,,Space,keypress(Space),,,,,,,,---- -- ----- -- ------ - ------- --- ----------<br>------------- ------ ------ ---- ---- ------- ----- -- ----<br>-------- ------- -- ---------- --- - --- ----- ----- ----<br>---- --- --- ----- --- ---- ---- ------- ----- ---- -------<br>--- --- -- ----- -- --- ---- -- --- ---- -- ------ ------<br>--- close -- ----,177774.80000001192,177773.80000001192,177298.497,177312.39999997616,177314.993,177781.774,,53,close
screen,html.Screen,2_1_0_1_54,2022-02-03T15:39:46.318Z,,,,,,,,,,,,,,,,,53,,,,,,,,,,,,,,360.02600001191604,,response,,,,99,,,,,,,Space,keypress(Space),,,,,,,,---- -- ----- -- ------ - ------- --- ----------<br>------------- ------ ------ ---- ---- ------- ----- -- ----<br>-------- ------- -- ---------- --- - --- ----- ----- ----<br>---- --- --- ----- --- ---- ---- ------- ----- ---- -------<br>--- --- -- ----- -- --- ---- -- --- ---- -- ------ ------<br>--- ----- at ----,178142.89999997616,178141.80000001192,177765.222,177774.89999997616,177781.774,178148.337,,54,at
screen,html.Screen,2_1_0_1_55,2022-02-03T15:39:47.143Z,,,,,,,,,,,,,,,,,53,,,,,,,,,,,,,,819.1630000000005,,response,,,,99,,,,,,,Space,keypress(Space),,,,,,,,---- -- ----- -- ------ - ------- --- ----------<br>------------- ------ ------ ---- ---- ------- ----- -- ----<br>-------- ------- -- ---------- --- - --- ----- ----- ----<br>---- --- --- ----- --- ---- ---- ------- ----- ---- -------<br>--- --- -- ----- -- --- ---- -- --- ---- -- ------ ------<br>--- ----- -- all.,178968.5,178967.5,178131.87,178143,178148.337,178982.147,,55,all.
Item 99,flow.Loop,2_1_0_1,2022-02-03T15:39:47.144Z,,,,,,,,,,,,,,,,,,,,,,,,,,,,,,,27185.13500000001,,completion,,,,,B,,,,,,,,,,,silence,,,,,178968.89999997616,178967.5,151749.121,151750.39999997616,151782.365,178982.147,,,
Question 1,html.Screen,2_1_0_2,2022-02-03T15:39:52.533Z,,,,,,,,,,,,,,,,,,,,,,,,,,,,true,FALSE,,5374.752999976161,,response,,,,99,B,,,,,,FALSE,click #choice-2,,,,silence,,,,,184358,184356.89999997616,178965.177,178969,178982.147,184364.752,,,
Question 2,html.Screen,2_1_0_3,2022-02-03T15:39:57.759Z,,,,,,,,,,,,,,,,,,,,,,,,,,,,true,TRUE,,5218.1479999761505,,response,,,,99,B,,,,,,TRUE,click #choice-1,,,,silence,,,,,189584.09999996424,189582.89999997616,184348.385,184358.30000001192,184364.752,189598.112,,,
Item 99,flow.Sequence,2_1_0,2022-02-03T15:39:57.759Z,,,,,,,,,,,,,,,,,,,,,,,,,,,,,,,47816.787999976164,,completion,,,,,,,,,,,,,,,,,,,,,189584.5,189582.89999997616,141749.614,141754.5,141766.112,189598.112,,,
Holding screen,html.Screen,2_1_1_0,2022-02-03T15:40:07.757Z,,,,,,,,,,,,,,,,,,,,,,,,,,,,,,,9999.687000000005,,timeout,,,,,,,,,,,,,,,,,,,,,199582.09999996424,199581.038,189581.336,189584.69999998808,189598.112,199597.799,,,
screen,html.Screen,2_1_1_1_0,2022-02-03T15:40:08.969Z,,,,,,,,,,,,,,,,,54,,,,,,,,,,,,,,1195.100999976159,,response,,,,100,,,,,,,Space,keypress(Space),,,,,,,,At --- ---- --- ------ ----- ------- ---- -- --- ------- --<br>------- ---------- ------ -- ----- -- ----- -- ---- ------<br>--- ----- --- --- ------ -------- ----- --- ------ ----- --<br>----- ----- ---------- --- --- ------ ------ ---- -- ------<br>------- --- ------ ----- --- ---- ------- -- ---- --- --<br>------- ------,200793.89999997616,200792.89999997616,199581.038,199582.19999998808,199597.799,200797.558,,0,At
screen,html.Screen,2_1_1_1_1,2022-02-03T15:40:09.362Z,,,,,,,,,,,,,,,,,54,,,,,,,,,,,,,,388.74200001193094,,response,,,,100,,,,,,,Space,keypress(Space),,,,,,,,-- the ---- --- ------ ----- ------- ---- -- --- ------- --<br>------- ---------- ------ -- ----- -- ----- -- ---- ------<br>--- ----- --- --- ------ -------- ----- --- ------ ----- --<br>----- ----- ---------- --- --- ------ ------ ---- -- ------<br>------- --- ------ ----- --- ---- ------- -- ---- --- --<br>------- ------,201187.09999996424,201186.30000001192,200781.178,200794.19999998808,200797.558,201197.742,,1,the
screen,html.Screen,2_1_1_1_2,2022-02-03T15:40:09.732Z,,,,,,,,,,,,,,,,,54,,,,,,,,,,,,,,358.6579999761598,,response,,,,100,,,,,,,Space,keypress(Space),,,,,,,,-- --- time --- ------ ----- ------- ---- -- --- ------- --<br>------- ---------- ------ -- ----- -- ----- -- ---- ------<br>--- ----- --- --- ------ -------- ----- --- ------ ----- --<br>----- ----- ---------- --- --- ------ ------ ---- -- ------<br>------- --- ------ ----- --- ---- ------- -- ---- --- --<br>------- ------,201557.5,201556.39999997616,201180.907,201187.30000001192,201197.742,201564.348,,2,time
screen,html.Screen,2_1_1_1_3,2022-02-03T15:40:10.085Z,,,,,,,,,,,,,,,,,54,,,,,,,,,,,,,,344.9520000119228,,response,,,,100,,,,,,,Space,keypress(Space),,,,,,,,-- --- ---- the ------ ----- ------- ---- -- --- ------- --<br>------- ---------- ------ -- ----- -- ----- -- ---- ------<br>--- ----- --- --- ------ -------- ----- --- ------ ----- --<br>----- ----- ---------- --- --- ------ ------ ---- -- ------<br>------- --- ------ ----- --- ---- ------- -- ---- --- --<br>------- ------,201910.39999997616,201909.30000001192,201547.653,201557.69999998808,201564.348,201931.118,,3,the
screen,html.Screen,2_1_1_1_4,2022-02-03T15:40:11.135Z,,,,,,,,,,,,,,,,,54,,,,,,,,,,,,,,1027.9819999642496,,response,,,,100,,,,,,,Space,keypress(Space),,,,,,,,-- --- ---- --- French ----- ------- ---- -- --- ------- --<br>------- ---------- ------ -- ----- -- ----- -- ---- ------<br>--- ----- --- --- ------ -------- ----- --- ------ ----- --<br>----- ----- ---------- --- --- ------ ------ ---- -- ------<br>------- --- ------ ----- --- ---- ------- -- ---- --- --<br>------- ------,202960.19999998808,202959.09999996424,201897.56,201910.59999996424,201931.118,202964.204,,4,French
screen,html.Screen,2_1_1_1_5,2022-02-03T15:40:11.523Z,,,,,,,,,,,,,,,,,54,,,,,,,,,,,,,,382.596000011923,,response,,,,100,,,,,,,Space,keypress(Space),,,,,,,,-- --- ---- --- ------ crown ------- ---- -- --- ------- --<br>------- ---------- ------ -- ----- -- ----- -- ---- ------<br>--- ----- --- --- ------ -------- ----- --- ------ ----- --<br>----- ----- ---------- --- --- ------ ------ ---- -- ------<br>------- --- ------ ----- --- ---- ------- -- ---- --- --<br>------- ------,203347.89999997616,203346.80000001192,202947.817,202960.30000001192,202964.204,203364.387,,5,crown
screen,html.Screen,2_1_1_1_6,2022-02-03T15:40:12.650Z,,,,,,,,,,,,,,,,,54,,,,,,,,,,,,,,1110.113000000012,,response,,,,100,,,,,,,Space,keypress(Space),,,,,,,,-- --- ---- --- ------ ----- secured ---- -- --- ------- --<br>------- ---------- ------ -- ----- -- ----- -- ---- ------<br>--- ----- --- --- ------ -------- ----- --- ------ ----- --<br>----- ----- ---------- --- --- ------ ------ ---- -- ------<br>------- --- ------ ----- --- ---- ------- -- ---- --- --<br>------- ------,204475.5,204474.5,203347.686,203348,203364.387,204480.856,,6,secured
screen,html.Screen,2_1_1_1_7,2022-02-03T15:40:13.001Z,,,,,,,,,,,,,,,,,54,,,,,,,,,,,,,,344.3439999880793,,response,,,,100,,,,,,,Space,keypress(Space),,,,,,,,-- --- ---- --- ------ ----- ------- much -- --- ------- --<br>------- ---------- ------ -- ----- -- ----- -- ---- ------<br>--- ----- --- --- ------ -------- ----- --- ------ ----- --<br>----- ----- ---------- --- --- ------ ------ ---- -- ------<br>------- --- ------ ----- --- ---- ------- -- ---- --- --<br>------- ------,204826,204825.19999998808,204464.198,204475.59999996424,204480.856,204830.751,,7,much
screen,html.Screen,2_1_1_1_8,2022-02-03T15:40:13.396Z,,,,,,,,,,,,,,,,,54,,,,,,,,,,,,,,389.2490000000107,,response,,,,100,,,,,,,Space,keypress(Space),,,,,,,,-- --- ---- --- ------ ----- ------- ---- of --- ------- --<br>------- ---------- ------ -- ----- -- ----- -- ---- ------<br>--- ----- --- --- ------ -------- ----- --- ------ ----- --<br>----- ----- ---------- --- --- ------ ------ ---- -- ------<br>------- --- ------ ----- --- ---- ------- -- ---- --- --<br>------- ------,205220.80000001192,205220,204814.222,204826.19999998808,204830.751,205230.847,,8,of
screen,html.Screen,2_1_1_1_9,2022-02-03T15:40:13.797Z,,,,,,,,,,,,,,,,,54,,,,,,,,,,,,,,390.3529999880702,,response,,,,100,,,,,,,Space,keypress(Space),,,,,,,,-- --- ---- --- ------ ----- ------- ---- -- its ------- --<br>------- ---------- ------ -- ----- -- ----- -- ---- ------<br>--- ----- --- --- ------ -------- ----- --- ------ ----- --<br>----- ----- ---------- --- --- ------ ------ ---- -- ------<br>------- --- ------ ----- --- ---- ------- -- ---- --- --<br>------- ------,205622,205621.19999998808,205214.454,205221,205230.847,205630.826,,9,its
screen,html.Screen,2_1_1_1_10,2022-02-03T15:40:14.157Z,,,,,,,,,,,,,,,,,54,,,,,,,,,,,,,,351.0739999761572,,response,,,,100,,,,,,,Space,keypress(Space),,,,,,,,-- --- ---- --- ------ ----- ------- ---- -- --- revenue --<br>------- ---------- ------ -- ----- -- ----- -- ---- ------<br>--- ----- --- --- ------ -------- ----- --- ------ ----- --<br>----- ----- ---------- --- --- ------ ------ ---- -- ------<br>------- --- ------ ----- --- ---- ------- -- ---- --- --<br>------- ------,205982.80000001192,205981.89999997616,205614.199,205622.19999998808,205630.826,205997.536,,10,revenue
screen,html.Screen,2_1_1_1_11,2022-02-03T15:40:14.593Z,,,,,,,,,,,,,,,,,54,,,,,,,,,,,,,,420.1639999880863,,response,,,,100,,,,,,,Space,keypress(Space),,,,,,,,-- --- ---- --- ------ ----- ------- ---- -- --- ------- by<br>------- ---------- ------ -- ----- -- ----- -- ---- ------<br>--- ----- --- --- ------ -------- ----- --- ------ ----- --<br>----- ----- ---------- --- --- ------ ------ ---- -- ------<br>------- --- ------ ----- --- ---- ------- -- ---- --- --<br>------- ------,206418.80000001192,206417.69999998808,205981.051,205982.89999997616,205997.536,206430.96,,11,by
screen,html.Screen,2_1_1_1_12,2022-02-03T15:40:15.032Z,,,,,,,,,,,,,,,,,54,,,,,,,,,,,,,,425.8400000119291,,response,,,,100,,,,,,,Space,keypress(Space),,,,,,,,-- --- ---- --- ------ ----- ------- ---- -- --- ------- --<br>issuing ---------- ------ -- ----- -- ----- -- ---- ------<br>--- ----- --- --- ------ -------- ----- --- ------ ----- --<br>----- ----- ---------- --- --- ------ ------ ---- -- ------<br>------- --- ------ ----- --- ---- ------- -- ---- --- --<br>------- ------,206857.59999996424,206856.80000001192,206414.119,206419,206430.96,206864.137,,12,issuing
screen,html.Screen,2_1_1_1_13,2022-02-03T15:40:15.412Z,,,,,,,,,,,,,,,,,54,,,,,,,,,,,,,,372.5629999880912,,response,,,,100,,,,,,,Space,keypress(Space),,,,,,,,-- --- ---- --- ------ ----- ------- ---- -- --- ------- --<br>------- government ------ -- ----- -- ----- -- ---- ------<br>--- ----- --- --- ------ -------- ----- --- ------ ----- --<br>----- ----- ---------- --- --- ------ ------ ---- -- ------<br>------- --- ------ ----- --- ---- ------- -- ---- --- --<br>------- ------,207237.59999996424,207236.69999998808,206847.528,206857.69999998808,206864.137,207247.407,,13,government
screen,html.Screen,2_1_1_1_14,2022-02-03T15:40:15.839Z,,,,,,,,,,,,,,,,,54,,,,,,,,,,,,,,415.8930000119144,,response,,,,100,,,,,,,Space,keypress(Space),,,,,,,,-- --- ---- --- ------ ----- ------- ---- -- --- ------- --<br>------- ---------- bonds. -- ----- -- ----- -- ---- ------<br>--- ----- --- --- ------ -------- ----- --- ------ ----- --<br>----- ----- ---------- --- --- ------ ------ ---- -- ------<br>------- --- ------ ----- --- ---- ------- -- ---- --- --<br>------- ------,207664.30000001192,207663.30000001192,207230.873,207237.80000001192,207247.407,207680.853,,14,bonds.
screen,html.Screen,2_1_1_1_15,2022-02-03T15:40:16.222Z,,,,,,,,,,,,,,,,,54,,,,,,,,,,,,,,365.6469999999972,,response,,,,100,,,,,,,Space,keypress(Space),,,,,,,,-- --- ---- --- ------ ----- ------- ---- -- --- ------- --<br>------- ---------- ------ In ----- -- ----- -- ---- ------<br>--- ----- --- --- ------ -------- ----- --- ------ ----- --<br>----- ----- ---------- --- --- ------ ------ ---- -- ------<br>------- --- ------ ----- --- ---- ------- -- ---- --- --<br>------- ------,208047.39999997616,208046.5,207664.13,207664.39999997616,207680.853,208064.114,,15,In
screen,html.Screen,2_1_1_1_16,2022-02-03T15:40:16.783Z,,,,,,,,,,,,,,,,,54,,,,,,,,,,,,,,543.5859999880777,,response,,,,100,,,,,,,Space,keypress(Space),,,,,,,,"-- --- ---- --- ------ ----- ------- ---- -- --- ------- --<br>------- ---------- ------ -- 1727, -- ----- -- ---- ------<br>--- ----- --- --- ------ -------- ----- --- ------ ----- --<br>----- ----- ---------- --- --- ------ ------ ---- -- ------<br>------- --- ------ ----- --- ---- ------- -- ---- --- --<br>------- ------",208608.80000001192,208607.69999998808,208047.553,208047.59999996424,208064.114,208613.961,,16,"1727,"
screen,html.Screen,2_1_1_1_17,2022-02-03T15:40:17.212Z,,,,,,,,,,,,,,,,,54,,,,,,,,,,,,,,422.2389999880688,,response,,,,100,,,,,,,Space,keypress(Space),,,,,,,,-- --- ---- --- ------ ----- ------- ---- -- --- ------- --<br>------- ---------- ------ -- ----- in ----- -- ---- ------<br>--- ----- --- --- ------ -------- ----- --- ------ ----- --<br>----- ----- ---------- --- --- ------ ------ ---- -- ------<br>------- --- ------ ----- --- ---- ------- -- ---- --- --<br>------- ------,209037.09999996424,209036.19999998808,208597.434,208609,208613.961,209047.576,,17,in
screen,html.Screen,2_1_1_1_18,2022-02-03T15:40:17.647Z,,,,,,,,,,,,,,,,,54,,,,,,,,,,,,,,424.12399998807814,,response,,,,100,,,,,,,Space,keypress(Space),,,,,,,,-- --- ---- --- ------ ----- ------- ---- -- --- ------- --<br>------- ---------- ------ -- ----- -- order -- ---- ------<br>--- ----- --- --- ------ -------- ----- --- ------ ----- --<br>----- ----- ---------- --- --- ------ ------ ---- -- ------<br>------- --- ------ ----- --- ---- ------- -- ---- --- --<br>------- ------,209472.69999998808,209471.69999998808,209030.978,209037.30000001192,209047.576,209480.789,,18,order
screen,html.Screen,2_1_1_1_19,2022-02-03T15:40:18.117Z,,,,,,,,,,,,,,,,,54,,,,,,,,,,,,,,460.81099996424746,,response,,,,100,,,,,,,Space,keypress(Space),,,,,,,,-- --- ---- --- ------ ----- ------- ---- -- --- ------- --<br>------- ---------- ------ -- ----- -- ----- to ---- ------<br>--- ----- --- --- ------ -------- ----- --- ------ ----- --<br>----- ----- ---------- --- --- ------ ------ ---- -- ------<br>------- --- ------ ----- --- ---- ------- -- ---- --- --<br>------- ------,209942.69999998808,209941.59999996424,209464.086,209472.80000001192,209480.789,209947.429,,19,to
screen,html.Screen,2_1_1_1_20,2022-02-03T15:40:18.631Z,,,,,,,,,,,,,,,,,54,,,,,,,,,,,,,,507.77099998807535,,response,,,,100,,,,,,,Space,keypress(Space),,,,,,,,-- --- ---- --- ------ ----- ------- ---- -- --- ------- --<br>------- ---------- ------ -- ----- -- ----- -- save ------<br>--- ----- --- --- ------ -------- ----- --- ------ ----- --<br>----- ----- ---------- --- --- ------ ------ ---- -- ------<br>------- --- ------ ----- --- ---- ------- -- ---- --- --<br>------- ------,210456.30000001192,210455.19999998808,209930.729,209942.80000001192,209947.429,210464.166,,20,save
screen,html.Screen,2_1_1_1_21,2022-02-03T15:40:19.067Z,,,,,,,,,,,,,,,,,54,,,,,,,,,,,,,,426.9339999642398,,response,,,,100,,,,,,,Space,keypress(Space),,,,,,,,"-- --- ---- --- ------ ----- ------- ---- -- --- ------- --<br>------- ---------- ------ -- ----- -- ----- -- ---- money,<br>--- ----- --- --- ------ -------- ----- --- ------ ----- --<br>----- ----- ---------- --- --- ------ ------ ---- -- ------<br>------- --- ------ ----- --- ---- ------- -- ---- --- --<br>------- ------",210891.89999997616,210891.09999996424,210447.356,210456.5,210464.166,210897.279,,21,"money,"
screen,html.Screen,2_1_1_1_22,2022-02-03T15:40:19.474Z,,,,,,,,,,,,,,,,,54,,,,,,,,,,,,,,402.0210000119114,,response,,,,100,,,,,,,Space,keypress(Space),,,,,,,,-- --- ---- --- ------ ----- ------- ---- -- --- ------- --<br>------- ---------- ------ -- ----- -- ----- -- ---- ------<br>the ----- --- --- ------ -------- ----- --- ------ ----- --<br>----- ----- ---------- --- --- ------ ------ ---- -- ------<br>------- --- ------ ----- --- ---- ------- -- ---- --- --<br>------- ------,211299.69999998808,211299.30000001192,210880.696,210892.09999996424,210897.279,211314.137,,22,the
screen,html.Screen,2_1_1_1_23,2022-02-03T15:40:19.890Z,,,,,,,,,,,,,,,,,54,,,,,,,,,,,,,,400.5629999880912,,response,,,,100,,,,,,,Space,keypress(Space),,,,,,,,-- --- ---- --- ------ ----- ------- ---- -- --- ------- --<br>------- ---------- ------ -- ----- -- ----- -- ---- ------<br>--- state --- --- ------ -------- ----- --- ------ ----- --<br>----- ----- ---------- --- --- ------ ------ ---- -- ------<br>------- --- ------ ----- --- ---- ------- -- ---- --- --<br>------- ------,211715.69999998808,211714.69999998808,211297.371,211299.80000001192,211314.137,211730.68,,23,state
screen,html.Screen,2_1_1_1_24,2022-02-03T15:40:20.334Z,,,,,,,,,,,,,,,,,54,,,,,,,,,,,,,,428.2199999761651,,response,,,,100,,,,,,,Space,keypress(Space),,,,,,,,-- --- ---- --- ------ ----- ------- ---- -- --- ------- --<br>------- ---------- ------ -- ----- -- ----- -- ---- ------<br>--- ----- cut --- ------ -------- ----- --- ------ ----- --<br>----- ----- ---------- --- --- ------ ------ ---- -- ------<br>------- --- ------ ----- --- ---- ------- -- ---- --- --<br>------- ------,212159.69999998808,212158.89999997616,211714.163,211715.89999997616,211730.68,212163.861,,24,cut
screen,html.Screen,2_1_1_1_25,2022-02-03T15:40:20.725Z,,,,,,,,,,,,,,,,,54,,,,,,,,,,,,,,385.1389999999956,,response,,,,100,,,,,,,Space,keypress(Space),,,,,,,,-- --- ---- --- ------ ----- ------- ---- -- --- ------- --<br>------- ---------- ------ -- ----- -- ----- -- ---- ------<br>--- ----- --- the ------ -------- ----- --- ------ ----- --<br>----- ----- ---------- --- --- ------ ------ ---- -- ------<br>------- --- ------ ----- --- ---- ------- -- ---- --- --<br>------- ------,212550,212549,212147.525,212159.89999997616,212163.861,212564.161,,25,the
screen,html.Screen,2_1_1_1_26,2022-02-03T15:40:21.120Z,,,,,,,,,,,,,,,,,54,,,,,,,,,,,,,,380.63900001192815,,response,,,,100,,,,,,,Space,keypress(Space),,,,,,,,-- --- ---- --- ------ ----- ------- ---- -- --- ------- --<br>------- ---------- ------ -- ----- -- ----- -- ---- ------<br>--- ----- --- --- bonds' -------- ----- --- ------ ----- --<br>----- ----- ---------- --- --- ------ ------ ---- -- ------<br>------- --- ------ ----- --- ---- ------- -- ---- --- --<br>------- ------,212945.5,212944.80000001192,212547.283,212550.19999998808,212564.161,212974.391,,26,bonds'
screen,html.Screen,2_1_1_1_27,2022-02-03T15:40:21.528Z,,,,,,,,,,,,,,,,,54,,,,,,,,,,,,,,377.70899996423395,,response,,,,100,,,,,,,Space,keypress(Space),,,,,,,,-- --- ---- --- ------ ----- ------- ---- -- --- ------- --<br>------- ---------- ------ -- ----- -- ----- -- ---- ------<br>--- ----- --- --- ------ interest ----- --- ------ ----- --<br>----- ----- ---------- --- --- ------ ------ ---- -- ------<br>------- --- ------ ----- --- ---- ------- -- ---- --- --<br>------- ------,213352.80000001192,213352.09999996424,212930.657,212945.80000001192,212974.391,213363.861,,27,interest
screen,html.Screen,2_1_1_1_28,2022-02-03T15:40:21.964Z,,,,,,,,,,,,,,,,,54,,,,,,,,,,,,,,424.9390000119165,,response,,,,100,,,,,,,Space,keypress(Space),,,,,,,,-- --- ---- --- ------ ----- ------- ---- -- --- ------- --<br>------- ---------- ------ -- ----- -- ----- -- ---- ------<br>--- ----- --- --- ------ -------- rate. --- ------ ----- --<br>----- ----- ---------- --- --- ------ ------ ---- -- ------<br>------- --- ------ ----- --- ---- ------- -- ---- --- --<br>------- ------,213789.69999998808,213788.80000001192,213347.517,213353,213363.861,213797.353,,28,rate.
screen,html.Screen,2_1_1_1_29,2022-02-03T15:40:22.368Z,,,,,,,,,,,,,,,,,54,,,,,,,,,,,,,,395.04699997615535,,response,,,,100,,,,,,,Space,keypress(Space),,,,,,,,-- --- ---- --- ------ ----- ------- ---- -- --- ------- --<br>------- ---------- ------ -- ----- -- ----- -- ---- ------<br>--- ----- --- --- ------ -------- ----- The ------ ----- --<br>----- ----- ---------- --- --- ------ ------ ---- -- ------<br>------- --- ------ ----- --- ---- ------- -- ---- --- --<br>------- ------,214193.30000001192,214192.39999997616,213780.735,213789.89999997616,213797.353,214197.198,,29,The
screen,html.Screen,2_1_1_1_30,2022-02-03T15:40:22.761Z,,,,,,,,,,,,,,,,,54,,,,,,,,,,,,,,387.80199999999604,,response,,,,100,,,,,,,Space,keypress(Space),,,,,,,,-- --- ---- --- ------ ----- ------- ---- -- --- ------- --<br>------- ---------- ------ -- ----- -- ----- -- ---- ------<br>--- ----- --- --- ------ -------- ----- --- market ----- --<br>----- ----- ---------- --- --- ------ ------ ---- -- ------<br>------- --- ------ ----- --- ---- ------- -- ---- --- --<br>------- ------,214586,214585,214180.666,214193.5,214197.198,214597.513,,30,market
screen,html.Screen,2_1_1_1_31,2022-02-03T15:40:23.199Z,,,,,,,,,,,,,,,,,54,,,,,,,,,,,,,,425.88699997615186,,response,,,,100,,,,,,,Space,keypress(Space),,,,,,,,-- --- ---- --- ------ ----- ------- ---- -- --- ------- --<br>------- ---------- ------ -- ----- -- ----- -- ---- ------<br>--- ----- --- --- ------ -------- ----- --- ------ value --<br>----- ----- ---------- --- --- ------ ------ ---- -- ------<br>------- --- ------ ----- --- ---- ------- -- ---- --- --<br>------- ------,215024.69999998808,215023.39999997616,214580.58,214586,214597.513,215030.519,,31,value
screen,html.Screen,2_1_1_1_32,2022-02-03T15:40:23.610Z,,,,,,,,,,,,,,,,,54,,,,,,,,,,,,,,403.580999964237,,response,,,,100,,,,,,,Space,keypress(Space),,,,,,,,-- --- ---- --- ------ ----- ------- ---- -- --- ------- --<br>------- ---------- ------ -- ----- -- ----- -- ---- ------<br>--- ----- --- --- ------ -------- ----- --- ------ ----- of<br>----- ----- ---------- --- --- ------ ------ ---- -- ------<br>------- --- ------ ----- --- ---- ------- -- ---- --- --<br>------- ------,215435.19999998808,215434.09999996424,215014.035,215025.09999996424,215030.519,215447.244,,32,of
screen,html.Screen,2_1_1_1_33,2022-02-03T15:40:24.029Z,,,,,,,,,,,,,,,,,54,,,,,,,,,,,,,,406.455999988073,,response,,,,100,,,,,,,Space,keypress(Space),,,,,,,,-- --- ---- --- ------ ----- ------- ---- -- --- ------- --<br>------- ---------- ------ -- ----- -- ----- -- ---- ------<br>--- ----- --- --- ------ -------- ----- --- ------ ----- --<br>these ----- ---------- --- --- ------ ------ ---- -- ------<br>------- --- ------ ----- --- ---- ------- -- ---- --- --<br>------- ------,215854.59999996424,215853.69999998808,215430.786,215435.39999997616,215447.244,215864.003,,33,these
screen,html.Screen,2_1_1_1_34,2022-02-03T15:40:24.443Z,,,,,,,,,,,,,,,,,54,,,,,,,,,,,,,,402.997000000003,,response,,,,100,,,,,,,Space,keypress(Space),,,,,,,,-- --- ---- --- ------ ----- ------- ---- -- --- ------- --<br>------- ---------- ------ -- ----- -- ----- -- ---- ------<br>--- ----- --- --- ------ -------- ----- --- ------ ----- --<br>----- bonds ---------- --- --- ------ ------ ---- -- ------<br>------- --- ------ ----- --- ---- ------- -- ---- --- --<br>------- ------,216267.89999997616,216267,215847.384,215854.80000001192,215864.003,216280.442,,34,bonds
screen,html.Screen,2_1_1_1_35,2022-02-03T15:40:25.275Z,,,,,,,,,,,,,,,,,54,,,,,,,,,,,,,,818.8580000119109,,response,,,,100,,,,,,,Space,keypress(Space),,,,,,,,"-- --- ---- --- ------ ----- ------- ---- -- --- ------- --<br>------- ---------- ------ -- ----- -- ----- -- ---- ------<br>--- ----- --- --- ------ -------- ----- --- ------ ----- --<br>----- ----- plummeted, --- --- ------ ------ ---- -- ------<br>------- --- ------ ----- --- ---- ------- -- ---- --- --<br>------- ------",217100.30000001192,217099.30000001192,216264.043,216268.09999996424,216280.442,217114.046,,35,"plummeted,"
screen,html.Screen,2_1_1_1_36,2022-02-03T15:40:25.679Z,,,,,,,,,,,,,,,,,54,,,,,,,,,,,,,,389.75400001191883,,response,,,,100,,,,,,,Space,keypress(Space),,,,,,,,-- --- ---- --- ------ ----- ------- ---- -- --- ------- --<br>------- ---------- ------ -- ----- -- ----- -- ---- ------<br>--- ----- --- --- ------ -------- ----- --- ------ ----- --<br>----- ----- ---------- and --- ------ ------ ---- -- ------<br>------- --- ------ ----- --- ---- ------- -- ---- --- --<br>------- ------,217504.19999998808,217503.80000001192,217097.204,217100.39999997616,217114.046,217513.769,,36,and
screen,html.Screen,2_1_1_1_37,2022-02-03T15:40:26.097Z,,,,,,,,,,,,,,,,,54,,,,,,,,,,,,,,408.0310000119207,,response,,,,100,,,,,,,Space,keypress(Space),,,,,,,,-- --- ---- --- ------ ----- ------- ---- -- --- ------- --<br>------- ---------- ------ -- ----- -- ----- -- ---- ------<br>--- ----- --- --- ------ -------- ----- --- ------ ----- --<br>----- ----- ---------- --- the ------ ------ ---- -- ------<br>------- --- ------ ----- --- ---- ------- -- ---- --- --<br>------- ------,217922.69999998808,217921.80000001192,217497.118,217504.30000001192,217513.769,217930.393,,37,the
screen,html.Screen,2_1_1_1_38,2022-02-03T15:40:26.493Z,,,,,,,,,,,,,,,,,54,,,,,,,,,,,,,,386.5069999761472,,response,,,,100,,,,,,,Space,keypress(Space),,,,,,,,-- --- ---- --- ------ ----- ------- ---- -- --- ------- --<br>------- ---------- ------ -- ----- -- ----- -- ---- ------<br>--- ----- --- --- ------ -------- ----- --- ------ ----- --<br>----- ----- ---------- --- --- market ------ ---- -- ------<br>------- --- ------ ----- --- ---- ------- -- ---- --- --<br>------- ------,218318,218316.89999997616,217913.808,217922.89999997616,217930.393,218330.598,,38,market
screen,html.Screen,2_1_1_1_39,2022-02-03T15:40:26.888Z,,,,,,,,,,,,,,,,,54,,,,,,,,,,,,,,382.10199998808093,,response,,,,100,,,,,,,Space,keypress(Space),,,,,,,,-- --- ---- --- ------ ----- ------- ---- -- --- ------- --<br>------- ---------- ------ -- ----- -- ----- -- ---- ------<br>--- ----- --- --- ------ -------- ----- --- ------ ----- --<br>----- ----- ---------- --- --- ------ became ---- -- ------<br>------- --- ------ ----- --- ---- ------- -- ---- --- --<br>------- ------,218713.09999996424,218712.69999998808,218314.039,218318.09999996424,218330.598,218730.451,,39,became
screen,html.Screen,2_1_1_1_40,2022-02-03T15:40:27.288Z,,,,,,,,,,,,,,,,,54,,,,,,,,,,,,,,381.84900001192,,response,,,,100,,,,,,,Space,keypress(Space),,,,,,,,-- --- ---- --- ------ ----- ------- ---- -- --- ------- --<br>------- ---------- ------ -- ----- -- ----- -- ---- ------<br>--- ----- --- --- ------ -------- ----- --- ------ ----- --<br>----- ----- ---------- --- --- ------ ------ wary -- ------<br>------- --- ------ ----- --- ---- ------- -- ---- --- --<br>------- ------,219113.30000001192,219112.30000001192,218697.191,218713.19999998808,218730.451,219130.52,,40,wary
screen,html.Screen,2_1_1_1_41,2022-02-03T15:40:27.709Z,,,,,,,,,,,,,,,,,54,,,,,,,,,,,,,,403.3799999761686,,response,,,,100,,,,,,,Space,keypress(Space),,,,,,,,-- --- ---- --- ------ ----- ------- ---- -- --- ------- --<br>------- ---------- ------ -- ----- -- ----- -- ---- ------<br>--- ----- --- --- ------ -------- ----- --- ------ ----- --<br>----- ----- ---------- --- --- ------ ------ ---- of ------<br>------- --- ------ ----- --- ---- ------- -- ---- --- --<br>------- ------,219534.69999998808,219533.89999997616,219113.753,219113.5,219130.52,219547.366,,41,of
screen,html.Screen,2_1_1_1_42,2022-02-03T15:40:28.242Z,,,,,,,,,,,,,,,,,54,,,,,,,,,,,,,,519.5339999761491,,response,,,,100,,,,,,,Space,keypress(Space),,,,,,,,-- --- ---- --- ------ ----- ------- ---- -- --- ------- --<br>------- ---------- ------ -- ----- -- ----- -- ---- ------<br>--- ----- --- --- ------ -------- ----- --- ------ ----- --<br>----- ----- ---------- --- --- ------ ------ ---- -- French<br>------- --- ------ ----- --- ---- ------- -- ---- --- --<br>------- ------,220067.80000001192,220066.89999997616,219530.459,219534.89999997616,219547.366,220080.744,,42,French
screen,html.Screen,2_1_1_1_43,2022-02-03T15:40:28.759Z,,,,,,,,,,,,,,,,,54,,,,,,,,,,,,,,502.455999988073,,response,,,,100,,,,,,,Space,keypress(Space),,,,,,,,-- --- ---- --- ------ ----- ------- ---- -- --- ------- --<br>------- ---------- ------ -- ----- -- ----- -- ---- ------<br>--- ----- --- --- ------ -------- ----- --- ------ ----- --<br>----- ----- ---------- --- --- ------ ------ ---- -- ------<br>credit. --- ------ ----- --- ---- ------- -- ---- --- --<br>------- ------,220583.89999997616,220583.19999998808,220063.733,220068,220080.744,220597.104,,43,credit.
screen,html.Screen,2_1_1_1_44,2022-02-03T15:40:29.131Z,,,,,,,,,,,,,,,,,54,,,,,,,,,,,,,,358.3960000000079,,response,,,,100,,,,,,,Space,keypress(Space),,,,,,,,-- --- ---- --- ------ ----- ------- ---- -- --- ------- --<br>------- ---------- ------ -- ----- -- ----- -- ---- ------<br>--- ----- --- --- ------ -------- ----- --- ------ ----- --<br>----- ----- ---------- --- --- ------ ------ ---- -- ------<br>------- The ------ ----- --- ---- ------- -- ---- --- --<br>------- ------,220956.30000001192,220955.5,220580.497,220584.09999996424,220597.104,220963.769,,44,The
screen,html.Screen,2_1_1_1_45,2022-02-03T15:40:29.524Z,,,,,,,,,,,,,,,,,54,,,,,,,,,,,,,,384.73099999999977,,response,,,,100,,,,,,,Space,keypress(Space),,,,,,,,-- --- ---- --- ------ ----- ------- ---- -- --- ------- --<br>------- ---------- ------ -- ----- -- ----- -- ---- ------<br>--- ----- --- --- ------ -------- ----- --- ------ ----- --<br>----- ----- ---------- --- --- ------ ------ ---- -- ------<br>------- --- French ----- --- ---- ------- -- ---- --- --<br>------- ------,221349.19999998808,221348.5,220947.098,220956.39999997616,220963.769,221363.714,,45,French
screen,html.Screen,2_1_1_1_46,2022-02-03T15:40:29.942Z,,,,,,,,,,,,,,,,,54,,,,,,,,,,,,,,401.98599998807185,,response,,,,100,,,,,,,Space,keypress(Space),,,,,,,,-- --- ---- --- ------ ----- ------- ---- -- --- ------- --<br>------- ---------- ------ -- ----- -- ----- -- ---- ------<br>--- ----- --- --- ------ -------- ----- --- ------ ----- --<br>----- ----- ---------- --- --- ------ ------ ---- -- ------<br>------- --- ------ state --- ---- ------- -- ---- --- --<br>------- ------,221766.89999997616,221765.69999998808,221347.384,221349.39999997616,221363.714,221780.464,,46,state
screen,html.Screen,2_1_1_1_47,2022-02-03T15:40:30.334Z,,,,,,,,,,,,,,,,,54,,,,,,,,,,,,,,377.5359999999928,,response,,,,100,,,,,,,Space,keypress(Space),,,,,,,,-- --- ---- --- ------ ----- ------- ---- -- --- ------- --<br>------- ---------- ------ -- ----- -- ----- -- ---- ------<br>--- ----- --- --- ------ -------- ----- --- ------ ----- --<br>----- ----- ---------- --- --- ------ ------ ---- -- ------<br>------- --- ------ ----- was ---- ------- -- ---- --- --<br>------- ------,222159.19999998808,222158,221763.835,221767,221780.464,222163.609,,47,was
screen,html.Screen,2_1_1_1_48,2022-02-03T15:40:30.763Z,,,,,,,,,,,,,,,,,54,,,,,,,,,,,,,,423.89100000000326,,response,,,,100,,,,,,,Space,keypress(Space),,,,,,,,-- --- ---- --- ------ ----- ------- ---- -- --- ------- --<br>------- ---------- ------ -- ----- -- ----- -- ---- ------<br>--- ----- --- --- ------ -------- ----- --- ------ ----- --<br>----- ----- ---------- --- --- ------ ------ ---- -- ------<br>------- --- ------ ----- --- left ------- -- ---- --- --<br>------- ------,222588.69999998808,222587.5,222147.298,222159.39999997616,222163.609,222597.077,,48,left
screen,html.Screen,2_1_1_1_49,2022-02-03T15:40:31.155Z,,,,,,,,,,,,,,,,,54,,,,,,,,,,,,,,381.7230000119307,,response,,,,100,,,,,,,Space,keypress(Space),,,,,,,,-- --- ---- --- ------ ----- ------- ---- -- --- ------- --<br>------- ---------- ------ -- ----- -- ----- -- ---- ------<br>--- ----- --- --- ------ -------- ----- --- ------ ----- --<br>----- ----- ---------- --- --- ------ ------ ---- -- ------<br>------- --- ------ ----- --- ---- without -- ---- --- --<br>------- ------,222979.89999997616,222978.80000001192,222580.589,222588.89999997616,222597.077,222997.23,,49,without
screen,html.Screen,2_1_1_1_50,2022-02-03T15:40:31.688Z,,,,,,,,,,,,,,,,,54,,,,,,,,,,,,,,514.5700000119105,,response,,,,100,,,,,,,Space,keypress(Space),,,,,,,,-- --- ---- --- ------ ----- ------- ---- -- --- ------- --<br>------- ---------- ------ -- ----- -- ----- -- ---- ------<br>--- ----- --- --- ------ -------- ----- --- ------ ----- --<br>----- ----- ---------- --- --- ------ ------ ---- -- ------<br>------- --- ------ ----- --- ---- ------- an ---- --- --<br>------- ------,223513,223511.80000001192,222980.346,222980.09999996424,222997.23,223530.397,,50,an
screen,html.Screen,2_1_1_1_51,2022-02-03T15:40:32.148Z,,,,,,,,,,,,,,,,,54,,,,,,,,,,,,,,441.80299998808187,,response,,,,100,,,,,,,Space,keypress(Space),,,,,,,,-- --- ---- --- ------ ----- ------- ---- -- --- ------- --<br>------- ---------- ------ -- ----- -- ----- -- ---- ------<br>--- ----- --- --- ------ -------- ----- --- ------ ----- --<br>----- ----- ---------- --- --- ------ ------ ---- -- ------<br>------- --- ------ ----- --- ---- ------- -- easy --- --<br>------- ------,223973.19999998808,223972.19999998808,223497.209,223513.09999996424,223530.397,223980.328,,51,easy
screen,html.Screen,2_1_1_1_52,2022-02-03T15:40:32.852Z,,,,,,,,,,,,,,,,,54,,,,,,,,,,,,,,696.1719999999914,,response,,,,100,,,,,,,Space,keypress(Space),,,,,,,,-- --- ---- --- ------ ----- ------- ---- -- --- ------- --<br>------- ---------- ------ -- ----- -- ----- -- ---- ------<br>--- ----- --- --- ------ -------- ----- --- ------ ----- --<br>----- ----- ---------- --- --- ------ ------ ---- -- ------<br>------- --- ------ ----- --- ---- ------- -- ---- way --<br>------- ------,224677.39999997616,224676.5,223963.562,223973.30000001192,223980.328,224680.184,,52,way
screen,html.Screen,2_1_1_1_53,2022-02-03T15:40:33.782Z,,,,,,,,,,,,,,,,,54,,,,,,,,,,,,,,925.9159999642288,,response,,,,100,,,,,,,Space,keypress(Space),,,,,,,,-- --- ---- --- ------ ----- ------- ---- -- --- ------- --<br>------- ---------- ------ -- ----- -- ----- -- ---- ------<br>--- ----- --- --- ------ -------- ----- --- ------ ----- --<br>----- ----- ---------- --- --- ------ ------ ---- -- ------<br>------- --- ------ ----- --- ---- ------- -- ---- --- of<br>------- ------,225607.30000001192,225606.09999996424,224663.619,224677.59999996424,224680.184,225613.622,,53,of
screen,html.Screen,2_1_1_1_54,2022-02-03T15:40:34.230Z,,,,,,,,,,,,,,,,,54,,,,,,,,,,,,,,440.4779999642342,,response,,,,100,,,,,,,Space,keypress(Space),,,,,,,,-- --- ---- --- ------ ----- ------- ---- -- --- ------- --<br>------- ---------- ------ -- ----- -- ----- -- ---- ------<br>--- ----- --- --- ------ -------- ----- --- ------ ----- --<br>----- ----- ---------- --- --- ------ ------ ---- -- ------<br>------- --- ------ ----- --- ---- ------- -- ---- --- --<br>raising ------,226055.19999998808,226054.09999996424,225597.046,225607.39999997616,225613.622,226063.801,,54,raising
screen,html.Screen,2_1_1_1_55,2022-02-03T15:40:34.791Z,,,,,,,,,,,,,,,,,54,,,,,,,,,,,,,,551.7989999642305,,response,,,,100,,,,,,,Space,keypress(Space),,,,,,,,-- --- ---- --- ------ ----- ------- ---- -- --- ------- --<br>------- ---------- ------ -- ----- -- ----- -- ---- ------<br>--- ----- --- --- ------ -------- ----- --- ------ ----- --<br>----- ----- ---------- --- --- ------ ------ ---- -- ------<br>------- --- ------ ----- --- ---- ------- -- ---- --- --<br>------- money.,226616.59999996424,226615.59999996424,226047.183,226055.39999997616,226063.801,226630.463,,55,money.
Item 100,flow.Loop,2_1_1_1,2022-02-03T15:40:34.792Z,,,,,,,,,,,,,,,,,,,,,,,,,,,,,,,27017.800999964238,,completion,,,,,B,,,,,,,,,,,silence,,,,,226617,226615.59999996424,199581.038,199582.19999998808,199597.799,226630.463,,,
Question 1,html.Screen,2_1_1_2,2022-02-03T15:40:38.550Z,,,,,,,,,,,,,,,,,,,,,,,,,,,,true,TRUE,,3743.4369999761693,,response,,,,100,B,,,,,,TRUE,click #choice-1,,,,silence,,,,,230374.89999997616,230373.89999997616,226613.689,226617.09999996424,226630.463,230380.114,,,
Question 2,html.Screen,2_1_1_3,2022-02-03T15:40:41.485Z,,,,,,,,,,,,,,,,,,,,,,,,,,,,true,FALSE,,2928.5859999880777,,response,,,,100,B,,,,,,FALSE,click #choice-2,,,,silence,,,,,233309.89999997616,233308.69999998808,230363.696,230375.19999998808,230380.114,233313.379,,,
Item 100,flow.Sequence,2_1_1,2022-02-03T15:40:41.485Z,,,,,,,,,,,,,,,,,,,,,,,,,,,,,,,43710.587999988085,,completion,,,,,,,,,,,,,,,,,,,,,233310.09999996424,233308.69999998808,189581.336,189584.59999996424,189598.112,233313.379,,,
End of Practice,html.Page,2_1_2,2022-02-03T15:40:45.087Z,,,,,,,,,,,,,,,,,,,,,,,,,,,,,,,3598.1210000000137,,form submission,,,,,,,,,,,,,,,,,,,,,236911.89999997616,236911.5,233296.928,233310.30000001192,233313.379,236913.248,,,
Practice,flow.Sequence,2_1,2022-02-03T15:40:45.087Z,,,,,,,,,,,,,,,,,,,,,,,,,,,,,,,95145.388,,completion,,,,,,,,,,,,,,,,,,,,,236912.19999998808,236911.5,141749.614,141754.39999997616,141766.112,236913.248,,,
Trap_instruction,html.Page,2_2_0,2022-02-03T15:40:50.136Z,,,,,,,,,,,,,,,,,,,,,,,,,,,,,,,5047.851999964245,,form submission,,,,,,,,,,,,,,,,,,,,,241961.5,241961.09999996424,236896.858,236912.30000001192,236913.248,241979.859,,,
trap_trial,html.Screen,2_2_1,2022-02-03T15:40:54.597Z,,,,,,,,,,,,,,,,,,,,,,,,,,,,true,1,,4440.540999976161,,response,,,,,,,,,,,1,click #choice-1,,,,,,,,,246421.80000001192,246420.39999997616,241946.46,241961.69999998808,241979.859,246429.642,,,
end of trap trial,html.Page,2_2_2,2022-02-03T15:40:56.484Z,,,,,,,,,,,,,,,,,,,,,,,,,,,,,,,1879.0579999880865,,form submission,,,,,,,,,,,,,,,,,,,,,248309,248308.69999998808,246413.131,246422,246429.642,248312.858,,,
Trap 1,flow.Sequence,2_2,2022-02-03T15:40:56.484Z,,,,,,,,,,,,,,,,,,,,,,,,,,,,,,,11395.451999988087,,completion,,,,,,,,,,,,,,,,,,,,,248309.30000001192,248308.69999998808,236896.858,236912.30000001192,236913.248,248312.858,,,
Standby,html.Page,2_3_0,2022-02-03T15:41:04.472Z,,,,,,,,,,,,,,,,,,,,,,,,,,,,,,,7999.8279999999795,,timeout,,,,,,,,,,,,,,,,,,,,,256297.19999998808,256296.059,248296.285,248309.39999997616,248312.858,256312.686,,,
Holding screen,html.Screen,2_3_1_0_0,2022-02-03T15:41:11.471Z,,,,,,,,,,,,,,,,,,,,,,,,,,,,,,,6999.790000000037,,timeout,,,,,,,,,,,,,,,,,,,,,263296.59999996424,263295.918,256296.059,256297.39999997616,256312.686,263312.476,,,
screen,html.Screen,2_3_1_0_1_0,2022-02-03T15:41:12.380Z,,,,,,,,,,,,,,,,,15,,,,,,,,,,,,,,891.7239999880549,,response,,,,7,B,,,,,,Space,keypress(Space),,,,lyrical,,,,Greg --------- ---------- - --- ------- -- --- ------------<br>----- -- -------- ------- ---- ------ - -------- ---- -----<br>--- ------- ---- -- --- -------- --- - ----- ------ ---- --<br>-------- --- -------- -------- --- -------- ---- -- ----- -<br>-------- ---- --- ---------- --------- -- ------- ------ -<br>--------- ----- -----,264205.1999999881,264204.1999999881,263295.918,263296.6999999881,263312.476,264212.566,,0,Greg
screen,html.Screen,2_3_1_0_1_1,2022-02-03T15:41:12.809Z,,,,,,,,,,,,,,,,,15,,,,,,,,,,,,,,420.5339999642456,,response,,,,7,B,,,,,,Space,keypress(Space),,,,lyrical,,,,"---- Anderson, ---------- - --- ------- -- --- ------------<br>----- -- -------- ------- ---- ------ - -------- ---- -----<br>--- ------- ---- -- --- -------- --- - ----- ------ ---- --<br>-------- --- -------- -------- --- -------- ---- -- ----- -<br>-------- ---- --- ---------- --------- -- ------- ------ -<br>--------- ----- -----",264634,264633.09999996424,264195.932,264205.39999997616,264212.566,264645.899,,1,"Anderson,"
screen,html.Screen,2_3_1_0_1_2,2022-02-03T15:41:13.294Z,,,,,,,,,,,,,,,,,15,,,,,,,,,,,,,,472.2009999642614,,response,,,,7,B,,,,,,Space,keypress(Space),,,,lyrical,,,,---- --------- considered - --- ------- -- --- ------------<br>----- -- -------- ------- ---- ------ - -------- ---- -----<br>--- ------- ---- -- --- -------- --- - ----- ------ ---- --<br>-------- --- -------- -------- --- -------- ---- -- ----- -<br>-------- ---- --- ---------- --------- -- ------- ------ -<br>--------- ----- -----,265119.1999999881,265118.09999996424,264629.071,264634.1999999881,264645.899,265129.112,,2,considered
screen,html.Screen,2_3_1_0_1_3,2022-02-03T15:41:13.683Z,,,,,,,,,,,,,,,,,15,,,,,,,,,,,,,,378.6880000118981,,response,,,,7,B,,,,,,Space,keypress(Space),,,,lyrical,,,,---- --------- ---------- a --- ------- -- --- ------------<br>----- -- -------- ------- ---- ------ - -------- ---- -----<br>--- ------- ---- -- --- -------- --- - ----- ------ ---- --<br>-------- --- -------- -------- --- -------- ---- -- ----- -<br>-------- ---- --- ---------- --------- -- ------- ------ -<br>--------- ----- -----,265508.59999996424,265507.8000000119,265112.414,265119.5,265129.112,265512.352,,3,a
screen,html.Screen,2_3_1_0_1_4,2022-02-03T15:41:14.056Z,,,,,,,,,,,,,,,,,15,,,,,,,,,,,,,,367.6479999999865,,response,,,,7,B,,,,,,Space,keypress(Space),,,,lyrical,,,,---- --------- ---------- - key ------- -- --- ------------<br>----- -- -------- ------- ---- ------ - -------- ---- -----<br>--- ------- ---- -- --- -------- --- - ----- ------ ---- --<br>-------- --- -------- -------- --- -------- ---- -- ----- -<br>-------- ---- --- ---------- --------- -- ------- ------ -<br>--------- ----- -----,265880.8000000119,265880,265495.746,265508.6999999881,265512.352,265896.061,,4,key
screen,html.Screen,2_3_1_0_1_5,2022-02-03T15:41:14.413Z,,,,,,,,,,,,,,,,,15,,,,,,,,,,,,,,340.73900001193397,,response,,,,7,B,,,,,,Space,keypress(Space),,,,lyrical,,,,---- --------- ---------- - --- witness -- --- ------------<br>----- -- -------- ------- ---- ------ - -------- ---- -----<br>--- ------- ---- -- --- -------- --- - ----- ------ ---- --<br>-------- --- -------- -------- --- -------- ---- -- ----- -<br>-------- ---- --- ---------- --------- -- ------- ------ -<br>--------- ----- -----,266237.6999999881,266236.8000000119,265879.308,265881.09999996424,265896.061,266245.856,,5,witness
screen,html.Screen,2_3_1_0_1_6,2022-02-03T15:41:14.796Z,,,,,,,,,,,,,,,,,15,,,,,,,,,,,,,,374.3439999880502,,response,,,,7,B,,,,,,Space,keypress(Space),,,,lyrical,,,,---- --------- ---------- - --- ------- by --- ------------<br>----- -- -------- ------- ---- ------ - -------- ---- -----<br>--- ------- ---- -- --- -------- --- - ----- ------ ---- --<br>-------- --- -------- -------- --- -------- ---- -- ----- -<br>-------- ---- --- ---------- --------- -- ------- ------ -<br>--------- ----- -----,266621.09999996424,266620.1999999881,266229.144,266237.89999997616,266245.856,266629.134,,6,by
screen,html.Screen,2_3_1_0_1_7,2022-02-03T15:41:15.162Z,,,,,,,,,,,,,,,,,15,,,,,,,,,,,,,,357.36599999998,,response,,,,7,B,,,,,,Space,keypress(Space),,,,lyrical,,,,---- --------- ---------- - --- ------- -- the ------------<br>----- -- -------- ------- ---- ------ - -------- ---- -----<br>--- ------- ---- -- --- -------- --- - ----- ------ ---- --<br>-------- --- -------- -------- --- -------- ---- -- ----- -<br>-------- ---- --- ---------- --------- -- ------- ------ -<br>--------- ----- -----,266987.39999997616,266986.5,266612.448,266621.1999999881,266629.134,266995.743,,7,the
screen,html.Screen,2_3_1_0_1_8,2022-02-03T15:41:15.682Z,,,,,,,,,,,,,,,,,15,,,,,,,,,,,,,,510.55700001190417,,response,,,,7,B,,,,,,Space,keypress(Space),,,,lyrical,,,,"---- --------- ---------- - --- ------- -- --- prosecution,<br>----- -- -------- ------- ---- ------ - -------- ---- -----<br>--- ------- ---- -- --- -------- --- - ----- ------ ---- --<br>-------- --- -------- -------- --- -------- ---- -- ----- -<br>-------- ---- --- ---------- --------- -- ------- ------ -<br>--------- ----- -----",267507.3000000119,267506.3000000119,266979.065,266987.5,266995.743,267512.346,,8,"prosecution,"
screen,html.Screen,2_3_1_0_1_9,2022-02-03T15:41:16.490Z,,,,,,,,,,,,,,,,,15,,,,,,,,,,,,,,802.4540000119014,,response,,,,7,B,,,,,,Space,keypress(Space),,,,lyrical,,,,---- --------- ---------- - --- ------- -- --- ------------<br>vowed -- -------- ------- ---- ------ - -------- ---- -----<br>--- ------- ---- -- --- -------- --- - ----- ------ ---- --<br>-------- --- -------- -------- --- -------- ---- -- ----- -<br>-------- ---- --- ---------- --------- -- ------- ------ -<br>--------- ----- -----,268315.6999999881,268314.8000000119,267495.838,267507.39999997616,267512.346,268329.073,,9,vowed
screen,html.Screen,2_3_1_0_1_10,2022-02-03T15:41:17.091Z,,,,,,,,,,,,,,,,,15,,,,,,,,,,,,,,586.6269999881042,,response,,,,7,B,,,,,,Space,keypress(Space),,,,lyrical,,,,---- --------- ---------- - --- ------- -- --- ------------<br>----- he -------- ------- ---- ------ - -------- ---- -----<br>--- ------- ---- -- --- -------- --- - ----- ------ ---- --<br>-------- --- -------- -------- --- -------- ---- -- ----- -<br>-------- ---- --- ---------- --------- -- ------- ------ -<br>--------- ----- -----,268916.59999996424,268915.6999999881,268312.278,268315.89999997616,268329.073,268929.131,,10,he
screen,html.Screen,2_3_1_0_1_11,2022-02-03T15:41:17.663Z,,,,,,,,,,,,,,,,,15,,,,,,,,,,,,,,558.0689999880851,,response,,,,7,B,,,,,,Space,keypress(Space),,,,lyrical,,,,---- --------- ---------- - --- ------- -- --- ------------<br>----- -- wouldn't ------- ---- ------ - -------- ---- -----<br>--- ------- ---- -- --- -------- --- - ----- ------ ---- --<br>-------- --- -------- -------- --- -------- ---- -- ----- -<br>-------- ---- --- ---------- --------- -- ------- ------ -<br>--------- ----- -----,269488,269487.1999999881,268912.288,268916.8000000119,268929.131,269495.716,,11,wouldn't
screen,html.Screen,2_3_1_0_1_12,2022-02-03T15:41:18.709Z,,,,,,,,,,,,,,,,,15,,,,,,,,,,,,,,1037.8839999642223,,response,,,,7,B,,,,,,Space,keypress(Space),,,,lyrical,,,,---- --------- ---------- - --- ------- -- --- ------------<br>----- -- -------- testify ---- ------ - -------- ---- -----<br>--- ------- ---- -- --- -------- --- - ----- ------ ---- --<br>-------- --- -------- -------- --- -------- ---- -- ----- -<br>-------- ---- --- ---------- --------- -- ------- ------ -<br>--------- ----- -----,270534.5,270533.59999996424,269478.96,269488.3000000119,269495.716,270545.602,,12,testify
screen,html.Screen,2_3_1_0_1_13,2022-02-03T15:41:19.409Z,,,,,,,,,,,,,,,,,15,,,,,,,,,,,,,,687.5979999880656,,response,,,,7,B,,,,,,Space,keypress(Space),,,,lyrical,,,,---- --------- ---------- - --- ------- -- --- ------------<br>----- -- -------- ------- when ------ - -------- ---- -----<br>--- ------- ---- -- --- -------- --- - ----- ------ ---- --<br>-------- --- -------- -------- --- -------- ---- -- ----- -<br>-------- ---- --- ---------- --------- -- ------- ------ -<br>--------- ----- -----,271234.09999996424,271233.1999999881,270529.048,270534.59999996424,270545.602,271245.683,,13,when
screen,html.Screen,2_3_1_0_1_14,2022-02-03T15:41:20.101Z,,,,,,,,,,,,,,,,,15,,,,,,,,,,,,,,679.716999976139,,response,,,,7,B,,,,,,Space,keypress(Space),,,,lyrical,,,,---- --------- ---------- - --- ------- -- --- ------------<br>----- -- -------- ------- ---- served - -------- ---- -----<br>--- ------- ---- -- --- -------- --- - ----- ------ ---- --<br>-------- --- -------- -------- --- -------- ---- -- ----- -<br>-------- ---- --- ---------- --------- -- ------- ------ -<br>--------- ----- -----,271926.59999996424,271925.39999997616,271229.117,271234.3000000119,271245.683,271928.933,,14,served
screen,html.Screen,2_3_1_0_1_15,2022-02-03T15:41:20.668Z,,,,,,,,,,,,,,,,,15,,,,,,,,,,,,,,563.5669999999809,,response,,,,7,B,,,,,,Space,keypress(Space),,,,lyrical,,,,---- --------- ---------- - --- ------- -- --- ------------<br>----- -- -------- ------- ---- ------ a -------- ---- -----<br>--- ------- ---- -- --- -------- --- - ----- ------ ---- --<br>-------- --- -------- -------- --- -------- ---- -- ----- -<br>-------- ---- --- ---------- --------- -- ------- ------ -<br>--------- ----- -----,272493.3000000119,272492.5,271912.195,271926.8000000119,271928.933,272495.513,,15,a
screen,html.Screen,2_3_1_0_1_16,2022-02-03T15:41:21.444Z,,,,,,,,,,,,,,,,,15,,,,,,,,,,,,,,772.4870000000228,,response,,,,7,B,,,,,,Space,keypress(Space),,,,lyrical,,,,---- --------- ---------- - --- ------- -- --- ------------<br>----- -- -------- ------- ---- ------ - subpoena ---- -----<br>--- ------- ---- -- --- -------- --- - ----- ------ ---- --<br>-------- --- -------- -------- --- -------- ---- -- ----- -<br>-------- ---- --- ---------- --------- -- ------- ------ -<br>--------- ----- -----,273268.8000000119,273268,272478.96,272493.39999997616,272495.513,273278.847,,16,subpoena
screen,html.Screen,2_3_1_0_1_17,2022-02-03T15:41:22.496Z,,,,,,,,,,,,,,,,,15,,,,,,,,,,,,,,1041.3529999880702,,response,,,,7,B,,,,,,Space,keypress(Space),,,,lyrical,,,,---- --------- ---------- - --- ------- -- --- ------------<br>----- -- -------- ------- ---- ------ - -------- last -----<br>--- ------- ---- -- --- -------- --- - ----- ------ ---- --<br>-------- --- -------- -------- --- -------- ---- -- ----- -<br>-------- ---- --- ---------- --------- -- ------- ------ -<br>--------- ----- -----,274321,274320.1999999881,273262.22,273269,273278.847,274329.1,,17,last
screen,html.Screen,2_3_1_0_1_18,2022-02-03T15:41:23.083Z,,,,,,,,,,,,,,,,,15,,,,,,,,,,,,,,578.0999999881024,,response,,,,7,B,,,,,,Space,keypress(Space),,,,lyrical,,,,---- --------- ---------- - --- ------- -- --- ------------<br>----- -- -------- ------- ---- ------ - -------- ---- week.<br>--- ------- ---- -- --- -------- --- - ----- ------ ---- --<br>-------- --- -------- -------- --- -------- ---- -- ----- -<br>-------- ---- --- ---------- --------- -- ------- ------ -<br>--------- ----- -----,274908.09999996424,274907.1999999881,274312.405,274321.1999999881,274329.1,274912.073,,18,week.
screen,html.Screen,2_3_1_0_1_19,2022-02-03T15:41:23.611Z,,,,,,,,,,,,,,,,,15,,,,,,,,,,,,,,522.9270000000251,,response,,,,7,B,,,,,,Space,keypress(Space),,,,lyrical,,,,---- --------- ---------- - --- ------- -- --- ------------<br>----- -- -------- ------- ---- ------ - -------- ---- -----<br>His ------- ---- -- --- -------- --- - ----- ------ ---- --<br>-------- --- -------- -------- --- -------- ---- -- ----- -<br>-------- ---- --- ---------- --------- -- ------- ------ -<br>--------- ----- -----,275436,275435,274895.435,274908.1999999881,274912.073,275445.408,,19,His
screen,html.Screen,2_3_1_0_1_20,2022-02-03T15:41:24.177Z,,,,,,,,,,,,,,,,,15,,,,,,,,,,,,,,555.0920000000042,,response,,,,7,B,,,,,,Space,keypress(Space),,,,lyrical,,,,---- --------- ---------- - --- ------- -- --- ------------<br>----- -- -------- ------- ---- ------ - -------- ---- -----<br>--- lawyers ---- -- --- -------- --- - ----- ------ ---- --<br>-------- --- -------- -------- --- -------- ---- -- ----- -<br>-------- ---- --- ---------- --------- -- ------- ------ -<br>--------- ----- -----,276001.8000000119,276000.5,275428.835,275436.3000000119,275445.408,276012.081,,20,lawyers
screen,html.Screen,2_3_1_0_1_21,2022-02-03T15:41:24.574Z,,,,,,,,,,,,,,,,,15,,,,,,,,,,,,,,385.9189999999944,,response,,,,7,B,,,,,,Space,keypress(Space),,,,lyrical,,,,---- --------- ---------- - --- ------- -- --- ------------<br>----- -- -------- ------- ---- ------ - -------- ---- -----<br>--- ------- said -- --- -------- --- - ----- ------ ---- --<br>-------- --- -------- -------- --- -------- ---- -- ----- -<br>-------- ---- --- ---------- --------- -- ------- ------ -<br>--------- ----- -----,276399,276398,275995.541,276001.89999997616,276012.081,276412.04,,21,said
screen,html.Screen,2_3_1_0_1_22,2022-02-03T15:41:24.980Z,,,,,,,,,,,,,,,,,15,,,,,,,,,,,,,,392.2600000119419,,response,,,,7,B,,,,,,Space,keypress(Space),,,,lyrical,,,,---- --------- ---------- - --- ------- -- --- ------------<br>----- -- -------- ------- ---- ------ - -------- ---- -----<br>--- ------- ---- he --- -------- --- - ----- ------ ---- --<br>-------- --- -------- -------- --- -------- ---- -- ----- -<br>-------- ---- --- ---------- --------- -- ------- ------ -<br>--------- ----- -----,276805.39999997616,276804.3000000119,276395.524,276399.09999996424,276412.04,276812.13,,22,he
screen,html.Screen,2_3_1_0_1_23,2022-02-03T15:41:25.569Z,,,,,,,,,,,,,,,,,15,,,,,,,,,,,,,,581.0699999880744,,response,,,,7,B,,,,,,Space,keypress(Space),,,,lyrical,,,,---- --------- ---------- - --- ------- -- --- ------------<br>----- -- -------- ------- ---- ------ - -------- ---- -----<br>--- ------- ---- -- was -------- --- - ----- ------ ---- --<br>-------- --- -------- -------- --- -------- ---- -- ----- -<br>-------- ---- --- ---------- --------- -- ------- ------ -<br>--------- ----- -----,277394.1999999881,277393.1999999881,276795.423,276805.59999996424,276812.13,277424.575,,23,was
screen,html.Screen,2_3_1_0_1_24,2022-02-03T15:41:26.025Z,,,,,,,,,,,,,,,,,15,,,,,,,,,,,,,,424.3249999761465,,response,,,,7,B,,,,,,Space,keypress(Space),,,,lyrical,,,,---- --------- ---------- - --- ------- -- --- ------------<br>----- -- -------- ------- ---- ------ - -------- ---- -----<br>--- ------- ---- -- --- prepared --- - ----- ------ ---- --<br>-------- --- -------- -------- --- -------- ---- -- ----- -<br>-------- ---- --- ---------- --------- -- ------- ------ -<br>--------- ----- -----,277849.8000000119,277848.89999997616,277378.816,277394.39999997616,277424.575,277862.319,,24,prepared
screen,html.Screen,2_3_1_0_1_25,2022-02-03T15:41:26.407Z,,,,,,,,,,,,,,,,,15,,,,,,,,,,,,,,369.1809999999823,,response,,,,7,B,,,,,,Space,keypress(Space),,,,lyrical,,,,---- --------- ---------- - --- ------- -- --- ------------<br>----- -- -------- ------- ---- ------ - -------- ---- -----<br>--- ------- ---- -- --- -------- for - ----- ------ ---- --<br>-------- --- -------- -------- --- -------- ---- -- ----- -<br>-------- ---- --- ---------- --------- -- ------- ------ -<br>--------- ----- -----,278232.3000000119,278231.5,277845.426,277849.8000000119,277862.319,278245.328,,25,for
screen,html.Screen,2_3_1_0_1_26,2022-02-03T15:41:26.784Z,,,,,,,,,,,,,,,,,15,,,,,,,,,,,,,,362.9720000119414,,response,,,,7,B,,,,,,Space,keypress(Space),,,,lyrical,,,,---- --------- ---------- - --- ------- -- --- ------------<br>----- -- -------- ------- ---- ------ - -------- ---- -----<br>--- ------- ---- -- --- -------- --- a ----- ------ ---- --<br>-------- --- -------- -------- --- -------- ---- -- ----- -<br>-------- ---- --- ---------- --------- -- ------- ------ -<br>--------- ----- -----,278609.5,278608.3000000119,278228.743,278232.5,278245.328,278611.966,,26,a
screen,html.Screen,2_3_1_0_1_27,2022-02-03T15:41:27.245Z,,,,,,,,,,,,,,,,,15,,,,,,,,,,,,,,457.23399998806417,,response,,,,7,B,,,,,,Space,keypress(Space),,,,lyrical,,,,---- --------- ---------- - --- ------- -- --- ------------<br>----- -- -------- ------- ---- ------ - -------- ---- -----<br>--- ------- ---- -- --- -------- --- - third ------ ---- --<br>-------- --- -------- -------- --- -------- ---- -- ----- -<br>-------- ---- --- ---------- --------- -- ------- ------ -<br>--------- ----- -----,279070.09999996424,279069.1999999881,278595.626,278609.6999999881,278611.966,279078.834,,27,third
screen,html.Screen,2_3_1_0_1_28,2022-02-03T15:41:27.663Z,,,,,,,,,,,,,,,,,15,,,,,,,,,,,,,,408.16600000002654,,response,,,,7,B,,,,,,Space,keypress(Space),,,,lyrical,,,,---- --------- ---------- - --- ------- -- --- ------------<br>----- -- -------- ------- ---- ------ - -------- ---- -----<br>--- ------- ---- -- --- -------- --- - ----- prison ---- --<br>-------- --- -------- -------- --- -------- ---- -- ----- -<br>-------- ---- --- ---------- --------- -- ------- ------ -<br>--------- ----- -----,279488.3000000119,279487,279062.041,279070.1999999881,279078.834,279495.467,,28,prison
screen,html.Screen,2_3_1_0_1_29,2022-02-03T15:41:28.713Z,,,,,,,,,,,,,,,,,15,,,,,,,,,,,,,,1041.632999964233,,response,,,,7,B,,,,,,Space,keypress(Space),,,,lyrical,,,,---- --------- ---------- - --- ------- -- --- ------------<br>----- -- -------- ------- ---- ------ - -------- ---- -----<br>--- ------- ---- -- --- -------- --- - ----- ------ stay --<br>-------- --- -------- -------- --- -------- ---- -- ----- -<br>-------- ---- --- ---------- --------- -- ------- ------ -<br>--------- ----- -----,280538,280537.09999996424,279478.64,279488.5,279495.467,280545.381,,29,stay
screen,html.Screen,2_3_1_0_1_30,2022-02-03T15:41:29.528Z,,,,,,,,,,,,,,,,,15,,,,,,,,,,,,,,807.3189999880851,,response,,,,7,B,,,,,,Space,keypress(Space),,,,lyrical,,,,---- --------- ---------- - --- ------- -- --- ------------<br>----- -- -------- ------- ---- ------ - -------- ---- -----<br>--- ------- ---- -- --- -------- --- - ----- ------ ---- to<br>-------- --- -------- -------- --- -------- ---- -- ----- -<br>-------- ---- --- ---------- --------- -- ------- ------ -<br>--------- ----- -----,281353.59999996424,281352.6999999881,280528.669,280538.3000000119,280545.381,281362.243,,30,to
screen,html.Screen,2_3_1_0_1_31,2022-02-03T15:41:30.026Z,,,,,,,,,,,,,,,,,15,,,,,,,,,,,,,,487.9569999880623,,response,,,,7,B,,,,,,Space,keypress(Space),,,,lyrical,,,,---- --------- ---------- - --- ------- -- --- ------------<br>----- -- -------- ------- ---- ------ - -------- ---- -----<br>--- ------- ---- -- --- -------- --- - ----- ------ ---- --<br>maintain --- -------- -------- --- -------- ---- -- ----- -<br>-------- ---- --- ---------- --------- -- ------- ------ -<br>--------- ----- -----,281851.1999999881,281850.1999999881,281345.309,281353.8000000119,281362.243,281861.96,,31,maintain
screen,html.Screen,2_3_1_0_1_32,2022-02-03T15:41:30.424Z,,,,,,,,,,,,,,,,,15,,,,,,,,,,,,,,386.7399999880581,,response,,,,7,B,,,,,,Space,keypress(Space),,,,lyrical,,,,---- --------- ---------- - --- ------- -- --- ------------<br>----- -- -------- ------- ---- ------ - -------- ---- -----<br>--- ------- ---- -- --- -------- --- - ----- ------ ---- --<br>-------- his -------- -------- --- -------- ---- -- ----- -<br>-------- ---- --- ---------- --------- -- ------- ------ -<br>--------- ----- -----,282249.59999996424,282248.6999999881,281845.274,281851.3000000119,281861.96,282262.291,,32,his
screen,html.Screen,2_3_1_0_1_33,2022-02-03T15:41:31.114Z,,,,,,,,,,,,,,,,,15,,,,,,,,,,,,,,676.1089999761316,,response,,,,7,B,,,,,,Space,keypress(Space),,,,lyrical,,,,---- --------- ---------- - --- ------- -- --- ------------<br>----- -- -------- ------- ---- ------ - -------- ---- -----<br>--- ------- ---- -- --- -------- --- - ----- ------ ---- --<br>-------- --- silence. -------- --- -------- ---- -- ----- -<br>-------- ---- --- ---------- --------- -- ------- ------ -<br>--------- ----- -----,282939.5,282938.39999997616,282245.328,282249.6999999881,282262.291,282945.203,,33,silence.
screen,html.Screen,2_3_1_0_1_34,2022-02-03T15:41:31.753Z,,,,,,,,,,,,,,,,,15,,,,,,,,,,,,,,631.8969999642577,,response,,,,7,B,,,,,,Space,keypress(Space),,,,lyrical,,,,---- --------- ---------- - --- ------- -- --- ------------<br>----- -- -------- ------- ---- ------ - -------- ---- -----<br>--- ------- ---- -- --- -------- --- - ----- ------ ---- --<br>-------- --- -------- Anderson --- -------- ---- -- ----- -<br>-------- ---- --- ---------- --------- -- ------- ------ -<br>--------- ----- -----,283577.89999997616,283577.09999996424,282928.638,282939.6999999881,282945.203,283595.336,,34,Anderson
screen,html.Screen,2_3_1_0_1_35,2022-02-03T15:41:32.198Z,,,,,,,,,,,,,,,,,15,,,,,,,,,,,,,,427.26399996422697,,response,,,,7,B,,,,,,Space,keypress(Space),,,,lyrical,,,,---- --------- ---------- - --- ------- -- --- ------------<br>----- -- -------- ------- ---- ------ - -------- ---- -----<br>--- ------- ---- -- --- -------- --- - ----- ------ ---- --<br>-------- --- -------- -------- was -------- ---- -- ----- -<br>-------- ---- --- ---------- --------- -- ------- ------ -<br>--------- ----- -----,284023.5,284022.59999996424,283562.135,283578.09999996424,283595.336,284028.502,,35,was
screen,html.Screen,2_3_1_0_1_36,2022-02-03T15:41:33.139Z,,,,,,,,,,,,,,,,,15,,,,,,,,,,,,,,934.8979999761796,,response,,,,7,B,,,,,,Space,keypress(Space),,,,lyrical,,,,---- --------- ---------- - --- ------- -- --- ------------<br>----- -- -------- ------- ---- ------ - -------- ---- -----<br>--- ------- ---- -- --- -------- --- - ----- ------ ---- --<br>-------- --- -------- -------- --- released ---- -- ----- -<br>-------- ---- --- ---------- --------- -- ------- ------ -<br>--------- ----- -----,284964.3000000119,284963.39999997616,284012.112,284023.59999996424,284028.502,284978.557,,36,released
screen,html.Screen,2_3_1_0_1_37,2022-02-03T15:41:34.364Z,,,,,,,,,,,,,,,,,15,,,,,,,,,,,,,,1209.5429999642656,,response,,,,7,B,,,,,,Space,keypress(Space),,,,lyrical,,,,---- --------- ---------- - --- ------- -- --- ------------<br>----- -- -------- ------- ---- ------ - -------- ---- -----<br>--- ------- ---- -- --- -------- --- - ----- ------ ---- --<br>-------- --- -------- -------- --- -------- July -- ----- -<br>-------- ---- --- ---------- --------- -- ------- ------ -<br>--------- ----- -----,286189,286188.09999996424,284962.175,284964.5,284978.557,286195.207,,37,July
screen,html.Screen,2_3_1_0_1_38,2022-02-03T15:41:35.093Z,,,,,,,,,,,,,,,,,15,,,,,,,,,,,,,,721.9929999880842,,response,,,,7,B,,,,,,Space,keypress(Space),,,,lyrical,,,,---- --------- ---------- - --- ------- -- --- ------------<br>----- -- -------- ------- ---- ------ - -------- ---- -----<br>--- ------- ---- -- --- -------- --- - ----- ------ ---- --<br>-------- --- -------- -------- --- -------- ---- 20 ----- -<br>-------- ---- --- ---------- --------- -- ------- ------ -<br>--------- ----- -----,286918,286917.1999999881,286178.748,286189.1999999881,286195.207,286928.692,,38,20
screen,html.Screen,2_3_1_0_1_39,2022-02-03T15:41:35.833Z,,,,,,,,,,,,,,,,,15,,,,,,,,,,,,,,728.0079999880982,,response,,,,7,B,,,,,,Space,keypress(Space),,,,lyrical,,,,---- --------- ---------- - --- ------- -- --- ------------<br>----- -- -------- ------- ---- ------ - -------- ---- -----<br>--- ------- ---- -- --- -------- --- - ----- ------ ---- --<br>-------- --- -------- -------- --- -------- ---- -- after -<br>-------- ---- --- ---------- --------- -- ------- ------ -<br>--------- ----- -----,287657.6999999881,287656.6999999881,286912.215,286918.1999999881,286928.692,287661.739,,39,after
screen,html.Screen,2_3_1_0_1_40,2022-02-03T15:41:36.323Z,,,,,,,,,,,,,,,,,15,,,,,,,,,,,,,,485.2609999999986,,response,,,,7,B,,,,,,Space,keypress(Space),,,,lyrical,,,,---- --------- ---------- - --- ------- -- --- ------------<br>----- -- -------- ------- ---- ------ - -------- ---- -----<br>--- ------- ---- -- --- -------- --- - ----- ------ ---- --<br>-------- --- -------- -------- --- -------- ---- -- ----- a<br>-------- ---- --- ---------- --------- -- ------- ------ -<br>--------- ----- -----,288147.89999997616,288147,287645.582,287657.89999997616,287661.739,288161.966,,40,a
