sender,sender_type,sender_id,timestamp,meta,,Blues,Classical,Country,Dance,Electronic,Folk,Gospel,Hip-Hop,Jazz,Latin,Musical/Film,New-age,Pop,Prolific_id,Provo_ID,R&B,Rap,Reggae,Religious,Rock,Soul,Swing,Traditional,age,artist_name,correct,correctResponse,distraction,duration,education,ended_on,familiarity,gender,headphone_check_performance,item,list,music_frequency,offensiveness,pleasantness,position_correct,preference,response,response_action,snippet_file,song_name,song_rating,sound,stimulus_1,stimulus_2,stimulus_3,text,time_commit,time_end,time_render,time_run,time_show,time_switch,url,word,word_ID
Prolific ID,html.Form,0,2022-02-04T13:08:36.761Z,"{""labjs_version"":""20.2.2"",""labjs_build"":{""flavor"":""production"",""commit"":""a25486e0c714a0ae2ce03ff94b7bb6896854dcfa""},""location"":""https://run.pavlovia.org/mvasilev/prolific2_music_d/"",""userAgent"":""Mozilla/5.0 (Windows NT 10.0; Win64; x64; rv:96.0) Gecko/20100101 Firefox/96.0"",""platform"":""Win32"",""language"":""en-GB"",""locale"":""en-GB"",""timeZone"":""Europe/London"",""timezoneOffset"":0,""screen_width"":1920,""screen_height"":1080,""scroll_width"":1920,""scroll_height"":879,""window_innerWidth"":1920,""window_innerHeight"":927,""devicePixelRatio"":1}",,,,,,,,,,,,,,,5980fff19bf4fe0001070984,,,,,,,,,,,,,,,11381.92,,form submission,,,,,,,,,,,,,,,,,,,,,21336,21335,9952.9,9953,9953.08,21333,{},,
Introduction,html.Screen,1_0,2022-02-04T13:08:44.291Z,,,,,,,,,,,,,,,,,,,,,,,,,,,,,,,7519,,response,,,,,,,,,,,continue,click button,,,,,,,,,28866,28852,21329.9,21337,21333,28866.48,,,
Volume calibration,html.Screen,1_1,2022-02-04T13:09:22.867Z,,,,,,,,,,,,,,,,,,,,,,,,,,,,,,,38563.520000000004,,response,,,,,,,,,,,continue,click button,,,,,,,,,67443,67430,28865.6,28867,28866.48,67450.38,,,
Task instructions,html.Screen,1_2,2022-02-04T13:09:33.612Z,,,,,,,,,,,,,,,,,,,,,,,,,,,,,,,10729.619999999995,,response,,,,,,,,,,,continue,click button,,,,,,,,,78187,78180,67441.44,67443,67450.38,78200.6,,,
Sounds,html.Screen,1_3_0_0,2022-02-04T13:09:37.860Z,,,,,,,,,,,,,,,,,,,,,,,,,,,,,,,4250.099999999991,,timeout,,,,,,,,,3,,,,,,,,O,I,S,,82435,82434.04,78185.32,78189,78200.6,82450.7,,,
Judgement,html.Screen,1_3_0_1,2022-02-04T13:09:39.723Z,,,,,,,,,,,,,,,,,,,,,,,,,,,,true,3,,1838.300000000003,,response,,,,,,,,,3,,3,click #choice-3,,,,,O,I,S,,84298,84289,82434.04,82435,82450.7,84300.68,,,
Trial,flow.Sequence,1_3_0,2022-02-04T13:09:39.724Z,,,,,,,,,,,,,,,,,,,,,,,,,,,,,,,6088.399999999994,,completion,,,,,,,,,3,,,,,,,,O,I,S,,84299,84289,78185.32,78189,78200.6,84300.68,,,
Sounds,html.Screen,1_3_1_0,2022-02-04T13:09:43.959Z,,,,,,,,,,,,,,,,,,,,,,,,,,,,,,,4250.080000000002,,timeout,,,,,,,,,2,,,,,,,,I,S,O,,88535,88534.1,84297.28,84299,84300.68,88550.76,,,
Judgement,html.Screen,1_3_1_1,2022-02-04T13:09:44.498Z,,,,,,,,,,,,,,,,,,,,,,,,,,,,true,2,,519.2400000000052,,response,,,,,,,,,2,,2,click #choice-2,,,,,I,S,O,,89074,89070,88534.1,88535,88550.76,89084.2,,,
Trial,flow.Sequence,1_3_1,2022-02-04T13:09:44.499Z,,,,,,,,,,,,,,,,,,,,,,,,,,,,,,,4769.320000000007,,completion,,,,,,,,,2,,,,,,,,I,S,O,,89074,89070,84297.28,84299,84300.68,89084.2,,,
Sounds,html.Screen,1_3_2_0,2022-02-04T13:09:48.743Z,,,,,,,,,,,,,,,,,,,,,,,,,,,,,,,4250,,timeout,,,,,,,,,3,,,,,,,,I,O,S,,93318,93317.54,89073.12,89075,89084.2,93334.2,,,
Judgement,html.Screen,1_3_2_1,2022-02-04T13:09:49.330Z,,,,,,,,,,,,,,,,,,,,,,,,,,,,true,3,,564.8000000000029,,response,,,,,,,,,3,,3,click #choice-3,,,,,I,O,S,,93906,93899,93317.54,93318,93334.2,93917.6,,,
Trial,flow.Sequence,1_3_2,2022-02-04T13:09:49.331Z,,,,,,,,,,,,,,,,,,,,,,,,,,,,,,,4814.800000000003,,completion,,,,,,,,,3,,,,,,,,I,O,S,,93906,93899,89073.12,89075,89084.2,93917.6,,,
Sounds,html.Screen,1_3_3_0,2022-02-04T13:09:53.576Z,,,,,,,,,,,,,,,,,,,,,,,,,,,,,,,4250,,timeout,,,,,,,,,2,,,,,,,,O,S,I,,98152,98150.94,93905.22,93907,93917.6,98167.6,,,
Judgement,html.Screen,1_3_3_1,2022-02-04T13:09:54.106Z,,,,,,,,,,,,,,,,,,,,,,,,,,,,true,2,,512.3999999999942,,response,,,,,,,,,2,,2,click #choice-2,,,,,O,S,I,,98682,98680,98150.94,98152,98167.6,98684.26,,,
Trial,flow.Sequence,1_3_3,2022-02-04T13:09:54.106Z,,,,,,,,,,,,,,,,,,,,,,,,,,,,,,,4762.399999999994,,completion,,,,,,,,,2,,,,,,,,O,S,I,,98682,98680,93905.22,93906,93917.6,98684.26,,,
Sounds,html.Screen,1_3_4_0,2022-02-04T13:09:58.343Z,,,,,,,,,,,,,,,,,,,,,,,,,,,,,,,4250.080000000002,,timeout,,,,,,,,,1,,,,,,,,S,O,I,,102918,102917.68,98681.02,98682,98684.26,102934.34,,,
Judgement,html.Screen,1_3_4_1,2022-02-04T13:09:58.914Z,,,,,,,,,,,,,,,,,,,,,,,,,,,,true,1,,542.6600000000035,,response,,,,,,,,,1,,1,click #choice-1,,,,,S,O,I,,103489,103477,102917.68,102919,102934.34,103501.12,,,
Trial,flow.Sequence,1_3_4,2022-02-04T13:09:58.914Z,,,,,,,,,,,,,,,,,,,,,,,,,,,,,,,4792.740000000005,,completion,,,,,,,,,1,,,,,,,,S,O,I,,103490,103477,98681.02,98682,98684.26,103501.12,,,
Sounds,html.Screen,1_3_5_0,2022-02-04T13:10:03.160Z,,,,,,,,,,,,,,,,,,,,,,,,,,,,,,,4249.960000000006,,timeout,,,,,,,,,1,,,,,,,,S,I,O,,107735,107734.4,103489.1,103490,103501.12,107751.08,,,
Judgement,html.Screen,1_3_5_1,2022-02-04T13:10:03.618Z,,,,,,,,,,,,,,,,,,,,,,,,,,,,true,1,,428.91999999999825,,response,,,,,,,,,1,,1,click #choice-1,,,,,S,I,O,,108194,108180,107734.4,107735,107751.08,108201.12,,,
Trial,flow.Sequence,1_3_5,2022-02-04T13:10:03.618Z,,,,,,,,,,,,,,,,,,,,,,,,,,,,,,,4678.880000000005,,completion,,,,,,,,,1,,,,,,,,S,I,O,,108194,108180,103489.1,103490,103501.12,108201.12,,,
Task,flow.Loop,1_3,2022-02-04T13:10:03.619Z,,,,,,,,,,,,,,,,,,,,,,,,,,,,,,,29979.399999999994,,completion,,,1,,,,,,,,,,,,,,,,,,108195,108180,78185.32,78188,78200.6,108201.12,,,
Trap,html.Screen,1_4,2022-02-04T13:10:03.621Z,,,,,,,,,,,,,,,,,,,,,,,,,,,,,,,NaN,,skipped,,,,,,,,,,,,,,,,,,,,,108197,108180,,108197,,108201.12,,,
Thanks,html.Screen,1_5,2022-02-04T13:10:06.866Z,,,,,,,,,,,,,,,,,,,,,,,,,,,,,,,3228.8800000000047,,response,,,,,,,,,,,continue,click button,,,,,,,,,111441,111430,108192.9,108197,108201.12,114317.86,,,
Headphone screening,flow.Sequence,1,2022-02-04T13:10:06.866Z,,,,,,,,,,,,,,,,,,,,,,,,,,,,,,,90097,,completion,,,,,,,,,,,,,,,,,,,,,111442,111430,21329.9,21337,21333,114317.86,,,
Instructions,html.Page,2_0,2022-02-04T13:10:26.028Z,,,,,,,,,,,,,,,,,,,,,,,,,,,,,,,16286.14,,form submission,,,,,,,,,,,,,,,,,,,,,130604,130604,114302.82,114301,114317.86,130618.12,,,
Holding screen,html.Screen,2_1_0_0,2022-02-04T13:10:36.028Z,,,,,,,,,,,,,,,,,,,,,,,,,,,,,,,10000.220000000001,,timeout,,,,,,,,,,,,,,,,,,,,,140604,140601.66,130600.7,130605,130618.12,140618.34,,,
screen,html.Screen,2_1_0_1_0,2022-02-04T13:10:36.897Z,,,,,,,,,,,,,,,,,53,,,,,,,,,,,,,,842.6600000000035,,response,,,,99,,,,,,,Space,keypress(Space),,,,,,,,When -- ----- -- ------ - ------- --- ----------<br>------------- ------ ------ ---- ---- ------- ----- -- ----<br>-------- ------- -- ---------- --- - --- ----- ----- ----<br>---- --- --- ----- --- ---- ---- ------- ----- ---- -------<br>--- --- -- ----- -- --- ---- -- --- ---- -- ------ ------<br>--- ----- -- ----,141472,141461,140601.66,140606,140618.34,141472.7,,0,When
screen,html.Screen,2_1_0_1_1,2022-02-04T13:10:37.368Z,,,,,,,,,,,,,,,,,53,,,,,,,,,,,,,,458.29999999998836,,response,,,,99,,,,,,,Space,keypress(Space),,,,,,,,---- it ----- -- ------ - ------- --- ----------<br>------------- ------ ------ ---- ---- ------- ----- -- ----<br>-------- ------- -- ---------- --- - --- ----- ----- ----<br>---- --- --- ----- --- ---- ---- ------- ----- ---- -------<br>--- --- -- ----- -- --- ---- -- --- ---- -- ------ ------<br>--- ----- -- ----,141944,141931,141472.44,141473,141472.7,141944.5,,1,it
screen,html.Screen,2_1_0_1_2,2022-02-04T13:10:37.776Z,,,,,,,,,,,,,,,,,53,,,,,,,,,,,,,,392.5,,response,,,,99,,,,,,,Space,keypress(Space),,,,,,,,---- -- comes -- ------ - ------- --- ----------<br>------------- ------ ------ ---- ---- ------- ----- -- ----<br>-------- ------- -- ---------- --- - --- ----- ----- ----<br>---- --- --- ----- --- ---- ---- ------- ----- ---- -------<br>--- --- -- ----- -- --- ---- -- --- ---- -- ------ ------<br>--- ----- -- ----,142352,142337,141944.28,141944,141944.5,142352.4,,2,comes
screen,html.Screen,2_1_0_1_3,2022-02-04T13:10:38.169Z,,,,,,,,,,,,,,,,,53,,,,,,,,,,,,,,374.6000000000058,,response,,,,99,,,,,,,Space,keypress(Space),,,,,,,,---- -- ----- to ------ - ------- --- ----------<br>------------- ------ ------ ---- ---- ------- ----- -- ----<br>-------- ------- -- ---------- --- - --- ----- ----- ----<br>---- --- --- ----- --- ---- ---- ------- ----- ---- -------<br>--- --- -- ----- -- --- ---- -- --- ---- -- ------ ------<br>--- ----- -- ----,142743,142727,142352.18,142352,142352.4,142744.32,,3,to
screen,html.Screen,2_1_0_1_4,2022-02-04T13:10:38.528Z,,,,,,,,,,,,,,,,,53,,,,,,,,,,,,,,357.679999999993,,response,,,,99,,,,,,,Space,keypress(Space),,,,,,,,---- -- ----- -- having - ------- --- ----------<br>------------- ------ ------ ---- ---- ------- ----- -- ----<br>-------- ------- -- ---------- --- - --- ----- ----- ----<br>---- --- --- ----- --- ---- ---- ------- ----- ---- -------<br>--- --- -- ----- -- --- ---- -- --- ---- -- ------ ------<br>--- ----- -- ----,143104,143102,142744.1,142744,142744.32,143104.32,,4,having
screen,html.Screen,2_1_0_1_5,2022-02-04T13:10:38.880Z,,,,,,,,,,,,,,,,,53,,,,,,,,,,,,,,340.679999999993,,response,,,,99,,,,,,,Space,keypress(Space),,,,,,,,---- -- ----- -- ------ a ------- --- ----------<br>------------- ------ ------ ---- ---- ------- ----- -- ----<br>-------- ------- -- ---------- --- - --- ----- ----- ----<br>---- --- --- ----- --- ---- ---- ------- ----- ---- -------<br>--- --- -- ----- -- --- ---- -- --- ---- -- ------ ------<br>--- ----- -- ----,143456,143445,143104.06,143104,143104.32,143456.18,,5,a
screen,html.Screen,2_1_0_1_6,2022-02-04T13:10:39.321Z,,,,,,,,,,,,,,,,,53,,,,,,,,,,,,,,426.820000000007,,response,,,,99,,,,,,,Space,keypress(Space),,,,,,,,---- -- ----- -- ------ - lasting --- ----------<br>------------- ------ ------ ---- ---- ------- ----- -- ----<br>-------- ------- -- ---------- --- - --- ----- ----- ----<br>---- --- --- ----- --- ---- ---- ------- ----- ---- -------<br>--- --- -- ----- -- --- ---- -- --- ---- -- ------ ------<br>--- ----- -- ----,143896,143883,143455.92,143456,143456.18,143896.52,,6,lasting
screen,html.Screen,2_1_0_1_7,2022-02-04T13:10:39.688Z,,,,,,,,,,,,,,,,,53,,,,,,,,,,,,,,361.4800000000105,,response,,,,99,,,,,,,Space,keypress(Space),,,,,,,,---- -- ----- -- ------ - ------- and ----------<br>------------- ------ ------ ---- ---- ------- ----- -- ----<br>-------- ------- -- ---------- --- - --- ----- ----- ----<br>---- --- --- ----- --- ---- ---- ------- ----- ---- -------<br>--- --- -- ----- -- --- ---- -- --- ---- -- ------ ------<br>--- ----- -- ----,144263,144258,143896.36,143897,143896.52,144264.44,,7,and
screen,html.Screen,2_1_0_1_8,2022-02-04T13:10:40.112Z,,,,,,,,,,,,,,,,,53,,,,,,,,,,,,,,415.5599999999977,,response,,,,99,,,,,,,Space,keypress(Space),,,,,,,,---- -- ----- -- ------ - ------- --- fulfilling<br>------------- ------ ------ ---- ---- ------- ----- -- ----<br>-------- ------- -- ---------- --- - --- ----- ----- ----<br>---- --- --- ----- --- ---- ---- ------- ----- ---- -------<br>--- --- -- ----- -- --- ---- -- --- ---- -- ------ ------<br>--- ----- -- ----,144688,144680,144264.18,144264,144264.44,144688.32,,8,fulfilling
screen,html.Screen,2_1_0_1_9,2022-02-04T13:10:40.521Z,,,,,,,,,,,,,,,,,53,,,,,,,,,,,,,,397.679999999993,,response,,,,99,,,,,,,Space,keypress(Space),,,,,,,,"---- -- ----- -- ------ - ------- --- ----------<br>relationship, ------ ------ ---- ---- ------- ----- -- ----<br>-------- ------- -- ---------- --- - --- ----- ----- ----<br>---- --- --- ----- --- ---- ---- ------- ----- ---- -------<br>--- --- -- ----- -- --- ---- -- --- ---- -- ------ ------<br>--- ----- -- ----",145096,145086,144688.1,144688,144688.32,145096.96,,9,"relationship,"
screen,html.Screen,2_1_0_1_10,2022-02-04T13:10:40.856Z,,,,,,,,,,,,,,,,,53,,,,,,,,,,,,,,333.04000000000815,,response,,,,99,,,,,,,Space,keypress(Space),,,,,,,,---- -- ----- -- ------ - ------- --- ----------<br>------------- common ------ ---- ---- ------- ----- -- ----<br>-------- ------- -- ---------- --- - --- ----- ----- ----<br>---- --- --- ----- --- ---- ---- ------- ----- ---- -------<br>--- --- -- ----- -- --- ---- -- --- ---- -- ------ ------<br>--- ----- -- ----,145431,145430,145096.72,145096,145096.96,145431.86,,10,common
screen,html.Screen,2_1_0_1_11,2022-02-04T13:10:41.248Z,,,,,,,,,,,,,,,,,53,,,,,,,,,,,,,,388.14000000001397,,response,,,,99,,,,,,,Space,keypress(Space),,,,,,,,---- -- ----- -- ------ - ------- --- ----------<br>------------- ------ wisdom ---- ---- ------- ----- -- ----<br>-------- ------- -- ---------- --- - --- ----- ----- ----<br>---- --- --- ----- --- ---- ---- ------- ----- ---- -------<br>--- --- -- ----- -- --- ---- -- --- ---- -- ------ ------<br>--- ----- -- ----,145824,145820,145431.62,145431,145431.86,145824.18,,11,wisdom
screen,html.Screen,2_1_0_1_12,2022-02-04T13:10:41.608Z,,,,,,,,,,,,,,,,,53,,,,,,,,,,,,,,355.820000000007,,response,,,,99,,,,,,,Space,keypress(Space),,,,,,,,---- -- ----- -- ------ - ------- --- ----------<br>------------- ------ ------ says ---- ------- ----- -- ----<br>-------- ------- -- ---------- --- - --- ----- ----- ----<br>---- --- --- ----- --- ---- ---- ------- ----- ---- -------<br>--- --- -- ----- -- --- ---- -- --- ---- -- ------ ------<br>--- ----- -- ----,146184,146180,145823.98,145824,145824.18,146183.72,,12,says
screen,html.Screen,2_1_0_1_13,2022-02-04T13:10:41.983Z,,,,,,,,,,,,,,,,,53,,,,,,,,,,,,,,371.27999999999884,,response,,,,99,,,,,,,Space,keypress(Space),,,,,,,,---- -- ----- -- ------ - ------- --- ----------<br>------------- ------ ------ ---- that ------- ----- -- ----<br>-------- ------- -- ---------- --- - --- ----- ----- ----<br>---- --- --- ----- --- ---- ---- ------- ----- ---- -------<br>--- --- -- ----- -- --- ---- -- --- ---- -- ------ ------<br>--- ----- -- ----,146560,146555,146183.58,146184,146183.72,146559.78,,13,that
screen,html.Screen,2_1_0_1_14,2022-02-04T13:10:42.343Z,,,,,,,,,,,,,,,,,53,,,,,,,,,,,,,,354.22000000000116,,response,,,,99,,,,,,,Space,keypress(Space),,,,,,,,---- -- ----- -- ------ - ------- --- ----------<br>------------- ------ ------ ---- ---- feeling ----- -- ----<br>-------- ------- -- ---------- --- - --- ----- ----- ----<br>---- --- --- ----- --- ---- ---- ------- ----- ---- -------<br>--- --- -- ----- -- --- ---- -- --- ---- -- ------ ------<br>--- ----- -- ----,146920,146914,146559.54,146560,146559.78,146919.66,,14,feeling
screen,html.Screen,2_1_0_1_15,2022-02-04T13:10:42.703Z,,,,,,,,,,,,,,,,,53,,,,,,,,,,,,,,354.3399999999965,,response,,,,99,,,,,,,Space,keypress(Space),,,,,,,,---- -- ----- -- ------ - ------- --- ----------<br>------------- ------ ------ ---- ---- ------- close -- ----<br>-------- ------- -- ---------- --- - --- ----- ----- ----<br>---- --- --- ----- --- ---- ---- ------- ----- ---- -------<br>--- --- -- ----- -- --- ---- -- --- ---- -- ------ ------<br>--- ----- -- ----,147279,147274,146919.48,146920,146919.66,147279.52,,15,close
screen,html.Screen,2_1_0_1_16,2022-02-04T13:10:43.039Z,,,,,,,,,,,,,,,,,53,,,,,,,,,,,,,,322.4800000000105,,response,,,,99,,,,,,,Space,keypress(Space),,,,,,,,---- -- ----- -- ------ - ------- --- ----------<br>------------- ------ ------ ---- ---- ------- ----- to ----<br>-------- ------- -- ---------- --- - --- ----- ----- ----<br>---- --- --- ----- --- ---- ---- ------- ----- ---- -------<br>--- --- -- ----- -- --- ---- -- --- ---- -- ------ ------<br>--- ----- -- ----,147615,147602,147279.38,147279,147279.52,147615.4,,16,to
screen,html.Screen,2_1_0_1_17,2022-02-04T13:10:43.375Z,,,,,,,,,,,,,,,,,53,,,,,,,,,,,,,,329.6000000000058,,response,,,,99,,,,,,,Space,keypress(Space),,,,,,,,---- -- ----- -- ------ - ------- --- ----------<br>------------- ------ ------ ---- ---- ------- ----- -- your<br>-------- ------- -- ---------- --- - --- ----- ----- ----<br>---- --- --- ----- --- ---- ---- ------- ----- ---- -------<br>--- --- -- ----- -- --- ---- -- --- ---- -- ------ ------<br>--- ----- -- ----,147951,147945,147615.26,147615,147615.4,147951.38,,17,your
screen,html.Screen,2_1_0_1_18,2022-02-04T13:10:43.727Z,,,,,,,,,,,,,,,,,53,,,,,,,,,,,,,,337.61999999999534,,response,,,,99,,,,,,,Space,keypress(Space),,,,,,,,---- -- ----- -- ------ - ------- --- ----------<br>------------- ------ ------ ---- ---- ------- ----- -- ----<br>romantic ------- -- ---------- --- - --- ----- ----- ----<br>---- --- --- ----- --- ---- ---- ------- ----- ---- -------<br>--- --- -- ----- -- --- ---- -- --- ---- -- ------ ------<br>--- ----- -- ----,148303,148289,147951.28,147951,147951.38,148303.6,,18,romantic
screen,html.Screen,2_1_0_1_19,2022-02-04T13:10:44.103Z,,,,,,,,,,,,,,,,,53,,,,,,,,,,,,,,360.3999999999942,,response,,,,99,,,,,,,Space,keypress(Space),,,,,,,,---- -- ----- -- ------ - ------- --- ----------<br>------------- ------ ------ ---- ---- ------- ----- -- ----<br>-------- partner -- ---------- --- - --- ----- ----- ----<br>---- --- --- ----- --- ---- ---- ------- ----- ---- -------<br>--- --- -- ----- -- --- ---- -- --- ---- -- ------ ------<br>--- ----- -- ----,148679,148664,148303.48,148303,148303.6,148679.52,,19,partner
screen,html.Screen,2_1_0_1_20,2022-02-04T13:10:44.464Z,,,,,,,,,,,,,,,,,53,,,,,,,,,,,,,,344.4800000000105,,response,,,,99,,,,,,,Space,keypress(Space),,,,,,,,---- -- ----- -- ------ - ------- --- ----------<br>------------- ------ ------ ---- ---- ------- ----- -- ----<br>-------- ------- is ---------- --- - --- ----- ----- ----<br>---- --- --- ----- --- ---- ---- ------- ----- ---- -------<br>--- --- -- ----- -- --- ---- -- --- ---- -- ------ ------<br>--- ----- -- ----,149040,149024,148679.38,148679,148679.52,149039.78,,20,is
screen,html.Screen,2_1_0_1_21,2022-02-04T13:10:44.808Z,,,,,,,,,,,,,,,,,53,,,,,,,,,,,,,,327.22000000000116,,response,,,,99,,,,,,,Space,keypress(Space),,,,,,,,---- -- ----- -- ------ - ------- --- ----------<br>------------- ------ ------ ---- ---- ------- ----- -- ----<br>-------- ------- -- paramount. --- - --- ----- ----- ----<br>---- --- --- ----- --- ---- ---- ------- ----- ---- -------<br>--- --- -- ----- -- --- ---- -- --- ---- -- ------ ------<br>--- ----- -- ----,149384,149367,149039.62,149040,149039.78,149383.94,,21,paramount.
screen,html.Screen,2_1_0_1_22,2022-02-04T13:10:45.168Z,,,,,,,,,,,,,,,,,53,,,,,,,,,,,,,,343.0599999999977,,response,,,,99,,,,,,,Space,keypress(Space),,,,,,,,---- -- ----- -- ------ - ------- --- ----------<br>------------- ------ ------ ---- ---- ------- ----- -- ----<br>-------- ------- -- ---------- But - --- ----- ----- ----<br>---- --- --- ----- --- ---- ---- ------- ----- ---- -------<br>--- --- -- ----- -- --- ---- -- --- ---- -- ------ ------<br>--- ----- -- ----,149743,149727,149383.74,149384,149383.94,149743.94,,22,But
screen,html.Screen,2_1_0_1_23,2022-02-04T13:10:45.521Z,,,,,,,,,,,,,,,,,53,,,,,,,,,,,,,,342.0599999999977,,response,,,,99,,,,,,,Space,keypress(Space),,,,,,,,---- -- ----- -- ------ - ------- --- ----------<br>------------- ------ ------ ---- ---- ------- ----- -- ----<br>-------- ------- -- ---------- --- a --- ----- ----- ----<br>---- --- --- ----- --- ---- ---- ------- ----- ---- -------<br>--- --- -- ----- -- --- ---- -- --- ---- -- ------ ------<br>--- ----- -- ----,150097,150086,149743.68,149744,149743.94,150097.46,,23,a
screen,html.Screen,2_1_0_1_24,2022-02-04T13:10:45.880Z,,,,,,,,,,,,,,,,,53,,,,,,,,,,,,,,347.54000000000815,,response,,,,99,,,,,,,Space,keypress(Space),,,,,,,,---- -- ----- -- ------ - ------- --- ----------<br>------------- ------ ------ ---- ---- ------- ----- -- ----<br>-------- ------- -- ---------- --- - new ----- ----- ----<br>---- --- --- ----- --- ---- ---- ------- ----- ---- -------<br>--- --- -- ----- -- --- ---- -- --- ---- -- ------ ------<br>--- ----- -- ----,150455,150445,150097.1,150097,150097.46,150456.16,,24,new
screen,html.Screen,2_1_0_1_25,2022-02-04T13:10:46.216Z,,,,,,,,,,,,,,,,,53,,,,,,,,,,,,,,332.8399999999965,,response,,,,99,,,,,,,Space,keypress(Space),,,,,,,,---- -- ----- -- ------ - ------- --- ----------<br>------------- ------ ------ ---- ---- ------- ----- -- ----<br>-------- ------- -- ---------- --- - --- study ----- ----<br>---- --- --- ----- --- ---- ---- ------- ----- ---- -------<br>--- --- -- ----- -- --- ---- -- --- ---- -- ------ ------<br>--- ----- -- ----,150791,150789,150455.94,150456,150456.16,150791.58,,25,study
screen,html.Screen,2_1_0_1_26,2022-02-04T13:10:46.535Z,,,,,,,,,,,,,,,,,53,,,,,,,,,,,,,,310.4200000000128,,response,,,,99,,,,,,,Space,keypress(Space),,,,,,,,---- -- ----- -- ------ - ------- --- ----------<br>------------- ------ ------ ---- ---- ------- ----- -- ----<br>-------- ------- -- ---------- --- - --- ----- finds ----<br>---- --- --- ----- --- ---- ---- ------- ----- ---- -------<br>--- --- -- ----- -- --- ---- -- --- ---- -- ------ ------<br>--- ----- -- ----,151111,151102,150791.42,150791,150791.58,151111.72,,26,finds
screen,html.Screen,2_1_0_1_27,2022-02-04T13:10:46.832Z,,,,,,,,,,,,,,,,,53,,,,,,,,,,,,,,287.27999999999884,,response,,,,99,,,,,,,Space,keypress(Space),,,,,,,,---- -- ----- -- ------ - ------- --- ----------<br>------------- ------ ------ ---- ---- ------- ----- -- ----<br>-------- ------- -- ---------- --- - --- ----- ----- that<br>---- --- --- ----- --- ---- ---- ------- ----- ---- -------<br>--- --- -- ----- -- --- ---- -- --- ---- -- ------ ------<br>--- ----- -- ----,151408,151399,151111.5,151111,151111.72,151408.08,,27,that
screen,html.Screen,2_1_0_1_28,2022-02-04T13:10:47.152Z,,,,,,,,,,,,,,,,,53,,,,,,,,,,,,,,302.9200000000128,,response,,,,99,,,,,,,Space,keypress(Space),,,,,,,,---- -- ----- -- ------ - ------- --- ----------<br>------------- ------ ------ ---- ---- ------- ----- -- ----<br>-------- ------- -- ---------- --- - --- ----- ----- ----<br>it's --- --- ----- --- ---- ---- ------- ----- ---- -------<br>--- --- -- ----- -- --- ---- -- --- ---- -- ------ ------<br>--- ----- -- ----,151727,151711,151407.82,151408,151408.08,151727.58,,28,it's
screen,html.Screen,2_1_0_1_29,2022-02-04T13:10:47.440Z,,,,,,,,,,,,,,,,,53,,,,,,,,,,,,,,280.4200000000128,,response,,,,99,,,,,,,Space,keypress(Space),,,,,,,,---- -- ----- -- ------ - ------- --- ----------<br>------------- ------ ------ ---- ---- ------- ----- -- ----<br>-------- ------- -- ---------- --- - --- ----- ----- ----<br>---- not --- ----- --- ---- ---- ------- ----- ---- -------<br>--- --- -- ----- -- --- ---- -- --- ---- -- ------ ------<br>--- ----- -- ----,152015,152008,151727.36,151727,151727.58,152015.52,,29,not
screen,html.Screen,2_1_0_1_30,2022-02-04T13:10:47.672Z,,,,,,,,,,,,,,,,,53,,,,,,,,,,,,,,226.48000000001048,,response,,,,99,,,,,,,Space,keypress(Space),,,,,,,,---- -- ----- -- ------ - ------- --- ----------<br>------------- ------ ------ ---- ---- ------- ----- -- ----<br>-------- ------- -- ---------- --- - --- ----- ----- ----<br>---- --- how ----- --- ---- ---- ------- ----- ---- -------<br>--- --- -- ----- -- --- ---- -- --- ---- -- ------ ------<br>--- ----- -- ----,152248,152242,152015.4,152015,152015.52,152247.8,,30,how
screen,html.Screen,2_1_0_1_31,2022-02-04T13:10:47.919Z,,,,,,,,,,,,,,,,,53,,,,,,,,,,,,,,244.20000000001164,,response,,,,99,,,,,,,Space,keypress(Space),,,,,,,,---- -- ----- -- ------ - ------- --- ----------<br>------------- ------ ------ ---- ---- ------- ----- -- ----<br>-------- ------- -- ---------- --- - --- ----- ----- ----<br>---- --- --- close --- ---- ---- ------- ----- ---- -------<br>--- --- -- ----- -- --- ---- -- --- ---- -- ------ ------<br>--- ----- -- ----,152495,152492,152247.64,152248,152247.8,152495.86,,31,close
screen,html.Screen,2_1_0_1_32,2022-02-04T13:10:48.184Z,,,,,,,,,,,,,,,,,53,,,,,,,,,,,,,,246.14000000001397,,response,,,,99,,,,,,,Space,keypress(Space),,,,,,,,---- -- ----- -- ------ - ------- --- ----------<br>------------- ------ ------ ---- ---- ------- ----- -- ----<br>-------- ------- -- ---------- --- - --- ----- ----- ----<br>---- --- --- ----- you ---- ---- ------- ----- ---- -------<br>--- --- -- ----- -- --- ---- -- --- ---- -- ------ ------<br>--- ----- -- ----,152759,152742,152495.6,152496,152495.86,152760.06,,32,you
screen,html.Screen,2_1_0_1_33,2022-02-04T13:10:48.456Z,,,,,,,,,,,,,,,,,53,,,,,,,,,,,,,,263.9400000000023,,response,,,,99,,,,,,,Space,keypress(Space),,,,,,,,---- -- ----- -- ------ - ------- --- ----------<br>------------- ------ ------ ---- ---- ------- ----- -- ----<br>-------- ------- -- ---------- --- - --- ----- ----- ----<br>---- --- --- ----- --- feel ---- ------- ----- ---- -------<br>--- --- -- ----- -- --- ---- -- --- ---- -- ------ ------<br>--- ----- -- ----,153032,153024,152759.8,152759,152760.06,153032.06,,33,feel
screen,html.Screen,2_1_0_1_34,2022-02-04T13:10:48.823Z,,,,,,,,,,,,,,,,,53,,,,,,,,,,,,,,350.9400000000023,,response,,,,99,,,,,,,Space,keypress(Space),,,,,,,,---- -- ----- -- ------ - ------- --- ----------<br>------------- ------ ------ ---- ---- ------- ----- -- ----<br>-------- ------- -- ---------- --- - --- ----- ----- ----<br>---- --- --- ----- --- ---- that ------- ----- ---- -------<br>--- --- -- ----- -- --- ---- -- --- ---- -- ------ ------<br>--- ----- -- ----,153399,153383,153031.84,153032,153032.06,153399.62,,34,that
screen,html.Screen,2_1_0_1_35,2022-02-04T13:10:49.191Z,,,,,,,,,,,,,,,,,53,,,,,,,,,,,,,,358.38000000000466,,response,,,,99,,,,,,,Space,keypress(Space),,,,,,,,---- -- ----- -- ------ - ------- --- ----------<br>------------- ------ ------ ---- ---- ------- ----- -- ----<br>-------- ------- -- ---------- --- - --- ----- ----- ----<br>---- --- --- ----- --- ---- ---- matters ----- ---- -------<br>--- --- -- ----- -- --- ---- -- --- ---- -- ------ ------<br>--- ----- -- ----,153767,153758,153399.34,153399,153399.62,153767.54,,35,matters
screen,html.Screen,2_1_0_1_36,2022-02-04T13:10:49.456Z,,,,,,,,,,,,,,,,,53,,,,,,,,,,,,,,256.45999999999185,,response,,,,99,,,,,,,Space,keypress(Space),,,,,,,,"---- -- ----- -- ------ - ------- --- ----------<br>------------- ------ ------ ---- ---- ------- ----- -- ----<br>-------- ------- -- ---------- --- - --- ----- ----- ----<br>---- --- --- ----- --- ---- ---- ------- most, ---- -------<br>--- --- -- ----- -- --- ---- -- --- ---- -- ------ ------<br>--- ----- -- ----",154031,154024,153767.32,153767,153767.54,154031.66,,36,"most,"
screen,html.Screen,2_1_0_1_37,2022-02-04T13:10:49.736Z,,,,,,,,,,,,,,,,,53,,,,,,,,,,,,,,273.3399999999965,,response,,,,99,,,,,,,Space,keypress(Space),,,,,,,,---- -- ----- -- ------ - ------- --- ----------<br>------------- ------ ------ ---- ---- ------- ----- -- ----<br>-------- ------- -- ---------- --- - --- ----- ----- ----<br>---- --- --- ----- --- ---- ---- ------- ----- it's -------<br>--- --- -- ----- -- --- ---- -- --- ---- -- ------ ------<br>--- ----- -- ----,154312,154305,154031.52,154031,154031.66,154311.78,,37,it's
screen,html.Screen,2_1_0_1_38,2022-02-04T13:10:50.168Z,,,,,,,,,,,,,,,,,53,,,,,,,,,,,,,,415.22000000000116,,response,,,,99,,,,,,,Space,keypress(Space),,,,,,,,---- -- ----- -- ------ - ------- --- ----------<br>------------- ------ ------ ---- ---- ------- ----- -- ----<br>-------- ------- -- ---------- --- - --- ----- ----- ----<br>---- --- --- ----- --- ---- ---- ------- ----- ---- whether<br>--- --- -- ----- -- --- ---- -- --- ---- -- ------ ------<br>--- ----- -- ----,154743,154727,154311.58,154312,154311.78,154743.68,,38,whether
screen,html.Screen,2_1_0_1_39,2022-02-04T13:10:50.504Z,,,,,,,,,,,,,,,,,53,,,,,,,,,,,,,,326.320000000007,,response,,,,99,,,,,,,Space,keypress(Space),,,,,,,,---- -- ----- -- ------ - ------- --- ----------<br>------------- ------ ------ ---- ---- ------- ----- -- ----<br>-------- ------- -- ---------- --- - --- ----- ----- ----<br>---- --- --- ----- --- ---- ---- ------- ----- ---- -------<br>you --- -- ----- -- --- ---- -- --- ---- -- ------ ------<br>--- ----- -- ----,155079,155070,154743.44,154743,154743.68,155079.72,,39,you
screen,html.Screen,2_1_0_1_40,2022-02-04T13:10:50.839Z,,,,,,,,,,,,,,,,,53,,,,,,,,,,,,,,319.27999999999884,,response,,,,99,,,,,,,Space,keypress(Space),,,,,,,,---- -- ----- -- ------ - ------- --- ----------<br>------------- ------ ------ ---- ---- ------- ----- -- ----<br>-------- ------- -- ---------- --- - --- ----- ----- ----<br>---- --- --- ----- --- ---- ---- ------- ----- ---- -------<br>--- are -- ----- -- --- ---- -- --- ---- -- ------ ------<br>--- ----- -- ----,155416,155399,155079.46,155080,155079.72,155415.9,,40,are
screen,html.Screen,2_1_0_1_41,2022-02-04T13:10:51.215Z,,,,,,,,,,,,,,,,,53,,,,,,,,,,,,,,373.1000000000058,,response,,,,99,,,,,,,Space,keypress(Space),,,,,,,,---- -- ----- -- ------ - ------- --- ----------<br>------------- ------ ------ ---- ---- ------- ----- -- ----<br>-------- ------- -- ---------- --- - --- ----- ----- ----<br>---- --- --- ----- --- ---- ---- ------- ----- ---- -------<br>--- --- as ----- -- --- ---- -- --- ---- -- ------ ------<br>--- ----- -- ----,155792,155789,155415.68,155416,155415.9,155791.82,,41,as
screen,html.Screen,2_1_0_1_42,2022-02-04T13:10:51.584Z,,,,,,,,,,,,,,,,,53,,,,,,,,,,,,,,357.179999999993,,response,,,,99,,,,,,,Space,keypress(Space),,,,,,,,---- -- ----- -- ------ - ------- --- ----------<br>------------- ------ ------ ---- ---- ------- ----- -- ----<br>-------- ------- -- ---------- --- - --- ----- ----- ----<br>---- --- --- ----- --- ---- ---- ------- ----- ---- -------<br>--- --- -- close -- --- ---- -- --- ---- -- ------ ------<br>--- ----- -- ----,156160,156149,155791.68,155792,155791.82,156159.5,,42,close
screen,html.Screen,2_1_0_1_43,2022-02-04T13:10:51.936Z,,,,,,,,,,,,,,,,,53,,,,,,,,,,,,,,348.5,,response,,,,99,,,,,,,Space,keypress(Space),,,,,,,,---- -- ----- -- ------ - ------- --- ----------<br>------------- ------ ------ ---- ---- ------- ----- -- ----<br>-------- ------- -- ---------- --- - --- ----- ----- ----<br>---- --- --- ----- --- ---- ---- ------- ----- ---- -------<br>--- --- -- ----- as --- ---- -- --- ---- -- ------ ------<br>--- ----- -- ----,156512,156508,156159.34,156160,156159.5,156511.44,,43,as
screen,html.Screen,2_1_0_1_44,2022-02-04T13:10:52.296Z,,,,,,,,,,,,,,,,,53,,,,,,,,,,,,,,355.5599999999977,,response,,,,99,,,,,,,Space,keypress(Space),,,,,,,,---- -- ----- -- ------ - ------- --- ----------<br>------------- ------ ------ ---- ---- ------- ----- -- ----<br>-------- ------- -- ---------- --- - --- ----- ----- ----<br>---- --- --- ----- --- ---- ---- ------- ----- ---- -------<br>--- --- -- ----- -- you ---- -- --- ---- -- ------ ------<br>--- ----- -- ----,156871,156867,156511.3,156512,156511.44,156871.88,,44,you
screen,html.Screen,2_1_0_1_45,2022-02-04T13:10:52.744Z,,,,,,,,,,,,,,,,,53,,,,,,,,,,,,,,433.11999999999534,,response,,,,99,,,,,,,Space,keypress(Space),,,,,,,,---- -- ----- -- ------ - ------- --- ----------<br>------------- ------ ------ ---- ---- ------- ----- -- ----<br>-------- ------- -- ---------- --- - --- ----- ----- ----<br>---- --- --- ----- --- ---- ---- ------- ----- ---- -------<br>--- --- -- ----- -- --- want -- --- ---- -- ------ ------<br>--- ----- -- ----,157320,157305,156871.68,156871,156871.88,157320.24,,45,want
screen,html.Screen,2_1_0_1_46,2022-02-04T13:10:53.103Z,,,,,,,,,,,,,,,,,53,,,,,,,,,,,,,,343.7600000000093,,response,,,,99,,,,,,,Space,keypress(Space),,,,,,,,---- -- ----- -- ------ - ------- --- ----------<br>------------- ------ ------ ---- ---- ------- ----- -- ----<br>-------- ------- -- ---------- --- - --- ----- ----- ----<br>---- --- --- ----- --- ---- ---- ------- ----- ---- -------<br>--- --- -- ----- -- --- ---- to --- ---- -- ------ ------<br>--- ----- -- ----,157679,157664,157320.02,157320,157320.24,157679.74,,46,to
screen,html.Screen,2_1_0_1_47,2022-02-04T13:10:53.488Z,,,,,,,,,,,,,,,,,53,,,,,,,,,,,,,,375.2600000000093,,response,,,,99,,,,,,,Space,keypress(Space),,,,,,,,"---- -- ----- -- ------ - ------- --- ----------<br>------------- ------ ------ ---- ---- ------- ----- -- ----<br>-------- ------- -- ---------- --- - --- ----- ----- ----<br>---- --- --- ----- --- ---- ---- ------- ----- ---- -------<br>--- --- -- ----- -- --- ---- -- be, ---- -- ------ ------<br>--- ----- -- ----",158063,158055,157679.52,157679,157679.74,158063.8,,47,"be,"
screen,html.Screen,2_1_0_1_48,2022-02-04T13:10:53.856Z,,,,,,,,,,,,,,,,,53,,,,,,,,,,,,,,366.20000000001164,,response,,,,99,,,,,,,Space,keypress(Space),,,,,,,,---- -- ----- -- ------ - ------- --- ----------<br>------------- ------ ------ ---- ---- ------- ----- -- ----<br>-------- ------- -- ---------- --- - --- ----- ----- ----<br>---- --- --- ----- --- ---- ---- ------- ----- ---- -------<br>--- --- -- ----- -- --- ---- -- --- even -- ------ ------<br>--- ----- -- ----,158432,158430,158063.6,158063,158063.8,158431.96,,48,even
screen,html.Screen,2_1_0_1_49,2022-02-04T13:10:54.183Z,,,,,,,,,,,,,,,,,53,,,,,,,,,,,,,,310.04000000000815,,response,,,,99,,,,,,,Space,keypress(Space),,,,,,,,---- -- ----- -- ------ - ------- --- ----------<br>------------- ------ ------ ---- ---- ------- ----- -- ----<br>-------- ------- -- ---------- --- - --- ----- ----- ----<br>---- --- --- ----- --- ---- ---- ------- ----- ---- -------<br>--- --- -- ----- -- --- ---- -- --- ---- if ------ ------<br>--- ----- -- ----,158759,158742,158431.74,158432,158431.96,158759.78,,49,if
screen,html.Screen,2_1_0_1_50,2022-02-04T13:10:54.480Z,,,,,,,,,,,,,,,,,53,,,,,,,,,,,,,,279.22000000000116,,response,,,,99,,,,,,,Space,keypress(Space),,,,,,,,---- -- ----- -- ------ - ------- --- ----------<br>------------- ------ ------ ---- ---- ------- ----- -- ----<br>-------- ------- -- ---------- --- - --- ----- ----- ----<br>---- --- --- ----- --- ---- ---- ------- ----- ---- -------<br>--- --- -- ----- -- --- ---- -- --- ---- -- that's ------<br>--- ----- -- ----,159056,159039,158759.56,158759,158759.78,159055.86,,50,that's
screen,html.Screen,2_1_0_1_51,2022-02-04T13:10:54.808Z,,,,,,,,,,,,,,,,,53,,,,,,,,,,,,,,311.14000000001397,,response,,,,99,,,,,,,Space,keypress(Space),,,,,,,,---- -- ----- -- ------ - ------- --- ----------<br>------------- ------ ------ ---- ---- ------- ----- -- ----<br>-------- ------- -- ---------- --- - --- ----- ----- ----<br>---- --- --- ----- --- ---- ---- ------- ----- ---- -------<br>--- --- -- ----- -- --- ---- -- --- ---- -- ------ really<br>--- ----- -- ----,159383,159367,159055.64,159056,159055.86,159383.88,,51,really
screen,html.Screen,2_1_0_1_52,2022-02-04T13:10:55.136Z,,,,,,,,,,,,,,,,,53,,,,,,,,,,,,,,311.11999999999534,,response,,,,99,,,,,,,Space,keypress(Space),,,,,,,,---- -- ----- -- ------ - ------- --- ----------<br>------------- ------ ------ ---- ---- ------- ----- -- ----<br>-------- ------- -- ---------- --- - --- ----- ----- ----<br>---- --- --- ----- --- ---- ---- ------- ----- ---- -------<br>--- --- -- ----- -- --- ---- -- --- ---- -- ------ ------<br>not ----- -- ----,159712,159695,159383.7,159384,159383.88,159711.8,,52,not
screen,html.Screen,2_1_0_1_53,2022-02-04T13:10:55.424Z,,,,,,,,,,,,,,,,,53,,,,,,,,,,,,,,280.20000000001164,,response,,,,99,,,,,,,Space,keypress(Space),,,,,,,,---- -- ----- -- ------ - ------- --- ----------<br>------------- ------ ------ ---- ---- ------- ----- -- ----<br>-------- ------- -- ---------- --- - --- ----- ----- ----<br>---- --- --- ----- --- ---- ---- ------- ----- ---- -------<br>--- --- -- ----- -- --- ---- -- --- ---- -- ------ ------<br>--- close -- ----,159999,159992,159711.56,159712,159711.8,159999.62,,53,close
screen,html.Screen,2_1_0_1_54,2022-02-04T13:10:55.800Z,,,,,,,,,,,,,,,,,53,,,,,,,,,,,,,,367.38000000000466,,response,,,,99,,,,,,,Space,keypress(Space),,,,,,,,---- -- ----- -- ------ - ------- --- ----------<br>------------- ------ ------ ---- ---- ------- ----- -- ----<br>-------- ------- -- ---------- --- - --- ----- ----- ----<br>---- --- --- ----- --- ---- ---- ------- ----- ---- -------<br>--- --- -- ----- -- --- ---- -- --- ---- -- ------ ------<br>--- ----- at ----,160376,160367,159999.52,159999,159999.62,160375.9,,54,at
screen,html.Screen,2_1_0_1_55,2022-02-04T13:10:56.207Z,,,,,,,,,,,,,,,,,53,,,,,,,,,,,,,,398.1000000000058,,response,,,,99,,,,,,,Space,keypress(Space),,,,,,,,---- -- ----- -- ------ - ------- --- ----------<br>------------- ------ ------ ---- ---- ------- ----- -- ----<br>-------- ------- -- ---------- --- - --- ----- ----- ----<br>---- --- --- ----- --- ---- ---- ------- ----- ---- -------<br>--- --- -- ----- -- --- ---- -- --- ---- -- ------ ------<br>--- ----- -- all.,160783,160774,160375.76,160376,160375.9,160785.34,,55,all.
Item 99,flow.Loop,2_1_0_1,2022-02-04T13:10:56.208Z,,,,,,,,,,,,,,,,,,,,,,,,,,,,,,,20155.660000000003,,completion,,,,,D,,,,,,,,,,,silence,,,,,160783,160774,140601.66,140605,140618.34,160785.34,,,
Question 1,html.Screen,2_1_0_2,2022-02-04T13:11:03.897Z,,,,,,,,,,,,,,,,,,,,,,,,,,,,true,FALSE,,7675.6600000000035,,response,,,,99,D,,,,,,FALSE,click #choice-2,,,,silence,,,,,168473,168461,160783.58,160783,160785.34,168485.48,,,
Question 2,html.Screen,2_1_0_3,2022-02-04T13:11:06.281Z,,,,,,,,,,,,,,,,,,,,,,,,,,,,true,TRUE,,2366.5199999999895,,response,,,,99,D,,,,,,TRUE,click #choice-1,,,,silence,,,,,170857,170852,168472.46,168473,168485.48,170868.78,,,
Item 99,flow.Sequence,2_1_0,2022-02-04T13:11:06.281Z,,,,,,,,,,,,,,,,,,,,,,,,,,,,,,,40233.880000000005,,completion,,,,,,,,,,,,,,,,,,,,,170857,170852,130600.7,130604,130618.12,170868.78,,,
Holding screen,html.Screen,2_1_1_0,2022-02-04T13:11:16.277Z,,,,,,,,,,,,,,,,,,,,,,,,,,,,,,,10000.220000000001,,timeout,,,,,,,,,,,,,,,,,,,,,180853,180852.34,170856.32,170858,170868.78,180869,,,
screen,html.Screen,2_1_1_1_0,2022-02-04T13:11:17.031Z,,,,,,,,,,,,,,,,,54,,,,,,,,,,,,,,733,,response,,,,100,,,,,,,Space,keypress(Space),,,,,,,,At --- ---- --- ------ ----- ------- ---- -- --- ------- --<br>------- ---------- ------ -- ----- -- ----- -- ---- ------<br>--- ----- --- --- ------ -------- ----- --- ------ ----- --<br>----- ----- ---------- --- --- ------ ------ ---- -- ------<br>------- --- ------ ----- --- ---- ------- -- ---- --- --<br>------- ------,181607,181602,180852.34,180853,180869,181607.48,,0,At
screen,html.Screen,2_1_1_1_1,2022-02-04T13:11:17.336Z,,,,,,,,,,,,,,,,,54,,,,,,,,,,,,,,291.5199999999895,,response,,,,100,,,,,,,Space,keypress(Space),,,,,,,,-- the ---- --- ------ ----- ------- ---- -- --- ------- --<br>------- ---------- ------ -- ----- -- ----- -- ---- ------<br>--- ----- --- --- ------ -------- ----- --- ------ ----- --<br>----- ----- ---------- --- --- ------ ------ ---- -- ------<br>------- --- ------ ----- --- ---- ------- -- ---- --- --<br>------- ------,181911,181899,181607.36,181607,181607.48,181911.5,,1,the
screen,html.Screen,2_1_1_1_2,2022-02-04T13:11:17.583Z,,,,,,,,,,,,,,,,,54,,,,,,,,,,,,,,237.5,,response,,,,100,,,,,,,Space,keypress(Space),,,,,,,,-- --- time --- ------ ----- ------- ---- -- --- ------- --<br>------- ---------- ------ -- ----- -- ----- -- ---- ------<br>--- ----- --- --- ------ -------- ----- --- ------ ----- --<br>----- ----- ---------- --- --- ------ ------ ---- -- ------<br>------- --- ------ ----- --- ---- ------- -- ---- --- --<br>------- ------,182159,182149,181911.3,181911,181911.5,182159.34,,2,time
screen,html.Screen,2_1_1_1_3,2022-02-04T13:11:17.848Z,,,,,,,,,,,,,,,,,54,,,,,,,,,,,,,,254.6600000000035,,response,,,,100,,,,,,,Space,keypress(Space),,,,,,,,-- --- ---- the ------ ----- ------- ---- -- --- ------- --<br>------- ---------- ------ -- ----- -- ----- -- ---- ------<br>--- ----- --- --- ------ -------- ----- --- ------ ----- --<br>----- ----- ---------- --- --- ------ ------ ---- -- ------<br>------- --- ------ ----- --- ---- ------- -- ---- --- --<br>------- ------,182424,182414,182159.12,182159,182159.34,182423.82,,3,the
screen,html.Screen,2_1_1_1_4,2022-02-04T13:11:18.127Z,,,,,,,,,,,,,,,,,54,,,,,,,,,,,,,,271.179999999993,,response,,,,100,,,,,,,Space,keypress(Space),,,,,,,,-- --- ---- --- French ----- ------- ---- -- --- ------- --<br>------- ---------- ------ -- ----- -- ----- -- ---- ------<br>--- ----- --- --- ------ -------- ----- --- ------ ----- --<br>----- ----- ---------- --- --- ------ ------ ---- -- ------<br>------- --- ------ ----- --- ---- ------- -- ---- --- --<br>------- ------,182703,182695,182423.62,182424,182423.82,182703.62,,4,French
screen,html.Screen,2_1_1_1_5,2022-02-04T13:11:18.400Z,,,,,,,,,,,,,,,,,54,,,,,,,,,,,,,,257.38000000000466,,response,,,,100,,,,,,,Space,keypress(Space),,,,,,,,-- --- ---- --- ------ crown ------- ---- -- --- ------- --<br>------- ---------- ------ -- ----- -- ----- -- ---- ------<br>--- ----- --- --- ------ -------- ----- --- ------ ----- --<br>----- ----- ---------- --- --- ------ ------ ---- -- ------<br>------- --- ------ ----- --- ---- ------- -- ---- --- --<br>------- ------,182976,182961,182703.4,182703,182703.62,182975.52,,5,crown
screen,html.Screen,2_1_1_1_6,2022-02-04T13:11:18.671Z,,,,,,,,,,,,,,,,,54,,,,,,,,,,,,,,266.4800000000105,,response,,,,100,,,,,,,Space,keypress(Space),,,,,,,,-- --- ---- --- ------ ----- secured ---- -- --- ------- --<br>------- ---------- ------ -- ----- -- ----- -- ---- ------<br>--- ----- --- --- ------ -------- ----- --- ------ ----- --<br>----- ----- ---------- --- --- ------ ------ ---- -- ------<br>------- --- ------ ----- --- ---- ------- -- ---- --- --<br>------- ------,183248,183242,182975.36,182976,182975.52,183247.58,,6,secured
screen,html.Screen,2_1_1_1_7,2022-02-04T13:11:18.928Z,,,,,,,,,,,,,,,,,54,,,,,,,,,,,,,,244.4200000000128,,response,,,,100,,,,,,,Space,keypress(Space),,,,,,,,-- --- ---- --- ------ ----- ------- much -- --- ------- --<br>------- ---------- ------ -- ----- -- ----- -- ---- ------<br>--- ----- --- --- ------ -------- ----- --- ------ ----- --<br>----- ----- ---------- --- --- ------ ------ ---- -- ------<br>------- --- ------ ----- --- ---- ------- -- ---- --- --<br>------- ------,183504,183492,183247.38,183248,183247.58,183503.52,,7,much
screen,html.Screen,2_1_1_1_8,2022-02-04T13:11:19.192Z,,,,,,,,,,,,,,,,,54,,,,,,,,,,,,,,254.48000000001048,,response,,,,100,,,,,,,Space,keypress(Space),,,,,,,,-- --- ---- --- ------ ----- ------- ---- of --- ------- --<br>------- ---------- ------ -- ----- -- ----- -- ---- ------<br>--- ----- --- --- ------ -------- ----- --- ------ ----- --<br>----- ----- ---------- --- --- ------ ------ ---- -- ------<br>------- --- ------ ----- --- ---- ------- -- ---- --- --<br>------- ------,183767,183758,183503.28,183504,183503.52,183767.04,,8,of
screen,html.Screen,2_1_1_1_9,2022-02-04T13:11:19.504Z,,,,,,,,,,,,,,,,,54,,,,,,,,,,,,,,302.95999999999185,,response,,,,100,,,,,,,Space,keypress(Space),,,,,,,,-- --- ---- --- ------ ----- ------- ---- -- its ------- --<br>------- ---------- ------ -- ----- -- ----- -- ---- ------<br>--- ----- --- --- ------ -------- ----- --- ------ ----- --<br>----- ----- ---------- --- --- ------ ------ ---- -- ------<br>------- --- ------ ----- --- ---- ------- -- ---- --- --<br>------- ------,184079,184070,183766.92,183767,183767.04,184079.78,,9,its
screen,html.Screen,2_1_1_1_10,2022-02-04T13:11:19.711Z,,,,,,,,,,,,,,,,,54,,,,,,,,,,,,,,194.22000000000116,,response,,,,100,,,,,,,Space,keypress(Space),,,,,,,,-- --- ---- --- ------ ----- ------- ---- -- --- revenue --<br>------- ---------- ------ -- ----- -- ----- -- ---- ------<br>--- ----- --- --- ------ -------- ----- --- ------ ----- --<br>----- ----- ---------- --- --- ------ ------ ---- -- ------<br>------- --- ------ ----- --- ---- ------- -- ---- --- --<br>------- ------,184287,184274,184079.56,184079,184079.78,184287.72,,10,revenue
screen,html.Screen,2_1_1_1_11,2022-02-04T13:11:21.040Z,,,,,,,,,,,,,,,,,54,,,,,,,,,,,,,,1314.2799999999988,,response,,,,100,,,,,,,Space,keypress(Space),,,,,,,,-- --- ---- --- ------ ----- ------- ---- -- --- ------- by<br>------- ---------- ------ -- ----- -- ----- -- ---- ------<br>--- ----- --- --- ------ -------- ----- --- ------ ----- --<br>----- ----- ---------- --- --- ------ ------ ---- -- ------<br>------- --- ------ ----- --- ---- ------- -- ---- --- --<br>------- ------,185615,185602,184287.52,184287,184287.72,185615.42,,11,by
screen,html.Screen,2_1_1_1_12,2022-02-04T13:11:21.272Z,,,,,,,,,,,,,,,,,54,,,,,,,,,,,,,,220.5799999999872,,response,,,,100,,,,,,,Space,keypress(Space),,,,,,,,-- --- ---- --- ------ ----- ------- ---- -- --- ------- --<br>issuing ---------- ------ -- ----- -- ----- -- ---- ------<br>--- ----- --- --- ------ -------- ----- --- ------ ----- --<br>----- ----- ---------- --- --- ------ ------ ---- -- ------<br>------- --- ------ ----- --- ---- ------- -- ---- --- --<br>------- ------,185847,185836,185615.26,185615,185615.42,185847.5,,12,issuing
screen,html.Screen,2_1_1_1_13,2022-02-04T13:11:21.544Z,,,,,,,,,,,,,,,,,54,,,,,,,,,,,,,,269.5,,response,,,,100,,,,,,,Space,keypress(Space),,,,,,,,-- --- ---- --- ------ ----- ------- ---- -- --- ------- --<br>------- government ------ -- ----- -- ----- -- ---- ------<br>--- ----- --- --- ------ -------- ----- --- ------ ----- --<br>----- ----- ---------- --- --- ------ ------ ---- -- ------<br>------- --- ------ ----- --- ---- ------- -- ---- --- --<br>------- ------,186119,186117,185847.26,185847,185847.5,186119.68,,13,government
screen,html.Screen,2_1_1_1_14,2022-02-04T13:11:21.800Z,,,,,,,,,,,,,,,,,54,,,,,,,,,,,,,,247.32000000000698,,response,,,,100,,,,,,,Space,keypress(Space),,,,,,,,-- --- ---- --- ------ ----- ------- ---- -- --- ------- --<br>------- ---------- bonds. -- ----- -- ----- -- ---- ------<br>--- ----- --- --- ------ -------- ----- --- ------ ----- --<br>----- ----- ---------- --- --- ------ ------ ---- -- ------<br>------- --- ------ ----- --- ---- ------- -- ---- --- --<br>------- ------,186375,186367,186119.44,186119,186119.68,186375.78,,14,bonds.
screen,html.Screen,2_1_1_1_15,2022-02-04T13:11:22.055Z,,,,,,,,,,,,,,,,,54,,,,,,,,,,,,,,241.22000000000116,,response,,,,100,,,,,,,Space,keypress(Space),,,,,,,,-- --- ---- --- ------ ----- ------- ---- -- --- ------- --<br>------- ---------- ------ In ----- -- ----- -- ---- ------<br>--- ----- --- --- ------ -------- ----- --- ------ ----- --<br>----- ----- ---------- --- --- ------ ------ ---- -- ------<br>------- --- ------ ----- --- ---- ------- -- ---- --- --<br>------- ------,186631,186617,186375.62,186375,186375.78,186631.56,,15,In
screen,html.Screen,2_1_1_1_16,2022-02-04T13:11:22.384Z,,,,,,,,,,,,,,,,,54,,,,,,,,,,,,,,313.4400000000023,,response,,,,100,,,,,,,Space,keypress(Space),,,,,,,,"-- --- ---- --- ------ ----- ------- ---- -- --- ------- --<br>------- ---------- ------ -- 1727, -- ----- -- ---- ------<br>--- ----- --- --- ------ -------- ----- --- ------ ----- --<br>----- ----- ---------- --- --- ------ ------ ---- -- ------<br>------- --- ------ ----- --- ---- ------- -- ---- --- --<br>------- ------",186959,186945,186631.34,186631,186631.56,186960.06,,16,"1727,"
screen,html.Screen,2_1_1_1_17,2022-02-04T13:11:22.631Z,,,,,,,,,,,,,,,,,54,,,,,,,,,,,,,,234.94000000000233,,response,,,,100,,,,,,,Space,keypress(Space),,,,,,,,-- --- ---- --- ------ ----- ------- ---- -- --- ------- --<br>------- ---------- ------ -- ----- in ----- -- ---- ------<br>--- ----- --- --- ------ -------- ----- --- ------ ----- --<br>----- ----- ---------- --- --- ------ ------ ---- -- ------<br>------- --- ------ ----- --- ---- ------- -- ---- --- --<br>------- ------,187207,187195,186959.84,186959,186960.06,187207.3,,17,in
screen,html.Screen,2_1_1_1_18,2022-02-04T13:11:22.895Z,,,,,,,,,,,,,,,,,54,,,,,,,,,,,,,,253.70000000001164,,response,,,,100,,,,,,,Space,keypress(Space),,,,,,,,-- --- ---- --- ------ ----- ------- ---- -- --- ------- --<br>------- ---------- ------ -- ----- -- order -- ---- ------<br>--- ----- --- --- ------ -------- ----- --- ------ ----- --<br>----- ----- ---------- --- --- ------ ------ ---- -- ------<br>------- --- ------ ----- --- ---- ------- -- ---- --- --<br>------- ------,187471,187461,187207.1,187207,187207.3,187471.6,,18,order
screen,html.Screen,2_1_1_1_19,2022-02-04T13:11:23.319Z,,,,,,,,,,,,,,,,,54,,,,,,,,,,,,,,411.3999999999942,,response,,,,100,,,,,,,Space,keypress(Space),,,,,,,,-- --- ---- --- ------ ----- ------- ---- -- --- ------- --<br>------- ---------- ------ -- ----- -- ----- to ---- ------<br>--- ----- --- --- ------ -------- ----- --- ------ ----- --<br>----- ----- ---------- --- --- ------ ------ ---- -- ------<br>------- --- ------ ----- --- ---- ------- -- ---- --- --<br>------- ------,187895,187883,187471.36,187471,187471.6,187895.08,,19,to
screen,html.Screen,2_1_1_1_20,2022-02-04T13:11:23.535Z,,,,,,,,,,,,,,,,,54,,,,,,,,,,,,,,206.9200000000128,,response,,,,100,,,,,,,Space,keypress(Space),,,,,,,,-- --- ---- --- ------ ----- ------- ---- -- --- ------- --<br>------- ---------- ------ -- ----- -- ----- -- save ------<br>--- ----- --- --- ------ -------- ----- --- ------ ----- --<br>----- ----- ---------- --- --- ------ ------ ---- -- ------<br>------- --- ------ ----- --- ---- ------- -- ---- --- --<br>------- ------,188111,188102,187894.94,187895,187895.08,188111.14,,20,save
screen,html.Screen,2_1_1_1_21,2022-02-04T13:11:23.783Z,,,,,,,,,,,,,,,,,54,,,,,,,,,,,,,,240.85999999998603,,response,,,,100,,,,,,,Space,keypress(Space),,,,,,,,"-- --- ---- --- ------ ----- ------- ---- -- --- ------- --<br>------- ---------- ------ -- ----- -- ----- -- ---- money,<br>--- ----- --- --- ------ -------- ----- --- ------ ----- --<br>----- ----- ---------- --- --- ------ ------ ---- -- ------<br>------- --- ------ ----- --- ---- ------- -- ---- --- --<br>------- ------",188359,188352,188110.92,188111,188111.14,188359.28,,21,"money,"
screen,html.Screen,2_1_1_1_22,2022-02-04T13:11:24.031Z,,,,,,,,,,,,,,,,,54,,,,,,,,,,,,,,242.72000000000116,,response,,,,100,,,,,,,Space,keypress(Space),,,,,,,,-- --- ---- --- ------ ----- ------- ---- -- --- ------- --<br>------- ---------- ------ -- ----- -- ----- -- ---- ------<br>the ----- --- --- ------ -------- ----- --- ------ ----- --<br>----- ----- ---------- --- --- ------ ------ ---- -- ------<br>------- --- ------ ----- --- ---- ------- -- ---- --- --<br>------- ------,188607,188602,188359.1,188359,188359.28,188607.52,,22,the
screen,html.Screen,2_1_1_1_23,2022-02-04T13:11:24.247Z,,,,,,,,,,,,,,,,,54,,,,,,,,,,,,,,212.48000000001048,,response,,,,100,,,,,,,Space,keypress(Space),,,,,,,,-- --- ---- --- ------ ----- ------- ---- -- --- ------- --<br>------- ---------- ------ -- ----- -- ----- -- ---- ------<br>--- state --- --- ------ -------- ----- --- ------ ----- --<br>----- ----- ---------- --- --- ------ ------ ---- -- ------<br>------- --- ------ ----- --- ---- ------- -- ---- --- --<br>------- ------,188823,188820,188607.28,188607,188607.52,188823.42,,23,state
screen,html.Screen,2_1_1_1_24,2022-02-04T13:11:24.471Z,,,,,,,,,,,,,,,,,54,,,,,,,,,,,,,,215.5799999999872,,response,,,,100,,,,,,,Space,keypress(Space),,,,,,,,-- --- ---- --- ------ ----- ------- ---- -- --- ------- --<br>------- ---------- ------ -- ----- -- ----- -- ---- ------<br>--- ----- cut --- ------ -------- ----- --- ------ ----- --<br>----- ----- ---------- --- --- ------ ------ ---- -- ------<br>------- --- ------ ----- --- ---- ------- -- ---- --- --<br>------- ------,189047,189039,188823.24,188824,188823.42,189047.14,,24,cut
screen,html.Screen,2_1_1_1_25,2022-02-04T13:11:24.727Z,,,,,,,,,,,,,,,,,54,,,,,,,,,,,,,,241.85999999998603,,response,,,,100,,,,,,,Space,keypress(Space),,,,,,,,-- --- ---- --- ------ ----- ------- ---- -- --- ------- --<br>------- ---------- ------ -- ----- -- ----- -- ---- ------<br>--- ----- --- the ------ -------- ----- --- ------ ----- --<br>----- ----- ---------- --- --- ------ ------ ---- -- ------<br>------- --- ------ ----- --- ---- ------- -- ---- --- --<br>------- ------,189304,189289,189046.92,189047,189047.14,189303.58,,25,the
screen,html.Screen,2_1_1_1_26,2022-02-04T13:11:24.928Z,,,,,,,,,,,,,,,,,54,,,,,,,,,,,,,,188.4200000000128,,response,,,,100,,,,,,,Space,keypress(Space),,,,,,,,-- --- ---- --- ------ ----- ------- ---- -- --- ------- --<br>------- ---------- ------ -- ----- -- ----- -- ---- ------<br>--- ----- --- --- bonds' -------- ----- --- ------ ----- --<br>----- ----- ---------- --- --- ------ ------ ---- -- ------<br>------- --- ------ ----- --- ---- ------- -- ---- --- --<br>------- ------,189503,189492,189303.38,189304,189303.58,189519.12,,26,bonds'
screen,html.Screen,2_1_1_1_27,2022-02-04T13:11:25.175Z,,,,,,,,,,,,,,,,,54,,,,,,,,,,,,,,222.88000000000466,,response,,,,100,,,,,,,Space,keypress(Space),,,,,,,,-- --- ---- --- ------ ----- ------- ---- -- --- ------- --<br>------- ---------- ------ -- ----- -- ----- -- ---- ------<br>--- ----- --- --- ------ interest ----- --- ------ ----- --<br>----- ----- ---------- --- --- ------ ------ ---- -- ------<br>------- --- ------ ----- --- ---- ------- -- ---- --- --<br>------- ------,189751,189742,189503.36,189503,189519.12,189752.5,,27,interest
screen,html.Screen,2_1_1_1_28,2022-02-04T13:11:25.431Z,,,,,,,,,,,,,,,,,54,,,,,,,,,,,,,,239.5,,response,,,,100,,,,,,,Space,keypress(Space),,,,,,,,-- --- ---- --- ------ ----- ------- ---- -- --- ------- --<br>------- ---------- ------ -- ----- -- ----- -- ---- ------<br>--- ----- --- --- ------ -------- rate. --- ------ ----- --<br>----- ----- ---------- --- --- ------ ------ ---- -- ------<br>------- --- ------ ----- --- ---- ------- -- ---- --- --<br>------- ------,190006,189992,189751.22,189752,189752.5,190007.18,,28,rate.
screen,html.Screen,2_1_1_1_29,2022-02-04T13:11:25.656Z,,,,,,,,,,,,,,,,,54,,,,,,,,,,,,,,219.82000000000698,,response,,,,100,,,,,,,Space,keypress(Space),,,,,,,,-- --- ---- --- ------ ----- ------- ---- -- --- ------- --<br>------- ---------- ------ -- ----- -- ----- -- ---- ------<br>--- ----- --- --- ------ -------- ----- The ------ ----- --<br>----- ----- ---------- --- --- ------ ------ ---- -- ------<br>------- --- ------ ----- --- ---- ------- -- ---- --- --<br>------- ------,190231,190227,190006.98,190007,190007.18,190231.46,,29,The
screen,html.Screen,2_1_1_1_30,2022-02-04T13:11:25.904Z,,,,,,,,,,,,,,,,,54,,,,,,,,,,,,,,245.54000000000815,,response,,,,100,,,,,,,Space,keypress(Space),,,,,,,,-- --- ---- --- ------ ----- ------- ---- -- --- ------- --<br>------- ---------- ------ -- ----- -- ----- -- ---- ------<br>--- ----- --- --- ------ -------- ----- --- market ----- --<br>----- ----- ---------- --- --- ------ ------ ---- -- ------<br>------- --- ------ ----- --- ---- ------- -- ---- --- --<br>------- ------,190479,190477,190231.24,190232,190231.46,190479.52,,30,market
screen,html.Screen,2_1_1_1_31,2022-02-04T13:11:26.135Z,,,,,,,,,,,,,,,,,54,,,,,,,,,,,,,,215.48000000001048,,response,,,,100,,,,,,,Space,keypress(Space),,,,,,,,-- --- ---- --- ------ ----- ------- ---- -- --- ------- --<br>------- ---------- ------ -- ----- -- ----- -- ---- ------<br>--- ----- --- --- ------ -------- ----- --- ------ value --<br>----- ----- ---------- --- --- ------ ------ ---- -- ------<br>------- --- ------ ----- --- ---- ------- -- ---- --- --<br>------- ------,190711,190695,190479.32,190479,190479.52,190711.38,,31,value
screen,html.Screen,2_1_1_1_32,2022-02-04T13:11:26.399Z,,,,,,,,,,,,,,,,,54,,,,,,,,,,,,,,249.61999999999534,,response,,,,100,,,,,,,Space,keypress(Space),,,,,,,,-- --- ---- --- ------ ----- ------- ---- -- --- ------- --<br>------- ---------- ------ -- ----- -- ----- -- ---- ------<br>--- ----- --- --- ------ -------- ----- --- ------ ----- of<br>----- ----- ---------- --- --- ------ ------ ---- -- ------<br>------- --- ------ ----- --- ---- ------- -- ---- --- --<br>------- ------,190975,190961,190711.22,190712,190711.38,190975.28,,32,of
screen,html.Screen,2_1_1_1_33,2022-02-04T13:11:26.640Z,,,,,,,,,,,,,,,,,54,,,,,,,,,,,,,,235.72000000000116,,response,,,,100,,,,,,,Space,keypress(Space),,,,,,,,-- --- ---- --- ------ ----- ------- ---- -- --- ------- --<br>------- ---------- ------ -- ----- -- ----- -- ---- ------<br>--- ----- --- --- ------ -------- ----- --- ------ ----- --<br>these ----- ---------- --- --- ------ ------ ---- -- ------<br>------- --- ------ ----- --- ---- ------- -- ---- --- --<br>------- ------,191215,191211,190975.1,190975,190975.28,191215.44,,33,these
screen,html.Screen,2_1_1_1_34,2022-02-04T13:11:26.887Z,,,,,,,,,,,,,,,,,54,,,,,,,,,,,,,,245.55999999999767,,response,,,,100,,,,,,,Space,keypress(Space),,,,,,,,-- --- ---- --- ------ ----- ------- ---- -- --- ------- --<br>------- ---------- ------ -- ----- -- ----- -- ---- ------<br>--- ----- --- --- ------ -------- ----- --- ------ ----- --<br>----- bonds ---------- --- --- ------ ------ ---- -- ------<br>------- --- ------ ----- --- ---- ------- -- ---- --- --<br>------- ------,191463,191461,191215.2,191215,191215.44,191463.32,,34,bonds
screen,html.Screen,2_1_1_1_35,2022-02-04T13:11:27.135Z,,,,,,,,,,,,,,,,,54,,,,,,,,,,,,,,231.67999999999302,,response,,,,100,,,,,,,Space,keypress(Space),,,,,,,,"-- --- ---- --- ------ ----- ------- ---- -- --- ------- --<br>------- ---------- ------ -- ----- -- ----- -- ---- ------<br>--- ----- --- --- ------ -------- ----- --- ------ ----- --<br>----- ----- plummeted, --- --- ------ ------ ---- -- ------<br>------- --- ------ ----- --- ---- ------- -- ---- --- --<br>------- ------",191711,191695,191463.12,191463,191463.32,191711.44,,35,"plummeted,"
screen,html.Screen,2_1_1_1_36,2022-02-04T13:11:27.383Z,,,,,,,,,,,,,,,,,54,,,,,,,,,,,,,,233.55999999999767,,response,,,,100,,,,,,,Space,keypress(Space),,,,,,,,-- --- ---- --- ------ ----- ------- ---- -- --- ------- --<br>------- ---------- ------ -- ----- -- ----- -- ---- ------<br>--- ----- --- --- ------ -------- ----- --- ------ ----- --<br>----- ----- ---------- and --- ------ ------ ---- -- ------<br>------- --- ------ ----- --- ---- ------- -- ---- --- --<br>------- ------,191959,191945,191711.18,191711,191711.44,191959.58,,36,and
screen,html.Screen,2_1_1_1_37,2022-02-04T13:11:27.656Z,,,,,,,,,,,,,,,,,54,,,,,,,,,,,,,,267.4200000000128,,response,,,,100,,,,,,,Space,keypress(Space),,,,,,,,-- --- ---- --- ------ ----- ------- ---- -- --- ------- --<br>------- ---------- ------ -- ----- -- ----- -- ---- ------<br>--- ----- --- --- ------ -------- ----- --- ------ ----- --<br>----- ----- ---------- --- the ------ ------ ---- -- ------<br>------- --- ------ ----- --- ---- ------- -- ---- --- --<br>------- ------,192231,192227,191959.44,191960,191959.58,192232.1,,37,the
screen,html.Screen,2_1_1_1_38,2022-02-04T13:11:27.919Z,,,,,,,,,,,,,,,,,54,,,,,,,,,,,,,,259.8999999999942,,response,,,,100,,,,,,,Space,keypress(Space),,,,,,,,-- --- ---- --- ------ ----- ------- ---- -- --- ------- --<br>------- ---------- ------ -- ----- -- ----- -- ---- ------<br>--- ----- --- --- ------ -------- ----- --- ------ ----- --<br>----- ----- ---------- --- --- market ------ ---- -- ------<br>------- --- ------ ----- --- ---- ------- -- ---- --- --<br>------- ------,192495,192492,192231.84,192232,192232.1,192495.44,,38,market
screen,html.Screen,2_1_1_1_39,2022-02-04T13:11:28.201Z,,,,,,,,,,,,,,,,,54,,,,,,,,,,,,,,278.5599999999977,,response,,,,100,,,,,,,Space,keypress(Space),,,,,,,,-- --- ---- --- ------ ----- ------- ---- -- --- ------- --<br>------- ---------- ------ -- ----- -- ----- -- ---- ------<br>--- ----- --- --- ------ -------- ----- --- ------ ----- --<br>----- ----- ---------- --- --- ------ became ---- -- ------<br>------- --- ------ ----- --- ---- ------- -- ---- --- --<br>------- ------,192776,192774,192495.22,192495,192495.44,192778.26,,39,became
screen,html.Screen,2_1_1_1_40,2022-02-04T13:11:28.456Z,,,,,,,,,,,,,,,,,54,,,,,,,,,,,,,,245.7399999999907,,response,,,,100,,,,,,,Space,keypress(Space),,,,,,,,-- --- ---- --- ------ ----- ------- ---- -- --- ------- --<br>------- ---------- ------ -- ----- -- ----- -- ---- ------<br>--- ----- --- --- ------ -------- ----- --- ------ ----- --<br>----- ----- ---------- --- --- ------ ------ wary -- ------<br>------- --- ------ ----- --- ---- ------- -- ---- --- --<br>------- ------,193031,193024,192778.06,192778,192778.26,193032.08,,40,wary
screen,html.Screen,2_1_1_1_41,2022-02-04T13:11:28.736Z,,,,,,,,,,,,,,,,,54,,,,,,,,,,,,,,272.9200000000128,,response,,,,100,,,,,,,Space,keypress(Space),,,,,,,,-- --- ---- --- ------ ----- ------- ---- -- --- ------- --<br>------- ---------- ------ -- ----- -- ----- -- ---- ------<br>--- ----- --- --- ------ -------- ----- --- ------ ----- --<br>----- ----- ---------- --- --- ------ ------ ---- of ------<br>------- --- ------ ----- --- ---- ------- -- ---- --- --<br>------- ------,193311,193305,193031.82,193031,193032.08,193312.06,,41,of
screen,html.Screen,2_1_1_1_42,2022-02-04T13:11:28.992Z,,,,,,,,,,,,,,,,,54,,,,,,,,,,,,,,242.94000000000233,,response,,,,100,,,,,,,Space,keypress(Space),,,,,,,,-- --- ---- --- ------ ----- ------- ---- -- --- ------- --<br>------- ---------- ------ -- ----- -- ----- -- ---- ------<br>--- ----- --- --- ------ -------- ----- --- ------ ----- --<br>----- ----- ---------- --- --- ------ ------ ---- -- French<br>------- --- ------ ----- --- ---- ------- -- ---- --- --<br>------- ------,193568,193555,193311.8,193312,193312.06,193568.28,,42,French
screen,html.Screen,2_1_1_1_43,2022-02-04T13:11:29.271Z,,,,,,,,,,,,,,,,,54,,,,,,,,,,,,,,267.72000000000116,,response,,,,100,,,,,,,Space,keypress(Space),,,,,,,,-- --- ---- --- ------ ----- ------- ---- -- --- ------- --<br>------- ---------- ------ -- ----- -- ----- -- ---- ------<br>--- ----- --- --- ------ -------- ----- --- ------ ----- --<br>----- ----- ---------- --- --- ------ ------ ---- -- ------<br>credit. --- ------ ----- --- ---- ------- -- ---- --- --<br>------- ------,193847,193836,193568.04,193568,193568.28,193847.58,,43,credit.
screen,html.Screen,2_1_1_1_44,2022-02-04T13:11:29.536Z,,,,,,,,,,,,,,,,,54,,,,,,,,,,,,,,254.4200000000128,,response,,,,100,,,,,,,Space,keypress(Space),,,,,,,,-- --- ---- --- ------ ----- ------- ---- -- --- ------- --<br>------- ---------- ------ -- ----- -- ----- -- ---- ------<br>--- ----- --- --- ------ -------- ----- --- ------ ----- --<br>----- ----- ---------- --- --- ------ ------ ---- -- ------<br>------- The ------ ----- --- ---- ------- -- ---- --- --<br>------- ------,194111,194102,193847.38,193848,193847.58,194111.5,,44,The
screen,html.Screen,2_1_1_1_45,2022-02-04T13:11:29.807Z,,,,,,,,,,,,,,,,,54,,,,,,,,,,,,,,255.5,,response,,,,100,,,,,,,Space,keypress(Space),,,,,,,,-- --- ---- --- ------ ----- ------- ---- -- --- ------- --<br>------- ---------- ------ -- ----- -- ----- -- ---- ------<br>--- ----- --- --- ------ -------- ----- --- ------ ----- --<br>----- ----- ---------- --- --- ------ ------ ---- -- ------<br>------- --- French ----- --- ---- ------- -- ---- --- --<br>------- ------,194383,194367,194111.32,194111,194111.5,194383.74,,45,French
screen,html.Screen,2_1_1_1_46,2022-02-04T13:11:30.088Z,,,,,,,,,,,,,,,,,54,,,,,,,,,,,,,,265.2600000000093,,response,,,,100,,,,,,,Space,keypress(Space),,,,,,,,-- --- ---- --- ------ ----- ------- ---- -- --- ------- --<br>------- ---------- ------ -- ----- -- ----- -- ---- ------<br>--- ----- --- --- ------ -------- ----- --- ------ ----- --<br>----- ----- ---------- --- --- ------ ------ ---- -- ------<br>------- --- ------ state --- ---- ------- -- ---- --- --<br>------- ------,194664,194649,194383.52,194383,194383.74,194663.78,,46,state
screen,html.Screen,2_1_1_1_47,2022-02-04T13:11:30.424Z,,,,,,,,,,,,,,,,,54,,,,,,,,,,,,,,328.22000000000116,,response,,,,100,,,,,,,Space,keypress(Space),,,,,,,,-- --- ---- --- ------ ----- ------- ---- -- --- ------- --<br>------- ---------- ------ -- ----- -- ----- -- ---- ------<br>--- ----- --- --- ------ -------- ----- --- ------ ----- --<br>----- ----- ---------- --- --- ------ ------ ---- -- ------<br>------- --- ------ ----- was ---- ------- -- ---- --- --<br>------- ------,195000,194992,194663.62,194664,194663.78,195000.38,,47,was
screen,html.Screen,2_1_1_1_48,2022-02-04T13:11:30.760Z,,,,,,,,,,,,,,,,,54,,,,,,,,,,,,,,319.61999999999534,,response,,,,100,,,,,,,Space,keypress(Space),,,,,,,,-- --- ---- --- ------ ----- ------- ---- -- --- ------- --<br>------- ---------- ------ -- ----- -- ----- -- ---- ------<br>--- ----- --- --- ------ -------- ----- --- ------ ----- --<br>----- ----- ---------- --- --- ------ ------ ---- -- ------<br>------- --- ------ ----- --- left ------- -- ---- --- --<br>------- ------,195336,195320,195000.16,195000,195000.38,195335.98,,48,left
screen,html.Screen,2_1_1_1_49,2022-02-04T13:11:31.064Z,,,,,,,,,,,,,,,,,54,,,,,,,,,,,,,,297.0199999999895,,response,,,,100,,,,,,,Space,keypress(Space),,,,,,,,-- --- ---- --- ------ ----- ------- ---- -- --- ------- --<br>------- ---------- ------ -- ----- -- ----- -- ---- ------<br>--- ----- --- --- ------ -------- ----- --- ------ ----- --<br>----- ----- ---------- --- --- ------ ------ ---- -- ------<br>------- --- ------ ----- --- ---- without -- ---- --- --<br>------- ------,195639,195633,195335.78,195336,195335.98,195640.36,,49,without
screen,html.Screen,2_1_1_1_50,2022-02-04T13:11:31.256Z,,,,,,,,,,,,,,,,,54,,,,,,,,,,,,,,179.64000000001397,,response,,,,100,,,,,,,Space,keypress(Space),,,,,,,,-- --- ---- --- ------ ----- ------- ---- -- --- ------- --<br>------- ---------- ------ -- ----- -- ----- -- ---- ------<br>--- ----- --- --- ------ -------- ----- --- ------ ----- --<br>----- ----- ---------- --- --- ------ ------ ---- -- ------<br>------- --- ------ ----- --- ---- ------- an ---- --- --<br>------- ------,195831,195820,195640.14,195640,195640.36,195835.84,,50,an
screen,html.Screen,2_1_1_1_51,2022-02-04T13:11:31.536Z,,,,,,,,,,,,,,,,,54,,,,,,,,,,,,,,266.1600000000035,,response,,,,100,,,,,,,Space,keypress(Space),,,,,,,,-- --- ---- --- ------ ----- ------- ---- -- --- ------- --<br>------- ---------- ------ -- ----- -- ----- -- ---- ------<br>--- ----- --- --- ------ -------- ----- --- ------ ----- --<br>----- ----- ---------- --- --- ------ ------ ---- -- ------<br>------- --- ------ ----- --- ---- ------- -- easy --- --<br>------- ------,196111,196102,195831.1,195831,195835.84,196111.38,,51,easy
screen,html.Screen,2_1_1_1_52,2022-02-04T13:11:31.775Z,,,,,,,,,,,,,,,,,54,,,,,,,,,,,,,,224.61999999999534,,response,,,,100,,,,,,,Space,keypress(Space),,,,,,,,-- --- ---- --- ------ ----- ------- ---- -- --- ------- --<br>------- ---------- ------ -- ----- -- ----- -- ---- ------<br>--- ----- --- --- ------ -------- ----- --- ------ ----- --<br>----- ----- ---------- --- --- ------ ------ ---- -- ------<br>------- --- ------ ----- --- ---- ------- -- ---- way --<br>------- ------,196350,196336,196111.14,196112,196111.38,196351.32,,52,way
screen,html.Screen,2_1_1_1_53,2022-02-04T13:11:32.104Z,,,,,,,,,,,,,,,,,54,,,,,,,,,,,,,,312.679999999993,,response,,,,100,,,,,,,Space,keypress(Space),,,,,,,,-- --- ---- --- ------ ----- ------- ---- -- --- ------- --<br>------- ---------- ------ -- ----- -- ----- -- ---- ------<br>--- ----- --- --- ------ -------- ----- --- ------ ----- --<br>----- ----- ---------- --- --- ------ ------ ---- -- ------<br>------- --- ------ ----- --- ---- ------- -- ---- --- of<br>------- ------,196679,196664,196351.16,196352,196351.32,196679.72,,53,of
screen,html.Screen,2_1_1_1_54,2022-02-04T13:11:32.656Z,,,,,,,,,,,,,,,,,54,,,,,,,,,,,,,,547.2799999999988,,response,,,,100,,,,,,,Space,keypress(Space),,,,,,,,-- --- ---- --- ------ ----- ------- ---- -- --- ------- --<br>------- ---------- ------ -- ----- -- ----- -- ---- ------<br>--- ----- --- --- ------ -------- ----- --- ------ ----- --<br>----- ----- ---------- --- --- ------ ------ ---- -- ------<br>------- --- ------ ----- --- ---- ------- -- ---- --- --<br>raising ------,197231,197227,196679.46,196679,196679.72,197231.54,,54,raising
screen,html.Screen,2_1_1_1_55,2022-02-04T13:11:33.080Z,,,,,,,,,,,,,,,,,54,,,,,,,,,,,,,,417.45999999999185,,response,,,,100,,,,,,,Space,keypress(Space),,,,,,,,-- --- ---- --- ------ ----- ------- ---- -- --- ------- --<br>------- ---------- ------ -- ----- -- ----- -- ---- ------<br>--- ----- --- --- ------ -------- ----- --- ------ ----- --<br>----- ----- ---------- --- --- ------ ------ ---- -- ------<br>------- --- ------ ----- --- ---- ------- -- ---- --- --<br>------- money.,197655,197649,197231.3,197231,197231.54,197656.16,,55,money.
Item 100,flow.Loop,2_1_1_1,2022-02-04T13:11:33.080Z,,,,,,,,,,,,,,,,,,,,,,,,,,,,,,,16780,,completion,,,,,D,,,,,,,,,,,silence,,,,,197655,197649,180852.34,180853,180869,197656.16,,,
Question 1,html.Screen,2_1_1_2,2022-02-04T13:11:36.202Z,,,,,,,,,,,,,,,,,,,,,,,,,,,,true,TRUE,,3117.8399999999965,,response,,,,100,D,,,,,,TRUE,click #choice-1,,,,silence,,,,,200778,200774,197655.94,197656,197656.16,200785.94,,,
Question 2,html.Screen,2_1_1_3,2022-02-04T13:11:38.913Z,,,,,,,,,,,,,,,,,,,,,,,,,,,,true,FALSE,,2691.0599999999977,,response,,,,100,D,,,,,,FALSE,click #choice-2,,,,silence,,,,,203489,203477,200776.46,200778,200785.94,203502.72,,,
Item 100,flow.Sequence,2_1_1,2022-02-04T13:11:38.913Z,,,,,,,,,,,,,,,,,,,,,,,,,,,,,,,32608.22,,completion,,,,,,,,,,,,,,,,,,,,,203489,203477,170856.32,170857,170868.78,203502.72,,,
End of Practice,html.Page,2_1_2,2022-02-04T13:11:43.340Z,,,,,,,,,,,,,,,,,,,,,,,,,,,,,,,4411.279999999999,,form submission,,,,,,,,,,,,,,,,,,,,,207916,207914,203488.36,203489,203502.72,207919.44,,,
Practice,flow.Sequence,2_1,2022-02-04T13:11:43.341Z,,,,,,,,,,,,,,,,,,,,,,,,,,,,,,,77295.88,,completion,,,,,,,,,,,,,,,,,,,,,207916,207914,130600.7,130604,130618.12,207919.44,,,
Trap_instruction,html.Page,2_2_0,2022-02-04T13:11:48.931Z,,,,,,,,,,,,,,,,,,,,,,,,,,,,,,,5586.559999999998,,form submission,,,,,,,,,,,,,,,,,,,,,213506,213506,207912.02,207916,207919.44,213519.54,,,
trap_trial,html.Screen,2_2_1,2022-02-04T13:11:52.073Z,,,,,,,,,,,,,,,,,,,,,,,,,,,,true,1,,3113.459999999992,,response,,,,,,,,,,,1,click #choice-1,,,,,,,,,216649,216633,213504,213507,213519.54,216652.86,,,
end of trap trial,html.Page,2_2_2,2022-02-04T13:11:54.892Z,,,,,,,,,,,,,,,,,,,,,,,,,,,,,,,2814.140000000014,,form submission,,,,,,,,,,,,,,,,,,,,,219467,219467,216647.92,216649,216652.86,219469.54,,,
Trap 1,flow.Sequence,2_2,2022-02-04T13:11:54.892Z,,,,,,,,,,,,,,,,,,,,,,,,,,,,,,,11547.559999999998,,completion,,,,,,,,,,,,,,,,,,,,,219467,219467,207912.02,207916,207919.44,219469.54,,,
Standby,html.Page,2_3_0,2022-02-04T13:12:02.878Z,,,,,,,,,,,,,,,,,,,,,,,,,,,,,,,8000.179999999993,,timeout,,,,,,,,,,,,,,,,,,,,,227454,227453.04,219464.18,219467,219469.54,227469.72,,,
Holding screen,html.Screen,2_3_1_0_0,2022-02-04T13:12:09.878Z,,,,,,,,,,,,,,,,,,,,,,,,,,,,,,,7000.119999999995,,timeout,,,,,,,,,,,,,,,,,,,,,234454,234453.16,227453.04,227455,227469.72,234469.84,,,
screen,html.Screen,2_3_1_0_1_0,2022-02-04T13:12:10.833Z,,,,,,,,,,,,,,,,,11,,,,,,,,,,,,,,929.1600000000035,,response,,,,4,D,,,,,,Space,keypress(Space),,,,silence,,,,Known -- ---- --- -- --- -------- ------------ ---------- --<br>- ------- ------ --------- -- ------------ -- --- ---- -----<br>------ ---- ---- ------ ------ ------- --- ----- ---------<br>---- --- -------- -------- --- --- -- ------- --- --- -----<br>-- --- ------ ------- --- --- -------- ---- --------- --<br>---------- -- -------- ----------------,235408,235399,234453.16,234454,234469.84,235408.86,,0,Known
screen,html.Screen,2_3_1_0_1_1,2022-02-04T13:12:11.199Z,,,,,,,,,,,,,,,,,11,,,,,,,,,,,,,,349.14000000001397,,response,,,,4,D,,,,,,Space,keypress(Space),,,,silence,,,,----- as ---- --- -- --- -------- ------------ ---------- --<br>- ------- ------ --------- -- ------------ -- --- ---- -----<br>------ ---- ---- ------ ------ ------- --- ----- ---------<br>---- --- -------- -------- --- --- -- ------- --- --- -----<br>-- --- ------ ------- --- --- -------- ---- --------- --<br>---------- -- -------- ----------------,235775,235758,235408.5,235409,235408.86,235775.2,,1,as
screen,html.Screen,2_3_1_0_1_2,2022-02-04T13:12:11.567Z,,,,,,,,,,,,,,,,,11,,,,,,,,,,,,,,357.79999999998836,,response,,,,4,D,,,,,,Space,keypress(Space),,,,silence,,,,----- -- Rapa --- -- --- -------- ------------ ---------- --<br>- ------- ------ --------- -- ------------ -- --- ---- -----<br>------ ---- ---- ------ ------ ------- --- ----- ---------<br>---- --- -------- -------- --- --- -- ------- --- --- -----<br>-- --- ------ ------- --- --- -------- ---- --------- --<br>---------- -- -------- ----------------,236143,236133,235775,235775,235775.2,236143.06,,2,Rapa
screen,html.Screen,2_3_1_0_1_3,2022-02-04T13:12:12.031Z,,,,,,,,,,,,,,,,,11,,,,,,,,,,,,,,458.9400000000023,,response,,,,4,D,,,,,,Space,keypress(Space),,,,silence,,,,----- -- ---- Nui -- --- -------- ------------ ---------- --<br>- ------- ------ --------- -- ------------ -- --- ---- -----<br>------ ---- ---- ------ ------ ------- --- ----- ---------<br>---- --- -------- -------- --- --- -- ------- --- --- -----<br>-- --- ------ ------- --- --- -------- ---- --------- --<br>---------- -- -------- ----------------,236606,236602,236142.84,236143,236143.06,236606.76,,3,Nui
screen,html.Screen,2_3_1_0_1_4,2022-02-04T13:12:12.584Z,,,,,,,,,,,,,,,,,11,,,,,,,,,,,,,,542.2399999999907,,response,,,,4,D,,,,,,Space,keypress(Space),,,,silence,,,,----- -- ---- --- to --- -------- ------------ ---------- --<br>- ------- ------ --------- -- ------------ -- --- ---- -----<br>------ ---- ---- ------ ------ ------- --- ----- ---------<br>---- --- -------- -------- --- --- -- ------- --- --- -----<br>-- --- ------ ------- --- --- -------- ---- --------- --<br>---------- -- -------- ----------------,237159,237149,236606.58,236606,236606.76,237159.22,,4,to
screen,html.Screen,2_3_1_0_1_5,2022-02-04T13:12:13.039Z,,,,,,,,,,,,,,,,,11,,,,,,,,,,,,,,442.77999999999884,,response,,,,4,D,,,,,,Space,keypress(Space),,,,silence,,,,----- -- ---- --- -- the -------- ------------ ---------- --<br>- ------- ------ --------- -- ------------ -- --- ---- -----<br>------ ---- ---- ------ ------ ------- --- ----- ---------<br>---- --- -------- -------- --- --- -- ------- --- --- -----<br>-- --- ------ ------- --- --- -------- ---- --------- --<br>---------- -- -------- ----------------,237614,237602,237159.08,237159,237159.22,237615.18,,5,the
screen,html.Screen,2_3_1_0_1_6,2022-02-04T13:12:13.655Z,,,,,,,,,,,,,,,,,11,,,,,,,,,,,,,,611.820000000007,,response,,,,4,D,,,,,,Space,keypress(Space),,,,silence,,,,----- -- ---- --- -- --- island's ------------ ---------- --<br>- ------- ------ --------- -- ------------ -- --- ---- -----<br>------ ---- ---- ------ ------ ------- --- ----- ---------<br>---- --- -------- -------- --- --- -- ------- --- --- -----<br>-- --- ------ ------- --- --- -------- ---- --------- --<br>---------- -- -------- ----------------,238231,238227,237614.94,237615,237615.18,238231.12,,6,island's
screen,html.Screen,2_3_1_0_1_7,2022-02-04T13:12:14.303Z,,,,,,,,,,,,,,,,,11,,,,,,,,,,,,,,635.8800000000047,,response,,,,4,D,,,,,,Space,keypress(Space),,,,silence,,,,"----- -- ---- --- -- --- -------- inhabitants, ---------- --<br>- ------- ------ --------- -- ------------ -- --- ---- -----<br>------ ---- ---- ------ ------ ------- --- ----- ---------<br>---- --- -------- -------- --- --- -- ------- --- --- -----<br>-- --- ------ ------- --- --- -------- ---- --------- --<br>---------- -- -------- ----------------",238878,238867,238230.88,238231,238231.12,238878.86,,7,"inhabitants,"
screen,html.Screen,2_3_1_0_1_8,2022-02-04T13:12:15.831Z,,,,,,,,,,,,,,,,,11,,,,,,,,,,,,,,1520.140000000014,,response,,,,4,D,,,,,,Space,keypress(Space),,,,silence,,,,----- -- ---- --- -- --- -------- ------------ Rongorongo --<br>- ------- ------ --------- -- ------------ -- --- ---- -----<br>------ ---- ---- ------ ------ ------- --- ----- ---------<br>---- --- -------- -------- --- --- -- ------- --- --- -----<br>-- --- ------ ------- --- --- -------- ---- --------- --<br>---------- -- -------- ----------------,240406,240399,238878.74,238878,238878.86,240406.82,,8,Rongorongo
screen,html.Screen,2_3_1_0_1_9,2022-02-04T13:12:16.887Z,,,,,,,,,,,,,,,,,11,,,,,,,,,,,,,,1038.179999999993,,response,,,,4,D,,,,,,Space,keypress(Space),,,,silence,,,,----- -- ---- --- -- --- -------- ------------ ---------- is<br>- ------- ------ --------- -- ------------ -- --- ---- -----<br>------ ---- ---- ------ ------ ------- --- ----- ---------<br>---- --- -------- -------- --- --- -- ------- --- --- -----<br>-- --- ------ ------- --- --- -------- ---- --------- --<br>---------- -- -------- ----------------,241462,241445,240406.56,240407,240406.82,241463.06,,9,is
screen,html.Screen,2_3_1_0_1_10,2022-02-04T13:12:17.471Z,,,,,,,,,,,,,,,,,11,,,,,,,,,,,,,,575.9400000000023,,response,,,,4,D,,,,,,Space,keypress(Space),,,,silence,,,,----- -- ---- --- -- --- -------- ------------ ---------- --<br>a ------- ------ --------- -- ------------ -- --- ---- -----<br>------ ---- ---- ------ ------ ------- --- ----- ---------<br>---- --- -------- -------- --- --- -- ------- --- --- -----<br>-- --- ------ ------- --- --- -------- ---- --------- --<br>---------- -- -------- ----------------,242046,242039,241462.84,241463,241463.06,242047.02,,10,a
screen,html.Screen,2_3_1_0_1_11,2022-02-04T13:12:18.247Z,,,,,,,,,,,,,,,,,11,,,,,,,,,,,,,,772.9800000000105,,response,,,,4,D,,,,,,Space,keypress(Space),,,,silence,,,,----- -- ---- --- -- --- -------- ------------ ---------- --<br>- writing ------ --------- -- ------------ -- --- ---- -----<br>------ ---- ---- ------ ------ ------- --- ----- ---------<br>---- --- -------- -------- --- --- -- ------- --- --- -----<br>-- --- ------ ------- --- --- -------- ---- --------- --<br>---------- -- -------- ----------------,242823,242820,242046.84,242047,242047.02,242823.12,,11,writing
screen,html.Screen,2_3_1_0_1_12,2022-02-04T13:12:19.007Z,,,,,,,,,,,,,,,,,11,,,,,,,,,,,,,,746.8800000000047,,response,,,,4,D,,,,,,Space,keypress(Space),,,,silence,,,,----- -- ---- --- -- --- -------- ------------ ---------- --<br>- ------- system --------- -- ------------ -- --- ---- -----<br>------ ---- ---- ------ ------ ------- --- ----- ---------<br>---- --- -------- -------- --- --- -- ------- --- --- -----<br>-- --- ------ ------- --- --- -------- ---- --------- --<br>---------- -- -------- ----------------,243583,243570,242822.94,242823,242823.12,243583.24,,12,system
screen,html.Screen,2_3_1_0_1_13,2022-02-04T13:12:19.967Z,,,,,,,,,,,,,,,,,11,,,,,,,,,,,,,,955.7600000000093,,response,,,,4,D,,,,,,Space,keypress(Space),,,,silence,,,,----- -- ---- --- -- --- -------- ------------ ---------- --<br>- ------- ------ comprised -- ------------ -- --- ---- -----<br>------ ---- ---- ------ ------ ------- --- ----- ---------<br>---- --- -------- -------- --- --- -- ------- --- --- -----<br>-- --- ------ ------- --- --- -------- ---- --------- --<br>---------- -- -------- ----------------,244543,244539,243582.98,243583,243583.24,244557.94,,13,comprised
screen,html.Screen,2_3_1_0_1_14,2022-02-04T13:12:20.575Z,,,,,,,,,,,,,,,,,11,,,,,,,,,,,,,,591.0599999999977,,response,,,,4,D,,,,,,Space,keypress(Space),,,,silence,,,,----- -- ---- --- -- --- -------- ------------ ---------- --<br>- ------- ------ --------- of ------------ -- --- ---- -----<br>------ ---- ---- ------ ------ ------- --- ----- ---------<br>---- --- -------- -------- --- --- -- ------- --- --- -----<br>-- --- ------ ------- --- --- -------- ---- --------- --<br>---------- -- -------- ----------------,245150,245149,244542.96,244543,244557.94,245151.04,,14,of
screen,html.Screen,2_3_1_0_1_15,2022-02-04T13:12:21.615Z,,,,,,,,,,,,,,,,,11,,,,,,,,,,,,,,1028.9599999999919,,response,,,,4,D,,,,,,Space,keypress(Space),,,,silence,,,,----- -- ---- --- -- --- -------- ------------ ---------- --<br>- ------- ------ --------- -- pictographs. -- --- ---- -----<br>------ ---- ---- ------ ------ ------- --- ----- ---------<br>---- --- -------- -------- --- --- -- ------- --- --- -----<br>-- --- ------ ------- --- --- -------- ---- --------- --<br>---------- -- -------- ----------------,246191,246180,245150.8,245151,245151.04,246190.82,,15,pictographs.
screen,html.Screen,2_3_1_0_1_16,2022-02-04T13:12:22.239Z,,,,,,,,,,,,,,,,,11,,,,,,,,,,,,,,614.179999999993,,response,,,,4,D,,,,,,Space,keypress(Space),,,,silence,,,,----- -- ---- --- -- --- -------- ------------ ---------- --<br>- ------- ------ --------- -- ------------ It --- ---- -----<br>------ ---- ---- ------ ------ ------- --- ----- ---------<br>---- --- -------- -------- --- --- -- ------- --- --- -----<br>-- --- ------ ------- --- --- -------- ---- --------- --<br>---------- -- -------- ----------------,246815,246805,246190.58,246191,246190.82,246815.26,,16,It
screen,html.Screen,2_3_1_0_1_17,2022-02-04T13:12:22.751Z,,,,,,,,,,,,,,,,,11,,,,,,,,,,,,,,504.7399999999907,,response,,,,4,D,,,,,,Space,keypress(Space),,,,silence,,,,----- -- ---- --- -- --- -------- ------------ ---------- --<br>- ------- ------ --------- -- ------------ -- has ---- -----<br>------ ---- ---- ------ ------ ------- --- ----- ---------<br>---- --- -------- -------- --- --- -- ------- --- --- -----<br>-- --- ------ ------- --- --- -------- ---- --------- --<br>---------- -- -------- ----------------,247326,247320,246815.02,246815,246815.26,247327.04,,17,has
screen,html.Screen,2_3_1_0_1_18,2022-02-04T13:12:23.246Z,,,,,,,,,,,,,,,,,11,,,,,,,,,,,,,,492.95999999999185,,response,,,,4,D,,,,,,Space,keypress(Space),,,,silence,,,,----- -- ---- --- -- --- -------- ------------ ---------- --<br>- ------- ------ --------- -- ------------ -- --- been -----<br>------ ---- ---- ------ ------ ------- --- ----- ---------<br>---- --- -------- -------- --- --- -- ------- --- --- -----<br>-- --- ------ ------- --- --- -------- ---- --------- --<br>---------- -- -------- ----------------,247822,247820,247326.82,247327,247327.04,247822.66,,18,been
screen,html.Screen,2_3_1_0_1_19,2022-02-04T13:12:23.782Z,,,,,,,,,,,,,,,,,11,,,,,,,,,,,,,,529.3399999999965,,response,,,,4,D,,,,,,Space,keypress(Space),,,,silence,,,,----- -- ---- --- -- --- -------- ------------ ---------- --<br>- ------- ------ --------- -- ------------ -- --- ---- found<br>------ ---- ---- ------ ------ ------- --- ----- ---------<br>---- --- -------- -------- --- --- -- ------- --- --- -----<br>-- --- ------ ------- --- --- -------- ---- --------- --<br>---------- -- -------- ----------------,248358,248352,247822.52,247822,247822.66,248358.7,,19,found
screen,html.Screen,2_3_1_0_1_20,2022-02-04T13:12:24.406Z,,,,,,,,,,,,,,,,,11,,,,,,,,,,,,,,618.2999999999884,,response,,,,4,D,,,,,,Space,keypress(Space),,,,silence,,,,----- -- ---- --- -- --- -------- ------------ ---------- --<br>- ------- ------ --------- -- ------------ -- --- ---- -----<br>carved ---- ---- ------ ------ ------- --- ----- ---------<br>---- --- -------- -------- --- --- -- ------- --- --- -----<br>-- --- ------ ------- --- --- -------- ---- --------- --<br>---------- -- -------- ----------------,248982,248977,248358.54,248359,248358.7,248982.4,,20,carved
screen,html.Screen,2_3_1_0_1_21,2022-02-04T13:12:25.127Z,,,,,,,,,,,,,,,,,11,,,,,,,,,,,,,,712.6000000000058,,response,,,,4,D,,,,,,Space,keypress(Space),,,,silence,,,,----- -- ---- --- -- --- -------- ------------ ---------- --<br>- ------- ------ --------- -- ------------ -- --- ---- -----<br>------ into ---- ------ ------ ------- --- ----- ---------<br>---- --- -------- -------- --- --- -- ------- --- --- -----<br>-- --- ------ ------- --- --- -------- ---- --------- --<br>---------- -- -------- ----------------,249703,249695,248982.3,248982,248982.4,249702.86,,21,into
screen,html.Screen,2_3_1_0_1_22,2022-02-04T13:12:25.782Z,,,,,,,,,,,,,,,,,11,,,,,,,,,,,,,,649.140000000014,,response,,,,4,D,,,,,,Space,keypress(Space),,,,silence,,,,----- -- ---- --- -- --- -------- ------------ ---------- --<br>- ------- ------ --------- -- ------------ -- --- ---- -----<br>------ ---- many ------ ------ ------- --- ----- ---------<br>---- --- -------- -------- --- --- -- ------- --- --- -----<br>-- --- ------ ------- --- --- -------- ---- --------- --<br>---------- -- -------- ----------------,250359,250352,249702.7,249703,249702.86,250358.66,,22,many
screen,html.Screen,2_3_1_0_1_23,2022-02-04T13:12:26.519Z,,,,,,,,,,,,,,,,,11,,,,,,,,,,,,,,727.3399999999965,,response,,,,4,D,,,,,,Space,keypress(Space),,,,silence,,,,----- -- ---- --- -- --- -------- ------------ ---------- --<br>- ------- ------ --------- -- ------------ -- --- ---- -----<br>------ ---- ---- oblong ------ ------- --- ----- ---------<br>---- --- -------- -------- --- --- -- ------- --- --- -----<br>-- --- ------ ------- --- --- -------- ---- --------- --<br>---------- -- -------- ----------------,251095,251086,250358.42,250359,250358.66,251095.12,,23,oblong
screen,html.Screen,2_3_1_0_1_24,2022-02-04T13:12:27.110Z,,,,,,,,,,,,,,,,,11,,,,,,,,,,,,,,584.8800000000047,,response,,,,4,D,,,,,,Space,keypress(Space),,,,silence,,,,----- -- ---- --- -- --- -------- ------------ ---------- --<br>- ------- ------ --------- -- ------------ -- --- ---- -----<br>------ ---- ---- ------ wooden ------- --- ----- ---------<br>---- --- -------- -------- --- --- -- ------- --- --- -----<br>-- --- ------ ------- --- --- -------- ---- --------- --<br>---------- -- -------- ----------------,251686,251680,251094.86,251095,251095.12,251686.82,,24,wooden
screen,html.Screen,2_3_1_0_1_25,2022-02-04T13:12:29.224Z,,,,,,,,,,,,,,,,,11,,,,,,,,,,,,,,2102.179999999993,,response,,,,4,D,,,,,,Space,keypress(Space),,,,silence,,,,----- -- ---- --- -- --- -------- ------------ ---------- --<br>- ------- ------ --------- -- ------------ -- --- ---- -----<br>------ ---- ---- ------ ------ tablets --- ----- ---------<br>---- --- -------- -------- --- --- -- ------- --- --- -----<br>-- --- ------ ------- --- --- -------- ---- --------- --<br>---------- -- -------- ----------------,253800,253789,251686.5,251687,251686.82,253801.36,,25,tablets
screen,html.Screen,2_3_1_0_1_26,2022-02-04T13:12:29.800Z,,,,,,,,,,,,,,,,,11,,,,,,,,,,,,,,565.640000000014,,response,,,,4,D,,,,,,Space,keypress(Space),,,,silence,,,,----- -- ---- --- -- --- -------- ------------ ---------- --<br>- ------- ------ --------- -- ------------ -- --- ---- -----<br>------ ---- ---- ------ ------ ------- and ----- ---------<br>---- --- -------- -------- --- --- -- ------- --- --- -----<br>-- --- ------ ------- --- --- -------- ---- --------- --<br>---------- -- -------- ----------------,254376,254367,253801.08,253801,253801.36,254375.76,,26,and
screen,html.Screen,2_3_1_0_1_27,2022-02-04T13:12:30.208Z,,,,,,,,,,,,,,,,,11,,,,,,,,,,,,,,398.2399999999907,,response,,,,4,D,,,,,,Space,keypress(Space),,,,silence,,,,----- -- ---- --- -- --- -------- ------------ ---------- --<br>- ------- ------ --------- -- ------------ -- --- ---- -----<br>------ ---- ---- ------ ------ ------- --- other ---------<br>---- --- -------- -------- --- --- -- ------- --- --- -----<br>-- --- ------ ------- --- --- -------- ---- --------- --<br>---------- -- -------- ----------------,254783,254774,254375.54,254376,254375.76,254783.38,,27,other
screen,html.Screen,2_3_1_0_1_28,2022-02-04T13:12:30.687Z,,,,,,,,,,,,,,,,,11,,,,,,,,,,,,,,474.61999999999534,,response,,,,4,D,,,,,,Space,keypress(Space),,,,silence,,,,----- -- ---- --- -- --- -------- ------------ ---------- --<br>- ------- ------ --------- -- ------------ -- --- ---- -----<br>------ ---- ---- ------ ------ ------- --- ----- artifacts<br>---- --- -------- -------- --- --- -- ------- --- --- -----<br>-- --- ------ ------- --- --- -------- ---- --------- --<br>---------- -- -------- ----------------,255262,255258,254783.14,254783,254783.38,255263.62,,28,artifacts
screen,html.Screen,2_3_1_0_1_29,2022-02-04T13:12:31.191Z,,,,,,,,,,,,,,,,,11,,,,,,,,,,,,,,494.38000000000466,,response,,,,4,D,,,,,,Space,keypress(Space),,,,silence,,,,----- -- ---- --- -- --- -------- ------------ ---------- --<br>- ------- ------ --------- -- ------------ -- --- ---- -----<br>------ ---- ---- ------ ------ ------- --- ----- ---------<br>from --- -------- -------- --- --- -- ------- --- --- -----<br>-- --- ------ ------- --- --- -------- ---- --------- --<br>---------- -- -------- ----------------,255767,255758,255263.34,255263,255263.62,255767.32,,29,from
screen,html.Screen,2_3_1_0_1_30,2022-02-04T13:12:31.703Z,,,,,,,,,,,,,,,,,11,,,,,,,,,,,,,,506.679999999993,,response,,,,4,D,,,,,,Space,keypress(Space),,,,silence,,,,----- -- ---- --- -- --- -------- ------------ ---------- --<br>- ------- ------ --------- -- ------------ -- --- ---- -----<br>------ ---- ---- ------ ------ ------- --- ----- ---------<br>---- the -------- -------- --- --- -- ------- --- --- -----<br>-- --- ------ ------- --- --- -------- ---- --------- --<br>---------- -- -------- ----------------,256278,256274,255767.06,255767,255767.32,256279,,30,the
screen,html.Screen,2_3_1_0_1_31,2022-02-04T13:12:32.263Z,,,,,,,,,,,,,,,,,11,,,,,,,,,,,,,,557,,response,,,,4,D,,,,,,Space,keypress(Space),,,,silence,,,,----- -- ---- --- -- --- -------- ------------ ---------- --<br>- ------- ------ --------- -- ------------ -- --- ---- -----<br>------ ---- ---- ------ ------ ------- --- ----- ---------<br>---- --- island's -------- --- --- -- ------- --- --- -----<br>-- --- ------ ------- --- --- -------- ---- --------- --<br>---------- -- -------- ----------------,256838,256836,256278.76,256278,256279,256839.2,,31,island's
screen,html.Screen,2_3_1_0_1_32,2022-02-04T13:12:36.223Z,,,,,,,,,,,,,,,,,11,,,,,,,,,,,,,,3949.7999999999884,,response,,,,4,D,,,,,,Space,keypress(Space),,,,silence,,,,----- -- ---- --- -- --- -------- ------------ ---------- --<br>- ------- ------ --------- -- ------------ -- --- ---- -----<br>------ ---- ---- ------ ------ ------- --- ----- ---------<br>---- --- -------- history. --- --- -- ------- --- --- -----<br>-- --- ------ ------- --- --- -------- ---- --------- --<br>---------- -- -------- ----------------,260798,260789,256838.96,256839,256839.2,260798.98,,32,history.
screen,html.Screen,2_3_1_0_1_33,2022-02-04T13:12:37.015Z,,,,,,,,,,,,,,,,,11,,,,,,,,,,,,,,787.0199999999895,,response,,,,4,D,,,,,,Space,keypress(Space),,,,silence,,,,----- -- ---- --- -- --- -------- ------------ ---------- --<br>- ------- ------ --------- -- ------------ -- --- ---- -----<br>------ ---- ---- ------ ------ ------- --- ----- ---------<br>---- --- -------- -------- The --- -- ------- --- --- -----<br>-- --- ------ ------- --- --- -------- ---- --------- --<br>---------- -- -------- ----------------,261591,261586,260798.86,260798,260798.98,261591.38,,33,The
screen,html.Screen,2_3_1_0_1_34,2022-02-04T13:12:37.663Z,,,,,,,,,,,,,,,,,11,,,,,,,,,,,,,,635.6199999999953,,response,,,,4,D,,,,,,Space,keypress(Space),,,,silence,,,,----- -- ---- --- -- --- -------- ------------ ---------- --<br>- ------- ------ --------- -- ------------ -- --- ---- -----<br>------ ---- ---- ------ ------ ------- --- ----- ---------<br>---- --- -------- -------- --- art -- ------- --- --- -----<br>-- --- ------ ------- --- --- -------- ---- --------- --<br>---------- -- -------- ----------------,262238,262227,261591.2,261591,261591.38,262239.04,,34,art
screen,html.Screen,2_3_1_0_1_35,2022-02-04T13:12:39.064Z,,,,,,,,,,,,,,,,,11,,,,,,,,,,,,,,1393.960000000021,,response,,,,4,D,,,,,,Space,keypress(Space),,,,silence,,,,----- -- ---- --- -- --- -------- ------------ ---------- --<br>- ------- ------ --------- -- ------------ -- --- ---- -----<br>------ ---- ---- ------ ------ ------- --- ----- ---------<br>---- --- -------- -------- --- --- of ------- --- --- -----<br>-- --- ------ ------- --- --- -------- ---- --------- --<br>---------- -- -------- ----------------,263639,263633,262238.82,262239,262239.04,263639.86,,35,of
screen,html.Screen,2_3_1_0_1_36,2022-02-04T13:12:39.670Z,,,,,,,,,,,,,,,,,11,,,,,,,,,,,,,,602.140000000014,,response,,,,4,D,,,,,,Space,keypress(Space),,,,silence,,,,----- -- ---- --- -- --- -------- ------------ ---------- --<br>- ------- ------ --------- -- ------------ -- --- ---- -----<br>------ ---- ---- ------ ------ ------- --- ----- ---------<br>---- --- -------- -------- --- --- -- writing --- --- -----<br>-- --- ------ ------- --- --- -------- ---- --------- --<br>---------- -- -------- ----------------,264247,264242,263639.56,263640,263639.86,264246.9,,36,writing
screen,html.Screen,2_3_1_0_1_37,2022-02-04T13:12:40.319Z,,,,,,,,,,,,,,,,,11,,,,,,,,,,,,,,636.0999999999767,,response,,,,4,D,,,,,,Space,keypress(Space),,,,silence,,,,----- -- ---- --- -- --- -------- ------------ ---------- --<br>- ------- ------ --------- -- ------------ -- --- ---- -----<br>------ ---- ---- ------ ------ ------- --- ----- ---------<br>---- --- -------- -------- --- --- -- ------- was --- -----<br>-- --- ------ ------- --- --- -------- ---- --------- --<br>---------- -- -------- ----------------,264895,264883,264246.68,264247,264246.9,264894.98,,37,was
screen,html.Screen,2_3_1_0_1_38,2022-02-04T13:12:40.896Z,,,,,,,,,,,,,,,,,11,,,,,,,,,,,,,,566.0200000000186,,response,,,,4,D,,,,,,Space,keypress(Space),,,,silence,,,,----- -- ---- --- -- --- -------- ------------ ---------- --<br>- ------- ------ --------- -- ------------ -- --- ---- -----<br>------ ---- ---- ------ ------ ------- --- ----- ---------<br>---- --- -------- -------- --- --- -- ------- --- not -----<br>-- --- ------ ------- --- --- -------- ---- --------- --<br>---------- -- -------- ----------------,265471,265461,264894.8,264895,264894.98,265472.16,,38,not
screen,html.Screen,2_3_1_0_1_39,2022-02-04T13:12:41.521Z,,,,,,,,,,,,,,,,,11,,,,,,,,,,,,,,613.8400000000256,,response,,,,4,D,,,,,,Space,keypress(Space),,,,silence,,,,----- -- ---- --- -- --- -------- ------------ ---------- --<br>- ------- ------ --------- -- ------------ -- --- ---- -----<br>------ ---- ---- ------ ------ ------- --- ----- ---------<br>---- --- -------- -------- --- --- -- ------- --- --- known<br>-- --- ------ ------- --- --- -------- ---- --------- --<br>---------- -- -------- ----------------,266096,266086,265471.86,265471,265472.16,266096.48,,39,known
screen,html.Screen,2_3_1_0_1_40,2022-02-04T13:12:41.991Z,,,,,,,,,,,,,,,,,11,,,,,,,,,,,,,,458.5200000000186,,response,,,,4,D,,,,,,Space,keypress(Space),,,,silence,,,,----- -- ---- --- -- --- -------- ------------ ---------- --<br>- ------- ------ --------- -- ------------ -- --- ---- -----<br>------ ---- ---- ------ ------ ------- --- ----- ---------<br>---- --- -------- -------- --- --- -- ------- --- --- -----<br>in --- ------ ------- --- --- -------- ---- --------- --<br>---------- -- -------- ----------------,266567,266555,266096.18,266096,266096.48,266566.94,,40,in
screen,html.Screen,2_3_1_0_1_41,2022-02-04T13:12:42.511Z,,,,,,,,,,,,,,,,,11,,,,,,,,,,,,,,503.0599999999977,,response,,,,4,D,,,,,,Space,keypress(Space),,,,silence,,,,----- -- ---- --- -- --- -------- ------------ ---------- --<br>- ------- ------ --------- -- ------------ -- --- ---- -----<br>------ ---- ---- ------ ------ ------- --- ----- ---------<br>---- --- -------- -------- --- --- -- ------- --- --- -----<br>-- any ------ ------- --- --- -------- ---- --------- --<br>---------- -- -------- ----------------,267088,267070,266566.68,266567,266566.94,267088.14,,41,any
screen,html.Screen,2_3_1_0_1_42,2022-02-04T13:12:43.000Z,,,,,,,,,,,,,,,,,11,,,,,,,,,,,,,,481.85999999998603,,response,,,,4,D,,,,,,Space,keypress(Space),,,,silence,,,,----- -- ---- --- -- --- -------- ------------ ---------- --<br>- ------- ------ --------- -- ------------ -- --- ---- -----<br>------ ---- ---- ------ ------ ------- --- ----- ---------<br>---- --- -------- -------- --- --- -- ------- --- --- -----<br>-- --- nearby ------- --- --- -------- ---- --------- --<br>---------- -- -------- ----------------,267576,267570,267087.8,267088,267088.14,267576.42,,42,nearby
screen,html.Screen,2_3_1_0_1_43,2022-02-04T13:12:43.471Z,,,,,,,,,,,,,,,,,11,,,,,,,,,,,,,,462.5800000000163,,response,,,,4,D,,,,,,Space,keypress(Space),,,,silence,,,,----- -- ---- --- -- --- -------- ------------ ---------- --<br>- ------- ------ --------- -- ------------ -- --- ---- -----<br>------ ---- ---- ------ ------ ------- --- ----- ---------<br>---- --- -------- -------- --- --- -- ------- --- --- -----<br>-- --- ------ islands --- --- -------- ---- --------- --<br>---------- -- -------- ----------------,268047,268039,267576.04,267576,267576.42,268046.64,,43,islands
screen,html.Screen,2_3_1_0_1_44,2022-02-04T13:12:43.937Z,,,,,,,,,,,,,,,,,11,,,,,,,,,,,,,,461.35999999998603,,response,,,,4,D,,,,,,Space,keypress(Space),,,,silence,,,,----- -- ---- --- -- --- -------- ------------ ---------- --<br>- ------- ------ --------- -- ------------ -- --- ---- -----<br>------ ---- ---- ------ ------ ------- --- ----- ---------<br>---- --- -------- -------- --- --- -- ------- --- --- -----<br>-- --- ------ ------- and --- -------- ---- --------- --<br>---------- -- -------- ----------------,268513,268508,268046.46,268047,268046.64,268513.84,,44,and
screen,html.Screen,2_3_1_0_1_45,2022-02-04T13:12:44.408Z,,,,,,,,,,,,,,,,,11,,,,,,,,,,,,,,463.1599999999744,,response,,,,4,D,,,,,,Space,keypress(Space),,,,silence,,,,----- -- ---- --- -- --- -------- ------------ ---------- --<br>- ------- ------ --------- -- ------------ -- --- ---- -----<br>------ ---- ---- ------ ------ ------- --- ----- ---------<br>---- --- -------- -------- --- --- -- ------- --- --- -----<br>-- --- ------ ------- --- the -------- ---- --------- --<br>---------- -- -------- ----------------,268984,268977,268513.46,268513,268513.84,268984.34,,45,the
screen,html.Screen,2_3_1_0_1_46,2022-02-04T13:12:44.928Z,,,,,,,,,,,,,,,,,11,,,,,,,,,,,,,,507.6599999999744,,response,,,,4,D,,,,,,Space,keypress(Space),,,,silence,,,,----- -- ---- --- -- --- -------- ------------ ---------- --<br>- ------- ------ --------- -- ------------ -- --- ---- -----<br>------ ---- ---- ------ ------ ------- --- ----- ---------<br>---- --- -------- -------- --- --- -- ------- --- --- -----<br>-- --- ------ ------- --- --- script's ---- --------- --<br>---------- -- -------- ----------------,269503,269492,268983.94,268984,268984.34,269504.36,,46,script's
screen,html.Screen,2_3_1_0_1_47,2022-02-04T13:12:45.392Z,,,,,,,,,,,,,,,,,11,,,,,,,,,,,,,,456.64000000001397,,response,,,,4,D,,,,,,Space,keypress(Space),,,,silence,,,,----- -- ---- --- -- --- -------- ------------ ---------- --<br>- ------- ------ --------- -- ------------ -- --- ---- -----<br>------ ---- ---- ------ ------ ------- --- ----- ---------<br>---- --- -------- -------- --- --- -- ------- --- --- -----<br>-- --- ------ ------- --- --- -------- mere --------- --<br>---------- -- -------- ----------------,269968,269961,269504.08,269504,269504.36,269970.52,,47,mere
screen,html.Screen,2_3_1_0_1_48,2022-02-04T13:12:45.879Z,,,,,,,,,,,,,,,,,11,,,,,,,,,,,,,,474.4799999999814,,response,,,,4,D,,,,,,Space,keypress(Space),,,,silence,,,,----- -- ---- --- -- --- -------- ------------ ---------- --<br>- ------- ------ --------- -- ------------ -- --- ---- -----<br>------ ---- ---- ------ ------ ------- --- ----- ---------<br>---- --- -------- -------- --- --- -- ------- --- --- -----<br>-- --- ------ ------- --- --- -------- ---- existence --<br>---------- -- -------- ----------------,270455,270445,269968.26,269968,269970.52,270454.82,,48,existence
screen,html.Screen,2_3_1_0_1_49,2022-02-04T13:12:46.512Z,,,,,,,,,,,,,,,,,11,,,,,,,,,,,,,,615.179999999993,,response,,,,4,D,,,,,,Space,keypress(Space),,,,silence,,,,----- -- ---- --- -- --- -------- ------------ ---------- --<br>- ------- ------ --------- -- ------------ -- --- ---- -----<br>------ ---- ---- ------ ------ ------- --- ----- ---------<br>---- --- -------- -------- --- --- -- ------- --- --- -----<br>-- --- ------ ------- --- --- -------- ---- --------- is<br>---------- -- -------- ----------------,271087,271070,270454.52,270455,270454.82,271088.52,,49,is
screen,html.Screen,2_3_1_0_1_50,2022-02-04T13:12:47.023Z,,,,,,,,,,,,,,,,,11,,,,,,,,,,,,,,497.4799999999814,,response,,,,4,D,,,,,,Space,keypress(Space),,,,silence,,,,----- -- ---- --- -- --- -------- ------------ ---------- --<br>- ------- ------ --------- -- ------------ -- --- ---- -----<br>------ ---- ---- ------ ------ ------- --- ----- ---------<br>---- --- -------- -------- --- --- -- ------- --- --- -----<br>-- --- ------ ------- --- --- -------- ---- --------- --<br>sufficient -- -------- ----------------,271599,271586,271088.1,271088,271088.52,271598.56,,50,sufficient
