sender,sender_type,sender_id,timestamp,meta,,Blues,Classical,Country,Dance,Electronic,Folk,Gospel,Hip-Hop,Jazz,Latin,Musical/Film,New-age,Pop,Prolific_id,Provo_ID,R&B,Rap,Reggae,Religious,Rock,Soul,Swing,Traditional,age,artist_name,correct,correctResponse,distraction,duration,education,ended_on,familiarity,gender,headphone_check_performance,item,list,music_frequency,offensiveness,pleasantness,position_correct,preference,response,response_action,snippet_file,song_name,song_rating,sound,stimulus_1,stimulus_2,stimulus_3,text,time_commit,time_end,time_render,time_run,time_show,time_switch,url,word,word_ID
Prolific ID,html.Form,0,2022-02-03T15:34:57.185Z,"{""labjs_version"":""20.2.2"",""labjs_build"":{""flavor"":""production"",""commit"":""a25486e0c714a0ae2ce03ff94b7bb6896854dcfa""},""location"":""https://run.pavlovia.org/mvasilev/prolific2_music_b/"",""userAgent"":""Mozilla/5.0 (Windows NT 10.0; Win64; x64) AppleWebKit/537.36 (KHTML, like Gecko) Chrome/97.0.4692.99 Safari/537.36"",""platform"":""Win32"",""language"":""en-GB"",""locale"":""en-GB"",""timeZone"":""Europe/London"",""timezoneOffset"":0,""screen_width"":1366,""screen_height"":768,""scroll_width"":1366,""scroll_height"":577,""window_innerWidth"":1366,""window_innerHeight"":625,""devicePixelRatio"":1}",,,,,,,,,,,,,,,5eca6060350b940124f94980,,,,,,,,,,,,,,,9522.346,,form submission,,,,,,,,,,,,,,,,,,,,,22181.80000000447,22181,12608.597,12623.30000000447,12658.654,22244.236,{},,
Introduction,html.Screen,1_0,2022-02-03T15:35:02.181Z,,,,,,,,,,,,,,,,,,,,,,,,,,,,,,,4930.464000002979,,response,,,,,,,,,,,continue,click button,,,,,,,,,27177.5,27174.70000000298,22177.57,22182.70000000298,22244.236,27178.629,,,
Volume calibration,html.Screen,1_1,2022-02-03T15:35:19.135Z,,,,,,,,,,,,,,,,,,,,,,,,,,,,,,,16952.07100000298,,response,,,,,,,,,,,continue,click button,,,,,,,,,44131.90000000596,44130.70000000298,27162.024,27177.70000000298,27178.629,44132.466,,,
Task instructions,html.Screen,1_2,2022-02-03T15:35:22.740Z,,,,,,,,,,,,,,,,,,,,,,,,,,,,,,,3603.6340000014898,,response,,,,,,,,,,,continue,click button,,,,,,,,,47737,47736.10000000149,44115.845,44132,44132.466,47749.992,,,
Sounds,html.Screen,1_3_0_0,2022-02-03T15:35:26.994Z,,,,,,,,,,,,,,,,,,,,,,,,,,,,,,,4250.925000000003,,timeout,,,,,,,,,1,,,,,,,,S,O,I,,51990,51984.293,47733.342,47737.10000000149,47749.992,52000.917,,,
Judgement,html.Screen,1_3_0_1,2022-02-03T15:35:28.820Z,,,,,,,,,,,,,,,,,,,,,,,,,,,,true,1,,1814.6830000014888,,response,,,,,,,,,1,,1,click #choice-1,,,,,S,O,I,,53816.80000000447,53815.60000000149,51984.293,51990.40000000596,52000.917,53817.954,,,
Trial,flow.Sequence,1_3_0,2022-02-03T15:35:28.821Z,,,,,,,,,,,,,,,,,,,,,,,,,,,,,,,6065.608000001492,,completion,,,,,,,,,1,,,,,,,,S,O,I,,53817.30000000447,53815.60000000149,47733.342,47737.10000000149,47749.992,53817.954,,,
Sounds,html.Screen,1_3_1_0,2022-02-03T15:35:33.057Z,,,,,,,,,,,,,,,,,,,,,,,,,,,,,,,4251.041000000005,,timeout,,,,,,,,,2,,,,,,,,O,S,I,,58053.40000000596,58052.379,53801.342,53817.70000000298,53817.954,58068.995,,,
Judgement,html.Screen,1_3_1_1,2022-02-03T15:35:34.029Z,,,,,,,,,,,,,,,,,,,,,,,,,,,,true,2,,955.3050000044677,,response,,,,,,,,,2,,2,click #choice-2,,,,,O,S,I,,59025.60000000149,59024.30000000447,58052.379,58053.70000000298,58068.995,59035.813,,,
Trial,flow.Sequence,1_3_1,2022-02-03T15:35:34.029Z,,,,,,,,,,,,,,,,,,,,,,,,,,,,,,,5206.346000004472,,completion,,,,,,,,,2,,,,,,,,O,S,I,,59025.80000000447,59024.30000000447,53801.342,53817.40000000596,53817.954,59035.813,,,
Sounds,html.Screen,1_3_2_0,2022-02-03T15:35:38.275Z,,,,,,,,,,,,,,,,,,,,,,,,,,,,,,,4251.017,,timeout,,,,,,,,,3,,,,,,,,I,O,S,,63271.5,63270.243,59019.204,59026.10000000149,59035.813,63286.83,,,
Judgement,html.Screen,1_3_2_1,2022-02-03T15:35:39.919Z,,,,,,,,,,,,,,,,,,,,,,,,,,,,true,3,,1628.0700000059587,,response,,,,,,,,,3,,3,click #choice-3,,,,,I,O,S,,64915.60000000149,64914.90000000596,63270.243,63271.80000000447,63286.83,64937.185,,,
Trial,flow.Sequence,1_3_2,2022-02-03T15:35:39.919Z,,,,,,,,,,,,,,,,,,,,,,,,,,,,,,,5879.0870000059585,,completion,,,,,,,,,3,,,,,,,,I,O,S,,64915.90000000596,64914.90000000596,59019.204,59026,59035.813,64937.185,,,
Sounds,html.Screen,1_3_3_0,2022-02-03T15:35:44.176Z,,,,,,,,,,,,,,,,,,,,,,,,,,,,,,,4250.985000000001,,timeout,,,,,,,,,1,,,,,,,,S,I,O,,69172.90000000596,69171.505,64920.503,64916,64937.185,69188.17,,,
Judgement,html.Screen,1_3_3_1,2022-02-03T15:35:45.836Z,,,,,,,,,,,,,,,,,,,,,,,,,,,,true,1,,1643.630000004472,,response,,,,,,,,,1,,1,click #choice-1,,,,,S,I,O,,70832.60000000149,70831.80000000447,69171.505,69173.10000000149,69188.17,70838.476,,,
Trial,flow.Sequence,1_3_3,2022-02-03T15:35:45.836Z,,,,,,,,,,,,,,,,,,,,,,,,,,,,,,,5894.615000004473,,completion,,,,,,,,,1,,,,,,,,S,I,O,,70832.80000000447,70831.80000000447,64920.503,64916,64937.185,70838.476,,,
Sounds,html.Screen,1_3_4_0,2022-02-03T15:35:50.078Z,,,,,,,,,,,,,,,,,,,,,,,,,,,,,,,4251.0090000000055,,timeout,,,,,,,,,2,,,,,,,,I,S,O,,75074.70000000298,75072.954,70821.855,70832.90000000596,70838.476,75089.485,,,
Judgement,html.Screen,1_3_4_1,2022-02-03T15:35:50.562Z,,,,,,,,,,,,,,,,,,,,,,,,,,,,true,2,,467.81500000446977,,response,,,,,,,,,2,,2,click #choice-2,,,,,I,S,O,,75558,75557.30000000447,75072.954,75075,75089.485,75572.898,,,
Trial,flow.Sequence,1_3_4,2022-02-03T15:35:50.562Z,,,,,,,,,,,,,,,,,,,,,,,,,,,,,,,4718.824000004475,,completion,,,,,,,,,2,,,,,,,,I,S,O,,75558.20000000298,75557.30000000447,70821.855,70832.90000000596,70838.476,75572.898,,,
Sounds,html.Screen,1_3_5_0,2022-02-03T15:35:54.812Z,,,,,,,,,,,,,,,,,,,,,,,,,,,,,,,4250.9649999999965,,timeout,,,,,,,,,3,,,,,,,,O,I,S,,79808.30000000447,79807.261,75556.305,75558.30000000447,75572.898,79823.863,,,
Judgement,html.Screen,1_3_5_1,2022-02-03T15:35:55.486Z,,,,,,,,,,,,,,,,,,,,,,,,,,,,true,3,,657.2370000014926,,response,,,,,,,,,3,,3,click #choice-3,,,,,O,I,S,,80482.30000000447,80481.10000000149,79807.261,79808.5,79823.863,80490.641,,,
Trial,flow.Sequence,1_3_5,2022-02-03T15:35:55.486Z,,,,,,,,,,,,,,,,,,,,,,,,,,,,,,,4908.202000001489,,completion,,,,,,,,,3,,,,,,,,O,I,S,,80482.5,80481.10000000149,75556.305,75558.30000000447,75572.898,80490.641,,,
Task,flow.Loop,1_3,2022-02-03T15:35:55.491Z,,,,,,,,,,,,,,,,,,,,,,,,,,,,,,,32731.10800000149,,completion,,,1,,,,,,,,,,,,,,,,,,80487.70000000298,80481.10000000149,47733.342,47737.10000000149,47749.992,80490.641,,,
Trap,html.Screen,1_4,2022-02-03T15:35:55.492Z,,,,,,,,,,,,,,,,,,,,,,,,,,,,,,,NaN,,skipped,,,,,,,,,,,,,,,,,,,,,80488.90000000596,80481.10000000149,,80488.80000000447,,80490.641,,,
Thanks,html.Screen,1_5,2022-02-03T15:35:58.348Z,,,,,,,,,,,,,,,,,,,,,,,,,,,,,,,2853.459000001487,,response,,,,,,,,,,,continue,click button,,,,,,,,,83344.80000000447,83344.10000000149,80474.065,80489,80490.641,85175.045,,,
Headphone screening,flow.Sequence,1,2022-02-03T15:35:58.348Z,,,,,,,,,,,,,,,,,,,,,,,,,,,,,,,61099.864000001486,,completion,,,,,,,,,,,,,,,,,,,,,83345,83344.10000000149,22177.57,22182.60000000149,22244.236,85175.045,,,
Instructions,html.Page,2_0,2022-02-03T15:36:09.722Z,,,,,,,,,,,,,,,,,,,,,,,,,,,,,,,9543.155000002982,,form submission,,,,,,,,,,,,,,,,,,,,,94718.40000000596,94718.20000000298,85141.672,85178.5,85175.045,94727.211,,,
Holding screen,html.Screen,2_1_0_0,2022-02-03T15:36:19.717Z,,,,,,,,,,,,,,,,,,,,,,,,,,,,,,,10035.633000000002,,timeout,,,,,,,,,,,,,,,,,,,,,104713.70000000298,104712.865,94710.591,94718.70000000298,94727.211,104762.844,,,
screen,html.Screen,2_1_0_1_0,2022-02-03T15:36:22.696Z,,,,,,,,,,,,,,,,,53,,,,,,,,,,,,,,2923.956000004473,,response,,,,99,,,,,,,Space,keypress(Space),,,,,,,,When -- ----- -- ------ - ------- --- ----------<br>------------- ------ ------ ---- ---- ------- ----- -- ----<br>-------- ------- -- ---------- --- - --- ----- ----- ----<br>---- --- --- ----- --- ---- ---- ------- ----- ---- -------<br>--- --- -- ----- -- --- ---- -- --- ---- -- ------ ------<br>--- ----- -- ----,107692.70000000298,107686.80000000447,104712.865,104714.10000000149,104762.844,107696.977,,0,When
screen,html.Screen,2_1_0_1_1,2022-02-03T15:36:23.169Z,,,,,,,,,,,,,,,,,53,,,,,,,,,,,,,,467.8230000044714,,response,,,,99,,,,,,,Space,keypress(Space),,,,,,,,---- it ----- -- ------ - ------- --- ----------<br>------------- ------ ------ ---- ---- ------- ----- -- ----<br>-------- ------- -- ---------- --- - --- ----- ----- ----<br>---- --- --- ----- --- ---- ---- ------- ----- ---- -------<br>--- --- -- ----- -- --- ---- -- --- ---- -- ------ ------<br>--- ----- -- ----,108166,108164.80000000447,107680.166,107693,107696.977,108180.291,,1,it
screen,html.Screen,2_1_0_1_2,2022-02-03T15:36:23.557Z,,,,,,,,,,,,,,,,,53,,,,,,,,,,,,,,372.4090000029828,,response,,,,99,,,,,,,Space,keypress(Space),,,,,,,,---- -- comes -- ------ - ------- --- ----------<br>------------- ------ ------ ---- ---- ------- ----- -- ----<br>-------- ------- -- ---------- --- - --- ----- ----- ----<br>---- --- --- ----- --- ---- ---- ------- ----- ---- -------<br>--- --- -- ----- -- --- ---- -- --- ---- -- ------ ------<br>--- ----- -- ----,108553.90000000596,108552.70000000298,108163.696,108166.20000000298,108180.291,108563.767,,2,comes
screen,html.Screen,2_1_0_1_3,2022-02-03T15:36:23.914Z,,,,,,,,,,,,,,,,,53,,,,,,,,,,,,,,345.833000001483,,response,,,,99,,,,,,,Space,keypress(Space),,,,,,,,---- -- ----- to ------ - ------- --- ----------<br>------------- ------ ------ ---- ---- ------- ----- -- ----<br>-------- ------- -- ---------- --- - --- ----- ----- ----<br>---- --- --- ----- --- ---- ---- ------- ----- ---- -------<br>--- --- -- ----- -- --- ---- -- --- ---- -- ------ ------<br>--- ----- -- ----,108911,108909.60000000149,108547.058,108554.10000000149,108563.767,108913.779,,3,to
screen,html.Screen,2_1_0_1_4,2022-02-03T15:36:24.250Z,,,,,,,,,,,,,,,,,53,,,,,,,,,,,,,,331.52100000447535,,response,,,,99,,,,,,,Space,keypress(Space),,,,,,,,---- -- ----- -- having - ------- --- ----------<br>------------- ------ ------ ---- ---- ------- ----- -- ----<br>-------- ------- -- ---------- --- - --- ----- ----- ----<br>---- --- --- ----- --- ---- ---- ------- ----- ---- -------<br>--- --- -- ----- -- --- ---- -- --- ---- -- ------ ------<br>--- ----- -- ----,109246.40000000596,109245.30000000447,108897.195,108911.20000000298,108913.779,109263.919,,4,having
screen,html.Screen,2_1_0_1_5,2022-02-03T15:36:24.576Z,,,,,,,,,,,,,,,,,53,,,,,,,,,,,,,,307.2810000029858,,response,,,,99,,,,,,,Space,keypress(Space),,,,,,,,---- -- ----- -- ------ a ------- --- ----------<br>------------- ------ ------ ---- ---- ------- ----- -- ----<br>-------- ------- -- ---------- --- - --- ----- ----- ----<br>---- --- --- ----- --- ---- ---- ------- ----- ---- -------<br>--- --- -- ----- -- --- ---- -- --- ---- -- ------ ------<br>--- ----- -- ----,109572.80000000447,109571.20000000298,109247.272,109246.70000000298,109263.919,109580.595,,5,a
screen,html.Screen,2_1_0_1_6,2022-02-03T15:36:24.882Z,,,,,,,,,,,,,,,,,53,,,,,,,,,,,,,,296.2050000044692,,response,,,,99,,,,,,,Space,keypress(Space),,,,,,,,---- -- ----- -- ------ - lasting --- ----------<br>------------- ------ ------ ---- ---- ------- ----- -- ----<br>-------- ------- -- ---------- --- - --- ----- ----- ----<br>---- --- --- ----- --- ---- ---- ------- ----- ---- -------<br>--- --- -- ----- -- --- ---- -- --- ---- -- ------ ------<br>--- ----- -- ----,109878.10000000149,109876.80000000447,109563.943,109573.10000000149,109580.595,109880.656,,6,lasting
screen,html.Screen,2_1_0_1_7,2022-02-03T15:36:25.299Z,,,,,,,,,,,,,,,,,53,,,,,,,,,,,,,,413.54400000297755,,response,,,,99,,,,,,,Space,keypress(Space),,,,,,,,---- -- ----- -- ------ - ------- and ----------<br>------------- ------ ------ ---- ---- ------- ----- -- ----<br>-------- ------- -- ---------- --- - --- ----- ----- ----<br>---- --- --- ----- --- ---- ---- ------- ----- ---- -------<br>--- --- -- ----- -- --- ---- -- --- ---- -- ------ ------<br>--- ----- -- ----,110295.30000000447,110294.20000000298,109864.072,109878.30000000447,109880.656,110297.408,,7,and
screen,html.Screen,2_1_0_1_8,2022-02-03T15:36:25.696Z,,,,,,,,,,,,,,,,,53,,,,,,,,,,,,,,393.6920000014943,,response,,,,99,,,,,,,Space,keypress(Space),,,,,,,,---- -- ----- -- ------ - ------- --- fulfilling<br>------------- ------ ------ ---- ---- ------- ----- -- ----<br>-------- ------- -- ---------- --- - --- ----- ----- ----<br>---- --- --- ----- --- ---- ---- ------- ----- ---- -------<br>--- --- -- ----- -- --- ---- -- --- ---- -- ------ ------<br>--- ----- -- ----,110692.40000000596,110691.10000000149,110280.818,110295.70000000298,110297.408,110697.524,,8,fulfilling
screen,html.Screen,2_1_0_1_9,2022-02-03T15:36:26.042Z,,,,,,,,,,,,,,,,,53,,,,,,,,,,,,,,339.8760000059556,,response,,,,99,,,,,,,Space,keypress(Space),,,,,,,,"---- -- ----- -- ------ - ------- --- ----------<br>relationship, ------ ------ ---- ---- ------- ----- -- ----<br>-------- ------- -- ---------- --- - --- ----- ----- ----<br>---- --- --- ----- --- ---- ---- ------- ----- ---- -------<br>--- --- -- ----- -- --- ---- -- --- ---- -- ------ ------<br>--- ----- -- ----",111038.70000000298,111037.40000000596,110680.925,110692.80000000447,110697.524,111047.684,,9,"relationship,"
screen,html.Screen,2_1_0_1_10,2022-02-03T15:36:26.265Z,,,,,,,,,,,,,,,,,53,,,,,,,,,,,,,,213.0160000029864,,response,,,,99,,,,,,,Space,keypress(Space),,,,,,,,---- -- ----- -- ------ - ------- --- ----------<br>------------- common ------ ---- ---- ------- ----- -- ----<br>-------- ------- -- ---------- --- - --- ----- ----- ----<br>---- --- --- ----- --- ---- ---- ------- ----- ---- -------<br>--- --- -- ----- -- --- ---- -- --- ---- -- ------ ------<br>--- ----- -- ----,111262.10000000149,111260.70000000298,111031.008,111039,111047.684,111264.313,,10,common
screen,html.Screen,2_1_0_1_11,2022-02-03T15:36:26.868Z,,,,,,,,,,,,,,,,,53,,,,,,,,,,,,,,598.5870000059658,,response,,,,99,,,,,,,Space,keypress(Space),,,,,,,,---- -- ----- -- ------ - ------- --- ----------<br>------------- ------ wisdom ---- ---- ------- ----- -- ----<br>-------- ------- -- ---------- --- - --- ----- ----- ----<br>---- --- --- ----- --- ---- ---- ------- ----- ---- -------<br>--- --- -- ----- -- --- ---- -- --- ---- -- ------ ------<br>--- ----- -- ----,111864.20000000298,111862.90000000596,111247.74,111262.20000000298,111264.313,111881.201,,11,wisdom
screen,html.Screen,2_1_0_1_12,2022-02-03T15:36:27.274Z,,,,,,,,,,,,,,,,,53,,,,,,,,,,,,,,387.79899999999907,,response,,,,99,,,,,,,Space,keypress(Space),,,,,,,,---- -- ----- -- ------ - ------- --- ----------<br>------------- ------ ------ says ---- ------- ----- -- ----<br>-------- ------- -- ---------- --- - --- ----- ----- ----<br>---- --- --- ----- --- ---- ---- ------- ----- ---- -------<br>--- --- -- ----- -- --- ---- -- --- ---- -- ------ ------<br>--- ----- -- ----,112270.20000000298,112269,111864.52,111864.40000000596,111881.201,112281.254,,12,says
screen,html.Screen,2_1_0_1_13,2022-02-03T15:36:27.672Z,,,,,,,,,,,,,,,,,53,,,,,,,,,,,,,,385.64600000595965,,response,,,,99,,,,,,,Space,keypress(Space),,,,,,,,---- -- ----- -- ------ - ------- --- ----------<br>------------- ------ ------ ---- that ------- ----- -- ----<br>-------- ------- -- ---------- --- - --- ----- ----- ----<br>---- --- --- ----- --- ---- ---- ------- ----- ---- -------<br>--- --- -- ----- -- --- ---- -- --- ---- -- ------ ------<br>--- ----- -- ----,112668.20000000298,112666.90000000596,112264.609,112270.5,112281.254,112681.353,,13,that
screen,html.Screen,2_1_0_1_14,2022-02-03T15:36:28.160Z,,,,,,,,,,,,,,,,,53,,,,,,,,,,,,,,474.04700000595767,,response,,,,99,,,,,,,Space,keypress(Space),,,,,,,,---- -- ----- -- ------ - ------- --- ----------<br>------------- ------ ------ ---- ---- feeling ----- -- ----<br>-------- ------- -- ---------- --- - --- ----- ----- ----<br>---- --- --- ----- --- ---- ---- ------- ----- ---- -------<br>--- --- -- ----- -- --- ---- -- --- ---- -- ------ ------<br>--- ----- -- ----,113156.60000000149,113155.40000000596,112664.639,112668.40000000596,112681.353,113164.735,,14,feeling
screen,html.Screen,2_1_0_1_15,2022-02-03T15:36:28.690Z,,,,,,,,,,,,,,,,,53,,,,,,,,,,,,,,520.5650000044698,,response,,,,99,,,,,,,Space,keypress(Space),,,,,,,,---- -- ----- -- ------ - ------- --- ----------<br>------------- ------ ------ ---- ---- ------- close -- ----<br>-------- ------- -- ---------- --- - --- ----- ----- ----<br>---- --- --- ----- --- ---- ---- ------- ----- ---- -------<br>--- --- -- ----- -- --- ---- -- --- ---- -- ------ ------<br>--- ----- -- ----,113686.60000000149,113685.30000000447,113148.128,113156.80000000447,113164.735,113698.274,,15,close
screen,html.Screen,2_1_0_1_16,2022-02-03T15:36:29.148Z,,,,,,,,,,,,,,,,,53,,,,,,,,,,,,,,444.92600000297534,,response,,,,99,,,,,,,Space,keypress(Space),,,,,,,,---- -- ----- -- ------ - ------- --- ----------<br>------------- ------ ------ ---- ---- ------- ----- to ----<br>-------- ------- -- ---------- --- - --- ----- ----- ----<br>---- --- --- ----- --- ---- ---- ------- ----- ---- -------<br>--- --- -- ----- -- --- ---- -- --- ---- -- ------ ------<br>--- ----- -- ----,114144.5,114143.20000000298,113681.701,113686.90000000596,113698.274,114148.311,,16,to
screen,html.Screen,2_1_0_1_17,2022-02-03T15:36:29.882Z,,,,,,,,,,,,,,,,,53,,,,,,,,,,,,,,728.9890000044688,,response,,,,99,,,,,,,Space,keypress(Space),,,,,,,,---- -- ----- -- ------ - ------- --- ----------<br>------------- ------ ------ ---- ---- ------- ----- -- your<br>-------- ------- -- ---------- --- - --- ----- ----- ----<br>---- --- --- ----- --- ---- ---- ------- ----- ---- -------<br>--- --- -- ----- -- --- ---- -- --- ---- -- ------ ------<br>--- ----- -- ----,114878.60000000149,114877.30000000447,114131.728,114144.80000000447,114148.311,114881.794,,17,your
screen,html.Screen,2_1_0_1_18,2022-02-03T15:36:30.288Z,,,,,,,,,,,,,,,,,53,,,,,,,,,,,,,,401.8060000014957,,response,,,,99,,,,,,,Space,keypress(Space),,,,,,,,---- -- ----- -- ------ - ------- --- ----------<br>------------- ------ ------ ---- ---- ------- ----- -- ----<br>romantic ------- -- ---------- --- - --- ----- ----- ----<br>---- --- --- ----- --- ---- ---- ------- ----- ---- -------<br>--- --- -- ----- -- --- ---- -- --- ---- -- ------ ------<br>--- ----- -- ----,115285,115283.60000000149,114865.198,114878.80000000447,114881.794,115298.553,,18,romantic
screen,html.Screen,2_1_0_1_19,2022-02-03T15:36:30.605Z,,,,,,,,,,,,,,,,,53,,,,,,,,,,,,,,301.74700000447046,,response,,,,99,,,,,,,Space,keypress(Space),,,,,,,,---- -- ----- -- ------ - ------- --- ----------<br>------------- ------ ------ ---- ---- ------- ----- -- ----<br>-------- partner -- ---------- --- - --- ----- ----- ----<br>---- --- --- ----- --- ---- ---- ------- ----- ---- -------<br>--- --- -- ----- -- --- ---- -- --- ---- -- ------ ------<br>--- ----- -- ----,115601.60000000149,115600.30000000447,115281.961,115285.30000000447,115298.553,115615.373,,19,partner
screen,html.Screen,2_1_0_1_20,2022-02-03T15:36:30.921Z,,,,,,,,,,,,,,,,,53,,,,,,,,,,,,,,300.82700000297336,,response,,,,99,,,,,,,Space,keypress(Space),,,,,,,,---- -- ----- -- ------ - ------- --- ----------<br>------------- ------ ------ ---- ---- ------- ----- -- ----<br>-------- ------- is ---------- --- - --- ----- ----- ----<br>---- --- --- ----- --- ---- ---- ------- ----- ---- -------<br>--- --- -- ----- -- --- ---- -- --- ---- -- ------ ------<br>--- ----- -- ----,115917.5,115916.20000000298,115598.693,115601.80000000447,115615.373,115932.108,,20,is
screen,html.Screen,2_1_0_1_21,2022-02-03T15:36:31.287Z,,,,,,,,,,,,,,,,,53,,,,,,,,,,,,,,349.4920000014972,,response,,,,99,,,,,,,Space,keypress(Space),,,,,,,,---- -- ----- -- ------ - ------- --- ----------<br>------------- ------ ------ ---- ---- ------- ----- -- ----<br>-------- ------- -- paramount. --- - --- ----- ----- ----<br>---- --- --- ----- --- ---- ---- ------- ----- ---- -------<br>--- --- -- ----- -- --- ---- -- --- ---- -- ------ ------<br>--- ----- -- ----,116283.20000000298,116281.60000000149,115915.366,115917.70000000298,115932.108,116298.812,,21,paramount.
screen,html.Screen,2_1_0_1_22,2022-02-03T15:36:31.685Z,,,,,,,,,,,,,,,,,53,,,,,,,,,,,,,,381.0880000059551,,response,,,,99,,,,,,,Space,keypress(Space),,,,,,,,---- -- ----- -- ------ - ------- --- ----------<br>------------- ------ ------ ---- ---- ------- ----- -- ----<br>-------- ------- -- ---------- But - --- ----- ----- ----<br>---- --- --- ----- --- ---- ---- ------- ----- ---- -------<br>--- --- -- ----- -- --- ---- -- --- ---- -- ------ ------<br>--- ----- -- ----,116681.20000000298,116679.90000000596,116282.243,116283.60000000149,116298.812,116698.847,,22,But
screen,html.Screen,2_1_0_1_23,2022-02-03T15:36:32.021Z,,,,,,,,,,,,,,,,,53,,,,,,,,,,,,,,317.05300000596617,,response,,,,99,,,,,,,Space,keypress(Space),,,,,,,,---- -- ----- -- ------ - ------- --- ----------<br>------------- ------ ------ ---- ---- ------- ----- -- ----<br>-------- ------- -- ---------- --- a --- ----- ----- ----<br>---- --- --- ----- --- ---- ---- ------- ----- ---- -------<br>--- --- -- ----- -- --- ---- -- --- ---- -- ------ ------<br>--- ----- -- ----,117017.10000000149,117015.90000000596,116682.271,116681.60000000149,116698.847,117032.278,,23,a
screen,html.Screen,2_1_0_1_24,2022-02-03T15:36:32.397Z,,,,,,,,,,,,,,,,,53,,,,,,,,,,,,,,360.2219999999943,,response,,,,99,,,,,,,Space,keypress(Space),,,,,,,,---- -- ----- -- ------ - ------- --- ----------<br>------------- ------ ------ ---- ---- ------- ----- -- ----<br>-------- ------- -- ---------- --- - new ----- ----- ----<br>---- --- --- ----- --- ---- ---- ------- ----- ---- -------<br>--- --- -- ----- -- --- ---- -- --- ---- -- ------ ------<br>--- ----- -- ----,117393.60000000149,117392.5,117015.677,117017.40000000596,117032.278,117398.992,,24,new
screen,html.Screen,2_1_0_1_25,2022-02-03T15:36:32.754Z,,,,,,,,,,,,,,,,,53,,,,,,,,,,,,,,350.00800000000163,,response,,,,99,,,,,,,Space,keypress(Space),,,,,,,,---- -- ----- -- ------ - ------- --- ----------<br>------------- ------ ------ ---- ---- ------- ----- -- ----<br>-------- ------- -- ---------- --- - --- study ----- ----<br>---- --- --- ----- --- ---- ---- ------- ----- ---- -------<br>--- --- -- ----- -- --- ---- -- --- ---- -- ------ ------<br>--- ----- -- ----,117750.40000000596,117749,117382.415,117393.90000000596,117398.992,117765.844,,25,study
screen,html.Screen,2_1_0_1_26,2022-02-03T15:36:33.140Z,,,,,,,,,,,,,,,,,53,,,,,,,,,,,,,,369.956000004473,,response,,,,99,,,,,,,Space,keypress(Space),,,,,,,,---- -- ----- -- ------ - ------- --- ----------<br>------------- ------ ------ ---- ---- ------- ----- -- ----<br>-------- ------- -- ---------- --- - --- ----- finds ----<br>---- --- --- ----- --- ---- ---- ------- ----- ---- -------<br>--- --- -- ----- -- --- ---- -- --- ---- -- ------ ------<br>--- ----- -- ----,118137,118135.80000000447,117749.186,117750.70000000298,117765.844,118149.151,,26,finds
screen,html.Screen,2_1_0_1_27,2022-02-03T15:36:33.437Z,,,,,,,,,,,,,,,,,53,,,,,,,,,,,,,,283.24900000596244,,response,,,,99,,,,,,,Space,keypress(Space),,,,,,,,---- -- ----- -- ------ - ------- --- ----------<br>------------- ------ ------ ---- ---- ------- ----- -- ----<br>-------- ------- -- ---------- --- - --- ----- ----- that<br>---- --- --- ----- --- ---- ---- ------- ----- ---- -------<br>--- --- -- ----- -- --- ---- -- --- ---- -- ------ ------<br>--- ----- -- ----,118433.90000000596,118432.40000000596,118132.512,118137.40000000596,118149.151,118449.248,,27,that
screen,html.Screen,2_1_0_1_28,2022-02-03T15:36:33.823Z,,,,,,,,,,,,,,,,,53,,,,,,,,,,,,,,368.95200000297336,,response,,,,99,,,,,,,Space,keypress(Space),,,,,,,,---- -- ----- -- ------ - ------- --- ----------<br>------------- ------ ------ ---- ---- ------- ----- -- ----<br>-------- ------- -- ---------- --- - --- ----- ----- ----<br>it's --- --- ----- --- ---- ---- ------- ----- ---- -------<br>--- --- -- ----- -- --- ---- -- --- ---- -- ------ ------<br>--- ----- -- ----,118819.5,118818.20000000298,118432.662,118434.20000000298,118449.248,118832.774,,28,it's
screen,html.Screen,2_1_0_1_29,2022-02-03T15:36:34.180Z,,,,,,,,,,,,,,,,,53,,,,,,,,,,,,,,342.3260000014852,,response,,,,99,,,,,,,Space,keypress(Space),,,,,,,,---- -- ----- -- ------ - ------- --- ----------<br>------------- ------ ------ ---- ---- ------- ----- -- ----<br>-------- ------- -- ---------- --- - --- ----- ----- ----<br>---- not --- ----- --- ---- ---- ------- ----- ---- -------<br>--- --- -- ----- -- --- ---- -- --- ---- -- ------ ------<br>--- ----- -- ----,119176.40000000596,119175.10000000149,118816.085,118819.80000000447,118832.774,119182.743,,29,not
screen,html.Screen,2_1_0_1_30,2022-02-03T15:36:34.496Z,,,,,,,,,,,,,,,,,53,,,,,,,,,,,,,,308.65700000595825,,response,,,,99,,,,,,,Space,keypress(Space),,,,,,,,---- -- ----- -- ------ - ------- --- ----------<br>------------- ------ ------ ---- ---- ------- ----- -- ----<br>-------- ------- -- ---------- --- - --- ----- ----- ----<br>---- --- how ----- --- ---- ---- ------- ----- ---- -------<br>--- --- -- ----- -- --- ---- -- --- ---- -- ------ ------<br>--- ----- -- ----,119492.60000000149,119491.40000000596,119166.156,119176.60000000149,119182.743,119499.455,,30,how
screen,html.Screen,2_1_0_1_31,2022-02-03T15:36:34.882Z,,,,,,,,,,,,,,,,,53,,,,,,,,,,,,,,377.7450000029785,,response,,,,99,,,,,,,Space,keypress(Space),,,,,,,,---- -- ----- -- ------ - ------- --- ----------<br>------------- ------ ------ ---- ---- ------- ----- -- ----<br>-------- ------- -- ---------- --- - --- ----- ----- ----<br>---- --- --- close --- ---- ---- ------- ----- ---- -------<br>--- --- -- ----- -- --- ---- -- --- ---- -- ------ ------<br>--- ----- -- ----,119878.60000000149,119877.20000000298,119482.909,119492.80000000447,119499.455,119882.904,,31,close
screen,html.Screen,2_1_0_1_32,2022-02-03T15:36:35.198Z,,,,,,,,,,,,,,,,,53,,,,,,,,,,,,,,310.1960000014951,,response,,,,99,,,,,,,Space,keypress(Space),,,,,,,,---- -- ----- -- ------ - ------- --- ----------<br>------------- ------ ------ ---- ---- ------- ----- -- ----<br>-------- ------- -- ---------- --- - --- ----- ----- ----<br>---- --- --- ----- you ---- ---- ------- ----- ---- -------<br>--- --- -- ----- -- --- ---- -- --- ---- -- ------ ------<br>--- ----- -- ----,120194.60000000149,120193.10000000149,119866.316,119878.80000000447,119882.904,120199.644,,32,you
screen,html.Screen,2_1_0_1_33,2022-02-03T15:36:35.494Z,,,,,,,,,,,,,,,,,53,,,,,,,,,,,,,,289.9560000014899,,response,,,,99,,,,,,,Space,keypress(Space),,,,,,,,---- -- ----- -- ------ - ------- --- ----------<br>------------- ------ ------ ---- ---- ------- ----- -- ----<br>-------- ------- -- ---------- --- - --- ----- ----- ----<br>---- --- --- ----- --- feel ---- ------- ----- ---- -------<br>--- --- -- ----- -- --- ---- -- --- ---- -- ------ ------<br>--- ----- -- ----,120491,120489.60000000149,120183.097,120195,120199.644,120499.706,,33,feel
screen,html.Screen,2_1_0_1_34,2022-02-03T15:36:35.799Z,,,,,,,,,,,,,,,,,53,,,,,,,,,,,,,,294.59400000446476,,response,,,,99,,,,,,,Space,keypress(Space),,,,,,,,---- -- ----- -- ------ - ------- --- ----------<br>------------- ------ ------ ---- ---- ------- ----- -- ----<br>-------- ------- -- ---------- --- - --- ----- ----- ----<br>---- --- --- ----- --- ---- that ------- ----- ---- -------<br>--- --- -- ----- -- --- ---- -- --- ---- -- ------ ------<br>--- ----- -- ----,120795.5,120794.30000000447,120483.16,120491.40000000596,120499.706,120799.797,,34,that
screen,html.Screen,2_1_0_1_35,2022-02-03T15:36:36.125Z,,,,,,,,,,,,,,,,,53,,,,,,,,,,,,,,320.4030000029743,,response,,,,99,,,,,,,Space,keypress(Space),,,,,,,,---- -- ----- -- ------ - ------- --- ----------<br>------------- ------ ------ ---- ---- ------- ----- -- ----<br>-------- ------- -- ---------- --- - --- ----- ----- ----<br>---- --- --- ----- --- ---- ---- matters ----- ---- -------<br>--- --- -- ----- -- --- ---- -- --- ---- -- ------ ------<br>--- ----- -- ----,121121.40000000596,121120.20000000298,120783.238,120795.80000000447,120799.797,121133.164,,35,matters
screen,html.Screen,2_1_0_1_36,2022-02-03T15:36:36.461Z,,,,,,,,,,,,,,,,,53,,,,,,,,,,,,,,323.0360000029759,,response,,,,99,,,,,,,Space,keypress(Space),,,,,,,,"---- -- ----- -- ------ - ------- --- ----------<br>------------- ------ ------ ---- ---- ------- ----- -- ----<br>-------- ------- -- ---------- --- - --- ----- ----- ----<br>---- --- --- ----- --- ---- ---- ------- most, ---- -------<br>--- --- -- ----- -- --- ---- -- --- ---- -- ------ ------<br>--- ----- -- ----",121457.60000000149,121456.20000000298,121116.636,121121.80000000447,121133.164,121466.587,,36,"most,"
screen,html.Screen,2_1_0_1_37,2022-02-03T15:36:36.767Z,,,,,,,,,,,,,,,,,53,,,,,,,,,,,,,,295.2130000044708,,response,,,,99,,,,,,,Space,keypress(Space),,,,,,,,---- -- ----- -- ------ - ------- --- ----------<br>------------- ------ ------ ---- ---- ------- ----- -- ----<br>-------- ------- -- ---------- --- - --- ----- ----- ----<br>---- --- --- ----- --- ---- ---- ------- ----- it's -------<br>--- --- -- ----- -- --- ---- -- --- ---- -- ------ ------<br>--- ----- -- ----,121763.20000000298,121761.80000000447,121449.975,121457.90000000596,121466.587,121766.668,,37,it's
screen,html.Screen,2_1_0_1_38,2022-02-03T15:36:37.092Z,,,,,,,,,,,,,,,,,53,,,,,,,,,,,,,,320.932000001485,,response,,,,99,,,,,,,Space,keypress(Space),,,,,,,,---- -- ----- -- ------ - ------- --- ----------<br>------------- ------ ------ ---- ---- ------- ----- -- ----<br>-------- ------- -- ---------- --- - --- ----- ----- ----<br>---- --- --- ----- --- ---- ---- ------- ----- ---- whether<br>--- --- -- ----- -- --- ---- -- --- ---- -- ------ ------<br>--- ----- -- ----,122088.80000000447,122087.60000000149,121750.1,121763.5,121766.668,122100.161,,38,whether
screen,html.Screen,2_1_0_1_39,2022-02-03T15:36:37.427Z,,,,,,,,,,,,,,,,,53,,,,,,,,,,,,,,322.43900000149733,,response,,,,99,,,,,,,Space,keypress(Space),,,,,,,,---- -- ----- -- ------ - ------- --- ----------<br>------------- ------ ------ ---- ---- ------- ----- -- ----<br>-------- ------- -- ---------- --- - --- ----- ----- ----<br>---- --- --- ----- --- ---- ---- ------- ----- ---- -------<br>you --- -- ----- -- --- ---- -- --- ---- -- ------ ------<br>--- ----- -- ----,122424,122422.60000000149,122083.52,122089.20000000298,122100.161,122433.55,,39,you
screen,html.Screen,2_1_0_1_40,2022-02-03T15:36:37.744Z,,,,,,,,,,,,,,,,,53,,,,,,,,,,,,,,305.9499999999971,,response,,,,99,,,,,,,Space,keypress(Space),,,,,,,,---- -- ----- -- ------ - ------- --- ----------<br>------------- ------ ------ ---- ---- ------- ----- -- ----<br>-------- ------- -- ---------- --- - --- ----- ----- ----<br>---- --- --- ----- --- ---- ---- ------- ----- ---- -------<br>--- are -- ----- -- --- ---- -- --- ---- -- ------ ------<br>--- ----- -- ----,122740.70000000298,122739.5,122416.902,122424.20000000298,122433.55,122750.201,,40,are
screen,html.Screen,2_1_0_1_41,2022-02-03T15:36:38.060Z,,,,,,,,,,,,,,,,,53,,,,,,,,,,,,,,304.9990000029793,,response,,,,99,,,,,,,Space,keypress(Space),,,,,,,,---- -- ----- -- ------ - ------- --- ----------<br>------------- ------ ------ ---- ---- ------- ----- -- ----<br>-------- ------- -- ---------- --- - --- ----- ----- ----<br>---- --- --- ----- --- ---- ---- ------- ----- ---- -------<br>--- --- as ----- -- --- ---- -- --- ---- -- ------ ------<br>--- ----- -- ----,123056.60000000149,123055.20000000298,122733.579,122740.90000000596,122750.201,123066.959,,41,as
screen,html.Screen,2_1_0_1_42,2022-02-03T15:36:38.334Z,,,,,,,,,,,,,,,,,53,,,,,,,,,,,,,,262.3410000044678,,response,,,,99,,,,,,,Space,keypress(Space),,,,,,,,---- -- ----- -- ------ - ------- --- ----------<br>------------- ------ ------ ---- ---- ------- ----- -- ----<br>-------- ------- -- ---------- --- - --- ----- ----- ----<br>---- --- --- ----- --- ---- ---- ------- ----- ---- -------<br>--- --- -- close -- --- ---- -- --- ---- -- ------ ------<br>--- ----- -- ----,123330.5,123329.30000000447,123050.409,123056.80000000447,123066.959,123333.7,,42,close
screen,html.Screen,2_1_0_1_43,2022-02-03T15:36:38.651Z,,,,,,,,,,,,,,,,,53,,,,,,,,,,,,,,312.400000001493,,response,,,,99,,,,,,,Space,keypress(Space),,,,,,,,---- -- ----- -- ------ - ------- --- ----------<br>------------- ------ ------ ---- ---- ------- ----- -- ----<br>-------- ------- -- ---------- --- - --- ----- ----- ----<br>---- --- --- ----- --- ---- ---- ------- ----- ---- -------<br>--- --- -- ----- as --- ---- -- --- ---- -- ------ ------<br>--- ----- -- ----,123647.40000000596,123646.10000000149,123317.112,123330.70000000298,123333.7,123650.409,,43,as
screen,html.Screen,2_1_0_1_44,2022-02-03T15:36:38.945Z,,,,,,,,,,,,,,,,,53,,,,,,,,,,,,,,289.9910000059608,,response,,,,99,,,,,,,Space,keypress(Space),,,,,,,,---- -- ----- -- ------ - ------- --- ----------<br>------------- ------ ------ ---- ---- ------- ----- -- ----<br>-------- ------- -- ---------- --- - --- ----- ----- ----<br>---- --- --- ----- --- ---- ---- ------- ----- ---- -------<br>--- --- -- ----- -- you ---- -- --- ---- -- ------ ------<br>--- ----- -- ----,123941.70000000298,123940.40000000596,123633.898,123647.70000000298,123650.409,123950.521,,44,you
screen,html.Screen,2_1_0_1_45,2022-02-03T15:36:39.251Z,,,,,,,,,,,,,,,,,53,,,,,,,,,,,,,,295.47900000000664,,response,,,,99,,,,,,,Space,keypress(Space),,,,,,,,---- -- ----- -- ------ - ------- --- ----------<br>------------- ------ ------ ---- ---- ------- ----- -- ----<br>-------- ------- -- ---------- --- - --- ----- ----- ----<br>---- --- --- ----- --- ---- ---- ------- ----- ---- -------<br>--- --- -- ----- -- --- want -- --- ---- -- ------ ------<br>--- ----- -- ----,124247.40000000596,124246,123933.892,123941.80000000447,123950.521,124250.569,,45,want
screen,html.Screen,2_1_0_1_46,2022-02-03T15:36:39.557Z,,,,,,,,,,,,,,,,,53,,,,,,,,,,,,,,301.93099999999686,,response,,,,99,,,,,,,Space,keypress(Space),,,,,,,,---- -- ----- -- ------ - ------- --- ----------<br>------------- ------ ------ ---- ---- ------- ----- -- ----<br>-------- ------- -- ---------- --- - --- ----- ----- ----<br>---- --- --- ----- --- ---- ---- ------- ----- ---- -------<br>--- --- -- ----- -- --- ---- to --- ---- -- ------ ------<br>--- ----- -- ----,124553.80000000447,124552.5,124233.978,124247.70000000298,124250.569,124567.365,,46,to
screen,html.Screen,2_1_0_1_47,2022-02-03T15:36:39.862Z,,,,,,,,,,,,,,,,,53,,,,,,,,,,,,,,289.835000002975,,response,,,,99,,,,,,,Space,keypress(Space),,,,,,,,"---- -- ----- -- ------ - ------- --- ----------<br>------------- ------ ------ ---- ---- ------- ----- -- ----<br>-------- ------- -- ---------- --- - --- ----- ----- ----<br>---- --- --- ----- --- ---- ---- ------- ----- ---- -------<br>--- --- -- ----- -- --- ---- -- be, ---- -- ------ ------<br>--- ----- -- ----",124858.40000000596,124857.20000000298,124550.676,124554,124567.365,124867.424,,47,"be,"
screen,html.Screen,2_1_0_1_48,2022-02-03T15:36:40.178Z,,,,,,,,,,,,,,,,,53,,,,,,,,,,,,,,305.3760000044713,,response,,,,99,,,,,,,Space,keypress(Space),,,,,,,,---- -- ----- -- ------ - ------- --- ----------<br>------------- ------ ------ ---- ---- ------- ----- -- ----<br>-------- ------- -- ---------- --- - --- ----- ----- ----<br>---- --- --- ----- --- ---- ---- ------- ----- ---- -------<br>--- --- -- ----- -- --- ---- -- --- even -- ------ ------<br>--- ----- -- ----,125174.20000000298,125172.80000000447,124850.768,124858.60000000149,124867.424,125184.147,,48,even
screen,html.Screen,2_1_0_1_49,2022-02-03T15:36:40.535Z,,,,,,,,,,,,,,,,,53,,,,,,,,,,,,,,345.25300000596326,,response,,,,99,,,,,,,Space,keypress(Space),,,,,,,,---- -- ----- -- ------ - ------- --- ----------<br>------------- ------ ------ ---- ---- ------- ----- -- ----<br>-------- ------- -- ---------- --- - --- ----- ----- ----<br>---- --- --- ----- --- ---- ---- ------- ----- ---- -------<br>--- --- -- ----- -- --- ---- -- --- ---- if ------ ------<br>--- ----- -- ----,125531.5,125529.40000000596,125167.508,125174.40000000596,125184.147,125534.18,,49,if
screen,html.Screen,2_1_0_1_50,2022-02-03T15:36:40.799Z,,,,,,,,,,,,,,,,,53,,,,,,,,,,,,,,260.22000000596745,,response,,,,99,,,,,,,Space,keypress(Space),,,,,,,,---- -- ----- -- ------ - ------- --- ----------<br>------------- ------ ------ ---- ---- ------- ----- -- ----<br>-------- ------- -- ---------- --- - --- ----- ----- ----<br>---- --- --- ----- --- ---- ---- ------- ----- ---- -------<br>--- --- -- ----- -- --- ---- -- --- ---- -- that's ------<br>--- ----- -- ----,125795.70000000298,125794.40000000596,125517.731,125531.90000000596,125534.18,125800.882,,50,that's
screen,html.Screen,2_1_0_1_51,2022-02-03T15:36:41.186Z,,,,,,,,,,,,,,,,,53,,,,,,,,,,,,,,380.41800000447256,,response,,,,99,,,,,,,Space,keypress(Space),,,,,,,,---- -- ----- -- ------ - ------- --- ----------<br>------------- ------ ------ ---- ---- ------- ----- -- ----<br>-------- ------- -- ---------- --- - --- ----- ----- ----<br>---- --- --- ----- --- ---- ---- ------- ----- ---- -------<br>--- --- -- ----- -- --- ---- -- --- ---- -- ------ really<br>--- ----- -- ----,126182.40000000596,126181.30000000447,125784.337,125795.90000000596,125800.882,126184.36,,51,really
screen,html.Screen,2_1_0_1_52,2022-02-03T15:36:41.522Z,,,,,,,,,,,,,,,,,53,,,,,,,,,,,,,,333.0400000059599,,response,,,,99,,,,,,,Space,keypress(Space),,,,,,,,---- -- ----- -- ------ - ------- --- ----------<br>------------- ------ ------ ---- ---- ------- ----- -- ----<br>-------- ------- -- ---------- --- - --- ----- ----- ----<br>---- --- --- ----- --- ---- ---- ------- ----- ---- -------<br>--- --- -- ----- -- --- ---- -- --- ---- -- ------ ------<br>not ----- -- ----,126518.70000000298,126517.40000000596,126167.702,126182.70000000298,126184.36,126534.495,,52,not
screen,html.Screen,2_1_0_1_53,2022-02-03T15:36:41.838Z,,,,,,,,,,,,,,,,,53,,,,,,,,,,,,,,298.7050000029849,,response,,,,99,,,,,,,Space,keypress(Space),,,,,,,,---- -- ----- -- ------ - ------- --- ----------<br>------------- ------ ------ ---- ---- ------- ----- -- ----<br>-------- ------- -- ---------- --- - --- ----- ----- ----<br>---- --- --- ----- --- ---- ---- ------- ----- ---- -------<br>--- --- -- ----- -- --- ---- -- --- ---- -- ------ ------<br>--- close -- ----,126834.60000000149,126833.20000000298,126517.895,126519.10000000149,126534.495,126851.23,,53,close
screen,html.Screen,2_1_0_1_54,2022-02-03T15:36:42.174Z,,,,,,,,,,,,,,,,,53,,,,,,,,,,,,,,317.8700000014942,,response,,,,99,,,,,,,Space,keypress(Space),,,,,,,,---- -- ----- -- ------ - ------- --- ----------<br>------------- ------ ------ ---- ---- ------- ----- -- ----<br>-------- ------- -- ---------- --- - --- ----- ----- ----<br>---- --- --- ----- --- ---- ---- ------- ----- ---- -------<br>--- --- -- ----- -- --- ---- -- --- ---- -- ------ ------<br>--- ----- at ----,127170.40000000596,127169.10000000149,126834.53,126835.10000000149,126851.23,127184.561,,54,at
screen,html.Screen,2_1_0_1_55,2022-02-03T15:36:42.551Z,,,,,,,,,,,,,,,,,53,,,,,,,,,,,,,,361.5390000014886,,response,,,,99,,,,,,,Space,keypress(Space),,,,,,,,---- -- ----- -- ------ - ------- --- ----------<br>------------- ------ ------ ---- ---- ------- ----- -- ----<br>-------- ------- -- ---------- --- - --- ----- ----- ----<br>---- --- --- ----- --- ---- ---- ------- ----- ---- -------<br>--- --- -- ----- -- --- ---- -- --- ---- -- ------ ------<br>--- ----- -- all.,127547.60000000149,127546.10000000149,127167.977,127170.60000000149,127184.561,127567.983,,55,all.
Item 99,flow.Loop,2_1_0_1,2022-02-03T15:36:42.552Z,,,,,,,,,,,,,,,,,,,,,,,,,,,,,,,22783.256000001493,,completion,,,,,B,,,,,,,,,,,silence,,,,,127548.20000000298,127546.10000000149,104712.865,104714,104762.844,127567.983,,,
Question 1,html.Screen,2_1_0_2,2022-02-03T15:36:47.487Z,,,,,,,,,,,,,,,,,,,,,,,,,,,,true,FALSE,,4914.317000004477,,response,,,,99,B,,,,,,FALSE,click #choice-2,,,,silence,,,,,132483.1000000015,132482.30000000447,127534.704,127548.40000000596,127567.983,132485.689,,,
Question 2,html.Screen,2_1_0_3,2022-02-03T15:36:52.238Z,,,,,,,,,,,,,,,,,,,,,,,,,,,,true,TRUE,,4747.111000004457,,response,,,,99,B,,,,,,TRUE,click #choice-1,,,,silence,,,,,137234.1000000015,137232.80000000447,132469.155,132483.20000000298,132485.689,137236.765,,,
Item 99,flow.Sequence,2_1_0,2022-02-03T15:36:52.238Z,,,,,,,,,,,,,,,,,,,,,,,,,,,,,,,42505.589000004475,,completion,,,,,,,,,,,,,,,,,,,,,137234.5,137232.80000000447,94710.591,94718.70000000298,94727.211,137236.765,,,
Holding screen,html.Screen,2_1_1_0,2022-02-03T15:37:02.227Z,,,,,,,,,,,,,,,,,,,,,,,,,,,,,,,10002.288,,timeout,,,,,,,,,,,,,,,,,,,,,147223.40000000596,147222.409,137220.152,137234.70000000298,137236.765,147239.053,,,
screen,html.Screen,2_1_1_1_0,2022-02-03T15:37:03.132Z,,,,,,,,,,,,,,,,,54,,,,,,,,,,,,,,888.847000005946,,response,,,,100,,,,,,,Space,keypress(Space),,,,,,,,At --- ---- --- ------ ----- ------- ---- -- --- ------- --<br>------- ---------- ------ -- ----- -- ----- -- ---- ------<br>--- ----- --- --- ------ -------- ----- --- ------ ----- --<br>----- ----- ---------- --- --- ------ ------ ---- -- ------<br>------- --- ------ ----- --- ---- ------- -- ---- --- --<br>------- ------,148129,148127.90000000596,147222.409,147223.70000000298,147239.053,148139.273,,0,At
screen,html.Screen,2_1_1_1_1,2022-02-03T15:37:03.519Z,,,,,,,,,,,,,,,,,54,,,,,,,,,,,,,,375.42700000299374,,response,,,,100,,,,,,,Space,keypress(Space),,,,,,,,-- the ---- --- ------ ----- ------- ---- -- --- ------- --<br>------- ---------- ------ -- ----- -- ----- -- ---- ------<br>--- ----- --- --- ------ -------- ----- --- ------ ----- --<br>----- ----- ---------- --- --- ------ ------ ---- -- ------<br>------- --- ------ ----- --- ---- ------- -- ---- --- --<br>------- ------,148515.90000000596,148514.70000000298,148122.656,148129.20000000298,148139.273,148522.692,,1,the
screen,html.Screen,2_1_1_1_2,2022-02-03T15:37:03.958Z,,,,,,,,,,,,,,,,,54,,,,,,,,,,,,,,430.5080000029702,,response,,,,100,,,,,,,Space,keypress(Space),,,,,,,,-- --- time --- ------ ----- ------- ---- -- --- ------- --<br>------- ---------- ------ -- ----- -- ----- -- ---- ------<br>--- ----- --- --- ------ -------- ----- --- ------ ----- --<br>----- ----- ---------- --- --- ------ ------ ---- -- ------<br>------- --- ------ ----- --- ---- ------- -- ---- --- --<br>------- ------,148954.40000000596,148953.20000000298,148506.108,148516.20000000298,148522.692,148956.15,,2,time
screen,html.Screen,2_1_1_1_3,2022-02-03T15:37:04.303Z,,,,,,,,,,,,,,,,,54,,,,,,,,,,,,,,342.3500000000058,,response,,,,100,,,,,,,Space,keypress(Space),,,,,,,,-- --- ---- the ------ ----- ------- ---- -- --- ------- --<br>------- ---------- ------ -- ----- -- ----- -- ---- ------<br>--- ----- --- --- ------ -------- ----- --- ------ ----- --<br>----- ----- ---------- --- --- ------ ------ ---- -- ------<br>------- --- ------ ----- --- ---- ------- -- ---- --- --<br>------- ------,149299.5,149298.5,148939.676,148954.70000000298,148956.15,149306.206,,3,the
screen,html.Screen,2_1_1_1_4,2022-02-03T15:37:04.649Z,,,,,,,,,,,,,,,,,54,,,,,,,,,,,,,,338.49400000297464,,response,,,,100,,,,,,,Space,keypress(Space),,,,,,,,-- --- ---- --- French ----- ------- ---- -- --- ------- --<br>------- ---------- ------ -- ----- -- ----- -- ---- ------<br>--- ----- --- --- ------ -------- ----- --- ------ ----- --<br>----- ----- ---------- --- --- ------ ------ ---- -- ------<br>------- --- ------ ----- --- ---- ------- -- ---- --- --<br>------- ------,149645.70000000298,149644.70000000298,149289.604,149299.80000000447,149306.206,149656.297,,4,French
screen,html.Screen,2_1_1_1_5,2022-02-03T15:37:04.976Z,,,,,,,,,,,,,,,,,54,,,,,,,,,,,,,,315.1030000059691,,response,,,,100,,,,,,,Space,keypress(Space),,,,,,,,-- --- ---- --- ------ crown ------- ---- -- --- ------- --<br>------- ---------- ------ -- ----- -- ----- -- ---- ------<br>--- ----- --- --- ------ -------- ----- --- ------ ----- --<br>----- ----- ---------- --- --- ------ ------ ---- -- ------<br>------- --- ------ ----- --- ---- ------- -- ---- --- --<br>------- ------,149972.5,149971.40000000596,149639.68,149645.90000000596,149656.297,149989.758,,5,crown
screen,html.Screen,2_1_1_1_6,2022-02-03T15:37:05.301Z,,,,,,,,,,,,,,,,,54,,,,,,,,,,,,,,306.74199999999837,,response,,,,100,,,,,,,Space,keypress(Space),,,,,,,,-- --- ---- --- ------ ----- secured ---- -- --- ------- --<br>------- ---------- ------ -- ----- -- ----- -- ---- ------<br>--- ----- --- --- ------ -------- ----- --- ------ ----- --<br>----- ----- ---------- --- --- ------ ------ ---- -- ------<br>------- --- ------ ----- --- ---- ------- -- ---- --- --<br>------- ------,150297.70000000298,150296.5,149973.123,149972.80000000447,149989.758,150306.503,,6,secured
screen,html.Screen,2_1_1_1_7,2022-02-03T15:37:05.637Z,,,,,,,,,,,,,,,,,54,,,,,,,,,,,,,,325.997000000003,,response,,,,100,,,,,,,Space,keypress(Space),,,,,,,,-- --- ---- --- ------ ----- ------- much -- --- ------- --<br>------- ---------- ------ -- ----- -- ----- -- ---- ------<br>--- ----- --- --- ------ -------- ----- --- ------ ----- --<br>----- ----- ---------- --- --- ------ ------ ---- -- ------<br>------- --- ------ ----- --- ---- ------- -- ---- --- --<br>------- ------,150633.70000000298,150632.5,150289.773,150298,150306.503,150639.814,,7,much
screen,html.Screen,2_1_1_1_8,2022-02-03T15:37:05.974Z,,,,,,,,,,,,,,,,,54,,,,,,,,,,,,,,329.68599999998696,,response,,,,100,,,,,,,Space,keypress(Space),,,,,,,,-- --- ---- --- ------ ----- ------- ---- of --- ------- --<br>------- ---------- ------ -- ----- -- ----- -- ---- ------<br>--- ----- --- --- ------ -------- ----- --- ------ ----- --<br>----- ----- ---------- --- --- ------ ------ ---- -- ------<br>------- --- ------ ----- --- ---- ------- -- ---- --- --<br>------- ------,150970.70000000298,150969.5,150623.258,150634,150639.814,150973.243,,8,of
screen,html.Screen,2_1_1_1_9,2022-02-03T15:37:06.309Z,,,,,,,,,,,,,,,,,54,,,,,,,,,,,,,,331.35700000150246,,response,,,,100,,,,,,,Space,keypress(Space),,,,,,,,-- --- ---- --- ------ ----- ------- ---- -- its ------- --<br>------- ---------- ------ -- ----- -- ----- -- ---- ------<br>--- ----- --- --- ------ -------- ----- --- ------ ----- --<br>----- ----- ---------- --- --- ------ ------ ---- -- ------<br>------- --- ------ ----- --- ---- ------- -- ---- --- --<br>------- ------,151305.80000000447,151304.6000000015,150956.668,150970.90000000596,150973.243,151323.413,,9,its
screen,html.Screen,2_1_1_1_10,2022-02-03T15:37:06.625Z,,,,,,,,,,,,,,,,,54,,,,,,,,,,,,,,296.8870000044699,,response,,,,100,,,,,,,Space,keypress(Space),,,,,,,,-- --- ---- --- ------ ----- ------- ---- -- --- revenue --<br>------- ---------- ------ -- ----- -- ----- -- ---- ------<br>--- ----- --- --- ------ -------- ----- --- ------ ----- --<br>----- ----- ---------- --- --- ------ ------ ---- -- ------<br>------- --- ------ ----- --- ---- ------- -- ---- --- --<br>------- ------,151621.6000000015,151620.30000000447,151306.765,151306,151323.413,151623.417,,10,revenue
screen,html.Screen,2_1_1_1_11,2022-02-03T15:37:06.962Z,,,,,,,,,,,,,,,,,54,,,,,,,,,,,,,,334.1830000015034,,response,,,,100,,,,,,,Space,keypress(Space),,,,,,,,-- --- ---- --- ------ ----- ------- ---- -- --- ------- by<br>------- ---------- ------ -- ----- -- ----- -- ---- ------<br>--- ----- --- --- ------ -------- ----- --- ------ ----- --<br>----- ----- ---------- --- --- ------ ------ ---- -- ------<br>------- --- ------ ----- --- ---- ------- -- ---- --- --<br>------- ------,151958.80000000447,151957.6000000015,151606.852,151621.90000000596,151623.417,151973.567,,11,by
screen,html.Screen,2_1_1_1_12,2022-02-03T15:37:07.368Z,,,,,,,,,,,,,,,,,54,,,,,,,,,,,,,,390.0330000014801,,response,,,,100,,,,,,,Space,keypress(Space),,,,,,,,-- --- ---- --- ------ ----- ------- ---- -- --- ------- --<br>issuing ---------- ------ -- ----- -- ----- -- ---- ------<br>--- ----- --- --- ------ -------- ----- --- ------ ----- --<br>----- ----- ---------- --- --- ------ ------ ---- -- ------<br>------- --- ------ ----- --- ---- ------- -- ---- --- --<br>------- ------,152364.90000000596,152363.6000000015,151956.93,151959,151973.567,152373.56,,12,issuing
screen,html.Screen,2_1_1_1_13,2022-02-03T15:37:07.735Z,,,,,,,,,,,,,,,,,54,,,,,,,,,,,,,,356.9400000000023,,response,,,,100,,,,,,,Space,keypress(Space),,,,,,,,-- --- ---- --- ------ ----- ------- ---- -- --- ------- --<br>------- government ------ -- ----- -- ----- -- ---- ------<br>--- ----- --- --- ------ -------- ----- --- ------ ----- --<br>----- ----- ---------- --- --- ------ ------ ---- -- ------<br>------- --- ------ ----- --- ---- ------- -- ---- --- --<br>------- ------,152731.90000000596,152730.5,152356.957,152365.1000000015,152373.56,152740.296,,13,government
screen,html.Screen,2_1_1_1_14,2022-02-03T15:37:08.072Z,,,,,,,,,,,,,,,,,54,,,,,,,,,,,,,,326.90400000297814,,response,,,,100,,,,,,,Space,keypress(Space),,,,,,,,-- --- ---- --- ------ ----- ------- ---- -- --- ------- --<br>------- ---------- bonds. -- ----- -- ----- -- ---- ------<br>--- ----- --- --- ------ -------- ----- --- ------ ----- --<br>----- ----- ---------- --- --- ------ ------ ---- -- ------<br>------- --- ------ ----- --- ---- ------- -- ---- --- --<br>------- ------,153068.40000000596,153067.20000000298,152723.661,152734.20000000298,152740.296,153073.707,,14,bonds.
screen,html.Screen,2_1_1_1_15,2022-02-03T15:37:08.428Z,,,,,,,,,,,,,,,,,54,,,,,,,,,,,,,,349.7930000000051,,response,,,,100,,,,,,,Space,keypress(Space),,,,,,,,-- --- ---- --- ------ ----- ------- ---- -- --- ------- --<br>------- ---------- ------ In ----- -- ----- -- ---- ------<br>--- ----- --- --- ------ -------- ----- --- ------ ----- --<br>----- ----- ---------- --- --- ------ ------ ---- -- ------<br>------- --- ------ ----- --- ---- ------- -- ---- --- --<br>------- ------,153424.90000000596,153423.5,153057.123,153068.70000000298,153073.707,153440.543,,15,In
screen,html.Screen,2_1_1_1_16,2022-02-03T15:37:08.774Z,,,,,,,,,,,,,,,,,54,,,,,,,,,,,,,,328.35700000595534,,response,,,,100,,,,,,,Space,keypress(Space),,,,,,,,"-- --- ---- --- ------ ----- ------- ---- -- --- ------- --<br>------- ---------- ------ -- 1727, -- ----- -- ---- ------<br>--- ----- --- --- ------ -------- ----- --- ------ ----- --<br>----- ----- ---------- --- --- ------ ------ ---- -- ------<br>------- --- ------ ----- --- ---- ------- -- ---- --- --<br>------- ------",153770.40000000596,153768.90000000596,153423.839,153425.1000000015,153440.543,153773.885,,16,"1727,"
screen,html.Screen,2_1_1_1_17,2022-02-03T15:37:09.080Z,,,,,,,,,,,,,,,,,54,,,,,,,,,,,,,,301.2150000014808,,response,,,,100,,,,,,,Space,keypress(Space),,,,,,,,-- --- ---- --- ------ ----- ------- ---- -- --- ------- --<br>------- ---------- ------ -- ----- in ----- -- ---- ------<br>--- ----- --- --- ------ -------- ----- --- ------ ----- --<br>----- ----- ---------- --- --- ------ ------ ---- -- ------<br>------- --- ------ ----- --- ---- ------- -- ---- --- --<br>------- ------,154076.40000000596,154075.1000000015,153757.298,153770.80000000447,153773.885,154090.701,,17,in
screen,html.Screen,2_1_1_1_18,2022-02-03T15:37:09.405Z,,,,,,,,,,,,,,,,,54,,,,,,,,,,,,,,310.0990000044694,,response,,,,100,,,,,,,Space,keypress(Space),,,,,,,,-- --- ---- --- ------ ----- ------- ---- -- --- ------- --<br>------- ---------- ------ -- ----- -- order -- ---- ------<br>--- ----- --- --- ------ -------- ----- --- ------ ----- --<br>----- ----- ---------- --- --- ------ ------ ---- -- ------<br>------- --- ------ ----- --- ---- ------- -- ---- --- --<br>------- ------,154402,154400.80000000447,154074.07,154076.6000000015,154090.701,154407.338,,18,order
screen,html.Screen,2_1_1_1_19,2022-02-03T15:37:09.710Z,,,,,,,,,,,,,,,,,54,,,,,,,,,,,,,,298.3620000029914,,response,,,,100,,,,,,,Space,keypress(Space),,,,,,,,-- --- ---- --- ------ ----- ------- ---- -- --- ------- --<br>------- ---------- ------ -- ----- -- ----- to ---- ------<br>--- ----- --- --- ------ -------- ----- --- ------ ----- --<br>----- ----- ---------- --- --- ------ ------ ---- -- ------<br>------- --- ------ ----- --- ---- ------- -- ---- --- --<br>------- ------,154706.90000000596,154705.70000000298,154390.776,154402.20000000298,154407.338,154724.103,,19,to
screen,html.Screen,2_1_1_1_20,2022-02-03T15:37:10.027Z,,,,,,,,,,,,,,,,,54,,,,,,,,,,,,,,298.59700000297744,,response,,,,100,,,,,,,Space,keypress(Space),,,,,,,,-- --- ---- --- ------ ----- ------- ---- -- --- ------- --<br>------- ---------- ------ -- ----- -- ----- -- save ------<br>--- ----- --- --- ------ -------- ----- --- ------ ----- --<br>----- ----- ---------- --- --- ------ ------ ---- -- ------<br>------- --- ------ ----- --- ---- ------- -- ---- --- --<br>------- ------,155023.80000000447,155022.70000000298,154707.411,154707.1000000015,154724.103,155040.937,,20,save
screen,html.Screen,2_1_1_1_21,2022-02-03T15:37:10.383Z,,,,,,,,,,,,,,,,,54,,,,,,,,,,,,,,337.06299999999464,,response,,,,100,,,,,,,Space,keypress(Space),,,,,,,,"-- --- ---- --- ------ ----- ------- ---- -- --- ------- --<br>------- ---------- ------ -- ----- -- ----- -- ---- money,<br>--- ----- --- --- ------ -------- ----- --- ------ ----- --<br>----- ----- ---------- --- --- ------ ------ ---- -- ------<br>------- --- ------ ----- --- ---- ------- -- ---- --- --<br>------- ------",155379.40000000596,155378,155024.148,155024.20000000298,155040.937,155390.955,,21,"money,"
screen,html.Screen,2_1_1_1_22,2022-02-03T15:37:10.719Z,,,,,,,,,,,,,,,,,54,,,,,,,,,,,,,,323.0450000000128,,response,,,,100,,,,,,,Space,keypress(Space),,,,,,,,-- --- ---- --- ------ ----- ------- ---- -- --- ------- --<br>------- ---------- ------ -- ----- -- ----- -- ---- ------<br>the ----- --- --- ------ -------- ----- --- ------ ----- --<br>----- ----- ---------- --- --- ------ ------ ---- -- ------<br>------- --- ------ ----- --- ---- ------- -- ---- --- --<br>------- ------,155715.30000000447,155714,155374.293,155379.70000000298,155390.955,155724.32,,22,the
screen,html.Screen,2_1_1_1_23,2022-02-03T15:37:11.046Z,,,,,,,,,,,,,,,,,54,,,,,,,,,,,,,,316.48000000446336,,response,,,,100,,,,,,,Space,keypress(Space),,,,,,,,-- --- ---- --- ------ ----- ------- ---- -- --- ------- --<br>------- ---------- ------ -- ----- -- ----- -- ---- ------<br>--- state --- --- ------ -------- ----- --- ------ ----- --<br>----- ----- ---------- --- --- ------ ------ ---- -- ------<br>------- --- ------ ----- --- ---- ------- -- ---- --- --<br>------- ------,156042.30000000447,156040.80000000447,155707.649,155715.6000000015,155724.32,156057.81,,23,state
screen,html.Screen,2_1_1_1_24,2022-02-03T15:37:11.371Z,,,,,,,,,,,,,,,,,54,,,,,,,,,,,,,,308.4900000044727,,response,,,,100,,,,,,,Space,keypress(Space),,,,,,,,-- --- ---- --- ------ ----- ------- ---- -- --- ------- --<br>------- ---------- ------ -- ----- -- ----- -- ---- ------<br>--- ----- cut --- ------ -------- ----- --- ------ ----- --<br>----- ----- ---------- --- --- ------ ------ ---- -- ------<br>------- --- ------ ----- --- ---- ------- -- ---- --- --<br>------- ------,156367.40000000596,156366.30000000447,156041.158,156042.5,156057.81,156374.46,,24,cut
screen,html.Screen,2_1_1_1_25,2022-02-03T15:37:11.656Z,,,,,,,,,,,,,,,,,54,,,,,,,,,,,,,,276.4400000059686,,response,,,,100,,,,,,,Space,keypress(Space),,,,,,,,-- --- ---- --- ------ ----- ------- ---- -- --- ------- --<br>------- ---------- ------ -- ----- -- ----- -- ---- ------<br>--- ----- --- the ------ -------- ----- --- ------ ----- --<br>----- ----- ---------- --- --- ------ ------ ---- -- ------<br>------- --- ------ ----- --- ---- ------- -- ---- --- --<br>------- ------,156652.20000000298,156650.90000000596,156357.946,156367.70000000298,156374.46,156657.834,,25,the
screen,html.Screen,2_1_1_1_26,2022-02-03T15:37:11.970Z,,,,,,,,,,,,,,,,,54,,,,,,,,,,,,,,308.36600000297767,,response,,,,100,,,,,,,Space,keypress(Space),,,,,,,,-- --- ---- --- ------ ----- ------- ---- -- --- ------- --<br>------- ---------- ------ -- ----- -- ----- -- ---- ------<br>--- ----- --- --- bonds' -------- ----- --- ------ ----- --<br>----- ----- ---------- --- --- ------ ------ ---- -- ------<br>------- --- ------ ----- --- ---- ------- -- ---- --- --<br>------- ------,156966.90000000596,156966.20000000298,156641.415,156652.5,156657.834,156974.504,,26,bonds'
screen,html.Screen,2_1_1_1_27,2022-02-03T15:37:12.246Z,,,,,,,,,,,,,,,,,54,,,,,,,,,,,,,,266.8960000059742,,response,,,,100,,,,,,,Space,keypress(Space),,,,,,,,-- --- ---- --- ------ ----- ------- ---- -- --- ------- --<br>------- ---------- ------ -- ----- -- ----- -- ---- ------<br>--- ----- --- --- ------ interest ----- --- ------ ----- --<br>----- ----- ---------- --- --- ------ ------ ---- -- ------<br>------- --- ------ ----- --- ---- ------- -- ---- --- --<br>------- ------,157242.20000000298,157241.40000000596,156958.016,156967.1000000015,156974.504,157257.932,,27,interest
screen,html.Screen,2_1_1_1_28,2022-02-03T15:37:12.583Z,,,,,,,,,,,,,,,,,54,,,,,,,,,,,,,,319.76800000297953,,response,,,,100,,,,,,,Space,keypress(Space),,,,,,,,-- --- ---- --- ------ ----- ------- ---- -- --- ------- --<br>------- ---------- ------ -- ----- -- ----- -- ---- ------<br>--- ----- --- --- ------ -------- rate. --- ------ ----- --<br>----- ----- ---------- --- --- ------ ------ ---- -- ------<br>------- --- ------ ----- --- ---- ------- -- ---- --- --<br>------- ------,157579.1000000015,157577.70000000298,157241.274,157242.40000000596,157257.932,157591.33,,28,rate.
screen,html.Screen,2_1_1_1_29,2022-02-03T15:37:12.897Z,,,,,,,,,,,,,,,,,54,,,,,,,,,,,,,,301.2700000015029,,response,,,,100,,,,,,,Space,keypress(Space),,,,,,,,-- --- ---- --- ------ ----- ------- ---- -- --- ------- --<br>------- ---------- ------ -- ----- -- ----- -- ---- ------<br>--- ----- --- --- ------ -------- ----- The ------ ----- --<br>----- ----- ---------- --- --- ------ ------ ---- -- ------<br>------- --- ------ ----- --- ---- ------- -- ---- --- --<br>------- ------,157893.90000000596,157892.6000000015,157574.658,157579.30000000447,157591.33,157908.229,,29,The
screen,html.Screen,2_1_1_1_30,2022-02-03T15:37:13.255Z,,,,,,,,,,,,,,,,,54,,,,,,,,,,,,,,342.57100000447826,,response,,,,100,,,,,,,Space,keypress(Space),,,,,,,,-- --- ---- --- ------ ----- ------- ---- -- --- ------- --<br>------- ---------- ------ -- ----- -- ----- -- ---- ------<br>--- ----- --- --- ------ -------- ----- --- market ----- --<br>----- ----- ---------- --- --- ------ ------ ---- -- ------<br>------- --- ------ ----- --- ---- ------- -- ---- --- --<br>------- ------,158251.70000000298,158250.80000000447,157891.603,157894.1000000015,157908.229,158258.163,,30,market
screen,html.Screen,2_1_1_1_31,2022-02-03T15:37:13.602Z,,,,,,,,,,,,,,,,,54,,,,,,,,,,,,,,339.23700000596,,response,,,,100,,,,,,,Space,keypress(Space),,,,,,,,-- --- ---- --- ------ ----- ------- ---- -- --- ------- --<br>------- ---------- ------ -- ----- -- ----- -- ---- ------<br>--- ----- --- --- ------ -------- ----- --- ------ value --<br>----- ----- ---------- --- --- ------ ------ ---- -- ------<br>------- --- ------ ----- --- ---- ------- -- ---- --- --<br>------- ------,158598.6000000015,158597.40000000596,158241.681,158252,158258.163,158608.297,,31,value
screen,html.Screen,2_1_1_1_32,2022-02-03T15:37:14.051Z,,,,,,,,,,,,,,,,,54,,,,,,,,,,,,,,437.80300000149873,,response,,,,100,,,,,,,Space,keypress(Space),,,,,,,,-- --- ---- --- ------ ----- ------- ---- -- --- ------- --<br>------- ---------- ------ -- ----- -- ----- -- ---- ------<br>--- ----- --- --- ------ -------- ----- --- ------ ----- of<br>----- ----- ---------- --- --- ------ ------ ---- -- ------<br>------- --- ------ ----- --- ---- ------- -- ---- --- --<br>------- ------,159047.40000000596,159046.1000000015,158591.587,158598.90000000596,158608.297,159058.341,,32,of
screen,html.Screen,2_1_1_1_33,2022-02-03T15:37:14.477Z,,,,,,,,,,,,,,,,,54,,,,,,,,,,,,,,414.1590000000142,,response,,,,100,,,,,,,Space,keypress(Space),,,,,,,,-- --- ---- --- ------ ----- ------- ---- -- --- ------- --<br>------- ---------- ------ -- ----- -- ----- -- ---- ------<br>--- ----- --- --- ------ -------- ----- --- ------ ----- --<br>these ----- ---------- --- --- ------ ------ ---- -- ------<br>------- --- ------ ----- --- ---- ------- -- ---- --- --<br>------- ------,159473.70000000298,159472.5,159041.709,159047.6000000015,159058.341,159491.926,,33,these
screen,html.Screen,2_1_1_1_34,2022-02-03T15:37:14.843Z,,,,,,,,,,,,,,,,,54,,,,,,,,,,,,,,346.57399999999325,,response,,,,100,,,,,,,Space,keypress(Space),,,,,,,,-- --- ---- --- ------ ----- ------- ---- -- --- ------- --<br>------- ---------- ------ -- ----- -- ----- -- ---- ------<br>--- ----- --- --- ------ -------- ----- --- ------ ----- --<br>----- bonds ---------- --- --- ------ ------ ---- -- ------<br>------- --- ------ ----- --- ---- ------- -- ---- --- --<br>------- ------,159839.1000000015,159838.5,159475.136,159473.90000000596,159491.926,159841.842,,34,bonds
screen,html.Screen,2_1_1_1_35,2022-02-03T15:37:15.242Z,,,,,,,,,,,,,,,,,54,,,,,,,,,,,,,,395.2580000014859,,response,,,,100,,,,,,,Space,keypress(Space),,,,,,,,"-- --- ---- --- ------ ----- ------- ---- -- --- ------- --<br>------- ---------- ------ -- ----- -- ----- -- ---- ------<br>--- ----- --- --- ------ -------- ----- --- ------ ----- --<br>----- ----- plummeted, --- --- ------ ------ ---- -- ------<br>------- --- ------ ----- --- ---- ------- -- ---- --- --<br>------- ------",160238.5,160237.1000000015,159825.35,159839.20000000298,159841.842,160241.987,,35,"plummeted,"
screen,html.Screen,2_1_1_1_36,2022-02-03T15:37:15.609Z,,,,,,,,,,,,,,,,,54,,,,,,,,,,,,,,362.7130000029865,,response,,,,100,,,,,,,Space,keypress(Space),,,,,,,,-- --- ---- --- ------ ----- ------- ---- -- --- ------- --<br>------- ---------- ------ -- ----- -- ----- -- ---- ------<br>--- ----- --- --- ------ -------- ----- --- ------ ----- --<br>----- ----- ---------- and --- ------ ------ ---- -- ------<br>------- --- ------ ----- --- ---- ------- -- ---- --- --<br>------- ------,160605.90000000596,160604.70000000298,160225.268,160239,160241.987,160608.795,,36,and
screen,html.Screen,2_1_1_1_37,2022-02-03T15:37:15.934Z,,,,,,,,,,,,,,,,,54,,,,,,,,,,,,,,321.2049999999872,,response,,,,100,,,,,,,Space,keypress(Space),,,,,,,,-- --- ---- --- ------ ----- ------- ---- -- --- ------- --<br>------- ---------- ------ -- ----- -- ----- -- ---- ------<br>--- ----- --- --- ------ -------- ----- --- ------ ----- --<br>----- ----- ---------- --- the ------ ------ ---- -- ------<br>------- --- ------ ----- --- ---- ------- -- ---- --- --<br>------- ------,160930.6000000015,160930,160592.191,160606.20000000298,160608.795,160942.107,,37,the
screen,html.Screen,2_1_1_1_38,2022-02-03T15:37:16.353Z,,,,,,,,,,,,,,,,,54,,,,,,,,,,,,,,406.0930000029912,,response,,,,100,,,,,,,Space,keypress(Space),,,,,,,,-- --- ---- --- ------ ----- ------- ---- -- --- ------- --<br>------- ---------- ------ -- ----- -- ----- -- ---- ------<br>--- ----- --- --- ------ -------- ----- --- ------ ----- --<br>----- ----- ---------- --- --- market ------ ---- -- ------<br>------- --- ------ ----- --- ---- ------- -- ---- --- --<br>------- ------,161349.5,161348.20000000298,160925.503,160930.80000000447,160942.107,161358.951,,38,market
screen,html.Screen,2_1_1_1_39,2022-02-03T15:37:16.911Z,,,,,,,,,,,,,,,,,54,,,,,,,,,,,,,,548.1490000014892,,response,,,,100,,,,,,,Space,keypress(Space),,,,,,,,-- --- ---- --- ------ ----- ------- ---- -- --- ------- --<br>------- ---------- ------ -- ----- -- ----- -- ---- ------<br>--- ----- --- --- ------ -------- ----- --- ------ ----- --<br>----- ----- ---------- --- --- ------ became ---- -- ------<br>------- --- ------ ----- --- ---- ------- -- ---- --- --<br>------- ------,161907.90000000596,161907.1000000015,161342.155,161349.90000000596,161358.951,161909.004,,39,became
screen,html.Screen,2_1_1_1_40,2022-02-03T15:37:17.402Z,,,,,,,,,,,,,,,,,54,,,,,,,,,,,,,,488.09600000150385,,response,,,,100,,,,,,,Space,keypress(Space),,,,,,,,-- --- ---- --- ------ ----- ------- ---- -- --- ------- --<br>------- ---------- ------ -- ----- -- ----- -- ---- ------<br>--- ----- --- --- ------ -------- ----- --- ------ ----- --<br>----- ----- ---------- --- --- ------ ------ wary -- ------<br>------- --- ------ ----- --- ---- ------- -- ---- --- --<br>------- ------,162398.5,162397.1000000015,161892.497,161908.1000000015,161909.004,162409.15,,40,wary
screen,html.Screen,2_1_1_1_41,2022-02-03T15:37:17.799Z,,,,,,,,,,,,,,,,,54,,,,,,,,,,,,,,384.7500000059663,,response,,,,100,,,,,,,Space,keypress(Space),,,,,,,,-- --- ---- --- ------ ----- ------- ---- -- --- ------- --<br>------- ---------- ------ -- ----- -- ----- -- ---- ------<br>--- ----- --- --- ------ -------- ----- --- ------ ----- --<br>----- ----- ---------- --- --- ------ ------ ---- of ------<br>------- --- ------ ----- --- ---- ------- -- ---- --- --<br>------- ------,162795.20000000298,162793.90000000596,162392.463,162398.90000000596,162409.15,162809.182,,41,of
screen,html.Screen,2_1_1_1_42,2022-02-03T15:37:18.268Z,,,,,,,,,,,,,,,,,54,,,,,,,,,,,,,,454.01800000297953,,response,,,,100,,,,,,,Space,keypress(Space),,,,,,,,-- --- ---- --- ------ ----- ------- ---- -- --- ------- --<br>------- ---------- ------ -- ----- -- ----- -- ---- ------<br>--- ----- --- --- ------ -------- ----- --- ------ ----- --<br>----- ----- ---------- --- --- ------ ------ ---- -- French<br>------- --- ------ ----- --- ---- ------- -- ---- --- --<br>------- ------,163265,163263.20000000298,162792.674,162795.40000000596,162809.182,163275.996,,42,French
screen,html.Screen,2_1_1_1_43,2022-02-03T15:37:18.634Z,,,,,,,,,,,,,,,,,54,,,,,,,,,,,,,,353.6040000014764,,response,,,,100,,,,,,,Space,keypress(Space),,,,,,,,-- --- ---- --- ------ ----- ------- ---- -- --- ------- --<br>------- ---------- ------ -- ----- -- ----- -- ---- ------<br>--- ----- --- --- ------ -------- ----- --- ------ ----- --<br>----- ----- ---------- --- --- ------ ------ ---- -- ------<br>credit. --- ------ ----- --- ---- ------- -- ---- --- --<br>------- ------,163630.70000000298,163629.6000000015,163259.296,163265.40000000596,163275.996,163642.847,,43,credit.
screen,html.Screen,2_1_1_1_44,2022-02-03T15:37:18.928Z,,,,,,,,,,,,,,,,,54,,,,,,,,,,,,,,280.65299999999115,,response,,,,100,,,,,,,Space,keypress(Space),,,,,,,,-- --- ---- --- ------ ----- ------- ---- -- --- ------- --<br>------- ---------- ------ -- ----- -- ----- -- ---- ------<br>--- ----- --- --- ------ -------- ----- --- ------ ----- --<br>----- ----- ---------- --- --- ------ ------ ---- -- ------<br>------- The ------ ----- --- ---- ------- -- ---- --- --<br>------- ------,163924.5,163923.5,163626.122,163631,163642.847,163926.101,,44,The
screen,html.Screen,2_1_1_1_45,2022-02-03T15:37:19.165Z,,,,,,,,,,,,,,,,,54,,,,,,,,,,,,,,233.8990000000049,,response,,,,100,,,,,,,Space,keypress(Space),,,,,,,,-- --- ---- --- ------ ----- ------- ---- -- --- ------- --<br>------- ---------- ------ -- ----- -- ----- -- ---- ------<br>--- ----- --- --- ------ -------- ----- --- ------ ----- --<br>----- ----- ---------- --- --- ------ ------ ---- -- ------<br>------- --- French ----- --- ---- ------- -- ---- --- --<br>------- ------,164161.5,164160,163909.594,163924.70000000298,163926.101,164176.29,,45,French
screen,html.Screen,2_1_1_1_46,2022-02-03T15:37:19.366Z,,,,,,,,,,,,,,,,,54,,,,,,,,,,,,,,185.91000000297208,,response,,,,100,,,,,,,Space,keypress(Space),,,,,,,,-- --- ---- --- ------ ----- ------- ---- -- --- ------- --<br>------- ---------- ------ -- ----- -- ----- -- ---- ------<br>--- ----- --- --- ------ -------- ----- --- ------ ----- --<br>----- ----- ---------- --- --- ------ ------ ---- -- ------<br>------- --- ------ state --- ---- ------- -- ---- --- --<br>------- ------,164362.80000000447,164362.20000000298,164159.515,164161.70000000298,164176.29,164376.29,,46,state
screen,html.Screen,2_1_1_1_47,2022-02-03T15:37:19.582Z,,,,,,,,,,,,,,,,,54,,,,,,,,,,,,,,200.91000000297208,,response,,,,100,,,,,,,Space,keypress(Space),,,,,,,,-- --- ---- --- ------ ----- ------- ---- -- --- ------- --<br>------- ---------- ------ -- ----- -- ----- -- ---- ------<br>--- ----- --- --- ------ -------- ----- --- ------ ----- --<br>----- ----- ---------- --- --- ------ ------ ---- -- ------<br>------- --- ------ ----- was ---- ------- -- ---- --- --<br>------- ------,164578.5,164577.20000000298,164359.598,164363,164376.29,164593.006,,47,was
screen,html.Screen,2_1_1_1_48,2022-02-03T15:37:19.774Z,,,,,,,,,,,,,,,,,54,,,,,,,,,,,,,,176.89400000596652,,response,,,,100,,,,,,,Space,keypress(Space),,,,,,,,-- --- ---- --- ------ ----- ------- ---- -- --- ------- --<br>------- ---------- ------ -- ----- -- ----- -- ---- ------<br>--- ----- --- --- ------ -------- ----- --- ------ ----- --<br>----- ----- ---------- --- --- ------ ------ ---- -- ------<br>------- --- ------ ----- --- left ------- -- ---- --- --<br>------- ------,164771,164769.90000000596,164576.446,164578.80000000447,164593.006,164776.341,,48,left
screen,html.Screen,2_1_1_1_49,2022-02-03T15:37:19.957Z,,,,,,,,,,,,,,,,,54,,,,,,,,,,,,,,176.25900000150432,,response,,,,100,,,,,,,Space,keypress(Space),,,,,,,,-- --- ---- --- ------ ----- ------- ---- -- --- ------- --<br>------- ---------- ------ -- ----- -- ----- -- ---- ------<br>--- ----- --- --- ------ -------- ----- --- ------ ----- --<br>----- ----- ---------- --- --- ------ ------ ---- -- ------<br>------- --- ------ ----- --- ---- without -- ---- --- --<br>------- ------,164953.90000000596,164952.6000000015,164759.697,164771.30000000447,164776.341,164959.717,,49,without
screen,html.Screen,2_1_1_1_50,2022-02-03T15:37:20.164Z,,,,,,,,,,,,,,,,,54,,,,,,,,,,,,,,197.98300000297604,,response,,,,100,,,,,,,Space,keypress(Space),,,,,,,,-- --- ---- --- ------ ----- ------- ---- -- --- ------- --<br>------- ---------- ------ -- ----- -- ----- -- ---- ------<br>--- ----- --- --- ------ -------- ----- --- ------ ----- --<br>----- ----- ---------- --- --- ------ ------ ---- -- ------<br>------- --- ------ ----- --- ---- ------- an ---- --- --<br>------- ------,165160.20000000298,165157.70000000298,164943.127,164954,164959.717,165176.457,,50,an
screen,html.Screen,2_1_1_1_51,2022-02-03T15:37:20.450Z,,,,,,,,,,,,,,,,,54,,,,,,,,,,,,,,267.24300000298535,,response,,,,100,,,,,,,Space,keypress(Space),,,,,,,,-- --- ---- --- ------ ----- ------- ---- -- --- ------- --<br>------- ---------- ------ -- ----- -- ----- -- ---- ------<br>--- ----- --- --- ------ -------- ----- --- ------ ----- --<br>----- ----- ---------- --- --- ------ ------ ---- -- ------<br>------- --- ------ ----- --- ---- ------- -- easy --- --<br>------- ------,165446.80000000447,165443.70000000298,165159.865,165160.6000000015,165176.457,165459.936,,51,easy
screen,html.Screen,2_1_1_1_52,2022-02-03T15:37:20.661Z,,,,,,,,,,,,,,,,,54,,,,,,,,,,,,,,196.26400000299327,,response,,,,100,,,,,,,Space,keypress(Space),,,,,,,,-- --- ---- --- ------ ----- ------- ---- -- --- ------- --<br>------- ---------- ------ -- ----- -- ----- -- ---- ------<br>--- ----- --- --- ------ -------- ----- --- ------ ----- --<br>----- ----- ---------- --- --- ------ ------ ---- -- ------<br>------- --- ------ ----- --- ---- ------- -- ---- way --<br>------- ------,165657.5,165656.20000000298,165443.203,165447,165459.936,165659.9,,52,way
screen,html.Screen,2_1_1_1_53,2022-02-03T15:37:21.037Z,,,,,,,,,,,,,,,,,54,,,,,,,,,,,,,,372.1000000000058,,response,,,,100,,,,,,,Space,keypress(Space),,,,,,,,-- --- ---- --- ------ ----- ------- ---- -- --- ------- --<br>------- ---------- ------ -- ----- -- ----- -- ---- ------<br>--- ----- --- --- ------ -------- ----- --- ------ ----- --<br>----- ----- ---------- --- --- ------ ------ ---- -- ------<br>------- --- ------ ----- --- ---- ------- -- ---- --- of<br>------- ------,166033.70000000298,166032,165643.25,165657.70000000298,165659.9,166043.33,,53,of
screen,html.Screen,2_1_1_1_54,2022-02-03T15:37:21.324Z,,,,,,,,,,,,,,,,,54,,,,,,,,,,,,,,275.7700000015029,,response,,,,100,,,,,,,Space,keypress(Space),,,,,,,,-- --- ---- --- ------ ----- ------- ---- -- --- ------- --<br>------- ---------- ------ -- ----- -- ----- -- ---- ------<br>--- ----- --- --- ------ -------- ----- --- ------ ----- --<br>----- ----- ---------- --- --- ------ ------ ---- -- ------<br>------- --- ------ ----- --- ---- ------- -- ---- --- --<br>raising ------,166320.90000000596,166319.1000000015,166026.822,166034.20000000298,166043.33,166326.705,,54,raising
screen,html.Screen,2_1_1_1_55,2022-02-03T15:37:21.731Z,,,,,,,,,,,,,,,,,54,,,,,,,,,,,,,,398.8950000015029,,response,,,,100,,,,,,,Space,keypress(Space),,,,,,,,-- --- ---- --- ------ ----- ------- ---- -- --- ------- --<br>------- ---------- ------ -- ----- -- ----- -- ---- ------<br>--- ----- --- --- ------ -------- ----- --- ------ ----- --<br>----- ----- ---------- --- --- ------ ------ ---- -- ------<br>------- --- ------ ----- --- ---- ------- -- ---- --- --<br>------- money.,166727.20000000298,166725.6000000015,166310.047,166321.1000000015,166326.705,166743.478,,55,money.
Item 100,flow.Loop,2_1_1_1,2022-02-03T15:37:21.732Z,,,,,,,,,,,,,,,,,,,,,,,,,,,,,,,19486.547000001476,,completion,,,,,B,,,,,,,,,,,silence,,,,,166728.1000000015,166725.6000000015,147222.409,147223.70000000298,147239.053,166743.478,,,
Question 1,html.Screen,2_1_1_2,2022-02-03T15:37:23.854Z,,,,,,,,,,,,,,,,,,,,,,,,,,,,true,TRUE,,2105.7220000029774,,response,,,,100,B,,,,,,TRUE,click #choice-1,,,,silence,,,,,168850.30000000447,168849.20000000298,166726.811,166728.5,166743.478,168860.567,,,
Question 2,html.Screen,2_1_1_3,2022-02-03T15:37:26.541Z,,,,,,,,,,,,,,,,,,,,,,,,,,,,false,FALSE,,2676.63300000297,,response,,,,100,B,,,,,,TRUE,click #choice-1,,,,silence,,,,,171538,171537.20000000298,168843.917,168850.40000000596,168860.567,171544.531,,,
Item 100,flow.Sequence,2_1_1,2022-02-03T15:37:26.542Z,,,,,,,,,,,,,,,,,,,,,,,,,,,,,,,34300.435000002966,,completion,,,,,,,,,,,,,,,,,,,,,171538.20000000298,171537.20000000298,137220.152,137234.6000000015,137236.765,171544.531,,,
End of Practice,html.Page,2_1_2,2022-02-03T15:37:30.536Z,,,,,,,,,,,,,,,,,,,,,,,,,,,,,,,3987.669000002992,,form submission,,,,,,,,,,,,,,,,,,,,,175532.5,175532.20000000298,171527.931,171538.30000000447,171544.531,175545.401,,,
Practice,flow.Sequence,2_1,2022-02-03T15:37:30.536Z,,,,,,,,,,,,,,,,,,,,,,,,,,,,,,,80804.98900000298,,completion,,,,,,,,,,,,,,,,,,,,,175532.6000000015,175532.20000000298,94710.591,94718.70000000298,94727.211,175545.401,,,
Trap_instruction,html.Page,2_2_0,2022-02-03T15:37:34.611Z,,,,,,,,,,,,,,,,,,,,,,,,,,,,,,,4061.5989999999874,,form submission,,,,,,,,,,,,,,,,,,,,,179607.30000000447,179607,175528.892,175532.80000000447,175545.401,179629.706,,,
trap_trial,html.Screen,2_2_1,2022-02-03T15:37:39.929Z,,,,,,,,,,,,,,,,,,,,,,,,,,,,true,1,,5294.694000005955,,response,,,,,,,,,,,1,click #choice-1,,,,,,,,,184925.40000000596,184924.40000000596,179613.003,179607.5,179629.706,184930.881,,,
end of trap trial,html.Page,2_2_2,2022-02-03T15:37:41.979Z,,,,,,,,,,,,,,,,,,,,,,,,,,,,,,,2044.119000000006,,form submission,,,,,,,,,,,,,,,,,,,,,186975.20000000298,186975,184914.27,184925.5,184930.881,186981.356,,,
Trap 1,flow.Sequence,2_2,2022-02-03T15:37:41.979Z,,,,,,,,,,,,,,,,,,,,,,,,,,,,,,,11429.598999999987,,completion,,,,,,,,,,,,,,,,,,,,,186975.40000000596,186975,175528.892,175532.70000000298,175545.401,186981.356,,,
Standby,html.Page,2_3_0,2022-02-03T15:37:49.971Z,,,,,,,,,,,,,,,,,,,,,,,,,,,,,,,8001.818999999989,,timeout,,,,,,,,,,,,,,,,,,,,,194967.70000000298,194966.617,186964.749,186975.5,186981.356,194983.175,,,
Holding screen,html.Screen,2_3_1_0_0,2022-02-03T15:37:56.972Z,,,,,,,,,,,,,,,,,,,,,,,,,,,,,,,7001.5320000000065,,timeout,,,,,,,,,,,,,,,,,,,,,201969,201968.046,194966.617,194968.1000000015,194983.175,201984.707,,,
screen,html.Screen,2_3_1_0_1_0,2022-02-03T15:37:59.560Z,,,,,,,,,,,,,,,,,11,,,,,,,,,,,,,,2570.793000000005,,response,,,,4,B,,,,,,Space,keypress(Space),,,,lyrical,,,,Known -- ---- --- -- --- -------- ------------ ---------- --<br>- ------- ------ --------- -- ------------ -- --- ---- -----<br>------ ---- ---- ------ ------ ------- --- ----- ---------<br>---- --- -------- -------- --- --- -- ------- --- --- -----<br>-- --- ------ ------- --- --- -------- ---- --------- --<br>---------- -- -------- ----------------,204557,204555.5,201968.046,201969.40000000596,201984.707,204568.648,,0,Known
screen,html.Screen,2_3_1_0_1_1,2022-02-03T15:37:59.937Z,,,,,,,,,,,,,,,,,11,,,,,,,,,,,,,,363.8520000000135,,response,,,,4,B,,,,,,Space,keypress(Space),,,,lyrical,,,,----- as ---- --- -- --- -------- ------------ ---------- --<br>- ------- ------ --------- -- ------------ -- --- ---- -----<br>------ ---- ---- ------ ------ ------- --- ----- ---------<br>---- --- -------- -------- --- --- -- ------- --- --- -----<br>-- --- ------ ------- --- --- -------- ---- --------- --<br>---------- -- -------- ----------------,204933.30000000447,204932.5,204551.886,204557.30000000447,204568.648,204935.42,,1,as
screen,html.Screen,2_3_1_0_1_2,2022-02-03T15:38:00.213Z,,,,,,,,,,,,,,,,,11,,,,,,,,,,,,,,272.48000000594766,,response,,,,4,B,,,,,,Space,keypress(Space),,,,lyrical,,,,----- -- Rapa --- -- --- -------- ------------ ---------- --<br>- ------- ------ --------- -- ------------ -- --- ---- -----<br>------ ---- ---- ------ ------ ------- --- ----- ---------<br>---- --- -------- -------- --- --- -- ------- --- --- -----<br>-- --- ------ ------- --- --- -------- ---- --------- --<br>---------- -- -------- ----------------,205209.1000000015,205207.90000000596,204918.893,204933.40000000596,204935.42,205218.806,,2,Rapa
screen,html.Screen,2_3_1_0_1_3,2022-02-03T15:38:00.486Z,,,,,,,,,,,,,,,,,11,,,,,,,,,,,,,,262.7940000014787,,response,,,,4,B,,,,,,Space,keypress(Space),,,,lyrical,,,,----- -- ---- Nui -- --- -------- ------------ ---------- --<br>- ------- ------ --------- -- ------------ -- --- ---- -----<br>------ ---- ---- ------ ------ ------- --- ----- ---------<br>---- --- -------- -------- --- --- -- ------- --- --- -----<br>-- --- ------ ------- --- --- -------- ---- --------- --<br>---------- -- -------- ----------------,205482.6000000015,205481.6000000015,205202.255,205209.40000000596,205218.806,205485.501,,3,Nui
screen,html.Screen,2_3_1_0_1_4,2022-02-03T15:38:00.773Z,,,,,,,,,,,,,,,,,11,,,,,,,,,,,,,,283.4990000000107,,response,,,,4,B,,,,,,Space,keypress(Space),,,,lyrical,,,,----- -- ---- --- to --- -------- ------------ ---------- --<br>- ------- ------ --------- -- ------------ -- --- ---- -----<br>------ ---- ---- ------ ------ ------- --- ----- ---------<br>---- --- -------- -------- --- --- -- ------- --- --- -----<br>-- --- ------ ------- --- --- -------- ---- --------- --<br>---------- -- -------- ----------------,205769.80000000447,205769,205469.014,205482.70000000298,205485.501,205785.576,,4,to
screen,html.Screen,2_3_1_0_1_5,2022-02-03T15:38:01.078Z,,,,,,,,,,,,,,,,,11,,,,,,,,,,,,,,288.32400000595953,,response,,,,4,B,,,,,,Space,keypress(Space),,,,lyrical,,,,----- -- ---- --- -- the -------- ------------ ---------- --<br>- ------- ------ --------- -- ------------ -- --- ---- -----<br>------ ---- ---- ------ ------ ------- --- ----- ---------<br>---- --- -------- -------- --- --- -- ------- --- --- -----<br>-- --- ------ ------- --- --- -------- ---- --------- --<br>---------- -- -------- ----------------,206074.90000000596,206073.90000000596,205768.906,205770,205785.576,206085.685,,5,the
screen,html.Screen,2_3_1_0_1_6,2022-02-03T15:38:01.364Z,,,,,,,,,,,,,,,,,11,,,,,,,,,,,,,,274.3150000000023,,response,,,,4,B,,,,,,Space,keypress(Space),,,,lyrical,,,,----- -- ---- --- -- --- island's ------------ ---------- --<br>- ------- ------ --------- -- ------------ -- --- ---- -----<br>------ ---- ---- ------ ------ ------- --- ----- ---------<br>---- --- -------- -------- --- --- -- ------- --- --- -----<br>-- --- ------ ------- --- --- -------- ---- --------- --<br>---------- -- -------- ----------------,206360.90000000596,206360,206068.952,206075.20000000298,206085.685,206369.056,,6,island's
screen,html.Screen,2_3_1_0_1_7,2022-02-03T15:38:01.669Z,,,,,,,,,,,,,,,,,11,,,,,,,,,,,,,,295.0440000014787,,response,,,,4,B,,,,,,Space,keypress(Space),,,,lyrical,,,,"----- -- ---- --- -- --- -------- inhabitants, ---------- --<br>- ------- ------ --------- -- ------------ -- --- ---- -----<br>------ ---- ---- ------ ------ ------- --- ----- ---------<br>---- --- -------- -------- --- --- -- ------- --- --- -----<br>-- --- ------ ------- --- --- -------- ---- --------- --<br>---------- -- -------- ----------------",206665.30000000447,206664.1000000015,206352.391,206361.20000000298,206369.056,206669.817,,7,"inhabitants,"
screen,html.Screen,2_3_1_0_1_8,2022-02-03T15:38:01.996Z,,,,,,,,,,,,,,,,,11,,,,,,,,,,,,,,321.58300000595045,,response,,,,4,B,,,,,,Space,keypress(Space),,,,lyrical,,,,----- -- ---- --- -- --- -------- ------------ Rongorongo --<br>- ------- ------ --------- -- ------------ -- --- ---- -----<br>------ ---- ---- ------ ------ ------- --- ----- ---------<br>---- --- -------- -------- --- --- -- ------- --- --- -----<br>-- --- ------ ------- --- --- -------- ---- --------- --<br>---------- -- -------- ----------------,206992.5,206991.40000000596,206652.446,206665.5,206669.817,207002.519,,8,Rongorongo
screen,html.Screen,2_3_1_0_1_9,2022-02-03T15:38:02.331Z,,,,,,,,,,,,,,,,,11,,,,,,,,,,,,,,324.2810000044701,,response,,,,4,B,,,,,,Space,keypress(Space),,,,lyrical,,,,----- -- ---- --- -- --- -------- ------------ ---------- is<br>- ------- ------ --------- -- ------------ -- --- ---- -----<br>------ ---- ---- ------ ------ ------- --- ----- ---------<br>---- --- -------- -------- --- --- -- ------- --- --- -----<br>-- --- ------ ------- --- --- -------- ---- --------- --<br>---------- -- -------- ----------------,207327.70000000298,207326.80000000447,206985.862,206992.70000000298,207002.519,207335.948,,9,is
screen,html.Screen,2_3_1_0_1_10,2022-02-03T15:38:02.626Z,,,,,,,,,,,,,,,,,11,,,,,,,,,,,,,,285.65200000148616,,response,,,,4,B,,,,,,Space,keypress(Space),,,,lyrical,,,,----- -- ---- --- -- --- -------- ------------ ---------- --<br>a ------- ------ --------- -- ------------ -- --- ---- -----<br>------ ---- ---- ------ ------ ------- --- ----- ---------<br>---- --- -------- -------- --- --- -- ------- --- --- -----<br>-- --- ------ ------- --- --- -------- ---- --------- --<br>---------- -- -------- ----------------,207622.90000000596,207621.6000000015,207319.269,207327.90000000596,207335.948,207636.129,,10,a
screen,html.Screen,2_3_1_0_1_11,2022-02-03T15:38:02.953Z,,,,,,,,,,,,,,,,,11,,,,,,,,,,,,,,312.2710000059742,,response,,,,4,B,,,,,,Space,keypress(Space),,,,lyrical,,,,----- -- ---- --- -- --- -------- ------------ ---------- --<br>- writing ------ --------- -- ------------ -- --- ---- -----<br>------ ---- ---- ------ ------ ------- --- ----- ---------<br>---- --- -------- -------- --- --- -- ------- --- --- -----<br>-- --- ------ ------- --- --- -------- ---- --------- --<br>---------- -- -------- ----------------,207949.40000000596,207948.40000000596,207619.337,207623.1000000015,207636.129,207952.74,,11,writing
screen,html.Screen,2_3_1_0_1_12,2022-02-03T15:38:03.197Z,,,,,,,,,,,,,,,,,11,,,,,,,,,,,,,,239.86000000149943,,response,,,,4,B,,,,,,Space,keypress(Space),,,,lyrical,,,,----- -- ---- --- -- --- -------- ------------ ---------- --<br>- ------- system --------- -- ------------ -- --- ---- -----<br>------ ---- ---- ------ ------ ------- --- ----- ---------<br>---- --- -------- -------- --- --- -- ------- --- --- -----<br>-- --- ------ ------- --- --- -------- ---- --------- --<br>---------- -- -------- ----------------,208193.90000000596,208192.6000000015,207936.195,207949.6000000015,207952.74,208202.841,,12,system
screen,html.Screen,2_3_1_0_1_13,2022-02-03T15:38:03.493Z,,,,,,,,,,,,,,,,,11,,,,,,,,,,,,,,285.2590000015043,,response,,,,4,B,,,,,,Space,keypress(Space),,,,lyrical,,,,----- -- ---- --- -- --- -------- ------------ ---------- --<br>- ------- ------ comprised -- ------------ -- --- ---- -----<br>------ ---- ---- ------ ------ ------- --- ----- ---------<br>---- --- -------- -------- --- --- -- ------- --- --- -----<br>-- --- ------ ------- --- --- -------- ---- --------- --<br>---------- -- -------- ----------------,208489.40000000596,208488.1000000015,208186.292,208194.20000000298,208202.841,208502.871,,13,comprised
screen,html.Screen,2_3_1_0_1_14,2022-02-03T15:38:03.820Z,,,,,,,,,,,,,,,,,11,,,,,,,,,,,,,,312.4290000044566,,response,,,,4,B,,,,,,Space,keypress(Space),,,,lyrical,,,,----- -- ---- --- -- --- -------- ------------ ---------- --<br>- ------- ------ --------- of ------------ -- --- ---- -----<br>------ ---- ---- ------ ------ ------- --- ----- ---------<br>---- --- -------- -------- --- --- -- ------- --- --- -----<br>-- --- ------ ------- --- --- -------- ---- --------- --<br>---------- -- -------- ----------------,208816.90000000596,208815.30000000447,208486.441,208489.70000000298,208502.871,208819.645,,14,of
screen,html.Screen,2_3_1_0_1_15,2022-02-03T15:38:04.094Z,,,,,,,,,,,,,,,,,11,,,,,,,,,,,,,,269.5550000029907,,response,,,,4,B,,,,,,Space,keypress(Space),,,,lyrical,,,,----- -- ---- --- -- --- -------- ------------ ---------- --<br>- ------- ------ --------- -- pictographs. -- --- ---- -----<br>------ ---- ---- ------ ------ ------- --- ----- ---------<br>---- --- -------- -------- --- --- -- ------- --- --- -----<br>-- --- ------ ------- --- --- -------- ---- --------- --<br>---------- -- -------- ----------------,209090.5,209089.20000000298,208803.021,208817.20000000298,208819.645,209103.059,,15,pictographs.
screen,html.Screen,2_3_1_0_1_16,2022-02-03T15:38:04.400Z,,,,,,,,,,,,,,,,,11,,,,,,,,,,,,,,291.74100000446197,,response,,,,4,B,,,,,,Space,keypress(Space),,,,lyrical,,,,----- -- ---- --- -- --- -------- ------------ ---------- --<br>- ------- ------ --------- -- ------------ It --- ---- -----<br>------ ---- ---- ------ ------ ------- --- ----- ---------<br>---- --- -------- -------- --- --- -- ------- --- --- -----<br>-- --- ------ ------- --- --- -------- ---- --------- --<br>---------- -- -------- ----------------,209396.30000000447,209394.80000000447,209086.426,209090.70000000298,209103.059,209403.106,,16,It
screen,html.Screen,2_3_1_0_1_17,2022-02-03T15:38:04.714Z,,,,,,,,,,,,,,,,,11,,,,,,,,,,,,,,306.6940000044706,,response,,,,4,B,,,,,,Space,keypress(Space),,,,lyrical,,,,----- -- ---- --- -- --- -------- ------------ ---------- --<br>- ------- ------ --------- -- ------------ -- has ---- -----<br>------ ---- ---- ------ ------ ------- --- ----- ---------<br>---- --- -------- -------- --- --- -- ------- --- --- -----<br>-- --- ------ ------- --- --- -------- ---- --------- --<br>---------- -- -------- ----------------,209710.90000000596,209709.80000000447,209386.498,209396.5,209403.106,209719.869,,17,has
screen,html.Screen,2_3_1_0_1_18,2022-02-03T15:38:05.031Z,,,,,,,,,,,,,,,,,11,,,,,,,,,,,,,,306.63099999999395,,response,,,,4,B,,,,,,Space,keypress(Space),,,,lyrical,,,,----- -- ---- --- -- --- -------- ------------ ---------- --<br>- ------- ------ --------- -- ------------ -- --- been -----<br>------ ---- ---- ------ ------ ------- --- ----- ---------<br>---- --- -------- -------- --- --- -- ------- --- --- -----<br>-- --- ------ ------- --- --- -------- ---- --------- --<br>---------- -- -------- ----------------,210027.90000000596,210026.5,209703.263,209711.20000000298,209719.869,210036.643,,18,been
screen,html.Screen,2_3_1_0_1_19,2022-02-03T15:38:05.347Z,,,,,,,,,,,,,,,,,11,,,,,,,,,,,,,,306.0570000029693,,response,,,,4,B,,,,,,Space,keypress(Space),,,,lyrical,,,,----- -- ---- --- -- --- -------- ------------ ---------- --<br>- ------- ------ --------- -- ------------ -- --- ---- found<br>------ ---- ---- ------ ------ ------- --- ----- ---------<br>---- --- -------- -------- --- --- -- ------- --- --- -----<br>-- --- ------ ------- --- --- -------- ---- --------- --<br>---------- -- -------- ----------------,210344,210342.70000000298,210019.992,210028.30000000447,210036.643,210353.324,,19,found
screen,html.Screen,2_3_1_0_1_20,2022-02-03T15:38:05.692Z,,,,,,,,,,,,,,,,,11,,,,,,,,,,,,,,334.27600000149687,,response,,,,4,B,,,,,,Space,keypress(Space),,,,lyrical,,,,----- -- ---- --- -- --- -------- ------------ ---------- --<br>- ------- ------ --------- -- ------------ -- --- ---- -----<br>carved ---- ---- ------ ------ ------- --- ----- ---------<br>---- --- -------- -------- --- --- -- ------- --- --- -----<br>-- --- ------ ------- --- --- -------- ---- --------- --<br>---------- -- -------- ----------------,210688.80000000447,210687.6000000015,210336.793,210344.5,210353.324,210703.484,,20,carved
screen,html.Screen,2_3_1_0_1_21,2022-02-03T15:38:05.979Z,,,,,,,,,,,,,,,,,11,,,,,,,,,,,,,,270.4160000059637,,response,,,,4,B,,,,,,Space,keypress(Space),,,,lyrical,,,,----- -- ---- --- -- --- -------- ------------ ---------- --<br>- ------- ------ --------- -- ------------ -- --- ---- -----<br>------ into ---- ------ ------ ------- --- ----- ---------<br>---- --- -------- -------- --- --- -- ------- --- --- -----<br>-- --- ------ ------- --- --- -------- ---- --------- --<br>---------- -- -------- ----------------,210975.30000000447,210973.90000000596,210686.846,210689.1000000015,210703.484,210986.91,,21,into
screen,html.Screen,2_3_1_0_1_22,2022-02-03T15:38:06.243Z,,,,,,,,,,,,,,,,,11,,,,,,,,,,,,,,251.0899999999965,,response,,,,4,B,,,,,,Space,keypress(Space),,,,lyrical,,,,----- -- ---- --- -- --- -------- ------------ ---------- --<br>- ------- ------ --------- -- ------------ -- --- ---- -----<br>------ ---- many ------ ------ ------- --- ----- ---------<br>---- --- -------- -------- --- --- -- ------- --- --- -----<br>-- --- ------ ------- --- --- -------- ---- --------- --<br>---------- -- -------- ----------------,211239.30000000447,211238,210970.228,210975.6000000015,210986.91,211253.611,,22,many
screen,html.Screen,2_3_1_0_1_23,2022-02-03T15:38:06.731Z,,,,,,,,,,,,,,,,,11,,,,,,,,,,,,,,472.5890000029758,,response,,,,4,B,,,,,,Space,keypress(Space),,,,lyrical,,,,----- -- ---- --- -- --- -------- ------------ ---------- --<br>- ------- ------ --------- -- ------------ -- --- ---- -----<br>------ ---- ---- oblong ------ ------- --- ----- ---------<br>---- --- -------- -------- --- --- -- ------- --- --- -----<br>-- --- ------ ------- --- --- -------- ---- --------- --<br>---------- -- -------- ----------------,211727.40000000596,211726.20000000298,211236.974,211239.6000000015,211253.611,211737.039,,23,oblong
screen,html.Screen,2_3_1_0_1_24,2022-02-03T15:38:07.017Z,,,,,,,,,,,,,,,,,11,,,,,,,,,,,,,,275.56100000150036,,response,,,,4,B,,,,,,Space,keypress(Space),,,,lyrical,,,,----- -- ---- --- -- --- -------- ------------ ---------- --<br>- ------- ------ --------- -- ------------ -- --- ---- -----<br>------ ---- ---- ------ wooden ------- --- ----- ---------<br>---- --- -------- -------- --- --- -- ------- --- --- -----<br>-- --- ------ ------- --- --- -------- ---- --------- --<br>---------- -- -------- ----------------,212013.90000000596,212012.6000000015,211720.395,211727.6000000015,211737.039,212020.377,,24,wooden
screen,html.Screen,2_3_1_0_1_25,2022-02-03T15:38:07.271Z,,,,,,,,,,,,,,,,,11,,,,,,,,,,,,,,245.92300000446266,,response,,,,4,B,,,,,,Space,keypress(Space),,,,lyrical,,,,----- -- ---- --- -- --- -------- ------------ ---------- --<br>- ------- ------ --------- -- ------------ -- --- ---- -----<br>------ ---- ---- ------ ------ tablets --- ----- ---------<br>---- --- -------- -------- --- --- -- ------- --- --- -----<br>-- --- ------ ------- --- --- -------- ---- --------- --<br>---------- -- -------- ----------------,212267.6000000015,212266.30000000447,212003.776,212014.30000000447,212020.377,212270.452,,25,tablets
screen,html.Screen,2_3_1_0_1_26,2022-02-03T15:38:07.526Z,,,,,,,,,,,,,,,,,11,,,,,,,,,,,,,,250.84800000448013,,response,,,,4,B,,,,,,Space,keypress(Space),,,,lyrical,,,,----- -- ---- --- -- --- -------- ------------ ---------- --<br>- ------- ------ --------- -- ------------ -- --- ---- -----<br>------ ---- ---- ------ ------ ------- and ----- ---------<br>---- --- -------- -------- --- --- -- ------- --- --- -----<br>-- --- ------ ------- --- --- -------- ---- --------- --<br>---------- -- -------- ----------------,212522.6000000015,212521.30000000447,212253.814,212267.80000000447,212270.452,212537.209,,26,and
screen,html.Screen,2_3_1_0_1_27,2022-02-03T15:38:07.821Z,,,,,,,,,,,,,,,,,11,,,,,,,,,,,,,,279.5910000044678,,response,,,,4,B,,,,,,Space,keypress(Space),,,,lyrical,,,,----- -- ---- --- -- --- -------- ------------ ---------- --<br>- ------- ------ --------- -- ------------ -- --- ---- -----<br>------ ---- ---- ------ ------ ------- --- other ---------<br>---- --- -------- -------- --- --- -- ------- --- --- -----<br>-- --- ------ ------- --- --- -------- ---- --------- --<br>---------- -- -------- ----------------,212818.1000000015,212816.80000000447,212520.566,212522.90000000596,212537.209,212820.535,,27,other
screen,html.Screen,2_3_1_0_1_28,2022-02-03T15:38:08.056Z,,,,,,,,,,,,,,,,,11,,,,,,,,,,,,,,230.76500000446686,,response,,,,4,B,,,,,,Space,keypress(Space),,,,lyrical,,,,----- -- ---- --- -- --- -------- ------------ ---------- --<br>- ------- ------ --------- -- ------------ -- --- ---- -----<br>------ ---- ---- ------ ------ ------- --- ----- artifacts<br>---- --- -------- -------- --- --- -- ------- --- --- -----<br>-- --- ------ ------- --- --- -------- ---- --------- --<br>---------- -- -------- ----------------,213052.70000000298,213051.30000000447,212803.97,212818.30000000447,212820.535,213070.7,,28,artifacts
screen,html.Screen,2_3_1_0_1_29,2022-02-03T15:38:08.342Z,,,,,,,,,,,,,,,,,11,,,,,,,,,,,,,,266.0000000029686,,response,,,,4,B,,,,,,Space,keypress(Space),,,,lyrical,,,,----- -- ---- --- -- --- -------- ------------ ---------- --<br>- ------- ------ --------- -- ------------ -- --- ---- -----<br>------ ---- ---- ------ ------ ------- --- ----- ---------<br>from --- -------- -------- --- --- -- ------- --- --- -----<br>-- --- ------ ------- --- --- -------- ---- --------- --<br>---------- -- -------- ----------------,213338.1000000015,213336.70000000298,213053.928,213053.1000000015,213070.7,213353.994,,29,from
screen,html.Screen,2_3_1_0_1_30,2022-02-03T15:38:08.606Z,,,,,,,,,,,,,,,,,11,,,,,,,,,,,,,,246.70600000297418,,response,,,,4,B,,,,,,Space,keypress(Space),,,,lyrical,,,,----- -- ---- --- -- --- -------- ------------ ---------- --<br>- ------- ------ --------- -- ------------ -- --- ---- -----<br>------ ---- ---- ------ ------ ------- --- ----- ---------<br>---- the -------- -------- --- --- -- ------- --- --- -----<br>-- --- ------ ------- --- --- -------- ---- --------- --<br>---------- -- -------- ----------------,213602.40000000596,213600.70000000298,213337.361,213338.30000000447,213353.994,213604.039,,30,the
screen,html.Screen,2_3_1_0_1_31,2022-02-03T15:38:08.819Z,,,,,,,,,,,,,,,,,11,,,,,,,,,,,,,,209.8610000059707,,response,,,,4,B,,,,,,Space,keypress(Space),,,,lyrical,,,,----- -- ---- --- -- --- -------- ------------ ---------- --<br>- ------- ------ --------- -- ------------ -- --- ---- -----<br>------ ---- ---- ------ ------ ------- --- ----- ---------<br>---- --- island's -------- --- --- -- ------- --- --- -----<br>-- --- ------ ------- --- --- -------- ---- --------- --<br>---------- -- -------- ----------------,213815.70000000298,213813.90000000596,213587.483,213602.70000000298,213604.039,213820.77,,31,island's
screen,html.Screen,2_3_1_0_1_32,2022-02-03T15:38:09.033Z,,,,,,,,,,,,,,,,,11,,,,,,,,,,,,,,208.03000000448083,,response,,,,4,B,,,,,,Space,keypress(Space),,,,lyrical,,,,----- -- ---- --- -- --- -------- ------------ ---------- --<br>- ------- ------ --------- -- ------------ -- --- ---- -----<br>------ ---- ---- ------ ------ ------- --- ----- ---------<br>---- --- -------- history. --- --- -- ------- --- --- -----<br>-- --- ------ ------- --- --- -------- ---- --------- --<br>---------- -- -------- ----------------,214029.6000000015,214028.80000000447,213804.262,213816,213820.77,214037.436,,32,history.
screen,html.Screen,2_3_1_0_1_33,2022-02-03T15:38:09.278Z,,,,,,,,,,,,,,,,,11,,,,,,,,,,,,,,235.56400000001304,,response,,,,4,B,,,,,,Space,keypress(Space),,,,lyrical,,,,----- -- ---- --- -- --- -------- ------------ ---------- --<br>- ------- ------ --------- -- ------------ -- --- ---- -----<br>------ ---- ---- ------ ------ ------- --- ----- ---------<br>---- --- -------- -------- The --- -- ------- --- --- -----<br>-- --- ------ ------- --- --- -------- ---- --------- --<br>---------- -- -------- ----------------,214274.40000000596,214273,214020.865,214029.80000000447,214037.436,214287.657,,33,The
screen,html.Screen,2_3_1_0_1_34,2022-02-03T15:38:09.584Z,,,,,,,,,,,,,,,,,11,,,,,,,,,,,,,,291.4430000014836,,response,,,,4,B,,,,,,Space,keypress(Space),,,,lyrical,,,,----- -- ---- --- -- --- -------- ------------ ---------- --<br>- ------- ------ --------- -- ------------ -- --- ---- -----<br>------ ---- ---- ------ ------ ------- --- ----- ---------<br>---- --- -------- -------- --- art -- ------- --- --- -----<br>-- --- ------ ------- --- --- -------- ---- --------- --<br>---------- -- -------- ----------------,214580.30000000447,214579.1000000015,214270.829,214274.70000000298,214287.657,214587.633,,34,art
screen,html.Screen,2_3_1_0_1_35,2022-02-03T15:38:09.869Z,,,,,,,,,,,,,,,,,11,,,,,,,,,,,,,,276.4670000014885,,response,,,,4,B,,,,,,Space,keypress(Space),,,,lyrical,,,,----- -- ---- --- -- --- -------- ------------ ---------- --<br>- ------- ------ --------- -- ------------ -- --- ---- -----<br>------ ---- ---- ------ ------ ------- --- ----- ---------<br>---- --- -------- -------- --- --- of ------- --- --- -----<br>-- --- ------ ------- --- --- -------- ---- --------- --<br>---------- -- -------- ----------------,214865.90000000596,214864.1000000015,214571.031,214580.6000000015,214587.633,214870.986,,35,of
screen,html.Screen,2_3_1_0_1_36,2022-02-03T15:38:10.612Z,,,,,,,,,,,,,,,,,11,,,,,,,,,,,,,,736.5139999999956,,response,,,,4,B,,,,,,Space,keypress(Space),,,,lyrical,,,,----- -- ---- --- -- --- -------- ------------ ---------- --<br>- ------- ------ --------- -- ------------ -- --- ---- -----<br>------ ---- ---- ------ ------ ------- --- ----- ---------<br>---- --- -------- -------- --- --- -- writing --- --- -----<br>-- --- ------ ------- --- --- -------- ---- --------- --<br>---------- -- -------- ----------------,215608.80000000447,215607.5,214854.451,214866.20000000298,214870.986,215621.282,,36,writing
screen,html.Screen,2_3_1_0_1_37,2022-02-03T15:38:11.112Z,,,,,,,,,,,,,,,,,11,,,,,,,,,,,,,,485.8180000014836,,response,,,,4,B,,,,,,Space,keypress(Space),,,,lyrical,,,,----- -- ---- --- -- --- -------- ------------ ---------- --<br>- ------- ------ --------- -- ------------ -- --- ---- -----<br>------ ---- ---- ------ ------ ------- --- ----- ---------<br>---- --- -------- -------- --- --- -- ------- was --- -----<br>-- --- ------ ------- --- --- -------- ---- --------- --<br>---------- -- -------- ----------------,216108.30000000447,216107.1000000015,215604.577,215609.1000000015,215621.282,216121.368,,37,was
screen,html.Screen,2_3_1_0_1_38,2022-02-03T15:38:11.631Z,,,,,,,,,,,,,,,,,11,,,,,,,,,,,,,,504.5320000059728,,response,,,,4,B,,,,,,Space,keypress(Space),,,,lyrical,,,,----- -- ---- --- -- --- -------- ------------ ---------- --<br>- ------- ------ --------- -- ------------ -- --- ---- -----<br>------ ---- ---- ------ ------ ------- --- ----- ---------<br>---- --- -------- -------- --- --- -- ------- --- not -----<br>-- --- ------ ------- --- --- -------- ---- --------- --<br>---------- -- -------- ----------------,216627.1000000015,216625.90000000596,216104.62,216108.6000000015,216121.368,216638.187,,38,not
screen,html.Screen,2_3_1_0_1_39,2022-02-03T15:38:12.080Z,,,,,,,,,,,,,,,,,11,,,,,,,,,,,,,,436.7130000059551,,response,,,,4,B,,,,,,Space,keypress(Space),,,,lyrical,,,,----- -- ---- --- -- --- -------- ------------ ---------- --<br>- ------- ------ --------- -- ------------ -- --- ---- -----<br>------ ---- ---- ------ ------ ------- --- ----- ---------<br>---- --- -------- -------- --- --- -- ------- --- --- known<br>-- --- ------ ------- --- --- -------- ---- --------- --<br>---------- -- -------- ----------------,217076.20000000298,217074.90000000596,216621.495,216627.40000000596,216638.187,217088.276,,39,known
