sender,sender_type,sender_id,timestamp,meta,,Blues,Classical,Country,Dance,Electronic,Folk,Gospel,Hip-Hop,Jazz,Latin,Musical/Film,New-age,Pop,Prolific_id,Provo_ID,R&B,Rap,Reggae,Religious,Rock,Soul,Swing,Traditional,age,artist_name,correct,correctResponse,distraction,duration,education,ended_on,familiarity,gender,headphone_check_performance,item,list,music_frequency,offensiveness,pleasantness,position_correct,preference,response,response_action,snippet_file,song_name,song_rating,sound,stimulus_1,stimulus_2,stimulus_3,text,time_commit,time_end,time_render,time_run,time_show,time_switch,url,word,word_ID
Prolific ID,html.Form,0,2022-02-15T15:51:40.550Z,"{""labjs_version"":""20.2.2"",""labjs_build"":{""flavor"":""production"",""commit"":""a25486e0c714a0ae2ce03ff94b7bb6896854dcfa""},""location"":""https://run.pavlovia.org/mvasilev/prolific2_music_a/"",""userAgent"":""Mozilla/5.0 (Macintosh; Intel Mac OS X 10_15_7) AppleWebKit/537.36 (KHTML, like Gecko) Chrome/98.0.4758.80 Safari/537.36"",""platform"":""MacIntel"",""language"":""en-GB"",""locale"":""en-GB"",""timeZone"":""Europe/London"",""timezoneOffset"":0,""screen_width"":1366,""screen_height"":768,""scroll_width"":1366,""scroll_height"":641,""window_innerWidth"":1366,""window_innerHeight"":689,""devicePixelRatio"":1}",,,,,,,,,,,,,,,60fc85e8481d7c07603ce8bc,,,,,,,,,,,,,,,6095.007000000745,,form submission,,,,,,,,,,,,,,,,,,,,,18760.5,18759.300000000745,12564.297,12572.199999999255,12664.293,18798.035,{},,
Introduction,html.Screen,1_0,2022-02-15T15:51:43.488Z,,,,,,,,,,,,,,,,,,,,,,,,,,,,,,,2895.965,,response,,,,,,,,,,,continue,click button,,,,,,,,,21697.699999999255,21694,18748.037,18762,18798.035,21714.585,,,
Volume calibration,html.Screen,1_1,2022-02-15T15:51:55.924Z,,,,,,,,,,,,,,,,,,,,,,,,,,,,,,,12410.715000000746,,response,,,,,,,,,,,continue,click button,,,,,,,,,34133.699999999255,34125.300000000745,21681.253,21698,21714.585,34198,,,
Task instructions,html.Screen,1_2,2022-02-15T15:52:24.217Z,,,,,,,,,,,,,,,,,,,,,,,,,,,,,,,28224.199999999255,,response,,,,,,,,,,,continue,click button,,,,,,,,,62425.5,62422.199999999255,34114.67,34133.800000000745,34198,62448.295,,,
Sounds,html.Screen,1_3_0_0,2022-02-15T15:52:28.479Z,,,,,,,,,,,,,,,,,,,,,,,,,,,,,,,4249.830000000002,,timeout,,,,,,,,,1,,,,,,,,S,O,I,,66687.69999999925,66681.459,62431.629,62425.89999999851,62448.295,66698.125,,,
Judgement,html.Screen,1_3_0_1,2022-02-15T15:52:31.254Z,,,,,,,,,,,,,,,,,,,,,,,,,,,,true,1,,2761.175000000745,,response,,,,,,,,,1,,1,click #choice-1,,,,,S,O,I,,69462.89999999851,69459.30000000075,66681.459,66688,66698.125,69481.347,,,
Trial,flow.Sequence,1_3_0,2022-02-15T15:52:31.255Z,,,,,,,,,,,,,,,,,,,,,,,,,,,,,,,7011.005000000747,,completion,,,,,,,,,1,,,,,,,,S,O,I,,69463.19999999925,69459.30000000075,62431.629,62425.800000000745,62448.295,69481.347,,,
Sounds,html.Screen,1_3_1_0,2022-02-15T15:52:35.508Z,,,,,,,,,,,,,,,,,,,,,,,,,,,,,,,4249.830000000002,,timeout,,,,,,,,,2,,,,,,,,I,S,O,,73716.89999999851,73714.511,69448.015,69463.39999999851,69481.347,73731.177,,,
Judgement,html.Screen,1_3_1_1,2022-02-15T15:52:36.538Z,,,,,,,,,,,,,,,,,,,,,,,,,,,,true,2,,1012.7229999985138,,response,,,,,,,,,2,,2,click #choice-2,,,,,I,S,O,,74746.69999999925,74743.89999999851,73714.511,73717.09999999776,73731.177,74764.999,,,
Trial,flow.Sequence,1_3_1,2022-02-15T15:52:36.538Z,,,,,,,,,,,,,,,,,,,,,,,,,,,,,,,5262.552999998516,,completion,,,,,,,,,2,,,,,,,,I,S,O,,74747,74743.89999999851,69448.015,69463.30000000075,69481.347,74764.999,,,
Sounds,html.Screen,1_3_2_0,2022-02-15T15:52:40.793Z,,,,,,,,,,,,,,,,,,,,,,,,,,,,,,,4249.830000000002,,timeout,,,,,,,,,2,,,,,,,,O,S,I,,79001,78998.163,74731.667,74747.09999999776,74764.999,79014.829,,,
Judgement,html.Screen,1_3_2_1,2022-02-15T15:52:41.797Z,,,,,,,,,,,,,,,,,,,,,,,,,,,,true,2,,987.6710000000021,,response,,,,,,,,,2,,2,click #choice-2,,,,,O,S,I,,80005.39999999851,80002.5,78998.163,79001.19999999925,79014.829,80014.789,,,
Trial,flow.Sequence,1_3_2,2022-02-15T15:52:41.797Z,,,,,,,,,,,,,,,,,,,,,,,,,,,,,,,5237.501000000004,,completion,,,,,,,,,2,,,,,,,,O,S,I,,80005.80000000075,80002.5,74731.667,74747,74764.999,80014.789,,,
Sounds,html.Screen,1_3_3_0,2022-02-15T15:52:46.042Z,,,,,,,,,,,,,,,,,,,,,,,,,,,,,,,4249.830000000002,,timeout,,,,,,,,,1,,,,,,,,S,I,O,,84250.5,84247.953,79998.123,80006.09999999776,80014.789,84264.619,,,
Judgement,html.Screen,1_3_3_1,2022-02-15T15:52:47.475Z,,,,,,,,,,,,,,,,,,,,,,,,,,,,true,1,,1415.880999999994,,response,,,,,,,,,1,,1,click #choice-1,,,,,S,I,O,,85683.59999999776,85680.5,84247.953,84251,84264.619,85698.328,,,
Trial,flow.Sequence,1_3_3,2022-02-15T15:52:47.476Z,,,,,,,,,,,,,,,,,,,,,,,,,,,,,,,5665.710999999996,,completion,,,,,,,,,1,,,,,,,,S,I,O,,85683.89999999851,85680.5,79998.123,80005.80000000075,80014.789,85698.328,,,
Sounds,html.Screen,1_3_4_0,2022-02-15T15:52:51.724Z,,,,,,,,,,,,,,,,,,,,,,,,,,,,,,,4249.830000000002,,timeout,,,,,,,,,3,,,,,,,,O,I,S,,89932.59999999776,89931.492,85681.662,85684.09999999776,85698.328,89948.158,,,
Judgement,html.Screen,1_3_4_1,2022-02-15T15:52:52.771Z,,,,,,,,,,,,,,,,,,,,,,,,,,,,true,3,,1027.3420000000042,,response,,,,,,,,,3,,3,click #choice-3,,,,,O,I,S,,90979.09999999776,90975.5,89931.492,89932.69999999925,89948.158,90998.116,,,
Trial,flow.Sequence,1_3_4,2022-02-15T15:52:52.771Z,,,,,,,,,,,,,,,,,,,,,,,,,,,,,,,5277.172000000006,,completion,,,,,,,,,3,,,,,,,,O,I,S,,90979.30000000075,90975.5,85681.662,85684,85698.328,90998.116,,,
Sounds,html.Screen,1_3_5_0,2022-02-15T15:52:57.026Z,,,,,,,,,,,,,,,,,,,,,,,,,,,,,,,4249.830000000002,,timeout,,,,,,,,,3,,,,,,,,I,O,S,,95233.59999999776,95231.28,90964.784,90979.5,90998.116,95247.946,,,
Judgement,html.Screen,1_3_5_1,2022-02-15T15:52:57.728Z,,,,,,,,,,,,,,,,,,,,,,,,,,,,true,3,,685.7539999992587,,response,,,,,,,,,3,,3,click #choice-3,,,,,I,O,S,,95936.19999999925,95933.69999999925,95231.28,95233.69999999925,95247.946,95947.918,,,
Trial,flow.Sequence,1_3_5,2022-02-15T15:52:57.729Z,,,,,,,,,,,,,,,,,,,,,,,,,,,,,,,4935.58399999926,,completion,,,,,,,,,3,,,,,,,,I,O,S,,95936.39999999851,95933.69999999925,90964.784,90979.5,90998.116,95947.918,,,
Task,flow.Loop,1_3,2022-02-15T15:52:57.734Z,,,,,,,,,,,,,,,,,,,,,,,,,,,,,,,33485.40499999926,,completion,,,1,,,,,,,,,,,,,,,,,,95941.89999999851,95933.69999999925,62431.629,62425.699999999255,62448.295,95947.918,,,
Trap,html.Screen,1_4,2022-02-15T15:52:57.736Z,,,,,,,,,,,,,,,,,,,,,,,,,,,,,,,NaN,,skipped,,,,,,,,,,,,,,,,,,,,,95943.5,95933.69999999925,,95943.30000000075,,95947.918,,,
Thanks,html.Screen,1_5,2022-02-15T15:52:59.765Z,,,,,,,,,,,,,,,,,,,,,,,,,,,,,,,2021.6819999977597,,response,,,,,,,,,,,continue,click button,,,,,,,,,97973.19999999925,97969.59999999776,95931.252,95943.59999999776,95947.918,103448.152,,,
Headphone screening,flow.Sequence,1,2022-02-15T15:52:59.766Z,,,,,,,,,,,,,,,,,,,,,,,,,,,,,,,79171.56499999776,,completion,,,,,,,,,,,,,,,,,,,,,97973.39999999851,97969.59999999776,18748.037,18761.800000000745,18798.035,103448.152,,,
Instructions,html.Page,2_0,2022-02-15T15:53:16.364Z,,,,,,,,,,,,,,,,,,,,,,,,,,,,,,,11093.447999997763,,form submission,,,,,,,,,,,,,,,,,,,,,114571.19999999925,114541.59999999776,103398.154,103432.30000000075,103448.152,114581.04,,,
Holding screen,html.Screen,2_1_0_0,2022-02-15T15:53:26.360Z,,,,,,,,,,,,,,,,,,,,,,,,,,,,,,,10016.968000000008,,timeout,,,,,,,,,,,,,,,,,,,,,124566.59999999776,124564.676,114531.042,114571.5,114581.04,124598.008,,,
screen,html.Screen,2_1_0_1_0,2022-02-15T15:53:27.564Z,,,,,,,,,,,,,,,,,53,,,,,,,,,,,,,,1152.2920000007434,,response,,,,99,,,,,,,Space,keypress(Space),,,,,,,,When -- ----- -- ------ - ------- --- ----------<br>------------- ------ ------ ---- ---- ------- ----- -- ----<br>-------- ------- -- ---------- --- - --- ----- ----- ----<br>---- --- --- ----- --- ---- ---- ------- ----- ---- -------<br>--- --- -- ----- -- --- ---- -- --- ---- -- ------ ------<br>--- ----- -- ----,125771.09999999776,125750.30000000075,124564.676,124566.80000000075,124598.008,125798.363,,0,When
screen,html.Screen,2_1_0_1_1,2022-02-15T15:53:28.052Z,,,,,,,,,,,,,,,,,53,,,,,,,,,,,,,,455.3369999992574,,response,,,,99,,,,,,,Space,keypress(Space),,,,,,,,---- it ----- -- ------ - ------- --- ----------<br>------------- ------ ------ ---- ---- ------- ----- -- ----<br>-------- ------- -- ---------- --- - --- ----- ----- ----<br>---- --- --- ----- --- ---- ---- ------- ----- ---- -------<br>--- --- -- ----- -- --- ---- -- --- ---- -- ------ ------<br>--- ----- -- ----,126259.39999999851,126253.69999999925,125781.697,125771.30000000075,125798.363,126265.011,,1,it
screen,html.Screen,2_1_0_1_2,2022-02-15T15:53:28.509Z,,,,,,,,,,,,,,,,,53,,,,,,,,,,,,,,444.78900000074646,,response,,,,99,,,,,,,Space,keypress(Space),,,,,,,,---- -- comes -- ------ - ------- --- ----------<br>------------- ------ ------ ---- ---- ------- ----- -- ----<br>-------- ------- -- ---------- --- - --- ----- ----- ----<br>---- --- --- ----- --- ---- ---- ------- ----- ---- -------<br>--- --- -- ----- -- --- ---- -- --- ---- -- ------ ------<br>--- ----- -- ----,126715.69999999925,126709.80000000075,126248.345,126259.5,126265.011,126731.659,,2,comes
screen,html.Screen,2_1_0_1_3,2022-02-15T15:53:28.961Z,,,,,,,,,,,,,,,,,53,,,,,,,,,,,,,,431.0409999992553,,response,,,,99,,,,,,,Space,keypress(Space),,,,,,,,---- -- ----- to ------ - ------- --- ----------<br>------------- ------ ------ ---- ---- ------- ----- -- ----<br>-------- ------- -- ---------- --- - --- ----- ----- ----<br>---- --- --- ----- --- ---- ---- ------- ----- ---- -------<br>--- --- -- ----- -- --- ---- -- --- ---- -- ------ ------<br>--- ----- -- ----,127168.30000000075,127162.69999999925,126714.993,126715.89999999851,126731.659,127181.641,,3,to
screen,html.Screen,2_1_0_1_4,2022-02-15T15:53:29.388Z,,,,,,,,,,,,,,,,,53,,,,,,,,,,,,,,408.1590000007418,,response,,,,99,,,,,,,Space,keypress(Space),,,,,,,,---- -- ----- -- having - ------- --- ----------<br>------------- ------ ------ ---- ---- ------- ----- -- ----<br>-------- ------- -- ---------- --- - --- ----- ----- ----<br>---- --- --- ----- --- ---- ---- ------- ----- ---- -------<br>--- --- -- ----- -- --- ---- -- --- ---- -- ------ ------<br>--- ----- -- ----,127595.39999999851,127589.80000000075,127164.975,127168.5,127181.641,127598.291,,4,having
screen,html.Screen,2_1_0_1_5,2022-02-15T15:53:29.727Z,,,,,,,,,,,,,,,,,53,,,,,,,,,,,,,,329.3089999977674,,response,,,,99,,,,,,,Space,keypress(Space),,,,,,,,---- -- ----- -- ------ a ------- --- ----------<br>------------- ------ ------ ---- ---- ------- ----- -- ----<br>-------- ------- -- ---------- --- - --- ----- ----- ----<br>---- --- --- ----- --- ---- ---- ------- ----- ---- -------<br>--- --- -- ----- -- --- ---- -- --- ---- -- ------ ------<br>--- ----- -- ----,127933.5,127927.59999999776,127581.625,127595.5,127598.291,127948.277,,5,a
screen,html.Screen,2_1_0_1_6,2022-02-15T15:53:30.303Z,,,,,,,,,,,,,,,,,53,,,,,,,,,,,,,,555.322999997763,,response,,,,99,,,,,,,Space,keypress(Space),,,,,,,,---- -- ----- -- ------ - lasting --- ----------<br>------------- ------ ------ ---- ---- ------- ----- -- ----<br>-------- ------- -- ---------- --- - --- ----- ----- ----<br>---- --- --- ----- --- ---- ---- ------- ----- ---- -------<br>--- --- -- ----- -- --- ---- -- --- ---- -- ------ ------<br>--- ----- -- ----,128509.59999999776,128503.59999999776,127931.611,127933.59999999776,127948.277,128514.921,,6,lasting
screen,html.Screen,2_1_0_1_7,2022-02-15T15:53:30.668Z,,,,,,,,,,,,,,,,,53,,,,,,,,,,,,,,353.77899999925285,,response,,,,99,,,,,,,Space,keypress(Space),,,,,,,,---- -- ----- -- ------ - ------- and ----------<br>------------- ------ ------ ---- ---- ------- ----- -- ----<br>-------- ------- -- ---------- --- - --- ----- ----- ----<br>---- --- --- ----- --- ---- ---- ------- ----- ---- -------<br>--- --- -- ----- -- --- ---- -- --- ---- -- ------ ------<br>--- ----- -- ----,128875.09999999776,128868.69999999925,128498.255,128509.80000000075,128514.921,128881.573,,7,and
screen,html.Screen,2_1_0_1_8,2022-02-15T15:53:31.112Z,,,,,,,,,,,,,,,,,53,,,,,,,,,,,,,,431.126999999251,,response,,,,99,,,,,,,Space,keypress(Space),,,,,,,,---- -- ----- -- ------ - ------- --- fulfilling<br>------------- ------ ------ ---- ---- ------- ----- -- ----<br>-------- ------- -- ---------- --- - --- ----- ----- ----<br>---- --- --- ----- --- ---- ---- ------- ----- ---- -------<br>--- --- -- ----- -- --- ---- -- --- ---- -- ------ ------<br>--- ----- -- ----,129319.30000000075,129312.69999999925,128864.907,128875.69999999925,128881.573,129331.555,,8,fulfilling
screen,html.Screen,2_1_0_1_9,2022-02-15T15:53:31.829Z,,,,,,,,,,,,,,,,,53,,,,,,,,,,,,,,697.945000000007,,response,,,,99,,,,,,,Space,keypress(Space),,,,,,,,"---- -- ----- -- ------ - ------- --- ----------<br>relationship, ------ ------ ---- ---- ------- ----- -- ----<br>-------- ------- -- ---------- --- - --- ----- ----- ----<br>---- --- --- ----- --- ---- ---- ------- ----- ---- -------<br>--- --- -- ----- -- --- ---- -- --- ---- -- ------ ------<br>--- ----- -- ----",130036.39999999851,130029.5,129314.889,129319.69999999925,129331.555,130048.193,,9,"relationship,"
screen,html.Screen,2_1_0_1_10,2022-02-15T15:53:32.314Z,,,,,,,,,,,,,,,,,53,,,,,,,,,,,,,,466.4069999977655,,response,,,,99,,,,,,,Space,keypress(Space),,,,,,,,---- -- ----- -- ------ - ------- --- ----------<br>------------- common ------ ---- ---- ------- ----- -- ----<br>-------- ------- -- ---------- --- - --- ----- ----- ----<br>---- --- --- ----- --- ---- ---- ------- ----- ---- -------<br>--- --- -- ----- -- --- ---- -- --- ---- -- ------ ------<br>--- ----- -- ----,130521,130514.59999999776,130031.527,130036.5,130048.193,130531.507,,10,common
screen,html.Screen,2_1_0_1_11,2022-02-15T15:53:32.660Z,,,,,,,,,,,,,,,,,53,,,,,,,,,,,,,,328.9930000000022,,response,,,,99,,,,,,,Space,keypress(Space),,,,,,,,---- -- ----- -- ------ - ------- --- ----------<br>------------- ------ wisdom ---- ---- ------- ----- -- ----<br>-------- ------- -- ---------- --- - --- ----- ----- ----<br>---- --- --- ----- --- ---- ---- ------- ----- ---- -------<br>--- --- -- ----- -- --- ---- -- --- ---- -- ------ ------<br>--- ----- -- ----,130866.5,130860.5,130514.841,130521.19999999925,130531.507,130881.493,,11,wisdom
screen,html.Screen,2_1_0_1_12,2022-02-15T15:53:33.022Z,,,,,,,,,,,,,,,,,53,,,,,,,,,,,,,,338.0069999999978,,response,,,,99,,,,,,,Space,keypress(Space),,,,,,,,---- -- ----- -- ------ - ------- --- ----------<br>------------- ------ ------ says ---- ------- ----- -- ----<br>-------- ------- -- ---------- --- - --- ----- ----- ----<br>---- --- --- ----- --- ---- ---- ------- ----- ---- -------<br>--- --- -- ----- -- --- ---- -- --- ---- -- ------ ------<br>--- ----- -- ----,131228.59999999776,131219.5,130864.827,130866.59999999776,130881.493,131248.145,,12,says
screen,html.Screen,2_1_0_1_13,2022-02-15T15:53:33.402Z,,,,,,,,,,,,,,,,,53,,,,,,,,,,,,,,354.25499999852036,,response,,,,99,,,,,,,Space,keypress(Space),,,,,,,,---- -- ----- -- ------ - ------- --- ----------<br>------------- ------ ------ ---- that ------- ----- -- ----<br>-------- ------- -- ---------- --- - --- ----- ----- ----<br>---- --- --- ----- --- ---- ---- ------- ----- ---- -------<br>--- --- -- ----- -- --- ---- -- --- ---- -- ------ ------<br>--- ----- -- ----,131608.80000000075,131602.3999999985,131231.479,131228.80000000075,131248.145,131631.463,,13,that
screen,html.Screen,2_1_0_1_14,2022-02-15T15:53:33.680Z,,,,,,,,,,,,,,,,,53,,,,,,,,,,,,,,248.93699999852106,,response,,,,99,,,,,,,Space,keypress(Space),,,,,,,,---- -- ----- -- ------ - ------- --- ----------<br>------------- ------ ------ ---- ---- feeling ----- -- ----<br>-------- ------- -- ---------- --- - --- ----- ----- ----<br>---- --- --- ----- --- ---- ---- ------- ----- ---- -------<br>--- --- -- ----- -- --- ---- -- --- ---- -- ------ ------<br>--- ----- -- ----,131886.8999999985,131880.3999999985,131614.797,131609.09999999776,131631.463,131898.119,,14,feeling
screen,html.Screen,2_1_0_1_15,2022-02-15T15:53:34.113Z,,,,,,,,,,,,,,,,,53,,,,,,,,,,,,,,415.181000000739,,response,,,,99,,,,,,,Space,keypress(Space),,,,,,,,---- -- ----- -- ------ - ------- --- ----------<br>------------- ------ ------ ---- ---- ------- close -- ----<br>-------- ------- -- ---------- --- - --- ----- ----- ----<br>---- --- --- ----- --- ---- ---- ------- ----- ---- -------<br>--- --- -- ----- -- --- ---- -- --- ---- -- ------ ------<br>--- ----- -- ----,132319.30000000075,132313.30000000075,131881.453,131887.09999999776,131898.119,132331.435,,15,close
screen,html.Screen,2_1_0_1_16,2022-02-15T15:53:34.469Z,,,,,,,,,,,,,,,,,53,,,,,,,,,,,,,,338.9649999985122,,response,,,,99,,,,,,,Space,keypress(Space),,,,,,,,---- -- ----- -- ------ - ------- --- ----------<br>------------- ------ ------ ---- ---- ------- ----- to ----<br>-------- ------- -- ---------- --- - --- ----- ----- ----<br>---- --- --- ----- --- ---- ---- ------- ----- ---- -------<br>--- --- -- ----- -- --- ---- -- --- ---- -- ------ ------<br>--- ----- -- ----,132676.09999999776,132670.3999999985,132314.769,132319.5,132331.435,132681.421,,16,to
screen,html.Screen,2_1_0_1_17,2022-02-15T15:53:34.788Z,,,,,,,,,,,,,,,,,53,,,,,,,,,,,,,,307.87900000074296,,response,,,,99,,,,,,,Space,keypress(Space),,,,,,,,---- -- ----- -- ------ - ------- --- ----------<br>------------- ------ ------ ---- ---- ------- ----- -- your<br>-------- ------- -- ---------- --- - --- ----- ----- ----<br>---- --- --- ----- --- ---- ---- ------- ----- ---- -------<br>--- --- -- ----- -- --- ---- -- --- ---- -- ------ ------<br>--- ----- -- ----,132995.09999999776,132989.30000000075,132664.755,132676.19999999925,132681.421,132998.075,,17,your
screen,html.Screen,2_1_0_1_18,2022-02-15T15:53:35.121Z,,,,,,,,,,,,,,,,,53,,,,,,,,,,,,,,324.42499999998836,,response,,,,99,,,,,,,Space,keypress(Space),,,,,,,,---- -- ----- -- ------ - ------- --- ----------<br>------------- ------ ------ ---- ---- ------- ----- -- ----<br>romantic ------- -- ---------- --- - --- ----- ----- ----<br>---- --- --- ----- --- ---- ---- ------- ----- ---- -------<br>--- --- -- ----- -- --- ---- -- --- ---- -- ------ ------<br>--- ----- -- ----,133328.09999999776,133322.5,132981.409,132995.30000000075,132998.075,133348.061,,18,romantic
screen,html.Screen,2_1_0_1_19,2022-02-15T15:53:35.481Z,,,,,,,,,,,,,,,,,53,,,,,,,,,,,,,,333.3389999985229,,response,,,,99,,,,,,,Space,keypress(Space),,,,,,,,---- -- ----- -- ------ - ------- --- ----------<br>------------- ------ ------ ---- ---- ------- ----- -- ----<br>-------- partner -- ---------- --- - --- ----- ----- ----<br>---- --- --- ----- --- ---- ---- ------- ----- ---- -------<br>--- --- -- ----- -- --- ---- -- --- ---- -- ------ ------<br>--- ----- -- ----,133687.3999999985,133681.3999999985,133314.729,133328.30000000075,133348.061,133698.047,,19,partner
screen,html.Screen,2_1_0_1_20,2022-02-15T15:53:35.810Z,,,,,,,,,,,,,,,,,53,,,,,,,,,,,,,,315.15299999926356,,response,,,,99,,,,,,,Space,keypress(Space),,,,,,,,---- -- ----- -- ------ - ------- --- ----------<br>------------- ------ ------ ---- ---- ------- ----- -- ----<br>-------- ------- is ---------- --- - --- ----- ----- ----<br>---- --- --- ----- --- ---- ---- ------- ----- ---- -------<br>--- --- -- ----- -- --- ---- -- --- ---- -- ------ ------<br>--- ----- -- ----,134017.30000000075,134013.19999999925,133681.381,133687.5,133698.047,134031.367,,20,is
screen,html.Screen,2_1_0_1_21,2022-02-15T15:53:36.149Z,,,,,,,,,,,,,,,,,53,,,,,,,,,,,,,,318.8329999992566,,response,,,,99,,,,,,,Space,keypress(Space),,,,,,,,---- -- ----- -- ------ - ------- --- ----------<br>------------- ------ ------ ---- ---- ------- ----- -- ----<br>-------- ------- -- paramount. --- - --- ----- ----- ----<br>---- --- --- ----- --- ---- ---- ------- ----- ---- -------<br>--- --- -- ----- -- --- ---- -- --- ---- -- ------ ------<br>--- ----- -- ----,134356,134350.19999999925,134014.701,134017.30000000075,134031.367,134365.036,,21,paramount.
screen,html.Screen,2_1_0_1_22,2022-02-15T15:53:36.872Z,,,,,,,,,,,,,,,,,53,,,,,,,,,,,,,,708.2640000007523,,response,,,,99,,,,,,,Space,keypress(Space),,,,,,,,---- -- ----- -- ------ - ------- --- ----------<br>------------- ------ ------ ---- ---- ------- ----- -- ----<br>-------- ------- -- ---------- But - --- ----- ----- ----<br>---- --- --- ----- --- ---- ---- ------- ----- ---- -------<br>--- --- -- ----- -- --- ---- -- --- ---- -- ------ ------<br>--- ----- -- ----,135079.09999999776,135073.30000000075,134348.37,134356.19999999925,134365.036,135098.34,,22,But
screen,html.Screen,2_1_0_1_23,2022-02-15T15:53:37.102Z,,,,,,,,,,,,,,,,,53,,,,,,,,,,,,,,204.96000000074855,,response,,,,99,,,,,,,Space,keypress(Space),,,,,,,,---- -- ----- -- ------ - ------- --- ----------<br>------------- ------ ------ ---- ---- ------- ----- -- ----<br>-------- ------- -- ---------- --- a --- ----- ----- ----<br>---- --- --- ----- --- ---- ---- ------- ----- ---- -------<br>--- --- -- ----- -- --- ---- -- --- ---- -- ------ ------<br>--- ----- -- ----,135309,135303.30000000075,135065.008,135079.30000000075,135098.34,135314.998,,23,a
screen,html.Screen,2_1_0_1_24,2022-02-15T15:53:37.340Z,,,,,,,,,,,,,,,,,53,,,,,,,,,,,,,,227.1019999977725,,response,,,,99,,,,,,,Space,keypress(Space),,,,,,,,---- -- ----- -- ------ - ------- --- ----------<br>------------- ------ ------ ---- ---- ------- ----- -- ----<br>-------- ------- -- ---------- --- - new ----- ----- ----<br>---- --- --- ----- --- ---- ---- ------- ----- ---- -------<br>--- --- -- ----- -- --- ---- -- --- ---- -- ------ ------<br>--- ----- -- ----,135547,135542.09999999776,135298.332,135309.19999999925,135314.998,135564.988,,24,new
screen,html.Screen,2_1_0_1_25,2022-02-15T15:53:37.746Z,,,,,,,,,,,,,,,,,53,,,,,,,,,,,,,,383.1119999977527,,response,,,,99,,,,,,,Space,keypress(Space),,,,,,,,---- -- ----- -- ------ - ------- --- ----------<br>------------- ------ ------ ---- ---- ------- ----- -- ----<br>-------- ------- -- ---------- --- - --- study ----- ----<br>---- --- --- ----- --- ---- ---- ------- ----- ---- -------<br>--- --- -- ----- -- --- ---- -- --- ---- -- ------ ------<br>--- ----- -- ----,135952.69999999925,135948.09999999776,135548.322,135547.09999999776,135564.988,135964.972,,25,study
screen,html.Screen,2_1_0_1_26,2022-02-15T15:53:38.089Z,,,,,,,,,,,,,,,,,53,,,,,,,,,,,,,,325.02799999999115,,response,,,,99,,,,,,,Space,keypress(Space),,,,,,,,---- -- ----- -- ------ - ------- --- ----------<br>------------- ------ ------ ---- ---- ------- ----- -- ----<br>-------- ------- -- ---------- --- - --- ----- finds ----<br>---- --- --- ----- --- ---- ---- ------- ----- ---- -------<br>--- --- -- ----- -- --- ---- -- --- ---- -- ------ ------<br>--- ----- -- ----,136295.69999999925,136290,135948.306,135952.69999999925,135964.972,136314.958,,26,finds
screen,html.Screen,2_1_0_1_27,2022-02-15T15:53:38.445Z,,,,,,,,,,,,,,,,,53,,,,,,,,,,,,,,332.04199999998673,,response,,,,99,,,,,,,Space,keypress(Space),,,,,,,,---- -- ----- -- ------ - ------- --- ----------<br>------------- ------ ------ ---- ---- ------- ----- -- ----<br>-------- ------- -- ---------- --- - --- ----- ----- that<br>---- --- --- ----- --- ---- ---- ------- ----- ---- -------<br>--- --- -- ----- -- --- ---- -- --- ---- -- ------ ------<br>--- ----- -- ----,136651.8999999985,136647,136298.292,136295.80000000075,136314.958,136664.944,,27,that
screen,html.Screen,2_1_0_1_28,2022-02-15T15:53:38.934Z,,,,,,,,,,,,,,,,,53,,,,,,,,,,,,,,470.25599999926635,,response,,,,99,,,,,,,Space,keypress(Space),,,,,,,,---- -- ----- -- ------ - ------- --- ----------<br>------------- ------ ------ ---- ---- ------- ----- -- ----<br>-------- ------- -- ---------- --- - --- ----- ----- ----<br>it's --- --- ----- --- ---- ---- ------- ----- ---- -------<br>--- --- -- ----- -- --- ---- -- --- ---- -- ------ ------<br>--- ----- -- ----,137141,137135.19999999925,136648.278,136652,136664.944,137148.258,,28,it's
screen,html.Screen,2_1_0_1_29,2022-02-15T15:53:39.232Z,,,,,,,,,,,,,,,,,53,,,,,,,,,,,,,,277.74199999999837,,response,,,,99,,,,,,,Space,keypress(Space),,,,,,,,---- -- ----- -- ------ - ------- --- ----------<br>------------- ------ ------ ---- ---- ------- ----- -- ----<br>-------- ------- -- ---------- --- - --- ----- ----- ----<br>---- not --- ----- --- ---- ---- ------- ----- ---- -------<br>--- --- -- ----- -- --- ---- -- --- ---- -- ------ ------<br>--- ----- -- ----,137438.69999999925,137426,137131.592,137141.19999999925,137148.258,137448.246,,29,not
screen,html.Screen,2_1_0_1_30,2022-02-15T15:53:39.542Z,,,,,,,,,,,,,,,,,53,,,,,,,,,,,,,,294.8539999977511,,response,,,,99,,,,,,,Space,keypress(Space),,,,,,,,---- -- ----- -- ------ - ------- --- ----------<br>------------- ------ ------ ---- ---- ------- ----- -- ----<br>-------- ------- -- ---------- --- - --- ----- ----- ----<br>---- --- how ----- --- ---- ---- ------- ----- ---- -------<br>--- --- -- ----- -- --- ---- -- --- ---- -- ------ ------<br>--- ----- -- ----,137748.8999999985,137743.09999999776,137431.58,137438.69999999925,137448.246,137764.9,,30,how
screen,html.Screen,2_1_0_1_31,2022-02-15T15:53:39.851Z,,,,,,,,,,,,,,,,,53,,,,,,,,,,,,,,287.19999999777065,,response,,,,99,,,,,,,Space,keypress(Space),,,,,,,,---- -- ----- -- ------ - ------- --- ----------<br>------------- ------ ------ ---- ---- ------- ----- -- ----<br>-------- ------- -- ---------- --- - --- ----- ----- ----<br>---- --- --- close --- ---- ---- ------- ----- ---- -------<br>--- --- -- ----- -- --- ---- -- --- ---- -- ------ ------<br>--- ----- -- ----,138057.69999999925,138052.09999999776,137748.234,137749,137764.9,138064.888,,31,close
screen,html.Screen,2_1_0_1_32,2022-02-15T15:53:40.180Z,,,,,,,,,,,,,,,,,53,,,,,,,,,,,,,,316.0119999985036,,response,,,,99,,,,,,,Space,keypress(Space),,,,,,,,---- -- ----- -- ------ - ------- --- ----------<br>------------- ------ ------ ---- ---- ------- ----- -- ----<br>-------- ------- -- ---------- --- - --- ----- ----- ----<br>---- --- --- ----- you ---- ---- ------- ----- ---- -------<br>--- --- -- ----- -- --- ---- -- --- ---- -- ------ ------<br>--- ----- -- ----,138386.69999999925,138380.8999999985,138048.222,138057.8999999985,138064.888,138398.208,,32,you
screen,html.Screen,2_1_0_1_33,2022-02-15T15:53:40.471Z,,,,,,,,,,,,,,,,,53,,,,,,,,,,,,,,273.89199999775155,,response,,,,99,,,,,,,Space,keypress(Space),,,,,,,,---- -- ----- -- ------ - ------- --- ----------<br>------------- ------ ------ ---- ---- ------- ----- -- ----<br>-------- ------- -- ---------- --- - --- ----- ----- ----<br>---- --- --- ----- --- feel ---- ------- ----- ---- -------<br>--- --- -- ----- -- --- ---- -- --- ---- -- ------ ------<br>--- ----- -- ----,138677.69999999925,138672.09999999776,138381.542,138386.8999999985,138398.208,138681.53,,33,feel
screen,html.Screen,2_1_0_1_34,2022-02-15T15:53:40.767Z,,,,,,,,,,,,,,,,,53,,,,,,,,,,,,,,286.36999999851105,,response,,,,99,,,,,,,Space,keypress(Space),,,,,,,,---- -- ----- -- ------ - ------- --- ----------<br>------------- ------ ------ ---- ---- ------- ----- -- ----<br>-------- ------- -- ---------- --- - --- ----- ----- ----<br>---- --- --- ----- --- ---- that ------- ----- ---- -------<br>--- --- -- ----- -- --- ---- -- --- ---- -- ------ ------<br>--- ----- -- ----,138973.5,138967.8999999985,138664.864,138677.8999999985,138681.53,138981.518,,34,that
screen,html.Screen,2_1_0_1_35,2022-02-15T15:53:41.109Z,,,,,,,,,,,,,,,,,53,,,,,,,,,,,,,,328.48199999998906,,response,,,,99,,,,,,,Space,keypress(Space),,,,,,,,---- -- ----- -- ------ - ------- --- ----------<br>------------- ------ ------ ---- ---- ------- ----- -- ----<br>-------- ------- -- ---------- --- - --- ----- ----- ----<br>---- --- --- ----- --- ---- ---- matters ----- ---- -------<br>--- --- -- ----- -- --- ---- -- --- ---- -- ------ ------<br>--- ----- -- ----,139315.80000000075,139310,138964.852,138973.69999999925,138981.518,139331.504,,35,matters
screen,html.Screen,2_1_0_1_36,2022-02-15T15:53:41.493Z,,,,,,,,,,,,,,,,,53,,,,,,,,,,,,,,362.49600000001374,,response,,,,99,,,,,,,Space,keypress(Space),,,,,,,,"---- -- ----- -- ------ - ------- --- ----------<br>------------- ------ ------ ---- ---- ------- ----- -- ----<br>-------- ------- -- ---------- --- - --- ----- ----- ----<br>---- --- --- ----- --- ---- ---- ------- most, ---- -------<br>--- --- -- ----- -- --- ---- -- --- ---- -- ------ ------<br>--- ----- -- ----",139699.69999999925,139694,139314.838,139316,139331.504,139714.822,,36,"most,"
screen,html.Screen,2_1_0_1_37,2022-02-15T15:53:41.923Z,,,,,,,,,,,,,,,,,53,,,,,,,,,,,,,,409.0779999985243,,response,,,,99,,,,,,,Space,keypress(Space),,,,,,,,---- -- ----- -- ------ - ------- --- ----------<br>------------- ------ ------ ---- ---- ------- ----- -- ----<br>-------- ------- -- ---------- --- - --- ----- ----- ----<br>---- --- --- ----- --- ---- ---- ------- ----- it's -------<br>--- --- -- ----- -- --- ---- -- --- ---- -- ------ ------<br>--- ----- -- ----,140129.80000000075,140123.8999999985,139698.156,139699.8999999985,139714.822,140148.138,,37,it's
screen,html.Screen,2_1_0_1_38,2022-02-15T15:53:42.219Z,,,,,,,,,,,,,,,,,53,,,,,,,,,,,,,,271.8619999999937,,response,,,,99,,,,,,,Space,keypress(Space),,,,,,,,---- -- ----- -- ------ - ------- --- ----------<br>------------- ------ ------ ---- ---- ------- ----- -- ----<br>-------- ------- -- ---------- --- - --- ----- ----- ----<br>---- --- --- ----- --- ---- ---- ------- ----- ---- whether<br>--- --- -- ----- -- --- ---- -- --- ---- -- ------ ------<br>--- ----- -- ----,140425.69999999925,140420,140131.472,140130,140148.138,140431.46,,38,whether
screen,html.Screen,2_1_0_1_39,2022-02-15T15:53:42.565Z,,,,,,,,,,,,,,,,,53,,,,,,,,,,,,,,329.3400000007532,,response,,,,99,,,,,,,Space,keypress(Space),,,,,,,,---- -- ----- -- ------ - ------- --- ----------<br>------------- ------ ------ ---- ---- ------- ----- -- ----<br>-------- ------- -- ---------- --- - --- ----- ----- ----<br>---- --- --- ----- --- ---- ---- ------- ----- ---- -------<br>you --- -- ----- -- --- ---- -- --- ---- -- ------ ------<br>--- ----- -- ----,140771.80000000075,140760.80000000075,140414.794,140425.80000000075,140431.46,140781.446,,39,you
screen,html.Screen,2_1_0_1_40,2022-02-15T15:53:42.859Z,,,,,,,,,,,,,,,,,53,,,,,,,,,,,,,,278.3540000007488,,response,,,,99,,,,,,,Space,keypress(Space),,,,,,,,---- -- ----- -- ------ - ------- --- ----------<br>------------- ------ ------ ---- ---- ------- ----- -- ----<br>-------- ------- -- ---------- --- - --- ----- ----- ----<br>---- --- --- ----- --- ---- ---- ------- ----- ---- -------<br>--- are -- ----- -- --- ---- -- --- ---- -- ------ ------<br>--- ----- -- ----,141065.80000000075,141059.80000000075,140764.78,140771.8999999985,140781.446,141081.434,,40,are
screen,html.Screen,2_1_0_1_41,2022-02-15T15:53:43.162Z,,,,,,,,,,,,,,,,,53,,,,,,,,,,,,,,281.3660000007367,,response,,,,99,,,,,,,Space,keypress(Space),,,,,,,,---- -- ----- -- ------ - ------- --- ----------<br>------------- ------ ------ ---- ---- ------- ----- -- ----<br>-------- ------- -- ---------- --- - --- ----- ----- ----<br>---- --- --- ----- --- ---- ---- ------- ----- ---- -------<br>--- --- as ----- -- --- ---- -- --- ---- -- ------ ------<br>--- ----- -- ----,141368.59999999776,141362.80000000075,141064.768,141066,141081.434,141381.422,,41,as
screen,html.Screen,2_1_0_1_42,2022-02-15T15:53:43.542Z,,,,,,,,,,,,,,,,,53,,,,,,,,,,,,,,361.27799999926356,,response,,,,99,,,,,,,Space,keypress(Space),,,,,,,,---- -- ----- -- ------ - ------- --- ----------<br>------------- ------ ------ ---- ---- ------- ----- -- ----<br>-------- ------- -- ---------- --- - --- ----- ----- ----<br>---- --- --- ----- --- ---- ---- ------- ----- ---- -------<br>--- --- -- close -- --- ---- -- --- ---- -- ------ ------<br>--- ----- -- ----,141748.30000000075,141742.69999999925,141364.756,141368.80000000075,141381.422,141764.74,,42,close
screen,html.Screen,2_1_0_1_43,2022-02-15T15:53:43.820Z,,,,,,,,,,,,,,,,,53,,,,,,,,,,,,,,254.95999999926426,,response,,,,99,,,,,,,Space,keypress(Space),,,,,,,,---- -- ----- -- ------ - ------- --- ----------<br>------------- ------ ------ ---- ---- ------- ----- -- ----<br>-------- ------- -- ---------- --- - --- ----- ----- ----<br>---- --- --- ----- --- ---- ---- ------- ----- ---- -------<br>--- --- -- ----- as --- ---- -- --- ---- -- ------ ------<br>--- ----- -- ----,142026.5,142019.69999999925,141748.074,141748.5,141764.74,142048.062,,43,as
screen,html.Screen,2_1_0_1_44,2022-02-15T15:53:44.202Z,,,,,,,,,,,,,,,,,53,,,,,,,,,,,,,,352.6379999992496,,response,,,,99,,,,,,,Space,keypress(Space),,,,,,,,---- -- ----- -- ------ - ------- --- ----------<br>------------- ------ ------ ---- ---- ------- ----- -- ----<br>-------- ------- -- ---------- --- - --- ----- ----- ----<br>---- --- --- ----- --- ---- ---- ------- ----- ---- -------<br>--- --- -- ----- -- you ---- -- --- ---- -- ------ ------<br>--- ----- -- ----,142409,142400.69999999925,142014.73,142026.80000000075,142048.062,142431.38,,44,you
screen,html.Screen,2_1_0_1_45,2022-02-15T15:53:44.564Z,,,,,,,,,,,,,,,,,53,,,,,,,,,,,,,,333.4200000007404,,response,,,,99,,,,,,,Space,keypress(Space),,,,,,,,---- -- ----- -- ------ - ------- --- ----------<br>------------- ------ ------ ---- ---- ------- ----- -- ----<br>-------- ------- -- ---------- --- - --- ----- ----- ----<br>---- --- --- ----- --- ---- ---- ------- ----- ---- -------<br>--- --- -- ----- -- --- want -- --- ---- -- ------ ------<br>--- ----- -- ----,142770.80000000075,142764.80000000075,142414.714,142409.19999999925,142431.38,142781.366,,45,want
screen,html.Screen,2_1_0_1_46,2022-02-15T15:53:44.819Z,,,,,,,,,,,,,,,,,53,,,,,,,,,,,,,,238.33399999924586,,response,,,,99,,,,,,,Space,keypress(Space),,,,,,,,---- -- ----- -- ------ - ------- --- ----------<br>------------- ------ ------ ---- ---- ------- ----- -- ----<br>-------- ------- -- ---------- --- - --- ----- ----- ----<br>---- --- --- ----- --- ---- ---- ------- ----- ---- -------<br>--- --- -- ----- -- --- ---- to --- ---- -- ------ ------<br>--- ----- -- ----,143025.3999999985,143019.69999999925,142764.7,142770.8999999985,142781.366,143031.356,,46,to
screen,html.Screen,2_1_0_1_47,2022-02-15T15:53:45.089Z,,,,,,,,,,,,,,,,,53,,,,,,,,,,,,,,258.3439999992552,,response,,,,99,,,,,,,Space,keypress(Space),,,,,,,,"---- -- ----- -- ------ - ------- --- ----------<br>------------- ------ ------ ---- ---- ------- ----- -- ----<br>-------- ------- -- ---------- --- - --- ----- ----- ----<br>---- --- --- ----- --- ---- ---- ------- ----- ---- -------<br>--- --- -- ----- -- --- ---- -- be, ---- -- ------ ------<br>--- ----- -- ----",143295.5,143289.69999999925,143014.69,143025.5,143031.356,143298.012,,47,"be,"
screen,html.Screen,2_1_0_1_48,2022-02-15T15:53:45.486Z,,,,,,,,,,,,,,,,,53,,,,,,,,,,,,,,388.68799999926705,,response,,,,99,,,,,,,Space,keypress(Space),,,,,,,,---- -- ----- -- ------ - ------- --- ----------<br>------------- ------ ------ ---- ---- ------- ----- -- ----<br>-------- ------- -- ---------- --- - --- ----- ----- ----<br>---- --- --- ----- --- ---- ---- ------- ----- ---- -------<br>--- --- -- ----- -- --- ---- -- --- even -- ------ ------<br>--- ----- -- ----,143692.69999999925,143686.69999999925,143281.346,143295.69999999925,143298.012,143697.996,,48,even
screen,html.Screen,2_1_0_1_49,2022-02-15T15:53:45.723Z,,,,,,,,,,,,,,,,,53,,,,,,,,,,,,,,225.7039999992412,,response,,,,99,,,,,,,Space,keypress(Space),,,,,,,,---- -- ----- -- ------ - ------- --- ----------<br>------------- ------ ------ ---- ---- ------- ----- -- ----<br>-------- ------- -- ---------- --- - --- ----- ----- ----<br>---- --- --- ----- --- ---- ---- ------- ----- ---- -------<br>--- --- -- ----- -- --- ---- -- --- ---- if ------ ------<br>--- ----- -- ----,143929.69999999925,143923.69999999925,143681.33,143692.80000000075,143697.996,143947.986,,49,if
screen,html.Screen,2_1_0_1_50,2022-02-15T15:53:45.965Z,,,,,,,,,,,,,,,,,53,,,,,,,,,,,,,,217.6139999977604,,response,,,,99,,,,,,,Space,keypress(Space),,,,,,,,---- -- ----- -- ------ - ------- --- ----------<br>------------- ------ ------ ---- ---- ------- ----- -- ----<br>-------- ------- -- ---------- --- - --- ----- ----- ----<br>---- --- --- ----- --- ---- ---- ------- ----- ---- -------<br>--- --- -- ----- -- --- ---- -- --- ---- -- that's ------<br>--- ----- -- ----,144171.30000000075,144165.59999999776,143931.32,143929.8999999985,143947.986,144181.31,,50,that's
screen,html.Screen,2_1_0_1_51,2022-02-15T15:53:46.220Z,,,,,,,,,,,,,,,,,53,,,,,,,,,,,,,,239.38999999925727,,response,,,,99,,,,,,,Space,keypress(Space),,,,,,,,---- -- ----- -- ------ - ------- --- ----------<br>------------- ------ ------ ---- ---- ------- ----- -- ----<br>-------- ------- -- ---------- --- - --- ----- ----- ----<br>---- --- --- ----- --- ---- ---- ------- ----- ---- -------<br>--- --- -- ----- -- --- ---- -- --- ---- -- ------ really<br>--- ----- -- ----,144426.3999999985,144420.69999999925,144164.644,144171.3999999985,144181.31,144431.839,,51,really
screen,html.Screen,2_1_0_1_52,2022-02-15T15:53:46.633Z,,,,,,,,,,,,,,,,,53,,,,,,,,,,,,,,401.7609999977576,,response,,,,99,,,,,,,Space,keypress(Space),,,,,,,,---- -- ----- -- ------ - ------- --- ----------<br>------------- ------ ------ ---- ---- ------- ----- -- ----<br>-------- ------- -- ---------- --- - --- ----- ----- ----<br>---- --- --- ----- --- ---- ---- ------- ----- ---- -------<br>--- --- -- ----- -- --- ---- -- --- ---- -- ------ ------<br>not ----- -- ----,144839.69999999925,144833.59999999776,144415.173,144426.5,144431.839,144848.489,,52,not
screen,html.Screen,2_1_0_1_53,2022-02-15T15:53:46.939Z,,,,,,,,,,,,,,,,,53,,,,,,,,,,,,,,291.5109999999986,,response,,,,99,,,,,,,Space,keypress(Space),,,,,,,,---- -- ----- -- ------ - ------- --- ----------<br>------------- ------ ------ ---- ---- ------- ----- -- ----<br>-------- ------- -- ---------- --- - --- ----- ----- ----<br>---- --- --- ----- --- ---- ---- ------- ----- ---- -------<br>--- --- -- ----- -- --- ---- -- --- ---- -- ------ ------<br>--- close -- ----,145145.8999999985,145140,144831.823,144839.80000000075,144848.489,145165.143,,53,close
screen,html.Screen,2_1_0_1_54,2022-02-15T15:53:47.288Z,,,,,,,,,,,,,,,,,53,,,,,,,,,,,,,,323.4569999977539,,response,,,,99,,,,,,,Space,keypress(Space),,,,,,,,---- -- ----- -- ------ - ------- --- ----------<br>------------- ------ ------ ---- ---- ------- ----- -- ----<br>-------- ------- -- ---------- --- - --- ----- ----- ----<br>---- --- --- ----- --- ---- ---- ------- ----- ---- -------<br>--- --- -- ----- -- --- ---- -- --- ---- -- ------ ------<br>--- ----- at ----,145494.30000000075,145488.59999999776,145131.811,145146,145165.143,145498.463,,54,at
screen,html.Screen,2_1_0_1_55,2022-02-15T15:53:47.728Z,,,,,,,,,,,,,,,,,53,,,,,,,,,,,,,,430.136999997776,,response,,,,99,,,,,,,Space,keypress(Space),,,,,,,,---- -- ----- -- ------ - ------- --- ----------<br>------------- ------ ------ ---- ---- ------- ----- -- ----<br>-------- ------- -- ---------- --- - --- ----- ----- ----<br>---- --- --- ----- --- ---- ---- ------- ----- ---- -------<br>--- --- -- ----- -- --- ---- -- --- ---- -- ------ ------<br>--- ----- -- all.,145934.3999999985,145928.59999999776,145481.797,145494.3999999985,145498.463,145948.445,,55,all.
Item 99,flow.Loop,2_1_0_1,2022-02-15T15:53:47.728Z,,,,,,,,,,,,,,,,,,,,,,,,,,,,,,,21330.591999997763,,completion,,,,,A,,,,,,,,,,,silence,,,,,145934.69999999925,145928.59999999776,124564.676,124566.69999999925,124598.008,145948.445,,,
Question 1,html.Screen,2_1_0_2,2022-02-15T15:53:53.607Z,,,,,,,,,,,,,,,,,,,,,,,,,,,,true,FALSE,,5862.054999999993,,response,,,,99,A,,,,,,FALSE,click #choice-2,,,,silence,,,,,151813.5,151810.5,145931.779,145934.8999999985,145948.445,151831.543,,,
Question 2,html.Screen,2_1_0_3,2022-02-15T15:53:57.802Z,,,,,,,,,,,,,,,,,,,,,,,,,,,,true,TRUE,,4174.75700000074,,response,,,,99,A,,,,,,TRUE,click #choice-1,,,,silence,,,,,156008.59999999776,156006.30000000075,151798.211,151813.69999999925,151831.543,156031.699,,,
Item 99,flow.Sequence,2_1_0,2022-02-15T15:53:57.803Z,,,,,,,,,,,,,,,,,,,,,,,,,,,,,,,41425.26000000075,,completion,,,,,,,,,,,,,,,,,,,,,156008.80000000075,156006.30000000075,114531.042,114571.39999999851,114581.04,156031.699,,,
Holding screen,html.Screen,2_1_1_0,2022-02-15T15:54:07.836Z,,,,,,,,,,,,,,,,,,,,,,,,,,,,,,,10016.266000000003,,timeout,,,,,,,,,,,,,,,,,,,,,166041.59999999776,166014.633,156015.033,156008.8999999985,156031.699,166047.965,,,
screen,html.Screen,2_1_1_1_0,2022-02-15T15:54:08.688Z,,,,,,,,,,,,,,,,,54,,,,,,,,,,,,,,838.0350000000035,,response,,,,100,,,,,,,Space,keypress(Space),,,,,,,,At --- ---- --- ------ ----- ------- ---- -- --- ------- --<br>------- ---------- ------ -- ----- -- ----- -- ---- ------<br>--- ----- --- --- ------ -------- ----- --- ------ ----- --<br>----- ----- ---------- --- --- ------ ------ ---- -- ------<br>------- --- ------ ----- --- ---- ------- -- ---- --- --<br>------- ------,166894.09999999776,166886,166014.633,166041.80000000075,166047.965,166898.447,,0,At
screen,html.Screen,2_1_1_1_1,2022-02-15T15:54:09.103Z,,,,,,,,,,,,,,,,,54,,,,,,,,,,,,,,404.05300000001444,,response,,,,100,,,,,,,Space,keypress(Space),,,,,,,,-- the ---- --- ------ ----- ------- ---- -- --- ------- --<br>------- ---------- ------ -- ----- -- ----- -- ---- ------<br>--- ----- --- --- ------ -------- ----- --- ------ ----- --<br>----- ----- ---------- --- --- ------ ------ ---- -- ------<br>------- --- ------ ----- --- ---- ------- -- ---- --- --<br>------- ------,167308.30000000075,167302.5,166881.781,166894.30000000075,166898.447,167315.097,,1,the
screen,html.Screen,2_1_1_1_2,2022-02-15T15:54:09.430Z,,,,,,,,,,,,,,,,,54,,,,,,,,,,,,,,314.40299999999115,,response,,,,100,,,,,,,Space,keypress(Space),,,,,,,,-- --- time --- ------ ----- ------- ---- -- --- ------- --<br>------- ---------- ------ -- ----- -- ----- -- ---- ------<br>--- ----- --- --- ------ -------- ----- --- ------ ----- --<br>----- ----- ---------- --- --- ------ ------ ---- -- ------<br>------- --- ------ ----- --- ---- ------- -- ---- --- --<br>------- ------,167635.3999999985,167629.5,167298.431,167308.3999999985,167315.097,167648.417,,2,time
screen,html.Screen,2_1_1_1_3,2022-02-15T15:54:09.858Z,,,,,,,,,,,,,,,,,54,,,,,,,,,,,,,,410.08300000001327,,response,,,,100,,,,,,,Space,keypress(Space),,,,,,,,-- --- ---- the ------ ----- ------- ---- -- --- ------- --<br>------- ---------- ------ -- ----- -- ----- -- ---- ------<br>--- ----- --- --- ------ -------- ----- --- ------ ----- --<br>----- ----- ---------- --- --- ------ ------ ---- -- ------<br>------- --- ------ ----- --- ---- ------- -- ---- --- --<br>------- ------,168064.09999999776,168058.5,167631.751,167635.5,167648.417,168081.733,,3,the
screen,html.Screen,2_1_1_1_4,2022-02-15T15:54:10.311Z,,,,,,,,,,,,,,,,,54,,,,,,,,,,,,,,429.66699999850243,,response,,,,100,,,,,,,Space,keypress(Space),,,,,,,,-- --- ---- --- French ----- ------- ---- -- --- ------- --<br>------- ---------- ------ -- ----- -- ----- -- ---- ------<br>--- ----- --- --- ------ -------- ----- --- ------ ----- --<br>----- ----- ---------- --- --- ------ ------ ---- -- ------<br>------- --- ------ ----- --- ---- ------- -- ---- --- --<br>------- ------,168517.19999999925,168511.3999999985,168065.067,168064.19999999925,168081.733,168531.715,,4,French
screen,html.Screen,2_1_1_1_5,2022-02-15T15:54:10.652Z,,,,,,,,,,,,,,,,,54,,,,,,,,,,,,,,320.7850000000035,,response,,,,100,,,,,,,Space,keypress(Space),,,,,,,,-- --- ---- --- ------ crown ------- ---- -- --- ------- --<br>------- ---------- ------ -- ----- -- ----- -- ---- ------<br>--- ----- --- --- ------ -------- ----- --- ------ ----- --<br>----- ----- ---------- --- --- ------ ------ ---- -- ------<br>------- --- ------ ----- --- ---- ------- -- ---- --- --<br>------- ------,168858,168852.5,168515.049,168517.3999999985,168531.715,168865.035,,5,crown
screen,html.Screen,2_1_1_1_6,2022-02-15T15:54:11.085Z,,,,,,,,,,,,,,,,,54,,,,,,,,,,,,,,420.26500000074157,,response,,,,100,,,,,,,Space,keypress(Space),,,,,,,,-- --- ---- --- ------ ----- secured ---- -- --- ------- --<br>------- ---------- ------ -- ----- -- ----- -- ---- ------<br>--- ----- --- --- ------ -------- ----- --- ------ ----- --<br>----- ----- ---------- --- --- ------ ------ ---- -- ------<br>------- --- ------ ----- --- ---- ------- -- ---- --- --<br>------- ------,169291,169285.30000000075,168848.369,168858.09999999776,168865.035,169298.351,,6,secured
screen,html.Screen,2_1_1_1_7,2022-02-15T15:54:11.402Z,,,,,,,,,,,,,,,,,54,,,,,,,,,,,,,,303.84899999925983,,response,,,,100,,,,,,,Space,keypress(Space),,,,,,,,-- --- ---- --- ------ ----- ------- much -- --- ------- --<br>------- ---------- ------ -- ----- -- ----- -- ---- ------<br>--- ----- --- --- ------ -------- ----- --- ------ ----- --<br>----- ----- ---------- --- --- ------ ------ ---- -- ------<br>------- --- ------ ----- --- ---- ------- -- ---- --- --<br>------- ------,169608.09999999776,169602.19999999925,169281.685,169291.09999999776,169298.351,169615.005,,7,much
screen,html.Screen,2_1_1_1_8,2022-02-15T15:54:11.740Z,,,,,,,,,,,,,,,,,54,,,,,,,,,,,,,,325.2950000007404,,response,,,,100,,,,,,,Space,keypress(Space),,,,,,,,-- --- ---- --- ------ ----- ------- ---- of --- ------- --<br>------- ---------- ------ -- ----- -- ----- -- ---- ------<br>--- ----- --- --- ------ -------- ----- --- ------ ----- --<br>----- ----- ---------- --- --- ------ ------ ---- -- ------<br>------- --- ------ ----- --- ---- ------- -- ---- --- --<br>------- ------,169946,169940.30000000075,169598.339,169608.30000000075,169615.005,169948.325,,8,of
screen,html.Screen,2_1_1_1_9,2022-02-15T15:54:12.043Z,,,,,,,,,,,,,,,,,54,,,,,,,,,,,,,,293.07499999849824,,response,,,,100,,,,,,,Space,keypress(Space),,,,,,,,-- --- ---- --- ------ ----- ------- ---- -- its ------- --<br>------- ---------- ------ -- ----- -- ----- -- ---- ------<br>--- ----- --- --- ------ -------- ----- --- ------ ----- --<br>----- ----- ---------- --- --- ------ ------ ---- -- ------<br>------- --- ------ ----- --- ---- ------- -- ---- --- --<br>------- ------,170249.09999999776,170241.3999999985,169931.659,169946.19999999925,169948.325,170264.979,,9,its
screen,html.Screen,2_1_1_1_10,2022-02-15T15:54:12.324Z,,,,,,,,,,,,,,,,,54,,,,,,,,,,,,,,259.321000000753,,response,,,,100,,,,,,,Space,keypress(Space),,,,,,,,-- --- ---- --- ------ ----- ------- ---- -- --- revenue --<br>------- ---------- ------ -- ----- -- ----- -- ---- ------<br>--- ----- --- --- ------ -------- ----- --- ------ ----- --<br>----- ----- ---------- --- --- ------ ------ ---- -- ------<br>------- --- ------ ----- --- ---- ------- -- ---- --- --<br>------- ------,170529.8999999985,170524.30000000075,170248.313,170249.69999999925,170264.979,170548.301,,10,revenue
screen,html.Screen,2_1_1_1_11,2022-02-15T15:54:12.693Z,,,,,,,,,,,,,,,,,54,,,,,,,,,,,,,,344.8989999992482,,response,,,,100,,,,,,,Space,keypress(Space),,,,,,,,-- --- ---- --- ------ ----- ------- ---- -- --- ------- by<br>------- ---------- ------ -- ----- -- ----- -- ---- ------<br>--- ----- --- --- ------ -------- ----- --- ------ ----- --<br>----- ----- ---------- --- --- ------ ------ ---- -- ------<br>------- --- ------ ----- --- ---- ------- -- ---- --- --<br>------- ------,170899,170893.19999999925,170514.969,170530.09999999776,170548.301,170914.953,,11,by
screen,html.Screen,2_1_1_1_12,2022-02-15T15:54:12.960Z,,,,,,,,,,,,,,,,,54,,,,,,,,,,,,,,242.34700000073644,,response,,,,100,,,,,,,Space,keypress(Space),,,,,,,,-- --- ---- --- ------ ----- ------- ---- -- --- ------- --<br>issuing ---------- ------ -- ----- -- ----- -- ---- ------<br>--- ----- --- --- ------ -------- ----- --- ------ ----- --<br>----- ----- ---------- --- --- ------ ------ ---- -- ------<br>------- --- ------ ----- --- ---- ------- -- ---- --- --<br>------- ------,171165.3999999985,171157.30000000075,170898.287,170899.19999999925,170914.953,171181.609,,12,issuing
screen,html.Screen,2_1_1_1_13,2022-02-15T15:54:13.285Z,,,,,,,,,,,,,,,,,54,,,,,,,,,,,,,,303.5909999992582,,response,,,,100,,,,,,,Space,keypress(Space),,,,,,,,-- --- ---- --- ------ ----- ------- ---- -- --- ------- --<br>------- government ------ -- ----- -- ----- -- ---- ------<br>--- ----- --- --- ------ -------- ----- --- ------ ----- --<br>----- ----- ---------- --- --- ------ ------ ---- -- ------<br>------- --- ------ ----- --- ---- ------- -- ---- --- --<br>------- ------,171490.80000000075,171485.19999999925,171164.943,171165.5,171181.609,171498.263,,13,government
screen,html.Screen,2_1_1_1_14,2022-02-15T15:54:13.613Z,,,,,,,,,,,,,,,,,54,,,,,,,,,,,,,,314.93699999924866,,response,,,,100,,,,,,,Space,keypress(Space),,,,,,,,-- --- ---- --- ------ ----- ------- ---- -- --- ------- --<br>------- ---------- bonds. -- ----- -- ----- -- ---- ------<br>--- ----- --- --- ------ -------- ----- --- ------ ----- --<br>----- ----- ---------- --- --- ------ ------ ---- -- ------<br>------- --- ------ ----- --- ---- ------- -- ---- --- --<br>------- ------,171818.8999999985,171813.19999999925,171481.597,171491,171498.263,171831.583,,14,bonds.
screen,html.Screen,2_1_1_1_15,2022-02-15T15:54:14.516Z,,,,,,,,,,,,,,,,,54,,,,,,,,,,,,,,884.6169999992417,,response,,,,100,,,,,,,Space,keypress(Space),,,,,,,,-- --- ---- --- ------ ----- ------- ---- -- --- ------- --<br>------- ---------- ------ In ----- -- ----- -- ---- ------<br>--- ----- --- --- ------ -------- ----- --- ------ ----- --<br>----- ----- ---------- --- --- ------ ------ ---- -- ------<br>------- --- ------ ----- --- ---- ------- -- ---- --- --<br>------- ------,172722,172716.19999999925,171814.917,171819.09999999776,171831.583,172731.547,,15,In
screen,html.Screen,2_1_1_1_16,2022-02-15T15:54:14.837Z,,,,,,,,,,,,,,,,,54,,,,,,,,,,,,,,305.4530000000086,,response,,,,100,,,,,,,Space,keypress(Space),,,,,,,,"-- --- ---- --- ------ ----- ------- ---- -- --- ------- --<br>------- ---------- ------ -- 1727, -- ----- -- ---- ------<br>--- ----- --- --- ------ -------- ----- --- ------ ----- --<br>----- ----- ---------- --- --- ------ ------ ---- -- ------<br>------- --- ------ ----- --- ---- ------- -- ---- --- --<br>------- ------",173042.69999999925,173037,172714.881,172722.19999999925,172731.547,173048.201,,16,"1727,"
screen,html.Screen,2_1_1_1_17,2022-02-15T15:54:16.248Z,,,,,,,,,,,,,,,,,54,,,,,,,,,,,,,,1398.898999997764,,response,,,,100,,,,,,,Space,keypress(Space),,,,,,,,-- --- ---- --- ------ ----- ------- ---- -- --- ------- --<br>------- ---------- ------ -- ----- in ----- -- ---- ------<br>--- ----- --- --- ------ -------- ----- --- ------ ----- --<br>----- ----- ---------- --- --- ------ ------ ---- -- ------<br>------- --- ------ ----- --- ---- ------- -- ---- --- --<br>------- ------,174453.5,174447.09999999776,173031.535,173042.8999999985,173048.201,174464.811,,17,in
screen,html.Screen,2_1_1_1_18,2022-02-15T15:54:16.563Z,,,,,,,,,,,,,,,,,54,,,,,,,,,,,,,,298.28899999777786,,response,,,,100,,,,,,,Space,keypress(Space),,,,,,,,-- --- ---- --- ------ ----- ------- ---- -- --- ------- --<br>------- ---------- ------ -- ----- -- order -- ---- ------<br>--- ----- --- --- ------ -------- ----- --- ------ ----- --<br>----- ----- ---------- --- --- ------ ------ ---- -- ------<br>------- --- ------ ----- --- ---- ------- -- ---- --- --<br>------- ------,174768.59999999776,174763.09999999776,174448.145,174453.59999999776,174464.811,174781.465,,18,order
screen,html.Screen,2_1_1_1_19,2022-02-15T15:54:16.901Z,,,,,,,,,,,,,,,,,54,,,,,,,,,,,,,,319.4349999985134,,response,,,,100,,,,,,,Space,keypress(Space),,,,,,,,-- --- ---- --- ------ ----- ------- ---- -- --- ------- --<br>------- ---------- ------ -- ----- -- ----- to ---- ------<br>--- ----- --- --- ------ -------- ----- --- ------ ----- --<br>----- ----- ---------- --- --- ------ ------ ---- -- ------<br>------- --- ------ ----- --- ---- ------- -- ---- --- --<br>------- ------,175106.59999999776,175100.8999999985,174764.799,174768.69999999925,174781.465,175114.785,,19,to
screen,html.Screen,2_1_1_1_20,2022-02-15T15:54:17.152Z,,,,,,,,,,,,,,,,,54,,,,,,,,,,,,,,237.01500000074157,,response,,,,100,,,,,,,Space,keypress(Space),,,,,,,,-- --- ---- --- ------ ----- ------- ---- -- --- ------- --<br>------- ---------- ------ -- ----- -- ----- -- save ------<br>--- ----- --- --- ------ -------- ----- --- ------ ----- --<br>----- ----- ---------- --- --- ------ ------ ---- -- ------<br>------- --- ------ ----- --- ---- ------- -- ---- --- --<br>------- ------,175357.5,175351.80000000075,175098.119,175106.80000000075,175114.785,175364.775,,20,save
screen,html.Screen,2_1_1_1_21,2022-02-15T15:54:17.534Z,,,,,,,,,,,,,,,,,54,,,,,,,,,,,,,,370.0250000007509,,response,,,,100,,,,,,,Space,keypress(Space),,,,,,,,"-- --- ---- --- ------ ----- ------- ---- -- --- ------- --<br>------- ---------- ------ -- ----- -- ----- -- ---- money,<br>--- ----- --- --- ------ -------- ----- --- ------ ----- --<br>----- ----- ---------- --- --- ------ ------ ---- -- ------<br>------- --- ------ ----- --- ---- ------- -- ---- --- --<br>------- ------",175740,175734.80000000075,175348.109,175357.69999999925,175364.775,175765.172,,21,"money,"
screen,html.Screen,2_1_1_1_22,2022-02-15T15:54:17.918Z,,,,,,,,,,,,,,,,,54,,,,,,,,,,,,,,353.52799999926356,,response,,,,100,,,,,,,Space,keypress(Space),,,,,,,,-- --- ---- --- ------ ----- ------- ---- -- --- ------- --<br>------- ---------- ------ -- ----- -- ----- -- ---- ------<br>the ----- --- --- ------ -------- ----- --- ------ ----- --<br>----- ----- ---------- --- --- ------ ------ ---- -- ------<br>------- --- ------ ----- --- ---- ------- -- ---- --- --<br>------- ------,176123,176118.69999999925,175748.506,175740,175765.172,176131.824,,22,the
screen,html.Screen,2_1_1_1_23,2022-02-15T15:54:18.176Z,,,,,,,,,,,,,,,,,54,,,,,,,,,,,,,,244.9760000007518,,response,,,,100,,,,,,,Space,keypress(Space),,,,,,,,-- --- ---- --- ------ ----- ------- ---- -- --- ------- --<br>------- ---------- ------ -- ----- -- ----- -- ---- ------<br>--- state --- --- ------ -------- ----- --- ------ ----- --<br>----- ----- ---------- --- --- ------ ------ ---- -- ------<br>------- --- ------ ----- --- ---- ------- -- ---- --- --<br>------- ------,176381.5,176376.80000000075,176115.158,176123.09999999776,176131.824,176398.48,,23,state
screen,html.Screen,2_1_1_1_24,2022-02-15T15:54:18.501Z,,,,,,,,,,,,,,,,,54,,,,,,,,,,,,,,303.3200000007346,,response,,,,100,,,,,,,Space,keypress(Space),,,,,,,,-- --- ---- --- ------ ----- ------- ---- -- --- ------- --<br>------- ---------- ------ -- ----- -- ----- -- ---- ------<br>--- ----- cut --- ------ -------- ----- --- ------ ----- --<br>----- ----- ---------- --- --- ------ ------ ---- -- ------<br>------- --- ------ ----- --- ---- ------- -- ---- --- --<br>------- ------,176706,176701.80000000075,176381.814,176381.59999999776,176398.48,176715.134,,24,cut
screen,html.Screen,2_1_1_1_25,2022-02-15T15:54:18.737Z,,,,,,,,,,,,,,,,,54,,,,,,,,,,,,,,222.66600000075414,,response,,,,100,,,,,,,Space,keypress(Space),,,,,,,,-- --- ---- --- ------ ----- ------- ---- -- --- ------- --<br>------- ---------- ------ -- ----- -- ----- -- ---- ------<br>--- ----- --- the ------ -------- ----- --- ------ ----- --<br>----- ----- ---------- --- --- ------ ------ ---- -- ------<br>------- --- ------ ----- --- ---- ------- -- ---- --- --<br>------- ------,176943,176937.80000000075,176698.468,176706.09999999776,176715.134,176948.458,,25,the
screen,html.Screen,2_1_1_1_26,2022-02-15T15:54:18.985Z,,,,,,,,,,,,,,,,,54,,,,,,,,,,,,,,237.4419999984966,,response,,,,100,,,,,,,Space,keypress(Space),,,,,,,,-- --- ---- --- ------ ----- ------- ---- -- --- ------- --<br>------- ---------- ------ -- ----- -- ----- -- ---- ------<br>--- ----- --- --- bonds' -------- ----- --- ------ ----- --<br>----- ----- ---------- --- --- ------ ------ ---- -- ------<br>------- --- ------ ----- --- ---- ------- -- ---- --- --<br>------- ------,177190.30000000075,177185.8999999985,176931.792,176943.09999999776,176948.458,177198.448,,26,bonds'
screen,html.Screen,2_1_1_1_27,2022-02-15T15:54:19.442Z,,,,,,,,,,,,,,,,,54,,,,,,,,,,,,,,443.4519999985059,,response,,,,100,,,,,,,Space,keypress(Space),,,,,,,,-- --- ---- --- ------ ----- ------- ---- -- --- ------- --<br>------- ---------- ------ -- ----- -- ----- -- ---- ------<br>--- ----- --- --- ------ interest ----- --- ------ ----- --<br>----- ----- ---------- --- --- ------ ------ ---- -- ------<br>------- --- ------ ----- --- ---- ------- -- ---- --- --<br>------- ------,177647.5,177641.8999999985,177181.782,177190.3999999985,177198.448,177665.096,,27,interest
screen,html.Screen,2_1_1_1_28,2022-02-15T15:54:19.803Z,,,,,,,,,,,,,,,,,54,,,,,,,,,,,,,,337.7040000007546,,response,,,,100,,,,,,,Space,keypress(Space),,,,,,,,-- --- ---- --- ------ ----- ------- ---- -- --- ------- --<br>------- ---------- ------ -- ----- -- ----- -- ---- ------<br>--- ----- --- --- ------ -------- rate. --- ------ ----- --<br>----- ----- ---------- --- --- ------ ------ ---- -- ------<br>------- --- ------ ----- --- ---- ------- -- ---- --- --<br>------- ------,178008.30000000075,178002.80000000075,177648.43,177647.69999999925,177665.096,178015.082,,28,rate.
screen,html.Screen,2_1_1_1_29,2022-02-15T15:54:20.519Z,,,,,,,,,,,,,,,,,54,,,,,,,,,,,,,,703.817999998515,,response,,,,100,,,,,,,Space,keypress(Space),,,,,,,,-- --- ---- --- ------ ----- ------- ---- -- --- ------- --<br>------- ---------- ------ -- ----- -- ----- -- ---- ------<br>--- ----- --- --- ------ -------- ----- The ------ ----- --<br>----- ----- ---------- --- --- ------ ------ ---- -- ------<br>------- --- ------ ----- --- ---- ------- -- ---- --- --<br>------- ------,178724.69999999925,178718.8999999985,177998.416,178008.5,178015.082,178731.72,,29,The
screen,html.Screen,2_1_1_1_30,2022-02-15T15:54:20.844Z,,,,,,,,,,,,,,,,,54,,,,,,,,,,,,,,312.0800000007439,,response,,,,100,,,,,,,Space,keypress(Space),,,,,,,,-- --- ---- --- ------ ----- ------- ---- -- --- ------- --<br>------- ---------- ------ -- ----- -- ----- -- ---- ------<br>--- ----- --- --- ------ -------- ----- --- market ----- --<br>----- ----- ---------- --- --- ------ ------ ---- -- ------<br>------- --- ------ ----- --- ---- ------- -- ---- --- --<br>------- ------,179049.3999999985,179043.80000000075,178715.054,178724.8999999985,178731.72,179065.04,,30,market
screen,html.Screen,2_1_1_1_31,2022-02-15T15:54:21.161Z,,,,,,,,,,,,,,,,,54,,,,,,,,,,,,,,293.6599999992468,,response,,,,100,,,,,,,Space,keypress(Space),,,,,,,,-- --- ---- --- ------ ----- ------- ---- -- --- ------- --<br>------- ---------- ------ -- ----- -- ----- -- ---- ------<br>--- ----- --- --- ------ -------- ----- --- ------ value --<br>----- ----- ---------- --- --- ------ ------ ---- -- ------<br>------- --- ------ ----- --- ---- ------- -- ---- --- --<br>------- ------,179365.8999999985,179358.69999999925,179048.374,179049.59999999776,179065.04,179381.694,,31,value
screen,html.Screen,2_1_1_1_32,2022-02-15T15:54:21.506Z,,,,,,,,,,,,,,,,,54,,,,,,,,,,,,,,324.00599999926635,,response,,,,100,,,,,,,Space,keypress(Space),,,,,,,,-- --- ---- --- ------ ----- ------- ---- -- --- ------- --<br>------- ---------- ------ -- ----- -- ----- -- ---- ------<br>--- ----- --- --- ------ -------- ----- --- ------ ----- of<br>----- ----- ---------- --- --- ------ ------ ---- -- ------<br>------- --- ------ ----- --- ---- ------- -- ---- --- --<br>------- ------,179711.19999999925,179705.69999999925,179365.028,179366.09999999776,179381.694,179715.014,,32,of
screen,html.Screen,2_1_1_1_33,2022-02-15T15:54:21.769Z,,,,,,,,,,,,,,,,,54,,,,,,,,,,,,,,253.68599999925937,,response,,,,100,,,,,,,Space,keypress(Space),,,,,,,,-- --- ---- --- ------ ----- ------- ---- -- --- ------- --<br>------- ---------- ------ -- ----- -- ----- -- ---- ------<br>--- ----- --- --- ------ -------- ----- --- ------ ----- --<br>these ----- ---------- --- --- ------ ------ ---- -- ------<br>------- --- ------ ----- --- ---- ------- -- ---- --- --<br>------- ------,179974.30000000075,179968.69999999925,179698.348,179711.3999999985,179715.014,179981.67,,33,these
screen,html.Screen,2_1_1_1_34,2022-02-15T15:54:22.116Z,,,,,,,,,,,,,,,,,54,,,,,,,,,,,,,,334.02999999924214,,response,,,,100,,,,,,,Space,keypress(Space),,,,,,,,-- --- ---- --- ------ ----- ------- ---- -- --- ------- --<br>------- ---------- ------ -- ----- -- ----- -- ---- ------<br>--- ----- --- --- ------ -------- ----- --- ------ ----- --<br>----- bonds ---------- --- --- ------ ------ ---- -- ------<br>------- --- ------ ----- --- ---- ------- -- ---- --- --<br>------- ------,180321.3999999985,180315.69999999925,179965.004,179974.3999999985,179981.67,180331.656,,34,bonds
screen,html.Screen,2_1_1_1_35,2022-02-15T15:54:22.501Z,,,,,,,,,,,,,,,,,54,,,,,,,,,,,,,,368.9439999977767,,response,,,,100,,,,,,,Space,keypress(Space),,,,,,,,"-- --- ---- --- ------ ----- ------- ---- -- --- ------- --<br>------- ---------- ------ -- ----- -- ----- -- ---- ------<br>--- ----- --- --- ------ -------- ----- --- ------ ----- --<br>----- ----- plummeted, --- --- ------ ------ ---- -- ------<br>------- --- ------ ----- --- ---- ------- -- ---- --- --<br>------- ------",180706.3999999985,180700.59999999776,180314.99,180321.69999999925,180331.656,180714.974,,35,"plummeted,"
screen,html.Screen,2_1_1_1_36,2022-02-15T15:54:22.845Z,,,,,,,,,,,,,,,,,54,,,,,,,,,,,,,,329.6259999977774,,response,,,,100,,,,,,,Space,keypress(Space),,,,,,,,-- --- ---- --- ------ ----- ------- ---- -- --- ------- --<br>------- ---------- ------ -- ----- -- ----- -- ---- ------<br>--- ----- --- --- ------ -------- ----- --- ------ ----- --<br>----- ----- ---------- and --- ------ ------ ---- -- ------<br>------- --- ------ ----- --- ---- ------- -- ---- --- --<br>------- ------,181050.3999999985,181044.59999999776,180698.308,180706.5,180714.974,181064.96,,36,and
screen,html.Screen,2_1_1_1_37,2022-02-15T15:54:23.125Z,,,,,,,,,,,,,,,,,54,,,,,,,,,,,,,,259.639999997773,,response,,,,100,,,,,,,Space,keypress(Space),,,,,,,,-- --- ---- --- ------ ----- ------- ---- -- --- ------- --<br>------- ---------- ------ -- ----- -- ----- -- ---- ------<br>--- ----- --- --- ------ -------- ----- --- ------ ----- --<br>----- ----- ---------- --- the ------ ------ ---- -- ------<br>------- --- ------ ----- --- ---- ------- -- ---- --- --<br>------- ------,181330.30000000075,181324.59999999776,181048.294,181050.5,181064.96,181348.282,,37,the
screen,html.Screen,2_1_1_1_38,2022-02-15T15:54:23.417Z,,,,,,,,,,,,,,,,,54,,,,,,,,,,,,,,268.3179999977583,,response,,,,100,,,,,,,Space,keypress(Space),,,,,,,,-- --- ---- --- ------ ----- ------- ---- -- --- ------- --<br>------- ---------- ------ -- ----- -- ----- -- ---- ------<br>--- ----- --- --- ------ -------- ----- --- ------ ----- --<br>----- ----- ---------- --- --- market ------ ---- -- ------<br>------- --- ------ ----- --- ---- ------- -- ---- --- --<br>------- ------,181622.19999999925,181616.59999999776,181331.616,181330.59999999776,181348.282,181631.604,,38,market
screen,html.Screen,2_1_1_1_39,2022-02-15T15:54:23.759Z,,,,,,,,,,,,,,,,,54,,,,,,,,,,,,,,326.7959999985178,,response,,,,100,,,,,,,Space,keypress(Space),,,,,,,,-- --- ---- --- ------ ----- ------- ---- -- --- ------- --<br>------- ---------- ------ -- ----- -- ----- -- ---- ------<br>--- ----- --- --- ------ -------- ----- --- ------ ----- --<br>----- ----- ---------- --- --- ------ became ---- -- ------<br>------- --- ------ ----- --- ---- ------- -- ---- --- --<br>------- ------,181964.69999999925,181958.3999999985,181614.938,181622.3999999985,181631.604,181981.59,,39,became
screen,html.Screen,2_1_1_1_40,2022-02-15T15:54:24.045Z,,,,,,,,,,,,,,,,,54,,,,,,,,,,,,,,260.0099999977683,,response,,,,100,,,,,,,Space,keypress(Space),,,,,,,,-- --- ---- --- ------ ----- ------- ---- -- --- ------- --<br>------- ---------- ------ -- ----- -- ----- -- ---- ------<br>--- ----- --- --- ------ -------- ----- --- ------ ----- --<br>----- ----- ---------- --- --- ------ ------ wary -- ------<br>------- --- ------ ----- --- ---- ------- -- ---- --- --<br>------- ------,182250.59999999776,182241.59999999776,181964.924,181964.80000000075,181981.59,182264.912,,40,wary
screen,html.Screen,2_1_1_1_41,2022-02-15T15:54:24.345Z,,,,,,,,,,,,,,,,,54,,,,,,,,,,,,,,279.5879999999888,,response,,,,100,,,,,,,Space,keypress(Space),,,,,,,,-- --- ---- --- ------ ----- ------- ---- -- --- ------- --<br>------- ---------- ------ -- ----- -- ----- -- ---- ------<br>--- ----- --- --- ------ -------- ----- --- ------ ----- --<br>----- ----- ---------- --- --- ------ ------ ---- of ------<br>------- --- ------ ----- --- ---- ------- -- ---- --- --<br>------- ------,182550.30000000075,182544.5,182248.246,182250.8999999985,182264.912,182564.9,,41,of
screen,html.Screen,2_1_1_1_42,2022-02-15T15:54:24.678Z,,,,,,,,,,,,,,,,,54,,,,,,,,,,,,,,312.6000000000058,,response,,,,100,,,,,,,Space,keypress(Space),,,,,,,,-- --- ---- --- ------ ----- ------- ---- -- --- ------- --<br>------- ---------- ------ -- ----- -- ----- -- ---- ------<br>--- ----- --- --- ------ -------- ----- --- ------ ----- --<br>----- ----- ---------- --- --- ------ ------ ---- -- French<br>------- --- ------ ----- --- ---- ------- -- ---- --- --<br>------- ------,182883.19999999925,182877.5,182548.234,182550.3999999985,182564.9,182898.22,,42,French
screen,html.Screen,2_1_1_1_43,2022-02-15T15:54:24.985Z,,,,,,,,,,,,,,,,,54,,,,,,,,,,,,,,285.27999999999884,,response,,,,100,,,,,,,Space,keypress(Space),,,,,,,,-- --- ---- --- ------ ----- ------- ---- -- --- ------- --<br>------- ---------- ------ -- ----- -- ----- -- ---- ------<br>--- ----- --- --- ------ -------- ----- --- ------ ----- --<br>----- ----- ---------- --- --- ------ ------ ---- -- ------<br>credit. --- ------ ----- --- ---- ------- -- ---- --- --<br>------- ------,183190.69999999925,183183.5,182881.554,182883.30000000075,182898.22,183198.208,,43,credit.
screen,html.Screen,2_1_1_1_44,2022-02-15T15:54:25.454Z,,,,,,,,,,,,,,,,,54,,,,,,,,,,,,,,455.29199999998673,,response,,,,100,,,,,,,Space,keypress(Space),,,,,,,,-- --- ---- --- ------ ----- ------- ---- -- --- ------- --<br>------- ---------- ------ -- ----- -- ----- -- ---- ------<br>--- ----- --- --- ------ -------- ----- --- ------ ----- --<br>----- ----- ---------- --- --- ------ ------ ---- -- ------<br>------- The ------ ----- --- ---- ------- -- ---- --- --<br>------- ------,183659.09999999776,183653.5,183181.542,183190.8999999985,183198.208,183664.856,,44,The
screen,html.Screen,2_1_1_1_45,2022-02-15T15:54:25.680Z,,,,,,,,,,,,,,,,,54,,,,,,,,,,,,,,214.54399999851012,,response,,,,100,,,,,,,Space,keypress(Space),,,,,,,,-- --- ---- --- ------ ----- ------- ---- -- --- ------- --<br>------- ---------- ------ -- ----- -- ----- -- ---- ------<br>--- ----- --- --- ------ -------- ----- --- ------ ----- --<br>----- ----- ---------- --- --- ------ ------ ---- -- ------<br>------- --- French ----- --- ---- ------- -- ---- --- --<br>------- ------,183885.5,183879.3999999985,183648.19,183659.30000000075,183664.856,183898.18,,45,French
screen,html.Screen,2_1_1_1_46,2022-02-15T15:54:25.942Z,,,,,,,,,,,,,,,,,54,,,,,,,,,,,,,,245.12000000075204,,response,,,,100,,,,,,,Space,keypress(Space),,,,,,,,-- --- ---- --- ------ ----- ------- ---- -- --- ------- --<br>------- ---------- ------ -- ----- -- ----- -- ---- ------<br>--- ----- --- --- ------ -------- ----- --- ------ ----- --<br>----- ----- ---------- --- --- ------ ------ ---- -- ------<br>------- --- ------ state --- ---- ------- -- ---- --- --<br>------- ------,184147,184143.30000000075,183881.514,183885.69999999925,183898.18,184164.836,,46,state
screen,html.Screen,2_1_1_1_47,2022-02-15T15:54:26.342Z,,,,,,,,,,,,,,,,,54,,,,,,,,,,,,,,375.56399999849964,,response,,,,100,,,,,,,Space,keypress(Space),,,,,,,,-- --- ---- --- ------ ----- ------- ---- -- --- ------- --<br>------- ---------- ------ -- ----- -- ----- -- ---- ------<br>--- ----- --- --- ------ -------- ----- --- ------ ----- --<br>----- ----- ---------- --- --- ------ ------ ---- -- ------<br>------- --- ------ ----- was ---- ------- -- ---- --- --<br>------- ------,184547.5,184540.3999999985,184148.17,184147.09999999776,184164.836,184564.82,,47,was
screen,html.Screen,2_1_1_1_48,2022-02-15T15:54:26.677Z,,,,,,,,,,,,,,,,,54,,,,,,,,,,,,,,310.5799999985029,,response,,,,100,,,,,,,Space,keypress(Space),,,,,,,,-- --- ---- --- ------ ----- ------- ---- -- --- ------- --<br>------- ---------- ------ -- ----- -- ----- -- ---- ------<br>--- ----- --- --- ------ -------- ----- --- ------ ----- --<br>----- ----- ---------- --- --- ------ ------ ---- -- ------<br>------- --- ------ ----- --- left ------- -- ---- --- --<br>------- ------,184882.30000000075,184875.3999999985,184548.154,184547.80000000075,184564.82,184898.14,,48,left
screen,html.Screen,2_1_1_1_49,2022-02-15T15:54:26.992Z,,,,,,,,,,,,,,,,,54,,,,,,,,,,,,,,295.1600000007311,,response,,,,100,,,,,,,Space,keypress(Space),,,,,,,,-- --- ---- --- ------ ----- ------- ---- -- --- ------- --<br>------- ---------- ------ -- ----- -- ----- -- ---- ------<br>--- ----- --- --- ------ -------- ----- --- ------ ----- --<br>----- ----- ---------- --- --- ------ ------ ---- -- ------<br>------- --- ------ ----- --- ---- without -- ---- --- --<br>------- ------,185197.30000000075,185193.30000000075,184881.474,184882.3999999985,184898.14,185214.794,,49,without
screen,html.Screen,2_1_1_1_50,2022-02-15T15:54:27.283Z,,,,,,,,,,,,,,,,,54,,,,,,,,,,,,,,270.40599999926053,,response,,,,100,,,,,,,Space,keypress(Space),,,,,,,,-- --- ---- --- ------ ----- ------- ---- -- --- ------- --<br>------- ---------- ------ -- ----- -- ----- -- ---- ------<br>--- ----- --- --- ------ -------- ----- --- ------ ----- --<br>----- ----- ---------- --- --- ------ ------ ---- -- ------<br>------- --- ------ ----- --- ---- ------- an ---- --- --<br>------- ------,185488.59999999776,185485.19999999925,185198.128,185197.59999999776,185214.794,185498.116,,50,an
screen,html.Screen,2_1_1_1_51,2022-02-15T15:54:27.587Z,,,,,,,,,,,,,,,,,54,,,,,,,,,,,,,,288.184000000736,,response,,,,100,,,,,,,Space,keypress(Space),,,,,,,,-- --- ---- --- ------ ----- ------- ---- -- --- ------- --<br>------- ---------- ------ -- ----- -- ----- -- ---- ------<br>--- ----- --- --- ------ -------- ----- --- ------ ----- --<br>----- ----- ---------- --- --- ------ ------ ---- -- ------<br>------- --- ------ ----- --- ---- ------- -- easy --- --<br>------- ------,185792.5,185786.30000000075,185481.45,185488.59999999776,185498.116,185798.545,,51,easy
screen,html.Screen,2_1_1_1_52,2022-02-15T15:54:27.921Z,,,,,,,,,,,,,,,,,54,,,,,,,,,,,,,,321.054999997752,,response,,,,100,,,,,,,Space,keypress(Space),,,,,,,,-- --- ---- --- ------ ----- ------- ---- -- --- ------- --<br>------- ---------- ------ -- ----- -- ----- -- ---- ------<br>--- ----- --- --- ------ -------- ----- --- ------ ----- --<br>----- ----- ---------- --- --- ------ ------ ---- -- ------<br>------- --- ------ ----- --- ---- ------- -- ---- way --<br>------- ------,186126.59999999776,186119.59999999776,185781.879,185792.59999999776,185798.545,186131.865,,52,way
screen,html.Screen,2_1_1_1_53,2022-02-15T15:54:28.222Z,,,,,,,,,,,,,,,,,54,,,,,,,,,,,,,,291.23499999777414,,response,,,,100,,,,,,,Space,keypress(Space),,,,,,,,-- --- ---- --- ------ ----- ------- ---- -- --- ------- --<br>------- ---------- ------ -- ----- -- ----- -- ---- ------<br>--- ----- --- --- ------ -------- ----- --- ------ ----- --<br>----- ----- ---------- --- --- ------ ------ ---- -- ------<br>------- --- ------ ----- --- ---- ------- -- ---- --- of<br>------- ------,186427.19999999925,186423.09999999776,186115.199,186127.09999999776,186131.865,186448.519,,53,of
screen,html.Screen,2_1_1_1_54,2022-02-15T15:54:28.535Z,,,,,,,,,,,,,,,,,54,,,,,,,,,,,,,,286.48099999999977,,response,,,,100,,,,,,,Space,keypress(Space),,,,,,,,-- --- ---- --- ------ ----- ------- ---- -- --- ------- --<br>------- ---------- ------ -- ----- -- ----- -- ---- ------<br>--- ----- --- --- ------ -------- ----- --- ------ ----- --<br>----- ----- ---------- --- --- ------ ------ ---- -- ------<br>------- --- ------ ----- --- ---- ------- -- ---- --- --<br>raising ------,186740.3999999985,186735,186431.853,186427.19999999925,186448.519,186748.507,,54,raising
screen,html.Screen,2_1_1_1_55,2022-02-15T15:54:28.874Z,,,,,,,,,,,,,,,,,54,,,,,,,,,,,,,,326.49299999998766,,response,,,,100,,,,,,,Space,keypress(Space),,,,,,,,-- --- ---- --- ------ ----- ------- ---- -- --- ------- --<br>------- ---------- ------ -- ----- -- ----- -- ---- ------<br>--- ----- --- --- ------ -------- ----- --- ------ ----- --<br>----- ----- ---------- --- --- ------ ------ ---- -- ------<br>------- --- ------ ----- --- ---- ------- -- ---- --- --<br>------- money.,187079,187075,186731.841,186740.3999999985,186748.507,187081.827,,55,money.
Item 100,flow.Loop,2_1_1_1,2022-02-15T15:54:28.874Z,,,,,,,,,,,,,,,,,,,,,,,,,,,,,,,21027.035000000003,,completion,,,,,A,,,,,,,,,,,silence,,,,,187079.30000000075,187075,166014.633,166041.80000000075,166047.965,187081.827,,,
Question 1,html.Screen,2_1_1_2,2022-02-15T15:54:34.201Z,,,,,,,,,,,,,,,,,,,,,,,,,,,,true,TRUE,,5320.67300000001,,response,,,,100,A,,,,,,TRUE,click #choice-1,,,,silence,,,,,192405.5,192402.5,187065.161,187079.30000000075,187081.827,192414.947,,,
Question 2,html.Screen,2_1_1_3,2022-02-15T15:54:36.308Z,,,,,,,,,,,,,,,,,,,,,,,,,,,,true,FALSE,,2095.4529999985243,,response,,,,100,A,,,,,,FALSE,click #choice-2,,,,silence,,,,,194513.30000000075,194510.3999999985,192398.281,192405.69999999925,192414.947,194531.529,,,
Item 100,flow.Sequence,2_1_1,2022-02-15T15:54:36.309Z,,,,,,,,,,,,,,,,,,,,,,,,,,,,,,,38478.70099999852,,completion,,,,,,,,,,,,,,,,,,,,,194513.59999999776,194510.3999999985,156015.033,156008.80000000075,156031.699,194531.529,,,
End of Practice,html.Page,2_1_2,2022-02-15T15:54:38.909Z,,,,,,,,,,,,,,,,,,,,,,,,,,,,,,,2566.5709999977553,,form submission,,,,,,,,,,,,,,,,,,,,,197113.8999999985,197098.09999999776,194498.197,194513.80000000075,194531.529,197114.759,,,
Practice,flow.Sequence,2_1,2022-02-15T15:54:38.909Z,,,,,,,,,,,,,,,,,,,,,,,,,,,,,,,82517.05999999777,,completion,,,,,,,,,,,,,,,,,,,,,197114.09999999776,197098.09999999776,114531.042,114571.30000000075,114581.04,197114.759,,,
Trap_instruction,html.Page,2_2_0,2022-02-15T15:54:42.811Z,,,,,,,,,,,,,,,,,,,,,,,,,,,,,,,3882.741000000009,,form submission,,,,,,,,,,,,,,,,,,,,,201015.80000000075,200997.5,197081.427,197114.09999999776,197114.759,201031.706,,,
trap_trial,html.Screen,2_2_1,2022-02-15T15:54:46.395Z,,,,,,,,,,,,,,,,,,,,,,,,,,,,true,1,,3564.7939999999944,,response,,,,,,,,,,,1,click #choice-1,,,,,,,,,204599.59999999776,204596.5,200981.708,201015.8999999985,201031.706,204614.896,,,
end of trap trial,html.Page,2_2_2,2022-02-15T15:54:48.122Z,,,,,,,,,,,,,,,,,,,,,,,,,,,,,,,1692.9040000007371,,form submission,,,,,,,,,,,,,,,,,,,,,206326.59999999776,206307.80000000075,204598.23,204599.80000000075,204614.896,206331.494,,,
Trap 1,flow.Sequence,2_2,2022-02-15T15:54:48.122Z,,,,,,,,,,,,,,,,,,,,,,,,,,,,,,,9193.041000000754,,completion,,,,,,,,,,,,,,,,,,,,,206326.80000000075,206307.80000000075,197081.427,197114.09999999776,197114.759,206331.494,,,
Standby,html.Page,2_3_0,2022-02-15T15:54:56.113Z,,,,,,,,,,,,,,,,,,,,,,,,,,,,,,,7999.679999999993,,timeout,,,,,,,,,,,,,,,,,,,,,214316.8999999985,214314.508,206298.162,206326.8999999985,206331.494,214331.174,,,
Holding screen,html.Screen,2_3_1_0_0,2022-02-15T15:55:03.112Z,,,,,,,,,,,,,,,,,,,,,,,,,,,,,,,7000.445999999996,,timeout,,,,,,,,,,,,,,,,,,,,,221316.09999999776,221314.954,214314.508,214317,214331.174,221331.62,,,
screen,html.Screen,2_3_1_0_1_0,2022-02-15T15:55:04.536Z,,,,,,,,,,,,,,,,,48,,,,,,,,,,,,,,1401.6800000007497,,response,,,,10,A,,,,,,Space,keypress(Space),,,,silence,,,,As -- --- ------ ------- --------- ----------- --------<br>--------- -------- --- ------- -- ------- ---- -- ------<br>-- --- -------- -------- ---------- ---- ---- ---- ------<br>-- --------- -- ---- -- --- -- --- ------- -- - -----<br>---------- -- -- -- ---- ----- -- ------ -- --- ------<br>-------,222740.3999999985,222733.30000000075,221314.954,221316.30000000075,221331.62,222748.23,,0,As
screen,html.Screen,2_3_1_0_1_1,2022-02-15T15:55:04.980Z,,,,,,,,,,,,,,,,,48,,,,,,,,,,,,,,429.86999999775435,,response,,,,10,A,,,,,,Space,keypress(Space),,,,silence,,,,-- in --- ------ ------- --------- ----------- --------<br>--------- -------- --- ------- -- ------- ---- -- ------<br>-- --- -------- -------- ---------- ---- ---- ---- ------<br>-- --------- -- ---- -- --- -- --- ------- -- - -----<br>---------- -- -- -- ---- ----- -- ------ -- --- ------<br>-------,223183.80000000075,223178.09999999776,222731.564,222740.5,222748.23,223198.212,,1,in
screen,html.Screen,2_3_1_0_1_2,2022-02-15T15:55:05.371Z,,,,,,,,,,,,,,,,,48,,,,,,,,,,,,,,370.8879999977653,,response,,,,10,A,,,,,,Space,keypress(Space),,,,silence,,,,-- -- the ------ ------- --------- ----------- --------<br>--------- -------- --- ------- -- ------- ---- -- ------<br>-- --- -------- -------- ---------- ---- ---- ---- ------<br>-- --------- -- ---- -- --- -- --- ------- -- - -----<br>---------- -- -- -- ---- ----- -- ------ -- --- ------<br>-------,223574.69999999925,223569.09999999776,223181.546,223184,223198.212,223581.53,,2,the
screen,html.Screen,2_3_1_0_1_3,2022-02-15T15:55:05.916Z,,,,,,,,,,,,,,,,,48,,,,,,,,,,,,,,532.569999997766,,response,,,,10,A,,,,,,Space,keypress(Space),,,,silence,,,,-- -- --- United ------- --------- ----------- --------<br>--------- -------- --- ------- -- ------- ---- -- ------<br>-- --- -------- -------- ---------- ---- ---- ---- ------<br>-- --------- -- ---- -- --- -- --- ------- -- - -----<br>---------- -- -- -- ---- ----- -- ------ -- --- ------<br>-------,224120.30000000075,224114.09999999776,223564.864,223574.8999999985,223581.53,224131.508,,3,United
screen,html.Screen,2_3_1_0_1_4,2022-02-15T15:55:06.370Z,,,,,,,,,,,,,,,,,48,,,,,,,,,,,,,,436.39199999850825,,response,,,,10,A,,,,,,Space,keypress(Space),,,,silence,,,,"-- -- --- ------ States, --------- ----------- --------<br>--------- -------- --- ------- -- ------- ---- -- ------<br>-- --- -------- -------- ---------- ---- ---- ---- ------<br>-- --------- -- ---- -- --- -- --- ------- -- - -----<br>---------- -- -- -- ---- ----- -- ------ -- --- ------<br>-------",224573.59999999776,224567.8999999985,224114.842,224120.5,224131.508,224581.49,,4,"States,"
screen,html.Screen,2_3_1_0_1_5,2022-02-15T15:55:07.042Z,,,,,,,,,,,,,,,,,48,,,,,,,,,,,,,,657.5100000000093,,response,,,,10,A,,,,,,Space,keypress(Space),,,,silence,,,,-- -- --- ------ ------- Colombian ----------- --------<br>--------- -------- --- ------- -- ------- ---- -- ------<br>-- --- -------- -------- ---------- ---- ---- ---- ------<br>-- --------- -- ---- -- --- -- --- ------- -- - -----<br>---------- -- -- -- ---- ----- -- ------ -- --- ------<br>-------,225245.80000000075,225239,224564.824,224573.69999999925,224581.49,225264.796,,5,Colombian
screen,html.Screen,2_3_1_0_1_6,2022-02-15T15:55:07.447Z,,,,,,,,,,,,,,,,,48,,,,,,,,,,,,,,380.1039999985078,,response,,,,10,A,,,,,,Space,keypress(Space),,,,silence,,,,-- -- --- ------ ------- --------- legislation --------<br>--------- -------- --- ------- -- ------- ---- -- ------<br>-- --- -------- -------- ---------- ---- ---- ---- ------<br>-- --------- -- ---- -- --- -- --- ------- -- - -----<br>---------- -- -- -- ---- ----- -- ------ -- --- ------<br>-------,225651,225644.8999999985,225248.13,225247.3999999985,225264.796,225665.174,,6,legislation
screen,html.Screen,2_3_1_0_1_7,2022-02-15T15:55:08.104Z,,,,,,,,,,,,,,,,,48,,,,,,,,,,,,,,636.7259999985108,,response,,,,10,A,,,,,,Space,keypress(Space),,,,silence,,,,-- -- --- ------ ------- --------- ----------- requires<br>--------- -------- --- ------- -- ------- ---- -- ------<br>-- --- -------- -------- ---------- ---- ---- ---- ------<br>-- --------- -- ---- -- --- -- --- ------- -- - -----<br>---------- -- -- -- ---- ----- -- ------ -- --- ------<br>-------,226307.59999999776,226301.8999999985,225648.508,225651.09999999776,225665.174,226315.148,,7,requires
screen,html.Screen,2_3_1_0_1_8,2022-02-15T15:55:08.577Z,,,,,,,,,,,,,,,,,48,,,,,,,,,,,,,,460.55199999926845,,response,,,,10,A,,,,,,Space,keypress(Space),,,,silence,,,,-- -- --- ------ ------- --------- ----------- --------<br>travelers -------- --- ------- -- ------- ---- -- ------<br>-- --- -------- -------- ---------- ---- ---- ---- ------<br>-- --------- -- ---- -- --- -- --- ------- -- - -----<br>---------- -- -- -- ---- ----- -- ------ -- --- ------<br>-------,226781.5,226775.69999999925,226298.482,226307.69999999925,226315.148,226798.462,,8,travelers
screen,html.Screen,2_3_1_0_1_9,2022-02-15T15:55:08.840Z,,,,,,,,,,,,,,,,,48,,,,,,,,,,,,,,240.33800000074552,,response,,,,10,A,,,,,,Space,keypress(Space),,,,silence,,,,-- -- --- ------ ------- --------- ----------- --------<br>--------- entering --- ------- -- ------- ---- -- ------<br>-- --- -------- -------- ---------- ---- ---- ---- ------<br>-- --------- -- ---- -- --- -- --- ------- -- - -----<br>---------- -- -- -- ---- ----- -- ------ -- --- ------<br>-------,227044.3999999985,227038.80000000075,226781.796,226781.5,226798.462,227048.452,,9,entering
screen,html.Screen,2_3_1_0_1_10,2022-02-15T15:55:09.191Z,,,,,,,,,,,,,,,,,48,,,,,,,,,,,,,,340.34800000075484,,response,,,,10,A,,,,,,Space,keypress(Space),,,,silence,,,,-- -- --- ------ ------- --------- ----------- --------<br>--------- -------- the ------- -- ------- ---- -- ------<br>-- --- -------- -------- ---------- ---- ---- ---- ------<br>-- --------- -- ---- -- --- -- --- ------- -- - -----<br>---------- -- -- -- ---- ----- -- ------ -- --- ------<br>-------,227394.8999999985,227388.80000000075,227031.786,227044.5,227048.452,227415.104,,10,the
screen,html.Screen,2_3_1_0_1_11,2022-02-15T15:55:09.519Z,,,,,,,,,,,,,,,,,48,,,,,,,,,,,,,,301.696000000753,,response,,,,10,A,,,,,,Space,keypress(Space),,,,silence,,,,-- -- --- ------ ------- --------- ----------- --------<br>--------- -------- --- country -- ------- ---- -- ------<br>-- --- -------- -------- ---------- ---- ---- ---- ------<br>-- --------- -- ---- -- --- -- --- ------- -- - -----<br>---------- -- -- -- ---- ----- -- ------ -- --- ------<br>-------,227722.59999999776,227716.80000000075,227381.772,227395,227415.104,227731.758,,11,country
screen,html.Screen,2_3_1_0_1_12,2022-02-15T15:55:09.865Z,,,,,,,,,,,,,,,,,48,,,,,,,,,,,,,,332.0420000007434,,response,,,,10,A,,,,,,Space,keypress(Space),,,,silence,,,,-- -- --- ------ ------- --------- ----------- --------<br>--------- -------- --- ------- to ------- ---- -- ------<br>-- --- -------- -------- ---------- ---- ---- ---- ------<br>-- --------- -- ---- -- --- -- --- ------- -- - -----<br>---------- -- -- -- ---- ----- -- ------ -- --- ------<br>-------,228069.3999999985,228063.80000000075,227715.092,227722.80000000075,227731.758,228081.744,,12,to
screen,html.Screen,2_3_1_0_1_13,2022-02-15T15:55:10.180Z,,,,,,,,,,,,,,,,,48,,,,,,,,,,,,,,295.9559999992489,,response,,,,10,A,,,,,,Space,keypress(Space),,,,silence,,,,-- -- --- ------ ------- --------- ----------- --------<br>--------- -------- --- ------- -- declare ---- -- ------<br>-- --- -------- -------- ---------- ---- ---- ---- ------<br>-- --------- -- ---- -- --- -- --- ------- -- - -----<br>---------- -- -- -- ---- ----- -- ------ -- --- ------<br>-------,228383.69999999925,228377.69999999925,228065.078,228069.59999999776,228081.744,228398.398,,13,declare
screen,html.Screen,2_3_1_0_1_14,2022-02-15T15:55:10.516Z,,,,,,,,,,,,,,,,,48,,,,,,,,,,,,,,316.30199999926845,,response,,,,10,A,,,,,,Space,keypress(Space),,,,silence,,,,-- -- --- ------ ------- --------- ----------- --------<br>--------- -------- --- ------- -- ------- cash -- ------<br>-- --- -------- -------- ---------- ---- ---- ---- ------<br>-- --------- -- ---- -- --- -- --- ------- -- - -----<br>---------- -- -- -- ---- ----- -- ------ -- --- ------<br>-------,228720.3999999985,228714.69999999925,228381.732,228383.80000000075,228398.398,228731.718,,14,cash
screen,html.Screen,2_3_1_0_1_15,2022-02-15T15:55:10.902Z,,,,,,,,,,,,,,,,,48,,,,,,,,,,,,,,367.98199999926146,,response,,,,10,A,,,,,,Space,keypress(Space),,,,silence,,,,-- -- --- ------ ------- --------- ----------- --------<br>--------- -------- --- ------- -- ------- ---- in ------<br>-- --- -------- -------- ---------- ---- ---- ---- ------<br>-- --------- -- ---- -- --- -- --- ------- -- - -----<br>---------- -- -- -- ---- ----- -- ------ -- --- ------<br>-------,229105.69999999925,229099.69999999925,228715.052,228720.5,228731.718,229115.036,,15,in
screen,html.Screen,2_3_1_0_1_16,2022-02-15T15:55:11.429Z,,,,,,,,,,,,,,,,,48,,,,,,,,,,,,,,511.66399999926216,,response,,,,10,A,,,,,,Space,keypress(Space),,,,silence,,,,-- -- --- ------ ------- --------- ----------- --------<br>--------- -------- --- ------- -- ------- ---- -- excess<br>-- --- -------- -------- ---------- ---- ---- ---- ------<br>-- --------- -- ---- -- --- -- --- ------- -- - -----<br>---------- -- -- -- ---- ----- -- ------ -- --- ------<br>-------,229632.59999999776,229626.69999999925,229098.37,229105.8999999985,229115.036,229648.348,,16,excess
screen,html.Screen,2_3_1_0_1_17,2022-02-15T15:55:11.751Z,,,,,,,,,,,,,,,,,48,,,,,,,,,,,,,,300.3519999992568,,response,,,,10,A,,,,,,Space,keypress(Space),,,,silence,,,,-- -- --- ------ ------- --------- ----------- --------<br>--------- -------- --- ------- -- ------- ---- -- ------<br>of --- -------- -------- ---------- ---- ---- ---- ------<br>-- --------- -- ---- -- --- -- --- ------- -- - -----<br>---------- -- -- -- ---- ----- -- ------ -- --- ------<br>-------,229954.3999999985,229948.69999999925,229631.682,229632.80000000075,229648.348,229965.002,,17,of
screen,html.Screen,2_3_1_0_1_18,2022-02-15T15:55:12.155Z,,,,,,,,,,,,,,,,,48,,,,,,,,,,,,,,384.4979999999923,,response,,,,10,A,,,,,,Space,keypress(Space),,,,silence,,,,-- -- --- ------ ------- --------- ----------- --------<br>--------- -------- --- ------- -- ------- ---- -- ------<br>-- ten -------- -------- ---------- ---- ---- ---- ------<br>-- --------- -- ---- -- --- -- --- ------- -- - -----<br>---------- -- -- -- ---- ----- -- ------ -- --- ------<br>-------,230358.80000000075,230349.5,229948.336,229954.5,229965.002,230381.652,,18,ten
screen,html.Screen,2_3_1_0_1_19,2022-02-15T15:55:12.559Z,,,,,,,,,,,,,,,,,48,,,,,,,,,,,,,,375.94799999776296,,response,,,,10,A,,,,,,Space,keypress(Space),,,,silence,,,,-- -- --- ------ ------- --------- ----------- --------<br>--------- -------- --- ------- -- ------- ---- -- ------<br>-- --- thousand -------- ---------- ---- ---- ---- ------<br>-- --------- -- ---- -- --- -- --- ------- -- - -----<br>---------- -- -- -- ---- ----- -- ------ -- --- ------<br>-------,230763.19999999925,230757.59999999776,230364.986,230358.8999999985,230381.652,230781.636,,19,thousand
screen,html.Screen,2_3_1_0_1_20,2022-02-15T15:55:13.071Z,,,,,,,,,,,,,,,,,48,,,,,,,,,,,,,,486.9639999977662,,response,,,,10,A,,,,,,Space,keypress(Space),,,,silence,,,,-- -- --- ------ ------- --------- ----------- --------<br>--------- -------- --- ------- -- ------- ---- -- ------<br>-- --- -------- dollars. ---------- ---- ---- ---- ------<br>-- --------- -- ---- -- --- -- --- ------- -- - -----<br>---------- -- -- -- ---- ----- -- ------ -- --- ------<br>-------,231274.3999999985,231268.59999999776,230748.304,230763.30000000075,230781.636,231281.616,,20,dollars.
screen,html.Screen,2_3_1_0_1_21,2022-02-15T15:55:13.593Z,,,,,,,,,,,,,,,,,48,,,,,,,,,,,,,,509.8839999999909,,response,,,,10,A,,,,,,Space,keypress(Space),,,,silence,,,,-- -- --- ------ ------- --------- ----------- --------<br>--------- -------- --- ------- -- ------- ---- -- ------<br>-- --- -------- -------- Concealing ---- ---- ---- ------<br>-- --------- -- ---- -- --- -- --- ------- -- - -----<br>---------- -- -- -- ---- ----- -- ------ -- --- ------<br>-------,231797.30000000075,231791.5,231264.95,231274.5,231281.616,231814.928,,21,Concealing
screen,html.Screen,2_3_1_0_1_22,2022-02-15T15:55:13.968Z,,,,,,,,,,,,,,,,,48,,,,,,,,,,,,,,351.57199999998556,,response,,,,10,A,,,,,,Space,keypress(Space),,,,silence,,,,-- -- --- ------ ------- --------- ----------- --------<br>--------- -------- --- ------- -- ------- ---- -- ------<br>-- --- -------- -------- ---------- more ---- ---- ------<br>-- --------- -- ---- -- --- -- --- ------- -- - -----<br>---------- -- -- -- ---- ----- -- ------ -- --- ------<br>-------,232172.19999999925,232166.5,231798.262,231797.5,231814.928,232181.58,,22,more
screen,html.Screen,2_3_1_0_1_23,2022-02-15T15:55:14.212Z,,,,,,,,,,,,,,,,,48,,,,,,,,,,,,,,227.9200000000128,,response,,,,10,A,,,,,,Space,keypress(Space),,,,silence,,,,-- -- --- ------ ------- --------- ----------- --------<br>--------- -------- --- ------- -- ------- ---- -- ------<br>-- --- -------- -------- ---------- ---- than ---- ------<br>-- --------- -- ---- -- --- -- --- ------- -- - -----<br>---------- -- -- -- ---- ----- -- ------ -- --- ------<br>-------,232415.30000000075,232409.5,232164.914,232172.3999999985,232181.58,232431.57,,23,than
screen,html.Screen,2_3_1_0_1_24,2022-02-15T15:55:14.482Z,,,,,,,,,,,,,,,,,48,,,,,,,,,,,,,,248.92999999999302,,response,,,,10,A,,,,,,Space,keypress(Space),,,,silence,,,,-- -- --- ------ ------- --------- ----------- --------<br>--------- -------- --- ------- -- ------- ---- -- ------<br>-- --- -------- -------- ---------- ---- ---- that ------<br>-- --------- -- ---- -- --- -- --- ------- -- - -----<br>---------- -- -- -- ---- ----- -- ------ -- --- ------<br>-------,232686.09999999776,232680.5,232414.904,232415.5,232431.57,232698.226,,24,that
screen,html.Screen,2_3_1_0_1_25,2022-02-15T15:55:14.784Z,,,,,,,,,,,,,,,,,48,,,,,,,,,,,,,,283.2740000000049,,response,,,,10,A,,,,,,Space,keypress(Space),,,,silence,,,,-- -- --- ------ ------- --------- ----------- --------<br>--------- -------- --- ------- -- ------- ---- -- ------<br>-- --- -------- -------- ---------- ---- ---- ---- amount<br>-- --------- -- ---- -- --- -- --- ------- -- - -----<br>---------- -- -- -- ---- ----- -- ------ -- --- ------<br>-------,232988.09999999776,232981.5,232681.56,232686.30000000075,232698.226,232998.214,,25,amount
screen,html.Screen,2_3_1_0_1_26,2022-02-15T15:55:15.159Z,,,,,,,,,,,,,,,,,48,,,,,,,,,,,,,,359.08600000073784,,response,,,,10,A,,,,,,Space,keypress(Space),,,,silence,,,,-- -- --- ------ ------- --------- ----------- --------<br>--------- -------- --- ------- -- ------- ---- -- ------<br>-- --- -------- -------- ---------- ---- ---- ---- ------<br>to --------- -- ---- -- --- -- --- ------- -- - -----<br>---------- -- -- -- ---- ----- -- ------ -- --- ------<br>-------,233363.09999999776,233357.30000000075,232981.548,232988.30000000075,232998.214,233381.532,,26,to
screen,html.Screen,2_3_1_0_1_27,2022-02-15T15:55:15.475Z,,,,,,,,,,,,,,,,,48,,,,,,,,,,,,,,291.9679999999935,,response,,,,10,A,,,,,,Space,keypress(Space),,,,silence,,,,-- -- --- ------ ------- --------- ----------- --------<br>--------- -------- --- ------- -- ------- ---- -- ------<br>-- --- -------- -------- ---------- ---- ---- ---- ------<br>-- transport -- ---- -- --- -- --- ------- -- - -----<br>---------- -- -- -- ---- ----- -- ------ -- --- ------<br>-------,233679.09999999776,233673.5,233364.866,233363.30000000075,233381.532,233698.186,,27,transport
screen,html.Screen,2_3_1_0_1_28,2022-02-15T15:55:15.884Z,,,,,,,,,,,,,,,,,48,,,,,,,,,,,,,,383.2139999985229,,response,,,,10,A,,,,,,Space,keypress(Space),,,,silence,,,,-- -- --- ------ ------- --------- ----------- --------<br>--------- -------- --- ------- -- ------- ---- -- ------<br>-- --- -------- -------- ---------- ---- ---- ---- ------<br>-- --------- it ---- -- --- -- --- ------- -- - -----<br>---------- -- -- -- ---- ----- -- ------ -- --- ------<br>-------,234087.3999999985,234081.3999999985,233664.854,233679.19999999925,233698.186,234098.17,,28,it
screen,html.Screen,2_3_1_0_1_29,2022-02-15T15:55:16.234Z,,,,,,,,,,,,,,,,,48,,,,,,,,,,,,,,334.02999999924214,,response,,,,10,A,,,,,,Space,keypress(Space),,,,silence,,,,-- -- --- ------ ------- --------- ----------- --------<br>--------- -------- --- ------- -- ------- ---- -- ------<br>-- --- -------- -------- ---------- ---- ---- ---- ------<br>-- --------- -- into -- --- -- --- ------- -- - -----<br>---------- -- -- -- ---- ----- -- ------ -- --- ------<br>-------,234438.19999999925,234432.19999999925,234081.504,234087.5,234098.17,234448.156,,29,into
screen,html.Screen,2_3_1_0_1_30,2022-02-15T15:55:16.564Z,,,,,,,,,,,,,,,,,48,,,,,,,,,,,,,,314.14400000075693,,response,,,,10,A,,,,,,Space,keypress(Space),,,,silence,,,,-- -- --- ------ ------- --------- ----------- --------<br>--------- -------- --- ------- -- ------- ---- -- ------<br>-- --- -------- -------- ---------- ---- ---- ---- ------<br>-- --------- -- ---- or --- -- --- ------- -- - -----<br>---------- -- -- -- ---- ----- -- ------ -- --- ------<br>-------,234768.09999999776,234762.30000000075,234431.49,234438.30000000075,234448.156,234781.476,,30,or
screen,html.Screen,2_3_1_0_1_31,2022-02-15T15:55:16.785Z,,,,,,,,,,,,,,,,,48,,,,,,,,,,,,,,201.82400000074995,,response,,,,10,A,,,,,,Space,keypress(Space),,,,silence,,,,-- -- --- ------ ------- --------- ----------- --------<br>--------- -------- --- ------- -- ------- ---- -- ------<br>-- --- -------- -------- ---------- ---- ---- ---- ------<br>-- --------- -- ---- -- out -- --- ------- -- - -----<br>---------- -- -- -- ---- ----- -- ------ -- --- ------<br>-------,234989.19999999925,234983.30000000075,234764.81,234768.30000000075,234781.476,234998.134,,31,out
screen,html.Screen,2_3_1_0_1_32,2022-02-15T15:55:17.053Z,,,,,,,,,,,,,,,,,48,,,,,,,,,,,,,,247.9659999977739,,response,,,,10,A,,,,,,Space,keypress(Space),,,,silence,,,,-- -- --- ------ ------- --------- ----------- --------<br>--------- -------- --- ------- -- ------- ---- -- ------<br>-- --- -------- -------- ---------- ---- ---- ---- ------<br>-- --------- -- ---- -- --- of --- ------- -- - -----<br>---------- -- -- -- ---- ----- -- ------ -- --- ------<br>-------,235256.30000000075,235246.09999999776,234981.468,234989.3999999985,234998.134,235265.172,,32,of
screen,html.Screen,2_3_1_0_1_33,2022-02-15T15:55:17.279Z,,,,,,,,,,,,,,,,,48,,,,,,,,,,,,,,213.92799999777344,,response,,,,10,A,,,,,,Space,keypress(Space),,,,silence,,,,-- -- --- ------ ------- --------- ----------- --------<br>--------- -------- --- ------- -- ------- ---- -- ------<br>-- --- -------- -------- ---------- ---- ---- ---- ------<br>-- --------- -- ---- -- --- -- the ------- -- - -----<br>---------- -- -- -- ---- ----- -- ------ -- --- ------<br>-------,235483,235479.09999999776,235248.506,235256.3999999985,235265.172,235498.496,,33,the
screen,html.Screen,2_3_1_0_1_34,2022-02-15T15:55:17.498Z,,,,,,,,,,,,,,,,,48,,,,,,,,,,,,,,198.6039999977511,,response,,,,10,A,,,,,,Space,keypress(Space),,,,silence,,,,-- -- --- ------ ------- --------- ----------- --------<br>--------- -------- --- ------- -- ------- ---- -- ------<br>-- --- -------- -------- ---------- ---- ---- ---- ------<br>-- --------- -- ---- -- --- -- --- country -- - -----<br>---------- -- -- -- ---- ----- -- ------ -- --- ------<br>-------,235701.80000000075,235697.09999999776,235481.83,235483.19999999925,235498.496,235715.154,,34,country
screen,html.Screen,2_3_1_0_1_35,2022-02-15T15:55:17.903Z,,,,,,,,,,,,,,,,,48,,,,,,,,,,,,,,386.84599999999045,,response,,,,10,A,,,,,,Space,keypress(Space),,,,silence,,,,-- -- --- ------ ------- --------- ----------- --------<br>--------- -------- --- ------- -- ------- ---- -- ------<br>-- --- -------- -------- ---------- ---- ---- ---- ------<br>-- --------- -- ---- -- --- -- --- ------- is - -----<br>---------- -- -- -- ---- ----- -- ------ -- --- ------<br>-------,236106.69999999925,236102,235698.488,235701.8999999985,235715.154,236115.138,,35,is
screen,html.Screen,2_3_1_0_1_36,2022-02-15T15:55:18.222Z,,,,,,,,,,,,,,,,,48,,,,,,,,,,,,,,304.96199999775854,,response,,,,10,A,,,,,,Space,keypress(Space),,,,silence,,,,-- -- --- ------ ------- --------- ----------- --------<br>--------- -------- --- ------- -- ------- ---- -- ------<br>-- --- -------- -------- ---------- ---- ---- ---- ------<br>-- --------- -- ---- -- --- -- --- ------- -- a -----<br>---------- -- -- -- ---- ----- -- ------ -- --- ------<br>-------,236425.69999999925,236420.09999999776,236098.472,236106.80000000075,236115.138,236431.792,,36,a
screen,html.Screen,2_3_1_0_1_37,2022-02-15T15:55:18.553Z,,,,,,,,,,,,,,,,,48,,,,,,,,,,,,,,319.4079999992682,,response,,,,10,A,,,,,,Space,keypress(Space),,,,silence,,,,-- -- --- ------ ------- --------- ----------- --------<br>--------- -------- --- ------- -- ------- ---- -- ------<br>-- --- -------- -------- ---------- ---- ---- ---- ------<br>-- --------- -- ---- -- --- -- --- ------- -- - crime<br>---------- -- -- -- ---- ----- -- ------ -- --- ------<br>-------,236757,236751.19999999925,236415.126,236425.80000000075,236431.792,236765.112,,37,crime
screen,html.Screen,2_3_1_0_1_38,2022-02-15T15:55:18.846Z,,,,,,,,,,,,,,,,,48,,,,,,,,,,,,,,278.9879999977711,,response,,,,10,A,,,,,,Space,keypress(Space),,,,silence,,,,-- -- --- ------ ------- --------- ----------- --------<br>--------- -------- --- ------- -- ------- ---- -- ------<br>-- --- -------- -------- ---------- ---- ---- ---- ------<br>-- --------- -- ---- -- --- -- --- ------- -- - -----<br>punishable -- -- -- ---- ----- -- ------ -- --- ------<br>-------,237050.09999999776,237044.09999999776,236748.446,236757.19999999925,236765.112,237065.1,,38,punishable
screen,html.Screen,2_3_1_0_1_39,2022-02-15T15:55:19.109Z,,,,,,,,,,,,,,,,,48,,,,,,,,,,,,,,241.999999997759,,response,,,,10,A,,,,,,Space,keypress(Space),,,,silence,,,,-- -- --- ------ ------- --------- ----------- --------<br>--------- -------- --- ------- -- ------- ---- -- ------<br>-- --- -------- -------- ---------- ---- ---- ---- ------<br>-- --------- -- ---- -- --- -- --- ------- -- - -----<br>---------- by -- -- ---- ----- -- ------ -- --- ------<br>-------,237312.8999999985,237307.09999999776,237048.434,237050.30000000075,237065.1,237331.756,,39,by
screen,html.Screen,2_3_1_0_1_40,2022-02-15T15:55:19.367Z,,,,,,,,,,,,,,,,,48,,,,,,,,,,,,,,233.24400000000605,,response,,,,10,A,,,,,,Space,keypress(Space),,,,silence,,,,-- -- --- ------ ------- --------- ----------- --------<br>--------- -------- --- ------- -- ------- ---- -- ------<br>-- --- -------- -------- ---------- ---- ---- ---- ------<br>-- --------- -- ---- -- --- -- --- ------- -- - -----<br>---------- -- up -- ---- ----- -- ------ -- --- ------<br>-------,237570.8999999985,237565,237315.09,237313,237331.756,237581.746,,40,up
screen,html.Screen,2_3_1_0_1_41,2022-02-15T15:55:19.913Z,,,,,,,,,,,,,,,,,48,,,,,,,,,,,,,,529.3539999977511,,response,,,,10,A,,,,,,Space,keypress(Space),,,,silence,,,,-- -- --- ------ ------- --------- ----------- --------<br>--------- -------- --- ------- -- ------- ---- -- ------<br>-- --- -------- -------- ---------- ---- ---- ---- ------<br>-- --------- -- ---- -- --- -- --- ------- -- - -----<br>---------- -- -- to ---- ----- -- ------ -- --- ------<br>-------,238117,238111.09999999776,237565.08,237571.09999999776,237581.746,238131.724,,41,to
screen,html.Screen,2_3_1_0_1_42,2022-02-15T15:55:20.330Z,,,,,,,,,,,,,,,,,48,,,,,,,,,,,,,,396.3759999977774,,response,,,,10,A,,,,,,Space,keypress(Space),,,,silence,,,,-- -- --- ------ ------- --------- ----------- --------<br>--------- -------- --- ------- -- ------- ---- -- ------<br>-- --- -------- -------- ---------- ---- ---- ---- ------<br>-- --------- -- ---- -- --- -- --- ------- -- - -----<br>---------- -- -- -- five ----- -- ------ -- --- ------<br>-------,238534,238528.09999999776,238115.058,238117.19999999925,238131.724,238548.374,,42,five
screen,html.Screen,2_3_1_0_1_43,2022-02-15T15:55:20.666Z,,,,,,,,,,,,,,,,,48,,,,,,,,,,,,,,315.6259999999893,,response,,,,10,A,,,,,,Space,keypress(Space),,,,silence,,,,-- -- --- ------ ------- --------- ----------- --------<br>--------- -------- --- ------- -- ------- ---- -- ------<br>-- --- -------- -------- ---------- ---- ---- ---- ------<br>-- --------- -- ---- -- --- -- --- ------- -- - -----<br>---------- -- -- -- ---- years -- ------ -- --- ------<br>-------,238869.8999999985,238864,238531.708,238534.09999999776,238548.374,238881.694,,43,years
