sender,sender_type,sender_id,timestamp,meta,,Blues,Classical,Country,Dance,Electronic,Folk,Gospel,Hip-Hop,Jazz,Latin,Musical/Film,New-age,Pop,Prolific_id,Provo_ID,R&B,Rap,Reggae,Religious,Rock,Soul,Swing,Traditional,age,artist_name,correct,correctResponse,distraction,duration,education,ended_on,familiarity,gender,headphone_check_performance,item,list,music_frequency,offensiveness,pleasantness,position_correct,preference,response,response_action,snippet_file,song_name,song_rating,sound,stimulus_1,stimulus_2,stimulus_3,text,time_commit,time_end,time_render,time_run,time_show,time_switch,url,word,word_ID
Prolific ID,html.Form,0,2022-02-02T16:18:29.380Z,"{""labjs_version"":""20.2.2"",""labjs_build"":{""flavor"":""production"",""commit"":""a25486e0c714a0ae2ce03ff94b7bb6896854dcfa""},""location"":""https://run.pavlovia.org/mvasilev/prolific2_music_d/"",""userAgent"":""Mozilla/5.0 (Macintosh; Intel Mac OS X 10_15_7) AppleWebKit/537.36 (KHTML, like Gecko) Chrome/97.0.4692.99 Safari/537.36"",""platform"":""MacIntel"",""language"":""en-GB"",""locale"":""en-GB"",""timeZone"":""Europe/London"",""timezoneOffset"":0,""screen_width"":1440,""screen_height"":900,""scroll_width"":1440,""scroll_height"":773,""window_innerWidth"":1440,""window_innerHeight"":821,""devicePixelRatio"":2}",,,,,,,,,,,,,,,5d66f49c531d6e0001e99e8a,,,,,,,,,,,,,,,3349.5929999761584,,form submission,,,,,,,,,,,,,,,,,,,,,10369,10367.899999976158,7001.641,7009.799999982119,7018.307,10384.839,{},,
Introduction,html.Screen,1_0,2022-02-02T16:18:37.552Z,,,,,,,,,,,,,,,,,,,,,,,,,,,,,,,8145.960999982119,,response,,,,,,,,,,,continue,click button,,,,,,,,,18540.09999999404,18530.79999998212,10368.173,10369.199999988079,10384.839,18551.179,,,
Volume calibration,html.Screen,1_1,2022-02-02T16:19:04.457Z,,,,,,,,,,,,,,,,,,,,,,,,,,,,,,,26884.220999976158,,response,,,,,,,,,,,continue,click button,,,,,,,,,45444.19999998808,45435.39999997616,18534.513,18540.59999999404,18551.179,45447.545,,,
Task instructions,html.Screen,1_2,2022-02-02T16:19:08.993Z,,,,,,,,,,,,,,,,,,,,,,,,,,,,,,,4528.554999994041,,response,,,,,,,,,,,continue,click button,,,,,,,,,49980.39999997616,49976.09999999404,45430.879,45444.29999998212,45447.545,49980.697,,,
Sounds,html.Screen,1_3_0_0,2022-02-02T16:19:13.240Z,,,,,,,,,,,,,,,,,,,,,,,,,,,,,,,4257.894,,timeout,,,,,,,,,1,,,,,,,,S,I,O,,54226.79999998212,54221.925,49964.031,49980.69999998808,49980.697,54238.591,,,
Judgement,html.Screen,1_3_0_1,2022-02-02T16:19:14.465Z,,,,,,,,,,,,,,,,,,,,,,,,,,,,true,1,,1208.5089999940392,,response,,,,,,,,,1,,1,click #choice-1,,,,,S,I,O,,55451.69999998808,55447.09999999404,54221.925,54227,54238.591,55455.209,,,
Trial,flow.Sequence,1_3_0,2022-02-02T16:19:14.465Z,,,,,,,,,,,,,,,,,,,,,,,,,,,,,,,5466.402999994039,,completion,,,,,,,,,1,,,,,,,,S,I,O,,55452.19999998808,55447.09999999404,49964.031,49980.69999998808,49980.697,55455.209,,,
Sounds,html.Screen,1_3_1_0,2022-02-02T16:19:18.703Z,,,,,,,,,,,,,,,,,,,,,,,,,,,,,,,4249.8299999999945,,timeout,,,,,,,,,1,,,,,,,,S,O,I,,59690.5,59688.373,55438.543,55452.59999999404,55455.209,59705.039,,,
Judgement,html.Screen,1_3_1_1,2022-02-02T16:19:19.274Z,,,,,,,,,,,,,,,,,,,,,,,,,,,,true,1,,550.7609999821216,,response,,,,,,,,,1,,1,click #choice-1,,,,,S,O,I,,60260.59999999404,60255.79999998212,59688.373,59690.69999998808,59705.039,60271.683,,,
Trial,flow.Sequence,1_3_1,2022-02-02T16:19:19.274Z,,,,,,,,,,,,,,,,,,,,,,,,,,,,,,,4800.590999982116,,completion,,,,,,,,,1,,,,,,,,S,O,I,,60261,60255.79999998212,55438.543,55452.29999998212,55455.209,60271.683,,,
Sounds,html.Screen,1_3_2_0,2022-02-02T16:19:23.520Z,,,,,,,,,,,,,,,,,,,,,,,,,,,,,,,4249.830000000002,,timeout,,,,,,,,,3,,,,,,,,I,O,S,,64506.59999999404,64504.847,60255.017,60261.29999998212,60271.683,64521.513,,,
Judgement,html.Screen,1_3_2_1,2022-02-02T16:19:24.173Z,,,,,,,,,,,,,,,,,,,,,,,,,,,,true,3,,634.2869999821196,,response,,,,,,,,,3,,3,click #choice-3,,,,,I,O,S,,65160.29999998212,65155.79999998212,64504.847,64506.79999998212,64521.513,65178.807,,,
Trial,flow.Sequence,1_3_2,2022-02-02T16:19:24.174Z,,,,,,,,,,,,,,,,,,,,,,,,,,,,,,,4884.116999982121,,completion,,,,,,,,,3,,,,,,,,I,O,S,,65160.69999998808,65155.79999998212,60255.017,60261.09999999404,60271.683,65178.807,,,
Sounds,html.Screen,1_3_3_0,2022-02-02T16:19:28.427Z,,,,,,,,,,,,,,,,,,,,,,,,,,,,,,,4249.830000000002,,timeout,,,,,,,,,2,,,,,,,,I,S,O,,69414.09999999404,69411.971,65162.141,65161,65178.807,69428.637,,,
Judgement,html.Screen,1_3_3_1,2022-02-02T16:19:28.993Z,,,,,,,,,,,,,,,,,,,,,,,,,,,,true,2,,546.8629999999976,,response,,,,,,,,,2,,2,click #choice-2,,,,,I,S,O,,69980.09999999404,69975.5,69411.971,69414.29999998212,69428.637,69995.281,,,
Trial,flow.Sequence,1_3_3,2022-02-02T16:19:28.994Z,,,,,,,,,,,,,,,,,,,,,,,,,,,,,,,4796.692999999999,,completion,,,,,,,,,2,,,,,,,,I,S,O,,69980.29999998212,69975.5,65162.141,65160.89999997616,65178.807,69995.281,,,
Sounds,html.Screen,1_3_4_0,2022-02-02T16:19:33.244Z,,,,,,,,,,,,,,,,,,,,,,,,,,,,,,,4249.830000000002,,timeout,,,,,,,,,2,,,,,,,,O,S,I,,74231,74228.445,69978.615,69980.5,69995.281,74245.111,,,
Judgement,html.Screen,1_3_4_1,2022-02-02T16:19:33.747Z,,,,,,,,,,,,,,,,,,,,,,,,,,,,true,2,,484.7889999761537,,response,,,,,,,,,2,,2,click #choice-2,,,,,O,S,I,,74734.19999998808,74729.89999997616,74228.445,74231.19999998808,74245.111,74745.091,,,
Trial,flow.Sequence,1_3_4,2022-02-02T16:19:33.748Z,,,,,,,,,,,,,,,,,,,,,,,,,,,,,,,4734.6189999761555,,completion,,,,,,,,,2,,,,,,,,O,S,I,,74734.5,74729.89999997616,69978.615,69980.39999997616,69995.281,74745.091,,,
Sounds,html.Screen,1_3_5_0,2022-02-02T16:19:37.990Z,,,,,,,,,,,,,,,,,,,,,,,,,,,,,,,4245.240000000005,,timeout,,,,,,,,,3,,,,,,,,O,I,S,,78976.19999998808,78973.665,74728.425,74734.69999998808,74745.091,78990.331,,,
Judgement,html.Screen,1_3_5_1,2022-02-02T16:19:38.806Z,,,,,,,,,,,,,,,,,,,,,,,,,,,,true,3,,799.1689999999944,,response,,,,,,,,,3,,3,click #choice-3,,,,,O,I,S,,79792.19999998808,79789.5,78973.665,78976.19999998808,78990.331,79806.965,,,
Trial,flow.Sequence,1_3_5,2022-02-02T16:19:38.806Z,,,,,,,,,,,,,,,,,,,,,,,,,,,,,,,5044.409,,completion,,,,,,,,,3,,,,,,,,O,I,S,,79792.39999997616,79789.5,74728.425,74734.69999998808,74745.091,79806.965,,,
Task,flow.Loop,1_3,2022-02-02T16:19:38.811Z,,,,,,,,,,,,,,,,,,,,,,,,,,,,,,,29808.803,,completion,,,1,,,,,,,,,,,,,,,,,,79797.29999998212,79789.5,49964.031,49980.69999998808,49980.697,79806.965,,,
Trap,html.Screen,1_4,2022-02-02T16:19:38.812Z,,,,,,,,,,,,,,,,,,,,,,,,,,,,,,,NaN,,skipped,,,,,,,,,,,,,,,,,,,,,79798.89999997616,79789.5,,79798.69999998808,,79806.965,,,
Thanks,html.Screen,1_5,2022-02-02T16:19:41.628Z,,,,,,,,,,,,,,,,,,,,,,,,,,,,,,,2804.134999994043,,response,,,,,,,,,,,continue,click button,,,,,,,,,82614.5,82611.09999999404,79790.299,79798.89999997616,79806.965,85206.749,,,
Headphone screening,flow.Sequence,1,2022-02-02T16:19:41.628Z,,,,,,,,,,,,,,,,,,,,,,,,,,,,,,,72226.26099999403,,completion,,,,,,,,,,,,,,,,,,,,,82614.69999998808,82611.09999999404,10368.173,10369.199999988079,10384.839,85206.749,,,
Instructions,html.Page,2_0,2022-02-02T16:20:23.103Z,,,,,,,,,,,,,,,,,,,,,,,,,,,,,,,38880.751000000004,,form submission,,,,,,,,,,,,,,,,,,,,,124088.19999998808,124087.5,85190.083,85210.5,85206.749,124113.595,,,
Holding screen,html.Screen,2_1_0_0,2022-02-02T16:20:33.106Z,,,,,,,,,,,,,,,,,,,,,,,,,,,,,,,9992.098999999987,,timeout,,,,,,,,,,,,,,,,,,,,,134090.79999998212,134089.028,124096.929,124088.5,124113.595,134105.694,,,
screen,html.Screen,2_1_0_1_0,2022-02-02T16:20:34.090Z,,,,,,,,,,,,,,,,,53,,,,,,,,,,,,,,958.3060000000114,,response,,,,99,,,,,,,Space,keypress(Space),,,,,,,,When -- ----- -- ------ - ------- --- ----------<br>------------- ------ ------ ---- ---- ------- ----- -- ----<br>-------- ------- -- ---------- --- - --- ----- ----- ----<br>---- --- --- ----- --- ---- ---- ------- ----- ---- -------<br>--- --- -- ----- -- --- ---- -- --- ---- -- ------ ------<br>--- ----- -- ----,135075.19999998808,135064,134089.028,134091.09999999404,134105.694,135088.988,,0,When
screen,html.Screen,2_1_0_1_1,2022-02-02T16:20:35.079Z,,,,,,,,,,,,,,,,,53,,,,,,,,,,,,,,964.8119999821065,,response,,,,99,,,,,,,Space,keypress(Space),,,,,,,,---- it ----- -- ------ - ------- --- ----------<br>------------- ------ ------ ---- ---- ------- ----- -- ----<br>-------- ------- -- ---------- --- - --- ----- ----- ----<br>---- --- --- ----- --- ---- ---- ------- ----- ---- -------<br>--- --- -- ----- -- --- ---- -- --- ---- -- ------ ------<br>--- ----- -- ----,136063.59999999404,136053.79999998212,135072.322,135075.39999997616,135088.988,136080.589,,1,it
screen,html.Screen,2_1_0_1_2,2022-02-02T16:20:36.914Z,,,,,,,,,,,,,,,,,53,,,,,,,,,,,,,,1810.1109999880719,,response,,,,99,,,,,,,Space,keypress(Space),,,,,,,,---- -- comes -- ------ - ------- --- ----------<br>------------- ------ ------ ---- ---- ------- ----- -- ----<br>-------- ------- -- ---------- --- - --- ----- ----- ----<br>---- --- --- ----- --- ---- ---- ------- ----- ---- -------<br>--- --- -- ----- -- --- ---- -- --- ---- -- ------ ------<br>--- ----- -- ----,137899,137890.69999998808,136063.923,136063.69999998808,136080.589,137913.849,,2,comes
screen,html.Screen,2_1_0_1_3,2022-02-02T16:20:38.075Z,,,,,,,,,,,,,,,,,53,,,,,,,,,,,,,,1138.9509999821312,,response,,,,99,,,,,,,Space,keypress(Space),,,,,,,,---- -- ----- to ------ - ------- --- ----------<br>------------- ------ ------ ---- ---- ------- ----- -- ----<br>-------- ------- -- ---------- --- - --- ----- ----- ----<br>---- --- --- ----- --- ---- ---- ------- ----- ---- -------<br>--- --- -- ----- -- --- ---- -- --- ---- -- ------ ------<br>--- ----- -- ----,139059.69999998808,139052.79999998212,137897.183,137899.19999998808,137913.849,139063.803,,3,to
screen,html.Screen,2_1_0_1_4,2022-02-02T16:20:38.705Z,,,,,,,,,,,,,,,,,53,,,,,,,,,,,,,,617.7969999940251,,response,,,,99,,,,,,,Space,keypress(Space),,,,,,,,---- -- ----- -- having - ------- --- ----------<br>------------- ------ ------ ---- ---- ------- ----- -- ----<br>-------- ------- -- ---------- --- - --- ----- ----- ----<br>---- --- --- ----- --- ---- ---- ------- ----- ---- -------<br>--- --- -- ----- -- --- ---- -- --- ---- -- ------ ------<br>--- ----- -- ----,139689.59999999404,139681.59999999404,139047.137,139059.79999998212,139063.803,139697.111,,4,having
screen,html.Screen,2_1_0_1_5,2022-02-02T16:20:39.291Z,,,,,,,,,,,,,,,,,53,,,,,,,,,,,,,,571.5889999880746,,response,,,,99,,,,,,,Space,keypress(Space),,,,,,,,---- -- ----- -- ------ a ------- --- ----------<br>------------- ------ ------ ---- ---- ------- ----- -- ----<br>-------- ------- -- ---------- --- - --- ----- ----- ----<br>---- --- --- ----- --- ---- ---- ------- ----- ---- -------<br>--- --- -- ----- -- --- ---- -- --- ---- -- ------ ------<br>--- ----- -- ----,140275.79999998212,140268.69999998808,139680.445,139689.79999998212,139697.111,140280.421,,5,a
screen,html.Screen,2_1_0_1_6,2022-02-02T16:20:39.982Z,,,,,,,,,,,,,,,,,53,,,,,,,,,,,,,,682.978999976156,,response,,,,99,,,,,,,Space,keypress(Space),,,,,,,,---- -- ----- -- ------ - lasting --- ----------<br>------------- ------ ------ ---- ---- ------- ----- -- ----<br>-------- ------- -- ---------- --- - --- ----- ----- ----<br>---- --- --- ----- --- ---- ---- ------- ----- ---- -------<br>--- --- -- ----- -- --- ---- -- --- ---- -- ------ ------<br>--- ----- -- ----,140966.89999997616,140963.39999997616,140263.755,140275.89999997616,140280.421,140980.393,,6,lasting
screen,html.Screen,2_1_0_1_7,2022-02-02T16:20:40.494Z,,,,,,,,,,,,,,,,,53,,,,,,,,,,,,,,490.3069999880681,,response,,,,99,,,,,,,Space,keypress(Space),,,,,,,,---- -- ----- -- ------ - ------- and ----------<br>------------- ------ ------ ---- ---- ------- ----- -- ----<br>-------- ------- -- ---------- --- - --- ----- ----- ----<br>---- --- --- ----- --- ---- ---- ------- ----- ---- -------<br>--- --- -- ----- -- --- ---- -- --- ---- -- ------ ------<br>--- ----- -- ----,141478.5,141470.69999998808,140963.727,140967,140980.393,141480.373,,7,and
screen,html.Screen,2_1_0_1_8,2022-02-02T16:20:41.062Z,,,,,,,,,,,,,,,,,53,,,,,,,,,,,,,,559.2269999940472,,response,,,,99,,,,,,,Space,keypress(Space),,,,,,,,---- -- ----- -- ------ - ------- --- fulfilling<br>------------- ------ ------ ---- ---- ------- ----- -- ----<br>-------- ------- -- ---------- --- - --- ----- ----- ----<br>---- --- --- ----- --- ---- ---- ------- ----- ---- -------<br>--- --- -- ----- -- --- ---- -- --- ---- -- ------ ------<br>--- ----- -- ----,142046.29999998212,142039.59999999404,141463.707,141478.59999999404,141480.373,142063.683,,8,fulfilling
screen,html.Screen,2_1_0_1_9,2022-02-02T16:20:42.422Z,,,,,,,,,,,,,,,,,53,,,,,,,,,,,,,,1335.016999988089,,response,,,,99,,,,,,,Space,keypress(Space),,,,,,,,"---- -- ----- -- ------ - ------- --- ----------<br>relationship, ------ ------ ---- ---- ------- ----- -- ----<br>-------- ------- -- ---------- --- - --- ----- ----- ----<br>---- --- --- ----- --- ---- ---- ------- ----- ---- -------<br>--- --- -- ----- -- --- ---- -- --- ---- -- ------ ------<br>--- ----- -- ----",143406.29999998212,143398.69999998808,142047.017,142046.5,142063.683,143413.629,,9,"relationship,"
screen,html.Screen,2_1_0_1_10,2022-02-02T16:20:43.306Z,,,,,,,,,,,,,,,,,53,,,,,,,,,,,,,,869.8710000000137,,response,,,,99,,,,,,,Space,keypress(Space),,,,,,,,---- -- ----- -- ------ - ------- --- ----------<br>------------- common ------ ---- ---- ------- ----- -- ----<br>-------- ------- -- ---------- --- - --- ----- ----- ----<br>---- --- --- ----- --- ---- ---- ------- ----- ---- -------<br>--- --- -- ----- -- --- ---- -- --- ---- -- ------ ------<br>--- ----- -- ----,144290.39999997616,144283.5,143396.963,143406.39999997616,143413.629,144296.927,,10,common
screen,html.Screen,2_1_0_1_11,2022-02-02T16:20:44.071Z,,,,,,,,,,,,,,,,,53,,,,,,,,,,,,,,750.573000000004,,response,,,,99,,,,,,,Space,keypress(Space),,,,,,,,---- -- ----- -- ------ - ------- --- ----------<br>------------- ------ wisdom ---- ---- ------- ----- -- ----<br>-------- ------- -- ---------- --- - --- ----- ----- ----<br>---- --- --- ----- --- ---- ---- ------- ----- ---- -------<br>--- --- -- ----- -- --- ---- -- --- ---- -- ------ ------<br>--- ----- -- ----,145055.39999997616,145047.5,144280.261,144290.5,144296.927,145063.563,,11,wisdom
screen,html.Screen,2_1_0_1_12,2022-02-02T16:20:44.873Z,,,,,,,,,,,,,,,,,53,,,,,,,,,,,,,,785.8369999761635,,response,,,,99,,,,,,,Space,keypress(Space),,,,,,,,---- -- ----- -- ------ - ------- --- ----------<br>------------- ------ ------ says ---- ------- ----- -- ----<br>-------- ------- -- ---------- --- - --- ----- ----- ----<br>---- --- --- ----- --- ---- ---- ------- ----- ---- -------<br>--- --- -- ----- -- --- ---- -- --- ---- -- ------ ------<br>--- ----- -- ----,145857.39999997616,145849.39999997616,145046.897,145055.59999999404,145063.563,145871.603,,12,says
screen,html.Screen,2_1_0_1_13,2022-02-02T16:20:45.510Z,,,,,,,,,,,,,,,,,53,,,,,,,,,,,,,,614.7969999761553,,response,,,,99,,,,,,,Space,keypress(Space),,,,,,,,---- -- ----- -- ------ - ------- --- ----------<br>------------- ------ ------ ---- that ------- ----- -- ----<br>-------- ------- -- ---------- --- - --- ----- ----- ----<br>---- --- --- ----- --- ---- ---- ------- ----- ---- -------<br>--- --- -- ----- -- --- ---- -- --- ---- -- ------ ------<br>--- ----- -- ----,146494.59999999404,146486.39999997616,145854.937,145857.5,145871.603,146504.911,,13,that
screen,html.Screen,2_1_0_1_14,2022-02-02T16:20:46.167Z,,,,,,,,,,,,,,,,,53,,,,,,,,,,,,,,639.4889999761654,,response,,,,99,,,,,,,Space,keypress(Space),,,,,,,,---- -- ----- -- ------ - ------- --- ----------<br>------------- ------ ------ ---- ---- feeling ----- -- ----<br>-------- ------- -- ---------- --- - --- ----- ----- ----<br>---- --- --- ----- --- ---- ---- ------- ----- ---- -------<br>--- --- -- ----- -- --- ---- -- --- ---- -- ------ ------<br>--- ----- -- ----,147151.19999998808,147144.39999997616,146488.245,146494.69999998808,146504.911,147154.885,,14,feeling
screen,html.Screen,2_1_0_1_15,2022-02-02T16:20:46.884Z,,,,,,,,,,,,,,,,,53,,,,,,,,,,,,,,706.5149999761488,,response,,,,99,,,,,,,Space,keypress(Space),,,,,,,,---- -- ----- -- ------ - ------- --- ----------<br>------------- ------ ------ ---- ---- ------- close -- ----<br>-------- ------- -- ---------- --- - --- ----- ----- ----<br>---- --- --- ----- --- ---- ---- ------- ----- ---- -------<br>--- --- -- ----- -- --- ---- -- --- ---- -- ------ ------<br>--- ----- -- ----,147869,147861.39999997616,147138.219,147151.5,147154.885,147871.523,,15,close
screen,html.Screen,2_1_0_1_16,2022-02-02T16:20:47.285Z,,,,,,,,,,,,,,,,,53,,,,,,,,,,,,,,390.87699997617165,,response,,,,99,,,,,,,Space,keypress(Space),,,,,,,,---- -- ----- -- ------ - ------- --- ----------<br>------------- ------ ------ ---- ---- ------- ----- to ----<br>-------- ------- -- ---------- --- - --- ----- ----- ----<br>---- --- --- ----- --- ---- ---- ------- ----- ---- -------<br>--- --- -- ----- -- --- ---- -- --- ---- -- ------ ------<br>--- ----- -- ----,148269.19999998808,148262.39999997616,147854.857,147869.19999998808,147871.523,148271.507,,16,to
screen,html.Screen,2_1_0_1_17,2022-02-02T16:20:47.732Z,,,,,,,,,,,,,,,,,53,,,,,,,,,,,,,,437.8929999761458,,response,,,,99,,,,,,,Space,keypress(Space),,,,,,,,---- -- ----- -- ------ - ------- --- ----------<br>------------- ------ ------ ---- ---- ------- ----- -- your<br>-------- ------- -- ---------- --- - --- ----- ----- ----<br>---- --- --- ----- --- ---- ---- ------- ----- ---- -------<br>--- --- -- ----- -- --- ---- -- --- ---- -- ------ ------<br>--- ----- -- ----,148716.5,148709.39999997616,148254.841,148269.39999997616,148271.507,148721.489,,17,your
screen,html.Screen,2_1_0_1_18,2022-02-02T16:20:48.337Z,,,,,,,,,,,,,,,,,53,,,,,,,,,,,,,,591.8109999821172,,response,,,,99,,,,,,,Space,keypress(Space),,,,,,,,---- -- ----- -- ------ - ------- --- ----------<br>------------- ------ ------ ---- ---- ------- ----- -- ----<br>romantic ------- -- ---------- --- - --- ----- ----- ----<br>---- --- --- ----- --- ---- ---- ------- ----- ---- -------<br>--- --- -- ----- -- --- ---- -- --- ---- -- ------ ------<br>--- ----- -- ----,149321.19999998808,149313.29999998212,148704.823,148716.59999999404,148721.489,149338.131,,18,romantic
screen,html.Screen,2_1_0_1_19,2022-02-02T16:20:48.818Z,,,,,,,,,,,,,,,,,53,,,,,,,,,,,,,,457.36900000000605,,response,,,,99,,,,,,,Space,keypress(Space),,,,,,,,---- -- ----- -- ------ - ------- --- ----------<br>------------- ------ ------ ---- ---- ------- ----- -- ----<br>-------- partner -- ---------- --- - --- ----- ----- ----<br>---- --- --- ----- --- ---- ---- ------- ----- ---- -------<br>--- --- -- ----- -- --- ---- -- --- ---- -- ------ ------<br>--- ----- -- ----,149802.29999998212,149795.5,149321.465,149321.39999997616,149338.131,149804.779,,19,partner
screen,html.Screen,2_1_0_1_20,2022-02-02T16:20:49.292Z,,,,,,,,,,,,,,,,,53,,,,,,,,,,,,,,464.72099999999045,,response,,,,99,,,,,,,Space,keypress(Space),,,,,,,,---- -- ----- -- ------ - ------- --- ----------<br>------------- ------ ------ ---- ---- ------- ----- -- ----<br>-------- ------- is ---------- --- - --- ----- ----- ----<br>---- --- --- ----- --- ---- ---- ------- ----- ---- -------<br>--- --- -- ----- -- --- ---- -- --- ---- -- ------ ------<br>--- ----- -- ----,150276.59999999404,150269.5,149788.113,149802.5,149804.779,150288.093,,20,is
screen,html.Screen,2_1_0_1_21,2022-02-02T16:20:50.504Z,,,,,,,,,,,,,,,,,53,,,,,,,,,,,,,,1197.006999994046,,response,,,,99,,,,,,,Space,keypress(Space),,,,,,,,---- -- ----- -- ------ - ------- --- ----------<br>------------- ------ ------ ---- ---- ------- ----- -- ----<br>-------- ------- -- paramount. --- - --- ----- ----- ----<br>---- --- --- ----- --- ---- ---- ------- ----- ---- -------<br>--- --- -- ----- -- --- ---- -- --- ---- -- ------ ------<br>--- ----- -- ----,151488.69999998808,151485.09999999404,150271.427,150276.69999998808,150288.093,151504.711,,21,paramount.
screen,html.Screen,2_1_0_1_22,2022-02-02T16:20:51.017Z,,,,,,,,,,,,,,,,,53,,,,,,,,,,,,,,490.3889999940293,,response,,,,99,,,,,,,Space,keypress(Space),,,,,,,,---- -- ----- -- ------ - ------- --- ----------<br>------------- ------ ------ ---- ---- ------- ----- -- ----<br>-------- ------- -- ---------- But - --- ----- ----- ----<br>---- --- --- ----- --- ---- ---- ------- ----- ---- -------<br>--- --- -- ----- -- --- ---- -- --- ---- -- ------ ------<br>--- ----- -- ----,152001.69999998808,151995.09999999404,151488.045,151488.89999997616,151504.711,152004.691,,22,But
screen,html.Screen,2_1_0_1_23,2022-02-02T16:20:51.456Z,,,,,,,,,,,,,,,,,53,,,,,,,,,,,,,,428.7089999761665,,response,,,,99,,,,,,,Space,keypress(Space),,,,,,,,---- -- ----- -- ------ - ------- --- ----------<br>------------- ------ ------ ---- ---- ------- ----- -- ----<br>-------- ------- -- ---------- --- a --- ----- ----- ----<br>---- --- --- ----- --- ---- ---- ------- ----- ---- -------<br>--- --- -- ----- -- --- ---- -- --- ---- -- ------ ------<br>--- ----- -- ----,152439.89999997616,152433.39999997616,151988.025,152001.89999997616,152004.691,152454.673,,23,a
screen,html.Screen,2_1_0_1_24,2022-02-02T16:20:52.498Z,,,,,,,,,,,,,,,,,53,,,,,,,,,,,,,,1019.6269999821088,,response,,,,99,,,,,,,Space,keypress(Space),,,,,,,,---- -- ----- -- ------ - ------- --- ----------<br>------------- ------ ------ ---- ---- ------- ----- -- ----<br>-------- ------- -- ---------- --- - new ----- ----- ----<br>---- --- --- ----- --- ---- ---- ------- ----- ---- -------<br>--- --- -- ----- -- --- ---- -- --- ---- -- ------ ------<br>--- ----- -- ----,153482.09999999404,153474.29999998212,152438.007,152440.09999999404,152454.673,153487.965,,24,new
screen,html.Screen,2_1_0_1_25,2022-02-02T16:20:53.229Z,,,,,,,,,,,,,,,,,53,,,,,,,,,,,,,,718.2349999880826,,response,,,,99,,,,,,,Space,keypress(Space),,,,,,,,---- -- ----- -- ------ - ------- --- ----------<br>------------- ------ ------ ---- ---- ------- ----- -- ----<br>-------- ------- -- ---------- --- - --- study ----- ----<br>---- --- --- ----- --- ---- ---- ------- ----- ---- -------<br>--- --- -- ----- -- --- ---- -- --- ---- -- ------ ------<br>--- ----- -- ----,154213,154206.19999998808,153471.299,153482.19999998808,153487.965,154221.269,,25,study
screen,html.Screen,2_1_0_1_26,2022-02-02T16:20:53.713Z,,,,,,,,,,,,,,,,,53,,,,,,,,,,,,,,468.93099998807884,,response,,,,99,,,,,,,Space,keypress(Space),,,,,,,,---- -- ----- -- ------ - ------- --- ----------<br>------------- ------ ------ ---- ---- ------- ----- -- ----<br>-------- ------- -- ---------- --- - --- ----- finds ----<br>---- --- --- ----- --- ---- ---- ------- ----- ---- -------<br>--- --- -- ----- -- --- ---- -- --- ---- -- ------ ------<br>--- ----- -- ----,154697.09999999404,154690.19999998808,154204.603,154213,154221.269,154704.583,,26,finds
screen,html.Screen,2_1_0_1_27,2022-02-02T16:20:54.153Z,,,,,,,,,,,,,,,,,53,,,,,,,,,,,,,,428.41699999998673,,response,,,,99,,,,,,,Space,keypress(Space),,,,,,,,---- -- ----- -- ------ - ------- --- ----------<br>------------- ------ ------ ---- ---- ------- ----- -- ----<br>-------- ------- -- ---------- --- - --- ----- ----- that<br>---- --- --- ----- --- ---- ---- ------- ----- ---- -------<br>--- --- -- ----- -- --- ---- -- --- ---- -- ------ ------<br>--- ----- -- ----,155137.59999999404,155133,154687.917,154697.29999998212,154704.583,155154.565,,27,that
screen,html.Screen,2_1_0_1_28,2022-02-02T16:20:54.685Z,,,,,,,,,,,,,,,,,53,,,,,,,,,,,,,,508.4349999999977,,response,,,,99,,,,,,,Space,keypress(Space),,,,,,,,---- -- ----- -- ------ - ------- --- ----------<br>------------- ------ ------ ---- ---- ------- ----- -- ----<br>-------- ------- -- ---------- --- - --- ----- ----- ----<br>it's --- --- ----- --- ---- ---- ------- ----- ---- -------<br>--- --- -- ----- -- --- ---- -- --- ---- -- ------ ------<br>--- ----- -- ----,155669.69999998808,155663,155137.899,155137.69999998808,155154.565,155679.294,,28,it's
screen,html.Screen,2_1_0_1_29,2022-02-02T16:20:55.191Z,,,,,,,,,,,,,,,,,53,,,,,,,,,,,,,,486.8059999940451,,response,,,,99,,,,,,,Space,keypress(Space),,,,,,,,---- -- ----- -- ------ - ------- --- ----------<br>------------- ------ ------ ---- ---- ------- ----- -- ----<br>-------- ------- -- ---------- --- - --- ----- ----- ----<br>---- not --- ----- --- ---- ---- ------- ----- ---- -------<br>--- --- -- ----- -- --- ---- -- --- ---- -- ------ ------<br>--- ----- -- ----,156175.19999998808,156166.09999999404,155662.628,155669.79999998212,155679.294,156179.274,,29,not
screen,html.Screen,2_1_0_1_30,2022-02-02T16:20:55.731Z,,,,,,,,,,,,,,,,,53,,,,,,,,,,,,,,528.7259999999951,,response,,,,99,,,,,,,Space,keypress(Space),,,,,,,,---- -- ----- -- ------ - ------- --- ----------<br>------------- ------ ------ ---- ---- ------- ----- -- ----<br>-------- ------- -- ---------- --- - --- ----- ----- ----<br>---- --- how ----- --- ---- ---- ------- ----- ---- -------<br>--- --- -- ----- -- --- ---- -- --- ---- -- ------ ------<br>--- ----- -- ----,156714.89999997616,156708,156162.608,156175.29999998212,156179.274,156729.252,,30,how
screen,html.Screen,2_1_0_1_31,2022-02-02T16:20:56.322Z,,,,,,,,,,,,,,,,,53,,,,,,,,,,,,,,569.8479999940319,,response,,,,99,,,,,,,Space,keypress(Space),,,,,,,,---- -- ----- -- ------ - ------- --- ----------<br>------------- ------ ------ ---- ---- ------- ----- -- ----<br>-------- ------- -- ---------- --- - --- ----- ----- ----<br>---- --- --- close --- ---- ---- ------- ----- ---- -------<br>--- --- -- ----- -- --- ---- -- --- ---- -- ------ ------<br>--- ----- -- ----,157306.09999999404,157299.09999999404,156712.586,156715.09999999404,156729.252,157312.562,,31,close
screen,html.Screen,2_1_0_1_32,2022-02-02T16:20:56.786Z,,,,,,,,,,,,,,,,,53,,,,,,,,,,,,,,451.43799999999464,,response,,,,99,,,,,,,Space,keypress(Space),,,,,,,,---- -- ----- -- ------ - ------- --- ----------<br>------------- ------ ------ ---- ---- ------- ----- -- ----<br>-------- ------- -- ---------- --- - --- ----- ----- ----<br>---- --- --- ----- you ---- ---- ------- ----- ---- -------<br>--- --- -- ----- -- --- ---- -- --- ---- -- ------ ------<br>--- ----- -- ----,157770.59999999404,157764,157295.896,157306.19999998808,157312.562,157779.21,,32,you
screen,html.Screen,2_1_0_1_33,2022-02-02T16:20:57.290Z,,,,,,,,,,,,,,,,,53,,,,,,,,,,,,,,486.8899999940477,,response,,,,99,,,,,,,Space,keypress(Space),,,,,,,,---- -- ----- -- ------ - ------- --- ----------<br>------------- ------ ------ ---- ---- ------- ----- -- ----<br>-------- ------- -- ---------- --- - --- ----- ----- ----<br>---- --- --- ----- --- feel ---- ------- ----- ---- -------<br>--- --- -- ----- -- --- ---- -- --- ---- -- ------ ------<br>--- ----- -- ----,158273.89999997616,158266.09999999404,157762.544,157770.79999998212,157779.21,158279.19,,33,feel
screen,html.Screen,2_1_0_1_34,2022-02-02T16:20:57.798Z,,,,,,,,,,,,,,,,,53,,,,,,,,,,,,,,494.8099999999977,,response,,,,99,,,,,,,Space,keypress(Space),,,,,,,,---- -- ----- -- ------ - ------- --- ----------<br>------------- ------ ------ ---- ---- ------- ----- -- ----<br>-------- ------- -- ---------- --- - --- ----- ----- ----<br>---- --- --- ----- --- ---- that ------- ----- ---- -------<br>--- --- -- ----- -- --- ---- -- --- ---- -- ------ ------<br>--- ----- -- ----,158782.19999998808,158774,158262.524,158274.09999999404,158279.19,158795.836,,34,that
screen,html.Screen,2_1_0_1_35,2022-02-02T16:20:58.402Z,,,,,,,,,,,,,,,,,53,,,,,,,,,,,,,,584.0639999761479,,response,,,,99,,,,,,,Space,keypress(Space),,,,,,,,---- -- ----- -- ------ - ------- --- ----------<br>------------- ------ ------ ---- ---- ------- ----- -- ----<br>-------- ------- -- ---------- --- - --- ----- ----- ----<br>---- --- --- ----- --- ---- ---- matters ----- ---- -------<br>--- --- -- ----- -- --- ---- -- --- ---- -- ------ ------<br>--- ----- -- ----,159386.59999999404,159379.89999997616,158779.17,158782.39999997616,158795.836,159395.812,,35,matters
screen,html.Screen,2_1_0_1_36,2022-02-02T16:20:58.906Z,,,,,,,,,,,,,,,,,53,,,,,,,,,,,,,,486.18799999999464,,response,,,,99,,,,,,,Space,keypress(Space),,,,,,,,"---- -- ----- -- ------ - ------- --- ----------<br>------------- ------ ------ ---- ---- ------- ----- -- ----<br>-------- ------- -- ---------- --- - --- ----- ----- ----<br>---- --- --- ----- --- ---- ---- ------- most, ---- -------<br>--- --- -- ----- -- --- ---- -- --- ---- -- ------ ------<br>--- ----- -- ----",159890.39999997616,159882,159379.146,159386.79999998212,159395.812,159895.792,,36,"most,"
screen,html.Screen,2_1_0_1_37,2022-02-02T16:20:59.421Z,,,,,,,,,,,,,,,,,53,,,,,,,,,,,,,,502.20800000001327,,response,,,,99,,,,,,,Space,keypress(Space),,,,,,,,---- -- ----- -- ------ - ------- --- ----------<br>------------- ------ ------ ---- ---- ------- ----- -- ----<br>-------- ------- -- ---------- --- - --- ----- ----- ----<br>---- --- --- ----- --- ---- ---- ------- ----- it's -------<br>--- --- -- ----- -- --- ---- -- --- ---- -- ------ ------<br>--- ----- -- ----,160405.09999999404,160398,159879.126,159890.5,159895.792,160412.438,,37,it's
screen,html.Screen,2_1_0_1_38,2022-02-02T16:20:59.957Z,,,,,,,,,,,,,,,,,53,,,,,,,,,,,,,,522.5620000000054,,response,,,,99,,,,,,,Space,keypress(Space),,,,,,,,---- -- ----- -- ------ - ------- --- ----------<br>------------- ------ ------ ---- ---- ------- ----- -- ----<br>-------- ------- -- ---------- --- - --- ----- ----- ----<br>---- --- --- ----- --- ---- ---- ------- ----- ---- whether<br>--- --- -- ----- -- --- ---- -- --- ---- -- ------ ------<br>--- ----- -- ----,160941.5,160935,160395.772,160405.29999998212,160412.438,160945.75,,38,whether
screen,html.Screen,2_1_0_1_39,2022-02-02T16:21:00.507Z,,,,,,,,,,,,,,,,,53,,,,,,,,,,,,,,537.3499999940395,,response,,,,99,,,,,,,Space,keypress(Space),,,,,,,,---- -- ----- -- ------ - ------- --- ----------<br>------------- ------ ------ ---- ---- ------- ----- -- ----<br>-------- ------- -- ---------- --- - --- ----- ----- ----<br>---- --- --- ----- --- ---- ---- ------- ----- ---- -------<br>you --- -- ----- -- --- ---- -- --- ---- -- ------ ------<br>--- ----- -- ----,161491,161483.09999999404,160929.084,160941.69999998808,160945.75,161495.728,,39,you
screen,html.Screen,2_1_0_1_40,2022-02-02T16:21:00.999Z,,,,,,,,,,,,,,,,,53,,,,,,,,,,,,,,483.9719999880763,,response,,,,99,,,,,,,Space,keypress(Space),,,,,,,,---- -- ----- -- ------ - ------- --- ----------<br>------------- ------ ------ ---- ---- ------- ----- -- ----<br>-------- ------- -- ---------- --- - --- ----- ----- ----<br>---- --- --- ----- --- ---- ---- ------- ----- ---- -------<br>--- are -- ----- -- --- ---- -- --- ---- -- ------ ------<br>--- ----- -- ----,161983.09999999404,161979.69999998808,161479.062,161491.19999998808,161495.728,161995.708,,40,are
screen,html.Screen,2_1_0_1_41,2022-02-02T16:21:01.477Z,,,,,,,,,,,,,,,,,53,,,,,,,,,,,,,,461.9919999880658,,response,,,,99,,,,,,,Space,keypress(Space),,,,,,,,---- -- ----- -- ------ - ------- --- ----------<br>------------- ------ ------ ---- ---- ------- ----- -- ----<br>-------- ------- -- ---------- --- - --- ----- ----- ----<br>---- --- --- ----- --- ---- ---- ------- ----- ---- -------<br>--- --- as ----- -- --- ---- -- --- ---- -- ------ ------<br>--- ----- -- ----,162461.19999998808,162457.69999998808,161979.042,161983.29999998212,161995.708,162462.356,,41,as
screen,html.Screen,2_1_0_1_42,2022-02-02T16:21:01.960Z,,,,,,,,,,,,,,,,,53,,,,,,,,,,,,,,472.5439999761584,,response,,,,99,,,,,,,Space,keypress(Space),,,,,,,,---- -- ----- -- ------ - ------- --- ----------<br>------------- ------ ------ ---- ---- ------- ----- -- ----<br>-------- ------- -- ---------- --- - --- ----- ----- ----<br>---- --- --- ----- --- ---- ---- ------- ----- ---- -------<br>--- --- -- close -- --- ---- -- --- ---- -- ------ ------<br>--- ----- -- ----,162943.79999998212,162934.89999997616,162445.69,162461.19999998808,162462.356,162945.67,,42,close
screen,html.Screen,2_1_0_1_43,2022-02-02T16:21:02.359Z,,,,,,,,,,,,,,,,,53,,,,,,,,,,,,,,390.22999997614534,,response,,,,99,,,,,,,Space,keypress(Space),,,,,,,,---- -- ----- -- ------ - ------- --- ----------<br>------------- ------ ------ ---- ---- ------- ----- -- ----<br>-------- ------- -- ---------- --- - --- ----- ----- ----<br>---- --- --- ----- --- ---- ---- ------- ----- ---- -------<br>--- --- -- ----- as --- ---- -- --- ---- -- ------ ------<br>--- ----- -- ----,163343,163335.89999997616,162929.004,162943.79999998212,162945.67,163345.654,,43,as
screen,html.Screen,2_1_0_1_44,2022-02-02T16:21:02.763Z,,,,,,,,,,,,,,,,,53,,,,,,,,,,,,,,394.34599999999045,,response,,,,99,,,,,,,Space,keypress(Space),,,,,,,,---- -- ----- -- ------ - ------- --- ----------<br>------------- ------ ------ ---- ---- ------- ----- -- ----<br>-------- ------- -- ---------- --- - --- ----- ----- ----<br>---- --- --- ----- --- ---- ---- ------- ----- ---- -------<br>--- --- -- ----- -- you ---- -- --- ---- -- ------ ------<br>--- ----- -- ----,163747.09999999404,163740,163328.988,163343.39999997616,163345.654,163762.304,,44,you
screen,html.Screen,2_1_0_1_45,2022-02-02T16:21:03.204Z,,,,,,,,,,,,,,,,,53,,,,,,,,,,,,,,418.5959999761544,,response,,,,99,,,,,,,Space,keypress(Space),,,,,,,,---- -- ----- -- ------ - ------- --- ----------<br>------------- ------ ------ ---- ---- ------- ----- -- ----<br>-------- ------- -- ---------- --- - --- ----- ----- ----<br>---- --- --- ----- --- ---- ---- ------- ----- ---- -------<br>--- --- -- ----- -- --- want -- --- ---- -- ------ ------<br>--- ----- -- ----,164187.69999998808,164180.89999997616,163745.638,163747.29999998212,163762.304,164195.62,,45,want
screen,html.Screen,2_1_0_1_46,2022-02-02T16:21:03.588Z,,,,,,,,,,,,,,,,,53,,,,,,,,,,,,,,370.17999998212326,,response,,,,99,,,,,,,Space,keypress(Space),,,,,,,,---- -- ----- -- ------ - ------- --- ----------<br>------------- ------ ------ ---- ---- ------- ----- -- ----<br>-------- ------- -- ---------- --- - --- ----- ----- ----<br>---- --- --- ----- --- ---- ---- ------- ----- ---- -------<br>--- --- -- ----- -- --- ---- to --- ---- -- ------ ------<br>--- ----- -- ----,164572.39999997616,164565.79999998212,164178.954,164187.79999998212,164195.62,164578.938,,46,to
screen,html.Screen,2_1_0_1_47,2022-02-02T16:21:04.048Z,,,,,,,,,,,,,,,,,53,,,,,,,,,,,,,,445.9619999761635,,response,,,,99,,,,,,,Space,keypress(Space),,,,,,,,"---- -- ----- -- ------ - ------- --- ----------<br>------------- ------ ------ ---- ---- ------- ----- -- ----<br>-------- ------- -- ---------- --- - --- ----- ----- ----<br>---- --- --- ----- --- ---- ---- ------- ----- ---- -------<br>--- --- -- ----- -- --- ---- -- be, ---- -- ------ ------<br>--- ----- -- ----",165031.89999997616,165024.89999997616,164562.272,164572.69999998808,164578.938,165045.586,,47,"be,"
screen,html.Screen,2_1_0_1_48,2022-02-02T16:21:04.503Z,,,,,,,,,,,,,,,,,53,,,,,,,,,,,,,,433.3139999761479,,response,,,,99,,,,,,,Space,keypress(Space),,,,,,,,---- -- ----- -- ------ - ------- --- ----------<br>------------- ------ ------ ---- ---- ------- ----- -- ----<br>-------- ------- -- ---------- --- - --- ----- ----- ----<br>---- --- --- ----- --- ---- ---- ------- ----- ---- -------<br>--- --- -- ----- -- --- ---- -- --- even -- ------ ------<br>--- ----- -- ----,165487.29999998212,165478.89999997616,165028.92,165032.09999999404,165045.586,165495.568,,48,even
screen,html.Screen,2_1_0_1_49,2022-02-02T16:21:04.933Z,,,,,,,,,,,,,,,,,53,,,,,,,,,,,,,,417.03199999404023,,response,,,,99,,,,,,,Space,keypress(Space),,,,,,,,---- -- ----- -- ------ - ------- --- ----------<br>------------- ------ ------ ---- ---- ------- ----- -- ----<br>-------- ------- -- ---------- --- - --- ----- ----- ----<br>---- --- --- ----- --- ---- ---- ------- ----- ---- -------<br>--- --- -- ----- -- --- ---- -- --- ---- if ------ ------<br>--- ----- -- ----,165917.09999999404,165912.59999999404,165478.902,165487.5,165495.568,165919.852,,49,if
screen,html.Screen,2_1_0_1_50,2022-02-02T16:21:05.435Z,,,,,,,,,,,,,,,,,53,,,,,,,,,,,,,,490.9479999821051,,response,,,,99,,,,,,,Space,keypress(Space),,,,,,,,---- -- ----- -- ------ - ------- --- ----------<br>------------- ------ ------ ---- ---- ------- ----- -- ----<br>-------- ------- -- ---------- --- - --- ----- ----- ----<br>---- --- --- ----- --- ---- ---- ------- ----- ---- -------<br>--- --- -- ----- -- --- ---- -- --- ---- -- that's ------<br>--- ----- -- ----,166419,166410.79999998212,165903.186,165917.19999998808,165919.852,166436.498,,50,that's
screen,html.Screen,2_1_0_1_51,2022-02-02T16:21:05.879Z,,,,,,,,,,,,,,,,,53,,,,,,,,,,,,,,417.20199998808675,,response,,,,99,,,,,,,Space,keypress(Space),,,,,,,,---- -- ----- -- ------ - ------- --- ----------<br>------------- ------ ------ ---- ---- ------- ----- -- ----<br>-------- ------- -- ---------- --- - --- ----- ----- ----<br>---- --- --- ----- --- ---- ---- ------- ----- ---- -------<br>--- --- -- ----- -- --- ---- -- --- ---- -- ------ really<br>--- ----- -- ----,166863,166853.69999998808,166419.832,166419.19999998808,166436.498,166869.814,,51,really
screen,html.Screen,2_1_0_1_52,2022-02-02T16:21:06.343Z,,,,,,,,,,,,,,,,,53,,,,,,,,,,,,,,449.88599998806603,,response,,,,99,,,,,,,Space,keypress(Space),,,,,,,,---- -- ----- -- ------ - ------- --- ----------<br>------------- ------ ------ ---- ---- ------- ----- -- ----<br>-------- ------- -- ---------- --- - --- ----- ----- ----<br>---- --- --- ----- --- ---- ---- ------- ----- ---- -------<br>--- --- -- ----- -- --- ---- -- --- ---- -- ------ ------<br>not ----- -- ----,167327.09999999404,167319.69999998808,166853.148,166863.19999998808,166869.814,167336.462,,52,not
screen,html.Screen,2_1_0_1_53,2022-02-02T16:21:06.845Z,,,,,,,,,,,,,,,,,53,,,,,,,,,,,,,,485.3379999821191,,response,,,,99,,,,,,,Space,keypress(Space),,,,,,,,---- -- ----- -- ------ - ------- --- ----------<br>------------- ------ ------ ---- ---- ------- ----- -- ----<br>-------- ------- -- ---------- --- - --- ----- ----- ----<br>---- --- --- ----- --- ---- ---- ------- ----- ---- -------<br>--- --- -- ----- -- --- ---- -- --- ---- -- ------ ------<br>--- close -- ----,167828.89999997616,167821.79999998212,167319.796,167327.09999999404,167336.462,167836.442,,53,close
screen,html.Screen,2_1_0_1_54,2022-02-02T16:21:07.509Z,,,,,,,,,,,,,,,,,53,,,,,,,,,,,,,,649.3579999821086,,response,,,,99,,,,,,,Space,keypress(Space),,,,,,,,---- -- ----- -- ------ - ------- --- ----------<br>------------- ------ ------ ---- ---- ------- ----- -- ----<br>-------- ------- -- ---------- --- - --- ----- ----- ----<br>---- --- --- ----- --- ---- ---- ------- ----- ---- -------<br>--- --- -- ----- -- --- ---- -- --- ---- -- ------ ------<br>--- ----- at ----,168493.19999998808,168485.79999998212,167819.776,167829.19999998808,167836.442,168503.082,,54,at
screen,html.Screen,2_1_0_1_55,2022-02-02T16:21:08.862Z,,,,,,,,,,,,,,,,,53,,,,,,,,,,,,,,1334.5179999940447,,response,,,,99,,,,,,,Space,keypress(Space),,,,,,,,---- -- ----- -- ------ - ------- --- ----------<br>------------- ------ ------ ---- ---- ------- ----- -- ----<br>-------- ------- -- ---------- --- - --- ----- ----- ----<br>---- --- --- ----- --- ---- ---- ------- ----- ---- -------<br>--- --- -- ----- -- --- ---- -- --- ---- -- ------ ------<br>--- ----- -- all.,169845.5,169837.59999999404,168486.416,168493.29999998212,168503.082,169853.028,,55,all.
Item 99,flow.Loop,2_1_0_1,2022-02-02T16:21:08.862Z,,,,,,,,,,,,,,,,,,,,,,,,,,,,,,,35731.90599999405,,completion,,,,,D,,,,,,,,,,,silence,,,,,169845.79999998212,169837.59999999404,134089.028,134091,134105.694,169853.028,,,
Question 1,html.Screen,2_1_0_2,2022-02-02T16:21:13.077Z,,,,,,,,,,,,,,,,,,,,,,,,,,,,true,FALSE,,4202.972000000009,,response,,,,99,D,,,,,,FALSE,click #choice-2,,,,silence,,,,,174060.39999997616,174056,169836.362,169845.89999997616,169853.028,174069.526,,,
Question 2,html.Screen,2_1_0_3,2022-02-02T16:21:16.116Z,,,,,,,,,,,,,,,,,,,,,,,,,,,,true,TRUE,,3025.273999982106,,response,,,,99,D,,,,,,TRUE,click #choice-1,,,,silence,,,,,177099.39999997616,177094.79999998212,174052.86,174060.59999999404,174069.526,177127.841,,,
Item 99,flow.Sequence,2_1_0,2022-02-02T16:21:16.116Z,,,,,,,,,,,,,,,,,,,,,,,,,,,,,,,52981.20499998212,,completion,,,,,,,,,,,,,,,,,,,,,177099.5,177094.79999998212,124096.929,124088.5,124113.595,177127.841,,,
Holding screen,html.Screen,2_1_1_0,2022-02-02T16:21:26.134Z,,,,,,,,,,,,,,,,,,,,,,,,,,,,,,,10003.27900000001,,timeout,,,,,,,,,,,,,,,,,,,,,187117.79999998212,187114.454,177111.175,177099.69999998808,177127.841,187131.12,,,
screen,html.Screen,2_1_1_1_0,2022-02-02T16:21:26.969Z,,,,,,,,,,,,,,,,,54,,,,,,,,,,,,,,811.5799999880837,,response,,,,100,,,,,,,Space,keypress(Space),,,,,,,,At --- ---- --- ------ ----- ------- ---- -- --- ------- --<br>------- ---------- ------ -- ----- -- ----- -- ---- ------<br>--- ----- --- --- ------ -------- ----- --- ------ ----- --<br>----- ----- ---------- --- --- ------ ------ ---- -- ------<br>------- --- ------ ----- --- ---- ------- -- ---- --- --<br>------- ------,187952,187942.69999998808,187114.454,187118.09999999404,187131.12,187964.42,,0,At
screen,html.Screen,2_1_1_1_1,2022-02-02T16:21:27.479Z,,,,,,,,,,,,,,,,,54,,,,,,,,,,,,,,491.17999999402673,,response,,,,100,,,,,,,Space,keypress(Space),,,,,,,,-- the ---- --- ------ ----- ------- ---- -- --- ------- --<br>------- ---------- ------ -- ----- -- ----- -- ---- ------<br>--- ----- --- --- ------ -------- ----- --- ------ ----- --<br>----- ----- ---------- --- --- ------ ------ ---- -- ------<br>------- --- ------ ----- --- ---- ------- -- ---- --- --<br>------- ------,188462.39999997616,188455.59999999404,187947.754,187952.19999998808,187964.42,188464.4,,1,the
screen,html.Screen,2_1_1_1_2,2022-02-02T16:21:27.895Z,,,,,,,,,,,,,,,,,54,,,,,,,,,,,,,,407.19999999404536,,response,,,,100,,,,,,,Space,keypress(Space),,,,,,,,-- --- time --- ------ ----- ------- ---- -- --- ------- --<br>------- ---------- ------ -- ----- -- ----- -- ---- ------<br>--- ----- --- --- ------ -------- ----- --- ------ ----- --<br>----- ----- ---------- --- --- ------ ------ ---- -- ------<br>------- --- ------ ----- --- ---- ------- -- ---- --- --<br>------- ------,188878.09999999404,188871.59999999404,188447.734,188462.59999999404,188464.4,188881.05,,2,time
screen,html.Screen,2_1_1_1_3,2022-02-02T16:21:28.407Z,,,,,,,,,,,,,,,,,54,,,,,,,,,,,,,,502.6499999880907,,response,,,,100,,,,,,,Space,keypress(Space),,,,,,,,-- --- ---- the ------ ----- ------- ---- -- --- ------- --<br>------- ---------- ------ -- ----- -- ----- -- ---- ------<br>--- ----- --- --- ------ -------- ----- --- ------ ----- --<br>----- ----- ---------- --- --- ------ ------ ---- -- ------<br>------- --- ------ ----- --- ---- ------- -- ---- --- --<br>------- ------,189390.39999997616,189383.69999998808,188864.384,188878.29999998212,188881.05,189397.696,,3,the
screen,html.Screen,2_1_1_1_4,2022-02-02T16:21:28.909Z,,,,,,,,,,,,,,,,,54,,,,,,,,,,,,,,486.90399999404326,,response,,,,100,,,,,,,Space,keypress(Space),,,,,,,,-- --- ---- --- French ----- ------- ---- -- --- ------- --<br>------- ---------- ------ -- ----- -- ----- -- ---- ------<br>--- ----- --- --- ------ -------- ----- --- ------ ----- --<br>----- ----- ---------- --- --- ------ ------ ---- -- ------<br>------- --- ------ ----- --- ---- ------- -- ---- --- --<br>------- ------,189892.39999997616,189884.59999999404,189381.03,189390.59999999404,189397.696,189897.676,,4,French
screen,html.Screen,2_1_1_1_5,2022-02-02T16:21:29.554Z,,,,,,,,,,,,,,,,,54,,,,,,,,,,,,,,632.8239999999932,,response,,,,100,,,,,,,Space,keypress(Space),,,,,,,,-- --- ---- --- ------ crown ------- ---- -- --- ------- --<br>------- ---------- ------ -- ----- -- ----- -- ---- ------<br>--- ----- --- --- ------ -------- ----- --- ------ ----- --<br>----- ----- ---------- --- --- ------ ------ ---- -- ------<br>------- --- ------ ----- --- ---- ------- -- ---- --- --<br>------- ------,190537.09999999404,190530.5,189881.01,189892.59999999404,189897.676,190547.65,,5,crown
screen,html.Screen,2_1_1_1_6,2022-02-02T16:21:30.077Z,,,,,,,,,,,,,,,,,54,,,,,,,,,,,,,,505.94999999404536,,response,,,,100,,,,,,,Space,keypress(Space),,,,,,,,-- --- ---- --- ------ ----- secured ---- -- --- ------- --<br>------- ---------- ------ -- ----- -- ----- -- ---- ------<br>--- ----- --- --- ------ -------- ----- --- ------ ----- --<br>----- ----- ---------- --- --- ------ ------ ---- -- ------<br>------- --- ------ ----- --- ---- ------- -- ---- --- --<br>------- ------,191060.29999998212,191053.59999999404,190530.984,190537.39999997616,190547.65,191064.296,,6,secured
screen,html.Screen,2_1_1_1_7,2022-02-02T16:21:30.743Z,,,,,,,,,,,,,,,,,54,,,,,,,,,,,,,,655.2039999999979,,response,,,,100,,,,,,,Space,keypress(Space),,,,,,,,-- --- ---- --- ------ ----- ------- much -- --- ------- --<br>------- ---------- ------ -- ----- -- ----- -- ---- ------<br>--- ----- --- --- ------ -------- ----- --- ------ ----- --<br>----- ----- ---------- --- --- ------ ------ ---- -- ------<br>------- --- ------ ----- --- ---- ------- -- ---- --- --<br>------- ------,191726.39999997616,191719.5,191047.63,191060.39999997616,191064.296,191730.936,,7,much
screen,html.Screen,2_1_1_1_8,2022-02-02T16:21:31.140Z,,,,,,,,,,,,,,,,,54,,,,,,,,,,,,,,385.56400000001304,,response,,,,100,,,,,,,Space,keypress(Space),,,,,,,,-- --- ---- --- ------ ----- ------- ---- of --- ------- --<br>------- ---------- ------ -- ----- -- ----- -- ---- ------<br>--- ----- --- --- ------ -------- ----- --- ------ ----- --<br>----- ----- ---------- --- --- ------ ------ ---- -- ------<br>------- --- ------ ----- --- ---- ------- -- ---- --- --<br>------- ------,192123.29999998212,192116.5,191714.27,191726.79999998212,191730.936,192130.92,,8,of
screen,html.Screen,2_1_1_1_9,2022-02-02T16:21:31.823Z,,,,,,,,,,,,,,,,,54,,,,,,,,,,,,,,666.5799999999872,,response,,,,100,,,,,,,Space,keypress(Space),,,,,,,,-- --- ---- --- ------ ----- ------- ---- -- its ------- --<br>------- ---------- ------ -- ----- -- ----- -- ---- ------<br>--- ----- --- --- ------ -------- ----- --- ------ ----- --<br>----- ----- ---------- --- --- ------ ------ ---- -- ------<br>------- --- ------ ----- --- ---- ------- -- ---- --- --<br>------- ------,192805.89999997616,192797.5,192114.254,192123.5,192130.92,192814.226,,9,its
screen,html.Screen,2_1_1_1_10,2022-02-02T16:21:32.315Z,,,,,,,,,,,,,,,,,54,,,,,,,,,,,,,,477.2740000000049,,response,,,,100,,,,,,,Space,keypress(Space),,,,,,,,-- --- ---- --- ------ ----- ------- ---- -- --- revenue --<br>------- ---------- ------ -- ----- -- ----- -- ---- ------<br>--- ----- --- --- ------ -------- ----- --- ------ ----- --<br>----- ----- ---------- --- --- ------ ------ ---- -- ------<br>------- --- ------ ----- --- ---- ------- -- ---- --- --<br>------- ------,193298.19999998808,193291.5,192797.56,192806,192814.226,193314.206,,10,revenue
screen,html.Screen,2_1_1_1_11,2022-02-02T16:21:32.937Z,,,,,,,,,,,,,,,,,54,,,,,,,,,,,,,,601.9939999880735,,response,,,,100,,,,,,,Space,keypress(Space),,,,,,,,-- --- ---- --- ------ ----- ------- ---- -- --- ------- by<br>------- ---------- ------ -- ----- -- ----- -- ---- ------<br>--- ----- --- --- ------ -------- ----- --- ------ ----- --<br>----- ----- ---------- --- --- ------ ------ ---- -- ------<br>------- --- ------ ----- --- ---- ------- -- ---- --- --<br>------- ------,193919.69999998808,193916.19999998808,193297.54,193298.39999997616,193314.206,193930.848,,11,by
screen,html.Screen,2_1_1_1_12,2022-02-02T16:21:33.484Z,,,,,,,,,,,,,,,,,54,,,,,,,,,,,,,,532.3519999880809,,response,,,,100,,,,,,,Space,keypress(Space),,,,,,,,-- --- ---- --- ------ ----- ------- ---- -- --- ------- --<br>issuing ---------- ------ -- ----- -- ----- -- ---- ------<br>--- ----- --- --- ------ -------- ----- --- ------ ----- --<br>----- ----- ---------- --- --- ------ ------ ---- -- ------<br>------- --- ------ ----- --- ---- ------- -- ---- --- --<br>------- ------,194466.69999998808,194463.19999998808,193914.182,193919.79999998212,193930.848,194480.826,,12,issuing
screen,html.Screen,2_1_1_1_13,2022-02-02T16:21:34.065Z,,,,,,,,,,,,,,,,,54,,,,,,,,,,,,,,560.3739999880781,,response,,,,100,,,,,,,Space,keypress(Space),,,,,,,,-- --- ---- --- ------ ----- ------- ---- -- --- ------- --<br>------- government ------ -- ----- -- ----- -- ---- ------<br>--- ----- --- --- ------ -------- ----- --- ------ ----- --<br>----- ----- ---------- --- --- ------ ------ ---- -- ------<br>------- --- ------ ----- --- ---- ------- -- ---- --- --<br>------- ------,195047.79999998212,195041.19999998808,194464.16,194466.79999998212,194480.826,195064.136,,13,government
screen,html.Screen,2_1_1_1_14,2022-02-02T16:21:35.500Z,,,,,,,,,,,,,,,,,54,,,,,,,,,,,,,,1411.2639999761595,,response,,,,100,,,,,,,Space,keypress(Space),,,,,,,,-- --- ---- --- ------ ----- ------- ---- -- --- ------- --<br>------- ---------- bonds. -- ----- -- ----- -- ---- ------<br>--- ----- --- --- ------ -------- ----- --- ------ ----- --<br>----- ----- ---------- --- --- ------ ------ ---- -- ------<br>------- --- ------ ----- --- ---- ------- -- ---- --- --<br>------- ------,196482.79999998212,196475.39999997616,195047.47,195047.89999997616,195064.136,196497.412,,14,bonds.
screen,html.Screen,2_1_1_1_15,2022-02-02T16:21:36.004Z,,,,,,,,,,,,,,,,,54,,,,,,,,,,,,,,482.7879999880679,,response,,,,100,,,,,,,Space,keypress(Space),,,,,,,,-- --- ---- --- ------ ----- ------- ---- -- --- ------- --<br>------- ---------- ------ In ----- -- ----- -- ---- ------<br>--- ----- --- --- ------ -------- ----- --- ------ ----- --<br>----- ----- ---------- --- --- ------ ------ ---- -- ------<br>------- --- ------ ----- --- ---- ------- -- ---- --- --<br>------- ------,196986.89999997616,196980.19999998808,196480.746,196483,196497.412,196997.392,,15,In
screen,html.Screen,2_1_1_1_16,2022-02-02T16:21:37.047Z,,,,,,,,,,,,,,,,,54,,,,,,,,,,,,,,1023.9079999821261,,response,,,,100,,,,,,,Space,keypress(Space),,,,,,,,"-- --- ---- --- ------ ----- ------- ---- -- --- ------- --<br>------- ---------- ------ -- 1727, -- ----- -- ---- ------<br>--- ----- --- --- ------ -------- ----- --- ------ ----- --<br>----- ----- ---------- --- --- ------ ------ ---- -- ------<br>------- --- ------ ----- --- ---- ------- -- ---- --- --<br>------- ------",198030.5,198021.29999998212,196980.726,196987.09999999404,196997.392,198038.947,,16,"1727,"
screen,html.Screen,2_1_1_1_17,2022-02-02T16:21:37.531Z,,,,,,,,,,,,,,,,,54,,,,,,,,,,,,,,468.2529999880935,,response,,,,100,,,,,,,Space,keypress(Space),,,,,,,,-- --- ---- --- ------ ----- ------- ---- -- --- ------- --<br>------- ---------- ------ -- ----- in ----- -- ---- ------<br>--- ----- --- --- ------ -------- ----- --- ------ ----- --<br>----- ----- ---------- --- --- ------ ------ ---- -- ------<br>------- --- ------ ----- --- ---- ------- -- ---- --- --<br>------- ------,198514.09999999404,198507.19999998808,198022.281,198030.69999998808,198038.947,198522.261,,17,in
screen,html.Screen,2_1_1_1_18,2022-02-02T16:21:38.186Z,,,,,,,,,,,,,,,,,54,,,,,,,,,,,,,,639.03899998212,,response,,,,100,,,,,,,Space,keypress(Space),,,,,,,,-- --- ---- --- ------ ----- ------- ---- -- --- ------- --<br>------- ---------- ------ -- ----- -- order -- ---- ------<br>--- ----- --- --- ------ -------- ----- --- ------ ----- --<br>----- ----- ---------- --- --- ------ ------ ---- -- ------<br>------- --- ------ ----- --- ---- ------- -- ---- --- --<br>------- ------,199169.09999999404,199161.29999998212,198505.595,198514.29999998212,198522.261,199172.235,,18,order
screen,html.Screen,2_1_1_1_19,2022-02-02T16:21:38.469Z,,,,,,,,,,,,,,,,,54,,,,,,,,,,,,,,273.1649999761721,,response,,,,100,,,,,,,Space,keypress(Space),,,,,,,,-- --- ---- --- ------ ----- ------- ---- -- --- ------- --<br>------- ---------- ------ -- ----- -- ----- to ---- ------<br>--- ----- --- --- ------ -------- ----- --- ------ ----- --<br>----- ----- ---------- --- --- ------ ------ ---- -- ------<br>------- --- ------ ----- --- ---- ------- -- ---- --- --<br>------- ------,199452.5,199445.39999997616,199155.569,199169.19999998808,199172.235,199455.557,,19,to
screen,html.Screen,2_1_1_1_20,2022-02-02T16:21:39.059Z,,,,,,,,,,,,,,,,,54,,,,,,,,,,,,,,579.7429999821179,,response,,,,100,,,,,,,Space,keypress(Space),,,,,,,,-- --- ---- --- ------ ----- ------- ---- -- --- ------- --<br>------- ---------- ------ -- ----- -- ----- -- save ------<br>--- ----- --- --- ------ -------- ----- --- ------ ----- --<br>----- ----- ---------- --- --- ------ ------ ---- -- ------<br>------- --- ------ ----- --- ---- ------- -- ---- --- --<br>------- ------,200042.5,200035.29999998212,199438.891,199452.69999998808,199455.557,200055.533,,20,save
screen,html.Screen,2_1_1_1_21,2022-02-02T16:21:39.771Z,,,,,,,,,,,,,,,,,54,,,,,,,,,,,,,,690.6669999880833,,response,,,,100,,,,,,,Space,keypress(Space),,,,,,,,"-- --- ---- --- ------ ----- ------- ---- -- --- ------- --<br>------- ---------- ------ -- ----- -- ----- -- ---- money,<br>--- ----- --- --- ------ -------- ----- --- ------ ----- --<br>----- ----- ---------- --- --- ------ ------ ---- -- ------<br>------- --- ------ ----- --- ---- ------- -- ---- --- --<br>------- ------",200753.89999997616,200746.19999998808,200038.867,200042.5,200055.533,200755.505,,21,"money,"
screen,html.Screen,2_1_1_1_22,2022-02-02T16:21:40.352Z,,,,,,,,,,,,,,,,,54,,,,,,,,,,,,,,572.794999982114,,response,,,,100,,,,,,,Space,keypress(Space),,,,,,,,-- --- ---- --- ------ ----- ------- ---- -- --- ------- --<br>------- ---------- ------ -- ----- -- ----- -- ---- ------<br>the ----- --- --- ------ -------- ----- --- ------ ----- --<br>----- ----- ---------- --- --- ------ ------ ---- -- ------<br>------- --- ------ ----- --- ---- ------- -- ---- --- --<br>------- ------,201335,201328.29999998212,200738.839,200754.09999999404,200755.505,201338.815,,22,the
screen,html.Screen,2_1_1_1_23,2022-02-02T16:21:40.877Z,,,,,,,,,,,,,,,,,54,,,,,,,,,,,,,,514.2849999940372,,response,,,,100,,,,,,,Space,keypress(Space),,,,,,,,-- --- ---- --- ------ ----- ------- ---- -- --- ------- --<br>------- ---------- ------ -- ----- -- ----- -- ---- ------<br>--- state --- --- ------ -------- ----- --- ------ ----- --<br>----- ----- ---------- --- --- ------ ------ ---- -- ------<br>------- --- ------ ----- --- ---- ------- -- ---- --- --<br>------- ------,201859.79999998212,201853.09999999404,201322.149,201335.29999998212,201338.815,201872.127,,23,state
screen,html.Screen,2_1_1_1_24,2022-02-02T16:21:41.391Z,,,,,,,,,,,,,,,,,54,,,,,,,,,,,,,,495.0729999880714,,response,,,,100,,,,,,,Space,keypress(Space),,,,,,,,-- --- ---- --- ------ ----- ------- ---- -- --- ------- --<br>------- ---------- ------ -- ----- -- ----- -- ---- ------<br>--- ----- cut --- ------ -------- ----- --- ------ ----- --<br>----- ----- ---------- --- --- ------ ------ ---- -- ------<br>------- --- ------ ----- --- ---- ------- -- ---- --- --<br>------- ------,202373.89999997616,202367.19999998808,201855.461,201860,201872.127,202388.773,,24,cut
screen,html.Screen,2_1_1_1_25,2022-02-02T16:21:41.878Z,,,,,,,,,,,,,,,,,54,,,,,,,,,,,,,,465.32699999405304,,response,,,,100,,,,,,,Space,keypress(Space),,,,,,,,-- --- ---- --- ------ ----- ------- ---- -- --- ------- --<br>------- ---------- ------ -- ----- -- ----- -- ---- ------<br>--- ----- --- the ------ -------- ----- --- ------ ----- --<br>----- ----- ---------- --- --- ------ ------ ---- -- ------<br>------- --- ------ ----- --- ---- ------- -- ---- --- --<br>------- ------,202861.09999999404,202854.09999999404,202372.107,202374,202388.773,202872.087,,25,the
screen,html.Screen,2_1_1_1_26,2022-02-02T16:21:42.363Z,,,,,,,,,,,,,,,,,54,,,,,,,,,,,,,,466.01299999404,,response,,,,100,,,,,,,Space,keypress(Space),,,,,,,,-- --- ---- --- ------ ----- ------- ---- -- --- ------- --<br>------- ---------- ------ -- ----- -- ----- -- ---- ------<br>--- ----- --- --- bonds' -------- ----- --- ------ ----- --<br>----- ----- ---------- --- --- ------ ------ ---- -- ------<br>------- --- ------ ----- --- ---- ------- -- ---- --- --<br>------- ------,203346.29999998212,203338.09999999404,202855.421,202861.29999998212,202872.087,203355.401,,26,bonds'
screen,html.Screen,2_1_1_1_27,2022-02-02T16:21:42.876Z,,,,,,,,,,,,,,,,,54,,,,,,,,,,,,,,496.69899999402696,,response,,,,100,,,,,,,Space,keypress(Space),,,,,,,,-- --- ---- --- ------ ----- ------- ---- -- --- ------- --<br>------- ---------- ------ -- ----- -- ----- -- ---- ------<br>--- ----- --- --- ------ interest ----- --- ------ ----- --<br>----- ----- ---------- --- --- ------ ------ ---- -- ------<br>------- --- ------ ----- --- ---- ------- -- ---- --- --<br>------- ------,203858.89999997616,203852.09999999404,203338.735,203346.5,203355.401,203872.047,,27,interest
screen,html.Screen,2_1_1_1_28,2022-02-02T16:21:43.346Z,,,,,,,,,,,,,,,,,54,,,,,,,,,,,,,,449.05299999404815,,response,,,,100,,,,,,,Space,keypress(Space),,,,,,,,-- --- ---- --- ------ ----- ------- ---- -- --- ------- --<br>------- ---------- ------ -- ----- -- ----- -- ---- ------<br>--- ----- --- --- ------ -------- rate. --- ------ ----- --<br>----- ----- ---------- --- --- ------ ------ ---- -- ------<br>------- --- ------ ----- --- ---- ------- -- ---- --- --<br>------- ------,204329,204321.09999999404,203855.381,203859,203872.047,204338.695,,28,rate.
screen,html.Screen,2_1_1_1_29,2022-02-02T16:21:44.119Z,,,,,,,,,,,,,,,,,54,,,,,,,,,,,,,,745.1049999821116,,response,,,,100,,,,,,,Space,keypress(Space),,,,,,,,-- --- ---- --- ------ ----- ------- ---- -- --- ------- --<br>------- ---------- ------ -- ----- -- ----- -- ---- ------<br>--- ----- --- --- ------ -------- ----- The ------ ----- --<br>----- ----- ---------- --- --- ------ ------ ---- -- ------<br>------- --- ------ ----- --- ---- ------- -- ---- --- --<br>------- ------,205102.29999998212,205083.79999998212,204322.029,204329.09999999404,204338.695,205105.331,,29,The
screen,html.Screen,2_1_1_1_30,2022-02-02T16:21:44.583Z,,,,,,,,,,,,,,,,,54,,,,,,,,,,,,,,454.56899997615255,,response,,,,100,,,,,,,Space,keypress(Space),,,,,,,,-- --- ---- --- ------ ----- ------- ---- -- --- ------- --<br>------- ---------- ------ -- ----- -- ----- -- ---- ------<br>--- ----- --- --- ------ -------- ----- --- market ----- --<br>----- ----- ---------- --- --- ------ ------ ---- -- ------<br>------- --- ------ ----- --- ---- ------- -- ---- --- --<br>------- ------,205565.5,205559.89999997616,205088.665,205102.39999997616,205105.331,205571.979,,30,market
screen,html.Screen,2_1_1_1_31,2022-02-02T16:21:45.031Z,,,,,,,,,,,,,,,,,54,,,,,,,,,,,,,,434.92099997616606,,response,,,,100,,,,,,,Space,keypress(Space),,,,,,,,-- --- ---- --- ------ ----- ------- ---- -- --- ------- --<br>------- ---------- ------ -- ----- -- ----- -- ---- ------<br>--- ----- --- --- ------ -------- ----- --- ------ value --<br>----- ----- ---------- --- --- ------ ------ ---- -- ------<br>------- --- ------ ----- --- ---- ------- -- ---- --- --<br>------- ------,206013.69999998808,206006.89999997616,205555.313,205565.59999999404,205571.979,206021.961,,31,value
screen,html.Screen,2_1_1_1_32,2022-02-02T16:21:45.550Z,,,,,,,,,,,,,,,,,54,,,,,,,,,,,,,,504.03899999998976,,response,,,,100,,,,,,,Space,keypress(Space),,,,,,,,-- --- ---- --- ------ ----- ------- ---- -- --- ------- --<br>------- ---------- ------ -- ----- -- ----- -- ---- ------<br>--- ----- --- --- ------ -------- ----- --- ------ ----- of<br>----- ----- ---------- --- --- ------ ------ ---- -- ------<br>------- --- ------ ----- --- ---- ------- -- ---- --- --<br>------- ------,206533,206526,206005.295,206013.79999998212,206021.961,206538.607,,32,of
screen,html.Screen,2_1_1_1_33,2022-02-02T16:21:46.024Z,,,,,,,,,,,,,,,,,54,,,,,,,,,,,,,,460.39300000001094,,response,,,,100,,,,,,,Space,keypress(Space),,,,,,,,-- --- ---- --- ------ ----- ------- ---- -- --- ------- --<br>------- ---------- ------ -- ----- -- ----- -- ---- ------<br>--- ----- --- --- ------ -------- ----- --- ------ ----- --<br>these ----- ---------- --- --- ------ ------ ---- -- ------<br>------- --- ------ ----- --- ---- ------- -- ---- --- --<br>------- ------,207006.59999999404,206999,206521.941,206533.09999999404,206538.607,207021.921,,33,these
screen,html.Screen,2_1_1_1_34,2022-02-02T16:21:46.512Z,,,,,,,,,,,,,,,,,54,,,,,,,,,,,,,,466.17899999403744,,response,,,,100,,,,,,,Space,keypress(Space),,,,,,,,-- --- ---- --- ------ ----- ------- ---- -- --- ------- --<br>------- ---------- ------ -- ----- -- ----- -- ---- ------<br>--- ----- --- --- ------ -------- ----- --- ------ ----- --<br>----- bonds ---------- --- --- ------ ------ ---- -- ------<br>------- --- ------ ----- --- ---- ------- -- ---- --- --<br>------- ------,207495,207488.09999999404,207005.255,207006.79999998212,207021.921,207496.541,,34,bonds
screen,html.Screen,2_1_1_1_35,2022-02-02T16:21:47.495Z,,,,,,,,,,,,,,,,,54,,,,,,,,,,,,,,972.4590000000026,,response,,,,100,,,,,,,Space,keypress(Space),,,,,,,,"-- --- ---- --- ------ ----- ------- ---- -- --- ------- --<br>------- ---------- ------ -- ----- -- ----- -- ---- ------<br>--- ----- --- --- ------ -------- ----- --- ------ ----- --<br>----- ----- plummeted, --- --- ------ ------ ---- -- ------<br>------- --- ------ ----- --- ---- ------- -- ---- --- --<br>------- ------",208477.69999998808,208469,207479.875,207495,207496.541,208479.835,,35,"plummeted,"
screen,html.Screen,2_1_1_1_36,2022-02-02T16:21:48.250Z,,,,,,,,,,,,,,,,,54,,,,,,,,,,,,,,746.0649999761663,,response,,,,100,,,,,,,Space,keypress(Space),,,,,,,,-- --- ---- --- ------ ----- ------- ---- -- --- ------- --<br>------- ---------- ------ -- ----- -- ----- -- ---- ------<br>--- ----- --- --- ------ -------- ----- --- ------ ----- --<br>----- ----- ---------- and --- ------ ------ ---- -- ------<br>------- --- ------ ----- --- ---- ------- -- ---- --- --<br>------- ------,209232.59999999404,209225.89999997616,208463.169,208477.79999998212,208479.835,209246.471,,36,and
screen,html.Screen,2_1_1_1_37,2022-02-02T16:21:48.869Z,,,,,,,,,,,,,,,,,54,,,,,,,,,,,,,,597.4289999761677,,response,,,,100,,,,,,,Space,keypress(Space),,,,,,,,-- --- ---- --- ------ ----- ------- ---- -- --- ------- --<br>------- ---------- ------ -- ----- -- ----- -- ---- ------<br>--- ----- --- --- ------ -------- ----- --- ------ ----- --<br>----- ----- ---------- --- the ------ ------ ---- -- ------<br>------- --- ------ ----- --- ---- ------- -- ---- --- --<br>------- ------,209851.39999997616,209843.89999997616,209229.805,209232.79999998212,209246.471,209863.113,,37,the
screen,html.Screen,2_1_1_1_38,2022-02-02T16:21:49.392Z,,,,,,,,,,,,,,,,,54,,,,,,,,,,,,,,504.78699997614603,,response,,,,100,,,,,,,Space,keypress(Space),,,,,,,,-- --- ---- --- ------ ----- ------- ---- -- --- ------- --<br>------- ---------- ------ -- ----- -- ----- -- ---- ------<br>--- ----- --- --- ------ -------- ----- --- ------ ----- --<br>----- ----- ---------- --- --- market ------ ---- -- ------<br>------- --- ------ ----- --- ---- ------- -- ---- --- --<br>------- ------,210374.69999998808,210367.89999997616,209846.447,209851.5,209863.113,210379.759,,38,market
screen,html.Screen,2_1_1_1_39,2022-02-02T16:21:49.894Z,,,,,,,,,,,,,,,,,54,,,,,,,,,,,,,,490.1409999761672,,response,,,,100,,,,,,,Space,keypress(Space),,,,,,,,-- --- ---- --- ------ ----- ------- ---- -- --- ------- --<br>------- ---------- ------ -- ----- -- ----- -- ---- ------<br>--- ----- --- --- ------ -------- ----- --- ------ ----- --<br>----- ----- ---------- --- --- ------ became ---- -- ------<br>------- --- ------ ----- --- ---- ------- -- ---- --- --<br>------- ------,210876.79999998212,210869.89999997616,210363.093,210374.79999998212,210379.759,210879.739,,39,became
screen,html.Screen,2_1_1_1_40,2022-02-02T16:21:50.376Z,,,,,,,,,,,,,,,,,54,,,,,,,,,,,,,,472.0609999821172,,response,,,,100,,,,,,,Space,keypress(Space),,,,,,,,-- --- ---- --- ------ ----- ------- ---- -- --- ------- --<br>------- ---------- ------ -- ----- -- ----- -- ---- ------<br>--- ----- --- --- ------ -------- ----- --- ------ ----- --<br>----- ----- ---------- --- --- ------ ------ wary -- ------<br>------- --- ------ ----- --- ---- ------- -- ---- --- --<br>------- ------,211358.69999998808,211351.79999998212,210863.073,210877,210879.739,211363.053,,40,wary
screen,html.Screen,2_1_1_1_41,2022-02-02T16:21:50.981Z,,,,,,,,,,,,,,,,,54,,,,,,,,,,,,,,593.7469999821042,,response,,,,100,,,,,,,Space,keypress(Space),,,,,,,,-- --- ---- --- ------ ----- ------- ---- -- --- ------- --<br>------- ---------- ------ -- ----- -- ----- -- ---- ------<br>--- ----- --- --- ------ -------- ----- --- ------ ----- --<br>----- ----- ---------- --- --- ------ ------ ---- of ------<br>------- --- ------ ----- --- ---- ------- -- ---- --- --<br>------- ------,211963.59999999404,211956.79999998212,211346.387,211359,211363.053,211979.695,,41,of
screen,html.Screen,2_1_1_1_42,2022-02-02T16:21:51.492Z,,,,,,,,,,,,,,,,,54,,,,,,,,,,,,,,488.304999999993,,response,,,,100,,,,,,,Space,keypress(Space),,,,,,,,-- --- ---- --- ------ ----- ------- ---- -- --- ------- --<br>------- ---------- ------ -- ----- -- ----- -- ---- ------<br>--- ----- --- --- ------ -------- ----- --- ------ ----- --<br>----- ----- ---------- --- --- ------ ------ ---- -- French<br>------- --- ------ ----- --- ---- ------- -- ---- --- --<br>------- ------,212474.69999998808,212468,211963.029,211963.79999998212,211979.695,212479.675,,42,French
screen,html.Screen,2_1_1_1_43,2022-02-02T16:21:51.949Z,,,,,,,,,,,,,,,,,54,,,,,,,,,,,,,,445.12499998213025,,response,,,,100,,,,,,,Space,keypress(Space),,,,,,,,-- --- ---- --- ------ ----- ------- ---- -- --- ------- --<br>------- ---------- ------ -- ----- -- ----- -- ---- ------<br>--- ----- --- --- ------ -------- ----- --- ------ ----- --<br>----- ----- ---------- --- --- ------ ------ ---- -- ------<br>credit. --- ------ ----- --- ---- ------- -- ---- --- --<br>------- ------,212931.19999998808,212924.79999998212,212463.009,212474.89999997616,212479.675,212946.323,,43,credit.
screen,html.Screen,2_1_1_1_44,2022-02-02T16:21:52.570Z,,,,,,,,,,,,,,,,,54,,,,,,,,,,,,,,599.4769999821146,,response,,,,100,,,,,,,Space,keypress(Space),,,,,,,,-- --- ---- --- ------ ----- ------- ---- -- --- ------- --<br>------- ---------- ------ -- ----- -- ----- -- ---- ------<br>--- ----- --- --- ------ -------- ----- --- ------ ----- --<br>----- ----- ---------- --- --- ------ ------ ---- -- ------<br>------- The ------ ----- --- ---- ------- -- ---- --- --<br>------- ------,213552.39999997616,213545.79999998212,212929.657,212931.5,212946.323,213562.965,,44,The
screen,html.Screen,2_1_1_1_45,2022-02-02T16:21:52.912Z,,,,,,,,,,,,,,,,,54,,,,,,,,,,,,,,323.73499998808256,,response,,,,100,,,,,,,Space,keypress(Space),,,,,,,,-- --- ---- --- ------ ----- ------- ---- -- --- ------- --<br>------- ---------- ------ -- ----- -- ----- -- ---- ------<br>--- ----- --- --- ------ -------- ----- --- ------ ----- --<br>----- ----- ---------- --- --- ------ ------ ---- -- ------<br>------- --- French ----- --- ---- ------- -- ---- --- --<br>------- ------,213894.19999998808,213886.69999998808,213546.299,213552.5,213562.965,213896.285,,45,French
screen,html.Screen,2_1_1_1_46,2022-02-02T16:21:53.314Z,,,,,,,,,,,,,,,,,54,,,,,,,,,,,,,,393.4149999880756,,response,,,,100,,,,,,,Space,keypress(Space),,,,,,,,-- --- ---- --- ------ ----- ------- ---- -- --- ------- --<br>------- ---------- ------ -- ----- -- ----- -- ---- ------<br>--- ----- --- --- ------ -------- ----- --- ------ ----- --<br>----- ----- ---------- --- --- ------ ------ ---- -- ------<br>------- --- ------ state --- ---- ------- -- ---- --- --<br>------- ------,214296.69999998808,214289.69999998808,213879.619,213894.29999998212,213896.285,214312.935,,46,state
screen,html.Screen,2_1_1_1_47,2022-02-02T16:21:53.693Z,,,,,,,,,,,,,,,,,54,,,,,,,,,,,,,,355.86499998212093,,response,,,,100,,,,,,,Space,keypress(Space),,,,,,,,-- --- ---- --- ------ ----- ------- ---- -- --- ------- --<br>------- ---------- ------ -- ----- -- ----- -- ---- ------<br>--- ----- --- --- ------ -------- ----- --- ------ ----- --<br>----- ----- ---------- --- --- ------ ------ ---- -- ------<br>------- --- ------ ----- was ---- ------- -- ---- --- --<br>------- ------,214675.5,214668.79999998212,214296.269,214296.89999997616,214312.935,214679.587,,47,was
screen,html.Screen,2_1_1_1_48,2022-02-02T16:21:54.098Z,,,,,,,,,,,,,,,,,54,,,,,,,,,,,,,,384.91300000000047,,response,,,,100,,,,,,,Space,keypress(Space),,,,,,,,-- --- ---- --- ------ ----- ------- ---- -- --- ------- --<br>------- ---------- ------ -- ----- -- ----- -- ---- ------<br>--- ----- --- --- ------ -------- ----- --- ------ ----- --<br>----- ----- ---------- --- --- ------ ------ ---- -- ------<br>------- --- ------ ----- --- left ------- -- ---- --- --<br>------- ------,215080.69999998808,215064.5,214662.921,214675.69999998808,214679.587,215096.237,,48,left
screen,html.Screen,2_1_1_1_49,2022-02-02T16:21:54.550Z,,,,,,,,,,,,,,,,,54,,,,,,,,,,,,,,432.2630000000063,,response,,,,100,,,,,,,Space,keypress(Space),,,,,,,,-- --- ---- --- ------ ----- ------- ---- -- --- ------- --<br>------- ---------- ------ -- ----- -- ----- -- ---- ------<br>--- ----- --- --- ------ -------- ----- --- ------ ----- --<br>----- ----- ---------- --- --- ------ ------ ---- -- ------<br>------- --- ------ ----- --- ---- without -- ---- --- --<br>------- ------,215532.19999998808,215528.5,215079.571,215080.79999998212,215096.237,215546.219,,49,without
screen,html.Screen,2_1_1_1_50,2022-02-02T16:21:55.008Z,,,,,,,,,,,,,,,,,54,,,,,,,,,,,,,,437.4809999880672,,response,,,,100,,,,,,,Space,keypress(Space),,,,,,,,-- --- ---- --- ------ ----- ------- ---- -- --- ------- --<br>------- ---------- ------ -- ----- -- ----- -- ---- ------<br>--- ----- --- --- ------ -------- ----- --- ------ ----- --<br>----- ----- ---------- --- --- ------ ------ ---- -- ------<br>------- --- ------ ----- --- ---- ------- an ---- --- --<br>------- ------,215990.5,215983.69999998808,215529.553,215532.19999998808,215546.219,215996.201,,50,an
screen,html.Screen,2_1_1_1_51,2022-02-02T16:21:55.438Z,,,,,,,,,,,,,,,,,54,,,,,,,,,,,,,,418.3989999940386,,response,,,,100,,,,,,,Space,keypress(Space),,,,,,,,-- --- ---- --- ------ ----- ------- ---- -- --- ------- --<br>------- ---------- ------ -- ----- -- ----- -- ---- ------<br>--- ----- --- --- ------ -------- ----- --- ------ ----- --<br>----- ----- ---------- --- --- ------ ------ ---- -- ------<br>------- --- ------ ----- --- ---- ------- -- easy --- --<br>------- ------,216420.79999998212,216414.59999999404,215979.535,215990.69999998808,215996.201,216429.517,,51,easy
screen,html.Screen,2_1_1_1_52,2022-02-02T16:21:55.816Z,,,,,,,,,,,,,,,,,54,,,,,,,,,,,,,,362.082999994047,,response,,,,100,,,,,,,Space,keypress(Space),,,,,,,,-- --- ---- --- ------ ----- ------- ---- -- --- ------- --<br>------- ---------- ------ -- ----- -- ----- -- ---- ------<br>--- ----- --- --- ------ -------- ----- --- ------ ----- --<br>----- ----- ---------- --- --- ------ ------ ---- -- ------<br>------- --- ------ ----- --- ---- ------- -- ---- way --<br>------- ------,216798.19999998808,216791.59999999404,216412.851,216421,216429.517,216812.835,,52,way
screen,html.Screen,2_1_1_1_53,2022-02-02T16:21:56.266Z,,,,,,,,,,,,,,,,,54,,,,,,,,,,,,,,428.66500000000815,,response,,,,100,,,,,,,Space,keypress(Space),,,,,,,,-- --- ---- --- ------ ----- ------- ---- -- --- ------- --<br>------- ---------- ------ -- ----- -- ----- -- ---- ------<br>--- ----- --- --- ------ -------- ----- --- ------ ----- --<br>----- ----- ---------- --- --- ------ ------ ---- -- ------<br>------- --- ------ ----- --- ---- ------- -- ---- --- of<br>------- ------,217248,217241.5,216796.169,216798.39999997616,216812.835,217262.817,,53,of
screen,html.Screen,2_1_1_1_54,2022-02-02T16:21:56.739Z,,,,,,,,,,,,,,,,,54,,,,,,,,,,,,,,450.88299998806906,,response,,,,100,,,,,,,Space,keypress(Space),,,,,,,,-- --- ---- --- ------ ----- ------- ---- -- --- ------- --<br>------- ---------- ------ -- ----- -- ----- -- ---- ------<br>--- ----- --- --- ------ -------- ----- --- ------ ----- --<br>----- ----- ---------- --- --- ------ ------ ---- -- ------<br>------- --- ------ ----- --- ---- ------- -- ---- --- --<br>raising ------,217721.59999999404,217713.69999998808,217246.151,217248.19999998808,217262.817,217734.857,,54,raising
screen,html.Screen,2_1_1_1_55,2022-02-02T16:21:57.330Z,,,,,,,,,,,,,,,,,54,,,,,,,,,,,,,,570.84299998809,,response,,,,100,,,,,,,Space,keypress(Space),,,,,,,,-- --- ---- --- ------ ----- ------- ---- -- --- ------- --<br>------- ---------- ------ -- ----- -- ----- -- ---- ------<br>--- ----- --- --- ------ -------- ----- --- ------ ----- --<br>----- ----- ---------- --- --- ------ ------ ---- -- ------<br>------- --- ------ ----- --- ---- ------- -- ---- --- --<br>------- money.,218312.39999997616,218305.69999998808,217718.191,217721.69999998808,217734.857,218318.167,,55,money.
Item 100,flow.Loop,2_1_1_1,2022-02-02T16:21:57.330Z,,,,,,,,,,,,,,,,,,,,,,,,,,,,,,,31174.579999988084,,completion,,,,,D,,,,,,,,,,,silence,,,,,218312.69999998808,218305.69999998808,187114.454,187118,187131.12,218318.167,,,
Question 1,html.Screen,2_1_1_2,2022-02-02T16:21:59.589Z,,,,,,,,,,,,,,,,,,,,,,,,,,,,true,TRUE,,2248.5329999880923,,response,,,,100,D,,,,,,TRUE,click #choice-1,,,,silence,,,,,220571.09999999404,220566.69999998808,218301.501,218312.89999997616,218318.167,220584.743,,,
Question 2,html.Screen,2_1_1_3,2022-02-02T16:22:01.876Z,,,,,,,,,,,,,,,,,,,,,,,,,,,,true,FALSE,,2268.856999994052,,response,,,,100,D,,,,,,FALSE,click #choice-2,,,,silence,,,,,222858.09999999404,222853.59999999404,220568.077,220571.29999998212,220584.743,222884.651,,,
Item 100,flow.Sequence,2_1_1,2022-02-02T16:22:01.876Z,,,,,,,,,,,,,,,,,,,,,,,,,,,,,,,45725.758999994054,,completion,,,,,,,,,,,,,,,,,,,,,222858.19999998808,222853.59999999404,177111.175,177099.69999998808,177127.841,222884.651,,,
End of Practice,html.Page,2_1_2,2022-02-02T16:22:04.689Z,,,,,,,,,,,,,,,,,,,,,,,,,,,,,,,2785.948999994027,,form submission,,,,,,,,,,,,,,,,,,,,,225671.09999999404,225670.59999999404,222867.985,222858.39999997616,222884.651,225684.539,,,
Practice,flow.Sequence,2_1,2022-02-02T16:22:04.689Z,,,,,,,,,,,,,,,,,,,,,,,,,,,,,,,101557.00499999404,,completion,,,,,,,,,,,,,,,,,,,,,225671.39999997616,225670.59999999404,124096.929,124088.29999998212,124113.595,225684.539,,,
Trap_instruction,html.Page,2_2_0,2022-02-02T16:22:07.517Z,,,,,,,,,,,,,,,,,,,,,,,,,,,,,,,2814.56099999405,,form submission,,,,,,,,,,,,,,,,,,,,,228499.59999999404,228499.09999999404,225667.873,225671.59999999404,225684.539,228517.759,,,
trap_trial,html.Screen,2_2_1,2022-02-02T16:22:11.615Z,,,,,,,,,,,,,,,,,,,,,,,,,,,,true,1,,4074.940999988088,,response,,,,,,,,,,,1,click #choice-1,,,,,,,,,232597.19999998808,232592.69999998808,228501.093,228499.69999998808,228517.759,232612.279,,,
end of trap trial,html.Page,2_2_2,2022-02-02T16:22:12.787Z,,,,,,,,,,,,,,,,,,,,,,,,,,,,,,,1156.520999982109,,form submission,,,,,,,,,,,,,,,,,,,,,233769.19999998808,233768.79999998212,232595.613,232597.39999997616,232612.279,233778.899,,,
Trap 1,flow.Sequence,2_2,2022-02-02T16:22:12.787Z,,,,,,,,,,,,,,,,,,,,,,,,,,,,,,,8084.260999982129,,completion,,,,,,,,,,,,,,,,,,,,,233769.5,233768.79999998212,225667.873,225671.5,225684.539,233778.899,,,
Standby,html.Page,2_3_0,2022-02-02T16:22:20.783Z,,,,,,,,,,,,,,,,,,,,,,,,,,,,,,,7999.679999999993,,timeout,,,,,,,,,,,,,,,,,,,,,241764.79999998212,241761.913,233762.233,233769.59999999404,233778.899,241778.579,,,
Holding screen,html.Screen,2_3_1_0_0,2022-02-02T16:22:27.789Z,,,,,,,,,,,,,,,,,,,,,,,,,,,,,,,7007.467000000004,,timeout,,,,,,,,,,,,,,,,,,,,,248770.79999998212,248769.38,241761.913,241765,241778.579,248786.046,,,
screen,html.Screen,2_3_1_0_1_0,2022-02-02T16:22:28.929Z,,,,,,,,,,,,,,,,,11,,,,,,,,,,,,,,1115.5539999940374,,response,,,,4,D,,,,,,Space,keypress(Space),,,,silence,,,,Known -- ---- --- -- --- -------- ------------ ---------- --<br>- ------- ------ --------- -- ------------ -- --- ---- -----<br>------ ---- ---- ------ ------ ------- --- ----- ---------<br>---- --- -------- -------- --- --- -- ------- --- --- -----<br>-- --- ------ ------- --- --- -------- ---- --------- --<br>---------- -- -------- ----------------,249910.5,249901.59999999404,248769.38,248771.09999999404,248786.046,249919.334,,0,Known
screen,html.Screen,2_3_1_0_1_1,2022-02-02T16:22:29.265Z,,,,,,,,,,,,,,,,,11,,,,,,,,,,,,,,320.3659999880765,,response,,,,4,D,,,,,,Space,keypress(Space),,,,silence,,,,----- as ---- --- -- --- -------- ------------ ---------- --<br>- ------- ------ --------- -- ------------ -- --- ---- -----<br>------ ---- ---- ------ ------ ------- --- ----- ---------<br>---- --- -------- -------- --- --- -- ------- --- --- -----<br>-- --- ------ ------- --- --- -------- ---- --------- --<br>---------- -- -------- ----------------,250246.59999999404,250239.69999998808,249902.668,249910.59999999404,249919.334,250252.654,,1,as
screen,html.Screen,2_3_1_0_1_2,2022-02-02T16:22:29.658Z,,,,,,,,,,,,,,,,,11,,,,,,,,,,,,,,379.94599999403,,response,,,,4,D,,,,,,Space,keypress(Space),,,,silence,,,,----- -- Rapa --- -- --- -------- ------------ ---------- --<br>- ------- ------ --------- -- ------------ -- --- ---- -----<br>------ ---- ---- ------ ------ ------- --- ----- ---------<br>---- --- -------- -------- --- --- -- ------- --- --- -----<br>-- --- ------ ------- --- --- -------- ---- --------- --<br>---------- -- -------- ----------------,250639.29999998212,250632.59999999404,250235.988,250246.69999998808,250252.654,250652.638,,2,Rapa
screen,html.Screen,2_3_1_0_1_3,2022-02-02T16:22:30.090Z,,,,,,,,,,,,,,,,,11,,,,,,,,,,,,,,411.96199999403325,,response,,,,4,D,,,,,,Space,keypress(Space),,,,silence,,,,----- -- ---- Nui -- --- -------- ------------ ---------- --<br>- ------- ------ --------- -- ------------ -- --- ---- -----<br>------ ---- ---- ------ ------ ------- --- ----- ---------<br>---- --- -------- -------- --- --- -- ------- --- --- -----<br>-- --- ------ ------- --- --- -------- ---- --------- --<br>---------- -- -------- ----------------,251071.5,251064.59999999404,250635.972,250639.5,250652.638,251085.954,,3,Nui
screen,html.Screen,2_3_1_0_1_4,2022-02-02T16:22:30.547Z,,,,,,,,,,,,,,,,,11,,,,,,,,,,,,,,435.5460000000021,,response,,,,4,D,,,,,,Space,keypress(Space),,,,silence,,,,----- -- ---- --- to --- -------- ------------ ---------- --<br>- ------- ------ --------- -- ------------ -- --- ---- -----<br>------ ---- ---- ------ ------ ------- --- ----- ---------<br>---- --- -------- -------- --- --- -- ------- --- --- -----<br>-- --- ------ ------- --- --- -------- ---- --------- --<br>---------- -- -------- ----------------,251528.39999997616,251521.5,251069.288,251071.69999998808,251085.954,251535.936,,4,to
screen,html.Screen,2_3_1_0_1_5,2022-02-02T16:22:30.921Z,,,,,,,,,,,,,,,,,11,,,,,,,,,,,,,,359.6639999940526,,response,,,,4,D,,,,,,Space,keypress(Space),,,,silence,,,,----- -- ---- --- -- the -------- ------------ ---------- --<br>- ------- ------ --------- -- ------------ -- --- ---- -----<br>------ ---- ---- ------ ------ ------- --- ----- ---------<br>---- --- -------- -------- --- --- -- ------- --- --- -----<br>-- --- ------ ------- --- --- -------- ---- --------- --<br>---------- -- -------- ----------------,251902.39999997616,251895.59999999404,251519.27,251528.59999999404,251535.936,251919.254,,5,the
screen,html.Screen,2_3_1_0_1_6,2022-02-02T16:22:31.710Z,,,,,,,,,,,,,,,,,11,,,,,,,,,,,,,,764.2460000000137,,response,,,,4,D,,,,,,Space,keypress(Space),,,,silence,,,,----- -- ---- --- -- --- island's ------------ ---------- --<br>- ------- ------ --------- -- ------------ -- --- ---- -----<br>------ ---- ---- ------ ------ ------- --- ----- ---------<br>---- --- -------- -------- --- --- -- ------- --- --- -----<br>-- --- ------ ------- --- --- -------- ---- --------- --<br>---------- -- -------- ----------------,252691.19999998808,252683.5,251902.588,251902.5,251919.254,252702.556,,6,island's
screen,html.Screen,2_3_1_0_1_7,2022-02-02T16:22:32.943Z,,,,,,,,,,,,,,,,,11,,,,,,,,,,,,,,1214.9439999999886,,response,,,,4,D,,,,,,Space,keypress(Space),,,,silence,,,,"----- -- ---- --- -- --- -------- inhabitants, ---------- --<br>- ------- ------ --------- -- ------------ -- --- ---- -----<br>------ ---- ---- ------ ------ ------- --- ----- ---------<br>---- --- -------- -------- --- --- -- ------- --- --- -----<br>-- --- ------ ------- --- --- -------- ---- --------- --<br>---------- -- -------- ----------------",253924.19999998808,253917.5,252685.89,252691.39999997616,252702.556,253927.48,,7,"inhabitants,"
screen,html.Screen,2_3_1_0_1_8,2022-02-02T16:22:33.903Z,,,,,,,,,,,,,,,,,11,,,,,,,,,,,,,,950.0199999999895,,response,,,,4,D,,,,,,Space,keypress(Space),,,,silence,,,,----- -- ---- --- -- --- -------- ------------ Rongorongo --<br>- ------- ------ --------- -- ------------ -- --- ---- -----<br>------ ---- ---- ------ ------ ------- --- ----- ---------<br>---- --- -------- -------- --- --- -- ------- --- --- -----<br>-- --- ------ ------- --- --- -------- ---- --------- --<br>---------- -- -------- ----------------,254884.59999999404,254877.5,253910.814,253924.29999998212,253927.48,254894.108,,8,Rongorongo
screen,html.Screen,2_3_1_0_1_9,2022-02-02T16:22:34.293Z,,,,,,,,,,,,,,,,,11,,,,,,,,,,,,,,372.4919999940321,,response,,,,4,D,,,,,,Space,keypress(Space),,,,silence,,,,----- -- ---- --- -- --- -------- ------------ ---------- is<br>- ------- ------ --------- -- ------------ -- --- ---- -----<br>------ ---- ---- ------ ------ ------- --- ----- ---------<br>---- --- -------- -------- --- --- -- ------- --- --- -----<br>-- --- ------ ------- --- --- -------- ---- --------- --<br>---------- -- -------- ----------------,255274.19999998808,255266.59999999404,254877.442,254884.69999998808,254894.108,255277.426,,9,is
screen,html.Screen,2_3_1_0_1_10,2022-02-02T16:22:34.622Z,,,,,,,,,,,,,,,,,11,,,,,,,,,,,,,,318.9739999761514,,response,,,,4,D,,,,,,Space,keypress(Space),,,,silence,,,,----- -- ---- --- -- --- -------- ------------ ---------- --<br>a ------- ------ --------- -- ------------ -- --- ---- -----<br>------ ---- ---- ------ ------ ------- --- ----- ---------<br>---- --- -------- -------- --- --- -- ------- --- --- -----<br>-- --- ------ ------- --- --- -------- ---- --------- --<br>---------- -- -------- ----------------,255603.59999999404,255596.39999997616,255260.76,255274.29999998212,255277.426,255610.746,,10,a
screen,html.Screen,2_3_1_0_1_11,2022-02-02T16:22:35.033Z,,,,,,,,,,,,,,,,,11,,,,,,,,,,,,,,396.6539999761444,,response,,,,4,D,,,,,,Space,keypress(Space),,,,silence,,,,----- -- ---- --- -- --- -------- ------------ ---------- --<br>- writing ------ --------- -- ------------ -- --- ---- -----<br>------ ---- ---- ------ ------ ------- --- ----- ---------<br>---- --- -------- -------- --- --- -- ------- --- --- -----<br>-- --- ------ ------- --- --- -------- ---- --------- --<br>---------- -- -------- ----------------,256014.39999997616,256007.39999997616,255594.08,255603.69999998808,255610.746,256027.396,,11,writing
screen,html.Screen,2_3_1_0_1_12,2022-02-02T16:22:35.453Z,,,,,,,,,,,,,,,,,11,,,,,,,,,,,,,,400.0039999761502,,response,,,,4,D,,,,,,Space,keypress(Space),,,,silence,,,,----- -- ---- --- -- --- -------- ------------ ---------- --<br>- ------- system --------- -- ------------ -- --- ---- -----<br>------ ---- ---- ------ ------ ------- --- ----- ---------<br>---- --- -------- -------- --- --- -- ------- --- --- -----<br>-- --- ------ ------- --- --- -------- ---- --------- --<br>---------- -- -------- ----------------,256434.29999998212,256427.39999997616,256010.73,256014.5,256027.396,256444.046,,12,system
screen,html.Screen,2_3_1_0_1_13,2022-02-02T16:22:35.873Z,,,,,,,,,,,,,,,,,11,,,,,,,,,,,,,,403.35399997615605,,response,,,,4,D,,,,,,Space,keypress(Space),,,,silence,,,,----- -- ---- --- -- --- -------- ------------ ---------- --<br>- ------- ------ comprised -- ------------ -- --- ---- -----<br>------ ---- ---- ------ ------ ------- --- ----- ---------<br>---- --- -------- -------- --- --- -- ------- --- --- -----<br>-- --- ------ ------- --- --- -------- ---- --------- --<br>---------- -- -------- ----------------,256854.39999997616,256847.39999997616,256427.38,256434.5,256444.046,256860.696,,13,comprised
screen,html.Screen,2_3_1_0_1_14,2022-02-02T16:22:36.279Z,,,,,,,,,,,,,,,,,11,,,,,,,,,,,,,,392.70399997616187,,response,,,,4,D,,,,,,Space,keypress(Space),,,,silence,,,,----- -- ---- --- -- --- -------- ------------ ---------- --<br>- ------- ------ --------- of ------------ -- --- ---- -----<br>------ ---- ---- ------ ------ ------- --- ----- ---------<br>---- --- -------- -------- --- --- -- ------- --- --- -----<br>-- --- ------ ------- --- --- -------- ---- --------- --<br>---------- -- -------- ----------------,257259.89999997616,257253.39999997616,256844.03,256854.59999999404,256860.696,257277.346,,14,of
screen,html.Screen,2_3_1_0_1_15,2022-02-02T16:22:36.902Z,,,,,,,,,,,,,,,,,11,,,,,,,,,,,,,,601.7539999940491,,response,,,,4,D,,,,,,Space,keypress(Space),,,,silence,,,,----- -- ---- --- -- --- -------- ------------ ---------- --<br>- ------- ------ --------- -- pictographs. -- --- ---- -----<br>------ ---- ---- ------ ------ ------- --- ----- ---------<br>---- --- -------- -------- --- --- -- ------- --- --- -----<br>-- --- ------ ------- --- --- -------- ---- --------- --<br>---------- -- -------- ----------------,257883.19999998808,257879.09999999404,257260.68,257260.09999999404,257277.346,257893.988,,15,pictographs.
screen,html.Screen,2_3_1_0_1_16,2022-02-02T16:22:37.448Z,,,,,,,,,,,,,,,,,11,,,,,,,,,,,,,,529.211999988067,,response,,,,4,D,,,,,,Space,keypress(Space),,,,silence,,,,----- -- ---- --- -- --- -------- ------------ ---------- --<br>- ------- ------ --------- -- ------------ It --- ---- -----<br>------ ---- ---- ------ ------ ------- --- ----- ---------<br>---- --- -------- -------- --- --- -- ------- --- --- -----<br>-- --- ------ ------- --- --- -------- ---- --------- --<br>---------- -- -------- ----------------,258428.79999998212,258423.19999998808,257877.322,257883.19999998808,257893.988,258443.966,,16,It
screen,html.Screen,2_3_1_0_1_17,2022-02-02T16:22:37.716Z,,,,,,,,,,,,,,,,,11,,,,,,,,,,,,,,246.3339999821328,,response,,,,4,D,,,,,,Space,keypress(Space),,,,silence,,,,----- -- ---- --- -- --- -------- ------------ ---------- --<br>- ------- ------ --------- -- ------------ -- has ---- -----<br>------ ---- ---- ------ ------ ------- --- ----- ---------<br>---- --- -------- -------- --- --- -- ------- --- --- -----<br>-- --- ------ ------- --- --- -------- ---- --------- --<br>---------- -- -------- ----------------,258697.29999998212,258690.29999998212,258427.3,258428.89999997616,258443.966,258710.622,,17,has
screen,html.Screen,2_3_1_0_1_18,2022-02-02T16:22:37.998Z,,,,,,,,,,,,,,,,,11,,,,,,,,,,,,,,261.6779999821156,,response,,,,4,D,,,,,,Space,keypress(Space),,,,silence,,,,----- -- ---- --- -- --- -------- ------------ ---------- --<br>- ------- ------ --------- -- ------------ -- --- been -----<br>------ ---- ---- ------ ------ ------- --- ----- ---------<br>---- --- -------- -------- --- --- -- ------- --- --- -----<br>-- --- ------ ------- --- --- -------- ---- --------- --<br>---------- -- -------- ----------------,258979.09999999404,258972.29999998212,258693.956,258697.5,258710.622,258993.944,,18,been
screen,html.Screen,2_3_1_0_1_19,2022-02-02T16:22:38.386Z,,,,,,,,,,,,,,,,,11,,,,,,,,,,,,,,366.35599998213,,response,,,,4,D,,,,,,Space,keypress(Space),,,,silence,,,,----- -- ---- --- -- --- -------- ------------ ---------- --<br>- ------- ------ --------- -- ------------ -- --- ---- found<br>------ ---- ---- ------ ------ ------- --- ----- ---------<br>---- --- -------- -------- --- --- -- ------- --- --- -----<br>-- --- ------ ------- --- --- -------- ---- --------- --<br>---------- -- -------- ----------------,259367.29999998212,259360.29999998212,258977.278,258979.29999998212,258993.944,259377.262,,19,found
screen,html.Screen,2_3_1_0_1_20,2022-02-02T16:22:38.798Z,,,,,,,,,,,,,,,,,11,,,,,,,,,,,,,,395.0379999821307,,response,,,,4,D,,,,,,Space,keypress(Space),,,,silence,,,,----- -- ---- --- -- --- -------- ------------ ---------- --<br>- ------- ------ --------- -- ------------ -- --- ---- -----<br>carved ---- ---- ------ ------ ------- --- ----- ---------<br>---- --- -------- -------- --- --- -- ------- --- --- -----<br>-- --- ------ ------- --- --- -------- ---- --------- --<br>---------- -- -------- ----------------,259779.09999999404,259772.29999998212,259360.596,259367.5,259377.262,259793.912,,20,carved
screen,html.Screen,2_3_1_0_1_21,2022-02-02T16:22:39.320Z,,,,,,,,,,,,,,,,,11,,,,,,,,,,,,,,499.38799998210743,,response,,,,4,D,,,,,,Space,keypress(Space),,,,silence,,,,----- -- ---- --- -- --- -------- ------------ ---------- --<br>- ------- ------ --------- -- ------------ -- --- ---- -----<br>------ into ---- ------ ------ ------- --- ----- ---------<br>---- --- -------- -------- --- --- -- ------- --- --- -----<br>-- --- ------ ------- --- --- -------- ---- --------- --<br>---------- -- -------- ----------------,260301.29999998212,260293.29999998212,259777.246,259779.29999998212,259793.912,260310.558,,21,into
screen,html.Screen,2_3_1_0_1_22,2022-02-02T16:22:39.753Z,,,,,,,,,,,,,,,,,11,,,,,,,,,,,,,,416.54199999404955,,response,,,,4,D,,,,,,Space,keypress(Space),,,,silence,,,,----- -- ---- --- -- --- -------- ------------ ---------- --<br>- ------- ------ --------- -- ------------ -- --- ---- -----<br>------ ---- many ------ ------ ------- --- ----- ---------<br>---- --- -------- -------- --- --- -- ------- --- --- -----<br>-- --- ------ ------- --- --- -------- ---- --------- --<br>---------- -- -------- ----------------,260733.89999997616,260727.09999999404,260293.892,260301.5,260310.558,260743.874,,22,many
screen,html.Screen,2_3_1_0_1_23,2022-02-02T16:22:40.221Z,,,,,,,,,,,,,,,,,11,,,,,,,,,,,,,,451.4259999821079,,response,,,,4,D,,,,,,Space,keypress(Space),,,,silence,,,,----- -- ---- --- -- --- -------- ------------ ---------- --<br>- ------- ------ --------- -- ------------ -- --- ---- -----<br>------ ---- ---- oblong ------ ------- --- ----- ---------<br>---- --- -------- -------- --- --- -- ------- --- --- -----<br>-- --- ------ ------- --- --- -------- ---- --------- --<br>---------- -- -------- ----------------,261202.09999999404,261195.29999998212,260727.208,260734.09999999404,260743.874,261210.522,,23,oblong
screen,html.Screen,2_3_1_0_1_24,2022-02-02T16:22:40.747Z,,,,,,,,,,,,,,,,,11,,,,,,,,,,,,,,509.7779999821214,,response,,,,4,D,,,,,,Space,keypress(Space),,,,silence,,,,----- -- ---- --- -- --- -------- ------------ ---------- --<br>- ------- ------ --------- -- ------------ -- --- ---- -----<br>------ ---- ---- ------ wooden ------- --- ----- ---------<br>---- --- -------- -------- --- --- -- ------- --- --- -----<br>-- --- ------ ------- --- --- -------- ---- --------- --<br>---------- -- -------- ----------------,261728,261720.29999998212,261193.856,261202.19999998808,261210.522,261743.834,,24,wooden
screen,html.Screen,2_3_1_0_1_25,2022-02-02T16:22:41.289Z,,,,,,,,,,,,,,,,,11,,,,,,,,,,,,,,519.3659999880765,,response,,,,4,D,,,,,,Space,keypress(Space),,,,silence,,,,----- -- ---- --- -- --- -------- ------------ ---------- --<br>- ------- ------ --------- -- ------------ -- --- ---- -----<br>------ ---- ---- ------ ------ tablets --- ----- ---------<br>---- --- -------- -------- --- --- -- ------- --- --- -----<br>-- --- ------ ------- --- --- -------- ---- --------- --<br>---------- -- -------- ----------------,262270.09999999404,262263.1999999881,261727.168,261728.19999998808,261743.834,262277.146,,25,tablets
screen,html.Screen,2_3_1_0_1_26,2022-02-02T16:22:41.719Z,,,,,,,,,,,,,,,,,11,,,,,,,,,,,,,,416.05399998807115,,response,,,,4,D,,,,,,Space,keypress(Space),,,,silence,,,,----- -- ---- --- -- --- -------- ------------ ---------- --<br>- ------- ------ --------- -- ------------ -- --- ---- -----<br>------ ---- ---- ------ ------ ------- and ----- ---------<br>---- --- -------- -------- --- --- -- ------- --- --- -----<br>-- --- ------ ------- --- --- -------- ---- --------- --<br>---------- -- -------- ----------------,262699.7999999821,262693.1999999881,262260.48,262270.2999999821,262277.146,262710.462,,26,and
screen,html.Screen,2_3_1_0_1_27,2022-02-02T16:22:42.164Z,,,,,,,,,,,,,,,,,11,,,,,,,,,,,,,,427.73799998807954,,response,,,,4,D,,,,,,Space,keypress(Space),,,,silence,,,,----- -- ---- --- -- --- -------- ------------ ---------- --<br>- ------- ------ --------- -- ------------ -- --- ---- -----<br>------ ---- ---- ------ ------ ------- --- other ---------<br>---- --- -------- -------- --- --- -- ------- --- --- -----<br>-- --- ------ ------- --- --- -------- ---- --------- --<br>---------- -- -------- ----------------,263145.39999997616,263138.1999999881,262693.796,262700,262710.462,263153.03,,27,other
screen,html.Screen,2_3_1_0_1_28,2022-02-02T16:22:42.923Z,,,,,,,,,,,,,,,,,11,,,,,,,,,,,,,,743.9699999999721,,response,,,,4,D,,,,,,Space,keypress(Space),,,,silence,,,,----- -- ---- --- -- --- -------- ------------ ---------- --<br>- ------- ------ --------- -- ------------ -- --- ---- -----<br>------ ---- ---- ------ ------ ------- --- ----- artifacts<br>---- --- -------- -------- --- --- -- ------- --- --- -----<br>-- --- ------ ------- --- --- -------- ---- --------- --<br>---------- -- -------- ----------------,263903.7999999821,263897,263136.364,263146.39999997616,263153.03,263919.666,,28,artifacts
screen,html.Screen,2_3_1_0_1_29,2022-02-02T16:22:43.373Z,,,,,,,,,,,,,,,,,11,,,,,,,,,,,,,,427.433999994013,,response,,,,4,D,,,,,,Space,keypress(Space),,,,silence,,,,----- -- ---- --- -- --- -------- ------------ ---------- --<br>- ------- ------ --------- -- ------------ -- --- ---- -----<br>------ ---- ---- ------ ------ ------- --- ----- ---------<br>from --- -------- -------- --- --- -- ------- --- --- -----<br>-- --- ------ ------- --- --- -------- ---- --------- --<br>---------- -- -------- ----------------,264354.09999999404,264347.09999999404,263903,263903.89999997616,263919.666,264369.648,,29,from
screen,html.Screen,2_3_1_0_1_30,2022-02-02T16:22:43.783Z,,,,,,,,,,,,,,,,,11,,,,,,,,,,,,,,387.45199999405304,,response,,,,4,D,,,,,,Space,keypress(Space),,,,silence,,,,----- -- ---- --- -- --- -------- ------------ ---------- --<br>- ------- ------ --------- -- ------------ -- --- ---- -----<br>------ ---- ---- ------ ------ ------- --- ----- ---------<br>---- the -------- -------- --- --- -- ------- --- --- -----<br>-- --- ------ ------- --- --- -------- ---- --------- --<br>---------- -- -------- ----------------,264763.7999999821,264757.09999999404,264352.982,264354.2999999821,264369.648,264769.632,,30,the
screen,html.Screen,2_3_1_0_1_31,2022-02-02T16:22:44.236Z,,,,,,,,,,,,,,,,,11,,,,,,,,,,,,,,440.56799998809583,,response,,,,4,D,,,,,,Space,keypress(Space),,,,silence,,,,----- -- ---- --- -- --- -------- ------------ ---------- --<br>- ------- ------ --------- -- ------------ -- --- ---- -----<br>------ ---- ---- ------ ------ ------- --- ----- ---------<br>---- --- island's -------- --- --- -- ------- --- --- -----<br>-- --- ------ ------- --- --- -------- ---- --------- --<br>---------- -- -------- ----------------,265217,265210.1999999881,264752.966,264764.09999999404,264769.632,265219.614,,31,island's
screen,html.Screen,2_3_1_0_1_32,2022-02-02T16:22:45.293Z,,,,,,,,,,,,,,,,,11,,,,,,,,,,,,,,1046.6859999821172,,response,,,,4,D,,,,,,Space,keypress(Space),,,,silence,,,,----- -- ---- --- -- --- -------- ------------ ---------- --<br>- ------- ------ --------- -- ------------ -- --- ---- -----<br>------ ---- ---- ------ ------ ------- --- ----- ---------<br>---- --- -------- history. --- --- -- ------- --- --- -----<br>-- --- ------ ------- --- --- -------- ---- --------- --<br>---------- -- -------- ----------------,266274.2999999821,266266.2999999821,265202.948,265217.1999999881,265219.614,266286.238,,32,history.
screen,html.Screen,2_3_1_0_1_33,2022-02-02T16:22:45.785Z,,,,,,,,,,,,,,,,,11,,,,,,,,,,,,,,472.8619999940274,,response,,,,4,D,,,,,,Space,keypress(Space),,,,silence,,,,----- -- ---- --- -- --- -------- ------------ ---------- --<br>- ------- ------ --------- -- ------------ -- --- ---- -----<br>------ ---- ---- ------ ------ ------- --- ----- ---------<br>---- --- -------- -------- The --- -- ------- --- --- -----<br>-- --- ------ ------- --- --- -------- ---- --------- --<br>---------- -- -------- ----------------,266766.1999999881,266759.09999999404,266269.572,266274.39999997616,266286.238,266769.552,,33,The
screen,html.Screen,2_3_1_0_1_34,2022-02-02T16:22:46.213Z,,,,,,,,,,,,,,,,,11,,,,,,,,,,,,,,417.44799999997485,,response,,,,4,D,,,,,,Space,keypress(Space),,,,silence,,,,----- -- ---- --- -- --- -------- ------------ ---------- --<br>- ------- ------ --------- -- ------------ -- --- ---- -----<br>------ ---- ---- ------ ------ ------- --- ----- ---------<br>---- --- -------- -------- --- art -- ------- --- --- -----<br>-- --- ------ ------- --- --- -------- ---- --------- --<br>---------- -- -------- ----------------,267194.1999999881,267187,266752.886,266766.39999997616,266769.552,267202.868,,34,art
screen,html.Screen,2_3_1_0_1_35,2022-02-02T16:22:46.625Z,,,,,,,,,,,,,,,,,11,,,,,,,,,,,,,,395.93199998210184,,response,,,,4,D,,,,,,Space,keypress(Space),,,,silence,,,,----- -- ---- --- -- --- -------- ------------ ---------- --<br>- ------- ------ --------- -- ------------ -- --- ---- -----<br>------ ---- ---- ------ ------ ------- --- ----- ---------<br>---- --- -------- -------- --- --- of ------- --- --- -----<br>-- --- ------ ------- --- --- -------- ---- --------- --<br>---------- -- -------- ----------------,267606.39999997616,267598.7999999821,267186.202,267194.1999999881,267202.868,267619.518,,35,of
screen,html.Screen,2_3_1_0_1_36,2022-02-02T16:22:47.123Z,,,,,,,,,,,,,,,,,11,,,,,,,,,,,,,,463.18199998809723,,response,,,,4,D,,,,,,Space,keypress(Space),,,,silence,,,,----- -- ---- --- -- --- -------- ------------ ---------- --<br>- ------- ------ --------- -- ------------ -- --- ---- -----<br>------ ---- ---- ------ ------ ------- --- ----- ---------<br>---- --- -------- -------- --- --- -- writing --- --- -----<br>-- --- ------ ------- --- --- -------- ---- --------- --<br>---------- -- -------- ----------------,268103.7999999821,268082.6999999881,267602.852,267606.5,267619.518,268119.498,,36,writing
screen,html.Screen,2_3_1_0_1_37,2022-02-02T16:22:47.623Z,,,,,,,,,,,,,,,,,11,,,,,,,,,,,,,,480.9019999761367,,response,,,,4,D,,,,,,Space,keypress(Space),,,,silence,,,,----- -- ---- --- -- --- -------- ------------ ---------- --<br>- ------- ------ --------- -- ------------ -- --- ---- -----<br>------ ---- ---- ------ ------ ------- --- ----- ---------<br>---- --- -------- -------- --- --- -- ------- was --- -----<br>-- --- ------ ------- --- --- -------- ---- --------- --<br>---------- -- -------- ----------------,268604,268600.39999997616,268102.832,268103.7999999821,268119.498,268619.478,,37,was
screen,html.Screen,2_3_1_0_1_38,2022-02-02T16:22:48.042Z,,,,,,,,,,,,,,,,,11,,,,,,,,,,,,,,395.42199997615535,,response,,,,4,D,,,,,,Space,keypress(Space),,,,silence,,,,----- -- ---- --- -- --- -------- ------------ ---------- --<br>- ------- ------ --------- -- ------------ -- --- ---- -----<br>------ ---- ---- ------ ------ ------- --- ----- ---------<br>---- --- -------- -------- --- --- -- ------- --- not -----<br>-- --- ------ ------- --- --- -------- ---- --------- --<br>---------- -- -------- ----------------,269022.5,269014.89999997616,268602.812,268604,268619.478,269036.128,,38,not
screen,html.Screen,2_3_1_0_1_39,2022-02-02T16:22:48.466Z,,,,,,,,,,,,,,,,,11,,,,,,,,,,,,,,403.77199997613207,,response,,,,4,D,,,,,,Space,keypress(Space),,,,silence,,,,----- -- ---- --- -- --- -------- ------------ ---------- --<br>- ------- ------ --------- -- ------------ -- --- ---- -----<br>------ ---- ---- ------ ------ ------- --- ----- ---------<br>---- --- -------- -------- --- --- -- ------- --- --- known<br>-- --- ------ ------- --- --- -------- ---- --------- --<br>---------- -- -------- ----------------,269446.7999999821,269439.89999997616,269019.462,269022.6999999881,269036.128,269452.778,,39,known
