sender,sender_type,sender_id,timestamp,meta,,Blues,Classical,Country,Dance,Electronic,Folk,Gospel,Hip-Hop,Jazz,Latin,Musical/Film,New-age,Pop,Prolific_id,Provo_ID,R&B,Rap,Reggae,Religious,Rock,Soul,Swing,Traditional,age,artist_name,correct,correctResponse,distraction,duration,education,ended_on,familiarity,gender,headphone_check_performance,item,list,music_frequency,offensiveness,pleasantness,position_correct,preference,response,response_action,snippet_file,song_name,song_rating,sound,stimulus_1,stimulus_2,stimulus_3,text,time_commit,time_end,time_render,time_run,time_show,time_switch,url,word,word_ID
Prolific ID,html.Form,0,2022-02-15T14:06:19.704Z,"{""labjs_version"":""20.2.2"",""labjs_build"":{""flavor"":""production"",""commit"":""a25486e0c714a0ae2ce03ff94b7bb6896854dcfa""},""location"":""https://run.pavlovia.org/mvasilev/prolific2_music_f/"",""userAgent"":""Mozilla/5.0 (Windows NT 10.0; Win64; x64; rv:96.0) Gecko/20100101 Firefox/96.0"",""platform"":""Win32"",""language"":""en-GB"",""locale"":""en-GB"",""timeZone"":""Europe/London"",""timezoneOffset"":0,""screen_width"":1280,""screen_height"":720,""scroll_width"":1280,""scroll_height"":531,""window_innerWidth"":1280,""window_innerHeight"":531,""devicePixelRatio"":1.5}",,,,,,,,,,,,,,,611d0c81b724fc22874aea50,,,,,,,,,,,,,,,5337,,form submission,,,,,,,,,,,,,,,,,,,,,27019,27018,21680.7,21680,21681,27030.74,{},,
Introduction,html.Screen,1_0,2022-02-15T14:07:49.085Z,,,,,,,,,,,,,,,,,,,,,,,,,,,,,,,89343.26,,response,,,,,,,,,,,continue,click button,,,,,,,,,116401,116374,26997.86,27021,27030.74,116415.56,,,
Volume calibration,html.Screen,1_1,2022-02-15T14:08:20.059Z,,,,,,,,,,,,,,,,,,,,,,,,,,,,,,,30944.440000000002,,response,,,,,,,,,,,continue,click button,,,,,,,,,147375,147360,116392.66,116407,116415.56,147382.84,,,
Task instructions,html.Screen,1_2,2022-02-15T14:08:30.241Z,,,,,,,,,,,,,,,,,,,,,,,,,,,,,,,10163.160000000003,,response,,,,,,,,,,,continue,click button,,,,,,,,,157556,157546,147372.26,147377,147382.84,157566.24,,,
Sounds,html.Screen,1_3_0_0,2022-02-15T14:08:34.487Z,,,,,,,,,,,,,,,,,,,,,,,,,,,,,,,4250.100000000006,,timeout,,,,,,,,,1,,,,,,,,S,O,I,,161802,161799.68,157554.54,157558,157566.24,161816.34,,,
Judgement,html.Screen,1_3_0_1,2022-02-15T14:08:39.781Z,,,,,,,,,,,,,,,,,,,,,,,,,,,,true,1,,5262.6600000000035,,response,,,,,,,,,1,,1,click #choice-1,,,,,S,O,I,,167096,167079,161799.68,161804,161816.34,167099.72,,,
Trial,flow.Sequence,1_3_0,2022-02-15T14:08:39.783Z,,,,,,,,,,,,,,,,,,,,,,,,,,,,,,,9512.76000000001,,completion,,,,,,,,,1,,,,,,,,S,O,I,,167098,167079,157554.54,157557,157566.24,167099.72,,,
Sounds,html.Screen,1_3_1_0,2022-02-15T14:08:44.019Z,,,,,,,,,,,,,,,,,,,,,,,,,,,,,,,4250.100000000006,,timeout,,,,,,,,,3,,,,,,,,O,I,S,,171335,171333.18,167094.68,167100,167099.72,171349.82,,,
Judgement,html.Screen,1_3_1_1,2022-02-15T14:08:45.360Z,,,,,,,,,,,,,,,,,,,,,,,,,,,,true,3,,1307.179999999993,,response,,,,,,,,,3,,3,click #choice-3,,,,,O,I,S,,172676,172657,171333.18,171338,171349.82,172683.2,,,
Trial,flow.Sequence,1_3_1,2022-02-15T14:08:45.362Z,,,,,,,,,,,,,,,,,,,,,,,,,,,,,,,5557.279999999999,,completion,,,,,,,,,3,,,,,,,,O,I,S,,172677,172657,167094.68,167099,167099.72,172683.2,,,
Sounds,html.Screen,1_3_2_0,2022-02-15T14:08:49.605Z,,,,,,,,,,,,,,,,,,,,,,,,,,,,,,,4250.0199999999895,,timeout,,,,,,,,,3,,,,,,,,I,O,S,,176920,176916.6,172673.94,172678,172683.2,176933.22,,,
Judgement,html.Screen,1_3_2_1,2022-02-15T14:08:51.803Z,,,,,,,,,,,,,,,,,,,,,,,,,,,,true,3,,2176.779999999999,,response,,,,,,,,,3,,3,click #choice-3,,,,,I,O,S,,179118,179110,176916.6,176921,176933.22,179116.54,,,
Trial,flow.Sequence,1_3_2,2022-02-15T14:08:51.804Z,,,,,,,,,,,,,,,,,,,,,,,,,,,,,,,6426.799999999988,,completion,,,,,,,,,3,,,,,,,,I,O,S,,179120,179110,172673.94,172678,172683.2,179116.54,,,
Sounds,html.Screen,1_3_3_0,2022-02-15T14:08:56.036Z,,,,,,,,,,,,,,,,,,,,,,,,,,,,,,,4250.179999999993,,timeout,,,,,,,,,1,,,,,,,,S,I,O,,183352,183350.04,179116.12,179121,179116.54,183366.72,,,
Judgement,html.Screen,1_3_3_1,2022-02-15T14:08:57.352Z,,,,,,,,,,,,,,,,,,,,,,,,,,,,true,1,,1289.2799999999988,,response,,,,,,,,,1,,1,click #choice-1,,,,,S,I,O,,184668,184656,183350.04,183352,183366.72,184683.26,,,
Trial,flow.Sequence,1_3_3,2022-02-15T14:08:57.353Z,,,,,,,,,,,,,,,,,,,,,,,,,,,,,,,5539.459999999992,,completion,,,,,,,,,1,,,,,,,,S,I,O,,184669,184656,179116.12,179121,179116.54,184683.26,,,
Sounds,html.Screen,1_3_4_0,2022-02-15T14:09:01.602Z,,,,,,,,,,,,,,,,,,,,,,,,,,,,,,,4250.1600000000035,,timeout,,,,,,,,,2,,,,,,,,O,S,I,,188919,188916.76,184666.7,184670,184683.26,188933.42,,,
Judgement,html.Screen,1_3_4_1,2022-02-15T14:09:02.631Z,,,,,,,,,,,,,,,,,,,,,,,,,,,,true,2,,1004.5799999999872,,response,,,,,,,,,2,,2,click #choice-2,,,,,O,S,I,,189947,189938,188916.76,188920,188933.42,189950.14,,,
Trial,flow.Sequence,1_3_4,2022-02-15T14:09:02.632Z,,,,,,,,,,,,,,,,,,,,,,,,,,,,,,,5254.739999999991,,completion,,,,,,,,,2,,,,,,,,O,S,I,,189947,189938,184666.7,184670,184683.26,189950.14,,,
Sounds,html.Screen,1_3_5_0,2022-02-15T14:09:06.870Z,,,,,,,,,,,,,,,,,,,,,,,,,,,,,,,4250.039999999979,,timeout,,,,,,,,,2,,,,,,,,I,S,O,,194185,194183.52,189945.36,189948,189950.14,194200.18,,,
Judgement,html.Screen,1_3_5_1,2022-02-15T14:09:07.761Z,,,,,,,,,,,,,,,,,,,,,,,,,,,,true,2,,862.820000000007,,response,,,,,,,,,2,,2,click #choice-2,,,,,I,S,O,,195077,195063,194183.52,194186,194200.18,195100.12,,,
Trial,flow.Sequence,1_3_5,2022-02-15T14:09:07.761Z,,,,,,,,,,,,,,,,,,,,,,,,,,,,,,,5112.859999999986,,completion,,,,,,,,,2,,,,,,,,I,S,O,,195077,195063,189945.36,189948,189950.14,195100.12,,,
Task,flow.Loop,1_3,2022-02-15T14:09:07.764Z,,,,,,,,,,,,,,,,,,,,,,,,,,,,,,,37496.76000000001,,completion,,,1,,,,,,,,,,,,,,,,,,195079,195063,157554.54,157557,157566.24,195100.12,,,
Trap,html.Screen,1_4,2022-02-15T14:09:07.771Z,,,,,,,,,,,,,,,,,,,,,,,,,,,,,,,NaN,,skipped,,,,,,,,,,,,,,,,,,,,,195085,195063,,195085,,195100.12,,,
Thanks,html.Screen,1_5,2022-02-15T14:09:18.276Z,,,,,,,,,,,,,,,,,,,,,,,,,,,,,,,10478.880000000005,,response,,,,,,,,,,,continue,click button,,,,,,,,,205591,205579,195075.24,195086,195100.12,219883.9,,,
Headphone screening,flow.Sequence,1,2022-02-15T14:09:18.277Z,,,,,,,,,,,,,,,,,,,,,,,,,,,,,,,178548.26,,completion,,,,,,,,,,,,,,,,,,,,,205592,205579,26997.86,27021,27030.74,219883.9,,,
Instructions,html.Page,2_0,2022-02-15T14:09:58.907Z,,,,,,,,,,,,,,,,,,,,,,,,,,,,,,,26338.100000000006,,form submission,,,,,,,,,,,,,,,,,,,,,246223,246222,219869.08,219872,219883.9,246217.74,,,
Holding screen,html.Screen,2_1_0_0,2022-02-15T14:10:08.887Z,,,,,,,,,,,,,,,,,,,,,,,,,,,,,,,10000.180000000022,,timeout,,,,,,,,,,,,,,,,,,,,,256203,256201.32,246216.78,246223,246217.74,256217.92,,,
screen,html.Screen,2_1_0_1_0,2022-02-15T14:10:10.952Z,,,,,,,,,,,,,,,,,53,,,,,,,,,,,,,,2032.0799999999872,,response,,,,99,,,,,,,Space,keypress(Space),,,,,,,,When -- ----- -- ------ - ------- --- ----------<br>------------- ------ ------ ---- ---- ------- ----- -- ----<br>-------- ------- -- ---------- --- - --- ----- ----- ----<br>---- --- --- ----- --- ---- ---- ------- ----- ---- -------<br>--- --- -- ----- -- --- ---- -- --- ---- -- ------ ------<br>--- ----- -- ----,258268,258250,256201.32,256204,256217.92,258268.6,,0,When
screen,html.Screen,2_1_0_1_1,2022-02-15T14:10:11.585Z,,,,,,,,,,,,,,,,,53,,,,,,,,,,,,,,622.3999999999942,,response,,,,99,,,,,,,Space,keypress(Space),,,,,,,,---- it ----- -- ------ - ------- --- ----------<br>------------- ------ ------ ---- ---- ------- ----- -- ----<br>-------- ------- -- ---------- --- - --- ----- ----- ----<br>---- --- --- ----- --- ---- ---- ------- ----- ---- -------<br>--- --- -- ----- -- --- ---- -- --- ---- -- ------ ------<br>--- ----- -- ----,258901,258891,258268.2,258268,258268.6,258901.62,,1,it
screen,html.Screen,2_1_0_1_2,2022-02-15T14:10:12.032Z,,,,,,,,,,,,,,,,,53,,,,,,,,,,,,,,442.38000000000466,,response,,,,99,,,,,,,Space,keypress(Space),,,,,,,,---- -- comes -- ------ - ------- --- ----------<br>------------- ------ ------ ---- ---- ------- ----- -- ----<br>-------- ------- -- ---------- --- - --- ----- ----- ----<br>---- --- --- ----- --- ---- ---- ------- ----- ---- -------<br>--- --- -- ----- -- --- ---- -- --- ---- -- ------ ------<br>--- ----- -- ----,259348,259344,258901.18,258901,258901.62,259348.5,,2,comes
screen,html.Screen,2_1_0_1_3,2022-02-15T14:10:12.467Z,,,,,,,,,,,,,,,,,53,,,,,,,,,,,,,,417.5,,response,,,,99,,,,,,,Space,keypress(Space),,,,,,,,---- -- ----- to ------ - ------- --- ----------<br>------------- ------ ------ ---- ---- ------- ----- -- ----<br>-------- ------- -- ---------- --- - --- ----- ----- ----<br>---- --- --- ----- --- ---- ---- ------- ----- ---- -------<br>--- --- -- ----- -- --- ---- -- --- ---- -- ------ ------<br>--- ----- -- ----,259783,259766,259348.24,259349,259348.5,259783.78,,3,to
screen,html.Screen,2_1_0_1_4,2022-02-15T14:10:12.967Z,,,,,,,,,,,,,,,,,53,,,,,,,,,,,,,,482.22000000000116,,response,,,,99,,,,,,,Space,keypress(Space),,,,,,,,---- -- ----- -- having - ------- --- ----------<br>------------- ------ ------ ---- ---- ------- ----- -- ----<br>-------- ------- -- ---------- --- - --- ----- ----- ----<br>---- --- --- ----- --- ---- ---- ------- ----- ---- -------<br>--- --- -- ----- -- --- ---- -- --- ---- -- ------ ------<br>--- ----- -- ----,260282,260266,259783.54,259784,259783.78,260282.96,,4,having
screen,html.Screen,2_1_0_1_5,2022-02-15T14:10:13.459Z,,,,,,,,,,,,,,,,,53,,,,,,,,,,,,,,482.04000000000815,,response,,,,99,,,,,,,Space,keypress(Space),,,,,,,,---- -- ----- -- ------ a ------- --- ----------<br>------------- ------ ------ ---- ---- ------- ----- -- ----<br>-------- ------- -- ---------- --- - --- ----- ----- ----<br>---- --- --- ----- --- ---- ---- ------- ----- ---- -------<br>--- --- -- ----- -- --- ---- -- --- ---- -- ------ ------<br>--- ----- -- ----,260774,260765,260282.68,260282,260282.96,260775.02,,5,a
screen,html.Screen,2_1_0_1_6,2022-02-15T14:10:13.803Z,,,,,,,,,,,,,,,,,53,,,,,,,,,,,,,,333.9800000000105,,response,,,,99,,,,,,,Space,keypress(Space),,,,,,,,---- -- ----- -- ------ - lasting --- ----------<br>------------- ------ ------ ---- ---- ------- ----- -- ----<br>-------- ------- -- ---------- --- - --- ----- ----- ----<br>---- --- --- ----- --- ---- ---- ------- ----- ---- -------<br>--- --- -- ----- -- --- ---- -- --- ---- -- ------ ------<br>--- ----- -- ----,261119,261109,260774.78,260774,260775.02,261119.98,,6,lasting
screen,html.Screen,2_1_0_1_7,2022-02-15T14:10:14.180Z,,,,,,,,,,,,,,,,,53,,,,,,,,,,,,,,365.0199999999895,,response,,,,99,,,,,,,Space,keypress(Space),,,,,,,,---- -- ----- -- ------ - ------- and ----------<br>------------- ------ ------ ---- ---- ------- ----- -- ----<br>-------- ------- -- ---------- --- - --- ----- ----- ----<br>---- --- --- ----- --- ---- ---- ------- ----- ---- -------<br>--- --- -- ----- -- --- ---- -- --- ---- -- ------ ------<br>--- ----- -- ----,261495,261485,261119.52,261120,261119.98,261496.36,,7,and
screen,html.Screen,2_1_0_1_8,2022-02-15T14:10:14.714Z,,,,,,,,,,,,,,,,,53,,,,,,,,,,,,,,519.640000000014,,response,,,,99,,,,,,,Space,keypress(Space),,,,,,,,---- -- ----- -- ------ - ------- --- fulfilling<br>------------- ------ ------ ---- ---- ------- ----- -- ----<br>-------- ------- -- ---------- --- - --- ----- ----- ----<br>---- --- --- ----- --- ---- ---- ------- ----- ---- -------<br>--- --- -- ----- -- --- ---- -- --- ---- -- ------ ------<br>--- ----- -- ----,262029,262016,261495.92,261496,261496.36,262030.64,,8,fulfilling
screen,html.Screen,2_1_0_1_9,2022-02-15T14:10:15.142Z,,,,,,,,,,,,,,,,,53,,,,,,,,,,,,,,406.35999999998603,,response,,,,99,,,,,,,Space,keypress(Space),,,,,,,,"---- -- ----- -- ------ - ------- --- ----------<br>relationship, ------ ------ ---- ---- ------- ----- -- ----<br>-------- ------- -- ---------- --- - --- ----- ----- ----<br>---- --- --- ----- --- ---- ---- ------- ----- ---- -------<br>--- --- -- ----- -- --- ---- -- --- ---- -- ------ ------<br>--- ----- -- ----",262457,262437,262030.2,262030,262030.64,262458.28,,9,"relationship,"
screen,html.Screen,2_1_0_1_10,2022-02-15T14:10:15.494Z,,,,,,,,,,,,,,,,,53,,,,,,,,,,,,,,338.71999999997206,,response,,,,99,,,,,,,Space,keypress(Space),,,,,,,,---- -- ----- -- ------ - ------- --- ----------<br>------------- common ------ ---- ---- ------- ----- -- ----<br>-------- ------- -- ---------- --- - --- ----- ----- ----<br>---- --- --- ----- --- ---- ---- ------- ----- ---- -------<br>--- --- -- ----- -- --- ---- -- --- ---- -- ------ ------<br>--- ----- -- ----,262810,262797,262457.74,262458,262458.28,262810.6,,10,common
screen,html.Screen,2_1_0_1_11,2022-02-15T14:10:15.884Z,,,,,,,,,,,,,,,,,53,,,,,,,,,,,,,,377.4000000000233,,response,,,,99,,,,,,,Space,keypress(Space),,,,,,,,---- -- ----- -- ------ - ------- --- ----------<br>------------- ------ wisdom ---- ---- ------- ----- -- ----<br>-------- ------- -- ---------- --- - --- ----- ----- ----<br>---- --- --- ----- --- ---- ---- ------- ----- ---- -------<br>--- --- -- ----- -- --- ---- -- --- ---- -- ------ ------<br>--- ----- -- ----,263199,263188,262810.36,262810,262810.6,263199.8,,11,wisdom
screen,html.Screen,2_1_0_1_12,2022-02-15T14:10:16.287Z,,,,,,,,,,,,,,,,,53,,,,,,,,,,,,,,394.20000000001164,,response,,,,99,,,,,,,Space,keypress(Space),,,,,,,,---- -- ----- -- ------ - ------- --- ----------<br>------------- ------ ------ says ---- ------- ----- -- ----<br>-------- ------- -- ---------- --- - --- ----- ----- ----<br>---- --- --- ----- --- ---- ---- ------- ----- ---- -------<br>--- --- -- ----- -- --- ---- -- --- ---- -- ------ ------<br>--- ----- -- ----,263602,263594,263199.52,263199,263199.8,263603.08,,12,says
screen,html.Screen,2_1_0_1_13,2022-02-15T14:10:16.687Z,,,,,,,,,,,,,,,,,53,,,,,,,,,,,,,,380.9199999999837,,response,,,,99,,,,,,,Space,keypress(Space),,,,,,,,---- -- ----- -- ------ - ------- --- ----------<br>------------- ------ ------ ---- that ------- ----- -- ----<br>-------- ------- -- ---------- --- - --- ----- ----- ----<br>---- --- --- ----- --- ---- ---- ------- ----- ---- -------<br>--- --- -- ----- -- --- ---- -- --- ---- -- ------ ------<br>--- ----- -- ----,264003,263984,263602.72,263602,263603.08,264004.12,,13,that
screen,html.Screen,2_1_0_1_14,2022-02-15T14:10:17.104Z,,,,,,,,,,,,,,,,,53,,,,,,,,,,,,,,402.88000000000466,,response,,,,99,,,,,,,Space,keypress(Space),,,,,,,,---- -- ----- -- ------ - ------- --- ----------<br>------------- ------ ------ ---- ---- feeling ----- -- ----<br>-------- ------- -- ---------- --- - --- ----- ----- ----<br>---- --- --- ----- --- ---- ---- ------- ----- ---- -------<br>--- --- -- ----- -- --- ---- -- --- ---- -- ------ ------<br>--- ----- -- ----,264420,264407,264003.72,264004,264004.12,264421.16,,14,feeling
screen,html.Screen,2_1_0_1_15,2022-02-15T14:10:17.491Z,,,,,,,,,,,,,,,,,53,,,,,,,,,,,,,,375.8400000000256,,response,,,,99,,,,,,,Space,keypress(Space),,,,,,,,---- -- ----- -- ------ - ------- --- ----------<br>------------- ------ ------ ---- ---- ------- close -- ----<br>-------- ------- -- ---------- --- - --- ----- ----- ----<br>---- --- --- ----- --- ---- ---- ------- ----- ---- -------<br>--- --- -- ----- -- --- ---- -- --- ---- -- ------ ------<br>--- ----- -- ----,264806,264797,264420.7,264420,264421.16,264807.74,,15,close
screen,html.Screen,2_1_0_1_16,2022-02-15T14:10:17.908Z,,,,,,,,,,,,,,,,,53,,,,,,,,,,,,,,410.2600000000093,,response,,,,99,,,,,,,Space,keypress(Space),,,,,,,,---- -- ----- -- ------ - ------- --- ----------<br>------------- ------ ------ ---- ---- ------- ----- to ----<br>-------- ------- -- ---------- --- - --- ----- ----- ----<br>---- --- --- ----- --- ---- ---- ------- ----- ---- -------<br>--- --- -- ----- -- --- ---- -- --- ---- -- ------ ------<br>--- ----- -- ----,265223,265218,264807.32,264807,264807.74,265224.32,,16,to
screen,html.Screen,2_1_0_1_17,2022-02-15T14:10:18.477Z,,,,,,,,,,,,,,,,,53,,,,,,,,,,,,,,557.679999999993,,response,,,,99,,,,,,,Space,keypress(Space),,,,,,,,---- -- ----- -- ------ - ------- --- ----------<br>------------- ------ ------ ---- ---- ------- ----- -- your<br>-------- ------- -- ---------- --- - --- ----- ----- ----<br>---- --- --- ----- --- ---- ---- ------- ----- ---- -------<br>--- --- -- ----- -- --- ---- -- --- ---- -- ------ ------<br>--- ----- -- ----,265792,265782,265223.9,265224,265224.32,265793.68,,17,your
screen,html.Screen,2_1_0_1_18,2022-02-15T14:10:18.883Z,,,,,,,,,,,,,,,,,53,,,,,,,,,,,,,,394.320000000007,,response,,,,99,,,,,,,Space,keypress(Space),,,,,,,,---- -- ----- -- ------ - ------- --- ----------<br>------------- ------ ------ ---- ---- ------- ----- -- ----<br>romantic ------- -- ---------- --- - --- ----- ----- ----<br>---- --- --- ----- --- ---- ---- ------- ----- ---- -------<br>--- --- -- ----- -- --- ---- -- --- ---- -- ------ ------<br>--- ----- -- ----,266198,266188,265793.26,265793,265793.68,266201.42,,18,romantic
screen,html.Screen,2_1_0_1_19,2022-02-15T14:10:19.173Z,,,,,,,,,,,,,,,,,53,,,,,,,,,,,,,,282.5800000000163,,response,,,,99,,,,,,,Space,keypress(Space),,,,,,,,---- -- ----- -- ------ - ------- --- ----------<br>------------- ------ ------ ---- ---- ------- ----- -- ----<br>-------- partner -- ---------- --- - --- ----- ----- ----<br>---- --- --- ----- --- ---- ---- ------- ----- ---- -------<br>--- --- -- ----- -- --- ---- -- --- ---- -- ------ ------<br>--- ----- -- ----,266488,266484,266198.64,266198,266201.42,266489.46,,19,partner
screen,html.Screen,2_1_0_1_20,2022-02-15T14:10:19.458Z,,,,,,,,,,,,,,,,,53,,,,,,,,,,,,,,276.53999999997905,,response,,,,99,,,,,,,Space,keypress(Space),,,,,,,,---- -- ----- -- ------ - ------- --- ----------<br>------------- ------ ------ ---- ---- ------- ----- -- ----<br>-------- ------- is ---------- --- - --- ----- ----- ----<br>---- --- --- ----- --- ---- ---- ------- ----- ---- -------<br>--- --- -- ----- -- --- ---- -- --- ---- -- ------ ------<br>--- ----- -- ----,266773,266766,266489,266489,266489.46,266774.48,,20,is
screen,html.Screen,2_1_0_1_21,2022-02-15T14:10:19.752Z,,,,,,,,,,,,,,,,,53,,,,,,,,,,,,,,287.5200000000186,,response,,,,99,,,,,,,Space,keypress(Space),,,,,,,,---- -- ----- -- ------ - ------- --- ----------<br>------------- ------ ------ ---- ---- ------- ----- -- ----<br>-------- ------- -- paramount. --- - --- ----- ----- ----<br>---- --- --- ----- --- ---- ---- ------- ----- ---- -------<br>--- --- -- ----- -- --- ---- -- --- ---- -- ------ ------<br>--- ----- -- ----,267068,267062,266774.04,266774,266774.48,267068.94,,21,paramount.
screen,html.Screen,2_1_0_1_22,2022-02-15T14:10:20.138Z,,,,,,,,,,,,,,,,,53,,,,,,,,,,,,,,369.0599999999977,,response,,,,99,,,,,,,Space,keypress(Space),,,,,,,,---- -- ----- -- ------ - ------- --- ----------<br>------------- ------ ------ ---- ---- ------- ----- -- ----<br>-------- ------- -- ---------- But - --- ----- ----- ----<br>---- --- --- ----- --- ---- ---- ------- ----- ---- -------<br>--- --- -- ----- -- --- ---- -- --- ---- -- ------ ------<br>--- ----- -- ----,267454,267438,267068.7,267068,267068.94,267454.32,,22,But
screen,html.Screen,2_1_0_1_23,2022-02-15T14:10:20.524Z,,,,,,,,,,,,,,,,,53,,,,,,,,,,,,,,374.679999999993,,response,,,,99,,,,,,,Space,keypress(Space),,,,,,,,---- -- ----- -- ------ - ------- --- ----------<br>------------- ------ ------ ---- ---- ------- ----- -- ----<br>-------- ------- -- ---------- --- a --- ----- ----- ----<br>---- --- --- ----- --- ---- ---- ------- ----- ---- -------<br>--- --- -- ----- -- --- ---- -- --- ---- -- ------ ------<br>--- ----- -- ----,267839,267829,267454.08,267454,267454.32,267839.62,,23,a
screen,html.Screen,2_1_0_1_24,2022-02-15T14:10:20.901Z,,,,,,,,,,,,,,,,,53,,,,,,,,,,,,,,364.38000000000466,,response,,,,99,,,,,,,Space,keypress(Space),,,,,,,,---- -- ----- -- ------ - ------- --- ----------<br>------------- ------ ------ ---- ---- ------- ----- -- ----<br>-------- ------- -- ---------- --- - new ----- ----- ----<br>---- --- --- ----- --- ---- ---- ------- ----- ---- -------<br>--- --- -- ----- -- --- ---- -- --- ---- -- ------ ------<br>--- ----- -- ----,268216,268204,267839.36,267839,267839.62,268218.06,,24,new
screen,html.Screen,2_1_0_1_25,2022-02-15T14:10:21.217Z,,,,,,,,,,,,,,,,,53,,,,,,,,,,,,,,297.9400000000023,,response,,,,99,,,,,,,Space,keypress(Space),,,,,,,,---- -- ----- -- ------ - ------- --- ----------<br>------------- ------ ------ ---- ---- ------- ----- -- ----<br>-------- ------- -- ---------- --- - --- study ----- ----<br>---- --- --- ----- --- ---- ---- ------- ----- ---- -------<br>--- --- -- ----- -- --- ---- -- --- ---- -- ------ ------<br>--- ----- -- ----,268532,268516,268216.28,268217,268218.06,268534.72,,25,study
screen,html.Screen,2_1_0_1_26,2022-02-15T14:10:21.553Z,,,,,,,,,,,,,,,,,53,,,,,,,,,,,,,,325.28000000002794,,response,,,,99,,,,,,,Space,keypress(Space),,,,,,,,---- -- ----- -- ------ - ------- --- ----------<br>------------- ------ ------ ---- ---- ------- ----- -- ----<br>-------- ------- -- ---------- --- - --- ----- finds ----<br>---- --- --- ----- --- ---- ---- ------- ----- ---- -------<br>--- --- -- ----- -- --- ---- -- --- ---- -- ------ ------<br>--- ----- -- ----,268869,268860,268533.3,268534,268534.72,268869.46,,26,finds
screen,html.Screen,2_1_0_1_27,2022-02-15T14:10:21.934Z,,,,,,,,,,,,,,,,,53,,,,,,,,,,,,,,365.53999999997905,,response,,,,99,,,,,,,Space,keypress(Space),,,,,,,,---- -- ----- -- ------ - ------- --- ----------<br>------------- ------ ------ ---- ---- ------- ----- -- ----<br>-------- ------- -- ---------- --- - --- ----- ----- that<br>---- --- --- ----- --- ---- ---- ------- ----- ---- -------<br>--- --- -- ----- -- --- ---- -- --- ---- -- ------ ------<br>--- ----- -- ----,269250,269235,268869.02,268869,268869.46,269250.66,,27,that
screen,html.Screen,2_1_0_1_28,2022-02-15T14:10:22.319Z,,,,,,,,,,,,,,,,,53,,,,,,,,,,,,,,374.3400000000256,,response,,,,99,,,,,,,Space,keypress(Space),,,,,,,,---- -- ----- -- ------ - ------- --- ----------<br>------------- ------ ------ ---- ---- ------- ----- -- ----<br>-------- ------- -- ---------- --- - --- ----- ----- ----<br>it's --- --- ----- --- ---- ---- ------- ----- ---- -------<br>--- --- -- ----- -- --- ---- -- --- ---- -- ------ ------<br>--- ----- -- ----,269635,269625,269250.38,269250,269250.66,269635.54,,28,it's
screen,html.Screen,2_1_0_1_29,2022-02-15T14:10:22.676Z,,,,,,,,,,,,,,,,,53,,,,,,,,,,,,,,349.46000000002095,,response,,,,99,,,,,,,Space,keypress(Space),,,,,,,,---- -- ----- -- ------ - ------- --- ----------<br>------------- ------ ------ ---- ---- ------- ----- -- ----<br>-------- ------- -- ---------- --- - --- ----- ----- ----<br>---- not --- ----- --- ---- ---- ------- ----- ---- -------<br>--- --- -- ----- -- --- ---- -- --- ---- -- ------ ------<br>--- ----- -- ----,269992,269985,269634.98,269635,269635.54,269993.66,,29,not
screen,html.Screen,2_1_0_1_30,2022-02-15T14:10:23.024Z,,,,,,,,,,,,,,,,,53,,,,,,,,,,,,,,335.3400000000256,,response,,,,99,,,,,,,Space,keypress(Space),,,,,,,,---- -- ----- -- ------ - ------- --- ----------<br>------------- ------ ------ ---- ---- ------- ----- -- ----<br>-------- ------- -- ---------- --- - --- ----- ----- ----<br>---- --- how ----- --- ---- ---- ------- ----- ---- -------<br>--- --- -- ----- -- --- ---- -- --- ---- -- ------ ------<br>--- ----- -- ----,270340,270329,269993.24,269993,269993.66,270341.56,,30,how
screen,html.Screen,2_1_0_1_31,2022-02-15T14:10:23.328Z,,,,,,,,,,,,,,,,,53,,,,,,,,,,,,,,282.4400000000023,,response,,,,99,,,,,,,Space,keypress(Space),,,,,,,,---- -- ----- -- ------ - ------- --- ----------<br>------------- ------ ------ ---- ---- ------- ----- -- ----<br>-------- ------- -- ---------- --- - --- ----- ----- ----<br>---- --- --- close --- ---- ---- ------- ----- ---- -------<br>--- --- -- ----- -- --- ---- -- --- ---- -- ------ ------<br>--- ----- -- ----,270643,270624,270341.08,270341,270341.56,270644.52,,31,close
screen,html.Screen,2_1_0_1_32,2022-02-15T14:10:23.691Z,,,,,,,,,,,,,,,,,53,,,,,,,,,,,,,,354.4799999999814,,response,,,,99,,,,,,,Space,keypress(Space),,,,,,,,---- -- ----- -- ------ - ------- --- ----------<br>------------- ------ ------ ---- ---- ------- ----- -- ----<br>-------- ------- -- ---------- --- - --- ----- ----- ----<br>---- --- --- ----- you ---- ---- ------- ----- ---- -------<br>--- --- -- ----- -- --- ---- -- --- ---- -- ------ ------<br>--- ----- -- ----,271006,270999,270644.08,270644,270644.52,271007.48,,32,you
screen,html.Screen,2_1_0_1_33,2022-02-15T14:10:24.091Z,,,,,,,,,,,,,,,,,53,,,,,,,,,,,,,,383.5200000000186,,response,,,,99,,,,,,,Space,keypress(Space),,,,,,,,---- -- ----- -- ------ - ------- --- ----------<br>------------- ------ ------ ---- ---- ------- ----- -- ----<br>-------- ------- -- ---------- --- - --- ----- ----- ----<br>---- --- --- ----- --- feel ---- ------- ----- ---- -------<br>--- --- -- ----- -- --- ---- -- --- ---- -- ------ ------<br>--- ----- -- ----,271407,271391,271007.06,271007,271007.48,271407.88,,33,feel
screen,html.Screen,2_1_0_1_34,2022-02-15T14:10:24.533Z,,,,,,,,,,,,,,,,,53,,,,,,,,,,,,,,436.11999999999534,,response,,,,99,,,,,,,Space,keypress(Space),,,,,,,,---- -- ----- -- ------ - ------- --- ----------<br>------------- ------ ------ ---- ---- ------- ----- -- ----<br>-------- ------- -- ---------- --- - --- ----- ----- ----<br>---- --- --- ----- --- ---- that ------- ----- ---- -------<br>--- --- -- ----- -- --- ---- -- --- ---- -- ------ ------<br>--- ----- -- ----,271849,271844,271407.42,271408,271407.88,271851.48,,34,that
screen,html.Screen,2_1_0_1_35,2022-02-15T14:10:24.936Z,,,,,,,,,,,,,,,,,53,,,,,,,,,,,,,,383.5200000000186,,response,,,,99,,,,,,,Space,keypress(Space),,,,,,,,---- -- ----- -- ------ - ------- --- ----------<br>------------- ------ ------ ---- ---- ------- ----- -- ----<br>-------- ------- -- ---------- --- - --- ----- ----- ----<br>---- --- --- ----- --- ---- ---- matters ----- ---- -------<br>--- --- -- ----- -- --- ---- -- --- ---- -- ------ ------<br>--- ----- -- ----,272252,272235,271849.28,271850,271851.48,272253.32,,35,matters
screen,html.Screen,2_1_0_1_36,2022-02-15T14:10:25.348Z,,,,,,,,,,,,,,,,,53,,,,,,,,,,,,,,403.679999999993,,response,,,,99,,,,,,,Space,keypress(Space),,,,,,,,"---- -- ----- -- ------ - ------- --- ----------<br>------------- ------ ------ ---- ---- ------- ----- -- ----<br>-------- ------- -- ---------- --- - --- ----- ----- ----<br>---- --- --- ----- --- ---- ---- ------- most, ---- -------<br>--- --- -- ----- -- --- ---- -- --- ---- -- ------ ------<br>--- ----- -- ----",272664,272657,272252.84,272253,272253.32,272664.66,,36,"most,"
screen,html.Screen,2_1_0_1_37,2022-02-15T14:10:25.743Z,,,,,,,,,,,,,,,,,53,,,,,,,,,,,,,,381.3400000000256,,response,,,,99,,,,,,,Space,keypress(Space),,,,,,,,---- -- ----- -- ------ - ------- --- ----------<br>------------- ------ ------ ---- ---- ------- ----- -- ----<br>-------- ------- -- ---------- --- - --- ----- ----- ----<br>---- --- --- ----- --- ---- ---- ------- ----- it's -------<br>--- --- -- ----- -- --- ---- -- --- ---- -- ------ ------<br>--- ----- -- ----,273059,273046,272664.22,272664,272664.66,273059.96,,37,it's
screen,html.Screen,2_1_0_1_38,2022-02-15T14:10:26.314Z,,,,,,,,,,,,,,,,,53,,,,,,,,,,,,,,565.039999999979,,response,,,,99,,,,,,,Space,keypress(Space),,,,,,,,---- -- ----- -- ------ - ------- --- ----------<br>------------- ------ ------ ---- ---- ------- ----- -- ----<br>-------- ------- -- ---------- --- - --- ----- ----- ----<br>---- --- --- ----- --- ---- ---- ------- ----- ---- whether<br>--- --- -- ----- -- --- ---- -- --- ---- -- ------ ------<br>--- ----- -- ----,273629,273625,273059.56,273059,273059.96,273630.46,,38,whether
screen,html.Screen,2_1_0_1_39,2022-02-15T14:10:26.737Z,,,,,,,,,,,,,,,,,53,,,,,,,,,,,,,,415.53999999997905,,response,,,,99,,,,,,,Space,keypress(Space),,,,,,,,---- -- ----- -- ------ - ------- --- ----------<br>------------- ------ ------ ---- ---- ------- ----- -- ----<br>-------- ------- -- ---------- --- - --- ----- ----- ----<br>---- --- --- ----- --- ---- ---- ------- ----- ---- -------<br>you --- -- ----- -- --- ---- -- --- ---- -- ------ ------<br>--- ----- -- ----,274053,274046,273629.98,273630,273630.46,274054.16,,39,you
screen,html.Screen,2_1_0_1_40,2022-02-15T14:10:27.027Z,,,,,,,,,,,,,,,,,53,,,,,,,,,,,,,,274.8400000000256,,response,,,,99,,,,,,,Space,keypress(Space),,,,,,,,---- -- ----- -- ------ - ------- --- ----------<br>------------- ------ ------ ---- ---- ------- ----- -- ----<br>-------- ------- -- ---------- --- - --- ----- ----- ----<br>---- --- --- ----- --- ---- ---- ------- ----- ---- -------<br>--- are -- ----- -- --- ---- -- --- ---- -- ------ ------<br>--- ----- -- ----,274343,274329,274053.72,274054,274054.16,274343.62,,40,are
screen,html.Screen,2_1_0_1_41,2022-02-15T14:10:27.244Z,,,,,,,,,,,,,,,,,53,,,,,,,,,,,,,,203.38000000000466,,response,,,,99,,,,,,,Space,keypress(Space),,,,,,,,---- -- ----- -- ------ - ------- --- ----------<br>------------- ------ ------ ---- ---- ------- ----- -- ----<br>-------- ------- -- ---------- --- - --- ----- ----- ----<br>---- --- --- ----- --- ---- ---- ------- ----- ---- -------<br>--- --- as ----- -- --- ---- -- --- ---- -- ------ ------<br>--- ----- -- ----,274559,274547,274343.16,274343,274343.62,274560.36,,41,as
screen,html.Screen,2_1_0_1_42,2022-02-15T14:10:27.439Z,,,,,,,,,,,,,,,,,53,,,,,,,,,,,,,,189.64000000001397,,response,,,,99,,,,,,,Space,keypress(Space),,,,,,,,---- -- ----- -- ------ - ------- --- ----------<br>------------- ------ ------ ---- ---- ------- ----- -- ----<br>-------- ------- -- ---------- --- - --- ----- ----- ----<br>---- --- --- ----- --- ---- ---- ------- ----- ---- -------<br>--- --- -- close -- --- ---- -- --- ---- -- ------ ------<br>--- ----- -- ----,274755,274750,274559.94,274560,274560.36,274768.18,,42,close
screen,html.Screen,2_1_0_1_43,2022-02-15T14:10:27.653Z,,,,,,,,,,,,,,,,,53,,,,,,,,,,,,,,184.82000000000698,,response,,,,99,,,,,,,Space,keypress(Space),,,,,,,,---- -- ----- -- ------ - ------- --- ----------<br>------------- ------ ------ ---- ---- ------- ----- -- ----<br>-------- ------- -- ---------- --- - --- ----- ----- ----<br>---- --- --- ----- --- ---- ---- ------- ----- ---- -------<br>--- --- -- ----- as --- ---- -- --- ---- -- ------ ------<br>--- ----- -- ----,274968,274953,274755.06,274755,274768.18,274969.54,,43,as
screen,html.Screen,2_1_0_1_44,2022-02-15T14:10:28.019Z,,,,,,,,,,,,,,,,,53,,,,,,,,,,,,,,359.46000000002095,,response,,,,99,,,,,,,Space,keypress(Space),,,,,,,,---- -- ----- -- ------ - ------- --- ----------<br>------------- ------ ------ ---- ---- ------- ----- -- ----<br>-------- ------- -- ---------- --- - --- ----- ----- ----<br>---- --- --- ----- --- ---- ---- ------- ----- ---- -------<br>--- --- -- ----- -- you ---- -- --- ---- -- ------ ------<br>--- ----- -- ----,275334,275329,274969.08,274969,274969.54,275335.08,,44,you
screen,html.Screen,2_1_0_1_45,2022-02-15T14:10:28.507Z,,,,,,,,,,,,,,,,,53,,,,,,,,,,,,,,477.9199999999837,,response,,,,99,,,,,,,Space,keypress(Space),,,,,,,,---- -- ----- -- ------ - ------- --- ----------<br>------------- ------ ------ ---- ---- ------- ----- -- ----<br>-------- ------- -- ---------- --- - --- ----- ----- ----<br>---- --- --- ----- --- ---- ---- ------- ----- ---- -------<br>--- --- -- ----- -- --- want -- --- ---- -- ------ ------<br>--- ----- -- ----,275822,275813,275334.66,275334,275335.08,275823.22,,45,want
screen,html.Screen,2_1_0_1_46,2022-02-15T14:10:29.032Z,,,,,,,,,,,,,,,,,53,,,,,,,,,,,,,,519.7800000000279,,response,,,,99,,,,,,,Space,keypress(Space),,,,,,,,---- -- ----- -- ------ - ------- --- ----------<br>------------- ------ ------ ---- ---- ------- ----- -- ----<br>-------- ------- -- ---------- --- - --- ----- ----- ----<br>---- --- --- ----- --- ---- ---- ------- ----- ---- -------<br>--- --- -- ----- -- --- ---- to --- ---- -- ------ ------<br>--- ----- -- ----,276347,276343,275822.78,275823,275823.22,276351.56,,46,to
screen,html.Screen,2_1_0_1_47,2022-02-15T14:10:29.381Z,,,,,,,,,,,,,,,,,53,,,,,,,,,,,,,,336.4400000000023,,response,,,,99,,,,,,,Space,keypress(Space),,,,,,,,"---- -- ----- -- ------ - ------- --- ----------<br>------------- ------ ------ ---- ---- ------- ----- -- ----<br>-------- ------- -- ---------- --- - --- ----- ----- ----<br>---- --- --- ----- --- ---- ---- ------- ----- ---- -------<br>--- --- -- ----- -- --- ---- -- be, ---- -- ------ ------<br>--- ----- -- ----",276697,276688,276348.22,276348,276351.56,276698.32,,47,"be,"
screen,html.Screen,2_1_0_1_48,2022-02-15T14:10:29.664Z,,,,,,,,,,,,,,,,,53,,,,,,,,,,,,,,270.679999999993,,response,,,,99,,,,,,,Space,keypress(Space),,,,,,,,---- -- ----- -- ------ - ------- --- ----------<br>------------- ------ ------ ---- ---- ------- ----- -- ----<br>-------- ------- -- ---------- --- - --- ----- ----- ----<br>---- --- --- ----- --- ---- ---- ------- ----- ---- -------<br>--- --- -- ----- -- --- ---- -- --- even -- ------ ------<br>--- ----- -- ----,276979,276969,276697.88,276698,276698.32,276980.98,,48,even
screen,html.Screen,2_1_0_1_49,2022-02-15T14:10:29.945Z,,,,,,,,,,,,,,,,,53,,,,,,,,,,,,,,269.0200000000186,,response,,,,99,,,,,,,Space,keypress(Space),,,,,,,,---- -- ----- -- ------ - ------- --- ----------<br>------------- ------ ------ ---- ---- ------- ----- -- ----<br>-------- ------- -- ---------- --- - --- ----- ----- ----<br>---- --- --- ----- --- ---- ---- ------- ----- ---- -------<br>--- --- -- ----- -- --- ---- -- --- ---- if ------ ------<br>--- ----- -- ----,277261,277250,276980.48,276980,276980.98,277262.62,,49,if
screen,html.Screen,2_1_0_1_50,2022-02-15T14:10:30.268Z,,,,,,,,,,,,,,,,,53,,,,,,,,,,,,,,315.38000000000466,,response,,,,99,,,,,,,Space,keypress(Space),,,,,,,,---- -- ----- -- ------ - ------- --- ----------<br>------------- ------ ------ ---- ---- ------- ----- -- ----<br>-------- ------- -- ---------- --- - --- ----- ----- ----<br>---- --- --- ----- --- ---- ---- ------- ----- ---- -------<br>--- --- -- ----- -- --- ---- -- --- ---- -- that's ------<br>--- ----- -- ----,277583,277578,277262.16,277262,277262.62,277584.82,,50,that's
screen,html.Screen,2_1_0_1_51,2022-02-15T14:10:30.544Z,,,,,,,,,,,,,,,,,53,,,,,,,,,,,,,,259.179999999993,,response,,,,99,,,,,,,Space,keypress(Space),,,,,,,,---- -- ----- -- ------ - ------- --- ----------<br>------------- ------ ------ ---- ---- ------- ----- -- ----<br>-------- ------- -- ---------- --- - --- ----- ----- ----<br>---- --- --- ----- --- ---- ---- ------- ----- ---- -------<br>--- --- -- ----- -- --- ---- -- --- ---- -- ------ really<br>--- ----- -- ----,277860,277844,277583.94,277584,277584.82,277861.38,,51,really
screen,html.Screen,2_1_0_1_52,2022-02-15T14:10:31.001Z,,,,,,,,,,,,,,,,,53,,,,,,,,,,,,,,451.61999999999534,,response,,,,99,,,,,,,Space,keypress(Space),,,,,,,,---- -- ----- -- ------ - ------- --- ----------<br>------------- ------ ------ ---- ---- ------- ----- -- ----<br>-------- ------- -- ---------- --- - --- ----- ----- ----<br>---- --- --- ----- --- ---- ---- ------- ----- ---- -------<br>--- --- -- ----- -- --- ---- -- --- ---- -- ------ ------<br>not ----- -- ----,278318,278313,277860.88,277861,277861.38,278318.7,,52,not
screen,html.Screen,2_1_0_1_53,2022-02-15T14:10:31.273Z,,,,,,,,,,,,,,,,,53,,,,,,,,,,,,,,259.29999999998836,,response,,,,99,,,,,,,Space,keypress(Space),,,,,,,,---- -- ----- -- ------ - ------- --- ----------<br>------------- ------ ------ ---- ---- ------- ----- -- ----<br>-------- ------- -- ---------- --- - --- ----- ----- ----<br>---- --- --- ----- --- ---- ---- ------- ----- ---- -------<br>--- --- -- ----- -- --- ---- -- --- ---- -- ------ ------<br>--- close -- ----,278589,278578,278318.2,278318,278318.7,278590.36,,53,close
screen,html.Screen,2_1_0_1_54,2022-02-15T14:10:31.611Z,,,,,,,,,,,,,,,,,53,,,,,,,,,,,,,,330.64000000001397,,response,,,,99,,,,,,,Space,keypress(Space),,,,,,,,---- -- ----- -- ------ - ------- --- ----------<br>------------- ------ ------ ---- ---- ------- ----- -- ----<br>-------- ------- -- ---------- --- - --- ----- ----- ----<br>---- --- --- ----- --- ---- ---- ------- ----- ---- -------<br>--- --- -- ----- -- --- ---- -- --- ---- -- ------ ------<br>--- ----- at ----,278927,278921,278589.94,278590,278590.36,278927.96,,54,at
screen,html.Screen,2_1_0_1_55,2022-02-15T14:10:32.823Z,,,,,,,,,,,,,,,,,53,,,,,,,,,,,,,,1197.039999999979,,response,,,,99,,,,,,,Space,keypress(Space),,,,,,,,---- -- ----- -- ------ - ------- --- ----------<br>------------- ------ ------ ---- ---- ------- ----- -- ----<br>-------- ------- -- ---------- --- - --- ----- ----- ----<br>---- --- --- ----- --- ---- ---- ------- ----- ---- -------<br>--- --- -- ----- -- --- ---- -- --- ---- -- ------ ------<br>--- ----- -- all.,280139,280125,278927.5,278928,278927.96,280141.58,,55,all.
Item 99,flow.Loop,2_1_0_1,2022-02-15T14:10:32.824Z,,,,,,,,,,,,,,,,,,,,,,,,,,,,,,,23907.079999999987,,completion,,,,,F,,,,,,,,,,,silence,,,,,280140,280125,256201.32,256204,256217.92,280141.58,,,
Question 1,html.Screen,2_1_0_2,2022-02-15T14:10:40.433Z,,,,,,,,,,,,,,,,,,,,,,,,,,,,true,FALSE,,7592.419999999984,,response,,,,99,F,,,,,,FALSE,click #choice-2,,,,silence,,,,,287748,287734,280141.08,280140,280141.58,287751.76,,,
Question 2,html.Screen,2_1_0_3,2022-02-15T14:10:46.129Z,,,,,,,,,,,,,,,,,,,,,,,,,,,,true,TRUE,,5686.239999999991,,response,,,,99,F,,,,,,TRUE,click #choice-1,,,,silence,,,,,293445,293438,287746.8,287748,287751.76,293451.84,,,
Item 99,flow.Sequence,2_1_0,2022-02-15T14:10:46.130Z,,,,,,,,,,,,,,,,,,,,,,,,,,,,,,,47220.26000000001,,completion,,,,,,,,,,,,,,,,,,,,,293446,293438,246216.78,246223,246217.74,293451.84,,,
Holding screen,html.Screen,2_1_1_0,2022-02-15T14:10:56.121Z,,,,,,,,,,,,,,,,,,,,,,,,,,,,,,,10000.199999999953,,timeout,,,,,,,,,,,,,,,,,,,,,303437,303435.38,293444.26,293447,293451.84,303452.04,,,
screen,html.Screen,2_1_1_1_0,2022-02-15T14:10:57.289Z,,,,,,,,,,,,,,,,,54,,,,,,,,,,,,,,1140.960000000021,,response,,,,100,,,,,,,Space,keypress(Space),,,,,,,,At --- ---- --- ------ ----- ------- ---- -- --- ------- --<br>------- ---------- ------ -- ----- -- ----- -- ---- ------<br>--- ----- --- --- ------ -------- ----- --- ------ ----- --<br>----- ----- ---------- --- --- ------ ------ ---- -- ------<br>------- --- ------ ----- --- ---- ------- -- ---- --- --<br>------- ------,304605,304593,303435.38,303438,303452.04,304605.82,,0,At
screen,html.Screen,2_1_1_1_1,2022-02-15T14:10:57.756Z,,,,,,,,,,,,,,,,,54,,,,,,,,,,,,,,457.179999999993,,response,,,,100,,,,,,,Space,keypress(Space),,,,,,,,-- the ---- --- ------ ----- ------- ---- -- --- ------- --<br>------- ---------- ------ -- ----- -- ----- -- ---- ------<br>--- ----- --- --- ------ -------- ----- --- ------ ----- --<br>----- ----- ---------- --- --- ------ ------ ---- -- ------<br>------- --- ------ ----- --- ---- ------- -- ---- --- --<br>------- ------,305072,305063,304605.42,304606,304605.82,305072.32,,1,the
screen,html.Screen,2_1_1_1_2,2022-02-15T14:10:58.148Z,,,,,,,,,,,,,,,,,54,,,,,,,,,,,,,,381.679999999993,,response,,,,100,,,,,,,Space,keypress(Space),,,,,,,,-- --- time --- ------ ----- ------- ---- -- --- ------- --<br>------- ---------- ------ -- ----- -- ----- -- ---- ------<br>--- ----- --- --- ------ -------- ----- --- ------ ----- --<br>----- ----- ---------- --- --- ------ ------ ---- -- ------<br>------- --- ------ ----- --- ---- ------- -- ---- --- --<br>------- ------,305463,305454,305071.9,305072,305072.32,305464.88,,2,time
screen,html.Screen,2_1_1_1_3,2022-02-15T14:10:58.924Z,,,,,,,,,,,,,,,,,54,,,,,,,,,,,,,,769.1199999999953,,response,,,,100,,,,,,,Space,keypress(Space),,,,,,,,-- --- ---- the ------ ----- ------- ---- -- --- ------- --<br>------- ---------- ------ -- ----- -- ----- -- ---- ------<br>--- ----- --- --- ------ -------- ----- --- ------ ----- --<br>----- ----- ---------- --- --- ------ ------ ---- -- ------<br>------- --- ------ ----- --- ---- ------- -- ---- --- --<br>------- ------,306239,306234,305464.46,305465,305464.88,306241.24,,3,the
screen,html.Screen,2_1_1_1_4,2022-02-15T14:10:59.377Z,,,,,,,,,,,,,,,,,54,,,,,,,,,,,,,,445.7600000000093,,response,,,,100,,,,,,,Space,keypress(Space),,,,,,,,-- --- ---- --- French ----- ------- ---- -- --- ------- --<br>------- ---------- ------ -- ----- -- ----- -- ---- ------<br>--- ----- --- --- ------ -------- ----- --- ------ ----- --<br>----- ----- ---------- --- --- ------ ------ ---- -- ------<br>------- --- ------ ----- --- ---- ------- -- ---- --- --<br>------- ------,306694,306687,306240.72,306240,306241.24,306696.58,,4,French
screen,html.Screen,2_1_1_1_5,2022-02-15T14:10:59.824Z,,,,,,,,,,,,,,,,,54,,,,,,,,,,,,,,428.4199999999837,,response,,,,100,,,,,,,Space,keypress(Space),,,,,,,,-- --- ---- --- ------ crown ------- ---- -- --- ------- --<br>------- ---------- ------ -- ----- -- ----- -- ---- ------<br>--- ----- --- --- ------ -------- ----- --- ------ ----- --<br>----- ----- ---------- --- --- ------ ------ ---- -- ------<br>------- --- ------ ----- --- ---- ------- -- ---- --- --<br>------- ------,307140,307125,306696.14,306696,306696.58,307141.36,,5,crown
screen,html.Screen,2_1_1_1_6,2022-02-15T14:11:00.311Z,,,,,,,,,,,,,,,,,54,,,,,,,,,,,,,,468.64000000001397,,response,,,,100,,,,,,,Space,keypress(Space),,,,,,,,-- --- ---- --- ------ ----- secured ---- -- --- ------- --<br>------- ---------- ------ -- ----- -- ----- -- ---- ------<br>--- ----- --- --- ------ -------- ----- --- ------ ----- --<br>----- ----- ---------- --- --- ------ ------ ---- -- ------<br>------- --- ------ ----- --- ---- ------- -- ---- --- --<br>------- ------,307627,307610,307140.9,307140,307141.36,307627.28,,6,secured
screen,html.Screen,2_1_1_1_7,2022-02-15T14:11:00.811Z,,,,,,,,,,,,,,,,,54,,,,,,,,,,,,,,481.71999999997206,,response,,,,100,,,,,,,Space,keypress(Space),,,,,,,,-- --- ---- --- ------ ----- ------- much -- --- ------- --<br>------- ---------- ------ -- ----- -- ----- -- ---- ------<br>--- ----- --- --- ------ -------- ----- --- ------ ----- --<br>----- ----- ---------- --- --- ------ ------ ---- -- ------<br>------- --- ------ ----- --- ---- ------- -- ---- --- --<br>------- ------,308127,308109,307626.86,307627,307627.28,308128.78,,7,much
screen,html.Screen,2_1_1_1_8,2022-02-15T14:11:01.287Z,,,,,,,,,,,,,,,,,54,,,,,,,,,,,,,,465.21999999997206,,response,,,,100,,,,,,,Space,keypress(Space),,,,,,,,-- --- ---- --- ------ ----- ------- ---- of --- ------- --<br>------- ---------- ------ -- ----- -- ----- -- ---- ------<br>--- ----- --- --- ------ -------- ----- --- ------ ----- --<br>----- ----- ---------- --- --- ------ ------ ---- -- ------<br>------- --- ------ ----- --- ---- ------- -- ---- --- --<br>------- ------,308602,308594,308128.26,308128,308128.78,308603.44,,8,of
screen,html.Screen,2_1_1_1_9,2022-02-15T14:11:01.666Z,,,,,,,,,,,,,,,,,54,,,,,,,,,,,,,,365.5599999999977,,response,,,,100,,,,,,,Space,keypress(Space),,,,,,,,-- --- ---- --- ------ ----- ------- ---- -- its ------- --<br>------- ---------- ------ -- ----- -- ----- -- ---- ------<br>--- ----- --- --- ------ -------- ----- --- ------ ----- --<br>----- ----- ---------- --- --- ------ ------ ---- -- ------<br>------- --- ------ ----- --- ---- ------- -- ---- --- --<br>------- ------,308982,308969,308603,308603,308603.44,308985.44,,9,its
screen,html.Screen,2_1_1_1_10,2022-02-15T14:11:02.274Z,,,,,,,,,,,,,,,,,54,,,,,,,,,,,,,,593.5599999999977,,response,,,,100,,,,,,,Space,keypress(Space),,,,,,,,-- --- ---- --- ------ ----- ------- ---- -- --- revenue --<br>------- ---------- ------ -- ----- -- ----- -- ---- ------<br>--- ----- --- --- ------ -------- ----- --- ------ ----- --<br>----- ----- ---------- --- --- ------ ------ ---- -- ------<br>------- --- ------ ----- --- ---- ------- -- ---- --- --<br>------- ------,309589,309579,308982.48,308982,308985.44,309591.28,,10,revenue
screen,html.Screen,2_1_1_1_11,2022-02-15T14:11:03.443Z,,,,,,,,,,,,,,,,,54,,,,,,,,,,,,,,1158.719999999972,,response,,,,100,,,,,,,Space,keypress(Space),,,,,,,,-- --- ---- --- ------ ----- ------- ---- -- --- ------- by<br>------- ---------- ------ -- ----- -- ----- -- ---- ------<br>--- ----- --- --- ------ -------- ----- --- ------ ----- --<br>----- ----- ---------- --- --- ------ ------ ---- -- ------<br>------- --- ------ ----- --- ---- ------- -- ---- --- --<br>------- ------,310759,310750,309590.78,309591,309591.28,310760.54,,11,by
screen,html.Screen,2_1_1_1_12,2022-02-15T14:11:04.014Z,,,,,,,,,,,,,,,,,54,,,,,,,,,,,,,,552.460000000021,,response,,,,100,,,,,,,Space,keypress(Space),,,,,,,,-- --- ---- --- ------ ----- ------- ---- -- --- ------- --<br>issuing ---------- ------ -- ----- -- ----- -- ---- ------<br>--- ----- --- --- ------ -------- ----- --- ------ ----- --<br>----- ----- ---------- --- --- ------ ------ ---- -- ------<br>------- --- ------ ----- --- ---- ------- -- ---- --- --<br>------- ------,311331,311313,310760.1,310760,310760.54,311331.46,,12,issuing
screen,html.Screen,2_1_1_1_13,2022-02-15T14:11:04.461Z,,,,,,,,,,,,,,,,,54,,,,,,,,,,,,,,433.53999999997905,,response,,,,100,,,,,,,Space,keypress(Space),,,,,,,,-- --- ---- --- ------ ----- ------- ---- -- --- ------- --<br>------- government ------ -- ----- -- ----- -- ---- ------<br>--- ----- --- --- ------ -------- ----- --- ------ ----- --<br>----- ----- ---------- --- --- ------ ------ ---- -- ------<br>------- --- ------ ----- --- ---- ------- -- ---- --- --<br>------- ------,311777,311765,311331.02,311331,311331.46,311777.5,,13,government
screen,html.Screen,2_1_1_1_14,2022-02-15T14:11:04.882Z,,,,,,,,,,,,,,,,,54,,,,,,,,,,,,,,410.5,,response,,,,100,,,,,,,Space,keypress(Space),,,,,,,,-- --- ---- --- ------ ----- ------- ---- -- --- ------- --<br>------- ---------- bonds. -- ----- -- ----- -- ---- ------<br>--- ----- --- --- ------ -------- ----- --- ------ ----- --<br>----- ----- ---------- --- --- ------ ------ ---- -- ------<br>------- --- ------ ----- --- ---- ------- -- ---- --- --<br>------- ------,312197,312188,311777.08,311777,311777.5,312198.08,,14,bonds.
screen,html.Screen,2_1_1_1_15,2022-02-15T14:11:05.380Z,,,,,,,,,,,,,,,,,54,,,,,,,,,,,,,,488.9199999999837,,response,,,,100,,,,,,,Space,keypress(Space),,,,,,,,-- --- ---- --- ------ ----- ------- ---- -- --- ------- --<br>------- ---------- ------ In ----- -- ----- -- ---- ------<br>--- ----- --- --- ------ -------- ----- --- ------ ----- --<br>----- ----- ---------- --- --- ------ ------ ---- -- ------<br>------- --- ------ ----- --- ---- ------- -- ---- --- --<br>------- ------,312696,312687,312197.66,312197,312198.08,312696.46,,15,In
screen,html.Screen,2_1_1_1_16,2022-02-15T14:11:05.755Z,,,,,,,,,,,,,,,,,54,,,,,,,,,,,,,,366.53999999997905,,response,,,,100,,,,,,,Space,keypress(Space),,,,,,,,"-- --- ---- --- ------ ----- ------- ---- -- --- ------- --<br>------- ---------- ------ -- 1727, -- ----- -- ---- ------<br>--- ----- --- --- ------ -------- ----- --- ------ ----- --<br>----- ----- ---------- --- --- ------ ------ ---- -- ------<br>------- --- ------ ----- --- ---- ------- -- ---- --- --<br>------- ------",313072,313063,312696.02,312696,312696.46,313072.76,,16,"1727,"
screen,html.Screen,2_1_1_1_17,2022-02-15T14:11:06.244Z,,,,,,,,,,,,,,,,,54,,,,,,,,,,,,,,473.2399999999907,,response,,,,100,,,,,,,Space,keypress(Space),,,,,,,,-- --- ---- --- ------ ----- ------- ---- -- --- ------- --<br>------- ---------- ------ -- ----- in ----- -- ---- ------<br>--- ----- --- --- ------ -------- ----- --- ------ ----- --<br>----- ----- ---------- --- --- ------ ------ ---- -- ------<br>------- --- ------ ----- --- ---- ------- -- ---- --- --<br>------- ------,313559,313546,313072.34,313072,313072.76,313560.18,,17,in
screen,html.Screen,2_1_1_1_18,2022-02-15T14:11:06.764Z,,,,,,,,,,,,,,,,,54,,,,,,,,,,,,,,501.820000000007,,response,,,,100,,,,,,,Space,keypress(Space),,,,,,,,-- --- ---- --- ------ ----- ------- ---- -- --- ------- --<br>------- ---------- ------ -- ----- -- order -- ---- ------<br>--- ----- --- --- ------ -------- ----- --- ------ ----- --<br>----- ----- ---------- --- --- ------ ------ ---- -- ------<br>------- --- ------ ----- --- ---- ------- -- ---- --- --<br>------- ------,314080,314062,313559.74,313560,313560.18,314080.26,,18,order
screen,html.Screen,2_1_1_1_19,2022-02-15T14:11:07.832Z,,,,,,,,,,,,,,,,,54,,,,,,,,,,,,,,1059.7399999999907,,response,,,,100,,,,,,,Space,keypress(Space),,,,,,,,-- --- ---- --- ------ ----- ------- ---- -- --- ------- --<br>------- ---------- ------ -- ----- -- ----- to ---- ------<br>--- ----- --- --- ------ -------- ----- --- ------ ----- --<br>----- ----- ---------- --- --- ------ ------ ---- -- ------<br>------- --- ------ ----- --- ---- ------- -- ---- --- --<br>------- ------,315148,315140,314079.86,314080,314080.26,315148.72,,19,to
screen,html.Screen,2_1_1_1_20,2022-02-15T14:11:08.419Z,,,,,,,,,,,,,,,,,54,,,,,,,,,,,,,,569.2800000000279,,response,,,,100,,,,,,,Space,keypress(Space),,,,,,,,-- --- ---- --- ------ ----- ------- ---- -- --- ------- --<br>------- ---------- ------ -- ----- -- ----- -- save ------<br>--- ----- --- --- ------ -------- ----- --- ------ ----- --<br>----- ----- ---------- --- --- ------ ------ ---- -- ------<br>------- --- ------ ----- --- ---- ------- -- ---- --- --<br>------- ------,315735,315718,315148.26,315148,315148.72,315735.82,,20,save
screen,html.Screen,2_1_1_1_21,2022-02-15T14:11:09.229Z,,,,,,,,,,,,,,,,,54,,,,,,,,,,,,,,796.179999999993,,response,,,,100,,,,,,,Space,keypress(Space),,,,,,,,"-- --- ---- --- ------ ----- ------- ---- -- --- ------- --<br>------- ---------- ------ -- ----- -- ----- -- ---- money,<br>--- ----- --- --- ------ -------- ----- --- ------ ----- --<br>----- ----- ---------- --- --- ------ ------ ---- -- ------<br>------- --- ------ ----- --- ---- ------- -- ---- --- --<br>------- ------",316545,316532,315735.6,315736,315735.82,316546,,21,"money,"
screen,html.Screen,2_1_1_1_22,2022-02-15T14:11:09.767Z,,,,,,,,,,,,,,,,,54,,,,,,,,,,,,,,533,,response,,,,100,,,,,,,Space,keypress(Space),,,,,,,,-- --- ---- --- ------ ----- ------- ---- -- --- ------- --<br>------- ---------- ------ -- ----- -- ----- -- ---- ------<br>the ----- --- --- ------ -------- ----- --- ------ ----- --<br>----- ----- ---------- --- --- ------ ------ ---- -- ------<br>------- --- ------ ----- --- ---- ------- -- ---- --- --<br>------- ------,317082,317079,316545.56,316546,316546,317082.86,,22,the
screen,html.Screen,2_1_1_1_23,2022-02-15T14:11:10.180Z,,,,,,,,,,,,,,,,,54,,,,,,,,,,,,,,402.14000000001397,,response,,,,100,,,,,,,Space,keypress(Space),,,,,,,,-- --- ---- --- ------ ----- ------- ---- -- --- ------- --<br>------- ---------- ------ -- ----- -- ----- -- ---- ------<br>--- state --- --- ------ -------- ----- --- ------ ----- --<br>----- ----- ---------- --- --- ------ ------ ---- -- ------<br>------- --- ------ ----- --- ---- ------- -- ---- --- --<br>------- ------,317496,317485,317082.64,317083,317082.86,317496.36,,23,state
screen,html.Screen,2_1_1_1_24,2022-02-15T14:11:10.557Z,,,,,,,,,,,,,,,,,54,,,,,,,,,,,,,,363.64000000001397,,response,,,,100,,,,,,,Space,keypress(Space),,,,,,,,-- --- ---- --- ------ ----- ------- ---- -- --- ------- --<br>------- ---------- ------ -- ----- -- ----- -- ---- ------<br>--- ----- cut --- ------ -------- ----- --- ------ ----- --<br>----- ----- ---------- --- --- ------ ------ ---- -- ------<br>------- --- ------ ----- --- ---- ------- -- ---- --- --<br>------- ------,317872,317860,317495.98,317496,317496.36,317873.34,,24,cut
screen,html.Screen,2_1_1_1_25,2022-02-15T14:11:10.938Z,,,,,,,,,,,,,,,,,54,,,,,,,,,,,,,,375.6599999999744,,response,,,,100,,,,,,,Space,keypress(Space),,,,,,,,-- --- ---- --- ------ ----- ------- ---- -- --- ------- --<br>------- ---------- ------ -- ----- -- ----- -- ---- ------<br>--- ----- --- the ------ -------- ----- --- ------ ----- --<br>----- ----- ---------- --- --- ------ ------ ---- -- ------<br>------- --- ------ ----- --- ---- ------- -- ---- --- --<br>------- ------,318254,318249,317872.9,317873,317873.34,318255.16,,25,the
screen,html.Screen,2_1_1_1_26,2022-02-15T14:11:11.365Z,,,,,,,,,,,,,,,,,54,,,,,,,,,,,,,,416.8400000000256,,response,,,,100,,,,,,,Space,keypress(Space),,,,,,,,-- --- ---- --- ------ ----- ------- ---- -- --- ------- --<br>------- ---------- ------ -- ----- -- ----- -- ---- ------<br>--- ----- --- --- bonds' -------- ----- --- ------ ----- --<br>----- ----- ---------- --- --- ------ ------ ---- -- ------<br>------- --- ------ ----- --- ---- ------- -- ---- --- --<br>------- ------,318681,318672,318254.72,318255,318255.16,318682.2,,26,bonds'
screen,html.Screen,2_1_1_1_27,2022-02-15T14:11:11.956Z,,,,,,,,,,,,,,,,,54,,,,,,,,,,,,,,583.7999999999884,,response,,,,100,,,,,,,Space,keypress(Space),,,,,,,,-- --- ---- --- ------ ----- ------- ---- -- --- ------- --<br>------- ---------- ------ -- ----- -- ----- -- ---- ------<br>--- ----- --- --- ------ interest ----- --- ------ ----- --<br>----- ----- ---------- --- --- ------ ------ ---- -- ------<br>------- --- ------ ----- --- ---- ------- -- ---- --- --<br>------- ------,319272,319266,318681.76,318682,318682.2,319272.84,,27,interest
screen,html.Screen,2_1_1_1_28,2022-02-15T14:11:12.538Z,,,,,,,,,,,,,,,,,54,,,,,,,,,,,,,,571.1599999999744,,response,,,,100,,,,,,,Space,keypress(Space),,,,,,,,-- --- ---- --- ------ ----- ------- ---- -- --- ------- --<br>------- ---------- ------ -- ----- -- ----- -- ---- ------<br>--- ----- --- --- ------ -------- rate. --- ------ ----- --<br>----- ----- ---------- --- --- ------ ------ ---- -- ------<br>------- --- ------ ----- --- ---- ------- -- ---- --- --<br>------- ------,319854,319844,319272.4,319272,319272.84,319854.88,,28,rate.
screen,html.Screen,2_1_1_1_29,2022-02-15T14:11:13.032Z,,,,,,,,,,,,,,,,,54,,,,,,,,,,,,,,489.11999999999534,,response,,,,100,,,,,,,Space,keypress(Space),,,,,,,,-- --- ---- --- ------ ----- ------- ---- -- --- ------- --<br>------- ---------- ------ -- ----- -- ----- -- ---- ------<br>--- ----- --- --- ------ -------- ----- The ------ ----- --<br>----- ----- ---------- --- --- ------ ------ ---- -- ------<br>------- --- ------ ----- --- ---- ------- -- ---- --- --<br>------- ------,320349,320344,319854.44,319855,319854.88,320352.3,,29,The
screen,html.Screen,2_1_1_1_30,2022-02-15T14:11:13.411Z,,,,,,,,,,,,,,,,,54,,,,,,,,,,,,,,365.70000000001164,,response,,,,100,,,,,,,Space,keypress(Space),,,,,,,,-- --- ---- --- ------ ----- ------- ---- -- --- ------- --<br>------- ---------- ------ -- ----- -- ----- -- ---- ------<br>--- ----- --- --- ------ -------- ----- --- market ----- --<br>----- ----- ---------- --- --- ------ ------ ---- -- ------<br>------- --- ------ ----- --- ---- ------- -- ---- --- --<br>------- ------,320728,320718,320349.02,320349,320352.3,320728.64,,30,market
screen,html.Screen,2_1_1_1_31,2022-02-15T14:11:13.810Z,,,,,,,,,,,,,,,,,54,,,,,,,,,,,,,,381.35999999998603,,response,,,,100,,,,,,,Space,keypress(Space),,,,,,,,-- --- ---- --- ------ ----- ------- ---- -- --- ------- --<br>------- ---------- ------ -- ----- -- ----- -- ---- ------<br>--- ----- --- --- ------ -------- ----- --- ------ value --<br>----- ----- ---------- --- --- ------ ------ ---- -- ------<br>------- --- ------ ----- --- ---- ------- -- ---- --- --<br>------- ------,321126,321110,320728.2,320728,320728.64,321126.9,,31,value
screen,html.Screen,2_1_1_1_32,2022-02-15T14:11:14.364Z,,,,,,,,,,,,,,,,,54,,,,,,,,,,,,,,544.0999999999767,,response,,,,100,,,,,,,Space,keypress(Space),,,,,,,,-- --- ---- --- ------ ----- ------- ---- -- --- ------- --<br>------- ---------- ------ -- ----- -- ----- -- ---- ------<br>--- ----- --- --- ------ -------- ----- --- ------ ----- of<br>----- ----- ---------- --- --- ------ ------ ---- -- ------<br>------- --- ------ ----- --- ---- ------- -- ---- --- --<br>------- ------,321680,321671,321126.46,321126,321126.9,321680.6,,32,of
screen,html.Screen,2_1_1_1_33,2022-02-15T14:11:15.121Z,,,,,,,,,,,,,,,,,54,,,,,,,,,,,,,,740.4000000000233,,response,,,,100,,,,,,,Space,keypress(Space),,,,,,,,-- --- ---- --- ------ ----- ------- ---- -- --- ------- --<br>------- ---------- ------ -- ----- -- ----- -- ---- ------<br>--- ----- --- --- ------ -------- ----- --- ------ ----- --<br>these ----- ---------- --- --- ------ ------ ---- -- ------<br>------- --- ------ ----- --- ---- ------- -- ---- --- --<br>------- ------,322436,322421,321680.42,321681,321680.6,322436.78,,33,these
screen,html.Screen,2_1_1_1_34,2022-02-15T14:11:15.716Z,,,,,,,,,,,,,,,,,54,,,,,,,,,,,,,,579.2199999999721,,response,,,,100,,,,,,,Space,keypress(Space),,,,,,,,-- --- ---- --- ------ ----- ------- ---- -- --- ------- --<br>------- ---------- ------ -- ----- -- ----- -- ---- ------<br>--- ----- --- --- ------ -------- ----- --- ------ ----- --<br>----- bonds ---------- --- --- ------ ------ ---- -- ------<br>------- --- ------ ----- --- ---- ------- -- ---- --- --<br>------- ------,323032,323016,322436.56,322436,322436.78,323032.26,,34,bonds
screen,html.Screen,2_1_1_1_35,2022-02-15T14:11:16.765Z,,,,,,,,,,,,,,,,,54,,,,,,,,,,,,,,1030.7399999999907,,response,,,,100,,,,,,,Space,keypress(Space),,,,,,,,"-- --- ---- --- ------ ----- ------- ---- -- --- ------- --<br>------- ---------- ------ -- ----- -- ----- -- ---- ------<br>--- ----- --- --- ------ -------- ----- --- ------ ----- --<br>----- ----- plummeted, --- --- ------ ------ ---- -- ------<br>------- --- ------ ----- --- ---- ------- -- ---- --- --<br>------- ------",324081,324063,323032.06,323032,323032.26,324081.82,,35,"plummeted,"
screen,html.Screen,2_1_1_1_36,2022-02-15T14:11:17.256Z,,,,,,,,,,,,,,,,,54,,,,,,,,,,,,,,480.179999999993,,response,,,,100,,,,,,,Space,keypress(Space),,,,,,,,-- --- ---- --- ------ ----- ------- ---- -- --- ------- --<br>------- ---------- ------ -- ----- -- ----- -- ---- ------<br>--- ----- --- --- ------ -------- ----- --- ------ ----- --<br>----- ----- ---------- and --- ------ ------ ---- -- ------<br>------- --- ------ ----- --- ---- ------- -- ---- --- --<br>------- ------,324572,324562,324081.38,324081,324081.82,324572.94,,36,and
screen,html.Screen,2_1_1_1_37,2022-02-15T14:11:17.625Z,,,,,,,,,,,,,,,,,54,,,,,,,,,,,,,,348.0599999999977,,response,,,,100,,,,,,,Space,keypress(Space),,,,,,,,-- --- ---- --- ------ ----- ------- ---- -- --- ------- --<br>------- ---------- ------ -- ----- -- ----- -- ---- ------<br>--- ----- --- --- ------ -------- ----- --- ------ ----- --<br>----- ----- ---------- --- the ------ ------ ---- -- ------<br>------- --- ------ ----- --- ---- ------- -- ---- --- --<br>------- ------,324941,324921,324572.5,324572,324572.94,324950.7,,37,the
screen,html.Screen,2_1_1_1_38,2022-02-15T14:11:17.986Z,,,,,,,,,,,,,,,,,54,,,,,,,,,,,,,,346.29999999998836,,response,,,,100,,,,,,,Space,keypress(Space),,,,,,,,-- --- ---- --- ------ ----- ------- ---- -- --- ------- --<br>------- ---------- ------ -- ----- -- ----- -- ---- ------<br>--- ----- --- --- ------ -------- ----- --- ------ ----- --<br>----- ----- ---------- --- --- market ------ ---- -- ------<br>------- --- ------ ----- --- ---- ------- -- ---- --- --<br>------- ------,325301,325297,324941.08,324941,324950.7,325302.46,,38,market
screen,html.Screen,2_1_1_1_39,2022-02-15T14:11:18.388Z,,,,,,,,,,,,,,,,,54,,,,,,,,,,,,,,385.53999999997905,,response,,,,100,,,,,,,Space,keypress(Space),,,,,,,,-- --- ---- --- ------ ----- ------- ---- -- --- ------- --<br>------- ---------- ------ -- ----- -- ----- -- ---- ------<br>--- ----- --- --- ------ -------- ----- --- ------ ----- --<br>----- ----- ---------- --- --- ------ became ---- -- ------<br>------- --- ------ ----- --- ---- ------- -- ---- --- --<br>------- ------,325704,325688,325302.02,325301,325302.46,325705.14,,39,became
screen,html.Screen,2_1_1_1_40,2022-02-15T14:11:18.758Z,,,,,,,,,,,,,,,,,54,,,,,,,,,,,,,,356.85999999998603,,response,,,,100,,,,,,,Space,keypress(Space),,,,,,,,-- --- ---- --- ------ ----- ------- ---- -- --- ------- --<br>------- ---------- ------ -- ----- -- ----- -- ---- ------<br>--- ----- --- --- ------ -------- ----- --- ------ ----- --<br>----- ----- ---------- --- --- ------ ------ wary -- ------<br>------- --- ------ ----- --- ---- ------- -- ---- --- --<br>------- ------,326075,326062,325704.7,325704,325705.14,326075.48,,40,wary
screen,html.Screen,2_1_1_1_41,2022-02-15T14:11:19.201Z,,,,,,,,,,,,,,,,,54,,,,,,,,,,,,,,424.5200000000186,,response,,,,100,,,,,,,Space,keypress(Space),,,,,,,,-- --- ---- --- ------ ----- ------- ---- -- --- ------- --<br>------- ---------- ------ -- ----- -- ----- -- ---- ------<br>--- ----- --- --- ------ -------- ----- --- ------ ----- --<br>----- ----- ---------- --- --- ------ ------ ---- of ------<br>------- --- ------ ----- --- ---- ------- -- ---- --- --<br>------- ------,326517,326500,326075.06,326075,326075.48,326519.06,,41,of
screen,html.Screen,2_1_1_1_42,2022-02-15T14:11:19.554Z,,,,,,,,,,,,,,,,,54,,,,,,,,,,,,,,339.9400000000023,,response,,,,100,,,,,,,Space,keypress(Space),,,,,,,,-- --- ---- --- ------ ----- ------- ---- -- --- ------- --<br>------- ---------- ------ -- ----- -- ----- -- ---- ------<br>--- ----- --- --- ------ -------- ----- --- ------ ----- --<br>----- ----- ---------- --- --- ------ ------ ---- -- French<br>------- --- ------ ----- --- ---- ------- -- ---- --- --<br>------- ------,326870,326859,326517.26,326517,326519.06,326870.54,,42,French
screen,html.Screen,2_1_1_1_43,2022-02-15T14:11:20.170Z,,,,,,,,,,,,,,,,,54,,,,,,,,,,,,,,598.460000000021,,response,,,,100,,,,,,,Space,keypress(Space),,,,,,,,-- --- ---- --- ------ ----- ------- ---- -- --- ------- --<br>------- ---------- ------ -- ----- -- ----- -- ---- ------<br>--- ----- --- --- ------ -------- ----- --- ------ ----- --<br>----- ----- ---------- --- --- ------ ------ ---- -- ------<br>credit. --- ------ ----- --- ---- ------- -- ---- --- --<br>------- ------,327485,327469,326870.08,326870,326870.54,327486.1,,43,credit.
screen,html.Screen,2_1_1_1_44,2022-02-15T14:11:20.727Z,,,,,,,,,,,,,,,,,54,,,,,,,,,,,,,,545.9000000000233,,response,,,,100,,,,,,,Space,keypress(Space),,,,,,,,-- --- ---- --- ------ ----- ------- ---- -- --- ------- --<br>------- ---------- ------ -- ----- -- ----- -- ---- ------<br>--- ----- --- --- ------ -------- ----- --- ------ ----- --<br>----- ----- ---------- --- --- ------ ------ ---- -- ------<br>------- The ------ ----- --- ---- ------- -- ---- --- --<br>------- ------,328043,328032,327485.6,327485,327486.1,328043.8,,44,The
screen,html.Screen,2_1_1_1_45,2022-02-15T14:11:21.101Z,,,,,,,,,,,,,,,,,54,,,,,,,,,,,,,,363.20000000001164,,response,,,,100,,,,,,,Space,keypress(Space),,,,,,,,-- --- ---- --- ------ ----- ------- ---- -- --- ------- --<br>------- ---------- ------ -- ----- -- ----- -- ---- ------<br>--- ----- --- --- ------ -------- ----- --- ------ ----- --<br>----- ----- ---------- --- --- ------ ------ ---- -- ------<br>------- --- French ----- --- ---- ------- -- ---- --- --<br>------- ------,328417,328407,328043.38,328044,328043.8,328419.08,,45,French
screen,html.Screen,2_1_1_1_46,2022-02-15T14:11:21.528Z,,,,,,,,,,,,,,,,,54,,,,,,,,,,,,,,408.9199999999837,,response,,,,100,,,,,,,Space,keypress(Space),,,,,,,,-- --- ---- --- ------ ----- ------- ---- -- --- ------- --<br>------- ---------- ------ -- ----- -- ----- -- ---- ------<br>--- ----- --- --- ------ -------- ----- --- ------ ----- --<br>----- ----- ---------- --- --- ------ ------ ---- -- ------<br>------- --- ------ state --- ---- ------- -- ---- --- --<br>------- ------,328844,328828,328417.92,328417,328419.08,328844.72,,46,state
screen,html.Screen,2_1_1_1_47,2022-02-15T14:11:21.978Z,,,,,,,,,,,,,,,,,54,,,,,,,,,,,,,,437.28000000002794,,response,,,,100,,,,,,,Space,keypress(Space),,,,,,,,-- --- ---- --- ------ ----- ------- ---- -- --- ------- --<br>------- ---------- ------ -- ----- -- ----- -- ---- ------<br>--- ----- --- --- ------ -------- ----- --- ------ ----- --<br>----- ----- ---------- --- --- ------ ------ ---- -- ------<br>------- --- ------ ----- was ---- ------- -- ---- --- --<br>------- ------,329295,329282,328844.52,328844,328844.72,329295.56,,47,was
screen,html.Screen,2_1_1_1_48,2022-02-15T14:11:22.342Z,,,,,,,,,,,,,,,,,54,,,,,,,,,,,,,,345.4400000000023,,response,,,,100,,,,,,,Space,keypress(Space),,,,,,,,-- --- ---- --- ------ ----- ------- ---- -- --- ------- --<br>------- ---------- ------ -- ----- -- ----- -- ---- ------<br>--- ----- --- --- ------ -------- ----- --- ------ ----- --<br>----- ----- ---------- --- --- ------ ------ ---- -- ------<br>------- --- ------ ----- --- left ------- -- ---- --- --<br>------- ------,329658,329641,329295.18,329295,329295.56,329659.36,,48,left
screen,html.Screen,2_1_1_1_49,2022-02-15T14:11:22.715Z,,,,,,,,,,,,,,,,,54,,,,,,,,,,,,,,356.64000000001397,,response,,,,100,,,,,,,Space,keypress(Space),,,,,,,,-- --- ---- --- ------ ----- ------- ---- -- --- ------- --<br>------- ---------- ------ -- ----- -- ----- -- ---- ------<br>--- ----- --- --- ------ -------- ----- --- ------ ----- --<br>----- ----- ---------- --- --- ------ ------ ---- -- ------<br>------- --- ------ ----- --- ---- without -- ---- --- --<br>------- ------,330031,330016,329658.98,329659,329659.36,330032.08,,49,without
screen,html.Screen,2_1_1_1_50,2022-02-15T14:11:23.060Z,,,,,,,,,,,,,,,,,54,,,,,,,,,,,,,,327.9199999999837,,response,,,,100,,,,,,,Space,keypress(Space),,,,,,,,-- --- ---- --- ------ ----- ------- ---- -- --- ------- --<br>------- ---------- ------ -- ----- -- ----- -- ---- ------<br>--- ----- --- --- ------ -------- ----- --- ------ ----- --<br>----- ----- ---------- --- --- ------ ------ ---- -- ------<br>------- --- ------ ----- --- ---- ------- an ---- --- --<br>------- ------,330376,330360,330031.72,330032,330032.08,330376.86,,50,an
screen,html.Screen,2_1_1_1_51,2022-02-15T14:11:23.427Z,,,,,,,,,,,,,,,,,54,,,,,,,,,,,,,,358.14000000001397,,response,,,,100,,,,,,,Space,keypress(Space),,,,,,,,-- --- ---- --- ------ ----- ------- ---- -- --- ------- --<br>------- ---------- ------ -- ----- -- ----- -- ---- ------<br>--- ----- --- --- ------ -------- ----- --- ------ ----- --<br>----- ----- ---------- --- --- ------ ------ ---- -- ------<br>------- --- ------ ----- --- ---- ------- -- easy --- --<br>------- ------,330743,330735,330376.48,330377,330376.86,330743.46,,51,easy
screen,html.Screen,2_1_1_1_52,2022-02-15T14:11:23.840Z,,,,,,,,,,,,,,,,,54,,,,,,,,,,,,,,397.53999999997905,,response,,,,100,,,,,,,Space,keypress(Space),,,,,,,,-- --- ---- --- ------ ----- ------- ---- -- --- ------- --<br>------- ---------- ------ -- ----- -- ----- -- ---- ------<br>--- ----- --- --- ------ -------- ----- --- ------ ----- --<br>----- ----- ---------- --- --- ------ ------ ---- -- ------<br>------- --- ------ ----- --- ---- ------- -- ---- way --<br>------- ------,331157,331141,330743.04,330743,330743.46,331157.16,,52,way
screen,html.Screen,2_1_1_1_53,2022-02-15T14:11:26.164Z,,,,,,,,,,,,,,,,,54,,,,,,,,,,,,,,2311.8400000000256,,response,,,,100,,,,,,,Space,keypress(Space),,,,,,,,-- --- ---- --- ------ ----- ------- ---- -- --- ------- --<br>------- ---------- ------ -- ----- -- ----- -- ---- ------<br>--- ----- --- --- ------ -------- ----- --- ------ ----- --<br>----- ----- ---------- --- --- ------ ------ ---- -- ------<br>------- --- ------ ----- --- ---- ------- -- ---- --- of<br>------- ------,333480,333469,331156.92,331157,331157.16,333481.26,,53,of
screen,html.Screen,2_1_1_1_54,2022-02-15T14:11:26.661Z,,,,,,,,,,,,,,,,,54,,,,,,,,,,,,,,486.7399999999907,,response,,,,100,,,,,,,Space,keypress(Space),,,,,,,,-- --- ---- --- ------ ----- ------- ---- -- --- ------- --<br>------- ---------- ------ -- ----- -- ----- -- ---- ------<br>--- ----- --- --- ------ -------- ----- --- ------ ----- --<br>----- ----- ---------- --- --- ------ ------ ---- -- ------<br>------- --- ------ ----- --- ---- ------- -- ---- --- --<br>raising ------,333977,333968,333480.82,333481,333481.26,333978.04,,54,raising
screen,html.Screen,2_1_1_1_55,2022-02-15T14:11:27.043Z,,,,,,,,,,,,,,,,,54,,,,,,,,,,,,,,365.96000000002095,,response,,,,100,,,,,,,Space,keypress(Space),,,,,,,,-- --- ---- --- ------ ----- ------- ---- -- --- ------- --<br>------- ---------- ------ -- ----- -- ----- -- ---- ------<br>--- ----- --- --- ------ -------- ----- --- ------ ----- --<br>----- ----- ---------- --- --- ------ ------ ---- -- ------<br>------- --- ------ ----- --- ---- ------- -- ---- --- --<br>------- money.,334359,334344,333977.8,333977,333978.04,334360.74,,55,money.
Item 100,flow.Loop,2_1_1_1,2022-02-15T14:11:27.043Z,,,,,,,,,,,,,,,,,,,,,,,,,,,,,,,30891.96000000002,,completion,,,,,F,,,,,,,,,,,silence,,,,,334360,334344,303435.38,303438,303452.04,334360.74,,,
Question 1,html.Screen,2_1_1_2,2022-02-15T14:11:33.061Z,,,,,,,,,,,,,,,,,,,,,,,,,,,,true,TRUE,,5998.260000000009,,response,,,,100,F,,,,,,TRUE,click #choice-1,,,,silence,,,,,340377,340359,334360.3,334360,334360.74,340386.04,,,
Question 2,html.Screen,2_1_1_3,2022-02-15T14:11:36.514Z,,,,,,,,,,,,,,,,,,,,,,,,,,,,true,FALSE,,3426.960000000021,,response,,,,100,F,,,,,,FALSE,click #choice-2,,,,silence,,,,,343829,343813,340375.68,340377,340386.04,343836,,,
Item 100,flow.Sequence,2_1_1,2022-02-15T14:11:36.514Z,,,,,,,,,,,,,,,,,,,,,,,,,,,,,,,50361.159999999974,,completion,,,,,,,,,,,,,,,,,,,,,343830,343813,293444.26,293447,293451.84,343836,,,
End of Practice,html.Page,2_1_2,2022-02-15T14:11:47.596Z,,,,,,,,,,,,,,,,,,,,,,,,,,,,,,,11076,,form submission,,,,,,,,,,,,,,,,,,,,,354912,354912,343828.26,343830,343836,354919.54,,,
Practice,flow.Sequence,2_1,2022-02-15T14:11:47.597Z,,,,,,,,,,,,,,,,,,,,,,,,,,,,,,,108694.26000000001,,completion,,,,,,,,,,,,,,,,,,,,,354913,354912,246216.78,246223,246217.74,354919.54,,,
Trap_instruction,html.Page,2_2_0,2022-02-15T14:11:53.654Z,,,,,,,,,,,,,,,,,,,,,,,,,,,,,,,6049.460000000021,,form submission,,,,,,,,,,,,,,,,,,,,,360970,360969,354908.58,354914,354919.54,361036.22,,,
trap_trial,html.Screen,2_2_1,2022-02-15T14:11:58.510Z,,,,,,,,,,,,,,,,,,,,,,,,,,,,true,1,,4776.780000000028,,response,,,,,,,,,,,1,click #choice-1,,,,,,,,,365826,365813,360966.14,360970,361036.22,365836.4,,,
end of trap trial,html.Page,2_2_2,2022-02-15T14:12:02.917Z,,,,,,,,,,,,,,,,,,,,,,,,,,,,,,,4394.599999999977,,form submission,,,,,,,,,,,,,,,,,,,,,370234,370231,365824.76,365826,365836.4,370236.46,,,
Trap 1,flow.Sequence,2_2,2022-02-15T14:12:02.918Z,,,,,,,,,,,,,,,,,,,,,,,,,,,,,,,15311.460000000021,,completion,,,,,,,,,,,,,,,,,,,,,370234,370231,354908.58,354913,354919.54,370236.46,,,
Standby,html.Page,2_3_0,2022-02-15T14:12:10.905Z,,,,,,,,,,,,,,,,,,,,,,,,,,,,,,,8000.179999999993,,timeout,,,,,,,,,,,,,,,,,,,,,378221,378219.96,370224.76,370235,370236.46,378236.64,,,
Holding screen,html.Screen,2_3_1_0_0,2022-02-15T14:12:17.905Z,,,,,,,,,,,,,,,,,,,,,,,,,,,,,,,7000.01999999996,,timeout,,,,,,,,,,,,,,,,,,,,,385221,385220.04,378219.96,378222,378236.64,385236.66,,,
screen,html.Screen,2_3_1_0_1_0,2022-02-15T14:12:21.565Z,,,,,,,,,,,,,,,,,11,,,,,,,,,,,,,,3638.3400000000256,,response,,,,4,F,,,,,,Space,keypress(Space),,,,instrumental,,,,Known -- ---- --- -- --- -------- ------------ ---------- --<br>- ------- ------ --------- -- ------------ -- --- ---- -----<br>------ ---- ---- ------ ------ ------- --- ----- ---------<br>---- --- -------- -------- --- --- -- ------- --- --- -----<br>-- --- ------ ------- --- --- -------- ---- --------- --<br>---------- -- -------- ----------------,388881,388875,385220.04,385222,385236.66,388882.42,,0,Known
screen,html.Screen,2_3_1_0_1_1,2022-02-15T14:12:22.075Z,,,,,,,,,,,,,,,,,11,,,,,,,,,,,,,,491.5800000000163,,response,,,,4,F,,,,,,Space,keypress(Space),,,,instrumental,,,,----- as ---- --- -- --- -------- ------------ ---------- --<br>- ------- ------ --------- -- ------------ -- --- ---- -----<br>------ ---- ---- ------ ------ ------- --- ----- ---------<br>---- --- -------- -------- --- --- -- ------- --- --- -----<br>-- --- ------ ------- --- --- -------- ---- --------- --<br>---------- -- -------- ----------------,389391,389374,388881.98,388881,388882.42,389391.72,,1,as
screen,html.Screen,2_3_1_0_1_2,2022-02-15T14:12:22.376Z,,,,,,,,,,,,,,,,,11,,,,,,,,,,,,,,295.28000000002794,,response,,,,4,F,,,,,,Space,keypress(Space),,,,instrumental,,,,----- -- Rapa --- -- --- -------- ------------ ---------- --<br>- ------- ------ --------- -- ------------ -- --- ---- -----<br>------ ---- ---- ------ ------ ------- --- ----- ---------<br>---- --- -------- -------- --- --- -- ------- --- --- -----<br>-- --- ------ ------- --- --- -------- ---- --------- --<br>---------- -- -------- ----------------,389693,389687,389391.26,389391,389391.72,389693.84,,2,Rapa
screen,html.Screen,2_3_1_0_1_3,2022-02-15T14:12:22.944Z,,,,,,,,,,,,,,,,,11,,,,,,,,,,,,,,556.1599999999744,,response,,,,4,F,,,,,,Space,keypress(Space),,,,instrumental,,,,----- -- ---- Nui -- --- -------- ------------ ---------- --<br>- ------- ------ --------- -- ------------ -- --- ---- -----<br>------ ---- ---- ------ ------ ------- --- ----- ---------<br>---- --- -------- -------- --- --- -- ------- --- --- -----<br>-- --- ------ ------- --- --- -------- ---- --------- --<br>---------- -- -------- ----------------,390261,390250,389693.4,389693,389693.84,390261.16,,3,Nui
screen,html.Screen,2_3_1_0_1_4,2022-02-15T14:12:24.271Z,,,,,,,,,,,,,,,,,11,,,,,,,,,,,,,,1317.8400000000256,,response,,,,4,F,,,,,,Space,keypress(Space),,,,instrumental,,,,----- -- ---- --- to --- -------- ------------ ---------- --<br>- ------- ------ --------- -- ------------ -- --- ---- -----<br>------ ---- ---- ------ ------ ------- --- ----- ---------<br>---- --- -------- -------- --- --- -- ------- --- --- -----<br>-- --- ------ ------- --- --- -------- ---- --------- --<br>---------- -- -------- ----------------,391587,391579,390260.68,390261,390261.16,391588.32,,4,to
screen,html.Screen,2_3_1_0_1_5,2022-02-15T14:12:24.771Z,,,,,,,,,,,,,,,,,11,,,,,,,,,,,,,,489.679999999993,,response,,,,4,F,,,,,,Space,keypress(Space),,,,instrumental,,,,----- -- ---- --- -- the -------- ------------ ---------- --<br>- ------- ------ --------- -- ------------ -- --- ---- -----<br>------ ---- ---- ------ ------ ------- --- ----- ---------<br>---- --- -------- -------- --- --- -- ------- --- --- -----<br>-- --- ------ ------- --- --- -------- ---- --------- --<br>---------- -- -------- ----------------,392087,392078,391587.86,391588,391588.32,392088.16,,5,the
screen,html.Screen,2_3_1_0_1_6,2022-02-15T14:12:25.306Z,,,,,,,,,,,,,,,,,11,,,,,,,,,,,,,,521.8400000000256,,response,,,,4,F,,,,,,Space,keypress(Space),,,,instrumental,,,,----- -- ---- --- -- --- island's ------------ ---------- --<br>- ------- ------ --------- -- ------------ -- --- ---- -----<br>------ ---- ---- ------ ------ ------- --- ----- ---------<br>---- --- -------- -------- --- --- -- ------- --- --- -----<br>-- --- ------ ------- --- --- -------- ---- --------- --<br>---------- -- -------- ----------------,392622,392610,392087.72,392088,392088.16,392623.9,,6,island's
screen,html.Screen,2_3_1_0_1_7,2022-02-15T14:12:25.879Z,,,,,,,,,,,,,,,,,11,,,,,,,,,,,,,,563.0999999999767,,response,,,,4,F,,,,,,Space,keypress(Space),,,,instrumental,,,,"----- -- ---- --- -- --- -------- inhabitants, ---------- --<br>- ------- ------ --------- -- ------------ -- --- ---- -----<br>------ ---- ---- ------ ------ ------- --- ----- ---------<br>---- --- -------- -------- --- --- -- ------- --- --- -----<br>-- --- ------ ------- --- --- -------- ---- --------- --<br>---------- -- -------- ----------------",393196,393187,392623.44,392623,392623.9,393196.84,,7,"inhabitants,"
screen,html.Screen,2_3_1_0_1_8,2022-02-15T14:12:26.545Z,,,,,,,,,,,,,,,,,11,,,,,,,,,,,,,,647.1599999999744,,response,,,,4,F,,,,,,Space,keypress(Space),,,,instrumental,,,,----- -- ---- --- -- --- -------- ------------ Rongorongo --<br>- ------- ------ --------- -- ------------ -- --- ---- -----<br>------ ---- ---- ------ ------ ------- --- ----- ---------<br>---- --- -------- -------- --- --- -- ------- --- --- -----<br>-- --- ------ ------- --- --- -------- ---- --------- --<br>---------- -- -------- ----------------,393862,393844,393196.4,393196,393196.84,393862.76,,8,Rongorongo
screen,html.Screen,2_3_1_0_1_9,2022-02-15T14:12:27.015Z,,,,,,,,,,,,,,,,,11,,,,,,,,,,,,,,465.2399999999907,,response,,,,4,F,,,,,,Space,keypress(Space),,,,instrumental,,,,----- -- ---- --- -- --- -------- ------------ ---------- is<br>- ------- ------ --------- -- ------------ -- --- ---- -----<br>------ ---- ---- ------ ------ ------- --- ----- ---------<br>---- --- -------- -------- --- --- -- ------- --- --- -----<br>-- --- ------ ------- --- --- -------- ---- --------- --<br>---------- -- -------- ----------------,394332,394328,393862.32,393862,393862.76,394332.68,,9,is
screen,html.Screen,2_3_1_0_1_10,2022-02-15T14:12:27.399Z,,,,,,,,,,,,,,,,,11,,,,,,,,,,,,,,370.320000000007,,response,,,,4,F,,,,,,Space,keypress(Space),,,,instrumental,,,,----- -- ---- --- -- --- -------- ------------ ---------- --<br>a ------- ------ --------- -- ------------ -- --- ---- -----<br>------ ---- ---- ------ ------ ------- --- ----- ---------<br>---- --- -------- -------- --- --- -- ------- --- --- -----<br>-- --- ------ ------- --- --- -------- ---- --------- --<br>---------- -- -------- ----------------,394716,394703,394332.26,394332,394332.68,394716.9,,10,a
screen,html.Screen,2_3_1_0_1_11,2022-02-15T14:12:28.027Z,,,,,,,,,,,,,,,,,11,,,,,,,,,,,,,,611.0999999999767,,response,,,,4,F,,,,,,Space,keypress(Space),,,,instrumental,,,,----- -- ---- --- -- --- -------- ------------ ---------- --<br>- writing ------ --------- -- ------------ -- --- ---- -----<br>------ ---- ---- ------ ------ ------- --- ----- ---------<br>---- --- -------- -------- --- --- -- ------- --- --- -----<br>-- --- ------ ------- --- --- -------- ---- --------- --<br>---------- -- -------- ----------------,395343,395328,394716.46,394716,394716.9,395344.62,,11,writing
screen,html.Screen,2_3_1_0_1_12,2022-02-15T14:12:28.758Z,,,,,,,,,,,,,,,,,11,,,,,,,,,,,,,,717.3800000000047,,response,,,,4,F,,,,,,Space,keypress(Space),,,,instrumental,,,,----- -- ---- --- -- --- -------- ------------ ---------- --<br>- ------- system --------- -- ------------ -- --- ---- -----<br>------ ---- ---- ------ ------ ------- --- ----- ---------<br>---- --- -------- -------- --- --- -- ------- --- --- -----<br>-- --- ------ ------- --- --- -------- ---- --------- --<br>---------- -- -------- ----------------,396073,396062,395344.18,395344,395344.62,396074.6,,12,system
screen,html.Screen,2_3_1_0_1_13,2022-02-15T14:12:29.509Z,,,,,,,,,,,,,,,,,11,,,,,,,,,,,,,,738.4000000000233,,response,,,,4,F,,,,,,Space,keypress(Space),,,,instrumental,,,,----- -- ---- --- -- --- -------- ------------ ---------- --<br>- ------- ------ comprised -- ------------ -- --- ---- -----<br>------ ---- ---- ------ ------ ------- --- ----- ---------<br>---- --- -------- -------- --- --- -- ------- --- --- -----<br>-- --- ------ ------- --- --- -------- ---- --------- --<br>---------- -- -------- ----------------,396825,396813,396074.16,396074,396074.6,396825.96,,13,comprised
screen,html.Screen,2_3_1_0_1_14,2022-02-15T14:12:30.050Z,,,,,,,,,,,,,,,,,11,,,,,,,,,,,,,,534.039999999979,,response,,,,4,F,,,,,,Space,keypress(Space),,,,instrumental,,,,----- -- ---- --- -- --- -------- ------------ ---------- --<br>- ------- ------ --------- of ------------ -- --- ---- -----<br>------ ---- ---- ------ ------ ------- --- ----- ---------<br>---- --- -------- -------- --- --- -- ------- --- --- -----<br>-- --- ------ ------- --- --- -------- ---- --------- --<br>---------- -- -------- ----------------,397366,397360,396825.54,396825,396825.96,397370.26,,14,of
screen,html.Screen,2_3_1_0_1_15,2022-02-15T14:12:31.512Z,,,,,,,,,,,,,,,,,11,,,,,,,,,,,,,,1442.7399999999907,,response,,,,4,F,,,,,,Space,keypress(Space),,,,instrumental,,,,----- -- ---- --- -- --- -------- ------------ ---------- --<br>- ------- ------ --------- -- pictographs. -- --- ---- -----<br>------ ---- ---- ------ ------ ------- --- ----- ---------<br>---- --- -------- -------- --- --- -- ------- --- --- -----<br>-- --- ------ ------- --- --- -------- ---- --------- --<br>---------- -- -------- ----------------,398828,398813,397366.72,397367,397370.26,398829.38,,15,pictographs.
screen,html.Screen,2_3_1_0_1_16,2022-02-15T14:12:32.197Z,,,,,,,,,,,,,,,,,11,,,,,,,,,,,,,,669.6199999999953,,response,,,,4,F,,,,,,Space,keypress(Space),,,,instrumental,,,,----- -- ---- --- -- --- -------- ------------ ---------- --<br>- ------- ------ --------- -- ------------ It --- ---- -----<br>------ ---- ---- ------ ------ ------- --- ----- ---------<br>---- --- -------- -------- --- --- -- ------- --- --- -----<br>-- --- ------ ------- --- --- -------- ---- --------- --<br>---------- -- -------- ----------------,399514,399499,398828.86,398829,398829.38,399514.96,,16,It
screen,html.Screen,2_3_1_0_1_17,2022-02-15T14:12:32.910Z,,,,,,,,,,,,,,,,,11,,,,,,,,,,,,,,704.039999999979,,response,,,,4,F,,,,,,Space,keypress(Space),,,,instrumental,,,,----- -- ---- --- -- --- -------- ------------ ---------- --<br>- ------- ------ --------- -- ------------ -- has ---- -----<br>------ ---- ---- ------ ------ ------- --- ----- ---------<br>---- --- -------- -------- --- --- -- ------- --- --- -----<br>-- --- ------ ------- --- --- -------- ---- --------- --<br>---------- -- -------- ----------------,400226,400219,399514.52,399515,399514.96,400227.4,,17,has
screen,html.Screen,2_3_1_0_1_18,2022-02-15T14:12:33.417Z,,,,,,,,,,,,,,,,,11,,,,,,,,,,,,,,490.5999999999767,,response,,,,4,F,,,,,,Space,keypress(Space),,,,instrumental,,,,----- -- ---- --- -- --- -------- ------------ ---------- --<br>- ------- ------ --------- -- ------------ -- --- been -----<br>------ ---- ---- ------ ------ ------- --- ----- ---------<br>---- --- -------- -------- --- --- -- ------- --- --- -----<br>-- --- ------ ------- --- --- -------- ---- --------- --<br>---------- -- -------- ----------------,400733,400718,400226.96,400226,400227.4,400733.64,,18,been
screen,html.Screen,2_3_1_0_1_19,2022-02-15T14:12:33.918Z,,,,,,,,,,,,,,,,,11,,,,,,,,,,,,,,485.35999999998603,,response,,,,4,F,,,,,,Space,keypress(Space),,,,instrumental,,,,----- -- ---- --- -- --- -------- ------------ ---------- --<br>- ------- ------ --------- -- ------------ -- --- ---- found<br>------ ---- ---- ------ ------ ------- --- ----- ---------<br>---- --- -------- -------- --- --- -- ------- --- --- -----<br>-- --- ------ ------- --- --- -------- ---- --------- --<br>---------- -- -------- ----------------,401234,401219,400733.22,400733,400733.64,401237,,19,found
screen,html.Screen,2_3_1_0_1_20,2022-02-15T14:12:34.485Z,,,,,,,,,,,,,,,,,11,,,,,,,,,,,,,,559,,response,,,,4,F,,,,,,Space,keypress(Space),,,,instrumental,,,,----- -- ---- --- -- --- -------- ------------ ---------- --<br>- ------- ------ --------- -- ------------ -- --- ---- -----<br>carved ---- ---- ------ ------ ------- --- ----- ---------<br>---- --- -------- -------- --- --- -- ------- --- --- -----<br>-- --- ------ ------- --- --- -------- ---- --------- --<br>---------- -- -------- ----------------,401801,401796,401234.12,401234,401237,401803.64,,20,carved
screen,html.Screen,2_3_1_0_1_21,2022-02-15T14:12:35.160Z,,,,,,,,,,,,,,,,,11,,,,,,,,,,,,,,665.359999999986,,response,,,,4,F,,,,,,Space,keypress(Space),,,,instrumental,,,,----- -- ---- --- -- --- -------- ------------ ---------- --<br>- ------- ------ --------- -- ------------ -- --- ---- -----<br>------ into ---- ------ ------ ------- --- ----- ---------<br>---- --- -------- -------- --- --- -- ------- --- --- -----<br>-- --- ------ ------- --- --- -------- ---- --------- --<br>---------- -- -------- ----------------,402476,402469,401801.86,401801,401803.64,402477.42,,21,into
screen,html.Screen,2_3_1_0_1_22,2022-02-15T14:12:35.723Z,,,,,,,,,,,,,,,,,11,,,,,,,,,,,,,,553.5800000000163,,response,,,,4,F,,,,,,Space,keypress(Space),,,,instrumental,,,,----- -- ---- --- -- --- -------- ------------ ---------- --<br>- ------- ------ --------- -- ------------ -- --- ---- -----<br>------ ---- many ------ ------ ------- --- ----- ---------<br>---- --- -------- -------- --- --- -- ------- --- --- -----<br>-- --- ------ ------- --- --- -------- ---- --------- --<br>---------- -- -------- ----------------,403039,403031,402476.96,402477,402477.42,403040.32,,22,many
screen,html.Screen,2_3_1_0_1_23,2022-02-15T14:12:36.400Z,,,,,,,,,,,,,,,,,11,,,,,,,,,,,,,,662.679999999993,,response,,,,4,F,,,,,,Space,keypress(Space),,,,instrumental,,,,----- -- ---- --- -- --- -------- ------------ ---------- --<br>- ------- ------ --------- -- ------------ -- --- ---- -----<br>------ ---- ---- oblong ------ ------- --- ----- ---------<br>---- --- -------- -------- --- --- -- ------- --- --- -----<br>-- --- ------ ------- --- --- -------- ---- --------- --<br>---------- -- -------- ----------------,403716,403703,403039.86,403040,403040.32,403720.36,,23,oblong
screen,html.Screen,2_3_1_0_1_24,2022-02-15T14:12:37.120Z,,,,,,,,,,,,,,,,,11,,,,,,,,,,,,,,701.640000000014,,response,,,,4,F,,,,,,Space,keypress(Space),,,,instrumental,,,,----- -- ---- --- -- --- -------- ------------ ---------- --<br>- ------- ------ --------- -- ------------ -- --- ---- -----<br>------ ---- ---- ------ wooden ------- --- ----- ---------<br>---- --- -------- -------- --- --- -- ------- --- --- -----<br>-- --- ------ ------- --- --- -------- ---- --------- --<br>---------- -- -------- ----------------,404436,404422,403716.74,403717,403720.36,404437.28,,24,wooden
screen,html.Screen,2_3_1_0_1_25,2022-02-15T14:12:37.630Z,,,,,,,,,,,,,,,,,11,,,,,,,,,,,,,,499.71999999997206,,response,,,,4,F,,,,,,Space,keypress(Space),,,,instrumental,,,,----- -- ---- --- -- --- -------- ------------ ---------- --<br>- ------- ------ --------- -- ------------ -- --- ---- -----<br>------ ---- ---- ------ ------ tablets --- ----- ---------<br>---- --- -------- -------- --- --- -- ------- --- --- -----<br>-- --- ------ ------- --- --- -------- ---- --------- --<br>---------- -- -------- ----------------,404946,404937,404436.86,404437,404437.28,404946.74,,25,tablets
screen,html.Screen,2_3_1_0_1_26,2022-02-15T14:12:38.700Z,,,,,,,,,,,,,,,,,11,,,,,,,,,,,,,,1053.2600000000093,,response,,,,4,F,,,,,,Space,keypress(Space),,,,instrumental,,,,----- -- ---- --- -- --- -------- ------------ ---------- --<br>- ------- ------ --------- -- ------------ -- --- ---- -----<br>------ ---- ---- ------ ------ ------- and ----- ---------<br>---- --- -------- -------- --- --- -- ------- --- --- -----<br>-- --- ------ ------- --- --- -------- ---- --------- --<br>---------- -- -------- ----------------,406015,406000,404946.48,404946,404946.74,406016,,26,and
screen,html.Screen,2_3_1_0_1_27,2022-02-15T14:12:39.199Z,,,,,,,,,,,,,,,,,11,,,,,,,,,,,,,,484,,response,,,,4,F,,,,,,Space,keypress(Space),,,,instrumental,,,,----- -- ---- --- -- --- -------- ------------ ---------- --<br>- ------- ------ --------- -- ------------ -- --- ---- -----<br>------ ---- ---- ------ ------ ------- --- other ---------<br>---- --- -------- -------- --- --- -- ------- --- --- -----<br>-- --- ------ ------- --- --- -------- ---- --------- --<br>---------- -- -------- ----------------,406515,406500,406015.72,406015,406016,406516.34,,27,other
screen,html.Screen,2_3_1_0_1_28,2022-02-15T14:12:40.102Z,,,,,,,,,,,,,,,,,11,,,,,,,,,,,,,,890.6599999999744,,response,,,,4,F,,,,,,Space,keypress(Space),,,,instrumental,,,,----- -- ---- --- -- --- -------- ------------ ---------- --<br>- ------- ------ --------- -- ------------ -- --- ---- -----<br>------ ---- ---- ------ ------ ------- --- ----- artifacts<br>---- --- -------- -------- --- --- -- ------- --- --- -----<br>-- --- ------ ------- --- --- -------- ---- --------- --<br>---------- -- -------- ----------------,407418,407407,406515.9,406516,406516.34,407418.86,,28,artifacts
screen,html.Screen,2_3_1_0_1_29,2022-02-15T14:12:40.600Z,,,,,,,,,,,,,,,,,11,,,,,,,,,,,,,,487.14000000001397,,response,,,,4,F,,,,,,Space,keypress(Space),,,,instrumental,,,,----- -- ---- --- -- --- -------- ------------ ---------- --<br>- ------- ------ --------- -- ------------ -- --- ---- -----<br>------ ---- ---- ------ ------ ------- --- ----- ---------<br>from --- -------- -------- --- --- -- ------- --- --- -----<br>-- --- ------ ------- --- --- -------- ---- --------- --<br>---------- -- -------- ----------------,407915,407906,407418.66,407418,407418.86,407916.48,,29,from
screen,html.Screen,2_3_1_0_1_30,2022-02-15T14:12:41.013Z,,,,,,,,,,,,,,,,,11,,,,,,,,,,,,,,395.5200000000186,,response,,,,4,F,,,,,,Space,keypress(Space),,,,instrumental,,,,----- -- ---- --- -- --- -------- ------------ ---------- --<br>- ------- ------ --------- -- ------------ -- --- ---- -----<br>------ ---- ---- ------ ------ ------- --- ----- ---------<br>---- the -------- -------- --- --- -- ------- --- --- -----<br>-- --- ------ ------- --- --- -------- ---- --------- --<br>---------- -- -------- ----------------,408329,408312,407916.06,407916,407916.48,408330.3,,30,the
screen,html.Screen,2_3_1_0_1_31,2022-02-15T14:12:41.675Z,,,,,,,,,,,,,,,,,11,,,,,,,,,,,,,,654.7000000000116,,response,,,,4,F,,,,,,Space,keypress(Space),,,,instrumental,,,,----- -- ---- --- -- --- -------- ------------ ---------- --<br>- ------- ------ --------- -- ------------ -- --- ---- -----<br>------ ---- ---- ------ ------ ------- --- ----- ---------<br>---- --- island's -------- --- --- -- ------- --- --- -----<br>-- --- ------ ------- --- --- -------- ---- --------- --<br>---------- -- -------- ----------------,408990,408985,408329.9,408330,408330.3,408991.18,,31,island's
screen,html.Screen,2_3_1_0_1_32,2022-02-15T14:12:42.462Z,,,,,,,,,,,,,,,,,11,,,,,,,,,,,,,,773.820000000007,,response,,,,4,F,,,,,,Space,keypress(Space),,,,instrumental,,,,----- -- ---- --- -- --- -------- ------------ ---------- --<br>- ------- ------ --------- -- ------------ -- --- ---- -----<br>------ ---- ---- ------ ------ ------- --- ----- ---------<br>---- --- -------- history. --- --- -- ------- --- --- -----<br>-- --- ------ ------- --- --- -------- ---- --------- --<br>---------- -- -------- ----------------,409779,409765,408990.98,408991,408991.18,409778.82,,32,history.
screen,html.Screen,2_3_1_0_1_33,2022-02-15T14:12:43.006Z,,,,,,,,,,,,,,,,,11,,,,,,,,,,,,,,533.179999999993,,response,,,,4,F,,,,,,Space,keypress(Space),,,,instrumental,,,,----- -- ---- --- -- --- -------- ------------ ---------- --<br>- ------- ------ --------- -- ------------ -- --- ---- -----<br>------ ---- ---- ------ ------ ------- --- ----- ---------<br>---- --- -------- -------- The --- -- ------- --- --- -----<br>-- --- ------ ------- --- --- -------- ---- --------- --<br>---------- -- -------- ----------------,410322,410312,409778.58,409779,409778.82,410322.8,,33,The
screen,html.Screen,2_3_1_0_1_34,2022-02-15T14:12:43.549Z,,,,,,,,,,,,,,,,,11,,,,,,,,,,,,,,536.2000000000116,,response,,,,4,F,,,,,,Space,keypress(Space),,,,instrumental,,,,----- -- ---- --- -- --- -------- ------------ ---------- --<br>- ------- ------ --------- -- ------------ -- --- ---- -----<br>------ ---- ---- ------ ------ ------- --- ----- ---------<br>---- --- -------- -------- --- art -- ------- --- --- -----<br>-- --- ------ ------- --- --- -------- ---- --------- --<br>---------- -- -------- ----------------,410865,410859,410322.58,410322,410322.8,410865.82,,34,art
screen,html.Screen,2_3_1_0_1_35,2022-02-15T14:12:44.205Z,,,,,,,,,,,,,,,,,11,,,,,,,,,,,,,,650.179999999993,,response,,,,4,F,,,,,,Space,keypress(Space),,,,instrumental,,,,----- -- ---- --- -- --- -------- ------------ ---------- --<br>- ------- ------ --------- -- ------------ -- --- ---- -----<br>------ ---- ---- ------ ------ ------- --- ----- ---------<br>---- --- -------- -------- --- --- of ------- --- --- -----<br>-- --- ------ ------- --- --- -------- ---- --------- --<br>---------- -- -------- ----------------,411522,411516,410865.58,410865,410865.82,411521.64,,35,of
screen,html.Screen,2_3_1_0_1_36,2022-02-15T14:12:44.978Z,,,,,,,,,,,,,,,,,11,,,,,,,,,,,,,,760.359999999986,,response,,,,4,F,,,,,,Space,keypress(Space),,,,instrumental,,,,----- -- ---- --- -- --- -------- ------------ ---------- --<br>- ------- ------ --------- -- ------------ -- --- ---- -----<br>------ ---- ---- ------ ------ ------- --- ----- ---------<br>---- --- -------- -------- --- --- -- writing --- --- -----<br>-- --- ------ ------- --- --- -------- ---- --------- --<br>---------- -- -------- ----------------,412294,412282,411521.36,411522,411521.64,412294.92,,36,writing
screen,html.Screen,2_3_1_0_1_37,2022-02-15T14:12:45.643Z,,,,,,,,,,,,,,,,,11,,,,,,,,,,,,,,659.0800000000163,,response,,,,4,F,,,,,,Space,keypress(Space),,,,instrumental,,,,----- -- ---- --- -- --- -------- ------------ ---------- --<br>- ------- ------ --------- -- ------------ -- --- ---- -----<br>------ ---- ---- ------ ------ ------- --- ----- ---------<br>---- --- -------- -------- --- --- -- ------- was --- -----<br>-- --- ------ ------- --- --- -------- ---- --------- --<br>---------- -- -------- ----------------,412959,412954,412294.54,412295,412294.92,412959.7,,37,was
screen,html.Screen,2_3_1_0_1_38,2022-02-15T14:12:46.241Z,,,,,,,,,,,,,,,,,11,,,,,,,,,,,,,,587.2999999999884,,response,,,,4,F,,,,,,Space,keypress(Space),,,,instrumental,,,,----- -- ---- --- -- --- -------- ------------ ---------- --<br>- ------- ------ --------- -- ------------ -- --- ---- -----<br>------ ---- ---- ------ ------ ------- --- ----- ---------<br>---- --- -------- -------- --- --- -- ------- --- not -----<br>-- --- ------ ------- --- --- -------- ---- --------- --<br>---------- -- -------- ----------------,413556,413547,412959.22,412959,412959.7,413557.8,,38,not
screen,html.Screen,2_3_1_0_1_39,2022-02-15T14:12:46.792Z,,,,,,,,,,,,,,,,,11,,,,,,,,,,,,,,535.2000000000116,,response,,,,4,F,,,,,,Space,keypress(Space),,,,instrumental,,,,----- -- ---- --- -- --- -------- ------------ ---------- --<br>- ------- ------ --------- -- ------------ -- --- ---- -----<br>------ ---- ---- ------ ------ ------- --- ----- ---------<br>---- --- -------- -------- --- --- -- ------- --- --- known<br>-- --- ------ ------- --- --- -------- ---- --------- --<br>---------- -- -------- ----------------,414108,414093,413557.36,413557,413557.8,414108.52,,39,known
screen,html.Screen,2_3_1_0_1_40,2022-02-15T14:12:47.271Z,,,,,,,,,,,,,,,,,11,,,,,,,,,,,,,,470.4799999999814,,response,,,,4,F,,,,,,Space,keypress(Space),,,,instrumental,,,,----- -- ---- --- -- --- -------- ------------ ---------- --<br>- ------- ------ --------- -- ------------ -- --- ---- -----<br>------ ---- ---- ------ ------ ------- --- ----- ---------<br>---- --- -------- -------- --- --- -- ------- --- --- -----<br>in --- ------ ------- --- --- -------- ---- --------- --<br>---------- -- -------- ----------------,414587,414579,414108.26,414109,414108.52,414587.26,,40,in
screen,html.Screen,2_3_1_0_1_41,2022-02-15T14:12:47.855Z,,,,,,,,,,,,,,,,,11,,,,,,,,,,,,,,568.7399999999907,,response,,,,4,F,,,,,,Space,keypress(Space),,,,instrumental,,,,----- -- ---- --- -- --- -------- ------------ ---------- --<br>- ------- ------ --------- -- ------------ -- --- ---- -----<br>------ ---- ---- ------ ------ ------- --- ----- ---------<br>---- --- -------- -------- --- --- -- ------- --- --- -----<br>-- any ------ ------- --- --- -------- ---- --------- --<br>---------- -- -------- ----------------,415172,415156,414587.04,414587,414587.26,415172.1,,41,any
screen,html.Screen,2_3_1_0_1_42,2022-02-15T14:12:48.278Z,,,,,,,,,,,,,,,,,11,,,,,,,,,,,,,,405.9000000000233,,response,,,,4,F,,,,,,Space,keypress(Space),,,,instrumental,,,,----- -- ---- --- -- --- -------- ------------ ---------- --<br>- ------- ------ --------- -- ------------ -- --- ---- -----<br>------ ---- ---- ------ ------ ------- --- ----- ---------<br>---- --- -------- -------- --- --- -- ------- --- --- -----<br>-- --- nearby ------- --- --- -------- ---- --------- --<br>---------- -- -------- ----------------,415594,415578,415171.84,415172,415172.1,415594.54,,42,nearby
screen,html.Screen,2_3_1_0_1_43,2022-02-15T14:12:48.702Z,,,,,,,,,,,,,,,,,11,,,,,,,,,,,,,,420.46000000002095,,response,,,,4,F,,,,,,Space,keypress(Space),,,,instrumental,,,,----- -- ---- --- -- --- -------- ------------ ---------- --<br>- ------- ------ --------- -- ------------ -- --- ---- -----<br>------ ---- ---- ------ ------ ------- --- ----- ---------<br>---- --- -------- -------- --- --- -- ------- --- --- -----<br>-- --- ------ islands --- --- -------- ---- --------- --<br>---------- -- -------- ----------------,416018,416015,415594.32,415594,415594.54,416018.82,,43,islands
screen,html.Screen,2_3_1_0_1_44,2022-02-15T14:12:49.350Z,,,,,,,,,,,,,,,,,11,,,,,,,,,,,,,,637.179999999993,,response,,,,4,F,,,,,,Space,keypress(Space),,,,instrumental,,,,----- -- ---- --- -- --- -------- ------------ ---------- --<br>- ------- ------ --------- -- ------------ -- --- ---- -----<br>------ ---- ---- ------ ------ ------- --- ----- ---------<br>---- --- -------- -------- --- --- -- ------- --- --- -----<br>-- --- ------ ------- and --- -------- ---- --------- --<br>---------- -- -------- ----------------,416666,416656,416018.64,416018,416018.82,416666.58,,44,and
screen,html.Screen,2_3_1_0_1_45,2022-02-15T14:12:49.995Z,,,,,,,,,,,,,,,,,11,,,,,,,,,,,,,,630.4199999999837,,response,,,,4,F,,,,,,Space,keypress(Space),,,,instrumental,,,,----- -- ---- --- -- --- -------- ------------ ---------- --<br>- ------- ------ --------- -- ------------ -- --- ---- -----<br>------ ---- ---- ------ ------ ------- --- ----- ---------<br>---- --- -------- -------- --- --- -- ------- --- --- -----<br>-- --- ------ ------- --- the -------- ---- --------- --<br>---------- -- -------- ----------------,417310,417297,416666.34,416666,416666.58,417311.4,,45,the
screen,html.Screen,2_3_1_0_1_46,2022-02-15T14:12:50.508Z,,,,,,,,,,,,,,,,,11,,,,,,,,,,,,,,501.5999999999767,,response,,,,4,F,,,,,,Space,keypress(Space),,,,instrumental,,,,----- -- ---- --- -- --- -------- ------------ ---------- --<br>- ------- ------ --------- -- ------------ -- --- ---- -----<br>------ ---- ---- ------ ------ ------- --- ----- ---------<br>---- --- -------- -------- --- --- -- ------- --- --- -----<br>-- --- ------ ------- --- --- script's ---- --------- --<br>---------- -- -------- ----------------,417824,417813,417311.16,417312,417311.4,417824.56,,46,script's
screen,html.Screen,2_3_1_0_1_47,2022-02-15T14:12:51.130Z,,,,,,,,,,,,,,,,,11,,,,,,,,,,,,,,612.4400000000023,,response,,,,4,F,,,,,,Space,keypress(Space),,,,instrumental,,,,----- -- ---- --- -- --- -------- ------------ ---------- --<br>- ------- ------ --------- -- ------------ -- --- ---- -----<br>------ ---- ---- ------ ------ ------- --- ----- ---------<br>---- --- -------- -------- --- --- -- ------- --- --- -----<br>-- --- ------ ------- --- --- -------- mere --------- --<br>---------- -- -------- ----------------,418447,418437,417824.32,417824,417824.56,418447.04,,47,mere
screen,html.Screen,2_3_1_0_1_48,2022-02-15T14:12:51.727Z,,,,,,,,,,,,,,,,,11,,,,,,,,,,,,,,584.960000000021,,response,,,,4,F,,,,,,Space,keypress(Space),,,,instrumental,,,,----- -- ---- --- -- --- -------- ------------ ---------- --<br>- ------- ------ --------- -- ------------ -- --- ---- -----<br>------ ---- ---- ------ ------ ------- --- ----- ---------<br>---- --- -------- -------- --- --- -- ------- --- --- -----<br>-- --- ------ ------- --- --- -------- ---- existence --<br>---------- -- -------- ----------------,419043,419032,418446.84,418447,418447.04,419043.62,,48,existence
screen,html.Screen,2_3_1_0_1_49,2022-02-15T14:12:52.279Z,,,,,,,,,,,,,,,,,11,,,,,,,,,,,,,,535.3800000000047,,response,,,,4,F,,,,,,Space,keypress(Space),,,,instrumental,,,,----- -- ---- --- -- --- -------- ------------ ---------- --<br>- ------- ------ --------- -- ------------ -- --- ---- -----<br>------ ---- ---- ------ ------ ------- --- ----- ---------<br>---- --- -------- -------- --- --- -- ------- --- --- -----<br>-- --- ------ ------- --- --- -------- ---- --------- is<br>---------- -- -------- ----------------,419596,419579,419043.34,419044,419043.62,419595.98,,49,is
