sender,sender_type,sender_id,timestamp,meta,,Blues,Classical,Country,Dance,Electronic,Folk,Gospel,Hip-Hop,Jazz,Latin,Musical/Film,New-age,Pop,Prolific_id,Provo_ID,R&B,Rap,Reggae,Religious,Rock,Soul,Swing,Traditional,age,artist_name,correct,correctResponse,distraction,duration,education,ended_on,familiarity,gender,headphone_check_performance,item,list,music_frequency,offensiveness,pleasantness,position_correct,preference,response,response_action,snippet_file,song_name,song_rating,sound,stimulus_1,stimulus_2,stimulus_3,text,time_commit,time_end,time_render,time_run,time_show,time_switch,url,word,word_ID
Prolific ID,html.Form,0,2022-02-15T13:00:04.854Z,"{""labjs_version"":""20.2.2"",""labjs_build"":{""flavor"":""production"",""commit"":""a25486e0c714a0ae2ce03ff94b7bb6896854dcfa""},""location"":""https://run.pavlovia.org/mvasilev/prolific2_music_e/"",""userAgent"":""Mozilla/5.0 (Windows NT 10.0; Win64; x64) AppleWebKit/537.36 (KHTML, like Gecko) Chrome/98.0.4758.80 Safari/537.36 Edg/98.0.1108.50"",""platform"":""Win32"",""language"":""en-GB"",""locale"":""en-GB"",""timeZone"":""Europe/London"",""timezoneOffset"":0,""screen_width"":1536,""screen_height"":864,""scroll_width"":1536,""scroll_height"":698,""window_innerWidth"":1536,""window_innerHeight"":746,""devicePixelRatio"":1.25}",,,,,,,,,,,,,,,612b5a2c55286e4cf74a63ee,,,,,,,,,,,,,,,15437.716000000371,,form submission,,,,,,,,,,,,,,,,,,,,,21398.300000000745,21397.400000000373,5941.664,5944.199999999255,5959.684,21407.756,{},,
Introduction,html.Screen,1_0,2022-02-15T13:00:16.621Z,,,,,,,,,,,,,,,,,,,,,,,,,,,,,,,11753.843999999626,,response,,,,,,,,,,,continue,click button,,,,,,,,,33165.59999999963,33161.59999999963,21391.241,21398.800000000745,21407.756,33172.925,,,
Volume calibration,html.Screen,1_1,2022-02-15T13:01:15.108Z,,,,,,,,,,,,,,,,,,,,,,,,,,,,,,,58474.174999999625,,response,,,,,,,,,,,continue,click button,,,,,,,,,91652.09999999963,91647.09999999963,33156.382,33165.800000000745,33172.925,91648.693,,,
Task instructions,html.Screen,1_2,2022-02-15T13:01:26.876Z,,,,,,,,,,,,,,,,,,,,,,,,,,,,,,,11769.906999999628,,response,,,,,,,,,,,continue,click button,,,,,,,,,103420,103418.59999999963,91632.211,91652.30000000075,91648.693,103430.544,,,
Sounds,html.Screen,1_3_0_0,2022-02-15T13:01:31.123Z,,,,,,,,,,,,,,,,,,,,,,,,,,,,,,,4249.573000000004,,timeout,,,,,,,,,2,,,,,,,,O,S,I,,107667.5,107663.452,103413.849,103420.30000000075,103430.544,107680.117,,,
Judgement,html.Screen,1_3_0_1,2022-02-15T13:01:34.231Z,,,,,,,,,,,,,,,,,,,,,,,,,,,,false,2,,3093.783000000374,,response,,,,,,,,,2,,1,click #choice-1,,,,,O,S,I,,110775.40000000037,110773.90000000037,107663.452,107667.69999999925,107680.117,110779.533,,,
Trial,flow.Sequence,1_3_0,2022-02-15T13:01:34.232Z,,,,,,,,,,,,,,,,,,,,,,,,,,,,,,,7343.356000000378,,completion,,,,,,,,,2,,,,,,,,O,S,I,,110775.80000000075,110773.90000000037,103413.849,103420.19999999925,103430.544,110779.533,,,
Sounds,html.Screen,1_3_1_0,2022-02-15T13:01:38.470Z,,,,,,,,,,,,,,,,,,,,,,,,,,,,,,,4249.860000000001,,timeout,,,,,,,,,1,,,,,,,,S,I,O,,115013.59999999963,115012.321,110762.95,110776.19999999925,110779.533,115029.393,,,
Judgement,html.Screen,1_3_1_1,2022-02-15T13:01:41.616Z,,,,,,,,,,,,,,,,,,,,,,,,,,,,true,1,,3129.507000000376,,response,,,,,,,,,1,,1,click #choice-1,,,,,S,I,O,,118160.40000000037,118158.90000000037,115012.321,115013.80000000075,115029.393,118161.98,,,
Trial,flow.Sequence,1_3_1,2022-02-15T13:01:41.617Z,,,,,,,,,,,,,,,,,,,,,,,,,,,,,,,7379.367000000377,,completion,,,,,,,,,1,,,,,,,,S,I,O,,118160.80000000075,118158.90000000037,110762.95,110776,110779.533,118161.98,,,
Sounds,html.Screen,1_3_2_0,2022-02-15T13:01:45.852Z,,,,,,,,,,,,,,,,,,,,,,,,,,,,,,,4249.468999999997,,timeout,,,,,,,,,1,,,,,,,,S,O,I,,122396.09999999963,122394.767,118145.332,118161.09999999963,118161.98,122411.449,,,
Judgement,html.Screen,1_3_2_1,2022-02-15T13:01:47.070Z,,,,,,,,,,,,,,,,,,,,,,,,,,,,true,1,,1201.1509999996342,,response,,,,,,,,,1,,1,click #choice-1,,,,,S,O,I,,123613.80000000075,123612.59999999963,122394.767,122396.19999999925,122411.449,123628.004,,,
Trial,flow.Sequence,1_3_2,2022-02-15T13:01:47.070Z,,,,,,,,,,,,,,,,,,,,,,,,,,,,,,,5450.619999999632,,completion,,,,,,,,,1,,,,,,,,S,O,I,,123614.19999999925,123612.59999999963,118145.332,118161,118161.98,123628.004,,,
Sounds,html.Screen,1_3_3_0,2022-02-15T13:01:51.318Z,,,,,,,,,,,,,,,,,,,,,,,,,,,,,,,4249.536999999997,,timeout,,,,,,,,,3,,,,,,,,I,O,S,,127862.5,127860.678,123611.277,123614.40000000037,123628.004,127877.541,,,
Judgement,html.Screen,1_3_3_1,2022-02-15T13:01:52.209Z,,,,,,,,,,,,,,,,,,,,,,,,,,,,true,3,,874.1589999992575,,response,,,,,,,,,3,,3,click #choice-3,,,,,I,O,S,,128752.90000000037,128751.69999999925,127860.678,127862.80000000075,127877.541,128760.692,,,
Trial,flow.Sequence,1_3_3,2022-02-15T13:01:52.209Z,,,,,,,,,,,,,,,,,,,,,,,,,,,,,,,5123.695999999254,,completion,,,,,,,,,3,,,,,,,,I,O,S,,128753.19999999925,128751.69999999925,123611.277,123614.40000000037,123628.004,128760.692,,,
Sounds,html.Screen,1_3_4_0,2022-02-15T13:01:56.451Z,,,,,,,,,,,,,,,,,,,,,,,,,,,,,,,4249.697,,timeout,,,,,,,,,3,,,,,,,,O,I,S,,132994.69999999925,132993.732,128744.312,128753.40000000037,128760.692,133010.389,,,
Judgement,html.Screen,1_3_4_1,2022-02-15T13:01:57.200Z,,,,,,,,,,,,,,,,,,,,,,,,,,,,true,3,,732.3109999992594,,response,,,,,,,,,3,,3,click #choice-3,,,,,O,I,S,,133744.19999999925,133742.69999999925,132993.732,132994.90000000037,133010.389,133760.069,,,
Trial,flow.Sequence,1_3_4,2022-02-15T13:01:57.200Z,,,,,,,,,,,,,,,,,,,,,,,,,,,,,,,4982.0079999992595,,completion,,,,,,,,,3,,,,,,,,O,I,S,,133744.59999999963,133742.69999999925,128744.312,128753.19999999925,128760.692,133760.069,,,
Sounds,html.Screen,1_3_5_0,2022-02-15T13:02:01.449Z,,,,,,,,,,,,,,,,,,,,,,,,,,,,,,,4249.540999999997,,timeout,,,,,,,,,2,,,,,,,,I,S,O,,137993.90000000037,137992.715,133743.34,133744.80000000075,133760.069,138009.61,,,
Judgement,html.Screen,1_3_5_1,2022-02-15T13:02:02.120Z,,,,,,,,,,,,,,,,,,,,,,,,,,,,true,2,,653.390000000014,,response,,,,,,,,,2,,2,click #choice-2,,,,,I,S,O,,138664.5,138663,137992.715,137994.09999999963,138009.61,138675.948,,,
Trial,flow.Sequence,1_3_5,2022-02-15T13:02:02.120Z,,,,,,,,,,,,,,,,,,,,,,,,,,,,,,,4902.931000000011,,completion,,,,,,,,,2,,,,,,,,I,S,O,,138664.69999999925,138663,133743.34,133744.69999999925,133760.069,138675.948,,,
Task,flow.Loop,1_3,2022-02-15T13:02:02.127Z,,,,,,,,,,,,,,,,,,,,,,,,,,,,,,,35232.456000000006,,completion,,,0.8333333333333334,,,,,,,,,,,,,,,,,,138671.30000000075,138663,103413.849,103420.09999999963,103430.544,138675.948,,,
Trap,html.Screen,1_4,2022-02-15T13:02:02.129Z,,,,,,,,,,,,,,,,,,,,,,,,,,,,,,,NaN,,skipped,,,,,,,,,,,,,,,,,,,,,138673.5,138663,,138673.30000000075,,138675.948,,,
Thanks,html.Screen,1_5,2022-02-15T13:02:08.203Z,,,,,,,,,,,,,,,,,,,,,,,,,,,,,,,6070.852000000741,,response,,,,,,,,,,,continue,click button,,,,,,,,,144748.09999999963,144746.80000000075,138659.242,138673.59999999963,138675.948,148307.964,,,
Headphone screening,flow.Sequence,1,2022-02-15T13:02:08.204Z,,,,,,,,,,,,,,,,,,,,,,,,,,,,,,,123339.04400000075,,completion,,,,,,,,,,,,,,,,,,,,,144748.30000000075,144746.80000000075,21391.241,21398.800000000745,21407.756,148307.964,,,
Instructions,html.Page,2_0,2022-02-15T13:02:37.229Z,,,,,,,,,,,,,,,,,,,,,,,,,,,,,,,25465.13599999962,,form submission,,,,,,,,,,,,,,,,,,,,,173773.5,173773.09999999963,148291.368,148306.19999999925,148307.964,173788.083,,,
Holding screen,html.Screen,2_1_0_0,2022-02-15T13:02:47.227Z,,,,,,,,,,,,,,,,,,,,,,,,,,,,,,,9998.79799999998,,timeout,,,,,,,,,,,,,,,,,,,,,183771.30000000075,183770.171,173771.507,173773.80000000075,173788.083,183786.881,,,
screen,html.Screen,2_1_0_1_0,2022-02-15T13:02:48.767Z,,,,,,,,,,,,,,,,,53,,,,,,,,,,,,,,1520.818999999261,,response,,,,99,,,,,,,Space,keypress(Space),,,,,,,,When -- ----- -- ------ - ------- --- ----------<br>------------- ------ ------ ---- ---- ------- ----- -- ----<br>-------- ------- -- ---------- --- - --- ----- ----- ----<br>---- --- --- ----- --- ---- ---- ------- ----- ---- -------<br>--- --- -- ----- -- --- ---- -- --- ---- -- ------ ------<br>--- ----- -- ----,185311.30000000075,185307.69999999925,183770.171,183771.59999999963,183786.881,185320.306,,0,When
screen,html.Screen,2_1_0_1_1,2022-02-15T13:02:49.722Z,,,,,,,,,,,,,,,,,53,,,,,,,,,,,,,,945.3939999992435,,response,,,,99,,,,,,,Space,keypress(Space),,,,,,,,---- it ----- -- ------ - ------- --- ----------<br>------------- ------ ------ ---- ---- ------- ----- -- ----<br>-------- ------- -- ---------- --- - --- ----- ----- ----<br>---- --- --- ----- --- ---- ---- ------- ----- ---- -------<br>--- --- -- ----- -- --- ---- -- --- ---- -- ------ ------<br>--- ----- -- ----,186266.59999999963,186265.69999999925,185303.694,185311.40000000037,185320.306,186269.793,,1,it
screen,html.Screen,2_1_0_1_2,2022-02-15T13:02:50.222Z,,,,,,,,,,,,,,,,,53,,,,,,,,,,,,,,495.7069999999949,,response,,,,99,,,,,,,Space,keypress(Space),,,,,,,,---- -- comes -- ------ - ------- --- ----------<br>------------- ------ ------ ---- ---- ------- ----- -- ----<br>-------- ------- -- ---------- --- - --- ----- ----- ----<br>---- --- --- ----- --- ---- ---- ------- ----- ---- -------<br>--- --- -- ----- -- --- ---- -- --- ---- -- ------ ------<br>--- ----- -- ----,186766.30000000075,186765.5,186253.538,186266.69999999925,186269.793,186769.7,,2,comes
screen,html.Screen,2_1_0_1_3,2022-02-15T13:02:50.701Z,,,,,,,,,,,,,,,,,53,,,,,,,,,,,,,,475.39999999961583,,response,,,,99,,,,,,,Space,keypress(Space),,,,,,,,---- -- ----- to ------ - ------- --- ----------<br>------------- ------ ------ ---- ---- ------- ----- -- ----<br>-------- ------- -- ---------- --- - --- ----- ----- ----<br>---- --- --- ----- --- ---- ---- ------- ----- ---- -------<br>--- --- -- ----- -- --- ---- -- --- ---- -- ------ ------<br>--- ----- -- ----,187245.90000000037,187245.09999999963,186753.152,186766.40000000037,186769.7,187253.091,,3,to
screen,html.Screen,2_1_0_1_4,2022-02-15T13:02:51.448Z,,,,,,,,,,,,,,,,,53,,,,,,,,,,,,,,738.4090000000142,,response,,,,99,,,,,,,Space,keypress(Space),,,,,,,,---- -- ----- -- having - ------- --- ----------<br>------------- ------ ------ ---- ---- ------- ----- -- ----<br>-------- ------- -- ---------- --- - --- ----- ----- ----<br>---- --- --- ----- --- ---- ---- ------- ----- ---- -------<br>--- --- -- ----- -- --- ---- -- --- ---- -- ------ ------<br>--- ----- -- ----,187992.30000000075,187991.5,187236.574,187246.09999999963,187253.091,188003.013,,4,having
screen,html.Screen,2_1_0_1_5,2022-02-15T13:02:51.948Z,,,,,,,,,,,,,,,,,53,,,,,,,,,,,,,,488.38700000036624,,response,,,,99,,,,,,,Space,keypress(Space),,,,,,,,---- -- ----- -- ------ a ------- --- ----------<br>------------- ------ ------ ---- ---- ------- ----- -- ----<br>-------- ------- -- ---------- --- - --- ----- ----- ----<br>---- --- --- ----- --- ---- ---- ------- ----- ---- -------<br>--- --- -- ----- -- --- ---- -- --- ---- -- ------ ------<br>--- ----- -- ----,188492.30000000075,188491.40000000037,187986.42,187992.40000000037,188003.013,188502.892,,5,a
screen,html.Screen,2_1_0_1_6,2022-02-15T13:02:52.492Z,,,,,,,,,,,,,,,,,53,,,,,,,,,,,,,,532.3079999992624,,response,,,,99,,,,,,,Space,keypress(Space),,,,,,,,---- -- ----- -- ------ - lasting --- ----------<br>------------- ------ ------ ---- ---- ------- ----- -- ----<br>-------- ------- -- ---------- --- - --- ----- ----- ----<br>---- --- --- ----- --- ---- ---- ------- ----- ---- -------<br>--- --- -- ----- -- --- ---- -- --- ---- -- ------ ------<br>--- ----- -- ----,189036.09999999963,189035.19999999925,188486.467,188492.40000000037,188502.892,189052.769,,6,lasting
screen,html.Screen,2_1_0_1_7,2022-02-15T13:02:52.912Z,,,,,,,,,,,,,,,,,53,,,,,,,,,,,,,,402.4309999992547,,response,,,,99,,,,,,,Space,keypress(Space),,,,,,,,---- -- ----- -- ------ - ------- and ----------<br>------------- ------ ------ ---- ---- ------- ----- -- ----<br>-------- ------- -- ---------- --- - --- ----- ----- ----<br>---- --- --- ----- --- ---- ---- ------- ----- ---- -------<br>--- --- -- ----- -- --- ---- -- --- ---- -- ------ ------<br>--- ----- -- ----,189456.90000000037,189455.19999999925,189036.563,189036.19999999925,189052.769,189469.822,,7,and
screen,html.Screen,2_1_0_1_8,2022-02-15T13:02:53.471Z,,,,,,,,,,,,,,,,,53,,,,,,,,,,,,,,545.2779999996419,,response,,,,99,,,,,,,Space,keypress(Space),,,,,,,,---- -- ----- -- ------ - ------- --- fulfilling<br>------------- ------ ------ ---- ---- ------- ----- -- ----<br>-------- ------- -- ---------- --- - --- ----- ----- ----<br>---- --- --- ----- --- ---- ---- ------- ----- ---- -------<br>--- --- -- ----- -- --- ---- -- --- ---- -- ------ ------<br>--- ----- -- ----,190015.80000000075,190015.09999999963,189452.99,189457.09999999963,189469.822,190019.272,,8,fulfilling
screen,html.Screen,2_1_0_1_9,2022-02-15T13:02:54.388Z,,,,,,,,,,,,,,,,,53,,,,,,,,,,,,,,912.0280000007479,,response,,,,99,,,,,,,Space,keypress(Space),,,,,,,,"---- -- ----- -- ------ - ------- --- ----------<br>relationship, ------ ------ ---- ---- ------- ----- -- ----<br>-------- ------- -- ---------- --- - --- ----- ----- ----<br>---- --- --- ----- --- ---- ---- ------- ----- ---- -------<br>--- --- -- ----- -- --- ---- -- --- ---- -- ------ ------<br>--- ----- -- ----",190932,190931.30000000075,190002.796,190016,190019.272,190935.845,,9,"relationship,"
screen,html.Screen,2_1_0_1_10,2022-02-15T13:02:54.992Z,,,,,,,,,,,,,,,,,53,,,,,,,,,,,,,,599.3549999992538,,response,,,,99,,,,,,,Space,keypress(Space),,,,,,,,---- -- ----- -- ------ - ------- --- ----------<br>------------- common ------ ---- ---- ------- ----- -- ----<br>-------- ------- -- ---------- --- - --- ----- ----- ----<br>---- --- --- ----- --- ---- ---- ------- ----- ---- -------<br>--- --- -- ----- -- --- ---- -- --- ---- -- ------ ------<br>--- ----- -- ----,191536.19999999925,191535.19999999925,190919.533,190932.30000000075,190935.845,191552.527,,10,common
screen,html.Screen,2_1_0_1_11,2022-02-15T13:02:55.652Z,,,,,,,,,,,,,,,,,53,,,,,,,,,,,,,,643.1729999992531,,response,,,,99,,,,,,,Space,keypress(Space),,,,,,,,---- -- ----- -- ------ - ------- --- ----------<br>------------- ------ wisdom ---- ---- ------- ----- -- ----<br>-------- ------- -- ---------- --- - --- ----- ----- ----<br>---- --- --- ----- --- ---- ---- ------- ----- ---- -------<br>--- --- -- ----- -- --- ---- -- --- ---- -- ------ ------<br>--- ----- -- ----,192196.5,192195.69999999925,191535.855,191536.30000000075,191552.527,192202.36,,11,wisdom
screen,html.Screen,2_1_0_1_12,2022-02-15T13:02:56.271Z,,,,,,,,,,,,,,,,,53,,,,,,,,,,,,,,612.5400000003865,,response,,,,99,,,,,,,Space,keypress(Space),,,,,,,,---- -- ----- -- ------ - ------- --- ----------<br>------------- ------ ------ says ---- ------- ----- -- ----<br>-------- ------- -- ---------- --- - --- ----- ----- ----<br>---- --- --- ----- --- ---- ---- ------- ----- ---- -------<br>--- --- -- ----- -- --- ---- -- --- ---- -- ------ ------<br>--- ----- -- ----,192815.69999999925,192814.90000000037,192185.844,192196.59999999963,192202.36,192818.899,,12,says
screen,html.Screen,2_1_0_1_13,2022-02-15T13:02:56.751Z,,,,,,,,,,,,,,,,,53,,,,,,,,,,,,,,476.2009999996226,,response,,,,99,,,,,,,Space,keypress(Space),,,,,,,,---- -- ----- -- ------ - ------- --- ----------<br>------------- ------ ------ ---- that ------- ----- -- ----<br>-------- ------- -- ---------- --- - --- ----- ----- ----<br>---- --- --- ----- --- ---- ---- ------- ----- ---- -------<br>--- --- -- ----- -- --- ---- -- --- ---- -- ------ ------<br>--- ----- -- ----,193296,193295.09999999963,192802.622,192815.80000000075,192818.899,193302.493,,13,that
screen,html.Screen,2_1_0_1_14,2022-02-15T13:02:57.218Z,,,,,,,,,,,,,,,,,53,,,,,,,,,,,,,,459.2069999992673,,response,,,,99,,,,,,,Space,keypress(Space),,,,,,,,---- -- ----- -- ------ - ------- --- ----------<br>------------- ------ ------ ---- ---- feeling ----- -- ----<br>-------- ------- -- ---------- --- - --- ----- ----- ----<br>---- --- --- ----- --- ---- ---- ------- ----- ---- -------<br>--- --- -- ----- -- --- ---- -- --- ---- -- ------ ------<br>--- ----- -- ----,193762.40000000037,193761.69999999925,193285.704,193296.09999999963,193302.493,193769.33,,14,feeling
screen,html.Screen,2_1_0_1_15,2022-02-15T13:02:57.637Z,,,,,,,,,,,,,,,,,53,,,,,,,,,,,,,,411.6700000000128,,response,,,,99,,,,,,,Space,keypress(Space),,,,,,,,---- -- ----- -- ------ - ------- --- ----------<br>------------- ------ ------ ---- ---- ------- close -- ----<br>-------- ------- -- ---------- --- - --- ----- ----- ----<br>---- --- --- ----- --- ---- ---- ------- ----- ---- -------<br>--- --- -- ----- -- --- ---- -- --- ---- -- ------ ------<br>--- ----- -- ----,194181.80000000075,194181,193752.49,193762.69999999925,193769.33,194185.428,,15,close
screen,html.Screen,2_1_0_1_16,2022-02-15T13:02:58.071Z,,,,,,,,,,,,,,,,,53,,,,,,,,,,,,,,429.57199999998556,,response,,,,99,,,,,,,Space,keypress(Space),,,,,,,,---- -- ----- -- ------ - ------- --- ----------<br>------------- ------ ------ ---- ---- ------- ----- to ----<br>-------- ------- -- ---------- --- - --- ----- ----- ----<br>---- --- --- ----- --- ---- ---- ------- ----- ---- -------<br>--- --- -- ----- -- --- ---- -- --- ---- -- ------ ------<br>--- ----- -- ----,194615.90000000037,194615,194168.81,194182,194185.428,194618.745,,16,to
screen,html.Screen,2_1_0_1_17,2022-02-15T13:02:58.607Z,,,,,,,,,,,,,,,,,53,,,,,,,,,,,,,,532.3549999996321,,response,,,,99,,,,,,,Space,keypress(Space),,,,,,,,---- -- ----- -- ------ - ------- --- ----------<br>------------- ------ ------ ---- ---- ------- ----- -- your<br>-------- ------- -- ---------- --- - --- ----- ----- ----<br>---- --- --- ----- --- ---- ---- ------- ----- ---- -------<br>--- --- -- ----- -- --- ---- -- --- ---- -- ------ ------<br>--- ----- -- ----,195151.80000000075,195151.09999999963,194602.138,194616,194618.745,195168.829,,17,your
screen,html.Screen,2_1_0_1_18,2022-02-15T13:02:59.029Z,,,,,,,,,,,,,,,,,53,,,,,,,,,,,,,,404.27099999962957,,response,,,,99,,,,,,,Space,keypress(Space),,,,,,,,---- -- ----- -- ------ - ------- --- ----------<br>------------- ------ ------ ---- ---- ------- ----- -- ----<br>romantic ------- -- ---------- --- - --- ----- ----- ----<br>---- --- --- ----- --- ---- ---- ------- ----- ---- -------<br>--- --- -- ----- -- --- ---- -- --- ---- -- ------ ------<br>--- ----- -- ----,195573.80000000075,195573.09999999963,195152.288,195152,195168.829,195585.352,,18,romantic
screen,html.Screen,2_1_0_1_19,2022-02-15T13:02:59.507Z,,,,,,,,,,,,,,,,,53,,,,,,,,,,,,,,465.6479999999865,,response,,,,99,,,,,,,Space,keypress(Space),,,,,,,,---- -- ----- -- ------ - ------- --- ----------<br>------------- ------ ------ ---- ---- ------- ----- -- ----<br>-------- partner -- ---------- --- - --- ----- ----- ----<br>---- --- --- ----- --- ---- ---- ------- ----- ---- -------<br>--- --- -- ----- -- --- ---- -- --- ---- -- ------ ------<br>--- ----- -- ----,196051.90000000037,196051,195568.977,195574,195585.352,196068.585,,19,partner
screen,html.Screen,2_1_0_1_20,2022-02-15T13:02:59.942Z,,,,,,,,,,,,,,,,,53,,,,,,,,,,,,,,416.7150000007532,,response,,,,99,,,,,,,Space,keypress(Space),,,,,,,,---- -- ----- -- ------ - ------- --- ----------<br>------------- ------ ------ ---- ---- ------- ----- -- ----<br>-------- ------- is ---------- --- - --- ----- ----- ----<br>---- --- --- ----- --- ---- ---- ------- ----- ---- -------<br>--- --- -- ----- -- --- ---- -- --- ---- -- ------ ------<br>--- ----- -- ----,196486.09999999963,196485.30000000075,196052.01,196052,196068.585,196502.224,,20,is
screen,html.Screen,2_1_0_1_21,2022-02-15T13:03:00.358Z,,,,,,,,,,,,,,,,,53,,,,,,,,,,,,,,399.6760000003851,,response,,,,99,,,,,,,Space,keypress(Space),,,,,,,,---- -- ----- -- ------ - ------- --- ----------<br>------------- ------ ------ ---- ---- ------- ----- -- ----<br>-------- ------- -- paramount. --- - --- ----- ----- ----<br>---- --- --- ----- --- ---- ---- ------- ----- ---- -------<br>--- --- -- ----- -- --- ---- -- --- ---- -- ------ ------<br>--- ----- -- ----,196902.69999999925,196901.90000000037,196485.172,196486.30000000075,196502.224,196918.619,,21,paramount.
screen,html.Screen,2_1_0_1_22,2022-02-15T13:03:00.861Z,,,,,,,,,,,,,,,,,53,,,,,,,,,,,,,,486.0809999992489,,response,,,,99,,,,,,,Space,keypress(Space),,,,,,,,---- -- ----- -- ------ - ------- --- ----------<br>------------- ------ ------ ---- ---- ------- ----- -- ----<br>-------- ------- -- ---------- But - --- ----- ----- ----<br>---- --- --- ----- --- ---- ---- ------- ----- ---- -------<br>--- --- -- ----- -- --- ---- -- --- ---- -- ------ ------<br>--- ----- -- ----,197405.59999999963,197404.69999999925,196901.861,196902.90000000037,196918.619,197418.34,,22,But
screen,html.Screen,2_1_0_1_23,2022-02-15T13:03:01.277Z,,,,,,,,,,,,,,,,,53,,,,,,,,,,,,,,402.6600000000035,,response,,,,99,,,,,,,Space,keypress(Space),,,,,,,,---- -- ----- -- ------ - ------- --- ----------<br>------------- ------ ------ ---- ---- ------- ----- -- ----<br>-------- ------- -- ---------- --- a --- ----- ----- ----<br>---- --- --- ----- --- ---- ---- ------- ----- ---- -------<br>--- --- -- ----- -- --- ---- -- --- ---- -- ------ ------<br>--- ----- -- ----,197821.90000000037,197821,197402.131,197405.80000000075,197418.34,197835.323,,23,a
screen,html.Screen,2_1_0_1_24,2022-02-15T13:03:01.707Z,,,,,,,,,,,,,,,,,53,,,,,,,,,,,,,,415.67699999999604,,response,,,,99,,,,,,,Space,keypress(Space),,,,,,,,---- -- ----- -- ------ - ------- --- ----------<br>------------- ------ ------ ---- ---- ------- ----- -- ----<br>-------- ------- -- ---------- --- - new ----- ----- ----<br>---- --- --- ----- --- ---- ---- ------- ----- ---- -------<br>--- --- -- ----- -- --- ---- -- --- ---- -- ------ ------<br>--- ----- -- ----,198251.80000000075,198251,197818.42,197822,197835.323,198268.619,,24,new
screen,html.Screen,2_1_0_1_25,2022-02-15T13:03:02.117Z,,,,,,,,,,,,,,,,,53,,,,,,,,,,,,,,392.4809999996214,,response,,,,99,,,,,,,Space,keypress(Space),,,,,,,,---- -- ----- -- ------ - ------- --- ----------<br>------------- ------ ------ ---- ---- ------- ----- -- ----<br>-------- ------- -- ---------- --- - --- study ----- ----<br>---- --- --- ----- --- ---- ---- ------- ----- ---- -------<br>--- --- -- ----- -- --- ---- -- --- ---- -- ------ ------<br>--- ----- -- ----,198662,198661.09999999963,198251.771,198251.90000000037,198268.619,198668.449,,25,study
screen,html.Screen,2_1_0_1_26,2022-02-15T13:03:02.521Z,,,,,,,,,,,,,,,,,53,,,,,,,,,,,,,,396.4510000003793,,response,,,,99,,,,,,,Space,keypress(Space),,,,,,,,---- -- ----- -- ------ - ------- --- ----------<br>------------- ------ ------ ---- ---- ------- ----- -- ----<br>-------- ------- -- ---------- --- - --- ----- finds ----<br>---- --- --- ----- --- ---- ---- ------- ----- ---- -------<br>--- --- -- ----- -- --- ---- -- --- ---- -- ------ ------<br>--- ----- -- ----,199065.80000000075,199064.90000000037,198651.583,198662.09999999963,198668.449,199084.833,,26,finds
screen,html.Screen,2_1_0_1_27,2022-02-15T13:03:02.977Z,,,,,,,,,,,,,,,,,53,,,,,,,,,,,,,,436.06700000035926,,response,,,,99,,,,,,,Space,keypress(Space),,,,,,,,---- -- ----- -- ------ - ------- --- ----------<br>------------- ------ ------ ---- ---- ------- ----- -- ----<br>-------- ------- -- ---------- --- - --- ----- ----- that<br>---- --- --- ----- --- ---- ---- ------- ----- ---- -------<br>--- --- -- ----- -- --- ---- -- --- ---- -- ------ ------<br>--- ----- -- ----,199521.69999999925,199520.90000000037,199068.129,199066,199084.833,199534.871,,27,that
screen,html.Screen,2_1_0_1_28,2022-02-15T13:03:03.461Z,,,,,,,,,,,,,,,,,53,,,,,,,,,,,,,,469.9290000007313,,response,,,,99,,,,,,,Space,keypress(Space),,,,,,,,---- -- ----- -- ------ - ------- --- ----------<br>------------- ------ ------ ---- ---- ------- ----- -- ----<br>-------- ------- -- ---------- --- - --- ----- ----- ----<br>it's --- --- ----- --- ---- ---- ------- ----- ---- -------<br>--- --- -- ----- -- --- ---- -- --- ---- -- ------ ------<br>--- ----- -- ----,200005.59999999963,200004.80000000075,199518.319,199521.90000000037,199534.871,200018.406,,28,it's
screen,html.Screen,2_1_0_1_29,2022-02-15T13:03:03.937Z,,,,,,,,,,,,,,,,,53,,,,,,,,,,,,,,462.0940000000119,,response,,,,99,,,,,,,Space,keypress(Space),,,,,,,,---- -- ----- -- ------ - ------- --- ----------<br>------------- ------ ------ ---- ---- ------- ----- -- ----<br>-------- ------- -- ---------- --- - --- ----- ----- ----<br>---- not --- ----- --- ---- ---- ------- ----- ---- -------<br>--- --- -- ----- -- --- ---- -- --- ---- -- ------ ------<br>--- ----- -- ----,200481.40000000037,200480.5,200001.514,200005.69999999925,200018.406,200484.584,,29,not
screen,html.Screen,2_1_0_1_30,2022-02-15T13:03:04.477Z,,,,,,,,,,,,,,,,,53,,,,,,,,,,,,,,536.2160000007425,,response,,,,99,,,,,,,Space,keypress(Space),,,,,,,,---- -- ----- -- ------ - ------- --- ----------<br>------------- ------ ------ ---- ---- ------- ----- -- ----<br>-------- ------- -- ---------- --- - --- ----- ----- ----<br>---- --- how ----- --- ---- ---- ------- ----- ---- -------<br>--- --- -- ----- -- --- ---- -- --- ---- -- ------ ------<br>--- ----- -- ----,201021.59999999963,201020.80000000075,200468.405,200481.5,200484.584,201034.631,,30,how
screen,html.Screen,2_1_0_1_31,2022-02-15T13:03:04.927Z,,,,,,,,,,,,,,,,,53,,,,,,,,,,,,,,436.36900000000605,,response,,,,99,,,,,,,Space,keypress(Space),,,,,,,,---- -- ----- -- ------ - ------- --- ----------<br>------------- ------ ------ ---- ---- ------- ----- -- ----<br>-------- ------- -- ---------- --- - --- ----- ----- ----<br>---- --- --- close --- ---- ---- ------- ----- ---- -------<br>--- --- -- ----- -- --- ---- -- --- ---- -- ------ ------<br>--- ----- -- ----,201471.69999999925,201471,201018.105,201021.80000000075,201034.631,201484.528,,31,close
screen,html.Screen,2_1_0_1_32,2022-02-15T13:03:05.412Z,,,,,,,,,,,,,,,,,53,,,,,,,,,,,,,,470.97200000000885,,response,,,,99,,,,,,,Space,keypress(Space),,,,,,,,---- -- ----- -- ------ - ------- --- ----------<br>------------- ------ ------ ---- ---- ------- ----- -- ----<br>-------- ------- -- ---------- --- - --- ----- ----- ----<br>---- --- --- ----- you ---- ---- ------- ----- ---- -------<br>--- --- -- ----- -- --- ---- -- --- ---- -- ------ ------<br>--- ----- -- ----,201956.30000000075,201955.5,201467.978,201471.90000000037,201484.528,201967.768,,32,you
screen,html.Screen,2_1_0_1_33,2022-02-15T13:03:05.927Z,,,,,,,,,,,,,,,,,53,,,,,,,,,,,,,,503.3319999996165,,response,,,,99,,,,,,,Space,keypress(Space),,,,,,,,---- -- ----- -- ------ - ------- --- ----------<br>------------- ------ ------ ---- ---- ------- ----- -- ----<br>-------- ------- -- ---------- --- - --- ----- ----- ----<br>---- --- --- ----- --- feel ---- ------- ----- ---- -------<br>--- --- -- ----- -- --- ---- -- --- ---- -- ------ ------<br>--- ----- -- ----,202472,202471.09999999963,201951.558,201956.59999999963,201967.768,202484.446,,33,feel
screen,html.Screen,2_1_0_1_34,2022-02-15T13:03:06.388Z,,,,,,,,,,,,,,,,,53,,,,,,,,,,,,,,447.25399999925867,,response,,,,99,,,,,,,Space,keypress(Space),,,,,,,,---- -- ----- -- ------ - ------- --- ----------<br>------------- ------ ------ ---- ---- ------- ----- -- ----<br>-------- ------- -- ---------- --- - --- ----- ----- ----<br>---- --- --- ----- --- ---- that ------- ----- ---- -------<br>--- --- -- ----- -- --- ---- -- --- ---- -- ------ ------<br>--- ----- -- ----,202932.59999999963,202931.69999999925,202467.793,202472.09999999963,202484.446,202962.336,,34,that
screen,html.Screen,2_1_0_1_35,2022-02-15T13:03:06.832Z,,,,,,,,,,,,,,,,,53,,,,,,,,,,,,,,412.8639999992447,,response,,,,99,,,,,,,Space,keypress(Space),,,,,,,,---- -- ----- -- ------ - ------- --- ----------<br>------------- ------ ------ ---- ---- ------- ----- -- ----<br>-------- ------- -- ---------- --- - --- ----- ----- ----<br>---- --- --- ----- --- ---- ---- matters ----- ---- -------<br>--- --- -- ----- -- --- ---- -- --- ---- -- ------ ------<br>--- ----- -- ----,203376,203375.19999999925,202918.082,202932.80000000075,202962.336,203384.259,,35,matters
screen,html.Screen,2_1_0_1_36,2022-02-15T13:03:07.281Z,,,,,,,,,,,,,,,,,53,,,,,,,,,,,,,,440.54100000075414,,response,,,,99,,,,,,,Space,keypress(Space),,,,,,,,"---- -- ----- -- ------ - ------- --- ----------<br>------------- ------ ------ ---- ---- ------- ----- -- ----<br>-------- ------- -- ---------- --- - --- ----- ----- ----<br>---- --- --- ----- --- ---- ---- ------- most, ---- -------<br>--- --- -- ----- -- --- ---- -- --- ---- -- ------ ------<br>--- ----- -- ----",203825.59999999963,203824.80000000075,203367.654,203376.30000000075,203384.259,203834.273,,36,"most,"
screen,html.Screen,2_1_0_1_37,2022-02-15T13:03:07.741Z,,,,,,,,,,,,,,,,,53,,,,,,,,,,,,,,450.12700000038603,,response,,,,99,,,,,,,Space,keypress(Space),,,,,,,,---- -- ----- -- ------ - ------- --- ----------<br>------------- ------ ------ ---- ---- ------- ----- -- ----<br>-------- ------- -- ---------- --- - --- ----- ----- ----<br>---- --- --- ----- --- ---- ---- ------- ----- it's -------<br>--- --- -- ----- -- --- ---- -- --- ---- -- ------ ------<br>--- ----- -- ----,204285.30000000075,204284.40000000037,203817.635,203825.90000000037,203834.273,204301.089,,37,it's
screen,html.Screen,2_1_0_1_38,2022-02-15T13:03:08.221Z,,,,,,,,,,,,,,,,,53,,,,,,,,,,,,,,463.8110000003653,,response,,,,99,,,,,,,Space,keypress(Space),,,,,,,,---- -- ----- -- ------ - ------- --- ----------<br>------------- ------ ------ ---- ---- ------- ----- -- ----<br>-------- ------- -- ---------- --- - --- ----- ----- ----<br>---- --- --- ----- --- ---- ---- ------- ----- ---- whether<br>--- --- -- ----- -- --- ---- -- --- ---- -- ------ ------<br>--- ----- -- ----,204765.69999999925,204764.90000000037,204284.3,204285.40000000037,204301.089,204788.744,,38,whether
screen,html.Screen,2_1_0_1_39,2022-02-15T13:03:08.671Z,,,,,,,,,,,,,,,,,53,,,,,,,,,,,,,,426.056000000739,,response,,,,99,,,,,,,Space,keypress(Space),,,,,,,,---- -- ----- -- ------ - ------- --- ----------<br>------------- ------ ------ ---- ---- ------- ----- -- ----<br>-------- ------- -- ---------- --- - --- ----- ----- ----<br>---- --- --- ----- --- ---- ---- ------- ----- ---- -------<br>you --- -- ----- -- --- ---- -- --- ---- -- ------ ------<br>--- ----- -- ----,205215.69999999925,205214.80000000075,204750.823,204765.80000000075,204788.744,205241.198,,39,you
screen,html.Screen,2_1_0_1_40,2022-02-15T13:03:09.149Z,,,,,,,,,,,,,,,,,53,,,,,,,,,,,,,,451.4019999996235,,response,,,,99,,,,,,,Space,keypress(Space),,,,,,,,---- -- ----- -- ------ - ------- --- ----------<br>------------- ------ ------ ---- ---- ------- ----- -- ----<br>-------- ------- -- ---------- --- - --- ----- ----- ----<br>---- --- --- ----- --- ---- ---- ------- ----- ---- -------<br>--- are -- ----- -- --- ---- -- --- ---- -- ------ ------<br>--- ----- -- ----,205693.5,205692.59999999963,205201.014,205215.80000000075,205241.198,205700.877,,40,are
screen,html.Screen,2_1_0_1_41,2022-02-15T13:03:09.867Z,,,,,,,,,,,,,,,,,53,,,,,,,,,,,,,,709.8229999992473,,response,,,,99,,,,,,,Space,keypress(Space),,,,,,,,---- -- ----- -- ------ - ------- --- ----------<br>------------- ------ ------ ---- ---- ------- ----- -- ----<br>-------- ------- -- ---------- --- - --- ----- ----- ----<br>---- --- --- ----- --- ---- ---- ------- ----- ---- -------<br>--- --- as ----- -- --- ---- -- --- ---- -- ------ ------<br>--- ----- -- ----,206411.40000000037,206410.69999999925,205684.128,205693.69999999925,205700.877,206417.189,,41,as
screen,html.Screen,2_1_0_1_42,2022-02-15T13:03:10.296Z,,,,,,,,,,,,,,,,,53,,,,,,,,,,,,,,422.2110000003595,,response,,,,99,,,,,,,Space,keypress(Space),,,,,,,,---- -- ----- -- ------ - ------- --- ----------<br>------------- ------ ------ ---- ---- ------- ----- -- ----<br>-------- ------- -- ---------- --- - --- ----- ----- ----<br>---- --- --- ----- --- ---- ---- ------- ----- ---- -------<br>--- --- -- close -- --- ---- -- --- ---- -- ------ ------<br>--- ----- -- ----,206840.19999999925,206839.40000000037,206400.798,206411.5,206417.189,206850.866,,42,close
screen,html.Screen,2_1_0_1_43,2022-02-15T13:03:10.791Z,,,,,,,,,,,,,,,,,53,,,,,,,,,,,,,,483.53400000036345,,response,,,,99,,,,,,,Space,keypress(Space),,,,,,,,---- -- ----- -- ------ - ------- --- ----------<br>------------- ------ ------ ---- ---- ------- ----- -- ----<br>-------- ------- -- ---------- --- - --- ----- ----- ----<br>---- --- --- ----- --- ---- ---- ------- ----- ---- -------<br>--- --- -- ----- as --- ---- -- --- ---- -- ------ ------<br>--- ----- -- ----,207335.09999999963,207334.40000000037,206833.994,206840.40000000037,206850.866,207350.389,,43,as
screen,html.Screen,2_1_0_1_44,2022-02-15T13:03:12.012Z,,,,,,,,,,,,,,,,,53,,,,,,,,,,,,,,1204.8109999992594,,response,,,,99,,,,,,,Space,keypress(Space),,,,,,,,---- -- ----- -- ------ - ------- --- ----------<br>------------- ------ ------ ---- ---- ------- ----- -- ----<br>-------- ------- -- ---------- --- - --- ----- ----- ----<br>---- --- --- ----- --- ---- ---- ------- ----- ---- -------<br>--- --- -- ----- -- you ---- -- --- ---- -- ------ ------<br>--- ----- -- ----,208556,208555.19999999925,207334.144,207335.30000000075,207350.389,208567.305,,44,you
screen,html.Screen,2_1_0_1_45,2022-02-15T13:03:12.577Z,,,,,,,,,,,,,,,,,53,,,,,,,,,,,,,,553.2949999996345,,response,,,,99,,,,,,,Space,keypress(Space),,,,,,,,---- -- ----- -- ------ - ------- --- ----------<br>------------- ------ ------ ---- ---- ------- ----- -- ----<br>-------- ------- -- ---------- --- - --- ----- ----- ----<br>---- --- --- ----- --- ---- ---- ------- ----- ---- -------<br>--- --- -- ----- -- --- want -- --- ---- -- ------ ------<br>--- ----- -- ----,209121.30000000075,209120.59999999963,208550.695,208556.09999999963,208567.305,209133.602,,45,want
screen,html.Screen,2_1_0_1_46,2022-02-15T13:03:13.050Z,,,,,,,,,,,,,,,,,53,,,,,,,,,,,,,,460.59799999924144,,response,,,,99,,,,,,,Space,keypress(Space),,,,,,,,---- -- ----- -- ------ - ------- --- ----------<br>------------- ------ ------ ---- ---- ------- ----- -- ----<br>-------- ------- -- ---------- --- - --- ----- ----- ----<br>---- --- --- ----- --- ---- ---- ------- ----- ---- -------<br>--- --- -- ----- -- --- ---- to --- ---- -- ------ ------<br>--- ----- -- ----,209595,209594.19999999925,209117.117,209121.5,209133.602,209600.077,,46,to
screen,html.Screen,2_1_0_1_47,2022-02-15T13:03:13.510Z,,,,,,,,,,,,,,,,,53,,,,,,,,,,,,,,454.02299999963725,,response,,,,99,,,,,,,Space,keypress(Space),,,,,,,,"---- -- ----- -- ------ - ------- --- ----------<br>------------- ------ ------ ---- ---- ------- ----- -- ----<br>-------- ------- -- ---------- --- - --- ----- ----- ----<br>---- --- --- ----- --- ---- ---- ------- ----- ---- -------<br>--- --- -- ----- -- --- ---- -- be, ---- -- ------ ------<br>--- ----- -- ----",210054.80000000075,210054.09999999963,209583.555,209595.09999999963,209600.077,210066.878,,47,"be,"
screen,html.Screen,2_1_0_1_48,2022-02-15T13:03:14.040Z,,,,,,,,,,,,,,,,,53,,,,,,,,,,,,,,517.2219999996305,,response,,,,99,,,,,,,Space,keypress(Space),,,,,,,,---- -- ----- -- ------ - ------- --- ----------<br>------------- ------ ------ ---- ---- ------- ----- -- ----<br>-------- ------- -- ---------- --- - --- ----- ----- ----<br>---- --- --- ----- --- ---- ---- ------- ----- ---- -------<br>--- --- -- ----- -- --- ---- -- --- even -- ------ ------<br>--- ----- -- ----,210584.80000000075,210584.09999999963,210050.238,210055,210066.878,210600.146,,48,even
screen,html.Screen,2_1_0_1_49,2022-02-15T13:03:14.487Z,,,,,,,,,,,,,,,,,53,,,,,,,,,,,,,,430.2540000003646,,response,,,,99,,,,,,,Space,keypress(Space),,,,,,,,---- -- ----- -- ------ - ------- --- ----------<br>------------- ------ ------ ---- ---- ------- ----- -- ----<br>-------- ------- -- ---------- --- - --- ----- ----- ----<br>---- --- --- ----- --- ---- ---- ------- ----- ---- -------<br>--- --- -- ----- -- --- ---- -- --- ---- if ------ ------<br>--- ----- -- ----,211031.19999999925,211030.40000000037,210583.476,210585,210600.146,211033.256,,49,if
screen,html.Screen,2_1_0_1_50,2022-02-15T13:03:14.927Z,,,,,,,,,,,,,,,,,53,,,,,,,,,,,,,,437.0440000007511,,response,,,,99,,,,,,,Space,keypress(Space),,,,,,,,---- -- ----- -- ------ - ------- --- ----------<br>------------- ------ ------ ---- ---- ------- ----- -- ----<br>-------- ------- -- ---------- --- - --- ----- ----- ----<br>---- --- --- ----- --- ---- ---- ------- ----- ---- -------<br>--- --- -- ----- -- --- ---- -- --- ---- -- that's ------<br>--- ----- -- ----,211471.19999999925,211470.30000000075,211016.67,211031.30000000075,211033.256,211483.497,,50,that's
screen,html.Screen,2_1_0_1_51,2022-02-15T13:03:16.670Z,,,,,,,,,,,,,,,,,53,,,,,,,,,,,,,,1730.6029999996244,,response,,,,99,,,,,,,Space,keypress(Space),,,,,,,,---- -- ----- -- ------ - ------- --- ----------<br>------------- ------ ------ ---- ---- ------- ----- -- ----<br>-------- ------- -- ---------- --- - --- ----- ----- ----<br>---- --- --- ----- --- ---- ---- ------- ----- ---- -------<br>--- --- -- ----- -- --- ---- -- --- ---- -- ------ really<br>--- ----- -- ----,213214.90000000037,213214.09999999963,211466.816,211471.40000000037,211483.497,213242.661,,51,really
screen,html.Screen,2_1_0_1_52,2022-02-15T13:03:17.240Z,,,,,,,,,,,,,,,,,53,,,,,,,,,,,,,,541.4389999996347,,response,,,,99,,,,,,,Space,keypress(Space),,,,,,,,---- -- ----- -- ------ - ------- --- ----------<br>------------- ------ ------ ---- ---- ------- ----- -- ----<br>-------- ------- -- ---------- --- - --- ----- ----- ----<br>---- --- --- ----- --- ---- ---- ------- ----- ---- -------<br>--- --- -- ----- -- --- ---- -- --- ---- -- ------ ------<br>not ----- -- ----,213784.80000000075,213784.09999999963,213200.27,213215,213242.661,213799.996,,52,not
screen,html.Screen,2_1_0_1_53,2022-02-15T13:03:17.787Z,,,,,,,,,,,,,,,,,53,,,,,,,,,,,,,,530.2039999992412,,response,,,,99,,,,,,,Space,keypress(Space),,,,,,,,---- -- ----- -- ------ - ------- --- ----------<br>------------- ------ ------ ---- ---- ------- ----- -- ----<br>-------- ------- -- ---------- --- - --- ----- ----- ----<br>---- --- --- ----- --- ---- ---- ------- ----- ---- -------<br>--- --- -- ----- -- --- ---- -- --- ---- -- ------ ------<br>--- close -- ----,214331.09999999963,214330.19999999925,213783.119,213785,213799.996,214352.022,,53,close
screen,html.Screen,2_1_0_1_54,2022-02-15T13:03:18.338Z,,,,,,,,,,,,,,,,,53,,,,,,,,,,,,,,529.0779999996303,,response,,,,99,,,,,,,Space,keypress(Space),,,,,,,,---- -- ----- -- ------ - ------- --- ----------<br>------------- ------ ------ ---- ---- ------- ----- -- ----<br>-------- ------- -- ---------- --- - --- ----- ----- ----<br>---- --- --- ----- --- ---- ---- ------- ----- ---- -------<br>--- --- -- ----- -- --- ---- -- --- ---- -- ------ ------<br>--- ----- at ----,214882,214881.09999999963,214316.298,214331.19999999925,214352.022,214899.791,,54,at
screen,html.Screen,2_1_0_1_55,2022-02-15T13:03:19.498Z,,,,,,,,,,,,,,,,,53,,,,,,,,,,,,,,1141.5090000007476,,response,,,,99,,,,,,,Space,keypress(Space),,,,,,,,---- -- ----- -- ------ - ------- --- ----------<br>------------- ------ ------ ---- ---- ------- ----- -- ----<br>-------- ------- -- ---------- --- - --- ----- ----- ----<br>---- --- --- ----- --- ---- ---- ------- ----- ---- -------<br>--- --- -- ----- -- --- ---- -- --- ---- -- ------ ------<br>--- ----- -- all.,216042,216041.30000000075,214866.264,214882.09999999963,214899.791,216049.288,,55,all.
Item 99,flow.Loop,2_1_0_1,2022-02-15T13:03:19.498Z,,,,,,,,,,,,,,,,,,,,,,,,,,,,,,,32254.41900000075,,completion,,,,,E,,,,,,,,,,,silence,,,,,216042.30000000075,216041.30000000075,183770.171,183771.5,183786.881,216049.288,,,
Question 1,html.Screen,2_1_0_2,2022-02-15T13:03:27.063Z,,,,,,,,,,,,,,,,,,,,,,,,,,,,true,FALSE,,7556.612000000372,,response,,,,99,E,,,,,,FALSE,click #choice-2,,,,silence,,,,,223607,223605.90000000037,216032.758,216042.40000000037,216049.288,223614.972,,,
Question 2,html.Screen,2_1_0_3,2022-02-15T13:03:31.301Z,,,,,,,,,,,,,,,,,,,,,,,,,,,,true,TRUE,,4229.127999999619,,response,,,,99,E,,,,,,TRUE,click #choice-1,,,,silence,,,,,227845.19999999925,227844.09999999963,223598.386,223607.19999999925,223614.972,227847.722,,,
Item 99,flow.Sequence,2_1_0,2022-02-15T13:03:31.301Z,,,,,,,,,,,,,,,,,,,,,,,,,,,,,,,54056.016999999614,,completion,,,,,,,,,,,,,,,,,,,,,227845.5,227844.09999999963,173771.507,173773.80000000075,173788.083,227847.722,,,
Holding screen,html.Screen,2_1_1_0,2022-02-15T13:03:41.286Z,,,,,,,,,,,,,,,,,,,,,,,,,,,,,,,9998.751999999979,,timeout,,,,,,,,,,,,,,,,,,,,,237830.80000000075,237829.857,227831.069,227845.69999999925,227847.722,237846.474,,,
screen,html.Screen,2_1_1_1_0,2022-02-15T13:03:42.171Z,,,,,,,,,,,,,,,,,54,,,,,,,,,,,,,,868.7259999992675,,response,,,,100,,,,,,,Space,keypress(Space),,,,,,,,At --- ---- --- ------ ----- ------- ---- -- --- ------- --<br>------- ---------- ------ -- ----- -- ----- -- ---- ------<br>--- ----- --- --- ------ -------- ----- --- ------ ----- --<br>----- ----- ---------- --- --- ------ ------ ---- -- ------<br>------- --- ------ ----- --- ---- ------- -- ---- --- --<br>------- ------,238715.90000000037,238715.19999999925,237829.857,237831,237846.474,238729.848,,0,At
screen,html.Screen,2_1_1_1_1,2022-02-15T13:03:42.530Z,,,,,,,,,,,,,,,,,54,,,,,,,,,,,,,,343.9520000007469,,response,,,,100,,,,,,,Space,keypress(Space),,,,,,,,-- the ---- --- ------ ----- ------- ---- -- --- ------- --<br>------- ---------- ------ -- ----- -- ----- -- ---- ------<br>--- ----- --- --- ------ -------- ----- --- ------ ----- --<br>----- ----- ---------- --- --- ------ ------ ---- -- ------<br>------- --- ------ ----- --- ---- ------- -- ---- --- --<br>------- ------,239074.59999999963,239073.80000000075,238713.196,238716.09999999963,238729.848,239079.663,,1,the
screen,html.Screen,2_1_1_1_2,2022-02-15T13:03:42.845Z,,,,,,,,,,,,,,,,,54,,,,,,,,,,,,,,309.1370000007446,,response,,,,100,,,,,,,Space,keypress(Space),,,,,,,,-- --- time --- ------ ----- ------- ---- -- --- ------- --<br>------- ---------- ------ -- ----- -- ----- -- ---- ------<br>--- ----- --- --- ------ -------- ----- --- ------ ----- --<br>----- ----- ---------- --- --- ------ ------ ---- -- ------<br>------- --- ------ ----- --- ---- ------- -- ---- --- --<br>------- ------,239389.59999999963,239388.80000000075,239063.048,239074.80000000075,239079.663,239396.342,,2,time
screen,html.Screen,2_1_1_1_3,2022-02-15T13:03:43.226Z,,,,,,,,,,,,,,,,,54,,,,,,,,,,,,,,372.7579999996233,,response,,,,100,,,,,,,Space,keypress(Space),,,,,,,,-- --- ---- the ------ ----- ------- ---- -- --- ------- --<br>------- ---------- ------ -- ----- -- ----- -- ---- ------<br>--- ----- --- --- ------ -------- ----- --- ------ ----- --<br>----- ----- ---------- --- --- ------ ------ ---- -- ------<br>------- --- ------ ----- --- ---- ------- -- ---- --- --<br>------- ------,239770,239769.09999999963,239379.904,239389.80000000075,239396.342,239779.658,,3,the
screen,html.Screen,2_1_1_1_4,2022-02-15T13:03:43.570Z,,,,,,,,,,,,,,,,,54,,,,,,,,,,,,,,334.04199999925913,,response,,,,100,,,,,,,Space,keypress(Space),,,,,,,,-- --- ---- --- French ----- ------- ---- -- --- ------- --<br>------- ---------- ------ -- ----- -- ----- -- ---- ------<br>--- ----- --- --- ------ -------- ----- --- ------ ----- --<br>----- ----- ---------- --- --- ------ ------ ---- -- ------<br>------- --- ------ ----- --- ---- ------- -- ---- --- --<br>------- ------,240114.59999999963,240113.69999999925,239763.309,239770.19999999925,239779.658,240129.949,,4,French
screen,html.Screen,2_1_1_1_5,2022-02-15T13:03:43.964Z,,,,,,,,,,,,,,,,,54,,,,,,,,,,,,,,378.05100000000675,,response,,,,100,,,,,,,Space,keypress(Space),,,,,,,,-- --- ---- --- ------ crown ------- ---- -- --- ------- --<br>------- ---------- ------ -- ----- -- ----- -- ---- ------<br>--- ----- --- --- ------ -------- ----- --- ------ ----- --<br>----- ----- ---------- --- --- ------ ------ ---- -- ------<br>------- --- ------ ----- --- ---- ------- -- ---- --- --<br>------- ------,240508.80000000075,240508,240112.848,240114.59999999963,240129.949,240512.734,,5,crown
screen,html.Screen,2_1_1_1_6,2022-02-15T13:03:44.325Z,,,,,,,,,,,,,,,,,54,,,,,,,,,,,,,,355.6660000003758,,response,,,,100,,,,,,,Space,keypress(Space),,,,,,,,-- --- ---- --- ------ ----- secured ---- -- --- ------- --<br>------- ---------- ------ -- ----- -- ----- -- ---- ------<br>--- ----- --- --- ------ -------- ----- --- ------ ----- --<br>----- ----- ---------- --- --- ------ ------ ---- -- ------<br>------- --- ------ ----- --- ---- ------- -- ---- --- --<br>------- ------,240869.09999999963,240868.40000000037,240496.516,240509,240512.734,240879.649,,6,secured
screen,html.Screen,2_1_1_1_7,2022-02-15T13:03:44.830Z,,,,,,,,,,,,,,,,,54,,,,,,,,,,,,,,493.75100000036764,,response,,,,100,,,,,,,Space,keypress(Space),,,,,,,,-- --- ---- --- ------ ----- ------- much -- --- ------- --<br>------- ---------- ------ -- ----- -- ----- -- ---- ------<br>--- ----- --- --- ------ -------- ----- --- ------ ----- --<br>----- ----- ---------- --- --- ------ ------ ---- -- ------<br>------- --- ------ ----- --- ---- ------- -- ---- --- --<br>------- ------,241374.30000000075,241373.40000000037,240862.869,240869.19999999925,240879.649,241379.294,,7,much
screen,html.Screen,2_1_1_1_8,2022-02-15T13:03:45.239Z,,,,,,,,,,,,,,,,,54,,,,,,,,,,,,,,403.40599999926053,,response,,,,100,,,,,,,Space,keypress(Space),,,,,,,,-- --- ---- --- ------ ----- ------- ---- of --- ------- --<br>------- ---------- ------ -- ----- -- ----- -- ---- ------<br>--- ----- --- --- ------ -------- ----- --- ------ ----- --<br>----- ----- ---------- --- --- ------ ------ ---- -- ------<br>------- --- ------ ----- --- ---- ------- -- ---- --- --<br>------- ------,241783.59999999963,241782.69999999925,241362.834,241374.5,241379.294,241796.137,,8,of
screen,html.Screen,2_1_1_1_9,2022-02-15T13:03:45.615Z,,,,,,,,,,,,,,,,,54,,,,,,,,,,,,,,362.76300000038464,,response,,,,100,,,,,,,Space,keypress(Space),,,,,,,,-- --- ---- --- ------ ----- ------- ---- -- its ------- --<br>------- ---------- ------ -- ----- -- ----- -- ---- ------<br>--- ----- --- --- ------ -------- ----- --- ------ ----- --<br>----- ----- ---------- --- --- ------ ------ ---- -- ------<br>------- --- ------ ----- --- ---- ------- -- ---- --- --<br>------- ------,242159.5,242158.90000000037,241779.401,241783.80000000075,241796.137,242162.533,,9,its
screen,html.Screen,2_1_1_1_10,2022-02-15T13:03:46.145Z,,,,,,,,,,,,,,,,,54,,,,,,,,,,,,,,526.1669999992591,,response,,,,100,,,,,,,Space,keypress(Space),,,,,,,,-- --- ---- --- ------ ----- ------- ---- -- --- revenue --<br>------- ---------- ------ -- ----- -- ----- -- ---- ------<br>--- ----- --- --- ------ -------- ----- --- ------ ----- --<br>----- ----- ---------- --- --- ------ ------ ---- -- ------<br>------- --- ------ ----- --- ---- ------- -- ---- --- --<br>------- ------,242689.5,242688.69999999925,242146.021,242159.69999999925,242162.533,242696.037,,10,revenue
screen,html.Screen,2_1_1_1_11,2022-02-15T13:03:46.770Z,,,,,,,,,,,,,,,,,54,,,,,,,,,,,,,,617.4629999999888,,response,,,,100,,,,,,,Space,keypress(Space),,,,,,,,-- --- ---- --- ------ ----- ------- ---- -- --- ------- by<br>------- ---------- ------ -- ----- -- ----- -- ---- ------<br>--- ----- --- --- ------ -------- ----- --- ------ ----- --<br>----- ----- ---------- --- --- ------ ------ ---- -- ------<br>------- --- ------ ----- --- ---- ------- -- ---- --- --<br>------- ------,243314.30000000075,243313.5,242679.515,242689.69999999925,242696.037,243330.365,,11,by
screen,html.Screen,2_1_1_1_12,2022-02-15T13:03:47.234Z,,,,,,,,,,,,,,,,,54,,,,,,,,,,,,,,447.2349999996368,,response,,,,100,,,,,,,Space,keypress(Space),,,,,,,,-- --- ---- --- ------ ----- ------- ---- -- --- ------- --<br>issuing ---------- ------ -- ----- -- ----- -- ---- ------<br>--- ----- --- --- ------ -------- ----- --- ------ ----- --<br>----- ----- ---------- --- --- ------ ------ ---- -- ------<br>------- --- ------ ----- --- ---- ------- -- ---- --- --<br>------- ------,243778.19999999925,243777.59999999963,243312.589,243314.40000000037,243330.365,243796.063,,12,issuing
screen,html.Screen,2_1_1_1_13,2022-02-15T13:03:47.730Z,,,,,,,,,,,,,,,,,54,,,,,,,,,,,,,,477.5369999996328,,response,,,,100,,,,,,,Space,keypress(Space),,,,,,,,-- --- ---- --- ------ ----- ------- ---- -- --- ------- --<br>------- government ------ -- ----- -- ----- -- ---- ------<br>--- ----- --- --- ------ -------- ----- --- ------ ----- --<br>----- ----- ---------- --- --- ------ ------ ---- -- ------<br>------- --- ------ ----- --- ---- ------- -- ---- --- --<br>------- ------,244274.40000000037,244273.59999999963,243762.564,243778.40000000037,243796.063,244278.929,,13,government
screen,html.Screen,2_1_1_1_14,2022-02-15T13:03:48.366Z,,,,,,,,,,,,,,,,,54,,,,,,,,,,,,,,630.4710000003688,,response,,,,100,,,,,,,Space,keypress(Space),,,,,,,,-- --- ---- --- ------ ----- ------- ---- -- --- ------- --<br>------- ---------- bonds. -- ----- -- ----- -- ---- ------<br>--- ----- --- --- ------ -------- ----- --- ------ ----- --<br>----- ----- ---------- --- --- ------ ------ ---- -- ------<br>------- --- ------ ----- --- ---- ------- -- ---- --- --<br>------- ------,244910.30000000075,244909.40000000037,244262.558,244274.5,244278.929,244912.195,,14,bonds.
screen,html.Screen,2_1_1_1_15,2022-02-15T13:03:49.356Z,,,,,,,,,,,,,,,,,54,,,,,,,,,,,,,,987.2050000003655,,response,,,,100,,,,,,,Space,keypress(Space),,,,,,,,-- --- ---- --- ------ ----- ------- ---- -- --- ------- --<br>------- ---------- ------ In ----- -- ----- -- ---- ------<br>--- ----- --- --- ------ -------- ----- --- ------ ----- --<br>----- ----- ---------- --- --- ------ ------ ---- -- ------<br>------- --- ------ ----- --- ---- ------- -- ---- --- --<br>------- ------,245900.19999999925,245899.40000000037,244895.87,244910.40000000037,244912.195,245912.174,,15,In
screen,html.Screen,2_1_1_1_16,2022-02-15T13:03:50.250Z,,,,,,,,,,,,,,,,,54,,,,,,,,,,,,,,881.2260000003735,,response,,,,100,,,,,,,Space,keypress(Space),,,,,,,,"-- --- ---- --- ------ ----- ------- ---- -- --- ------- --<br>------- ---------- ------ -- 1727, -- ----- -- ---- ------<br>--- ----- --- --- ------ -------- ----- --- ------ ----- --<br>----- ----- ---------- --- --- ------ ------ ---- -- ------<br>------- --- ------ ----- --- ---- ------- -- ---- --- --<br>------- ------",246794.19999999925,246793.40000000037,245895.608,245900.40000000037,245912.174,246813.286,,16,"1727,"
screen,html.Screen,2_1_1_1_17,2022-02-15T13:03:50.700Z,,,,,,,,,,,,,,,,,54,,,,,,,,,,,,,,430.0140000007523,,response,,,,100,,,,,,,Space,keypress(Space),,,,,,,,-- --- ---- --- ------ ----- ------- ---- -- --- ------- --<br>------- ---------- ------ -- ----- in ----- -- ---- ------<br>--- ----- --- --- ------ -------- ----- --- ------ ----- --<br>----- ----- ---------- --- --- ------ ------ ---- -- ------<br>------- --- ------ ----- --- ---- ------- -- ---- --- --<br>------- ------,247244.09999999963,247243.30000000075,246779.041,246794.40000000037,246813.286,247268.001,,17,in
screen,html.Screen,2_1_1_1_18,2022-02-15T13:03:51.100Z,,,,,,,,,,,,,,,,,54,,,,,,,,,,,,,,375.39900000038324,,response,,,,100,,,,,,,Space,keypress(Space),,,,,,,,-- --- ---- --- ------ ----- ------- ---- -- --- ------- --<br>------- ---------- ------ -- ----- -- order -- ---- ------<br>--- ----- --- --- ------ -------- ----- --- ------ ----- --<br>----- ----- ---------- --- --- ------ ------ ---- -- ------<br>------- --- ------ ----- --- ---- ------- -- ---- --- --<br>------- ------,247644.19999999925,247643.40000000037,247228.626,247244.30000000075,247268.001,247675.542,,18,order
screen,html.Screen,2_1_1_1_19,2022-02-15T13:03:51.580Z,,,,,,,,,,,,,,,,,54,,,,,,,,,,,,,,447.95800000001327,,response,,,,100,,,,,,,Space,keypress(Space),,,,,,,,-- --- ---- --- ------ ----- ------- ---- -- --- ------- --<br>------- ---------- ------ -- ----- -- ----- to ---- ------<br>--- ----- --- --- ------ -------- ----- --- ------ ----- --<br>----- ----- ---------- --- --- ------ ------ ---- -- ------<br>------- --- ------ ----- --- ---- ------- -- ---- --- --<br>------- ------,248124.19999999925,248123.5,247628.655,247644.40000000037,247675.542,248128.468,,19,to
screen,html.Screen,2_1_1_1_20,2022-02-15T13:03:51.985Z,,,,,,,,,,,,,,,,,54,,,,,,,,,,,,,,400.0320000000065,,response,,,,100,,,,,,,Space,keypress(Space),,,,,,,,-- --- ---- --- ------ ----- ------- ---- -- --- ------- --<br>------- ---------- ------ -- ----- -- ----- -- save ------<br>--- ----- --- --- ------ -------- ----- --- ------ ----- --<br>----- ----- ---------- --- --- ------ ------ ---- -- ------<br>------- --- ------ ----- --- ---- ------- -- ---- --- --<br>------- ------,248529.19999999925,248528.5,248112.085,248124.5,248128.468,248545.15,,20,save
screen,html.Screen,2_1_1_1_21,2022-02-15T13:03:52.537Z,,,,,,,,,,,,,,,,,54,,,,,,,,,,,,,,535.3500000000058,,response,,,,100,,,,,,,Space,keypress(Space),,,,,,,,"-- --- ---- --- ------ ----- ------- ---- -- --- ------- --<br>------- ---------- ------ -- ----- -- ----- -- ---- money,<br>--- ----- --- --- ------ -------- ----- --- ------ ----- --<br>----- ----- ---------- --- --- ------ ------ ---- -- ------<br>------- --- ------ ----- --- ---- ------- -- ---- --- --<br>------- ------",249081.30000000075,249080.5,248528.481,248529.40000000037,248545.15,249095.101,,21,"money,"
screen,html.Screen,2_1_1_1_22,2022-02-15T13:03:52.945Z,,,,,,,,,,,,,,,,,54,,,,,,,,,,,,,,393.2990000003774,,response,,,,100,,,,,,,Space,keypress(Space),,,,,,,,-- --- ---- --- ------ ----- ------- ---- -- --- ------- --<br>------- ---------- ------ -- ----- -- ----- -- ---- ------<br>the ----- --- --- ------ -------- ----- --- ------ ----- --<br>----- ----- ---------- --- --- ------ ------ ---- -- ------<br>------- --- ------ ----- --- ---- ------- -- ---- --- --<br>------- ------,249489.19999999925,249488.40000000037,249078.481,249081.40000000037,249095.101,249495.089,,22,the
screen,html.Screen,2_1_1_1_23,2022-02-15T13:03:53.361Z,,,,,,,,,,,,,,,,,54,,,,,,,,,,,,,,408.9109999999928,,response,,,,100,,,,,,,Space,keypress(Space),,,,,,,,-- --- ---- --- ------ ----- ------- ---- -- --- ------- --<br>------- ---------- ------ -- ----- -- ----- -- ---- ------<br>--- state --- --- ------ -------- ----- --- ------ ----- --<br>----- ----- ---------- --- --- ------ ------ ---- -- ------<br>------- --- ------ ----- --- ---- ------- -- ---- --- --<br>------- ------,249904.80000000075,249904,249478.709,249489.30000000075,249495.089,249911.611,,23,state
screen,html.Screen,2_1_1_1_24,2022-02-15T13:03:53.769Z,,,,,,,,,,,,,,,,,54,,,,,,,,,,,,,,401.0889999992505,,response,,,,100,,,,,,,Space,keypress(Space),,,,,,,,-- --- ---- --- ------ ----- ------- ---- -- --- ------- --<br>------- ---------- ------ -- ----- -- ----- -- ---- ------<br>--- ----- cut --- ------ -------- ----- --- ------ ----- --<br>----- ----- ---------- --- --- ------ ------ ---- -- ------<br>------- --- ------ ----- --- ---- ------- -- ---- --- --<br>------- ------,250313.5,250312.69999999925,249895.221,249905,249911.611,250328.602,,24,cut
screen,html.Screen,2_1_1_1_25,2022-02-15T13:03:54.184Z,,,,,,,,,,,,,,,,,54,,,,,,,,,,,,,,398.69800000073155,,response,,,,100,,,,,,,Space,keypress(Space),,,,,,,,-- --- ---- --- ------ ----- ------- ---- -- --- ------- --<br>------- ---------- ------ -- ----- -- ----- -- ---- ------<br>--- ----- --- the ------ -------- ----- --- ------ ----- --<br>----- ----- ---------- --- --- ------ ------ ---- -- ------<br>------- --- ------ ----- --- ---- ------- -- ---- --- --<br>------- ------,250728.09999999963,250727.30000000075,250311.617,250313.59999999963,250328.602,250744.967,,25,the
screen,html.Screen,2_1_1_1_26,2022-02-15T13:03:54.625Z,,,,,,,,,,,,,,,,,54,,,,,,,,,,,,,,423.23299999925075,,response,,,,100,,,,,,,Space,keypress(Space),,,,,,,,-- --- ---- --- ------ ----- ------- ---- -- --- ------- --<br>------- ---------- ------ -- ----- -- ----- -- ---- ------<br>--- ----- --- --- bonds' -------- ----- --- ------ ----- --<br>----- ----- ---------- --- --- ------ ------ ---- -- ------<br>------- --- ------ ----- --- ---- ------- -- ---- --- --<br>------- ------,251169,251168.19999999925,250728.391,250728.19999999925,250744.967,251178.337,,26,bonds'
screen,html.Screen,2_1_1_1_27,2022-02-15T13:03:55.065Z,,,,,,,,,,,,,,,,,54,,,,,,,,,,,,,,430.063000000373,,response,,,,100,,,,,,,Space,keypress(Space),,,,,,,,-- --- ---- --- ------ ----- ------- ---- -- --- ------- --<br>------- ---------- ------ -- ----- -- ----- -- ---- ------<br>--- ----- --- --- ------ interest ----- --- ------ ----- --<br>----- ----- ---------- --- --- ------ ------ ---- -- ------<br>------- --- ------ ----- --- ---- ------- -- ---- --- --<br>------- ------,251609.19999999925,251608.40000000037,251161.601,251169.09999999963,251178.337,251611.357,,27,interest
screen,html.Screen,2_1_1_1_28,2022-02-15T13:03:55.659Z,,,,,,,,,,,,,,,,,54,,,,,,,,,,,,,,591.0430000003835,,response,,,,100,,,,,,,Space,keypress(Space),,,,,,,,-- --- ---- --- ------ ----- ------- ---- -- --- ------- --<br>------- ---------- ------ -- ----- -- ----- -- ---- ------<br>--- ----- --- --- ------ -------- rate. --- ------ ----- --<br>----- ----- ---------- --- --- ------ ------ ---- -- ------<br>------- --- ------ ----- --- ---- ------- -- ---- --- --<br>------- ------,252203.30000000075,252202.40000000037,251594.859,251609.30000000075,251611.357,252211.376,,28,rate.
screen,html.Screen,2_1_1_1_29,2022-02-15T13:03:56.075Z,,,,,,,,,,,,,,,,,54,,,,,,,,,,,,,,406.7239999996382,,response,,,,100,,,,,,,Space,keypress(Space),,,,,,,,-- --- ---- --- ------ ----- ------- ---- -- --- ------- --<br>------- ---------- ------ -- ----- -- ----- -- ---- ------<br>--- ----- --- --- ------ -------- ----- The ------ ----- --<br>----- ----- ---------- --- --- ------ ------ ---- -- ------<br>------- --- ------ ----- --- ---- ------- -- ---- --- --<br>------- ------,252618.90000000037,252618.09999999963,252194.756,252203.40000000037,252211.376,252628.001,,29,The
screen,html.Screen,2_1_1_1_30,2022-02-15T13:03:56.485Z,,,,,,,,,,,,,,,,,54,,,,,,,,,,,,,,399.9990000000107,,response,,,,100,,,,,,,Space,keypress(Space),,,,,,,,-- --- ---- --- ------ ----- ------- ---- -- --- ------- --<br>------- ---------- ------ -- ----- -- ----- -- ---- ------<br>--- ----- --- --- ------ -------- ----- --- market ----- --<br>----- ----- ---------- --- --- ------ ------ ---- -- ------<br>------- --- ------ ----- --- ---- ------- -- ---- --- --<br>------- ------,253028.80000000075,253028,252611.448,252619,252628.001,253044.582,,30,market
screen,html.Screen,2_1_1_1_31,2022-02-15T13:03:56.895Z,,,,,,,,,,,,,,,,,54,,,,,,,,,,,,,,393.5179999996326,,response,,,,100,,,,,,,Space,keypress(Space),,,,,,,,-- --- ---- --- ------ ----- ------- ---- -- --- ------- --<br>------- ---------- ------ -- ----- -- ----- -- ---- ------<br>--- ----- --- --- ------ -------- ----- --- ------ value --<br>----- ----- ---------- --- --- ------ ------ ---- -- ------<br>------- --- ------ ----- --- ---- ------- -- ---- --- --<br>------- ------,253438.80000000075,253438.09999999963,253027.941,253028.90000000037,253044.582,253444.478,,31,value
screen,html.Screen,2_1_1_1_32,2022-02-15T13:03:57.444Z,,,,,,,,,,,,,,,,,54,,,,,,,,,,,,,,542.4220000003697,,response,,,,100,,,,,,,Space,keypress(Space),,,,,,,,-- --- ---- --- ------ ----- ------- ---- -- --- ------- --<br>------- ---------- ------ -- ----- -- ----- -- ---- ------<br>--- ----- --- --- ------ -------- ----- --- ------ ----- of<br>----- ----- ---------- --- --- ------ ------ ---- -- ------<br>------- --- ------ ----- --- ---- ------- -- ---- --- --<br>------- ------,253987.59999999963,253986.90000000037,253428.192,253439,253444.478,253994.437,,32,of
screen,html.Screen,2_1_1_1_33,2022-02-15T13:03:57.880Z,,,,,,,,,,,,,,,,,54,,,,,,,,,,,,,,428.3630000007397,,response,,,,100,,,,,,,Space,keypress(Space),,,,,,,,-- --- ---- --- ------ ----- ------- ---- -- --- ------- --<br>------- ---------- ------ -- ----- -- ----- -- ---- ------<br>--- ----- --- --- ------ -------- ----- --- ------ ----- --<br>these ----- ---------- --- --- ------ ------ ---- -- ------<br>------- --- ------ ----- --- ---- ------- -- ---- --- --<br>------- ------,254423.69999999925,254422.80000000075,253978.088,253987.69999999925,253994.437,254427.631,,33,these
screen,html.Screen,2_1_1_1_34,2022-02-15T13:03:58.285Z,,,,,,,,,,,,,,,,,54,,,,,,,,,,,,,,400.2690000003786,,response,,,,100,,,,,,,Space,keypress(Space),,,,,,,,-- --- ---- --- ------ ----- ------- ---- -- --- ------- --<br>------- ---------- ------ -- ----- -- ----- -- ---- ------<br>--- ----- --- --- ------ -------- ----- --- ------ ----- --<br>----- bonds ---------- --- --- ------ ------ ---- -- ------<br>------- --- ------ ----- --- ---- ------- -- ---- --- --<br>------- ------,254828.90000000037,254827.90000000037,254411.418,254423.80000000075,254427.631,254844.281,,34,bonds
screen,html.Screen,2_1_1_1_35,2022-02-15T13:03:58.740Z,,,,,,,,,,,,,,,,,54,,,,,,,,,,,,,,438.6190000003844,,response,,,,100,,,,,,,Space,keypress(Space),,,,,,,,"-- --- ---- --- ------ ----- ------- ---- -- --- ------- --<br>------- ---------- ------ -- ----- -- ----- -- ---- ------<br>--- ----- --- --- ------ -------- ----- --- ------ ----- --<br>----- ----- plummeted, --- --- ------ ------ ---- -- ------<br>------- --- ------ ----- --- ---- ------- -- ---- --- --<br>------- ------",255283.80000000075,255282.90000000037,254827.86,254829,254844.281,255294.261,,35,"plummeted,"
screen,html.Screen,2_1_1_1_36,2022-02-15T13:03:59.265Z,,,,,,,,,,,,,,,,,54,,,,,,,,,,,,,,513.5390000007465,,response,,,,100,,,,,,,Space,keypress(Space),,,,,,,,-- --- ---- --- ------ ----- ------- ---- -- --- ------- --<br>------- ---------- ------ -- ----- -- ----- -- ---- ------<br>--- ----- --- --- ------ -------- ----- --- ------ ----- --<br>----- ----- ---------- and --- ------ ------ ---- -- ------<br>------- --- ------ ----- --- ---- ------- -- ---- --- --<br>------- ------,255808.59999999963,255807.80000000075,255277.666,255283.90000000037,255294.261,255810.811,,36,and
screen,html.Screen,2_1_1_1_37,2022-02-15T13:03:59.675Z,,,,,,,,,,,,,,,,,54,,,,,,,,,,,,,,407.08900000038557,,response,,,,100,,,,,,,Space,keypress(Space),,,,,,,,-- --- ---- --- ------ ----- ------- ---- -- --- ------- --<br>------- ---------- ------ -- ----- -- ----- -- ---- ------<br>--- ----- --- --- ------ -------- ----- --- ------ ----- --<br>----- ----- ---------- --- the ------ ------ ---- -- ------<br>------- --- ------ ----- --- ---- ------- -- ---- --- --<br>------- ------,256218.69999999925,256217.90000000037,255794.331,255808.69999999925,255810.811,256227.817,,37,the
screen,html.Screen,2_1_1_1_38,2022-02-15T13:04:00.074Z,,,,,,,,,,,,,,,,,54,,,,,,,,,,,,,,389.98300000073505,,response,,,,100,,,,,,,Space,keypress(Space),,,,,,,,-- --- ---- --- ------ ----- ------- ---- -- --- ------- --<br>------- ---------- ------ -- ----- -- ----- -- ---- ------<br>--- ----- --- --- ------ -------- ----- --- ------ ----- --<br>----- ----- ---------- --- --- market ------ ---- -- ------<br>------- --- ------ ----- --- ---- ------- -- ---- --- --<br>------- ------,256618.5,256617.80000000075,256210.869,256218.80000000075,256227.817,256627.351,,38,market
screen,html.Screen,2_1_1_1_39,2022-02-15T13:04:00.453Z,,,,,,,,,,,,,,,,,54,,,,,,,,,,,,,,369.34899999925983,,response,,,,100,,,,,,,Space,keypress(Space),,,,,,,,-- --- ---- --- ------ ----- ------- ---- -- --- ------- --<br>------- ---------- ------ -- ----- -- ----- -- ---- ------<br>--- ----- --- --- ------ -------- ----- --- ------ ----- --<br>----- ----- ---------- --- --- ------ became ---- -- ------<br>------- --- ------ ----- --- ---- ------- -- ---- --- --<br>------- ------,256997.5,256996.69999999925,256610.973,256618.69999999925,256627.351,257011.039,,39,became
screen,html.Screen,2_1_1_1_40,2022-02-15T13:04:00.824Z,,,,,,,,,,,,,,,,,54,,,,,,,,,,,,,,355.96100000001024,,response,,,,100,,,,,,,Space,keypress(Space),,,,,,,,-- --- ---- --- ------ ----- ------- ---- -- --- ------- --<br>------- ---------- ------ -- ----- -- ----- -- ---- ------<br>--- ----- --- --- ------ -------- ----- --- ------ ----- --<br>----- ----- ---------- --- --- ------ ------ wary -- ------<br>------- --- ------ ----- --- ---- ------- -- ---- --- --<br>------- ------,257367.69999999925,257367,256994.253,256997.69999999925,257011.039,257377.293,,40,wary
screen,html.Screen,2_1_1_1_41,2022-02-15T13:04:01.293Z,,,,,,,,,,,,,,,,,54,,,,,,,,,,,,,,459.30699999962235,,response,,,,100,,,,,,,Space,keypress(Space),,,,,,,,-- --- ---- --- ------ ----- ------- ---- -- --- ------- --<br>------- ---------- ------ -- ----- -- ----- -- ---- ------<br>--- ----- --- --- ------ -------- ----- --- ------ ----- --<br>----- ----- ---------- --- --- ------ ------ ---- of ------<br>------- --- ------ ----- --- ---- ------- -- ---- --- --<br>------- ------,257837.40000000037,257836.59999999963,257360.681,257367.90000000037,257377.293,257843.927,,41,of
screen,html.Screen,2_1_1_1_42,2022-02-15T13:04:01.855Z,,,,,,,,,,,,,,,,,54,,,,,,,,,,,,,,553.873000000749,,response,,,,100,,,,,,,Space,keypress(Space),,,,,,,,-- --- ---- --- ------ ----- ------- ---- -- --- ------- --<br>------- ---------- ------ -- ----- -- ----- -- ---- ------<br>--- ----- --- --- ------ -------- ----- --- ------ ----- --<br>----- ----- ---------- --- --- ------ ------ ---- -- French<br>------- --- ------ ----- --- ---- ------- -- ---- --- --<br>------- ------,258398.59999999963,258397.80000000075,257827.648,257837.59999999963,257843.927,258410.901,,42,French
screen,html.Screen,2_1_1_1_43,2022-02-15T13:04:02.330Z,,,,,,,,,,,,,,,,,54,,,,,,,,,,,,,,462.29899999924237,,response,,,,100,,,,,,,Space,keypress(Space),,,,,,,,-- --- ---- --- ------ ----- ------- ---- -- --- ------- --<br>------- ---------- ------ -- ----- -- ----- -- ---- ------<br>--- ----- --- --- ------ -------- ----- --- ------ ----- --<br>----- ----- ---------- --- --- ------ ------ ---- -- ------<br>credit. --- ------ ----- --- ---- ------- -- ---- --- --<br>------- ------,258874,258873.19999999925,258394.163,258398.80000000075,258410.901,258877.028,,43,credit.
screen,html.Screen,2_1_1_1_44,2022-02-15T13:04:02.765Z,,,,,,,,,,,,,,,,,54,,,,,,,,,,,,,,431.5719999996363,,response,,,,100,,,,,,,Space,keypress(Space),,,,,,,,-- --- ---- --- ------ ----- ------- ---- -- --- ------- --<br>------- ---------- ------ -- ----- -- ----- -- ---- ------<br>--- ----- --- --- ------ -------- ----- --- ------ ----- --<br>----- ----- ---------- --- --- ------ ------ ---- -- ------<br>------- The ------ ----- --- ---- ------- -- ---- --- --<br>------- ------,259309.40000000037,259308.59999999963,258860.573,258874.09999999963,258877.028,259332.493,,44,The
screen,html.Screen,2_1_1_1_45,2022-02-15T13:04:03.163Z,,,,,,,,,,,,,,,,,54,,,,,,,,,,,,,,374.00700000001234,,response,,,,100,,,,,,,Space,keypress(Space),,,,,,,,-- --- ---- --- ------ ----- ------- ---- -- --- ------- --<br>------- ---------- ------ -- ----- -- ----- -- ---- ------<br>--- ----- --- --- ------ -------- ----- --- ------ ----- --<br>----- ----- ---------- --- --- ------ ------ ---- -- ------<br>------- --- French ----- --- ---- ------- -- ---- --- --<br>------- ------,259707.30000000075,259706.5,259293.825,259309.59999999963,259332.493,259710.247,,45,French
screen,html.Screen,2_1_1_1_46,2022-02-15T13:04:03.574Z,,,,,,,,,,,,,,,,,54,,,,,,,,,,,,,,407.35299999962444,,response,,,,100,,,,,,,Space,keypress(Space),,,,,,,,-- --- ---- --- ------ ----- ------- ---- -- --- ------- --<br>------- ---------- ------ -- ----- -- ----- -- ---- ------<br>--- ----- --- --- ------ -------- ----- --- ------ ----- --<br>----- ----- ---------- --- --- ------ ------ ---- -- ------<br>------- --- ------ state --- ---- ------- -- ---- --- --<br>------- ------,260118.30000000075,260117.59999999963,259693.968,259707.5,259710.247,260127.104,,46,state
screen,html.Screen,2_1_1_1_47,2022-02-15T13:04:03.945Z,,,,,,,,,,,,,,,,,54,,,,,,,,,,,,,,360.8960000000079,,response,,,,100,,,,,,,Space,keypress(Space),,,,,,,,-- --- ---- --- ------ ----- ------- ---- -- --- ------- --<br>------- ---------- ------ -- ----- -- ----- -- ---- ------<br>--- ----- --- --- ------ -------- ----- --- ------ ----- --<br>----- ----- ---------- --- --- ------ ------ ---- -- ------<br>------- --- ------ ----- was ---- ------- -- ---- --- --<br>------- ------,260488.90000000037,260488,260110.456,260118.5,260127.104,260493.522,,47,was
screen,html.Screen,2_1_1_1_48,2022-02-15T13:04:04.329Z,,,,,,,,,,,,,,,,,54,,,,,,,,,,,,,,379.07799999963026,,response,,,,100,,,,,,,Space,keypress(Space),,,,,,,,-- --- ---- --- ------ ----- ------- ---- -- --- ------- --<br>------- ---------- ------ -- ----- -- ----- -- ---- ------<br>--- ----- --- --- ------ -------- ----- --- ------ ----- --<br>----- ----- ---------- --- --- ------ ------ ---- -- ------<br>------- --- ------ ----- --- left ------- -- ---- --- --<br>------- ------,260873.40000000037,260872.59999999963,260476.906,260489,260493.522,260876.767,,48,left
screen,html.Screen,2_1_1_1_49,2022-02-15T13:04:04.689Z,,,,,,,,,,,,,,,,,54,,,,,,,,,,,,,,355.8329999996349,,response,,,,100,,,,,,,Space,keypress(Space),,,,,,,,-- --- ---- --- ------ ----- ------- ---- -- --- ------- --<br>------- ---------- ------ -- ----- -- ----- -- ---- ------<br>--- ----- --- --- ------ -------- ----- --- ------ ----- --<br>----- ----- ---------- --- --- ------ ------ ---- -- ------<br>------- --- ------ ----- --- ---- without -- ---- --- --<br>------- ------,261233.5,261232.59999999963,260860.424,260873.5,260876.767,261243.414,,49,without
screen,html.Screen,2_1_1_1_50,2022-02-15T13:04:05.089Z,,,,,,,,,,,,,,,,,54,,,,,,,,,,,,,,389.08600000001024,,response,,,,100,,,,,,,Space,keypress(Space),,,,,,,,-- --- ---- --- ------ ----- ------- ---- -- --- ------- --<br>------- ---------- ------ -- ----- -- ----- -- ---- ------<br>--- ----- --- --- ------ -------- ----- --- ------ ----- --<br>----- ----- ---------- --- --- ------ ------ ---- -- ------<br>------- --- ------ ----- --- ---- ------- an ---- --- --<br>------- ------,261633.40000000037,261632.5,261227.11,261233.69999999925,261243.414,261643.46,,50,an
screen,html.Screen,2_1_1_1_51,2022-02-15T13:04:05.420Z,,,,,,,,,,,,,,,,,54,,,,,,,,,,,,,,319.4400000003807,,response,,,,100,,,,,,,Space,keypress(Space),,,,,,,,-- --- ---- --- ------ ----- ------- ---- -- --- ------- --<br>------- ---------- ------ -- ----- -- ----- -- ---- ------<br>--- ----- --- --- ------ -------- ----- --- ------ ----- --<br>----- ----- ---------- --- --- ------ ------ ---- -- ------<br>------- --- ------ ----- --- ---- ------- -- easy --- --<br>------- ------,261963.59999999963,261962.90000000037,261627.142,261633.5,261643.46,261977.068,,51,easy
screen,html.Screen,2_1_1_1_52,2022-02-15T13:04:05.774Z,,,,,,,,,,,,,,,,,54,,,,,,,,,,,,,,339.9320000000007,,response,,,,100,,,,,,,Space,keypress(Space),,,,,,,,-- --- ---- --- ------ ----- ------- ---- -- --- ------- --<br>------- ---------- ------ -- ----- -- ----- -- ---- ------<br>--- ----- --- --- ------ -------- ----- --- ------ ----- --<br>----- ----- ---------- --- --- ------ ------ ---- -- ------<br>------- --- ------ ----- --- ---- ------- -- ---- way --<br>------- ------,262317.80000000075,262317,261960.169,261963.80000000075,261977.068,262343.616,,52,way
screen,html.Screen,2_1_1_1_53,2022-02-15T13:04:06.169Z,,,,,,,,,,,,,,,,,54,,,,,,,,,,,,,,368.88400000002,,response,,,,100,,,,,,,Space,keypress(Space),,,,,,,,-- --- ---- --- ------ ----- ------- ---- -- --- ------- --<br>------- ---------- ------ -- ----- -- ----- -- ---- ------<br>--- ----- --- --- ------ -------- ----- --- ------ ----- --<br>----- ----- ---------- --- --- ------ ------ ---- -- ------<br>------- --- ------ ----- --- ---- ------- -- ---- --- of<br>------- ------,262713.4000000004,262712.5,262326.998,262317.9000000004,262343.616,262726.563,,53,of
screen,html.Screen,2_1_1_1_54,2022-02-15T13:04:06.523Z,,,,,,,,,,,,,,,,,54,,,,,,,,,,,,,,339.7370000007213,,response,,,,100,,,,,,,Space,keypress(Space),,,,,,,,-- --- ---- --- ------ ----- ------- ---- -- --- ------- --<br>------- ---------- ------ -- ----- -- ----- -- ---- ------<br>--- ----- --- --- ------ -------- ----- --- ------ ----- --<br>----- ----- ---------- --- --- ------ ------ ---- -- ------<br>------- --- ------ ----- --- ---- ------- -- ---- --- --<br>raising ------,263067.19999999925,263066.30000000075,262711.049,262713.5,262726.563,263076.915,,54,raising
screen,html.Screen,2_1_1_1_55,2022-02-15T13:04:07.943Z,,,,,,,,,,,,,,,,,54,,,,,,,,,,,,,,1409.385000000766,,response,,,,100,,,,,,,Space,keypress(Space),,,,,,,,-- --- ---- --- ------ ----- ------- ---- -- --- ------- --<br>------- ---------- ------ -- ----- -- ----- -- ---- ------<br>--- ----- --- --- ------ -------- ----- --- ------ ----- --<br>----- ----- ---------- --- --- ------ ------ ---- -- ------<br>------- --- ------ ----- --- ---- ------- -- ---- --- --<br>------- money.,264487.0999999996,264486.30000000075,263060.012,263067.4000000004,263076.915,264493.021,,55,money.
Item 100,flow.Loop,2_1_1_1,2022-02-15T13:04:07.943Z,,,,,,,,,,,,,,,,,,,,,,,,,,,,,,,26639.826000000758,,completion,,,,,E,,,,,,,,,,,silence,,,,,264487.4000000004,264486.30000000075,237829.857,237830.90000000037,237846.474,264493.021,,,
Question 1,html.Screen,2_1_1_2,2022-02-15T13:04:12.086Z,,,,,,,,,,,,,,,,,,,,,,,,,,,,true,TRUE,,4136.07899999962,,response,,,,100,E,,,,,,TRUE,click #choice-1,,,,silence,,,,,268630.4000000004,268629.0999999996,264476.925,264487.5,264493.021,268642.671,,,
Question 2,html.Screen,2_1_1_3,2022-02-15T13:04:15.544Z,,,,,,,,,,,,,,,,,,,,,,,,,,,,true,FALSE,,3443.829000000027,,response,,,,100,E,,,,,,FALSE,click #choice-2,,,,silence,,,,,272087.69999999925,272086.5,268626.102,268630.5,268642.671,272092.035,,,
Item 100,flow.Sequence,2_1_1,2022-02-15T13:04:15.544Z,,,,,,,,,,,,,,,,,,,,,,,,,,,,,,,44238.77799999999,,completion,,,,,,,,,,,,,,,,,,,,,272087.9000000004,272086.5,227831.069,227845.59999999963,227847.722,272092.035,,,
End of Practice,html.Page,2_1_2,2022-02-15T13:04:20.990Z,,,,,,,,,,,,,,,,,,,,,,,,,,,,,,,5441.664999999281,,form submission,,,,,,,,,,,,,,,,,,,,,277534,277533.69999999925,272075.405,272088.0999999996,272092.035,277541.295,,,
Practice,flow.Sequence,2_1,2022-02-15T13:04:20.990Z,,,,,,,,,,,,,,,,,,,,,,,,,,,,,,,103745.61699999924,,completion,,,,,,,,,,,,,,,,,,,,,277534.30000000075,277533.69999999925,173771.507,173773.69999999925,173788.083,277541.295,,,
Trap_instruction,html.Page,2_2_0,2022-02-15T13:04:27.291Z,,,,,,,,,,,,,,,,,,,,,,,,,,,,,,,6293.205000000016,,form submission,,,,,,,,,,,,,,,,,,,,,283834.69999999925,283834.5,277524.79,277534.4000000004,277541.295,283857.243,,,
trap_trial,html.Screen,2_2_1,2022-02-15T13:04:31.765Z,,,,,,,,,,,,,,,,,,,,,,,,,,,,true,1,,4450.456999999238,,response,,,,,,,,,,,1,click #choice-1,,,,,,,,,288309,288307.69999999925,283824.4,283834.80000000075,283857.243,288323.264,,,
end of trap trial,html.Page,2_2_2,2022-02-15T13:04:37.846Z,,,,,,,,,,,,,,,,,,,,,,,,,,,,,,,6066.93599999923,,form submission,,,,,,,,,,,,,,,,,,,,,294390.5999999996,294390.19999999925,288306.881,288309.0999999996,288323.264,294422.934,,,
Trap 1,flow.Sequence,2_2,2022-02-15T13:04:37.847Z,,,,,,,,,,,,,,,,,,,,,,,,,,,,,,,16848.90499999927,,completion,,,,,,,,,,,,,,,,,,,,,294390.80000000075,294390.19999999925,277524.79,277534.30000000075,277541.295,294422.934,,,
Standby,html.Page,2_3_0,2022-02-15T13:04:45.862Z,,,,,,,,,,,,,,,,,,,,,,,,,,,,,,,7998.572999999975,,timeout,,,,,,,,,,,,,,,,,,,,,302406.0999999996,302404.916,294405.866,294391,294422.934,302421.507,,,
Holding screen,html.Screen,2_3_1_0_0,2022-02-15T13:04:52.860Z,,,,,,,,,,,,,,,,,,,,,,,,,,,,,,,6999.319000000018,,timeout,,,,,,,,,,,,,,,,,,,,,309405,309403.904,302404.916,302406.30000000075,302421.507,309420.826,,,
screen,html.Screen,2_3_1_0_1_0,2022-02-15T13:04:53.738Z,,,,,,,,,,,,,,,,,51,,,,,,,,,,,,,,860.5740000003716,,response,,,,13,E,,,,,,Space,keypress(Space),,,,lyrical,,,,American -------- --- --- ---- --- --- ------ -- --------<br>---- --------- --- ------- ------------ ---------- ---------<br>--- ---------- ------- ---------- ------- -- -------- ----<br>---- --- ------ ----- ------ -- ---- --- ----- -- - -------<br>-------- -- --- --- -- ----- ----------- ----- -----------<br>---- --- ---------- --- ---- --- -- ----------,310282.5,310281.4000000004,309403.904,309405.30000000075,309420.826,310287.103,,0,American
screen,html.Screen,2_3_1_0_1_1,2022-02-15T13:04:54.337Z,,,,,,,,,,,,,,,,,51,,,,,,,,,,,,,,593.3969999999972,,response,,,,13,E,,,,,,Space,keypress(Space),,,,lyrical,,,,-------- industry --- --- ---- --- --- ------ -- --------<br>---- --------- --- ------- ------------ ---------- ---------<br>--- ---------- ------- ---------- ------- -- -------- ----<br>---- --- ------ ----- ------ -- ---- --- ----- -- - -------<br>-------- -- --- --- -- ----- ----------- ----- -----------<br>---- --- ---------- --- ---- --- -- ----------,310881.19999999925,310880.5,310270.496,310282.80000000075,310287.103,310887.1,,1,industry
screen,html.Screen,2_3_1_0_1_2,2022-02-15T13:04:54.766Z,,,,,,,,,,,,,,,,,51,,,,,,,,,,,,,,422.4000000000233,,response,,,,13,E,,,,,,Space,keypress(Space),,,,lyrical,,,,-------- -------- may --- ---- --- --- ------ -- --------<br>---- --------- --- ------- ------------ ---------- ---------<br>--- ---------- ------- ---------- ------- -- -------- ----<br>---- --- ------ ----- ------ -- ---- --- ----- -- - -------<br>-------- -- --- --- -- ----- ----------- ----- -----------<br>---- --- ---------- --- ---- --- -- ----------,311310.19999999925,311309.5,310870.645,310881.30000000075,310887.1,311320.688,,2,may
screen,html.Screen,2_3_1_0_1_3,2022-02-15T13:04:55.541Z,,,,,,,,,,,,,,,,,51,,,,,,,,,,,,,,763.0119999992312,,response,,,,13,E,,,,,,Space,keypress(Space),,,,lyrical,,,,-------- -------- --- not ---- --- --- ------ -- --------<br>---- --------- --- ------- ------------ ---------- ---------<br>--- ---------- ------- ---------- ------- -- -------- ----<br>---- --- ------ ----- ------ -- ---- --- ----- -- - -------<br>-------- -- --- --- -- ----- ----------- ----- -----------<br>---- --- ---------- --- ---- --- -- ----------,312085.4000000004,312083.69999999925,311303.91,311310.5,311320.688,312122.056,,3,not
screen,html.Screen,2_3_1_0_1_4,2022-02-15T13:04:56.170Z,,,,,,,,,,,,,,,,,51,,,,,,,,,,,,,,591.7440000007628,,response,,,,13,E,,,,,,Space,keypress(Space),,,,lyrical,,,,-------- -------- --- --- know --- --- ------ -- --------<br>---- --------- --- ------- ------------ ---------- ---------<br>--- ---------- ------- ---------- ------- -- -------- ----<br>---- --- ------ ----- ------ -- ---- --- ----- -- - -------<br>-------- -- --- --- -- ----- ----------- ----- -----------<br>---- --- ---------- --- ---- --- -- ----------,312714.5999999996,312713.80000000075,312070.209,312085.5,312122.056,312720.208,,4,know
screen,html.Screen,2_3_1_0_1_5,2022-02-15T13:04:57.846Z,,,,,,,,,,,,,,,,,51,,,,,,,,,,,,,,1669.2920000000158,,response,,,,13,E,,,,,,Space,keypress(Space),,,,lyrical,,,,"-------- -------- --- --- ---- it, --- ------ -- --------<br>---- --------- --- ------- ------------ ---------- ---------<br>--- ---------- ------- ---------- ------- -- -------- ----<br>---- --- ------ ----- ------ -- ---- --- ----- -- - -------<br>-------- -- --- --- -- ----- ----------- ----- -----------<br>---- --- ---------- --- ---- --- -- ----------",314390.30000000075,314389.5,312703.572,312714.80000000075,312720.208,314403.244,,5,"it,"
screen,html.Screen,2_3_1_0_1_6,2022-02-15T13:04:58.430Z,,,,,,,,,,,,,,,,,51,,,,,,,,,,,,,,570.755999999994,,response,,,,13,E,,,,,,Space,keypress(Space),,,,lyrical,,,,-------- -------- --- --- ---- --- but ------ -- --------<br>---- --------- --- ------- ------------ ---------- ---------<br>--- ---------- ------- ---------- ------- -- -------- ----<br>---- --- ------ ----- ------ -- ---- --- ----- -- - -------<br>-------- -- --- --- -- ----- ----------- ----- -----------<br>---- --- ---------- --- ---- --- -- ----------,314974.69999999925,314974,314386.689,314390.4000000004,314403.244,314986.892,,6,but
screen,html.Screen,2_3_1_0_1_7,2022-02-15T13:04:58.920Z,,,,,,,,,,,,,,,,,51,,,,,,,,,,,,,,477.00800000038,,response,,,,13,E,,,,,,Space,keypress(Space),,,,lyrical,,,,-------- -------- --- --- ---- --- --- debate -- --------<br>---- --------- --- ------- ------------ ---------- ---------<br>--- ---------- ------- ---------- ------- -- -------- ----<br>---- --- ------ ----- ------ -- ---- --- ----- -- - -------<br>-------- -- --- --- -- ----- ----------- ----- -----------<br>---- --- ---------- --- ---- --- -- ----------,315464.69999999925,315463.9000000004,314969.925,314974.80000000075,314986.892,315469.766,,7,debate
screen,html.Screen,2_3_1_0_1_8,2022-02-15T13:04:59.560Z,,,,,,,,,,,,,,,,,51,,,,,,,,,,,,,,634.1340000003693,,response,,,,13,E,,,,,,Space,keypress(Space),,,,lyrical,,,,-------- -------- --- --- ---- --- --- ------ in --------<br>---- --------- --- ------- ------------ ---------- ---------<br>--- ---------- ------- ---------- ------- -- -------- ----<br>---- --- ------ ----- ------ -- ---- --- ----- -- - -------<br>-------- -- --- --- -- ----- ----------- ----- -----------<br>---- --- ---------- --- ---- --- -- ----------,316104.5999999996,316103.9000000004,315453.251,315464.9000000004,315469.766,316120.056,,8,in
screen,html.Screen,2_3_1_0_1_9,2022-02-15T13:05:00.225Z,,,,,,,,,,,,,,,,,51,,,,,,,,,,,,,,649.0439999996452,,response,,,,13,E,,,,,,Space,keypress(Space),,,,lyrical,,,,-------- -------- --- --- ---- --- --- ------ -- Congress<br>---- --------- --- ------- ------------ ---------- ---------<br>--- ---------- ------- ---------- ------- -- -------- ----<br>---- --- ------ ----- ------ -- ---- --- ----- -- - -------<br>-------- -- --- --- -- ----- ----------- ----- -----------<br>---- --- ---------- --- ---- --- -- ----------,316769.9000000004,316769.0999999996,316103.018,316104.80000000075,316120.056,316786.407,,9,Congress
screen,html.Screen,2_3_1_0_1_10,2022-02-15T13:05:00.815Z,,,,,,,,,,,,,,,,,51,,,,,,,,,,,,,,572.692999999621,,response,,,,13,E,,,,,,Space,keypress(Space),,,,lyrical,,,,-------- -------- --- --- ---- --- --- ------ -- --------<br>over --------- --- ------- ------------ ---------- ---------<br>--- ---------- ------- ---------- ------- -- -------- ----<br>---- --- ------ ----- ------ -- ---- --- ----- -- - -------<br>-------- -- --- --- -- ----- ----------- ----- -----------<br>---- --- ---------- --- ---- --- -- ----------,317359.9000000004,317359.0999999996,316769.752,316770.0999999996,316786.407,317369.578,,10,over
screen,html.Screen,2_3_1_0_1_11,2022-02-15T13:05:01.680Z,,,,,,,,,,,,,,,,,51,,,,,,,,,,,,,,854.2220000007655,,response,,,,13,E,,,,,,Space,keypress(Space),,,,lyrical,,,,-------- -------- --- --- ---- --- --- ------ -- --------<br>---- reforming --- ------- ------------ ---------- ---------<br>--- ---------- ------- ---------- ------- -- -------- ----<br>---- --- ------ ----- ------ -- ---- --- ----- -- - -------<br>-------- -- --- --- -- ----- ----------- ----- -----------<br>---- --- ---------- --- ---- --- -- ----------,318224.5,318223.80000000075,317353.211,317360.0999999996,317369.578,318236.256,,11,reforming
screen,html.Screen,2_3_1_0_1_12,2022-02-15T13:05:02.175Z,,,,,,,,,,,,,,,,,51,,,,,,,,,,,,,,482.74400000000605,,response,,,,13,E,,,,,,Space,keypress(Space),,,,lyrical,,,,-------- -------- --- --- ---- --- --- ------ -- --------<br>---- --------- the ------- ------------ ---------- ---------<br>--- ---------- ------- ---------- ------- -- -------- ----<br>---- --- ------ ----- ------ -- ---- --- ----- -- - -------<br>-------- -- --- --- -- ----- ----------- ----- -----------<br>---- --- ---------- --- ---- --- -- ----------,318719.9000000004,318719,318219.456,318224.69999999925,318236.256,318736.239,,12,the
screen,html.Screen,2_3_1_0_1_13,2022-02-15T13:05:02.811Z,,,,,,,,,,,,,,,,,51,,,,,,,,,,,,,,618.4609999992535,,response,,,,13,E,,,,,,Space,keypress(Space),,,,lyrical,,,,-------- -------- --- --- ---- --- --- ------ -- --------<br>---- --------- --- federal ------------ ---------- ---------<br>--- ---------- ------- ---------- ------- -- -------- ----<br>---- --- ------ ----- ------ -- ---- --- ----- -- - -------<br>-------- -- --- --- -- ----- ----------- ----- -----------<br>---- --- ---------- --- ---- --- -- ----------,319355.5999999996,319354.69999999925,318719.714,318720.0999999996,318736.239,319369.648,,13,federal
screen,html.Screen,2_3_1_0_1_14,2022-02-15T13:05:03.715Z,,,,,,,,,,,,,,,,,51,,,,,,,,,,,,,,889.1520000007586,,response,,,,13,E,,,,,,Space,keypress(Space),,,,lyrical,,,,-------- -------- --- --- ---- --- --- ------ -- --------<br>---- --------- --- ------- government's ---------- ---------<br>--- ---------- ------- ---------- ------- -- -------- ----<br>---- --- ------ ----- ------ -- ---- --- ----- -- - -------<br>-------- -- --- --- -- ----- ----------- ----- -----------<br>---- --- ---------- --- ---- --- -- ----------,320259.5999999996,320258.80000000075,319352.594,319355.69999999925,319369.648,320269.505,,14,government's
screen,html.Screen,2_3_1_0_1_15,2022-02-15T13:05:04.398Z,,,,,,,,,,,,,,,,,51,,,,,,,,,,,,,,672.0949999996228,,response,,,,13,E,,,,,,Space,keypress(Space),,,,lyrical,,,,-------- -------- --- --- ---- --- --- ------ -- --------<br>---- --------- --- ------- ------------ regulatory ---------<br>--- ---------- ------- ---------- ------- -- -------- ----<br>---- --- ------ ----- ------ -- ---- --- ----- -- - -------<br>-------- -- --- --- -- ----- ----------- ----- -----------<br>---- --- ---------- --- ---- --- -- ----------,320942.30000000075,320941.5999999996,320252.991,320259.80000000075,320269.505,320952.693,,15,regulatory
screen,html.Screen,2_3_1_0_1_16,2022-02-15T13:05:05.130Z,,,,,,,,,,,,,,,,,51,,,,,,,,,,,,,,720.8069999999716,,response,,,,13,E,,,,,,Space,keypress(Space),,,,lyrical,,,,-------- -------- --- --- ---- --- --- ------ -- --------<br>---- --------- --- ------- ------------ ---------- apparatus<br>--- ---------- ------- ---------- ------- -- -------- ----<br>---- --- ------ ----- ------ -- ---- --- ----- -- - -------<br>-------- -- --- --- -- ----- ----------- ----- -----------<br>---- --- ---------- --- ---- --- -- ----------,321674.0999999996,321673.5,320936.281,320942.5,320952.693,321685.883,,16,apparatus
screen,html.Screen,2_3_1_0_1_17,2022-02-15T13:05:05.695Z,,,,,,,,,,,,,,,,,51,,,,,,,,,,,,,,553.0170000004,,response,,,,13,E,,,,,,Space,keypress(Space),,,,lyrical,,,,-------- -------- --- --- ---- --- --- ------ -- --------<br>---- --------- --- ------- ------------ ---------- ---------<br>may ---------- ------- ---------- ------- -- -------- ----<br>---- --- ------ ----- ------ -- ---- --- ----- -- - -------<br>-------- -- --- --- -- ----- ----------- ----- -----------<br>---- --- ---------- --- ---- --- -- ----------,322239.80000000075,322238.9000000004,321669.027,321674.30000000075,321685.883,322252.675,,17,may
screen,html.Screen,2_3_1_0_1_18,2022-02-15T13:05:06.645Z,,,,,,,,,,,,,,,,,51,,,,,,,,,,,,,,936.0249999992666,,response,,,,13,E,,,,,,Space,keypress(Space),,,,lyrical,,,,-------- -------- --- --- ---- --- --- ------ -- --------<br>---- --------- --- ------- ------------ ---------- ---------<br>--- profoundly ------- ---------- ------- -- -------- ----<br>---- --- ------ ----- ------ -- ---- --- ----- -- - -------<br>-------- -- --- --- -- ----- ----------- ----- -----------<br>---- --- ---------- --- ---- --- -- ----------,323189.5999999996,323188.69999999925,322235.923,322239.9000000004,322252.675,323202.504,,18,profoundly
screen,html.Screen,2_3_1_0_1_19,2022-02-15T13:05:07.690Z,,,,,,,,,,,,,,,,,51,,,,,,,,,,,,,,1031.4959999999846,,response,,,,13,E,,,,,,Space,keypress(Space),,,,lyrical,,,,-------- -------- --- --- ---- --- --- ------ -- --------<br>---- --------- --- ------- ------------ ---------- ---------<br>--- ---------- improve ---------- ------- -- -------- ----<br>---- --- ------ ----- ------ -- ---- --- ----- -- - -------<br>-------- -- --- --- -- ----- ----------- ----- -----------<br>---- --- ---------- --- ---- --- -- ----------,324234.69999999925,324234,323185.603,323189.69999999925,323202.504,324252.014,,19,improve
screen,html.Screen,2_3_1_0_1_20,2022-02-15T13:05:09.625Z,,,,,,,,,,,,,,,,,51,,,,,,,,,,,,,,1916.7860000007204,,response,,,,13,E,,,,,,Space,keypress(Space),,,,lyrical,,,,-------- -------- --- --- ---- --- --- ------ -- --------<br>---- --------- --- ------- ------------ ---------- ---------<br>--- ---------- ------- companies' ------- -- -------- ----<br>---- --- ------ ----- ------ -- ---- --- ----- -- - -------<br>-------- -- --- --- -- ----- ----------- ----- -----------<br>---- --- ---------- --- ---- --- -- ----------,326169.5999999996,326168.80000000075,324235.369,324234.9000000004,324252.014,326185.117,,20,companies'
screen,html.Screen,2_3_1_0_1_21,2022-02-15T13:05:11.155Z,,,,,,,,,,,,,,,,,51,,,,,,,,,,,,,,1513.783000000345,,response,,,,13,E,,,,,,Space,keypress(Space),,,,lyrical,,,,-------- -------- --- --- ---- --- --- ------ -- --------<br>---- --------- --- ------- ------------ ---------- ---------<br>--- ---------- ------- ---------- ability -- -------- ----<br>---- --- ------ ----- ------ -- ---- --- ----- -- - -------<br>-------- -- --- --- -- ----- ----------- ----- -----------<br>---- --- ---------- --- ---- --- -- ----------,327699.80000000075,327698.9000000004,326168.6,326169.69999999925,326185.117,327722.099,,21,ability
screen,html.Screen,2_3_1_0_1_22,2022-02-15T13:05:11.970Z,,,,,,,,,,,,,,,,,51,,,,,,,,,,,,,,791.2010000007576,,response,,,,13,E,,,,,,Space,keypress(Space),,,,lyrical,,,,-------- -------- --- --- ---- --- --- ------ -- --------<br>---- --------- --- ------- ------------ ---------- ---------<br>--- ---------- ------- ---------- ------- to -------- ----<br>---- --- ------ ----- ------ -- ---- --- ----- -- - -------<br>-------- -- --- --- -- ----- ----------- ----- -----------<br>---- --- ---------- --- ---- --- -- ----------,328514.0999999996,328513.30000000075,327685.061,327699.9000000004,327722.099,328518.053,,22,to
screen,html.Screen,2_3_1_0_1_23,2022-02-15T13:05:12.530Z,,,,,,,,,,,,,,,,,51,,,,,,,,,,,,,,555.3470000003581,,response,,,,13,E,,,,,,Space,keypress(Space),,,,lyrical,,,,-------- -------- --- --- ---- --- --- ------ -- --------<br>---- --------- --- ------- ------------ ---------- ---------<br>--- ---------- ------- ---------- ------- -- survive. ----<br>---- --- ------ ----- ------ -- ---- --- ----- -- - -------<br>-------- -- --- --- -- ----- ----------- ----- -----------<br>---- --- ---------- --- ---- --- -- ----------,329074.30000000075,329073.4000000004,328501.707,328514.30000000075,328518.053,329085.064,,23,survive.
screen,html.Screen,2_3_1_0_1_24,2022-02-15T13:05:13.330Z,,,,,,,,,,,,,,,,,51,,,,,,,,,,,,,,789.0359999996144,,response,,,,13,E,,,,,,Space,keypress(Space),,,,lyrical,,,,-------- -------- --- --- ---- --- --- ------ -- --------<br>---- --------- --- ------- ------------ ---------- ---------<br>--- ---------- ------- ---------- ------- -- -------- This<br>---- --- ------ ----- ------ -- ---- --- ----- -- - -------<br>-------- -- --- --- -- ----- ----------- ----- -----------<br>---- --- ---------- --- ---- --- -- ----------,329874.9000000004,329874.0999999996,329068.267,329074.4000000004,329085.064,329884.784,,24,This
screen,html.Screen,2_3_1_0_1_25,2022-02-15T13:05:14.040Z,,,,,,,,,,,,,,,,,51,,,,,,,,,,,,,,698.7160000000149,,response,,,,13,E,,,,,,Space,keypress(Space),,,,lyrical,,,,-------- -------- --- --- ---- --- --- ------ -- --------<br>---- --------- --- ------- ------------ ---------- ---------<br>--- ---------- ------- ---------- ------- -- -------- ----<br>week --- ------ ----- ------ -- ---- --- ----- -- - -------<br>-------- -- --- --- -- ----- ----------- ----- -----------<br>---- --- ---------- --- ---- --- -- ----------,330584.19999999925,330583.5,329867.907,329875.0999999996,329884.784,330601.158,,25,week
screen,html.Screen,2_3_1_0_1_26,2022-02-15T13:05:14.597Z,,,,,,,,,,,,,,,,,51,,,,,,,,,,,,,,539.4419999996317,,response,,,,13,E,,,,,,Space,keypress(Space),,,,lyrical,,,,-------- -------- --- --- ---- --- --- ------ -- --------<br>---- --------- --- ------- ------------ ---------- ---------<br>--- ---------- ------- ---------- ------- -- -------- ----<br>---- the ------ ----- ------ -- ---- --- ----- -- - -------<br>-------- -- --- --- -- ----- ----------- ----- -----------<br>---- --- ---------- --- ---- --- -- ----------,331141.4000000004,331140.5999999996,330584.773,330584.30000000075,330601.158,331151.061,,26,the
screen,html.Screen,2_3_1_0_1_27,2022-02-15T13:05:15.356Z,,,,,,,,,,,,,,,,,51,,,,,,,,,,,,,,748.638999999268,,response,,,,13,E,,,,,,Space,keypress(Space),,,,lyrical,,,,-------- -------- --- --- ---- --- --- ------ -- --------<br>---- --------- --- ------- ------------ ---------- ---------<br>--- ---------- ------- ---------- ------- -- -------- ----<br>---- --- Senate ----- ------ -- ---- --- ----- -- - -------<br>-------- -- --- --- -- ----- ----------- ----- -----------<br>---- --- ---------- --- ---- --- -- ----------,331900.5999999996,331899.69999999925,331134.46,331141.5999999996,331151.061,331918.024,,27,Senate
screen,html.Screen,2_3_1_0_1_28,2022-02-15T13:05:15.875Z,,,,,,,,,,,,,,,,,51,,,,,,,,,,,,,,500.7760000007693,,response,,,,13,E,,,,,,Space,keypress(Space),,,,lyrical,,,,-------- -------- --- --- ---- --- --- ------ -- --------<br>---- --------- --- ------- ------------ ---------- ---------<br>--- ---------- ------- ---------- ------- -- -------- ----<br>---- --- ------ seems ------ -- ---- --- ----- -- - -------<br>-------- -- --- --- -- ----- ----------- ----- -----------<br>---- --- ---------- --- ---- --- -- ----------,332419.5999999996,332418.80000000075,331901.186,331900.69999999925,331918.024,332434.464,,28,seems
screen,html.Screen,2_3_1_0_1_29,2022-02-15T13:05:16.500Z,,,,,,,,,,,,,,,,,51,,,,,,,,,,,,,,609.1359999996494,,response,,,,13,E,,,,,,Space,keypress(Space),,,,lyrical,,,,-------- -------- --- --- ---- --- --- ------ -- --------<br>---- --------- --- ------- ------------ ---------- ---------<br>--- ---------- ------- ---------- ------- -- -------- ----<br>---- --- ------ ----- poised -- ---- --- ----- -- - -------<br>-------- -- --- --- -- ----- ----------- ----- -----------<br>---- --- ---------- --- ---- --- -- ----------,333044.30000000075,333043.5999999996,332417.906,332419.80000000075,332434.464,333050.955,,29,poised
screen,html.Screen,2_3_1_0_1_30,2022-02-15T13:05:17.099Z,,,,,,,,,,,,,,,,,51,,,,,,,,,,,,,,592.2449999992386,,response,,,,13,E,,,,,,Space,keypress(Space),,,,lyrical,,,,-------- -------- --- --- ---- --- --- ------ -- --------<br>---- --------- --- ------- ------------ ---------- ---------<br>--- ---------- ------- ---------- ------- -- -------- ----<br>---- --- ------ ----- ------ to ---- --- ----- -- - -------<br>-------- -- --- --- -- ----- ----------- ----- -----------<br>---- --- ---------- --- ---- --- -- ----------,333643.9000000004,333643.19999999925,333034.303,333044.5999999996,333050.955,333650.737,,30,to
screen,html.Screen,2_3_1_0_1_31,2022-02-15T13:05:17.715Z,,,,,,,,,,,,,,,,,51,,,,,,,,,,,,,,607.9629999992321,,response,,,,13,E,,,,,,Space,keypress(Space),,,,lyrical,,,,-------- -------- --- --- ---- --- --- ------ -- --------<br>---- --------- --- ------- ------------ ---------- ---------<br>--- ---------- ------- ---------- ------- -- -------- ----<br>---- --- ------ ----- ------ -- join --- ----- -- - -------<br>-------- -- --- --- -- ----- ----------- ----- -----------<br>---- --- ---------- --- ---- --- -- ----------,334259.5999999996,334258.69999999925,333634.161,333644.0999999996,333650.737,334267.504,,31,join
screen,html.Screen,2_3_1_0_1_32,2022-02-15T13:05:18.279Z,,,,,,,,,,,,,,,,,51,,,,,,,,,,,,,,555.5959999996121,,response,,,,13,E,,,,,,Space,keypress(Space),,,,lyrical,,,,-------- -------- --- --- ---- --- --- ------ -- --------<br>---- --------- --- ------- ------------ ---------- ---------<br>--- ---------- ------- ---------- ------- -- -------- ----<br>---- --- ------ ----- ------ -- ---- the ----- -- - -------<br>-------- -- --- --- -- ----- ----------- ----- -----------<br>---- --- ---------- --- ---- --- -- ----------,334823.69999999925,334823.0999999996,334250.822,334259.69999999925,334267.504,334833.979,,32,the
screen,html.Screen,2_3_1_0_1_33,2022-02-15T13:05:19.845Z,,,,,,,,,,,,,,,,,51,,,,,,,,,,,,,,1554.7209999992629,,response,,,,13,E,,,,,,Space,keypress(Space),,,,lyrical,,,,-------- -------- --- --- ---- --- --- ------ -- --------<br>---- --------- --- ------- ------------ ---------- ---------<br>--- ---------- ------- ---------- ------- -- -------- ----<br>---- --- ------ ----- ------ -- ---- --- House -- - -------<br>-------- -- --- --- -- ----- ----------- ----- -----------<br>---- --- ---------- --- ---- --- -- ----------,336389.5,336388.69999999925,334817.401,334823.9000000004,334833.979,336400.437,,33,House
screen,html.Screen,2_3_1_0_1_34,2022-02-15T13:05:20.316Z,,,,,,,,,,,,,,,,,51,,,,,,,,,,,,,,459.2629999992787,,response,,,,13,E,,,,,,Space,keypress(Space),,,,lyrical,,,,-------- -------- --- --- ---- --- --- ------ -- --------<br>---- --------- --- ------- ------------ ---------- ---------<br>--- ---------- ------- ---------- ------- -- -------- ----<br>---- --- ------ ----- ------ -- ---- --- ----- in - -------<br>-------- -- --- --- -- ----- ----------- ----- -----------<br>---- --- ---------- --- ---- --- -- ----------,336860.4000000004,336859.69999999925,336383.945,336389.69999999925,336400.437,336867.012,,34,in
screen,html.Screen,2_3_1_0_1_35,2022-02-15T13:05:20.769Z,,,,,,,,,,,,,,,,,51,,,,,,,,,,,,,,446.0879999996396,,response,,,,13,E,,,,,,Space,keypress(Space),,,,lyrical,,,,-------- -------- --- --- ---- --- --- ------ -- --------<br>---- --------- --- ------- ------------ ---------- ---------<br>--- ---------- ------- ---------- ------- -- -------- ----<br>---- --- ------ ----- ------ -- ---- --- ----- -- a -------<br>-------- -- --- --- -- ----- ----------- ----- -----------<br>---- --- ---------- --- ---- --- -- ----------,337313.9000000004,337313.0999999996,336850.405,336860.5999999996,336867.012,337316.886,,35,a
screen,html.Screen,2_3_1_0_1_36,2022-02-15T13:05:21.350Z,,,,,,,,,,,,,,,,,51,,,,,,,,,,,,,,576.8139999992563,,response,,,,13,E,,,,,,Space,keypress(Space),,,,lyrical,,,,-------- -------- --- --- ---- --- --- ------ -- --------<br>---- --------- --- ------- ------------ ---------- ---------<br>--- ---------- ------- ---------- ------- -- -------- ----<br>---- --- ------ ----- ------ -- ---- --- ----- -- - massive<br>-------- -- --- --- -- ----- ----------- ----- -----------<br>---- --- ---------- --- ---- --- -- ----------,337894.30000000075,337893.69999999925,337300.313,337314.0999999996,337316.886,337900.274,,36,massive
screen,html.Screen,2_3_1_0_1_37,2022-02-15T13:05:21.819Z,,,,,,,,,,,,,,,,,51,,,,,,,,,,,,,,462.8259999996517,,response,,,,13,E,,,,,,Space,keypress(Space),,,,lyrical,,,,-------- -------- --- --- ---- --- --- ------ -- --------<br>---- --------- --- ------- ------------ ---------- ---------<br>--- ---------- ------- ---------- ------- -- -------- ----<br>---- --- ------ ----- ------ -- ---- --- ----- -- - -------<br>overhaul -- --- --- -- ----- ----------- ----- -----------<br>---- --- ---------- --- ---- --- -- ----------,338363.80000000075,338363.0999999996,337883.565,337894.5,337900.274,338366.734,,37,overhaul
screen,html.Screen,2_3_1_0_1_38,2022-02-15T13:05:22.269Z,,,,,,,,,,,,,,,,,51,,,,,,,,,,,,,,446.36599999963073,,response,,,,13,E,,,,,,Space,keypress(Space),,,,lyrical,,,,-------- -------- --- --- ---- --- --- ------ -- --------<br>---- --------- --- ------- ------------ ---------- ---------<br>--- ---------- ------- ---------- ------- -- -------- ----<br>---- --- ------ ----- ------ -- ---- --- ----- -- - -------<br>-------- of --- --- -- ----- ----------- ----- -----------<br>---- --- ---------- --- ---- --- -- ----------,338813.80000000075,338813.0999999996,338350.278,338363.9000000004,338366.734,338816.701,,38,of
